»»»»»»»»»»»»»»»»»»»»»»»»»»»»»»»»»»»» Hysteresis ««««««««««««««««««««««««««««««««««««
»»»  Executed Version:	5.48.1
»»»  Vision Version:	5.48.4 (R)
»»»  Vision Compiled:	9/18/24
»»»  Driver Version:	5.47.0
»»»  Windows Version:	Windows 8 or 8.1
»»»  Processor Information:	x86 (AMD or Intel) - 32 Processors
»»»  Tester Name:	PMF21124-494 (100V)
»»»  Tester S/N:	PMF21124-494
»»»  Internal Amp Type:	100V RevK 270k
»»»  Internal Amp S/N:	iAB2-596/K     
»»»  Execution Count:	1
»»»»»»»»»»»»»»»»»»»»»»»»»»»»»»»»»»»»»»»»»»««««««««««««««««««««««««««««««««««««««««««

Stored:	6/13/2025 - 15:52:52
Configured:	06/13/25 01:30:53 PM
Executed:	06/13/25 03:52:06 PM

»»»»»»»»»»»»»»»»»»»»»»»»»»»»»»»»»»» Sample Info ««««««««««««««««««««««««««««««««««««
Sample Name:	
Lot Name:	
Wafer Name:	
Die Row/Column:	0/0
Capacitor Number:	0
Sample Area (cm2):	1.00e-04
Sample Thickness (microns):	3.00e-01

Amplifier:	Internal

»»»»»»»»»»»»»»»»»»»»»»»»»»»»»»»»»»» Tester Info «««««««««««««««««««««««««««««««««««
Tester Name:	PMF21124-494 (100V)
Tester Serial Number:	PMF21124-494
Return Signal Amp. Level:	0.19 [Index: 3]

»»»»»»»»»»»»»»»»»»»»»»»»»»»»»»»» Hysteresis Info ««««««««««««««««««««««««««««««««««
Task Name:	Hyst-1922
Volts:	20.00
Field:	666.67 (kV/cm)
DCBias:	0.00
DCField:	0.00 (kV/cm)
Hysteresis Period (ms):	2.00e+02
Preset:	Enabled
Preset Delay (ms):	1.00e+03
Profile:	Standard Bipolar

»»»»»»»»»»»»»»»»»»»»»»»»»»»»»»»»»»»»»» Data «««««««««««««««««««««««««««««««««««««««
Points:	2009

Valid Data

Point	Time (ms)	Drive Voltage	Measured Polarization (uC/cm2)	Capacitance (uF)	Normalized Capacitance (uF/cm2)	Dielectric Constant	Instantaneous Current (mA)
   1	0.0000e+00	0.0128	-2.206295	0.000193	1.925892	0.652510	0.000077
   2	9.9500e-02	0.0369	-2.129589	0.000193	1.925892	0.652510	0.000077
   3	1.9900e-01	0.0754	-1.980215	0.000375	3.750422	1.270677	0.000150
   4	2.9850e-01	0.1203	-1.806618	0.000436	4.358598	1.476733	0.000174
   5	3.9800e-01	0.1476	-1.713764	0.000233	2.331343	0.789880	0.000093
   6	4.9750e-01	0.1845	-1.576502	0.000345	3.446333	1.167649	0.000138
   7	5.9700e-01	0.2342	-1.419053	0.000395	3.953147	1.339363	0.000158
   8	6.9650e-01	0.2695	-1.229308	0.000476	4.764049	1.614104	0.000191
   9	7.9600e-01	0.3128	-1.128379	0.000253	2.534069	0.858566	0.000101
  10	8.9550e-01	0.3610	-0.954783	0.000436	4.358598	1.476733	0.000174
  11	9.9500e-01	0.3930	-0.825594	0.000324	3.243608	1.098964	0.000130
  12	1.0945e+00	0.4364	-0.708517	0.000294	2.939520	0.995936	0.000118
  13	1.1940e+00	0.4749	-0.522809	0.000466	4.662686	1.579761	0.000187
  14	1.2935e+00	0.5198	-0.417844	0.000264	2.635431	0.892908	0.000105
  15	1.3930e+00	0.5567	-0.252321	0.000416	4.155873	1.408048	0.000166
  16	1.4925e+00	0.5888	-0.098910	0.000385	3.851784	1.305020	0.000154
  17	1.5920e+00	0.6321	0.022204	0.000304	3.040882	1.030279	0.000122
  18	1.6915e+00	0.6770	0.207912	0.000466	4.662686	1.579761	0.000187
  19	1.7910e+00	0.7059	0.377472	0.000426	4.257235	1.442390	0.000170
  20	1.8905e+00	0.7524	0.478401	0.000253	2.534069	0.858566	0.000101
  21	1.9900e+00	0.7909	0.627775	0.000375	3.750422	1.270677	0.000150
  22	2.0895e+00	0.8262	0.769074	0.000355	3.547696	1.201992	0.000142
  23	2.1890e+00	0.8871	0.958820	0.000476	4.764049	1.614104	0.000191
  24	2.2885e+00	0.9112	1.092045	0.000334	3.344971	1.133307	0.000134
  25	2.3880e+00	0.9529	1.257568	0.000416	4.155873	1.408048	0.000166
  26	2.4875e+00	0.9994	1.366570	0.000274	2.736794	0.927251	0.000110
  27	2.5870e+00	1.0331	1.479610	0.000284	2.838157	0.961594	0.000114
  28	2.6865e+00	1.0700	1.681467	0.000507	5.068137	1.717131	0.000203
  29	2.7860e+00	1.1069	1.802581	0.000304	3.040882	1.030279	0.000122
  30	2.8855e+00	1.1470	1.980215	0.000446	4.459961	1.511076	0.000179
  31	2.9850e+00	1.1952	2.145738	0.000416	4.155873	1.408048	0.000166
  32	3.0845e+00	1.2321	2.258777	0.000284	2.838157	0.961594	0.000114
  33	3.1840e+00	1.2706	2.436411	0.000446	4.459961	1.511076	0.000179
  34	3.2835e+00	1.3091	2.573674	0.000345	3.446333	1.167649	0.000138
  35	3.3830e+00	1.3460	2.706900	0.000334	3.344971	1.133307	0.000134
  36	3.4825e+00	1.3973	2.852236	0.000365	3.649059	1.236335	0.000146
  37	3.5820e+00	1.4310	3.005648	0.000385	3.851784	1.305020	0.000154
  38	3.6815e+00	1.4759	3.179244	0.000436	4.358598	1.476733	0.000174
  39	3.7810e+00	1.5128	3.352841	0.000436	4.358598	1.476733	0.000174
  40	3.8805e+00	1.5529	3.469918	0.000294	2.939520	0.995936	0.000118
  41	3.9800e+00	1.5898	3.663701	0.000487	4.865412	1.648446	0.000195
  42	4.0795e+00	1.6267	3.764629	0.000253	2.534069	0.858566	0.000101
  43	4.1790e+00	1.6764	3.909966	0.000365	3.649059	1.236335	0.000146
  44	4.2785e+00	1.7101	4.067414	0.000395	3.953147	1.339363	0.000158
  45	4.3780e+00	1.7582	4.224863	0.000395	3.953147	1.339363	0.000158
  46	4.4775e+00	1.7919	4.394422	0.000426	4.257235	1.442390	0.000170
  47	4.5770e+00	1.8224	4.503425	0.000274	2.736794	0.927251	0.000110
  48	4.6765e+00	1.8705	4.713356	0.000527	5.270863	1.785817	0.000211
  49	4.7760e+00	1.9138	4.842544	0.000324	3.243608	1.098964	0.000130
  50	4.8755e+00	1.9459	4.999993	0.000395	3.953147	1.339363	0.000158
  51	4.9750e+00	1.9844	5.177627	0.000446	4.459961	1.511076	0.000179
  52	5.0745e+00	2.0229	5.294704	0.000294	2.939520	0.995936	0.000118
  53	5.1740e+00	2.0695	5.468300	0.000436	4.358598	1.476733	0.000174
  54	5.2735e+00	2.1080	5.609600	0.000355	3.547696	1.201992	0.000142
  55	5.3730e+00	2.1449	5.787234	0.000446	4.459961	1.511076	0.000179
  56	5.4725e+00	2.1818	5.960831	0.000436	4.358598	1.476733	0.000174
  57	5.5720e+00	2.2267	6.061759	0.000253	2.534069	0.858566	0.000101
  58	5.6715e+00	2.2700	6.223245	0.000405	4.054510	1.373705	0.000162
  59	5.7710e+00	2.3053	6.368582	0.000365	3.649059	1.236335	0.000146
  60	5.8705e+00	2.3534	6.542178	0.000436	4.358598	1.476733	0.000174
  61	5.9700e+00	2.3839	6.695590	0.000385	3.851784	1.305020	0.000154
  62	6.0695e+00	2.4272	6.840927	0.000365	3.649059	1.236335	0.000146
  63	6.1690e+00	2.4705	7.002412	0.000405	4.054510	1.373705	0.000162
  64	6.2685e+00	2.5010	7.139675	0.000345	3.446333	1.167649	0.000138
  65	6.3680e+00	2.5507	7.301160	0.000405	4.054510	1.373705	0.000162
  66	6.4675e+00	2.5876	7.418237	0.000294	2.939520	0.995936	0.000118
  67	6.5670e+00	2.6213	7.624131	0.000517	5.169500	1.751474	0.000207
  68	6.6665e+00	2.6662	7.716985	0.000233	2.331343	0.789880	0.000093
  69	6.7660e+00	2.6983	7.898656	0.000456	4.561324	1.545418	0.000183
  70	6.8655e+00	2.7432	8.084364	0.000466	4.662686	1.579761	0.000187
  71	6.9650e+00	2.7898	8.144921	0.000152	1.520441	0.515139	0.000061
  72	7.0645e+00	2.8283	8.302370	0.000395	3.953147	1.339363	0.000158
  73	7.1640e+00	2.8603	8.455781	0.000385	3.851784	1.305020	0.000154
  74	7.2635e+00	2.9021	8.637452	0.000456	4.561324	1.545418	0.000183
  75	7.3630e+00	2.9438	8.746455	0.000274	2.736794	0.927251	0.000110
  76	7.4625e+00	2.9839	8.928126	0.000456	4.561324	1.545418	0.000183
  77	7.5620e+00	3.0272	9.085574	0.000395	3.953147	1.339363	0.000158
  78	7.6615e+00	3.0593	9.210725	0.000314	3.142245	1.064621	0.000126
  79	7.7610e+00	3.1026	9.396433	0.000466	4.662686	1.579761	0.000187
  80	7.8605e+00	3.1427	9.549845	0.000385	3.851784	1.305020	0.000154
  81	7.9600e+00	3.1780	9.691144	0.000355	3.547696	1.201992	0.000142
  82	8.0595e+00	3.2229	9.836481	0.000365	3.649059	1.236335	0.000146
  83	8.1590e+00	3.2614	9.993930	0.000395	3.953147	1.339363	0.000158
  84	8.2585e+00	3.3031	10.086784	0.000233	2.331343	0.789880	0.000093
  85	8.3580e+00	3.3416	10.296715	0.000527	5.270863	1.785817	0.000211
  86	8.4575e+00	3.3753	10.409755	0.000284	2.838157	0.961594	0.000114
  87	8.5570e+00	3.4250	10.567203	0.000395	3.953147	1.339363	0.000158
  88	8.6565e+00	3.4523	10.765022	0.000497	4.966775	1.682789	0.000199
  89	8.7560e+00	3.5069	10.849802	0.000213	2.128618	0.721195	0.000085
  90	8.8555e+00	3.5405	11.015325	0.000416	4.155873	1.408048	0.000166
  91	8.9550e+00	3.5790	11.156625	0.000355	3.547696	1.201992	0.000142
  92	9.0545e+00	3.6175	11.293887	0.000345	3.446333	1.167649	0.000138
  93	9.1540e+00	3.6705	11.443261	0.000375	3.750422	1.270677	0.000150
  94	9.2535e+00	3.6994	11.580524	0.000345	3.446333	1.167649	0.000138
  95	9.3530e+00	3.7314	11.737972	0.000395	3.953147	1.339363	0.000158
  96	9.4525e+00	3.7764	11.863123	0.000314	3.142245	1.064621	0.000126
  97	9.5520e+00	3.8197	12.036720	0.000436	4.358598	1.476733	0.000174
  98	9.6515e+00	3.8662	12.198206	0.000405	4.054510	1.373705	0.000162
  99	9.7510e+00	3.9095	12.307208	0.000274	2.736794	0.927251	0.000110
 100	9.8505e+00	3.9352	12.472731	0.000416	4.155873	1.408048	0.000166
 101	9.9500e+00	3.9785	12.597882	0.000314	3.142245	1.064621	0.000126
 102	1.0050e+01	4.0218	12.767442	0.000426	4.257235	1.442390	0.000170
 103	1.0149e+01	4.0603	12.924890	0.000395	3.953147	1.339363	0.000158
 104	1.0248e+01	4.1020	13.070227	0.000365	3.649059	1.236335	0.000146
 105	1.0348e+01	4.1341	13.227675	0.000395	3.953147	1.339363	0.000158
 106	1.0447e+01	4.1790	13.348789	0.000304	3.040882	1.030279	0.000122
 107	1.0547e+01	4.2175	13.494126	0.000365	3.649059	1.236335	0.000146
 108	1.0646e+01	4.2528	13.619277	0.000314	3.142245	1.064621	0.000126
 109	1.0746e+01	4.3074	13.776726	0.000395	3.953147	1.339363	0.000158
 110	1.0845e+01	4.3443	13.905914	0.000324	3.243608	1.098964	0.000130
 111	1.0945e+01	4.3796	14.055288	0.000375	3.750422	1.270677	0.000150
 112	1.1044e+01	4.4197	14.224848	0.000426	4.257235	1.442390	0.000170
 113	1.1144e+01	4.4534	14.366148	0.000355	3.547696	1.201992	0.000142
 114	1.1243e+01	4.5047	14.519559	0.000385	3.851784	1.305020	0.000154
 115	1.1343e+01	4.5384	14.652784	0.000334	3.344971	1.133307	0.000134
 116	1.1443e+01	4.5801	14.749675	0.000243	2.432706	0.824223	0.000097
 117	1.1542e+01	4.6234	14.931347	0.000456	4.561324	1.545418	0.000183
 118	1.1642e+01	4.6571	15.092832	0.000405	4.054510	1.373705	0.000162
 119	1.1741e+01	4.6956	15.258355	0.000416	4.155873	1.408048	0.000166
 120	1.1841e+01	4.7485	15.379469	0.000304	3.040882	1.030279	0.000122
 121	1.1940e+01	4.7774	15.496546	0.000294	2.939520	0.995936	0.000118
 122	1.2040e+01	4.8095	15.637845	0.000355	3.547696	1.201992	0.000142
 123	1.2139e+01	4.8496	15.767034	0.000324	3.243608	1.098964	0.000130
 124	1.2239e+01	4.8993	15.948705	0.000456	4.561324	1.545418	0.000183
 125	1.2338e+01	4.9362	16.069819	0.000304	3.040882	1.030279	0.000122
 126	1.2438e+01	4.9827	16.203044	0.000334	3.344971	1.133307	0.000134
 127	1.2537e+01	5.0180	16.344344	0.000355	3.547696	1.201992	0.000142
 128	1.2636e+01	5.0646	16.513904	0.000426	4.257235	1.442390	0.000170
 129	1.2736e+01	5.1015	16.651166	0.000345	3.446333	1.167649	0.000138
 130	1.2835e+01	5.1303	16.756132	0.000264	2.635431	0.892908	0.000105
 131	1.2935e+01	5.1753	16.921654	0.000416	4.155873	1.408048	0.000166
 132	1.3034e+01	5.2122	17.046806	0.000314	3.142245	1.064621	0.000126
 133	1.3134e+01	5.2523	17.180031	0.000334	3.344971	1.133307	0.000134
 134	1.3233e+01	5.3004	17.325368	0.000365	3.649059	1.236335	0.000146
 135	1.3333e+01	5.3421	17.462631	0.000345	3.446333	1.167649	0.000138
 136	1.3432e+01	5.3694	17.607968	0.000365	3.649059	1.236335	0.000146
 137	1.3532e+01	5.4143	17.757342	0.000375	3.750422	1.270677	0.000150
 138	1.3632e+01	5.4544	17.902678	0.000365	3.649059	1.236335	0.000146
 139	1.3731e+01	5.4897	18.023793	0.000304	3.040882	1.030279	0.000122
 140	1.3831e+01	5.5410	18.161055	0.000345	3.446333	1.167649	0.000138
 141	1.3930e+01	5.5651	18.294281	0.000334	3.344971	1.133307	0.000134
 142	1.4030e+01	5.6116	18.415395	0.000304	3.040882	1.030279	0.000122
 143	1.4129e+01	5.6581	18.613214	0.000497	4.966775	1.682789	0.000199
 144	1.4229e+01	5.6934	18.722217	0.000274	2.736794	0.927251	0.000110
 145	1.4328e+01	5.7335	18.883702	0.000405	4.054510	1.373705	0.000162
 146	1.4428e+01	5.7768	19.025002	0.000355	3.547696	1.201992	0.000142
 147	1.4527e+01	5.8169	19.129968	0.000264	2.635431	0.892908	0.000105
 148	1.4627e+01	5.8571	19.271267	0.000355	3.547696	1.201992	0.000142
 149	1.4726e+01	5.9052	19.420641	0.000375	3.750422	1.270677	0.000150
 150	1.4825e+01	5.9357	19.574053	0.000385	3.851784	1.305020	0.000154
 151	1.4925e+01	5.9726	19.735538	0.000405	4.054510	1.373705	0.000162
 152	1.5024e+01	6.0062	19.840504	0.000264	2.635431	0.892908	0.000105
 153	1.5124e+01	6.0496	19.965655	0.000314	3.142245	1.064621	0.000126
 154	1.5223e+01	6.0913	20.119066	0.000385	3.851784	1.305020	0.000154
 155	1.5323e+01	6.1410	20.248254	0.000324	3.243608	1.098964	0.000130
 156	1.5422e+01	6.1747	20.409740	0.000405	4.054510	1.373705	0.000162
 157	1.5522e+01	6.2116	20.526817	0.000294	2.939520	0.995936	0.000118
 158	1.5621e+01	6.2501	20.700413	0.000436	4.358598	1.476733	0.000174
 159	1.5721e+01	6.2918	20.829602	0.000324	3.243608	1.098964	0.000130
 160	1.5820e+01	6.3287	20.970902	0.000355	3.547696	1.201992	0.000142
 161	1.5920e+01	6.3736	21.104127	0.000334	3.344971	1.133307	0.000134
 162	1.6020e+01	6.4153	21.229278	0.000314	3.142245	1.064621	0.000126
 163	1.6119e+01	6.4474	21.382689	0.000385	3.851784	1.305020	0.000154
 164	1.6218e+01	6.4843	21.511878	0.000324	3.243608	1.098964	0.000130
 165	1.6318e+01	6.5324	21.681437	0.000426	4.257235	1.442390	0.000170
 166	1.6418e+01	6.5677	21.774292	0.000233	2.331343	0.789880	0.000093
 167	1.6517e+01	6.6078	21.951926	0.000446	4.459961	1.511076	0.000179
 168	1.6616e+01	6.6560	22.056891	0.000264	2.635431	0.892908	0.000105
 169	1.6716e+01	6.6929	22.194154	0.000345	3.446333	1.167649	0.000138
 170	1.6816e+01	6.7121	22.351602	0.000395	3.953147	1.339363	0.000158
 171	1.6915e+01	6.7763	22.496939	0.000365	3.649059	1.236335	0.000146
 172	1.7015e+01	6.8132	22.638239	0.000355	3.547696	1.201992	0.000142
 173	1.7114e+01	6.8501	22.751278	0.000284	2.838157	0.961594	0.000114
 174	1.7213e+01	6.8822	22.920838	0.000426	4.257235	1.442390	0.000170
 175	1.7313e+01	6.9303	23.021767	0.000253	2.534069	0.858566	0.000101
 176	1.7413e+01	6.9672	23.195363	0.000436	4.358598	1.476733	0.000174
 177	1.7512e+01	7.0057	23.316477	0.000304	3.040882	1.030279	0.000122
 178	1.7611e+01	7.0410	23.449703	0.000334	3.344971	1.133307	0.000134
 179	1.7711e+01	7.0763	23.607151	0.000395	3.953147	1.339363	0.000158
 180	1.7811e+01	7.1388	23.736340	0.000324	3.243608	1.098964	0.000130
 181	1.7910e+01	7.1693	23.881676	0.000365	3.649059	1.236335	0.000146
 182	1.8009e+01	7.2126	24.014902	0.000334	3.344971	1.133307	0.000134
 183	1.8109e+01	7.2543	24.172350	0.000395	3.953147	1.339363	0.000158
 184	1.8209e+01	7.2928	24.269241	0.000243	2.432706	0.824223	0.000097
 185	1.8308e+01	7.3313	24.414578	0.000365	3.649059	1.236335	0.000146
 186	1.8407e+01	7.3618	24.563952	0.000375	3.750422	1.270677	0.000150
 187	1.8507e+01	7.4035	24.697178	0.000334	3.344971	1.133307	0.000134
 188	1.8607e+01	7.4452	24.858663	0.000405	4.054510	1.373705	0.000162
 189	1.8706e+01	7.4918	24.983815	0.000314	3.142245	1.064621	0.000126
 190	1.8805e+01	7.5206	25.117040	0.000334	3.344971	1.133307	0.000134
 191	1.8905e+01	7.5672	25.230080	0.000284	2.838157	0.961594	0.000114
 192	1.9005e+01	7.6137	25.383491	0.000385	3.851784	1.305020	0.000154
 193	1.9104e+01	7.6522	25.500568	0.000294	2.939520	0.995936	0.000118
 194	1.9203e+01	7.6811	25.662053	0.000405	4.054510	1.373705	0.000162
 195	1.9303e+01	7.7308	25.775093	0.000284	2.838157	0.961594	0.000114
 196	1.9402e+01	7.7693	25.932541	0.000395	3.953147	1.339363	0.000158
 197	1.9502e+01	7.8078	26.041544	0.000274	2.736794	0.927251	0.000110
 198	1.9602e+01	7.8463	26.198992	0.000395	3.953147	1.339363	0.000158
 199	1.9701e+01	7.8880	26.307995	0.000274	2.736794	0.927251	0.000110
 200	1.9800e+01	7.9233	26.457369	0.000375	3.750422	1.270677	0.000150
 201	1.9900e+01	7.9522	26.590595	0.000334	3.344971	1.133307	0.000134
 202	2.0000e+01	8.0051	26.744006	0.000385	3.851784	1.305020	0.000154
 203	2.0099e+01	8.0420	26.861083	0.000294	2.939520	0.995936	0.000118
 204	2.0198e+01	8.0869	26.986234	0.000314	3.142245	1.064621	0.000126
 205	2.0298e+01	8.1206	27.123496	0.000345	3.446333	1.167649	0.000138
 206	2.0398e+01	8.1639	27.252685	0.000324	3.243608	1.098964	0.000130
 207	2.0497e+01	8.2008	27.393985	0.000355	3.547696	1.201992	0.000142
 208	2.0596e+01	8.2474	27.567581	0.000436	4.358598	1.476733	0.000174
 209	2.0696e+01	8.2859	27.716955	0.000375	3.750422	1.270677	0.000150
 210	2.0796e+01	8.3212	27.789624	0.000182	1.824529	0.618167	0.000073
 211	2.0895e+01	8.3661	27.947072	0.000395	3.953147	1.339363	0.000158
 212	2.0994e+01	8.3982	28.092409	0.000365	3.649059	1.236335	0.000146
 213	2.1094e+01	8.4399	28.209486	0.000294	2.939520	0.995936	0.000118
 214	2.1194e+01	8.4800	28.358860	0.000375	3.750422	1.270677	0.000150
 215	2.1293e+01	8.5217	28.504197	0.000365	3.649059	1.236335	0.000146
 216	2.1392e+01	8.5698	28.665682	0.000405	4.054510	1.373705	0.000162
 217	2.1492e+01	8.6035	28.746425	0.000203	2.027255	0.686853	0.000081
 218	2.1591e+01	8.6420	28.903873	0.000395	3.953147	1.339363	0.000158
 219	2.1691e+01	8.6885	29.020950	0.000294	2.939520	0.995936	0.000118
 220	2.1791e+01	8.7270	29.202621	0.000456	4.561324	1.545418	0.000183
 221	2.1890e+01	8.7559	29.255104	0.000132	1.317716	0.446454	0.000053
 222	2.1989e+01	8.7928	29.412552	0.000395	3.953147	1.339363	0.000158
 223	2.2089e+01	8.8329	29.533666	0.000304	3.040882	1.030279	0.000122
 224	2.2189e+01	8.8778	29.703226	0.000426	4.257235	1.442390	0.000170
 225	2.2288e+01	8.9243	29.860674	0.000395	3.953147	1.339363	0.000158
 226	2.2387e+01	8.9645	29.977751	0.000294	2.939520	0.995936	0.000118
 227	2.2487e+01	8.9933	30.078680	0.000253	2.534069	0.858566	0.000101
 228	2.2587e+01	9.0366	30.224017	0.000365	3.649059	1.236335	0.000146
 229	2.2686e+01	9.0767	30.345131	0.000304	3.040882	1.030279	0.000122
 230	2.2785e+01	9.1185	30.526802	0.000456	4.561324	1.545418	0.000183
 231	2.2885e+01	9.1650	30.587359	0.000152	1.520441	0.515139	0.000061
 232	2.2985e+01	9.1939	30.744807	0.000395	3.953147	1.339363	0.000158
 233	2.3084e+01	9.2388	30.865921	0.000304	3.040882	1.030279	0.000122
 234	2.3183e+01	9.2789	31.011258	0.000365	3.649059	1.236335	0.000146
 235	2.3283e+01	9.3158	31.128335	0.000294	2.939520	0.995936	0.000118
 236	2.3383e+01	9.3575	31.285783	0.000395	3.953147	1.339363	0.000158
 237	2.3482e+01	9.4088	31.398823	0.000284	2.838157	0.961594	0.000114
 238	2.3581e+01	9.4409	31.487640	0.000223	2.229980	0.755538	0.000089
 239	2.3681e+01	9.4778	31.649126	0.000405	4.054510	1.373705	0.000162
 240	2.3780e+01	9.5195	31.774277	0.000314	3.142245	1.064621	0.000126
 241	2.3880e+01	9.5596	31.907502	0.000334	3.344971	1.133307	0.000134
 242	2.3980e+01	9.5949	32.024579	0.000294	2.939520	0.995936	0.000118
 243	2.4079e+01	9.6318	32.165879	0.000355	3.547696	1.201992	0.000142
 244	2.4178e+01	9.6751	32.282956	0.000294	2.939520	0.995936	0.000118
 245	2.4278e+01	9.7217	32.379847	0.000243	2.432706	0.824223	0.000097
 246	2.4378e+01	9.7569	32.537295	0.000395	3.953147	1.339363	0.000158
 247	2.4477e+01	9.7970	32.638224	0.000253	2.534069	0.858566	0.000101
 248	2.4576e+01	9.8323	32.783561	0.000365	3.649059	1.236335	0.000146
 249	2.4676e+01	9.8708	32.904675	0.000304	3.040882	1.030279	0.000122
 250	2.4776e+01	9.9174	33.045975	0.000355	3.547696	1.201992	0.000142
 251	2.4875e+01	9.9655	33.150940	0.000264	2.635431	0.892908	0.000105
 252	2.4974e+01	9.9960	33.255906	0.000264	2.635431	0.892908	0.000105
 253	2.5074e+01	10.0409	33.372983	0.000294	2.939520	0.995936	0.000118
 254	2.5174e+01	10.0762	33.542542	0.000426	4.257235	1.442390	0.000170
 255	2.5273e+01	10.1195	33.663656	0.000304	3.040882	1.030279	0.000122
 256	2.5372e+01	10.1500	33.780733	0.000294	2.939520	0.995936	0.000118
 257	2.5472e+01	10.1933	33.885699	0.000264	2.635431	0.892908	0.000105
 258	2.5572e+01	10.2430	34.010850	0.000314	3.142245	1.064621	0.000126
 259	2.5671e+01	10.2799	34.131964	0.000304	3.040882	1.030279	0.000122
 260	2.5770e+01	10.3088	34.249041	0.000294	2.939520	0.995936	0.000118
 261	2.5870e+01	10.3505	34.402452	0.000385	3.851784	1.305020	0.000154
 262	2.5970e+01	10.3890	34.458972	0.000142	1.419078	0.480797	0.000057
 263	2.6069e+01	10.4275	34.632569	0.000436	4.358598	1.476733	0.000174
 264	2.6169e+01	10.4756	34.733497	0.000253	2.534069	0.858566	0.000101
 265	2.6268e+01	10.5093	34.870760	0.000345	3.446333	1.167649	0.000138
 266	2.6367e+01	10.5414	34.971688	0.000253	2.534069	0.858566	0.000101
 267	2.6467e+01	10.5927	35.108951	0.000345	3.446333	1.167649	0.000138
 268	2.6567e+01	10.6345	35.234102	0.000314	3.142245	1.064621	0.000126
 269	2.6666e+01	10.6714	35.371365	0.000345	3.446333	1.167649	0.000138
 270	2.6765e+01	10.7066	35.496516	0.000314	3.142245	1.064621	0.000126
 271	2.6865e+01	10.7532	35.589370	0.000233	2.331343	0.789880	0.000093
 272	2.6965e+01	10.7933	35.730670	0.000355	3.547696	1.201992	0.000142
 273	2.7064e+01	10.8382	35.831598	0.000253	2.534069	0.858566	0.000101
 274	2.7163e+01	10.8767	35.944638	0.000284	2.838157	0.961594	0.000114
 275	2.7263e+01	10.9232	36.085938	0.000355	3.547696	1.201992	0.000142
 276	2.7363e+01	10.9569	36.239349	0.000385	3.851784	1.305020	0.000154
 277	2.7462e+01	10.9970	36.316055	0.000193	1.925892	0.652510	0.000077
 278	2.7561e+01	11.0339	36.421020	0.000264	2.635431	0.892908	0.000105
 279	2.7661e+01	11.0692	36.530023	0.000274	2.736794	0.927251	0.000110
 280	2.7761e+01	11.1125	36.679397	0.000375	3.750422	1.270677	0.000150
 281	2.7860e+01	11.1494	36.804548	0.000314	3.142245	1.064621	0.000126
 282	2.7959e+01	11.1943	36.945848	0.000355	3.547696	1.201992	0.000142
 283	2.8059e+01	11.2312	37.022553	0.000193	1.925892	0.652510	0.000077
 284	2.8159e+01	11.2778	37.208262	0.000466	4.662686	1.579761	0.000187
 285	2.8258e+01	11.3082	37.264781	0.000142	1.419078	0.480797	0.000057
 286	2.8358e+01	11.3499	37.369747	0.000264	2.635431	0.892908	0.000105
 287	2.8457e+01	11.3965	37.511047	0.000355	3.547696	1.201992	0.000142
 288	2.8556e+01	11.4350	37.632161	0.000304	3.040882	1.030279	0.000122
 289	2.8656e+01	11.4799	37.700792	0.000172	1.723167	0.583825	0.000069
 290	2.8756e+01	11.5168	37.862278	0.000405	4.054510	1.373705	0.000162
 291	2.8855e+01	11.5553	37.987429	0.000314	3.142245	1.064621	0.000126
 292	2.8954e+01	11.5890	38.092394	0.000264	2.635431	0.892908	0.000105
 293	2.9054e+01	11.6355	38.197360	0.000264	2.635431	0.892908	0.000105
 294	2.9154e+01	11.6788	38.310400	0.000284	2.838157	0.961594	0.000114
 295	2.9253e+01	11.7061	38.415365	0.000264	2.635431	0.892908	0.000105
 296	2.9352e+01	11.7510	38.544553	0.000324	3.243608	1.098964	0.000130
 297	2.9452e+01	11.7831	38.641445	0.000243	2.432706	0.824223	0.000097
 298	2.9552e+01	11.8376	38.762559	0.000304	3.040882	1.030279	0.000122
 299	2.9651e+01	11.8761	38.903859	0.000355	3.547696	1.201992	0.000142
 300	2.9750e+01	11.9130	39.000750	0.000243	2.432706	0.824223	0.000097
 301	2.9850e+01	11.9499	39.101678	0.000253	2.534069	0.858566	0.000101
 302	2.9950e+01	11.9900	39.230867	0.000324	3.243608	1.098964	0.000130
 303	3.0049e+01	12.0285	39.331795	0.000253	2.534069	0.858566	0.000101
 304	3.0148e+01	12.0622	39.456946	0.000314	3.142245	1.064621	0.000126
 305	3.0248e+01	12.1120	39.574023	0.000294	2.939520	0.995936	0.000118
 306	3.0348e+01	12.1537	39.666877	0.000233	2.331343	0.789880	0.000093
 307	3.0447e+01	12.1906	39.804140	0.000345	3.446333	1.167649	0.000138
 308	3.0547e+01	12.2226	39.913142	0.000274	2.736794	0.927251	0.000110
 309	3.0646e+01	12.2676	39.993885	0.000203	2.027255	0.686853	0.000081
 310	3.0745e+01	12.3125	40.127111	0.000334	3.344971	1.133307	0.000134
 311	3.0845e+01	12.3462	40.252262	0.000314	3.142245	1.064621	0.000126
 312	3.0945e+01	12.3847	40.373376	0.000304	3.040882	1.030279	0.000122
 313	3.1044e+01	12.4264	40.462193	0.000223	2.229980	0.755538	0.000089
 314	3.1143e+01	12.4713	40.591381	0.000324	3.243608	1.098964	0.000130
 315	3.1243e+01	12.5114	40.680198	0.000223	2.229980	0.755538	0.000089
 316	3.1343e+01	12.5483	40.748830	0.000172	1.723167	0.583825	0.000069
 317	3.1442e+01	12.5900	40.926464	0.000446	4.459961	1.511076	0.000179
 318	3.1541e+01	12.6077	41.019318	0.000233	2.331343	0.789880	0.000093
 319	3.1641e+01	12.6638	41.136395	0.000294	2.939520	0.995936	0.000118
 320	3.1741e+01	12.7055	41.241360	0.000264	2.635431	0.892908	0.000105
 321	3.1840e+01	12.7488	41.386697	0.000365	3.649059	1.236335	0.000146
 322	3.1939e+01	12.7873	41.483588	0.000243	2.432706	0.824223	0.000097
 323	3.2039e+01	12.8210	41.624888	0.000355	3.547696	1.201992	0.000142
 324	3.2139e+01	12.8676	41.681408	0.000142	1.419078	0.480797	0.000057
 325	3.2238e+01	12.9125	41.850968	0.000426	4.257235	1.442390	0.000170
 326	3.2337e+01	12.9462	41.923636	0.000182	1.824529	0.618167	0.000073
 327	3.2437e+01	12.9879	42.060899	0.000345	3.446333	1.167649	0.000138
 328	3.2536e+01	13.0167	42.157790	0.000243	2.432706	0.824223	0.000097
 329	3.2636e+01	13.0601	42.238533	0.000203	2.027255	0.686853	0.000081
 330	3.2736e+01	13.0986	42.408092	0.000426	4.257235	1.442390	0.000170
 331	3.2835e+01	13.1419	42.496909	0.000223	2.229980	0.755538	0.000089
 332	3.2934e+01	13.1868	42.630135	0.000334	3.344971	1.133307	0.000134
 333	3.3034e+01	13.2189	42.727026	0.000243	2.432706	0.824223	0.000097
 334	3.3133e+01	13.2702	42.827954	0.000253	2.534069	0.858566	0.000101
 335	3.3233e+01	13.3007	42.940994	0.000284	2.838157	0.961594	0.000114
 336	3.3333e+01	13.3328	43.062108	0.000304	3.040882	1.030279	0.000122
 337	3.3432e+01	13.3825	43.183222	0.000304	3.040882	1.030279	0.000122
 338	3.3532e+01	13.4226	43.276077	0.000233	2.331343	0.789880	0.000093
 339	3.3631e+01	13.4563	43.385079	0.000274	2.736794	0.927251	0.000110
 340	3.3730e+01	13.4996	43.506193	0.000304	3.040882	1.030279	0.000122
 341	3.3830e+01	13.5349	43.659604	0.000385	3.851784	1.305020	0.000154
 342	3.3929e+01	13.5750	43.699976	0.000101	1.013627	0.343426	0.000041
 343	3.4029e+01	13.6199	43.841276	0.000355	3.547696	1.201992	0.000142
 344	3.4129e+01	13.6616	43.970464	0.000324	3.243608	1.098964	0.000130
 345	3.4228e+01	13.6793	44.083504	0.000284	2.838157	0.961594	0.000114
 346	3.4328e+01	13.7354	44.196543	0.000284	2.838157	0.961594	0.000114
 347	3.4427e+01	13.7820	44.309583	0.000284	2.838157	0.961594	0.000114
 348	3.4526e+01	13.8301	44.410512	0.000253	2.534069	0.858566	0.000101
 349	3.4626e+01	13.8542	44.535663	0.000314	3.142245	1.064621	0.000126
 350	3.4725e+01	13.8894	44.608331	0.000182	1.824529	0.618167	0.000073
 351	3.4825e+01	13.9440	44.765780	0.000395	3.953147	1.339363	0.000158
 352	3.4925e+01	13.9825	44.858634	0.000233	2.331343	0.789880	0.000093
 353	3.5024e+01	14.0210	44.967636	0.000274	2.736794	0.927251	0.000110
 354	3.5123e+01	14.0595	45.072602	0.000264	2.635431	0.892908	0.000105
 355	3.5223e+01	14.0964	45.197753	0.000314	3.142245	1.064621	0.000126
 356	3.5322e+01	14.1365	45.302719	0.000264	2.635431	0.892908	0.000105
 357	3.5422e+01	14.1830	45.431907	0.000324	3.243608	1.098964	0.000130
 358	3.5522e+01	14.2231	45.528798	0.000243	2.432706	0.824223	0.000097
 359	3.5621e+01	14.2552	45.653949	0.000314	3.142245	1.064621	0.000126
 360	3.5721e+01	14.2857	45.742766	0.000223	2.229980	0.755538	0.000089
 361	3.5820e+01	14.3338	45.851769	0.000274	2.736794	0.927251	0.000110
 362	3.5919e+01	14.3819	45.964809	0.000284	2.838157	0.961594	0.000114
 363	3.6019e+01	14.4221	46.049589	0.000213	2.128618	0.721195	0.000085
 364	3.6118e+01	14.4573	46.203000	0.000385	3.851784	1.305020	0.000154
 365	3.6218e+01	14.5023	46.328151	0.000314	3.142245	1.064621	0.000126
 366	3.6318e+01	14.5440	46.425042	0.000243	2.432706	0.824223	0.000097
 367	3.6417e+01	14.5809	46.525971	0.000253	2.534069	0.858566	0.000101
 368	3.6517e+01	14.6178	46.630936	0.000264	2.635431	0.892908	0.000105
 369	3.6616e+01	14.6531	46.739939	0.000274	2.736794	0.927251	0.000110
 370	3.6715e+01	14.6916	46.869127	0.000324	3.243608	1.098964	0.000130
 371	3.6815e+01	14.7397	46.957944	0.000223	2.229980	0.755538	0.000089
 372	3.6914e+01	14.7718	47.034650	0.000193	1.925892	0.652510	0.000077
 373	3.7014e+01	14.8039	47.163838	0.000324	3.243608	1.098964	0.000130
 374	3.7114e+01	14.8520	47.309175	0.000365	3.649059	1.236335	0.000146
 375	3.7213e+01	14.8969	47.414141	0.000264	2.635431	0.892908	0.000105
 376	3.7313e+01	14.9242	47.511032	0.000243	2.432706	0.824223	0.000097
 377	3.7412e+01	14.9771	47.599849	0.000223	2.229980	0.755538	0.000089
 378	3.7511e+01	15.0188	47.757297	0.000395	3.953147	1.339363	0.000158
 379	3.7611e+01	15.0605	47.825929	0.000172	1.723167	0.583825	0.000069
 380	3.7711e+01	15.0846	47.951080	0.000314	3.142245	1.064621	0.000126
 381	3.7810e+01	15.1375	48.047971	0.000243	2.432706	0.824223	0.000097
 382	3.7910e+01	15.1776	48.173122	0.000314	3.142245	1.064621	0.000126
 383	3.8009e+01	15.2113	48.294236	0.000304	3.040882	1.030279	0.000122
 384	3.8108e+01	15.2595	48.383053	0.000223	2.229980	0.755538	0.000089
 385	3.8208e+01	15.2899	48.492056	0.000274	2.736794	0.927251	0.000110
 386	3.8307e+01	15.3236	48.617207	0.000314	3.142245	1.064621	0.000126
 387	3.8407e+01	15.3750	48.738321	0.000304	3.040882	1.030279	0.000122
 388	3.8507e+01	15.4135	48.863472	0.000314	3.142245	1.064621	0.000126
 389	3.8606e+01	15.4600	48.956327	0.000233	2.331343	0.789880	0.000093
 390	3.8706e+01	15.4873	49.077441	0.000304	3.040882	1.030279	0.000122
 391	3.8805e+01	15.5306	49.166258	0.000223	2.229980	0.755538	0.000089
 392	3.8904e+01	15.5787	49.279297	0.000284	2.838157	0.961594	0.000114
 393	3.9004e+01	15.6156	49.400411	0.000304	3.040882	1.030279	0.000122
 394	3.9103e+01	15.6525	49.489228	0.000223	2.229980	0.755538	0.000089
 395	3.9203e+01	15.6942	49.622454	0.000334	3.344971	1.133307	0.000134
 396	3.9303e+01	15.7295	49.695122	0.000182	1.824529	0.618167	0.000073
 397	3.9402e+01	15.7792	49.832385	0.000345	3.446333	1.167649	0.000138
 398	3.9502e+01	15.8081	49.929276	0.000243	2.432706	0.824223	0.000097
 399	3.9601e+01	15.8546	50.050390	0.000304	3.040882	1.030279	0.000122
 400	3.9700e+01	15.8931	50.151319	0.000253	2.534069	0.858566	0.000101
 401	3.9800e+01	15.9364	50.215913	0.000162	1.621804	0.549482	0.000065
 402	3.9900e+01	15.9717	50.369324	0.000385	3.851784	1.305020	0.000154
 403	3.9999e+01	16.0118	50.458141	0.000223	2.229980	0.755538	0.000089
 404	4.0099e+01	16.0616	50.526772	0.000172	1.723167	0.583825	0.000069
 405	4.0198e+01	16.0840	50.668072	0.000355	3.547696	1.201992	0.000142
 406	4.0297e+01	16.1209	50.785149	0.000294	2.939520	0.995936	0.000118
 407	4.0397e+01	16.1691	50.817446	0.000081	0.810902	0.274741	0.000032
 408	4.0496e+01	16.2108	50.946634	0.000324	3.243608	1.098964	0.000130
 409	4.0596e+01	16.2493	51.087934	0.000355	3.547696	1.201992	0.000142
 410	4.0696e+01	16.2894	51.209048	0.000304	3.040882	1.030279	0.000122
 411	4.0795e+01	16.3263	51.257494	0.000122	1.216353	0.412112	0.000049
 412	4.0895e+01	16.3600	51.390719	0.000334	3.344971	1.133307	0.000134
 413	4.0994e+01	16.4097	51.483573	0.000233	2.331343	0.789880	0.000093
 414	4.1093e+01	16.4514	51.572390	0.000223	2.229980	0.755538	0.000089
 415	4.1193e+01	16.4995	51.689467	0.000294	2.939520	0.995936	0.000118
 416	4.1292e+01	16.5364	51.762136	0.000182	1.824529	0.618167	0.000073
 417	4.1392e+01	16.5717	51.887287	0.000314	3.142245	1.064621	0.000126
 418	4.1492e+01	16.6070	51.988215	0.000253	2.534069	0.858566	0.000101
 419	4.1591e+01	16.6455	52.129515	0.000355	3.547696	1.201992	0.000142
 420	4.1691e+01	16.6808	52.210258	0.000203	2.027255	0.686853	0.000081
 421	4.1790e+01	16.7305	52.327335	0.000294	2.939520	0.995936	0.000118
 422	4.1889e+01	16.7739	52.432300	0.000264	2.635431	0.892908	0.000105
 423	4.1989e+01	16.8124	52.537266	0.000264	2.635431	0.892908	0.000105
 424	4.2089e+01	16.8460	52.626083	0.000223	2.229980	0.755538	0.000089
 425	4.2188e+01	16.8846	52.686640	0.000152	1.520441	0.515139	0.000061
 426	4.2288e+01	16.9231	52.819865	0.000334	3.344971	1.133307	0.000134
 427	4.2387e+01	16.9648	52.920794	0.000253	2.534069	0.858566	0.000101
 428	4.2486e+01	17.0129	52.989425	0.000172	1.723167	0.583825	0.000069
 429	4.2586e+01	17.0370	53.094391	0.000264	2.635431	0.892908	0.000105
 430	4.2685e+01	17.0883	53.199356	0.000264	2.635431	0.892908	0.000105
 431	4.2785e+01	17.1204	53.296247	0.000243	2.432706	0.824223	0.000097
 432	4.2885e+01	17.1669	53.389102	0.000233	2.331343	0.789880	0.000093
 433	4.2984e+01	17.2038	53.514253	0.000314	3.142245	1.064621	0.000126
 434	4.3084e+01	17.2407	53.631330	0.000294	2.939520	0.995936	0.000118
 435	4.3183e+01	17.2872	53.695924	0.000162	1.621804	0.549482	0.000065
 436	4.3282e+01	17.3225	53.817038	0.000304	3.040882	1.030279	0.000122
 437	4.3382e+01	17.3610	53.909892	0.000233	2.331343	0.789880	0.000093
 438	4.3481e+01	17.3995	54.043118	0.000334	3.344971	1.133307	0.000134
 439	4.3581e+01	17.4573	54.107712	0.000162	1.621804	0.549482	0.000065
 440	4.3681e+01	17.4845	54.188454	0.000203	2.027255	0.686853	0.000081
 441	4.3780e+01	17.5182	54.285346	0.000243	2.432706	0.824223	0.000097
 442	4.3880e+01	17.5663	54.422608	0.000345	3.446333	1.167649	0.000138
 443	4.3979e+01	17.6097	54.519500	0.000243	2.432706	0.824223	0.000097
 444	4.4078e+01	17.6466	54.576019	0.000142	1.419078	0.480797	0.000057
 445	4.4178e+01	17.6915	54.664836	0.000223	2.229980	0.755538	0.000089
 446	4.4278e+01	17.7155	54.806136	0.000355	3.547696	1.201992	0.000142
 447	4.4377e+01	17.7621	54.886879	0.000203	2.027255	0.686853	0.000081
 448	4.4477e+01	17.7974	54.963585	0.000193	1.925892	0.652510	0.000077
 449	4.4576e+01	17.8487	55.080661	0.000294	2.939520	0.995936	0.000118
 450	4.4675e+01	17.8840	55.169478	0.000223	2.229980	0.755538	0.000089
 451	4.4775e+01	17.9193	55.282518	0.000284	2.838157	0.961594	0.000114
 452	4.4874e+01	17.9610	55.363261	0.000203	2.027255	0.686853	0.000081
 453	4.4974e+01	17.9995	55.488412	0.000314	3.142245	1.064621	0.000126
 454	4.5074e+01	18.0428	55.561081	0.000182	1.824529	0.618167	0.000073
 455	4.5173e+01	18.0781	55.674120	0.000284	2.838157	0.961594	0.000114
 456	4.5273e+01	18.1198	55.754863	0.000203	2.027255	0.686853	0.000081
 457	4.5372e+01	18.1615	55.839643	0.000213	2.128618	0.721195	0.000085
 458	4.5471e+01	18.2032	55.932497	0.000233	2.331343	0.789880	0.000093
 459	4.5571e+01	18.2465	56.061685	0.000324	3.243608	1.098964	0.000130
 460	4.5670e+01	18.2834	56.130317	0.000172	1.723167	0.583825	0.000069
 461	4.5770e+01	18.3171	56.235282	0.000264	2.635431	0.892908	0.000105
 462	4.5870e+01	18.3588	56.287765	0.000132	1.317716	0.446454	0.000053
 463	4.5969e+01	18.4038	56.420991	0.000334	3.344971	1.133307	0.000134
 464	4.6069e+01	18.4407	56.513845	0.000233	2.331343	0.789880	0.000093
 465	4.6168e+01	18.4776	56.618810	0.000264	2.635431	0.892908	0.000105
 466	4.6267e+01	18.5193	56.691479	0.000182	1.824529	0.618167	0.000073
 467	4.6367e+01	18.5546	56.788370	0.000243	2.432706	0.824223	0.000097
 468	4.6467e+01	18.6059	56.905447	0.000294	2.939520	0.995936	0.000118
 469	4.6566e+01	18.6396	56.986190	0.000203	2.027255	0.686853	0.000081
 470	4.6666e+01	18.6813	57.046747	0.000152	1.520441	0.515139	0.000061
 471	4.6765e+01	18.7246	57.135564	0.000223	2.229980	0.755538	0.000089
 472	4.6864e+01	18.7647	57.244566	0.000274	2.736794	0.927251	0.000110
 473	4.6964e+01	18.8048	57.321272	0.000193	1.925892	0.652510	0.000077
 474	4.7063e+01	18.8417	57.430274	0.000274	2.736794	0.927251	0.000110
 475	4.7163e+01	18.8898	57.523129	0.000233	2.331343	0.789880	0.000093
 476	4.7263e+01	18.9203	57.624057	0.000253	2.534069	0.858566	0.000101
 477	4.7362e+01	18.9508	57.729022	0.000264	2.635431	0.892908	0.000105
 478	4.7462e+01	19.0005	57.797654	0.000172	1.723167	0.583825	0.000069
 479	4.7561e+01	19.0438	57.898582	0.000253	2.534069	0.858566	0.000101
 480	4.7660e+01	19.0727	57.987399	0.000223	2.229980	0.755538	0.000089
 481	4.7760e+01	19.1176	58.060068	0.000182	1.824529	0.618167	0.000073
 482	4.7859e+01	19.1626	58.152922	0.000233	2.331343	0.789880	0.000093
 483	4.7959e+01	19.2075	58.269999	0.000294	2.939520	0.995936	0.000118
 484	4.8059e+01	19.2428	58.342667	0.000182	1.824529	0.618167	0.000073
 485	4.8158e+01	19.2797	58.475893	0.000334	3.344971	1.133307	0.000134
 486	4.8258e+01	19.3182	58.544524	0.000172	1.723167	0.583825	0.000069
 487	4.8357e+01	19.3599	58.609118	0.000162	1.621804	0.549482	0.000065
 488	4.8456e+01	19.3952	58.766566	0.000395	3.953147	1.339363	0.000158
 489	4.8556e+01	19.4401	58.831161	0.000162	1.621804	0.549482	0.000065
 490	4.8656e+01	19.4898	58.928052	0.000243	2.432706	0.824223	0.000097
 491	4.8755e+01	19.5155	59.016869	0.000223	2.229980	0.755538	0.000089
 492	4.8855e+01	19.5508	59.117797	0.000253	2.534069	0.858566	0.000101
 493	4.8954e+01	19.5957	59.226800	0.000274	2.736794	0.927251	0.000110
 494	4.9053e+01	19.6294	59.295431	0.000172	1.723167	0.583825	0.000069
 495	4.9153e+01	19.6727	59.416545	0.000304	3.040882	1.030279	0.000122
 496	4.9252e+01	19.7160	59.460954	0.000111	1.114990	0.377769	0.000045
 497	4.9352e+01	19.7529	59.606291	0.000365	3.649059	1.236335	0.000146
 498	4.9452e+01	19.7962	59.703182	0.000243	2.432706	0.824223	0.000097
 499	4.9551e+01	19.8315	59.767776	0.000162	1.621804	0.549482	0.000065
 500	4.9651e+01	19.8732	59.852556	0.000213	2.128618	0.721195	0.000085
 501	4.9750e+01	19.9246	59.949447	0.000243	2.432706	0.824223	0.000097
 502	4.9849e+01	19.9551	60.022116	0.000182	1.824529	0.618167	0.000073
 503	4.9949e+01	19.9968	60.135155	0.000284	2.838157	0.961594	0.000114
 504	5.0048e+01	19.9518	60.070561	0.000162	1.621804	0.549482	-0.000065
 505	5.0148e+01	19.9246	59.997893	0.000182	1.824529	0.618167	-0.000073
 506	5.0248e+01	19.8716	59.929261	0.000172	1.723167	0.583825	-0.000069
 507	5.0347e+01	19.8347	59.880816	0.000122	1.216353	0.412112	-0.000049
 508	5.0447e+01	19.7994	59.783925	0.000243	2.432706	0.824223	-0.000097
 509	5.0546e+01	19.7481	59.739516	0.000111	1.114990	0.377769	-0.000045
 510	5.0645e+01	19.7080	59.634551	0.000264	2.635431	0.892908	-0.000105
 511	5.0745e+01	19.6695	59.549771	0.000213	2.128618	0.721195	-0.000085
 512	5.0844e+01	19.6358	59.464991	0.000213	2.128618	0.721195	-0.000085
 513	5.0944e+01	19.5957	59.424619	0.000101	1.013627	0.343426	-0.000041
 514	5.1044e+01	19.5572	59.319654	0.000264	2.635431	0.892908	-0.000105
 515	5.1143e+01	19.5203	59.251023	0.000172	1.723167	0.583825	-0.000069
 516	5.1242e+01	19.4738	59.162206	0.000223	2.229980	0.755538	-0.000089
 517	5.1342e+01	19.4417	59.117797	0.000111	1.114990	0.377769	-0.000045
 518	5.1441e+01	19.3936	59.020906	0.000243	2.432706	0.824223	-0.000097
 519	5.1541e+01	19.3535	58.956312	0.000162	1.621804	0.549482	-0.000065
 520	5.1641e+01	19.3214	58.887680	0.000172	1.723167	0.583825	-0.000069
 521	5.1740e+01	19.2781	58.758492	0.000324	3.243608	1.098964	-0.000130
 522	5.1840e+01	19.2444	58.718121	0.000101	1.013627	0.343426	-0.000041
 523	5.1939e+01	19.2043	58.609118	0.000274	2.736794	0.927251	-0.000110
 524	5.2038e+01	19.1674	58.552598	0.000142	1.419078	0.480797	-0.000057
 525	5.2138e+01	19.1225	58.459744	0.000233	2.331343	0.789880	-0.000093
 526	5.2237e+01	19.0840	58.395150	0.000162	1.621804	0.549482	-0.000065
 527	5.2337e+01	19.0455	58.310370	0.000213	2.128618	0.721195	-0.000085
 528	5.2437e+01	19.0037	58.261924	0.000122	1.216353	0.412112	-0.000049
 529	5.2536e+01	18.9556	58.152922	0.000274	2.736794	0.927251	-0.000110
 530	5.2636e+01	18.9187	58.088328	0.000162	1.621804	0.549482	-0.000065
 531	5.2735e+01	18.8770	58.015659	0.000182	1.824529	0.618167	-0.000073
 532	5.2834e+01	18.8497	57.959139	0.000142	1.419078	0.480797	-0.000057
 533	5.2934e+01	18.8048	57.805728	0.000385	3.851784	1.305020	-0.000154
 534	5.3033e+01	18.7647	57.757282	0.000122	1.216353	0.412112	-0.000049
 535	5.3133e+01	18.7198	57.692688	0.000162	1.621804	0.549482	-0.000065
 536	5.3233e+01	18.6909	57.615983	0.000193	1.925892	0.652510	-0.000077
 537	5.3332e+01	18.6492	57.539277	0.000193	1.925892	0.652510	-0.000077
 538	5.3431e+01	18.5882	57.434312	0.000264	2.635431	0.892908	-0.000105
 539	5.3531e+01	18.5658	57.353569	0.000203	2.027255	0.686853	-0.000081
 540	5.3630e+01	18.5273	57.305123	0.000122	1.216353	0.412112	-0.000049
 541	5.3730e+01	18.4872	57.212269	0.000233	2.331343	0.789880	-0.000093
 542	5.3830e+01	18.4391	57.111341	0.000253	2.534069	0.858566	-0.000101
 543	5.3929e+01	18.3925	57.022524	0.000223	2.229980	0.755538	-0.000089
 544	5.4029e+01	18.3653	56.953892	0.000172	1.723167	0.583825	-0.000069
 545	5.4128e+01	18.3268	56.889298	0.000162	1.621804	0.549482	-0.000065
 546	5.4227e+01	18.2770	56.804518	0.000213	2.128618	0.721195	-0.000085
 547	5.4327e+01	18.2417	56.699553	0.000264	2.635431	0.892908	-0.000105
 548	5.4426e+01	18.2048	56.655144	0.000111	1.114990	0.377769	-0.000045
 549	5.4526e+01	18.1647	56.542105	0.000284	2.838157	0.961594	-0.000114
 550	5.4626e+01	18.1246	56.461362	0.000203	2.027255	0.686853	-0.000081
 551	5.4725e+01	18.0717	56.380619	0.000203	2.027255	0.686853	-0.000081
 552	5.4825e+01	18.0460	56.299876	0.000203	2.027255	0.686853	-0.000081
 553	5.4924e+01	18.0059	56.243357	0.000142	1.419078	0.480797	-0.000057
 554	5.5023e+01	17.9626	56.122242	0.000304	3.040882	1.030279	-0.000122
 555	5.5123e+01	17.9193	56.061685	0.000152	1.520441	0.515139	-0.000061
 556	5.5222e+01	17.8856	55.976906	0.000213	2.128618	0.721195	-0.000085
 557	5.5322e+01	17.8439	55.896163	0.000203	2.027255	0.686853	-0.000081
 558	5.5422e+01	17.8006	55.811383	0.000213	2.128618	0.721195	-0.000085
 559	5.5521e+01	17.7508	55.722566	0.000223	2.229980	0.755538	-0.000089
 560	5.5620e+01	17.7236	55.637786	0.000213	2.128618	0.721195	-0.000085
 561	5.5720e+01	17.6835	55.557043	0.000203	2.027255	0.686853	-0.000081
 562	5.5819e+01	17.6434	55.448041	0.000274	2.736794	0.927251	-0.000110
 563	5.5919e+01	17.6129	55.456115	-0.000020	-0.202725	-0.068685	0.000008
 564	5.6019e+01	17.5631	55.326927	0.000324	3.243608	1.098964	-0.000130
 565	5.6118e+01	17.5278	55.213887	0.000284	2.838157	0.961594	-0.000114
 566	5.6218e+01	17.4845	55.161404	0.000132	1.317716	0.446454	-0.000053
 567	5.6317e+01	17.4524	55.064513	0.000243	2.432706	0.824223	-0.000097
 568	5.6416e+01	17.4139	54.971659	0.000233	2.331343	0.789880	-0.000093
 569	5.6516e+01	17.3642	54.870730	0.000253	2.534069	0.858566	-0.000101
 570	5.6615e+01	17.3257	54.798062	0.000182	1.824529	0.618167	-0.000073
 571	5.6715e+01	17.2840	54.685022	0.000284	2.838157	0.961594	-0.000114
 572	5.6815e+01	17.2455	54.604279	0.000203	2.027255	0.686853	-0.000081
 573	5.6914e+01	17.2006	54.479128	0.000314	3.142245	1.064621	-0.000126
 574	5.7014e+01	17.1637	54.462980	0.000041	0.405451	0.137371	-0.000016
 575	5.7113e+01	17.1348	54.358014	0.000264	2.635431	0.892908	-0.000105
 576	5.7212e+01	17.0931	54.281309	0.000193	1.925892	0.652510	-0.000077
 577	5.7312e+01	17.0402	54.176343	0.000264	2.635431	0.892908	-0.000105
 578	5.7411e+01	17.0081	54.075415	0.000253	2.534069	0.858566	-0.000101
 579	5.7511e+01	16.9728	53.998709	0.000193	1.925892	0.652510	-0.000077
 580	5.7611e+01	16.9198	53.909892	0.000223	2.229980	0.755538	-0.000089
 581	5.7710e+01	16.8926	53.833186	0.000193	1.925892	0.652510	-0.000077
 582	5.7809e+01	16.8493	53.748407	0.000213	2.128618	0.721195	-0.000085
 583	5.7909e+01	16.7995	53.655553	0.000233	2.331343	0.789880	-0.000093
 584	5.8008e+01	16.7642	53.554624	0.000253	2.534069	0.858566	-0.000101
 585	5.8108e+01	16.7273	53.457733	0.000243	2.432706	0.824223	-0.000097
 586	5.8208e+01	16.6872	53.397176	0.000152	1.520441	0.515139	-0.000061
 587	5.8307e+01	16.6503	53.280099	0.000294	2.939520	0.995936	-0.000118
 588	5.8407e+01	16.6118	53.183208	0.000243	2.432706	0.824223	-0.000097
 589	5.8506e+01	16.5701	53.094391	0.000223	2.229980	0.755538	-0.000089
 590	5.8605e+01	16.5236	52.989425	0.000264	2.635431	0.892908	-0.000105
 591	5.8705e+01	16.4947	52.916757	0.000182	1.824529	0.618167	-0.000073
 592	5.8804e+01	16.4466	52.831977	0.000213	2.128618	0.721195	-0.000085
 593	5.8904e+01	16.4129	52.747197	0.000213	2.128618	0.721195	-0.000085
 594	5.9004e+01	16.3584	52.630120	0.000294	2.939520	0.995936	-0.000118
 595	5.9103e+01	16.3263	52.517080	0.000284	2.838157	0.961594	-0.000114
 596	5.9203e+01	16.2862	52.456523	0.000152	1.520441	0.515139	-0.000061
 597	5.9302e+01	16.2525	52.375780	0.000203	2.027255	0.686853	-0.000081
 598	5.9401e+01	16.2060	52.282926	0.000233	2.331343	0.789880	-0.000093
 599	5.9501e+01	16.1610	52.153738	0.000324	3.243608	1.098964	-0.000130
 600	5.9600e+01	16.1257	52.097218	0.000142	1.419078	0.480797	-0.000057
 601	5.9700e+01	16.0953	52.008401	0.000223	2.229980	0.755538	-0.000089
 602	5.9800e+01	16.0568	51.867101	0.000355	3.547696	1.201992	-0.000142
 603	5.9899e+01	16.0135	51.794433	0.000182	1.824529	0.618167	-0.000073
 604	5.9998e+01	15.9798	51.713690	0.000203	2.027255	0.686853	-0.000081
 605	6.0098e+01	15.9300	51.657170	0.000142	1.419078	0.480797	-0.000057
 606	6.0197e+01	15.8851	51.499722	0.000395	3.953147	1.339363	-0.000158
 607	6.0297e+01	15.8610	51.439165	0.000152	1.520441	0.515139	-0.000061
 608	6.0397e+01	15.8129	51.326125	0.000284	2.838157	0.961594	-0.000114
 609	6.0496e+01	15.7728	51.217123	0.000274	2.736794	0.927251	-0.000110
 610	6.0596e+01	15.7311	51.160603	0.000142	1.419078	0.480797	-0.000057
 611	6.0695e+01	15.6974	51.063711	0.000243	2.432706	0.824223	-0.000097
 612	6.0794e+01	15.6557	50.934523	0.000324	3.243608	1.098964	-0.000130
 613	6.0894e+01	15.6156	50.861855	0.000182	1.824529	0.618167	-0.000073
 614	6.0993e+01	15.5739	50.785149	0.000193	1.925892	0.652510	-0.000077
 615	6.1093e+01	15.5306	50.684221	0.000253	2.534069	0.858566	-0.000101
 616	6.1193e+01	15.4857	50.587329	0.000243	2.432706	0.824223	-0.000097
 617	6.1292e+01	15.4536	50.490438	0.000243	2.432706	0.824223	-0.000097
 618	6.1392e+01	15.4263	50.385473	0.000264	2.635431	0.892908	-0.000105
 619	6.1491e+01	15.3766	50.284544	0.000253	2.534069	0.858566	-0.000101
 620	6.1590e+01	15.3333	50.211876	0.000182	1.824529	0.618167	-0.000073
 621	6.1690e+01	15.2948	50.090762	0.000304	3.040882	1.030279	-0.000122
 622	6.1789e+01	15.2482	49.973685	0.000294	2.939520	0.995936	-0.000118
 623	6.1889e+01	15.2210	49.892942	0.000203	2.027255	0.686853	-0.000081
 624	6.1989e+01	15.1728	49.800088	0.000233	2.331343	0.789880	-0.000093
 625	6.2088e+01	15.1407	49.699160	0.000253	2.534069	0.858566	-0.000101
 626	6.2188e+01	15.0910	49.598231	0.000253	2.534069	0.858566	-0.000101
 627	6.2287e+01	15.0525	49.501340	0.000243	2.432706	0.824223	-0.000097
 628	6.2386e+01	15.0156	49.408486	0.000233	2.331343	0.789880	-0.000093
 629	6.2486e+01	14.9819	49.295446	0.000284	2.838157	0.961594	-0.000114
 630	6.2586e+01	14.9354	49.226815	0.000172	1.723167	0.583825	-0.000069
 631	6.2685e+01	14.9033	49.089552	0.000345	3.446333	1.167649	-0.000138
 632	6.2785e+01	14.8536	48.996698	0.000233	2.331343	0.789880	-0.000093
 633	6.2884e+01	14.8167	48.911918	0.000213	2.128618	0.721195	-0.000085
 634	6.2983e+01	14.7702	48.798878	0.000284	2.838157	0.961594	-0.000114
 635	6.3083e+01	14.7365	48.746395	0.000132	1.317716	0.446454	-0.000053
 636	6.3182e+01	14.6948	48.605096	0.000355	3.547696	1.201992	-0.000142
 637	6.3282e+01	14.6579	48.508204	0.000243	2.432706	0.824223	-0.000097
 638	6.3382e+01	14.6162	48.423425	0.000213	2.128618	0.721195	-0.000085
 639	6.3481e+01	14.5841	48.326533	0.000243	2.432706	0.824223	-0.000097
 640	6.3581e+01	14.5392	48.185234	0.000355	3.547696	1.201992	-0.000142
 641	6.3680e+01	14.4975	48.104491	0.000203	2.027255	0.686853	-0.000081
 642	6.3779e+01	14.4590	47.975303	0.000324	3.243608	1.098964	-0.000130
 643	6.3879e+01	14.4188	47.930894	0.000111	1.114990	0.377769	-0.000045
 644	6.3978e+01	14.3755	47.797669	0.000334	3.344971	1.133307	-0.000134
 645	6.4078e+01	14.3418	47.712889	0.000213	2.128618	0.721195	-0.000085
 646	6.4177e+01	14.2969	47.648295	0.000162	1.621804	0.549482	-0.000065
 647	6.4277e+01	14.2552	47.494883	0.000385	3.851784	1.305020	-0.000154
 648	6.4376e+01	14.2135	47.381844	0.000284	2.838157	0.961594	-0.000114
 649	6.4476e+01	14.1830	47.276878	0.000264	2.635431	0.892908	-0.000105
 650	6.4576e+01	14.1413	47.196135	0.000203	2.027255	0.686853	-0.000081
 651	6.4675e+01	14.0948	47.107318	0.000223	2.229980	0.755538	-0.000089
 652	6.4775e+01	14.0531	46.978130	0.000324	3.243608	1.098964	-0.000130
 653	6.4874e+01	14.0194	46.917573	0.000152	1.520441	0.515139	-0.000061
 654	6.4974e+01	13.9777	46.792422	0.000314	3.142245	1.064621	-0.000126
 655	6.5073e+01	13.9408	46.679382	0.000284	2.838157	0.961594	-0.000114
 656	6.5172e+01	13.8975	46.618825	0.000152	1.520441	0.515139	-0.000061
 657	6.5272e+01	13.8606	46.505785	0.000284	2.838157	0.961594	-0.000114
 658	6.5371e+01	13.8285	46.376597	0.000324	3.243608	1.098964	-0.000130
 659	6.5471e+01	13.7820	46.295854	0.000203	2.027255	0.686853	-0.000081
 660	6.5570e+01	13.7451	46.190889	0.000264	2.635431	0.892908	-0.000105
 661	6.5670e+01	13.6969	46.069774	0.000304	3.040882	1.030279	-0.000122
 662	6.5769e+01	13.6633	45.993069	0.000193	1.925892	0.652510	-0.000077
 663	6.5869e+01	13.6264	45.900215	0.000233	2.331343	0.789880	-0.000093
 664	6.5969e+01	13.5750	45.787175	0.000284	2.838157	0.961594	-0.000114
 665	6.6068e+01	13.5413	45.682209	0.000264	2.635431	0.892908	-0.000105
 666	6.6168e+01	13.4916	45.557058	0.000314	3.142245	1.064621	-0.000126
 667	6.6267e+01	13.4643	45.484390	0.000182	1.824529	0.618167	-0.000073
 668	6.6367e+01	13.4162	45.351164	0.000334	3.344971	1.133307	-0.000134
 669	6.6466e+01	13.3825	45.274459	0.000193	1.925892	0.652510	-0.000077
 670	6.6566e+01	13.3408	45.169493	0.000264	2.635431	0.892908	-0.000105
 671	6.6665e+01	13.2895	45.032231	0.000345	3.446333	1.167649	-0.000138
 672	6.6764e+01	13.2654	44.987822	0.000111	1.114990	0.377769	-0.000045
 673	6.6864e+01	13.2253	44.866708	0.000304	3.040882	1.030279	-0.000122
 674	6.6963e+01	13.1788	44.814225	0.000132	1.317716	0.446454	-0.000053
 675	6.7063e+01	13.1435	44.656777	0.000395	3.953147	1.339363	-0.000158
 676	6.7162e+01	13.0937	44.580071	0.000193	1.925892	0.652510	-0.000077
 677	6.7262e+01	13.0601	44.475106	0.000264	2.635431	0.892908	-0.000105
 678	6.7362e+01	13.0360	44.362066	0.000284	2.838157	0.961594	-0.000114
 679	6.7461e+01	12.9815	44.253063	0.000274	2.736794	0.927251	-0.000110
 680	6.7561e+01	12.9381	44.196543	0.000142	1.419078	0.480797	-0.000057
 681	6.7660e+01	12.8996	44.087541	0.000274	2.736794	0.927251	-0.000110
 682	6.7760e+01	12.8692	43.974501	0.000284	2.838157	0.961594	-0.000114
 683	6.7859e+01	12.8339	43.861461	0.000284	2.838157	0.961594	-0.000114
 684	6.7959e+01	12.7873	43.760533	0.000253	2.534069	0.858566	-0.000101
 685	6.8058e+01	12.7488	43.671716	0.000223	2.229980	0.755538	-0.000089
 686	6.8157e+01	12.7071	43.586936	0.000213	2.128618	0.721195	-0.000085
 687	6.8257e+01	12.6702	43.498119	0.000223	2.229980	0.755538	-0.000089
 688	6.8356e+01	12.6237	43.381042	0.000294	2.939520	0.995936	-0.000118
 689	6.8456e+01	12.6012	43.259928	0.000304	3.040882	1.030279	-0.000122
 690	6.8555e+01	12.5499	43.159000	0.000253	2.534069	0.858566	-0.000101
 691	6.8655e+01	12.5050	43.045960	0.000284	2.838157	0.961594	-0.000114
 692	6.8754e+01	12.4713	42.997514	0.000122	1.216353	0.412112	-0.000049
 693	6.8854e+01	12.4184	42.864289	0.000334	3.344971	1.133307	-0.000134
 694	6.8954e+01	12.3991	42.743175	0.000304	3.040882	1.030279	-0.000122
 695	6.9053e+01	12.3494	42.622061	0.000304	3.040882	1.030279	-0.000122
 696	6.9153e+01	12.3093	42.537281	0.000213	2.128618	0.721195	-0.000085
 697	6.9252e+01	12.2612	42.420204	0.000294	2.939520	0.995936	-0.000118
 698	6.9352e+01	12.2275	42.323313	0.000243	2.432706	0.824223	-0.000097
 699	6.9451e+01	12.1890	42.234496	0.000223	2.229980	0.755538	-0.000089
 700	6.9550e+01	12.1408	42.141641	0.000233	2.331343	0.789880	-0.000093
 701	6.9650e+01	12.1120	41.992267	0.000375	3.750422	1.270677	-0.000150
 702	6.9749e+01	12.0735	41.903450	0.000223	2.229980	0.755538	-0.000089
 703	6.9849e+01	12.0237	41.794448	0.000274	2.736794	0.927251	-0.000110
 704	6.9948e+01	11.9884	41.713705	0.000203	2.027255	0.686853	-0.000081
 705	7.0048e+01	11.9451	41.608739	0.000264	2.635431	0.892908	-0.000105
 706	7.0147e+01	11.9082	41.491663	0.000294	2.939520	0.995936	-0.000118
 707	7.0247e+01	11.8633	41.386697	0.000264	2.635431	0.892908	-0.000105
 708	7.0347e+01	11.8216	41.297880	0.000223	2.229980	0.755538	-0.000089
 709	7.0446e+01	11.7895	41.209063	0.000223	2.229980	0.755538	-0.000089
 710	7.0546e+01	11.7462	41.104098	0.000264	2.635431	0.892908	-0.000105
 711	7.0645e+01	11.7077	40.991058	0.000284	2.838157	0.961594	-0.000114
 712	7.0745e+01	11.6692	40.869944	0.000304	3.040882	1.030279	-0.000122
 713	7.0844e+01	11.6211	40.801312	0.000172	1.723167	0.583825	-0.000069
 714	7.0944e+01	11.5890	40.672124	0.000324	3.243608	1.098964	-0.000130
 715	7.1043e+01	11.5537	40.534861	0.000345	3.446333	1.167649	-0.000138
 716	7.1142e+01	11.5023	40.429896	0.000264	2.635431	0.892908	-0.000105
 717	7.1242e+01	11.4751	40.349153	0.000203	2.027255	0.686853	-0.000081
 718	7.1341e+01	11.4302	40.240150	0.000274	2.736794	0.927251	-0.000110
 719	7.1441e+01	11.3884	40.131148	0.000274	2.736794	0.927251	-0.000110
 720	7.1540e+01	11.3548	40.034257	0.000243	2.432706	0.824223	-0.000097
 721	7.1640e+01	11.3098	39.917180	0.000294	2.939520	0.995936	-0.000118
 722	7.1740e+01	11.2633	39.836437	0.000203	2.027255	0.686853	-0.000081
 723	7.1839e+01	11.2280	39.715323	0.000304	3.040882	1.030279	-0.000122
 724	7.1939e+01	11.1959	39.610357	0.000264	2.635431	0.892908	-0.000105
 725	7.2038e+01	11.1526	39.460983	0.000375	3.750422	1.270677	-0.000150
 726	7.2138e+01	11.1125	39.384278	0.000193	1.925892	0.652510	-0.000077
 727	7.2237e+01	11.0692	39.267201	0.000294	2.939520	0.995936	-0.000118
 728	7.2337e+01	11.0371	39.170309	0.000243	2.432706	0.824223	-0.000097
 729	7.2436e+01	10.9842	39.065344	0.000264	2.635431	0.892908	-0.000105
 730	7.2535e+01	10.9473	38.988638	0.000193	1.925892	0.652510	-0.000077
 731	7.2635e+01	10.9120	38.875599	0.000284	2.838157	0.961594	-0.000114
 732	7.2734e+01	10.8767	38.782744	0.000233	2.331343	0.789880	-0.000093
 733	7.2834e+01	10.8366	38.617222	0.000416	4.155873	1.408048	-0.000166
 734	7.2933e+01	10.7981	38.544553	0.000182	1.824529	0.618167	-0.000073
 735	7.3033e+01	10.7500	38.455736	0.000223	2.229980	0.755538	-0.000089
 736	7.3132e+01	10.7115	38.326548	0.000324	3.243608	1.098964	-0.000130
 737	7.3232e+01	10.6762	38.201397	0.000314	3.142245	1.064621	-0.000126
 738	7.3332e+01	10.6280	38.112580	0.000223	2.229980	0.755538	-0.000089
 739	7.3431e+01	10.5847	37.975317	0.000345	3.446333	1.167649	-0.000138
 740	7.3531e+01	10.5607	37.890537	0.000213	2.128618	0.721195	-0.000085
 741	7.3630e+01	10.5190	37.757312	0.000334	3.344971	1.133307	-0.000134
 742	7.3730e+01	10.4740	37.611975	0.000365	3.649059	1.236335	-0.000146
 743	7.3829e+01	10.4355	37.543344	0.000172	1.723167	0.583825	-0.000069
 744	7.3928e+01	10.3986	37.434341	0.000274	2.736794	0.927251	-0.000110
 745	7.4028e+01	10.3521	37.317264	0.000294	2.939520	0.995936	-0.000118
 746	7.4127e+01	10.3152	37.196150	0.000304	3.040882	1.030279	-0.000122
 747	7.4227e+01	10.2831	37.091185	0.000264	2.635431	0.892908	-0.000105
 748	7.4326e+01	10.2286	37.002368	0.000223	2.229980	0.755538	-0.000089
 749	7.4426e+01	10.1965	36.848956	0.000385	3.851784	1.305020	-0.000154
 750	7.4525e+01	10.1436	36.739954	0.000274	2.736794	0.927251	-0.000110
 751	7.4625e+01	10.1147	36.655174	0.000213	2.128618	0.721195	-0.000085
 752	7.4725e+01	10.0730	36.530023	0.000314	3.142245	1.064621	-0.000126
 753	7.4824e+01	10.0329	36.404872	0.000314	3.142245	1.064621	-0.000126
 754	7.4924e+01	9.9896	36.279720	0.000314	3.142245	1.064621	-0.000126
 755	7.5023e+01	9.9543	36.146495	0.000334	3.344971	1.133307	-0.000134
 756	7.5123e+01	9.9174	36.053641	0.000233	2.331343	0.789880	-0.000093
 757	7.5222e+01	9.8821	35.968861	0.000213	2.128618	0.721195	-0.000085
 758	7.5322e+01	9.8323	35.819487	0.000375	3.750422	1.270677	-0.000150
 759	7.5421e+01	9.8019	35.722596	0.000243	2.432706	0.824223	-0.000097
 760	7.5520e+01	9.7553	35.593407	0.000324	3.243608	1.098964	-0.000130
 761	7.5620e+01	9.7168	35.492479	0.000253	2.534069	0.858566	-0.000101
 762	7.5719e+01	9.6719	35.379439	0.000284	2.838157	0.961594	-0.000114
 763	7.5819e+01	9.6446	35.242176	0.000345	3.446333	1.167649	-0.000138
 764	7.5918e+01	9.5997	35.112988	0.000324	3.243608	1.098964	-0.000130
 765	7.6018e+01	9.5596	35.020134	0.000233	2.331343	0.789880	-0.000093
 766	7.6118e+01	9.5179	34.886908	0.000334	3.344971	1.133307	-0.000134
 767	7.6217e+01	9.4810	34.790017	0.000243	2.432706	0.824223	-0.000097
 768	7.6317e+01	9.4361	34.668903	0.000304	3.040882	1.030279	-0.000122
 769	7.6416e+01	9.3896	34.555863	0.000284	2.838157	0.961594	-0.000114
 770	7.6516e+01	9.3511	34.430712	0.000314	3.142245	1.064621	-0.000126
 771	7.6615e+01	9.3110	34.337858	0.000233	2.331343	0.789880	-0.000093
 772	7.6715e+01	9.2789	34.212707	0.000314	3.142245	1.064621	-0.000126
 773	7.6814e+01	9.2420	34.047184	0.000416	4.155873	1.408048	-0.000166
 774	7.6913e+01	9.1971	33.922033	0.000314	3.142245	1.064621	-0.000126
 775	7.7013e+01	9.1682	33.829179	0.000233	2.331343	0.789880	-0.000093
 776	7.7112e+01	9.1233	33.708065	0.000304	3.040882	1.030279	-0.000122
 777	7.7212e+01	9.0800	33.615211	0.000233	2.331343	0.789880	-0.000093
 778	7.7311e+01	9.0399	33.445651	0.000426	4.257235	1.442390	-0.000170
 779	7.7411e+01	8.9981	33.320500	0.000314	3.142245	1.064621	-0.000126
 780	7.7510e+01	8.9645	33.231683	0.000223	2.229980	0.755538	-0.000089
 781	7.7610e+01	8.9131	33.066160	0.000416	4.155873	1.408048	-0.000166
 782	7.7710e+01	8.8762	32.981380	0.000213	2.128618	0.721195	-0.000085
 783	7.7809e+01	8.8377	32.852192	0.000324	3.243608	1.098964	-0.000130
 784	7.7909e+01	8.7992	32.755301	0.000243	2.432706	0.824223	-0.000097
 785	7.8008e+01	8.7543	32.654372	0.000253	2.534069	0.858566	-0.000101
 786	7.8108e+01	8.7158	32.476738	0.000446	4.459961	1.511076	-0.000179
 787	7.8207e+01	8.6789	32.383884	0.000233	2.331343	0.789880	-0.000093
 788	7.8306e+01	8.6436	32.254696	0.000324	3.243608	1.098964	-0.000130
 789	7.8406e+01	8.6003	32.145693	0.000274	2.736794	0.927251	-0.000110
 790	7.8505e+01	8.5682	32.028616	0.000294	2.939520	0.995936	-0.000118
 791	7.8605e+01	8.5169	31.899428	0.000324	3.243608	1.098964	-0.000130
 792	7.8704e+01	8.4784	31.770240	0.000324	3.243608	1.098964	-0.000130
 793	7.8804e+01	8.4351	31.628940	0.000355	3.547696	1.201992	-0.000142
 794	7.8903e+01	8.4046	31.556271	0.000182	1.824529	0.618167	-0.000073
 795	7.9003e+01	8.3613	31.390749	0.000416	4.155873	1.408048	-0.000166
 796	7.9103e+01	8.3147	31.285783	0.000264	2.635431	0.892908	-0.000105
 797	7.9202e+01	8.2875	31.124298	0.000405	4.054510	1.373705	-0.000162
 798	7.9302e+01	8.2345	31.019332	0.000264	2.635431	0.892908	-0.000105
 799	7.9401e+01	8.2008	30.894181	0.000314	3.142245	1.064621	-0.000126
 800	7.9501e+01	8.1607	30.744807	0.000375	3.750422	1.270677	-0.000150
 801	7.9600e+01	8.1286	30.611582	0.000334	3.344971	1.133307	-0.000134
 802	7.9700e+01	8.0837	30.494505	0.000294	2.939520	0.995936	-0.000118
 803	7.9799e+01	8.0484	30.373391	0.000304	3.040882	1.030279	-0.000122
 804	7.9898e+01	8.0019	30.280537	0.000233	2.331343	0.789880	-0.000093
 805	7.9998e+01	7.9618	30.106940	0.000436	4.358598	1.476733	-0.000174
 806	8.0097e+01	7.9201	29.981789	0.000314	3.142245	1.064621	-0.000126
 807	8.0197e+01	7.8896	29.897009	0.000213	2.128618	0.721195	-0.000085
 808	8.0296e+01	7.8575	29.792043	0.000264	2.635431	0.892908	-0.000105
 809	8.0396e+01	7.8078	29.618446	0.000436	4.358598	1.476733	-0.000174
 810	8.0496e+01	7.7597	29.473109	0.000365	3.649059	1.236335	-0.000146
 811	8.0595e+01	7.7260	29.388330	0.000213	2.128618	0.721195	-0.000085
 812	8.0695e+01	7.6811	29.283364	0.000264	2.635431	0.892908	-0.000105
 813	8.0794e+01	7.6458	29.077470	0.000517	5.169500	1.751474	-0.000207
 814	8.0894e+01	7.6089	29.016913	0.000152	1.520441	0.515139	-0.000061
 815	8.0993e+01	7.5624	28.855428	0.000405	4.054510	1.373705	-0.000162
 816	8.1093e+01	7.5255	28.738351	0.000294	2.939520	0.995936	-0.000118
 817	8.1192e+01	7.4950	28.584940	0.000385	3.851784	1.305020	-0.000154
 818	8.1291e+01	7.4565	28.479974	0.000264	2.635431	0.892908	-0.000105
 819	8.1391e+01	7.4051	28.314451	0.000416	4.155873	1.408048	-0.000166
 820	8.1490e+01	7.3618	28.209486	0.000264	2.635431	0.892908	-0.000105
 821	8.1590e+01	7.3249	28.088372	0.000304	3.040882	1.030279	-0.000122
 822	8.1689e+01	7.2880	27.938998	0.000375	3.750422	1.270677	-0.000150
 823	8.1789e+01	7.2479	27.834032	0.000264	2.635431	0.892908	-0.000105
 824	8.1888e+01	7.2142	27.737141	0.000243	2.432706	0.824223	-0.000097
 825	8.1988e+01	7.1629	27.579693	0.000395	3.953147	1.339363	-0.000158
 826	8.2088e+01	7.1260	27.446467	0.000334	3.344971	1.133307	-0.000134
 827	8.2187e+01	7.0843	27.305168	0.000355	3.547696	1.201992	-0.000142
 828	8.2287e+01	7.0458	27.224425	0.000203	2.027255	0.686853	-0.000081
 829	8.2386e+01	7.0073	27.062939	0.000405	4.054510	1.373705	-0.000162
 830	8.2486e+01	6.9608	26.913565	0.000375	3.750422	1.270677	-0.000150
 831	8.2585e+01	6.9255	26.832823	0.000203	2.027255	0.686853	-0.000081
 832	8.2684e+01	6.8822	26.703634	0.000324	3.243608	1.098964	-0.000130
 833	8.2784e+01	6.8453	26.554260	0.000375	3.750422	1.270677	-0.000150
 834	8.2883e+01	6.8068	26.412961	0.000355	3.547696	1.201992	-0.000142
 835	8.2983e+01	6.7683	26.291846	0.000304	3.040882	1.030279	-0.000122
 836	8.3082e+01	6.7282	26.170732	0.000304	3.040882	1.030279	-0.000122
 837	8.3182e+01	6.6848	26.037507	0.000334	3.344971	1.133307	-0.000134
 838	8.3281e+01	6.6495	25.924467	0.000284	2.838157	0.961594	-0.000114
 839	8.3381e+01	6.6094	25.758945	0.000416	4.155873	1.408048	-0.000166
 840	8.3481e+01	6.5693	25.629756	0.000324	3.243608	1.098964	-0.000130
 841	8.3580e+01	6.5292	25.549014	0.000203	2.027255	0.686853	-0.000081
 842	8.3680e+01	6.4875	25.427899	0.000304	3.040882	1.030279	-0.000122
 843	8.3779e+01	6.4506	25.270451	0.000395	3.953147	1.339363	-0.000158
 844	8.3879e+01	6.4089	25.121077	0.000375	3.750422	1.270677	-0.000150
 845	8.3978e+01	6.3752	25.016112	0.000264	2.635431	0.892908	-0.000105
 846	8.4078e+01	6.3367	24.862700	0.000385	3.851784	1.305020	-0.000154
 847	8.4177e+01	6.2966	24.753698	0.000274	2.736794	0.927251	-0.000110
 848	8.4276e+01	6.2501	24.616435	0.000345	3.446333	1.167649	-0.000138
 849	8.4376e+01	6.2148	24.531655	0.000213	2.128618	0.721195	-0.000085
 850	8.4475e+01	6.1667	24.374207	0.000395	3.953147	1.339363	-0.000158
 851	8.4575e+01	6.1378	24.265204	0.000274	2.736794	0.927251	-0.000110
 852	8.4674e+01	6.0881	24.091608	0.000436	4.358598	1.476733	-0.000174
 853	8.4774e+01	6.0496	24.010865	0.000203	2.027255	0.686853	-0.000081
 854	8.4874e+01	6.0111	23.849379	0.000405	4.054510	1.373705	-0.000162
 855	8.4973e+01	5.9806	23.712117	0.000345	3.446333	1.167649	-0.000138
 856	8.5073e+01	5.9357	23.599077	0.000284	2.838157	0.961594	-0.000114
 857	8.5172e+01	5.8923	23.461814	0.000345	3.446333	1.167649	-0.000138
 858	8.5272e+01	5.8554	23.328589	0.000334	3.344971	1.133307	-0.000134
 859	8.5371e+01	5.8137	23.223623	0.000264	2.635431	0.892908	-0.000105
 860	8.5471e+01	5.7720	23.062138	0.000405	4.054510	1.373705	-0.000162
 861	8.5570e+01	5.7319	22.957172	0.000264	2.635431	0.892908	-0.000105
 862	8.5669e+01	5.6870	22.815873	0.000355	3.547696	1.201992	-0.000142
 863	8.5769e+01	5.6533	22.658424	0.000395	3.953147	1.339363	-0.000158
 864	8.5868e+01	5.6196	22.549422	0.000274	2.736794	0.927251	-0.000110
 865	8.5968e+01	5.5811	22.432345	0.000294	2.939520	0.995936	-0.000118
 866	8.6067e+01	5.5298	22.278934	0.000385	3.851784	1.305020	-0.000154
 867	8.6167e+01	5.5009	22.113411	0.000416	4.155873	1.408048	-0.000166
 868	8.6266e+01	5.4544	22.028631	0.000213	2.128618	0.721195	-0.000085
 869	8.6366e+01	5.4127	21.871183	0.000395	3.953147	1.339363	-0.000158
 870	8.6466e+01	5.3662	21.737957	0.000334	3.344971	1.133307	-0.000134
 871	8.6565e+01	5.3309	21.608769	0.000324	3.243608	1.098964	-0.000130
 872	8.6665e+01	5.2988	21.467469	0.000355	3.547696	1.201992	-0.000142
 873	8.6764e+01	5.2539	21.346355	0.000304	3.040882	1.030279	-0.000122
 874	8.6864e+01	5.2170	21.180833	0.000416	4.155873	1.408048	-0.000166
 875	8.6963e+01	5.1769	21.083941	0.000243	2.432706	0.824223	-0.000097
 876	8.7063e+01	5.1416	20.926493	0.000395	3.953147	1.339363	-0.000158
 877	8.7162e+01	5.0966	20.793268	0.000334	3.344971	1.133307	-0.000134
 878	8.7261e+01	5.0598	20.684265	0.000274	2.736794	0.927251	-0.000110
 879	8.7361e+01	5.0116	20.538928	0.000365	3.649059	1.236335	-0.000146
 880	8.7460e+01	4.9731	20.433963	0.000264	2.635431	0.892908	-0.000105
 881	8.7560e+01	4.9330	20.244217	0.000476	4.764049	1.614104	-0.000191
 882	8.7659e+01	4.9057	20.135214	0.000274	2.736794	0.927251	-0.000110
 883	8.7759e+01	4.8592	20.014100	0.000304	3.040882	1.030279	-0.000122
 884	8.7859e+01	4.8223	19.864726	0.000375	3.750422	1.270677	-0.000150
 885	8.7958e+01	4.7758	19.731501	0.000334	3.344971	1.133307	-0.000134
 886	8.8058e+01	4.7341	19.622498	0.000274	2.736794	0.927251	-0.000110
 887	8.8157e+01	4.6972	19.465050	0.000395	3.953147	1.339363	-0.000158
 888	8.8257e+01	4.6507	19.360084	0.000264	2.635431	0.892908	-0.000105
 889	8.8356e+01	4.6170	19.230896	0.000324	3.243608	1.098964	-0.000130
 890	8.8456e+01	4.5801	19.077485	0.000385	3.851784	1.305020	-0.000154
 891	8.8555e+01	4.5432	18.916000	0.000405	4.054510	1.373705	-0.000162
 892	8.8654e+01	4.4999	18.843331	0.000182	1.824529	0.618167	-0.000073
 893	8.8754e+01	4.4566	18.641474	0.000507	5.068137	1.717131	-0.000203
 894	8.8853e+01	4.4197	18.552657	0.000223	2.229980	0.755538	-0.000089
 895	8.8953e+01	4.3828	18.375023	0.000446	4.459961	1.511076	-0.000179
 896	8.9052e+01	4.3346	18.237761	0.000345	3.446333	1.167649	-0.000138
 897	8.9152e+01	4.3009	18.088387	0.000375	3.750422	1.270677	-0.000150
 898	8.9251e+01	4.2608	17.983421	0.000264	2.635431	0.892908	-0.000105
 899	8.9351e+01	4.2320	17.842121	0.000355	3.547696	1.201992	-0.000142
 900	8.9451e+01	4.1838	17.692747	0.000375	3.750422	1.270677	-0.000150
 901	8.9550e+01	4.1405	17.547410	0.000365	3.649059	1.236335	-0.000146
 902	8.9650e+01	4.0988	17.410148	0.000345	3.446333	1.167649	-0.000138
 903	8.9749e+01	4.0571	17.280960	0.000324	3.243608	1.098964	-0.000130
 904	8.9849e+01	4.0154	17.079103	0.000507	5.068137	1.717131	-0.000203
 905	8.9948e+01	3.9913	16.986249	0.000233	2.331343	0.789880	-0.000093
 906	9.0047e+01	3.9352	16.889357	0.000243	2.432706	0.824223	-0.000097
 907	9.0147e+01	3.9015	16.719798	0.000426	4.257235	1.442390	-0.000170
 908	9.0246e+01	3.8630	16.566387	0.000385	3.851784	1.305020	-0.000154
 909	9.0346e+01	3.8181	16.417012	0.000375	3.750422	1.270677	-0.000150
 910	9.0445e+01	3.7796	16.324158	0.000233	2.331343	0.789880	-0.000093
 911	9.0545e+01	3.7475	16.170747	0.000385	3.851784	1.305020	-0.000154
 912	9.0644e+01	3.7074	16.009262	0.000405	4.054510	1.373705	-0.000162
 913	9.0744e+01	3.6705	15.867962	0.000355	3.547696	1.201992	-0.000142
 914	9.0844e+01	3.6240	15.738774	0.000324	3.243608	1.098964	-0.000130
 915	9.0943e+01	3.5823	15.573251	0.000416	4.155873	1.408048	-0.000166
 916	9.1043e+01	3.5454	15.415803	0.000395	3.953147	1.339363	-0.000158
 917	9.1142e+01	3.5004	15.318912	0.000243	2.432706	0.824223	-0.000097
 918	9.1242e+01	3.4587	15.173575	0.000365	3.649059	1.236335	-0.000146
 919	9.1341e+01	3.4250	15.016126	0.000395	3.953147	1.339363	-0.000158
 920	9.1441e+01	3.3769	14.854641	0.000405	4.054510	1.373705	-0.000162
 921	9.1540e+01	3.3384	14.713341	0.000355	3.547696	1.201992	-0.000142
 922	9.1639e+01	3.2935	14.608376	0.000264	2.635431	0.892908	-0.000105
 923	9.1739e+01	3.2678	14.434779	0.000436	4.358598	1.476733	-0.000174
 924	9.1838e+01	3.2197	14.305590	0.000324	3.243608	1.098964	-0.000130
 925	9.1938e+01	3.1796	14.156216	0.000375	3.750422	1.270677	-0.000150
 926	9.2037e+01	3.1443	13.982620	0.000436	4.358598	1.476733	-0.000174
 927	9.2137e+01	3.0994	13.841320	0.000355	3.547696	1.201992	-0.000142
 928	9.2237e+01	3.0577	13.740391	0.000253	2.534069	0.858566	-0.000101
 929	9.2336e+01	3.0224	13.534498	0.000517	5.169500	1.751474	-0.000207
 930	9.2436e+01	2.9823	13.425495	0.000274	2.736794	0.927251	-0.000110
 931	9.2535e+01	2.9486	13.268047	0.000395	3.953147	1.339363	-0.000158
 932	9.2635e+01	2.9069	13.130784	0.000345	3.446333	1.167649	-0.000138
 933	9.2734e+01	2.8668	12.981410	0.000375	3.750422	1.270677	-0.000150
 934	9.2834e+01	2.8218	12.836073	0.000365	3.649059	1.236335	-0.000146
 935	9.2933e+01	2.7833	12.674588	0.000405	4.054510	1.373705	-0.000162
 936	9.3032e+01	2.7368	12.496954	0.000446	4.459961	1.511076	-0.000179
 937	9.3132e+01	2.7047	12.371802	0.000314	3.142245	1.064621	-0.000126
 938	9.3231e+01	2.6662	12.222428	0.000375	3.750422	1.270677	-0.000150
 939	9.3331e+01	2.6293	12.089203	0.000334	3.344971	1.133307	-0.000134
 940	9.3430e+01	2.5796	11.927718	0.000405	4.054510	1.373705	-0.000162
 941	9.3530e+01	2.5491	11.782381	0.000365	3.649059	1.236335	-0.000146
 942	9.3629e+01	2.5042	11.624932	0.000395	3.953147	1.339363	-0.000158
 943	9.3729e+01	2.4689	11.503818	0.000304	3.040882	1.030279	-0.000122
 944	9.3829e+01	2.4272	11.330221	0.000436	4.358598	1.476733	-0.000174
 945	9.3928e+01	2.3839	11.201033	0.000324	3.243608	1.098964	-0.000130
 946	9.4028e+01	2.3518	11.051659	0.000375	3.750422	1.270677	-0.000150
 947	9.4127e+01	2.3117	10.890174	0.000405	4.054510	1.373705	-0.000162
 948	9.4227e+01	2.2604	10.752911	0.000345	3.446333	1.167649	-0.000138
 949	9.4326e+01	2.2331	10.575277	0.000446	4.459961	1.511076	-0.000179
 950	9.4425e+01	2.1850	10.429940	0.000365	3.649059	1.236335	-0.000146
 951	9.4525e+01	2.1465	10.272492	0.000395	3.953147	1.339363	-0.000158
 952	9.4624e+01	2.1064	10.155415	0.000294	2.939520	0.995936	-0.000118
 953	9.4724e+01	2.0711	9.981818	0.000436	4.358598	1.476733	-0.000174
 954	9.4823e+01	2.0229	9.836481	0.000365	3.649059	1.236335	-0.000146
 955	9.4923e+01	1.9925	9.699219	0.000345	3.446333	1.167649	-0.000138
 956	9.5022e+01	1.9507	9.529659	0.000426	4.257235	1.442390	-0.000170
 957	9.5122e+01	1.9138	9.404508	0.000314	3.142245	1.064621	-0.000126
 958	9.5222e+01	1.8689	9.210725	0.000487	4.865412	1.648446	-0.000195
 959	9.5321e+01	1.8304	9.085574	0.000314	3.142245	1.064621	-0.000126
 960	9.5421e+01	1.7903	8.911977	0.000436	4.358598	1.476733	-0.000174
 961	9.5520e+01	1.7438	8.802974	0.000274	2.736794	0.927251	-0.000110
 962	9.5620e+01	1.7053	8.613229	0.000476	4.764049	1.614104	-0.000191
 963	9.5719e+01	1.6620	8.431558	0.000456	4.561324	1.545418	-0.000183
 964	9.5819e+01	1.6315	8.274110	0.000395	3.953147	1.339363	-0.000158
 965	9.5918e+01	1.5946	8.157033	0.000294	2.939520	0.995936	-0.000118
 966	9.6017e+01	1.5561	7.991510	0.000416	4.155873	1.408048	-0.000166
 967	9.6117e+01	1.5016	7.854248	0.000345	3.446333	1.167649	-0.000138
 968	9.6216e+01	1.4599	7.737171	0.000294	2.939520	0.995936	-0.000118
 969	9.6316e+01	1.4230	7.543388	0.000487	4.865412	1.648446	-0.000195
 970	9.6415e+01	1.3877	7.365754	0.000446	4.459961	1.511076	-0.000179
 971	9.6515e+01	1.3524	7.220417	0.000365	3.649059	1.236335	-0.000146
 972	9.6615e+01	1.3155	7.038746	0.000456	4.561324	1.545418	-0.000183
 973	9.6714e+01	1.2738	6.913595	0.000314	3.142245	1.064621	-0.000126
 974	9.6814e+01	1.2192	6.768258	0.000365	3.649059	1.236335	-0.000146
 975	9.6913e+01	1.1919	6.574476	0.000487	4.865412	1.648446	-0.000195
 976	9.7013e+01	1.1486	6.457399	0.000294	2.939520	0.995936	-0.000118
 977	9.7112e+01	1.1182	6.275728	0.000456	4.561324	1.545418	-0.000183
 978	9.7212e+01	1.0732	6.122316	0.000385	3.851784	1.305020	-0.000154
 979	9.7311e+01	1.0331	5.956794	0.000416	4.155873	1.408048	-0.000166
 980	9.7410e+01	0.9978	5.799345	0.000395	3.953147	1.339363	-0.000158
 981	9.7510e+01	0.9529	5.645934	0.000385	3.851784	1.305020	-0.000154
 982	9.7609e+01	0.9080	5.448115	0.000497	4.966775	1.682789	-0.000199
 983	9.7709e+01	0.8679	5.322963	0.000314	3.142245	1.064621	-0.000126
 984	9.7808e+01	0.8406	5.149367	0.000436	4.358598	1.476733	-0.000174
 985	9.7908e+01	0.7957	5.040364	0.000274	2.736794	0.927251	-0.000110
 986	9.8007e+01	0.7540	4.862730	0.000446	4.459961	1.511076	-0.000179
 987	9.8107e+01	0.7155	4.725467	0.000345	3.446333	1.167649	-0.000138
 988	9.8207e+01	0.6722	4.568019	0.000395	3.953147	1.339363	-0.000158
 989	9.8306e+01	0.6353	4.406534	0.000405	4.054510	1.373705	-0.000162
 990	9.8406e+01	0.5936	4.269271	0.000345	3.446333	1.167649	-0.000138
 991	9.8505e+01	0.5470	4.075489	0.000487	4.865412	1.648446	-0.000195
 992	9.8605e+01	0.5198	3.938226	0.000345	3.446333	1.167649	-0.000138
 993	9.8704e+01	0.4765	3.764629	0.000436	4.358598	1.476733	-0.000174
 994	9.8803e+01	0.4347	3.595069	0.000426	4.257235	1.442390	-0.000170
 995	9.8903e+01	0.3882	3.437621	0.000395	3.953147	1.339363	-0.000158
 996	9.9002e+01	0.3561	3.292284	0.000365	3.649059	1.236335	-0.000146
 997	9.9102e+01	0.3176	3.134836	0.000395	3.953147	1.339363	-0.000158
 998	9.9201e+01	0.2775	3.013722	0.000304	3.040882	1.030279	-0.000122
 999	9.9301e+01	0.2342	2.807828	0.000517	5.169500	1.751474	-0.000207
1000	9.9400e+01	0.1973	2.702862	0.000264	2.635431	0.892908	-0.000105
1001	9.9500e+01	0.1524	2.541377	0.000405	4.054510	1.373705	-0.000162
1002	9.9600e+01	0.1107	2.392003	0.000375	3.750422	1.270677	-0.000150
1003	9.9699e+01	0.0738	2.178035	0.000537	5.372226	1.820159	-0.000215
1004	9.9799e+01	0.0353	2.069032	0.000274	2.736794	0.927251	-0.000110
1005	9.9898e+01	0.0080	1.943881	0.000314	3.142245	1.064621	-0.000126
1006	9.9998e+01	-0.0385	1.798544	0.000365	3.649059	1.236335	-0.000146
1007	1.0010e+02	-0.0802	1.624947	0.000436	4.358598	1.476733	-0.000174
1008	1.0020e+02	-0.1155	1.479610	0.000365	3.649059	1.236335	-0.000146
1009	1.0030e+02	-0.1540	1.318125	0.000405	4.054510	1.373705	-0.000162
1010	1.0040e+02	-0.1973	1.136454	0.000456	4.561324	1.545418	-0.000183
1011	1.0050e+02	-0.2358	0.991117	0.000365	3.649059	1.236335	-0.000146
1012	1.0059e+02	-0.2807	0.841743	0.000375	3.750422	1.270677	-0.000150
1013	1.0069e+02	-0.3192	0.720629	0.000304	3.040882	1.030279	-0.000122
1014	1.0079e+02	-0.3545	0.526846	0.000487	4.865412	1.648446	-0.000195
1015	1.0089e+02	-0.3978	0.377472	0.000375	3.750422	1.270677	-0.000150
1016	1.0099e+02	-0.4283	0.240210	0.000345	3.446333	1.167649	-0.000138
1017	1.0109e+02	-0.4813	0.094873	0.000365	3.649059	1.236335	-0.000146
1018	1.0119e+02	-0.5134	-0.102947	0.000497	4.966775	1.682789	-0.000199
1019	1.0129e+02	-0.5551	-0.264432	0.000405	4.054510	1.373705	-0.000162
1020	1.0139e+02	-0.5984	-0.405732	0.000355	3.547696	1.201992	-0.000142
1021	1.0149e+02	-0.6353	-0.571255	0.000416	4.155873	1.408048	-0.000166
1022	1.0159e+02	-0.6770	-0.732740	0.000405	4.054510	1.373705	-0.000162
1023	1.0169e+02	-0.7091	-0.886151	0.000385	3.851784	1.305020	-0.000154
1024	1.0179e+02	-0.7540	-1.023414	0.000345	3.446333	1.167649	-0.000138
1025	1.0189e+02	-0.7861	-1.180862	0.000395	3.953147	1.339363	-0.000158
1026	1.0199e+02	-0.8294	-1.346385	0.000416	4.155873	1.408048	-0.000166
1027	1.0209e+02	-0.8727	-1.503833	0.000395	3.953147	1.339363	-0.000158
1028	1.0219e+02	-0.9224	-1.596687	0.000233	2.331343	0.789880	-0.000093
1029	1.0229e+02	-0.9561	-1.806618	0.000527	5.270863	1.785817	-0.000211
1030	1.0239e+02	-0.9866	-1.947918	0.000355	3.547696	1.201992	-0.000142
1031	1.0248e+02	-1.0299	-2.105366	0.000395	3.953147	1.339363	-0.000158
1032	1.0258e+02	-1.0700	-2.250703	0.000365	3.649059	1.236335	-0.000146
1033	1.0268e+02	-1.1246	-2.436411	0.000466	4.662686	1.579761	-0.000187
1034	1.0278e+02	-1.1470	-2.577711	0.000355	3.547696	1.201992	-0.000142
1035	1.0288e+02	-1.2016	-2.743234	0.000416	4.155873	1.408048	-0.000166
1036	1.0298e+02	-1.2321	-2.896645	0.000385	3.851784	1.305020	-0.000154
1037	1.0308e+02	-1.2722	-3.070242	0.000436	4.358598	1.476733	-0.000174
1038	1.0318e+02	-1.3107	-3.223653	0.000385	3.851784	1.305020	-0.000154
1039	1.0328e+02	-1.3411	-3.385138	0.000405	4.054510	1.373705	-0.000162
1040	1.0338e+02	-1.3877	-3.534512	0.000375	3.750422	1.270677	-0.000150
1041	1.0348e+02	-1.4294	-3.700035	0.000416	4.155873	1.408048	-0.000166
1042	1.0358e+02	-1.4743	-3.845372	0.000365	3.649059	1.236335	-0.000146
1043	1.0368e+02	-1.5240	-3.966486	0.000304	3.040882	1.030279	-0.000122
1044	1.0378e+02	-1.5561	-4.144120	0.000446	4.459961	1.511076	-0.000179
1045	1.0388e+02	-1.5914	-4.293494	0.000375	3.750422	1.270677	-0.000150
1046	1.0398e+02	-1.6283	-4.471128	0.000446	4.459961	1.511076	-0.000179
1047	1.0408e+02	-1.6748	-4.640688	0.000426	4.257235	1.442390	-0.000170
1048	1.0418e+02	-1.7101	-4.790062	0.000375	3.750422	1.270677	-0.000150
1049	1.0428e+02	-1.7502	-4.886953	0.000243	2.432706	0.824223	-0.000097
1050	1.0438e+02	-1.7855	-5.060550	0.000436	4.358598	1.476733	-0.000174
1051	1.0447e+02	-1.8368	-5.222035	0.000405	4.054510	1.373705	-0.000162
1052	1.0457e+02	-1.8641	-5.371409	0.000375	3.750422	1.270677	-0.000150
1053	1.0467e+02	-1.9251	-5.561154	0.000476	4.764049	1.614104	-0.000191
1054	1.0477e+02	-1.9443	-5.694380	0.000334	3.344971	1.133307	-0.000134
1055	1.0487e+02	-1.9925	-5.819531	0.000314	3.142245	1.064621	-0.000126
1056	1.0497e+02	-2.0342	-6.009277	0.000476	4.764049	1.614104	-0.000191
1057	1.0507e+02	-2.0759	-6.142502	0.000334	3.344971	1.133307	-0.000134
1058	1.0517e+02	-2.1031	-6.271690	0.000324	3.243608	1.098964	-0.000130
1059	1.0527e+02	-2.1577	-6.429139	0.000395	3.953147	1.339363	-0.000158
1060	1.0537e+02	-2.1962	-6.618884	0.000476	4.764049	1.614104	-0.000191
1061	1.0547e+02	-2.2251	-6.727887	0.000274	2.736794	0.927251	-0.000110
1062	1.0557e+02	-2.2684	-6.873224	0.000365	3.649059	1.236335	-0.000146
1063	1.0567e+02	-2.3117	-7.046820	0.000436	4.358598	1.476733	-0.000174
1064	1.0577e+02	-2.3534	-7.228492	0.000456	4.561324	1.545418	-0.000183
1065	1.0587e+02	-2.3935	-7.361717	0.000334	3.344971	1.133307	-0.000134
1066	1.0597e+02	-2.4352	-7.519165	0.000395	3.953147	1.339363	-0.000158
1067	1.0607e+02	-2.4657	-7.652391	0.000334	3.344971	1.133307	-0.000134
1068	1.0617e+02	-2.5122	-7.862322	0.000527	5.270863	1.785817	-0.000211
1069	1.0627e+02	-2.5443	-7.991510	0.000324	3.243608	1.098964	-0.000130
1070	1.0637e+02	-2.5844	-8.132810	0.000355	3.547696	1.201992	-0.000142
1071	1.0647e+02	-2.6197	-8.290258	0.000395	3.953147	1.339363	-0.000158
1072	1.0656e+02	-2.6694	-8.431558	0.000355	3.547696	1.201992	-0.000142
1073	1.0666e+02	-2.7063	-8.580932	0.000375	3.750422	1.270677	-0.000150
1074	1.0676e+02	-2.7432	-8.718195	0.000345	3.446333	1.167649	-0.000138
1075	1.0686e+02	-2.7914	-8.903903	0.000466	4.662686	1.579761	-0.000187
1076	1.0696e+02	-2.8283	-9.033091	0.000324	3.243608	1.098964	-0.000130
1077	1.0706e+02	-2.8700	-9.190540	0.000395	3.953147	1.339363	-0.000158
1078	1.0716e+02	-2.9149	-9.323765	0.000334	3.344971	1.133307	-0.000134
1079	1.0726e+02	-2.9518	-9.529659	0.000517	5.169500	1.751474	-0.000207
1080	1.0736e+02	-2.9807	-9.658847	0.000324	3.243608	1.098964	-0.000130
1081	1.0746e+02	-3.0240	-9.812258	0.000385	3.851784	1.305020	-0.000154
1082	1.0756e+02	-3.0721	-9.925298	0.000284	2.838157	0.961594	-0.000114
1083	1.0766e+02	-3.1058	-10.086784	0.000405	4.054510	1.373705	-0.000162
1084	1.0776e+02	-3.1475	-10.304789	0.000547	5.473588	1.854502	-0.000219
1085	1.0786e+02	-3.1860	-10.409755	0.000264	2.635431	0.892908	-0.000105
1086	1.0796e+02	-3.2277	-10.571240	0.000405	4.054510	1.373705	-0.000162
1087	1.0806e+02	-3.2678	-10.740800	0.000426	4.257235	1.442390	-0.000170
1088	1.0816e+02	-3.3015	-10.865951	0.000314	3.142245	1.064621	-0.000126
1089	1.0826e+02	-3.3464	-11.047622	0.000456	4.561324	1.545418	-0.000183
1090	1.0836e+02	-3.3833	-11.164699	0.000294	2.939520	0.995936	-0.000118
1091	1.0845e+02	-3.4315	-11.318110	0.000385	3.851784	1.305020	-0.000154
1092	1.0855e+02	-3.4603	-11.499781	0.000456	4.561324	1.545418	-0.000183
1093	1.0865e+02	-3.5085	-11.600710	0.000253	2.534069	0.858566	-0.000101
1094	1.0875e+02	-3.5454	-11.770269	0.000426	4.257235	1.442390	-0.000170
1095	1.0885e+02	-3.5790	-11.947903	0.000446	4.459961	1.511076	-0.000179
1096	1.0895e+02	-3.6272	-12.060943	0.000284	2.838157	0.961594	-0.000114
1097	1.0905e+02	-3.6609	-12.218391	0.000395	3.953147	1.339363	-0.000158
1098	1.0915e+02	-3.7026	-12.371802	0.000385	3.851784	1.305020	-0.000154
1099	1.0925e+02	-3.7443	-12.521176	0.000375	3.750422	1.270677	-0.000150
1100	1.0935e+02	-3.7844	-12.666513	0.000365	3.649059	1.236335	-0.000146
1101	1.0945e+02	-3.8293	-12.807813	0.000355	3.547696	1.201992	-0.000142
1102	1.0955e+02	-3.8630	-12.973336	0.000416	4.155873	1.408048	-0.000166
1103	1.0965e+02	-3.8967	-13.142895	0.000426	4.257235	1.442390	-0.000170
1104	1.0975e+02	-3.9464	-13.280158	0.000345	3.446333	1.167649	-0.000138
1105	1.0985e+02	-3.9881	-13.417421	0.000345	3.446333	1.167649	-0.000138
1106	1.0995e+02	-4.0154	-13.607166	0.000476	4.764049	1.614104	-0.000191
1107	1.1005e+02	-4.0715	-13.700020	0.000233	2.331343	0.789880	-0.000093
1108	1.1015e+02	-4.1084	-13.885728	0.000466	4.662686	1.579761	-0.000187
1109	1.1025e+02	-4.1453	-14.018954	0.000334	3.344971	1.133307	-0.000134
1110	1.1035e+02	-4.1887	-14.204662	0.000466	4.662686	1.579761	-0.000187
1111	1.1044e+02	-4.2239	-14.297516	0.000233	2.331343	0.789880	-0.000093
1112	1.1054e+02	-4.2624	-14.463039	0.000416	4.155873	1.408048	-0.000166
1113	1.1064e+02	-4.3042	-14.604339	0.000355	3.547696	1.201992	-0.000142
1114	1.1074e+02	-4.3394	-14.741601	0.000345	3.446333	1.167649	-0.000138
1115	1.1084e+02	-4.3780	-14.866752	0.000314	3.142245	1.064621	-0.000126
1116	1.1094e+02	-4.4116	-15.040349	0.000436	4.358598	1.476733	-0.000174
1117	1.1104e+02	-4.4662	-15.173575	0.000334	3.344971	1.133307	-0.000134
1118	1.1114e+02	-4.5063	-15.282577	0.000274	2.736794	0.927251	-0.000110
1119	1.1124e+02	-4.5368	-15.456174	0.000436	4.358598	1.476733	-0.000174
1120	1.1134e+02	-4.5801	-15.641882	0.000466	4.662686	1.579761	-0.000187
1121	1.1144e+02	-4.6218	-15.738774	0.000243	2.432706	0.824223	-0.000097
1122	1.1154e+02	-4.6603	-15.928519	0.000476	4.764049	1.614104	-0.000191
1123	1.1164e+02	-4.7084	-16.090004	0.000405	4.054510	1.373705	-0.000162
1124	1.1174e+02	-4.7453	-16.207081	0.000294	2.939520	0.995936	-0.000118
1125	1.1184e+02	-4.7854	-16.340307	0.000334	3.344971	1.133307	-0.000134
1126	1.1194e+02	-4.8159	-16.497755	0.000395	3.953147	1.339363	-0.000158
1127	1.1204e+02	-4.8656	-16.626944	0.000324	3.243608	1.098964	-0.000130
1128	1.1214e+02	-4.8881	-16.752095	0.000314	3.142245	1.064621	-0.000126
1129	1.1224e+02	-4.9314	-16.925692	0.000436	4.358598	1.476733	-0.000174
1130	1.1234e+02	-4.9779	-17.054880	0.000324	3.243608	1.098964	-0.000130
1131	1.1244e+02	-5.0164	-17.184068	0.000324	3.243608	1.098964	-0.000130
1132	1.1253e+02	-5.0646	-17.349591	0.000416	4.155873	1.408048	-0.000166
1133	1.1263e+02	-5.1015	-17.511076	0.000405	4.054510	1.373705	-0.000162
1134	1.1273e+02	-5.1416	-17.640265	0.000324	3.243608	1.098964	-0.000130
1135	1.1283e+02	-5.1801	-17.789639	0.000375	3.750422	1.270677	-0.000150
1136	1.1293e+02	-5.2202	-17.934976	0.000365	3.649059	1.236335	-0.000146
1137	1.1303e+02	-5.2555	-18.080312	0.000365	3.649059	1.236335	-0.000146
1138	1.1313e+02	-5.2940	-18.229686	0.000375	3.750422	1.270677	-0.000150
1139	1.1323e+02	-5.3357	-18.346763	0.000294	2.939520	0.995936	-0.000118
1140	1.1333e+02	-5.3854	-18.492100	0.000365	3.649059	1.236335	-0.000146
1141	1.1343e+02	-5.4255	-18.669734	0.000446	4.459961	1.511076	-0.000179
1142	1.1353e+02	-5.4656	-18.790848	0.000304	3.040882	1.030279	-0.000122
1143	1.1363e+02	-5.5009	-18.940222	0.000375	3.750422	1.270677	-0.000150
1144	1.1373e+02	-5.5314	-19.109782	0.000426	4.257235	1.442390	-0.000170
1145	1.1383e+02	-5.5699	-19.234933	0.000314	3.142245	1.064621	-0.000126
1146	1.1393e+02	-5.6148	-19.352010	0.000294	2.939520	0.995936	-0.000118
1147	1.1403e+02	-5.6581	-19.473124	0.000304	3.040882	1.030279	-0.000122
1148	1.1413e+02	-5.7014	-19.650758	0.000446	4.459961	1.511076	-0.000179
1149	1.1423e+02	-5.7287	-19.796095	0.000365	3.649059	1.236335	-0.000146
1150	1.1433e+02	-5.7865	-19.921246	0.000314	3.142245	1.064621	-0.000126
1151	1.1442e+02	-5.8153	-20.026212	0.000264	2.635431	0.892908	-0.000105
1152	1.1452e+02	-5.8442	-20.203846	0.000446	4.459961	1.511076	-0.000179
1153	1.1462e+02	-5.8956	-20.316886	0.000284	2.838157	0.961594	-0.000114
1154	1.1472e+02	-5.9341	-20.458185	0.000355	3.547696	1.201992	-0.000142
1155	1.1482e+02	-5.9806	-20.579299	0.000304	3.040882	1.030279	-0.000122
1156	1.1492e+02	-6.0127	-20.708488	0.000324	3.243608	1.098964	-0.000130
1157	1.1502e+02	-6.0688	-20.869973	0.000405	4.054510	1.373705	-0.000162
1158	1.1512e+02	-6.0881	-21.019347	0.000375	3.750422	1.270677	-0.000150
1159	1.1522e+02	-6.1330	-21.120276	0.000253	2.534069	0.858566	-0.000101
1160	1.1532e+02	-6.1683	-21.233315	0.000284	2.838157	0.961594	-0.000114
1161	1.1542e+02	-6.2148	-21.394801	0.000405	4.054510	1.373705	-0.000162
1162	1.1552e+02	-6.2549	-21.548212	0.000385	3.851784	1.305020	-0.000154
1163	1.1562e+02	-6.2918	-21.661252	0.000284	2.838157	0.961594	-0.000114
1164	1.1572e+02	-6.3335	-21.834849	0.000436	4.358598	1.476733	-0.000174
1165	1.1582e+02	-6.3768	-21.927703	0.000233	2.331343	0.789880	-0.000093
1166	1.1592e+02	-6.4201	-22.089188	0.000405	4.054510	1.373705	-0.000162
1167	1.1602e+02	-6.4490	-22.210302	0.000304	3.040882	1.030279	-0.000122
1168	1.1612e+02	-6.4795	-22.327379	0.000294	2.939520	0.995936	-0.000118
1169	1.1622e+02	-6.5244	-22.476753	0.000375	3.750422	1.270677	-0.000150
1170	1.1632e+02	-6.5661	-22.589793	0.000284	2.838157	0.961594	-0.000114
1171	1.1642e+02	-6.6078	-22.739167	0.000375	3.750422	1.270677	-0.000150
1172	1.1651e+02	-6.6511	-22.819910	0.000203	2.027255	0.686853	-0.000081
1173	1.1661e+02	-6.6945	-22.985432	0.000416	4.155873	1.408048	-0.000166
1174	1.1671e+02	-6.7314	-23.142881	0.000395	3.953147	1.339363	-0.000158
1175	1.1681e+02	-6.7683	-23.263995	0.000304	3.040882	1.030279	-0.000122
1176	1.1691e+02	-6.8068	-23.372997	0.000274	2.736794	0.927251	-0.000110
1177	1.1701e+02	-6.8517	-23.461814	0.000223	2.229980	0.755538	-0.000089
1178	1.1711e+02	-6.8918	-23.635411	0.000436	4.358598	1.476733	-0.000174
1179	1.1721e+02	-6.9303	-23.768637	0.000334	3.344971	1.133307	-0.000134
1180	1.1731e+02	-6.9784	-23.873602	0.000264	2.635431	0.892908	-0.000105
1181	1.1741e+02	-7.0137	-23.994716	0.000304	3.040882	1.030279	-0.000122
1182	1.1751e+02	-7.0490	-24.168313	0.000436	4.358598	1.476733	-0.000174
1183	1.1761e+02	-7.0843	-24.240982	0.000182	1.824529	0.618167	-0.000073
1184	1.1771e+02	-7.1340	-24.378244	0.000345	3.446333	1.167649	-0.000138
1185	1.1781e+02	-7.1645	-24.531655	0.000385	3.851784	1.305020	-0.000154
1186	1.1791e+02	-7.1966	-24.648732	0.000294	2.939520	0.995936	-0.000118
1187	1.1801e+02	-7.2431	-24.802143	0.000385	3.851784	1.305020	-0.000154
1188	1.1811e+02	-7.2912	-24.919220	0.000294	2.939520	0.995936	-0.000118
1189	1.1821e+02	-7.3313	-25.008037	0.000223	2.229980	0.755538	-0.000089
1190	1.1831e+02	-7.3602	-25.129151	0.000304	3.040882	1.030279	-0.000122
1191	1.1841e+02	-7.4116	-25.286600	0.000395	3.953147	1.339363	-0.000158
1192	1.1850e+02	-7.4501	-25.415788	0.000324	3.243608	1.098964	-0.000130
1193	1.1860e+02	-7.4870	-25.536902	0.000304	3.040882	1.030279	-0.000122
1194	1.1870e+02	-7.5319	-25.653979	0.000294	2.939520	0.995936	-0.000118
1195	1.1880e+02	-7.5704	-25.787205	0.000334	3.344971	1.133307	-0.000134
1196	1.1890e+02	-7.6025	-25.916393	0.000324	3.243608	1.098964	-0.000130
1197	1.1900e+02	-7.6474	-26.053655	0.000345	3.446333	1.167649	-0.000138
1198	1.1910e+02	-7.6875	-26.170732	0.000294	2.939520	0.995936	-0.000118
1199	1.1920e+02	-7.7324	-26.287809	0.000294	2.939520	0.995936	-0.000118
1200	1.1930e+02	-7.7629	-26.433146	0.000365	3.649059	1.236335	-0.000146
1201	1.1940e+02	-7.7998	-26.505815	0.000182	1.824529	0.618167	-0.000073
1202	1.1950e+02	-7.8415	-26.675374	0.000426	4.257235	1.442390	-0.000170
1203	1.1960e+02	-7.8944	-26.792451	0.000294	2.939520	0.995936	-0.000118
1204	1.1970e+02	-7.9169	-26.917603	0.000314	3.142245	1.064621	-0.000126
1205	1.1980e+02	-7.9714	-27.018531	0.000253	2.534069	0.858566	-0.000101
1206	1.1990e+02	-8.0147	-27.180016	0.000405	4.054510	1.373705	-0.000162
1207	1.2000e+02	-8.0388	-27.293056	0.000284	2.838157	0.961594	-0.000114
1208	1.2010e+02	-8.0853	-27.414170	0.000304	3.040882	1.030279	-0.000122
1209	1.2020e+02	-8.1222	-27.527210	0.000284	2.838157	0.961594	-0.000114
1210	1.2030e+02	-8.1655	-27.611990	0.000213	2.128618	0.721195	-0.000085
1211	1.2039e+02	-8.2121	-27.777512	0.000416	4.155873	1.408048	-0.000166
1212	1.2049e+02	-8.2377	-27.874404	0.000243	2.432706	0.824223	-0.000097
1213	1.2059e+02	-8.2778	-27.971295	0.000243	2.432706	0.824223	-0.000097
1214	1.2069e+02	-8.3212	-28.100483	0.000324	3.243608	1.098964	-0.000130
1215	1.2079e+02	-8.3645	-28.314451	0.000537	5.372226	1.820159	-0.000215
1216	1.2089e+02	-8.4046	-28.322526	0.000020	0.202725	0.068685	-0.000008
1217	1.2099e+02	-8.4479	-28.431528	0.000274	2.736794	0.927251	-0.000110
1218	1.2109e+02	-8.4848	-28.588977	0.000395	3.953147	1.339363	-0.000158
1219	1.2119e+02	-8.5297	-28.710091	0.000304	3.040882	1.030279	-0.000122
1220	1.2129e+02	-8.5730	-28.811019	0.000253	2.534069	0.858566	-0.000101
1221	1.2139e+02	-8.6035	-28.964430	0.000385	3.851784	1.305020	-0.000154
1222	1.2149e+02	-8.6420	-29.061322	0.000243	2.432706	0.824223	-0.000097
1223	1.2159e+02	-8.6837	-29.190510	0.000324	3.243608	1.098964	-0.000130
1224	1.2169e+02	-8.7238	-29.319698	0.000324	3.243608	1.098964	-0.000130
1225	1.2179e+02	-8.7495	-29.368144	0.000122	1.216353	0.412112	-0.000049
1226	1.2189e+02	-8.7960	-29.541741	0.000436	4.358598	1.476733	-0.000174
1227	1.2199e+02	-8.8441	-29.674966	0.000334	3.344971	1.133307	-0.000134
1228	1.2209e+02	-8.8842	-29.775895	0.000253	2.534069	0.858566	-0.000101
1229	1.2219e+02	-8.9179	-29.937380	0.000405	4.054510	1.373705	-0.000162
1230	1.2229e+02	-8.9757	-30.018123	0.000203	2.027255	0.686853	-0.000081
1231	1.2239e+02	-9.0046	-30.139237	0.000304	3.040882	1.030279	-0.000122
1232	1.2248e+02	-9.0495	-30.236128	0.000243	2.432706	0.824223	-0.000097
1233	1.2258e+02	-9.0816	-30.328982	0.000233	2.331343	0.789880	-0.000093
1234	1.2268e+02	-9.1104	-30.446059	0.000294	2.939520	0.995936	-0.000118
1235	1.2278e+02	-9.1570	-30.587359	0.000355	3.547696	1.201992	-0.000142
1236	1.2288e+02	-9.1906	-30.716547	0.000324	3.243608	1.098964	-0.000130
1237	1.2298e+02	-9.2484	-30.817476	0.000253	2.534069	0.858566	-0.000101
1238	1.2308e+02	-9.2741	-30.922441	0.000264	2.635431	0.892908	-0.000105
1239	1.2318e+02	-9.3190	-31.067778	0.000365	3.649059	1.236335	-0.000146
1240	1.2328e+02	-9.3607	-31.180818	0.000284	2.838157	0.961594	-0.000114
1241	1.2338e+02	-9.3976	-31.261561	0.000203	2.027255	0.686853	-0.000081
1242	1.2348e+02	-9.4393	-31.414972	0.000385	3.851784	1.305020	-0.000154
1243	1.2358e+02	-9.4746	-31.499752	0.000213	2.128618	0.721195	-0.000085
1244	1.2368e+02	-9.5147	-31.649126	0.000375	3.750422	1.270677	-0.000150
1245	1.2378e+02	-9.5580	-31.746017	0.000243	2.432706	0.824223	-0.000097
1246	1.2388e+02	-9.5981	-31.915577	0.000426	4.257235	1.442390	-0.000170
1247	1.2398e+02	-9.6398	-32.016505	0.000253	2.534069	0.858566	-0.000101
1248	1.2408e+02	-9.6815	-32.109359	0.000233	2.331343	0.789880	-0.000093
1249	1.2418e+02	-9.7168	-32.266807	0.000395	3.953147	1.339363	-0.000158
1250	1.2428e+02	-9.7585	-32.339476	0.000182	1.824529	0.618167	-0.000073
1251	1.2438e+02	-9.8003	-32.472701	0.000334	3.344971	1.133307	-0.000134
1252	1.2447e+02	-9.8307	-32.577667	0.000264	2.635431	0.892908	-0.000105
1253	1.2457e+02	-9.8837	-32.702818	0.000314	3.142245	1.064621	-0.000126
1254	1.2467e+02	-9.9254	-32.832006	0.000324	3.243608	1.098964	-0.000130
1255	1.2477e+02	-9.9607	-32.912749	0.000203	2.027255	0.686853	-0.000081
1256	1.2487e+02	-10.0008	-33.045975	0.000334	3.344971	1.133307	-0.000134
1257	1.2497e+02	-10.0345	-33.187274	0.000355	3.547696	1.201992	-0.000142
1258	1.2507e+02	-10.0858	-33.288203	0.000253	2.534069	0.858566	-0.000101
1259	1.2517e+02	-10.1131	-33.393168	0.000264	2.635431	0.892908	-0.000105
1260	1.2527e+02	-10.1564	-33.522357	0.000324	3.243608	1.098964	-0.000130
1261	1.2537e+02	-10.1901	-33.599062	0.000193	1.925892	0.652510	-0.000077
1262	1.2547e+02	-10.2366	-33.736325	0.000345	3.446333	1.167649	-0.000138
1263	1.2557e+02	-10.2687	-33.893773	0.000395	3.953147	1.339363	-0.000158
1264	1.2567e+02	-10.3168	-33.970479	0.000193	1.925892	0.652510	-0.000077
1265	1.2577e+02	-10.3585	-34.075444	0.000264	2.635431	0.892908	-0.000105
1266	1.2587e+02	-10.3970	-34.196558	0.000304	3.040882	1.030279	-0.000122
1267	1.2597e+02	-10.4420	-34.333821	0.000345	3.446333	1.167649	-0.000138
1268	1.2607e+02	-10.4708	-34.422638	0.000223	2.229980	0.755538	-0.000089
1269	1.2617e+02	-10.5125	-34.567975	0.000365	3.649059	1.236335	-0.000146
1270	1.2627e+02	-10.5575	-34.668903	0.000253	2.534069	0.858566	-0.000101
1271	1.2636e+02	-10.5976	-34.777906	0.000274	2.736794	0.927251	-0.000110
1272	1.2646e+02	-10.6361	-34.915168	0.000345	3.446333	1.167649	-0.000138
1273	1.2656e+02	-10.6826	-34.983800	0.000172	1.723167	0.583825	-0.000069
1274	1.2666e+02	-10.7211	-35.145285	0.000405	4.054510	1.373705	-0.000162
1275	1.2676e+02	-10.7564	-35.205842	0.000152	1.520441	0.515139	-0.000061
1276	1.2686e+02	-10.7949	-35.322919	0.000294	2.939520	0.995936	-0.000118
1277	1.2696e+02	-10.8350	-35.431922	0.000274	2.736794	0.927251	-0.000110
1278	1.2706e+02	-10.8719	-35.565147	0.000334	3.344971	1.133307	-0.000134
1279	1.2716e+02	-10.9072	-35.658001	0.000233	2.331343	0.789880	-0.000093
1280	1.2726e+02	-10.9521	-35.815450	0.000395	3.953147	1.339363	-0.000158
1281	1.2736e+02	-10.9906	-35.932527	0.000294	2.939520	0.995936	-0.000118
1282	1.2746e+02	-11.0323	-36.041529	0.000274	2.736794	0.927251	-0.000110
1283	1.2756e+02	-11.0724	-36.162643	0.000304	3.040882	1.030279	-0.000122
1284	1.2766e+02	-11.1093	-36.259535	0.000243	2.432706	0.824223	-0.000097
1285	1.2776e+02	-11.1526	-36.348352	0.000223	2.229980	0.755538	-0.000089
1286	1.2786e+02	-11.1943	-36.473503	0.000314	3.142245	1.064621	-0.000126
1287	1.2796e+02	-11.2296	-36.618840	0.000365	3.649059	1.236335	-0.000146
1288	1.2806e+02	-11.2681	-36.703620	0.000213	2.128618	0.721195	-0.000085
1289	1.2816e+02	-11.3195	-36.852994	0.000375	3.750422	1.270677	-0.000150
1290	1.2826e+02	-11.3580	-36.933736	0.000203	2.027255	0.686853	-0.000081
1291	1.2835e+02	-11.3965	-37.095222	0.000405	4.054510	1.373705	-0.000162
1292	1.2845e+02	-11.4237	-37.135593	0.000101	1.013627	0.343426	-0.000041
1293	1.2855e+02	-11.4719	-37.252670	0.000294	2.939520	0.995936	-0.000118
1294	1.2865e+02	-11.5072	-37.365710	0.000284	2.838157	0.961594	-0.000114
1295	1.2875e+02	-11.5489	-37.490861	0.000314	3.142245	1.064621	-0.000126
1296	1.2885e+02	-11.5810	-37.652346	0.000405	4.054510	1.373705	-0.000162
1297	1.2895e+02	-11.6323	-37.749238	0.000243	2.432706	0.824223	-0.000097
1298	1.2905e+02	-11.6676	-37.838055	0.000223	2.229980	0.755538	-0.000089
1299	1.2915e+02	-11.7045	-37.951095	0.000284	2.838157	0.961594	-0.000114
1300	1.2925e+02	-11.7542	-38.088357	0.000345	3.446333	1.167649	-0.000138
1301	1.2935e+02	-11.7943	-38.173137	0.000213	2.128618	0.721195	-0.000085
1302	1.2945e+02	-11.8376	-38.290214	0.000294	2.939520	0.995936	-0.000118
1303	1.2955e+02	-11.8681	-38.403254	0.000284	2.838157	0.961594	-0.000114
1304	1.2965e+02	-11.9050	-38.544553	0.000355	3.547696	1.201992	-0.000142
1305	1.2975e+02	-11.9531	-38.629333	0.000213	2.128618	0.721195	-0.000085
1306	1.2985e+02	-11.9900	-38.754485	0.000314	3.142245	1.064621	-0.000126
1307	1.2995e+02	-12.0253	-38.839264	0.000213	2.128618	0.721195	-0.000085
1308	1.3005e+02	-12.0719	-38.940193	0.000253	2.534069	0.858566	-0.000101
1309	1.3015e+02	-12.1120	-39.057270	0.000294	2.939520	0.995936	-0.000118
1310	1.3025e+02	-12.1473	-39.214718	0.000395	3.953147	1.339363	-0.000158
1311	1.3034e+02	-12.1906	-39.323721	0.000274	2.736794	0.927251	-0.000110
1312	1.3044e+02	-12.2355	-39.384278	0.000152	1.520441	0.515139	-0.000061
1313	1.3054e+02	-12.2676	-39.505392	0.000304	3.040882	1.030279	-0.000122
1314	1.3064e+02	-12.2997	-39.614394	0.000274	2.736794	0.927251	-0.000110
1315	1.3074e+02	-12.3510	-39.735509	0.000304	3.040882	1.030279	-0.000122
1316	1.3084e+02	-12.3831	-39.860660	0.000314	3.142245	1.064621	-0.000126
1317	1.3094e+02	-12.4280	-39.953514	0.000233	2.331343	0.789880	-0.000093
1318	1.3104e+02	-12.4729	-40.086739	0.000334	3.344971	1.133307	-0.000134
1319	1.3114e+02	-12.5082	-40.211891	0.000314	3.142245	1.064621	-0.000126
1320	1.3124e+02	-12.5531	-40.300708	0.000223	2.229980	0.755538	-0.000089
1321	1.3134e+02	-12.5884	-40.421822	0.000304	3.040882	1.030279	-0.000122
1322	1.3144e+02	-12.6269	-40.510639	0.000223	2.229980	0.755538	-0.000089
1323	1.3154e+02	-12.6622	-40.651938	0.000355	3.547696	1.201992	-0.000142
1324	1.3164e+02	-12.7007	-40.716532	0.000162	1.621804	0.549482	-0.000065
1325	1.3174e+02	-12.7472	-40.829572	0.000284	2.838157	0.961594	-0.000114
1326	1.3184e+02	-12.7905	-40.930501	0.000253	2.534069	0.858566	-0.000101
1327	1.3194e+02	-12.8226	-41.051615	0.000304	3.040882	1.030279	-0.000122
1328	1.3204e+02	-12.8627	-41.184840	0.000334	3.344971	1.133307	-0.000134
1329	1.3214e+02	-12.9044	-41.297880	0.000284	2.838157	0.961594	-0.000114
1330	1.3224e+02	-12.9446	-41.386697	0.000223	2.229980	0.755538	-0.000089
1331	1.3234e+02	-12.9831	-41.459365	0.000182	1.824529	0.618167	-0.000073
1332	1.3243e+02	-13.0216	-41.608739	0.000375	3.750422	1.270677	-0.000150
1333	1.3253e+02	-13.0681	-41.685445	0.000193	1.925892	0.652510	-0.000077
1334	1.3263e+02	-13.1002	-41.806559	0.000304	3.040882	1.030279	-0.000122
1335	1.3273e+02	-13.1403	-41.919599	0.000284	2.838157	0.961594	-0.000114
1336	1.3283e+02	-13.1740	-41.992267	0.000182	1.824529	0.618167	-0.000073
1337	1.3293e+02	-13.2349	-42.117419	0.000314	3.142245	1.064621	-0.000126
1338	1.3303e+02	-13.2638	-42.226421	0.000274	2.736794	0.927251	-0.000110
1339	1.3313e+02	-13.3007	-42.315238	0.000223	2.229980	0.755538	-0.000089
1340	1.3323e+02	-13.3376	-42.436352	0.000304	3.040882	1.030279	-0.000122
1341	1.3333e+02	-13.3857	-42.517095	0.000203	2.027255	0.686853	-0.000081
1342	1.3343e+02	-13.4210	-42.634172	0.000294	2.939520	0.995936	-0.000118
1343	1.3353e+02	-13.4675	-42.751249	0.000294	2.939520	0.995936	-0.000118
1344	1.3363e+02	-13.5012	-42.827954	0.000193	1.925892	0.652510	-0.000077
1345	1.3373e+02	-13.5445	-42.928883	0.000253	2.534069	0.858566	-0.000101
1346	1.3383e+02	-13.5734	-43.058071	0.000324	3.243608	1.098964	-0.000130
1347	1.3393e+02	-13.6199	-43.126703	0.000172	1.723167	0.583825	-0.000069
1348	1.3403e+02	-13.6616	-43.251854	0.000314	3.142245	1.064621	-0.000126
1349	1.3413e+02	-13.7050	-43.360856	0.000274	2.736794	0.927251	-0.000110
1350	1.3423e+02	-13.7435	-43.477933	0.000294	2.939520	0.995936	-0.000118
1351	1.3432e+02	-13.7820	-43.595010	0.000294	2.939520	0.995936	-0.000118
1352	1.3442e+02	-13.8301	-43.651530	0.000142	1.419078	0.480797	-0.000057
1353	1.3452e+02	-13.8622	-43.752459	0.000253	2.534069	0.858566	-0.000101
1354	1.3462e+02	-13.9023	-43.873573	0.000304	3.040882	1.030279	-0.000122
1355	1.3472e+02	-13.9392	-43.958352	0.000213	2.128618	0.721195	-0.000085
1356	1.3482e+02	-13.9841	-44.087541	0.000324	3.243608	1.098964	-0.000130
1357	1.3492e+02	-14.0210	-44.160209	0.000182	1.824529	0.618167	-0.000073
1358	1.3502e+02	-14.0499	-44.289398	0.000324	3.243608	1.098964	-0.000130
1359	1.3512e+02	-14.1076	-44.414549	0.000314	3.142245	1.064621	-0.000126
1360	1.3522e+02	-14.1349	-44.462994	0.000122	1.216353	0.412112	-0.000049
1361	1.3532e+02	-14.1766	-44.588146	0.000314	3.142245	1.064621	-0.000126
1362	1.3542e+02	-14.2215	-44.660814	0.000182	1.824529	0.618167	-0.000073
1363	1.3552e+02	-14.2616	-44.826337	0.000416	4.155873	1.408048	-0.000166
1364	1.3562e+02	-14.2921	-44.858634	0.000081	0.810902	0.274741	-0.000032
1365	1.3572e+02	-14.3402	-44.975711	0.000294	2.939520	0.995936	-0.000118
1366	1.3582e+02	-14.3803	-45.060491	0.000213	2.128618	0.721195	-0.000085
1367	1.3592e+02	-14.4172	-45.221976	0.000405	4.054510	1.373705	-0.000162
1368	1.3602e+02	-14.4606	-45.282533	0.000152	1.520441	0.515139	-0.000061
1369	1.3612e+02	-14.5023	-45.395573	0.000284	2.838157	0.961594	-0.000114
1370	1.3622e+02	-14.5392	-45.472278	0.000193	1.925892	0.652510	-0.000077
1371	1.3631e+02	-14.5777	-45.577244	0.000264	2.635431	0.892908	-0.000105
1372	1.3641e+02	-14.6162	-45.710469	0.000334	3.344971	1.133307	-0.000134
1373	1.3651e+02	-14.6466	-45.791212	0.000203	2.027255	0.686853	-0.000081
1374	1.3661e+02	-14.6964	-45.904252	0.000284	2.838157	0.961594	-0.000114
1375	1.3671e+02	-14.7349	-45.989032	0.000213	2.128618	0.721195	-0.000085
1376	1.3681e+02	-14.7750	-46.081886	0.000233	2.331343	0.789880	-0.000093
1377	1.3691e+02	-14.8215	-46.211074	0.000324	3.243608	1.098964	-0.000130
1378	1.3701e+02	-14.8552	-46.307965	0.000243	2.432706	0.824223	-0.000097
1379	1.3711e+02	-14.8985	-46.429080	0.000304	3.040882	1.030279	-0.000122
1380	1.3721e+02	-14.9354	-46.493674	0.000162	1.621804	0.549482	-0.000065
1381	1.3731e+02	-14.9819	-46.574416	0.000203	2.027255	0.686853	-0.000081
1382	1.3741e+02	-15.0268	-46.699568	0.000314	3.142245	1.064621	-0.000126
1383	1.3751e+02	-15.0557	-46.808570	0.000274	2.736794	0.927251	-0.000110
1384	1.3761e+02	-15.0990	-46.897387	0.000223	2.229980	0.755538	-0.000089
1385	1.3771e+02	-15.1343	-46.974093	0.000193	1.925892	0.652510	-0.000077
1386	1.3781e+02	-15.1776	-47.115393	0.000355	3.547696	1.201992	-0.000142
1387	1.3791e+02	-15.2194	-47.220358	0.000264	2.635431	0.892908	-0.000105
1388	1.3801e+02	-15.2563	-47.305138	0.000213	2.128618	0.721195	-0.000085
1389	1.3811e+02	-15.2996	-47.381844	0.000193	1.925892	0.652510	-0.000077
1390	1.3821e+02	-15.3333	-47.482772	0.000253	2.534069	0.858566	-0.000101
1391	1.3831e+02	-15.3782	-47.551403	0.000172	1.723167	0.583825	-0.000069
1392	1.3840e+02	-15.4151	-47.652332	0.000253	2.534069	0.858566	-0.000101
1393	1.3850e+02	-15.4520	-47.773446	0.000304	3.040882	1.030279	-0.000122
1394	1.3860e+02	-15.4969	-47.898597	0.000314	3.142245	1.064621	-0.000126
1395	1.3870e+02	-15.5338	-47.975303	0.000193	1.925892	0.652510	-0.000077
1396	1.3880e+02	-15.5755	-48.100454	0.000314	3.142245	1.064621	-0.000126
1397	1.3890e+02	-15.6108	-48.205419	0.000264	2.635431	0.892908	-0.000105
1398	1.3900e+02	-15.6509	-48.310385	0.000264	2.635431	0.892908	-0.000105
1399	1.3910e+02	-15.6910	-48.366905	0.000142	1.419078	0.480797	-0.000057
1400	1.3920e+02	-15.7295	-48.451685	0.000213	2.128618	0.721195	-0.000085
1401	1.3930e+02	-15.7776	-48.532427	0.000203	2.027255	0.686853	-0.000081
1402	1.3940e+02	-15.8145	-48.681801	0.000375	3.750422	1.270677	-0.000150
1403	1.3950e+02	-15.8643	-48.778693	0.000243	2.432706	0.824223	-0.000097
1404	1.3960e+02	-15.8931	-48.839250	0.000152	1.520441	0.515139	-0.000061
1405	1.3970e+02	-15.9364	-48.956327	0.000294	2.939520	0.995936	-0.000118
1406	1.3980e+02	-15.9685	-49.057255	0.000253	2.534069	0.858566	-0.000101
1407	1.3990e+02	-16.0247	-49.178369	0.000304	3.040882	1.030279	-0.000122
1408	1.4000e+02	-16.0568	-49.247000	0.000172	1.723167	0.583825	-0.000069
1409	1.4010e+02	-16.0937	-49.396374	0.000375	3.750422	1.270677	-0.000150
1410	1.4020e+02	-16.1370	-49.452894	0.000142	1.419078	0.480797	-0.000057
1411	1.4029e+02	-16.1739	-49.586120	0.000334	3.344971	1.133307	-0.000134
1412	1.4039e+02	-16.2092	-49.703197	0.000294	2.939520	0.995936	-0.000118
1413	1.4049e+02	-16.2509	-49.800088	0.000243	2.432706	0.824223	-0.000097
1414	1.4059e+02	-16.2910	-49.864682	0.000162	1.621804	0.549482	-0.000065
1415	1.4069e+02	-16.3359	-49.985796	0.000304	3.040882	1.030279	-0.000122
1416	1.4079e+02	-16.3680	-50.094799	0.000274	2.736794	0.927251	-0.000110
1417	1.4089e+02	-16.4129	-50.195727	0.000253	2.534069	0.858566	-0.000101
1418	1.4099e+02	-16.4578	-50.300693	0.000264	2.635431	0.892908	-0.000105
1419	1.4109e+02	-16.4835	-50.405658	0.000264	2.635431	0.892908	-0.000105
1420	1.4119e+02	-16.5316	-50.502550	0.000243	2.432706	0.824223	-0.000097
1421	1.4129e+02	-16.5733	-50.627701	0.000314	3.142245	1.064621	-0.000126
1422	1.4139e+02	-16.6134	-50.708443	0.000203	2.027255	0.686853	-0.000081
1423	1.4149e+02	-16.6551	-50.829558	0.000304	3.040882	1.030279	-0.000122
1424	1.4159e+02	-16.6920	-50.898189	0.000172	1.723167	0.583825	-0.000069
1425	1.4169e+02	-16.7257	-50.982969	0.000213	2.128618	0.721195	-0.000085
1426	1.4179e+02	-16.7658	-51.128306	0.000365	3.649059	1.236335	-0.000146
1427	1.4189e+02	-16.8172	-51.237308	0.000274	2.736794	0.927251	-0.000110
1428	1.4199e+02	-16.8460	-51.346311	0.000274	2.736794	0.927251	-0.000110
1429	1.4209e+02	-16.8878	-51.398794	0.000132	1.317716	0.446454	-0.000053
1430	1.4219e+02	-16.9327	-51.548168	0.000375	3.750422	1.270677	-0.000150
1431	1.4228e+02	-16.9696	-51.616799	0.000172	1.723167	0.583825	-0.000069
1432	1.4238e+02	-17.0081	-51.750024	0.000334	3.344971	1.133307	-0.000134
1433	1.4248e+02	-17.0482	-51.842879	0.000233	2.331343	0.789880	-0.000093
1434	1.4258e+02	-17.0867	-51.972067	0.000324	3.243608	1.098964	-0.000130
1435	1.4268e+02	-17.1332	-52.064921	0.000233	2.331343	0.789880	-0.000093
1436	1.4278e+02	-17.1637	-52.161812	0.000243	2.432706	0.824223	-0.000097
1437	1.4288e+02	-17.2006	-52.234481	0.000182	1.824529	0.618167	-0.000073
1438	1.4298e+02	-17.2439	-52.355595	0.000304	3.040882	1.030279	-0.000122
1439	1.4308e+02	-17.2840	-52.472672	0.000294	2.939520	0.995936	-0.000118
1440	1.4318e+02	-17.3305	-52.565526	0.000233	2.331343	0.789880	-0.000093
1441	1.4328e+02	-17.3578	-52.650306	0.000213	2.128618	0.721195	-0.000085
1442	1.4338e+02	-17.4107	-52.815828	0.000416	4.155873	1.408048	-0.000166
1443	1.4348e+02	-17.4460	-52.908682	0.000233	2.331343	0.789880	-0.000093
1444	1.4358e+02	-17.4942	-53.045945	0.000345	3.446333	1.167649	-0.000138
1445	1.4368e+02	-17.5262	-53.138799	0.000233	2.331343	0.789880	-0.000093
1446	1.4378e+02	-17.5647	-53.207430	0.000172	1.723167	0.583825	-0.000069
1447	1.4388e+02	-17.6081	-53.296247	0.000223	2.229980	0.755538	-0.000089
1448	1.4398e+02	-17.6434	-53.425436	0.000324	3.243608	1.098964	-0.000130
1449	1.4408e+02	-17.6899	-53.554624	0.000324	3.243608	1.098964	-0.000130
1450	1.4418e+02	-17.7284	-53.643441	0.000223	2.229980	0.755538	-0.000089
1451	1.4428e+02	-17.7717	-53.732258	0.000223	2.229980	0.755538	-0.000089
1452	1.4437e+02	-17.8102	-53.853372	0.000304	3.040882	1.030279	-0.000122
1453	1.4447e+02	-17.8391	-53.950263	0.000243	2.432706	0.824223	-0.000097
1454	1.4457e+02	-17.8840	-54.091563	0.000355	3.547696	1.201992	-0.000142
1455	1.4467e+02	-17.9273	-54.196529	0.000264	2.635431	0.892908	-0.000105
1456	1.4477e+02	-17.9594	-54.289383	0.000233	2.331343	0.789880	-0.000093
1457	1.4487e+02	-18.0091	-54.394348	0.000264	2.635431	0.892908	-0.000105
1458	1.4497e+02	-18.0396	-54.487202	0.000233	2.331343	0.789880	-0.000093
1459	1.4507e+02	-18.0829	-54.567945	0.000203	2.027255	0.686853	-0.000081
1460	1.4517e+02	-18.1246	-54.709245	0.000355	3.547696	1.201992	-0.000142
1461	1.4527e+02	-18.1695	-54.834396	0.000314	3.142245	1.064621	-0.000126
1462	1.4537e+02	-18.2064	-54.971659	0.000345	3.446333	1.167649	-0.000138
1463	1.4547e+02	-18.2514	-55.036253	0.000162	1.621804	0.549482	-0.000065
1464	1.4557e+02	-18.2834	-55.141218	0.000264	2.635431	0.892908	-0.000105
1465	1.4567e+02	-18.3219	-55.274444	0.000334	3.344971	1.133307	-0.000134
1466	1.4577e+02	-18.3637	-55.403632	0.000324	3.243608	1.098964	-0.000130
1467	1.4587e+02	-18.4054	-55.496486	0.000233	2.331343	0.789880	-0.000093
1468	1.4597e+02	-18.4503	-55.605489	0.000274	2.736794	0.927251	-0.000110
1469	1.4607e+02	-18.4904	-55.754863	0.000375	3.750422	1.270677	-0.000150
1470	1.4617e+02	-18.5289	-55.835606	0.000203	2.027255	0.686853	-0.000081
1471	1.4626e+02	-18.5722	-55.952683	0.000294	2.939520	0.995936	-0.000118
1472	1.4636e+02	-18.6011	-56.061685	0.000274	2.736794	0.927251	-0.000110
1473	1.4646e+02	-18.6380	-56.126280	0.000162	1.621804	0.549482	-0.000065
1474	1.4656e+02	-18.6797	-56.299876	0.000436	4.358598	1.476733	-0.000174
1475	1.4666e+02	-18.7182	-56.380619	0.000203	2.027255	0.686853	-0.000081
1476	1.4676e+02	-18.7647	-56.505770	0.000314	3.142245	1.064621	-0.000126
1477	1.4686e+02	-18.8096	-56.606699	0.000253	2.534069	0.858566	-0.000101
1478	1.4696e+02	-18.8465	-56.747999	0.000355	3.547696	1.201992	-0.000142
1479	1.4706e+02	-18.8754	-56.852964	0.000264	2.635431	0.892908	-0.000105
1480	1.4716e+02	-18.9155	-56.966004	0.000284	2.838157	0.961594	-0.000114
1481	1.4726e+02	-18.9588	-57.054821	0.000223	2.229980	0.755538	-0.000089
1482	1.4736e+02	-19.0021	-57.208232	0.000385	3.851784	1.305020	-0.000154
1483	1.4746e+02	-19.0503	-57.268789	0.000152	1.520441	0.515139	-0.000061
1484	1.4756e+02	-19.0872	-57.426237	0.000395	3.953147	1.339363	-0.000158
1485	1.4766e+02	-19.1176	-57.543314	0.000294	2.939520	0.995936	-0.000118
1486	1.4776e+02	-19.1690	-57.615983	0.000182	1.824529	0.618167	-0.000073
1487	1.4786e+02	-19.1979	-57.781505	0.000416	4.155873	1.408048	-0.000166
1488	1.4796e+02	-19.2380	-57.882434	0.000253	2.534069	0.858566	-0.000101
1489	1.4806e+02	-19.2909	-58.043919	0.000405	4.054510	1.373705	-0.000162
1490	1.4816e+02	-19.3166	-58.120625	0.000193	1.925892	0.652510	-0.000077
1491	1.4825e+02	-19.3567	-58.205405	0.000213	2.128618	0.721195	-0.000085
1492	1.4835e+02	-19.3952	-58.350741	0.000365	3.649059	1.236335	-0.000146
1493	1.4845e+02	-19.4433	-58.463781	0.000284	2.838157	0.961594	-0.000114
1494	1.4855e+02	-19.4818	-58.564710	0.000253	2.534069	0.858566	-0.000101
1495	1.4865e+02	-19.5251	-58.701972	0.000345	3.446333	1.167649	-0.000138
1496	1.4875e+02	-19.5524	-58.815012	0.000284	2.838157	0.961594	-0.000114
1497	1.4885e+02	-19.5957	-58.915940	0.000253	2.534069	0.858566	-0.000101
1498	1.4895e+02	-19.6374	-59.012832	0.000243	2.432706	0.824223	-0.000097
1499	1.4905e+02	-19.6711	-59.093574	0.000203	2.027255	0.686853	-0.000081
1500	1.4915e+02	-19.7064	-59.307543	0.000537	5.372226	1.820159	-0.000215
1501	1.4925e+02	-19.7561	-59.392322	0.000213	2.128618	0.721195	-0.000085
1502	1.4935e+02	-19.7994	-59.501325	0.000274	2.736794	0.927251	-0.000110
1503	1.4945e+02	-19.8363	-59.614365	0.000284	2.838157	0.961594	-0.000114
1504	1.4955e+02	-19.8829	-59.743553	0.000324	3.243608	1.098964	-0.000130
1505	1.4965e+02	-19.9182	-59.852556	0.000274	2.736794	0.927251	-0.000110
1506	1.4975e+02	-19.9615	-59.985781	0.000334	3.344971	1.133307	-0.000134
1507	1.4985e+02	-19.9919	-60.135155	0.000375	3.750422	1.270677	-0.000150
1508	1.4995e+02	-19.9583	-60.074598	0.000152	1.520441	0.515139	0.000061
1509	1.5005e+02	-19.9069	-60.026153	0.000122	1.216353	0.412112	0.000049
1510	1.5015e+02	-19.8748	-60.005967	0.000051	0.506814	0.171713	0.000020
1511	1.5025e+02	-19.8331	-59.917150	0.000223	2.229980	0.755538	0.000089
1512	1.5034e+02	-19.7946	-59.892927	0.000061	0.608176	0.206056	0.000024
1513	1.5044e+02	-19.7561	-59.832370	0.000152	1.520441	0.515139	0.000061
1514	1.5054e+02	-19.7144	-59.755665	0.000193	1.925892	0.652510	0.000077
1515	1.5064e+02	-19.6775	-59.727405	0.000071	0.709539	0.240398	0.000028
1516	1.5074e+02	-19.6326	-59.687033	0.000101	1.013627	0.343426	0.000041
1517	1.5084e+02	-19.5989	-59.622439	0.000162	1.621804	0.549482	0.000065
1518	1.5094e+02	-19.5588	-59.573994	0.000122	1.216353	0.412112	0.000049
1519	1.5104e+02	-19.5171	-59.549771	0.000061	0.608176	0.206056	0.000024
1520	1.5114e+02	-19.4770	-59.493251	0.000142	1.419078	0.480797	0.000057
1521	1.5124e+02	-19.4449	-59.420582	0.000182	1.824529	0.618167	0.000073
1522	1.5134e+02	-19.4032	-59.388285	0.000081	0.810902	0.274741	0.000032
1523	1.5144e+02	-19.3551	-59.307543	0.000203	2.027255	0.686853	0.000081
1524	1.5154e+02	-19.3294	-59.259097	0.000122	1.216353	0.412112	0.000049
1525	1.5164e+02	-19.2781	-59.230837	0.000071	0.709539	0.240398	0.000028
1526	1.5174e+02	-19.2428	-59.125871	0.000264	2.635431	0.892908	0.000105
1527	1.5184e+02	-19.1995	-59.065314	0.000152	1.520441	0.515139	0.000061
1528	1.5194e+02	-19.1561	-58.996683	0.000172	1.723167	0.583825	0.000069
1529	1.5204e+02	-19.1209	-58.960349	0.000091	0.912265	0.309084	0.000037
1530	1.5214e+02	-19.0727	-58.891718	0.000172	1.723167	0.583825	0.000069
1531	1.5224e+02	-19.0406	-58.823086	0.000172	1.723167	0.583825	0.000069
1532	1.5233e+02	-19.0037	-58.754455	0.000172	1.723167	0.583825	0.000069
1533	1.5243e+02	-18.9636	-58.689861	0.000162	1.621804	0.549482	0.000065
1534	1.5253e+02	-18.9187	-58.645452	0.000111	1.114990	0.377769	0.000045
1535	1.5263e+02	-18.8850	-58.568747	0.000193	1.925892	0.652510	0.000077
1536	1.5273e+02	-18.8449	-58.504153	0.000162	1.621804	0.549482	0.000065
1537	1.5283e+02	-18.8064	-58.467818	0.000091	0.912265	0.309084	0.000037
1538	1.5293e+02	-18.7599	-58.391113	0.000193	1.925892	0.652510	0.000077
1539	1.5303e+02	-18.7246	-58.286147	0.000264	2.635431	0.892908	0.000105
1540	1.5313e+02	-18.6845	-58.209442	0.000193	1.925892	0.652510	0.000077
1541	1.5323e+02	-18.6380	-58.156959	0.000132	1.317716	0.446454	0.000053
1542	1.5333e+02	-18.6075	-58.104476	0.000132	1.317716	0.446454	0.000053
1543	1.5343e+02	-18.5610	-58.027771	0.000193	1.925892	0.652510	0.000077
1544	1.5353e+02	-18.5225	-57.979325	0.000122	1.216353	0.412112	0.000049
1545	1.5363e+02	-18.4872	-57.890508	0.000223	2.229980	0.755538	0.000089
1546	1.5373e+02	-18.4471	-57.785542	0.000264	2.635431	0.892908	0.000105
1547	1.5383e+02	-18.4006	-57.757282	0.000071	0.709539	0.240398	0.000028
1548	1.5393e+02	-18.3620	-57.696725	0.000152	1.520441	0.515139	0.000061
1549	1.5403e+02	-18.3284	-57.632131	0.000162	1.621804	0.549482	0.000065
1550	1.5413e+02	-18.2834	-57.539277	0.000233	2.331343	0.789880	0.000093
1551	1.5422e+02	-18.2449	-57.458534	0.000203	2.027255	0.686853	0.000081
1552	1.5432e+02	-18.2096	-57.357606	0.000253	2.534069	0.858566	0.000101
1553	1.5442e+02	-18.1663	-57.321272	0.000091	0.912265	0.309084	0.000037
1554	1.5452e+02	-18.1118	-57.196121	0.000314	3.142245	1.064621	0.000126
1555	1.5462e+02	-18.0909	-57.131526	0.000162	1.621804	0.549482	0.000065
1556	1.5472e+02	-18.0428	-57.054821	0.000193	1.925892	0.652510	0.000077
1557	1.5482e+02	-18.0059	-56.986190	0.000172	1.723167	0.583825	0.000069
1558	1.5492e+02	-17.9722	-56.889298	0.000243	2.432706	0.824223	0.000097
1559	1.5502e+02	-17.9305	-56.812593	0.000193	1.925892	0.652510	0.000077
1560	1.5512e+02	-17.8776	-56.752036	0.000152	1.520441	0.515139	0.000061
1561	1.5522e+02	-17.8519	-56.683404	0.000172	1.723167	0.583825	0.000069
1562	1.5532e+02	-17.8086	-56.610736	0.000182	1.824529	0.618167	0.000073
1563	1.5542e+02	-17.7669	-56.546142	0.000162	1.621804	0.549482	0.000065
1564	1.5552e+02	-17.7268	-56.457325	0.000223	2.229980	0.755538	0.000089
1565	1.5562e+02	-17.6899	-56.400805	0.000142	1.419078	0.480797	0.000057
1566	1.5572e+02	-17.6482	-56.263542	0.000345	3.446333	1.167649	0.000138
1567	1.5582e+02	-17.6081	-56.207022	0.000142	1.419078	0.480797	0.000057
1568	1.5592e+02	-17.5696	-56.182799	0.000061	0.608176	0.206056	0.000024
1569	1.5602e+02	-17.5182	-56.065723	0.000294	2.939520	0.995936	0.000118
1570	1.5612e+02	-17.4877	-55.984980	0.000203	2.027255	0.686853	0.000081
1571	1.5622e+02	-17.4492	-55.916349	0.000172	1.723167	0.583825	0.000069
1572	1.5631e+02	-17.4027	-55.867903	0.000122	1.216353	0.412112	0.000049
1573	1.5641e+02	-17.3642	-55.754863	0.000284	2.838157	0.961594	0.000114
1574	1.5651e+02	-17.3369	-55.653935	0.000253	2.534069	0.858566	0.000101
1575	1.5661e+02	-17.2824	-55.605489	0.000122	1.216353	0.412112	0.000049
1576	1.5671e+02	-17.2423	-55.512635	0.000233	2.331343	0.789880	0.000093
1577	1.5681e+02	-17.2102	-55.415744	0.000243	2.432706	0.824223	0.000097
1578	1.5691e+02	-17.1749	-55.403632	0.000030	0.304088	0.103028	0.000012
1579	1.5701e+02	-17.1268	-55.302704	0.000253	2.534069	0.858566	0.000101
1580	1.5711e+02	-17.0867	-55.221961	0.000203	2.027255	0.686853	0.000081
1581	1.5721e+02	-17.0514	-55.157367	0.000162	1.621804	0.549482	0.000065
1582	1.5731e+02	-17.0129	-55.052401	0.000264	2.635431	0.892908	0.000105
1583	1.5741e+02	-16.9664	-55.012030	0.000101	1.013627	0.343426	0.000041
1584	1.5751e+02	-16.9391	-54.907065	0.000264	2.635431	0.892908	0.000105
1585	1.5761e+02	-16.8862	-54.846508	0.000152	1.520441	0.515139	0.000061
1586	1.5771e+02	-16.8493	-54.741542	0.000264	2.635431	0.892908	0.000105
1587	1.5781e+02	-16.8092	-54.680985	0.000152	1.520441	0.515139	0.000061
1588	1.5791e+02	-16.7674	-54.547760	0.000334	3.344971	1.133307	0.000134
1589	1.5801e+02	-16.7273	-54.511425	0.000091	0.912265	0.309084	0.000037
1590	1.5811e+02	-16.6840	-54.406460	0.000264	2.635431	0.892908	0.000105
1591	1.5821e+02	-16.6375	-54.362051	0.000111	1.114990	0.377769	0.000045
1592	1.5830e+02	-16.6054	-54.285346	0.000193	1.925892	0.652510	0.000077
1593	1.5840e+02	-16.5701	-54.224789	0.000152	1.520441	0.515139	0.000061
1594	1.5850e+02	-16.5332	-54.164232	0.000152	1.520441	0.515139	0.000061
1595	1.5860e+02	-16.4899	-54.026969	0.000345	3.446333	1.167649	0.000138
1596	1.5870e+02	-16.4562	-53.946226	0.000203	2.027255	0.686853	0.000081
1597	1.5880e+02	-16.4081	-53.893744	0.000132	1.317716	0.446454	0.000053
1598	1.5890e+02	-16.3680	-53.841261	0.000132	1.317716	0.446454	0.000053
1599	1.5900e+02	-16.3375	-53.728221	0.000284	2.838157	0.961594	0.000114
1600	1.5910e+02	-16.2846	-53.687850	0.000101	1.013627	0.343426	0.000041
1601	1.5920e+02	-16.2557	-53.542513	0.000365	3.649059	1.236335	0.000146
1602	1.5930e+02	-16.2188	-53.461770	0.000203	2.027255	0.686853	0.000081
1603	1.5940e+02	-16.1787	-53.397176	0.000162	1.621804	0.549482	0.000065
1604	1.5950e+02	-16.1386	-53.332582	0.000162	1.621804	0.549482	0.000065
1605	1.5960e+02	-16.0969	-53.267987	0.000162	1.621804	0.549482	0.000065
1606	1.5970e+02	-16.0520	-53.150911	0.000294	2.939520	0.995936	0.000118
1607	1.5980e+02	-16.0215	-53.090354	0.000152	1.520441	0.515139	0.000061
1608	1.5990e+02	-15.9750	-52.993462	0.000243	2.432706	0.824223	0.000097
1609	1.6000e+02	-15.9381	-52.953091	0.000101	1.013627	0.343426	0.000041
1610	1.6010e+02	-15.8883	-52.844088	0.000274	2.736794	0.927251	0.000110
1611	1.6019e+02	-15.8530	-52.787568	0.000142	1.419078	0.480797	0.000057
1612	1.6029e+02	-15.8065	-52.674529	0.000284	2.838157	0.961594	0.000114
1613	1.6039e+02	-15.7776	-52.601860	0.000182	1.824529	0.618167	0.000073
1614	1.6049e+02	-15.7407	-52.509006	0.000233	2.331343	0.789880	0.000093
1615	1.6059e+02	-15.6958	-52.468635	0.000101	1.013627	0.343426	0.000041
1616	1.6069e+02	-15.6557	-52.355595	0.000284	2.838157	0.961594	0.000114
1617	1.6079e+02	-15.6092	-52.258704	0.000243	2.432706	0.824223	0.000097
1618	1.6089e+02	-15.5755	-52.202184	0.000142	1.419078	0.480797	0.000057
1619	1.6099e+02	-15.5402	-52.129515	0.000182	1.824529	0.618167	0.000073
1620	1.6109e+02	-15.4953	-52.048773	0.000203	2.027255	0.686853	0.000081
1621	1.6119e+02	-15.4584	-51.955918	0.000233	2.331343	0.789880	0.000093
1622	1.6129e+02	-15.4215	-51.842879	0.000284	2.838157	0.961594	0.000114
1623	1.6139e+02	-15.3750	-51.798470	0.000111	1.114990	0.377769	0.000045
1624	1.6149e+02	-15.3284	-51.677356	0.000304	3.040882	1.030279	0.000122
1625	1.6159e+02	-15.2948	-51.588539	0.000223	2.229980	0.755538	0.000089
1626	1.6169e+02	-15.2579	-51.499722	0.000223	2.229980	0.755538	0.000089
1627	1.6179e+02	-15.2178	-51.427054	0.000182	1.824529	0.618167	0.000073
1628	1.6189e+02	-15.1809	-51.354385	0.000182	1.824529	0.618167	0.000073
1629	1.6199e+02	-15.1391	-51.257494	0.000243	2.432706	0.824223	0.000097
1630	1.6209e+02	-15.1039	-51.184825	0.000182	1.824529	0.618167	0.000073
1631	1.6219e+02	-15.0525	-51.096008	0.000223	2.229980	0.755538	0.000089
1632	1.6228e+02	-15.0236	-51.019303	0.000193	1.925892	0.652510	0.000077
1633	1.6238e+02	-14.9659	-50.974894	0.000111	1.114990	0.377769	0.000045
1634	1.6248e+02	-14.9402	-50.869929	0.000264	2.635431	0.892908	0.000105
1635	1.6258e+02	-14.8905	-50.781112	0.000223	2.229980	0.755538	0.000089
1636	1.6268e+02	-14.8584	-50.676146	0.000264	2.635431	0.892908	0.000105
1637	1.6278e+02	-14.8151	-50.611552	0.000162	1.621804	0.549482	0.000065
1638	1.6288e+02	-14.7670	-50.498512	0.000284	2.838157	0.961594	0.000114
1639	1.6298e+02	-14.7333	-50.421807	0.000193	1.925892	0.652510	0.000077
1640	1.6308e+02	-14.7044	-50.373361	0.000122	1.216353	0.412112	0.000049
1641	1.6318e+02	-14.6563	-50.252247	0.000304	3.040882	1.030279	0.000122
1642	1.6328e+02	-14.6210	-50.199764	0.000132	1.317716	0.446454	0.000053
1643	1.6338e+02	-14.5809	-50.131133	0.000172	1.723167	0.583825	0.000069
1644	1.6348e+02	-14.5456	-50.030205	0.000253	2.534069	0.858566	0.000101
1645	1.6358e+02	-14.5071	-49.937351	0.000233	2.331343	0.789880	0.000093
1646	1.6368e+02	-14.4541	-49.888905	0.000122	1.216353	0.412112	0.000049
1647	1.6378e+02	-14.4269	-49.792014	0.000243	2.432706	0.824223	0.000097
1648	1.6388e+02	-14.3771	-49.703197	0.000223	2.229980	0.755538	0.000089
1649	1.6398e+02	-14.3402	-49.622454	0.000203	2.027255	0.686853	0.000081
1650	1.6408e+02	-14.3017	-49.521526	0.000253	2.534069	0.858566	0.000101
1651	1.6418e+02	-14.2584	-49.436746	0.000213	2.128618	0.721195	0.000085
1652	1.6427e+02	-14.2103	-49.351966	0.000213	2.128618	0.721195	0.000085
1653	1.6437e+02	-14.1830	-49.295446	0.000142	1.419078	0.480797	0.000057
1654	1.6447e+02	-14.1365	-49.214703	0.000203	2.027255	0.686853	0.000081
1655	1.6457e+02	-14.0980	-49.077441	0.000345	3.446333	1.167649	0.000138
1656	1.6467e+02	-14.0531	-48.992661	0.000213	2.128618	0.721195	0.000085
1657	1.6477e+02	-14.0162	-48.924029	0.000172	1.723167	0.583825	0.000069
1658	1.6487e+02	-13.9857	-48.827138	0.000243	2.432706	0.824223	0.000097
1659	1.6497e+02	-13.9488	-48.794841	0.000081	0.810902	0.274741	0.000032
1660	1.6507e+02	-13.8975	-48.645467	0.000375	3.750422	1.270677	0.000150
1661	1.6517e+02	-13.8638	-48.548576	0.000243	2.432706	0.824223	0.000097
1662	1.6527e+02	-13.8173	-48.496093	0.000132	1.317716	0.446454	0.000053
1663	1.6537e+02	-13.7772	-48.379016	0.000294	2.939520	0.995936	0.000118
1664	1.6547e+02	-13.7386	-48.318459	0.000152	1.520441	0.515139	0.000061
1665	1.6557e+02	-13.7114	-48.205419	0.000284	2.838157	0.961594	0.000114
1666	1.6567e+02	-13.6552	-48.132751	0.000182	1.824529	0.618167	0.000073
1667	1.6577e+02	-13.6183	-48.027785	0.000264	2.635431	0.892908	0.000105
1668	1.6587e+02	-13.5846	-47.959154	0.000172	1.723167	0.583825	0.000069
1669	1.6597e+02	-13.5429	-47.813817	0.000365	3.649059	1.236335	0.000146
1670	1.6607e+02	-13.5092	-47.749223	0.000162	1.621804	0.549482	0.000065
1671	1.6616e+02	-13.4627	-47.668480	0.000203	2.027255	0.686853	0.000081
1672	1.6626e+02	-13.4242	-47.551403	0.000294	2.939520	0.995936	0.000118
1673	1.6636e+02	-13.3825	-47.482772	0.000172	1.723167	0.583825	0.000069
1674	1.6646e+02	-13.3392	-47.393955	0.000223	2.229980	0.755538	0.000089
1675	1.6656e+02	-13.3071	-47.288989	0.000264	2.635431	0.892908	0.000105
1676	1.6666e+02	-13.2718	-47.139615	0.000375	3.750422	1.270677	0.000150
1677	1.6676e+02	-13.2301	-47.127504	0.000030	0.304088	0.103028	0.000012
1678	1.6686e+02	-13.1836	-46.986204	0.000355	3.547696	1.201992	0.000142
1679	1.6696e+02	-13.1435	-46.913536	0.000182	1.824529	0.618167	0.000073
1680	1.6706e+02	-13.1034	-46.820682	0.000233	2.331343	0.789880	0.000093
1681	1.6716e+02	-13.0697	-46.735902	0.000213	2.128618	0.721195	0.000085
1682	1.6726e+02	-13.0312	-46.647085	0.000223	2.229980	0.755538	0.000089
1683	1.6736e+02	-12.9782	-46.558268	0.000223	2.229980	0.755538	0.000089
1684	1.6746e+02	-12.9413	-46.453302	0.000264	2.635431	0.892908	0.000105
1685	1.6756e+02	-12.9077	-46.336225	0.000294	2.939520	0.995936	0.000118
1686	1.6766e+02	-12.8627	-46.247408	0.000223	2.229980	0.755538	0.000089
1687	1.6776e+02	-12.8290	-46.174740	0.000182	1.824529	0.618167	0.000073
1688	1.6786e+02	-12.7938	-46.089960	0.000213	2.128618	0.721195	0.000085
1689	1.6796e+02	-12.7424	-46.013255	0.000193	1.925892	0.652510	0.000077
1690	1.6806e+02	-12.7071	-45.892141	0.000304	3.040882	1.030279	0.000122
1691	1.6816e+02	-12.6718	-45.799286	0.000233	2.331343	0.789880	0.000093
1692	1.6825e+02	-12.6269	-45.714507	0.000213	2.128618	0.721195	0.000085
1693	1.6835e+02	-12.5884	-45.621652	0.000233	2.331343	0.789880	0.000093
1694	1.6845e+02	-12.5483	-45.516687	0.000264	2.635431	0.892908	0.000105
1695	1.6855e+02	-12.5098	-45.399610	0.000294	2.939520	0.995936	0.000118
1696	1.6865e+02	-12.4681	-45.294644	0.000264	2.635431	0.892908	0.000105
1697	1.6875e+02	-12.4232	-45.217939	0.000193	1.925892	0.652510	0.000077
1698	1.6885e+02	-12.3991	-45.121048	0.000243	2.432706	0.824223	0.000097
1699	1.6895e+02	-12.3510	-45.012045	0.000274	2.736794	0.927251	0.000110
1700	1.6905e+02	-12.3061	-44.915154	0.000243	2.432706	0.824223	0.000097
1701	1.6915e+02	-12.2740	-44.818262	0.000243	2.432706	0.824223	0.000097
1702	1.6925e+02	-12.2259	-44.709260	0.000274	2.736794	0.927251	0.000110
1703	1.6935e+02	-12.1793	-44.628517	0.000203	2.027255	0.686853	0.000081
1704	1.6945e+02	-12.1440	-44.535663	0.000233	2.331343	0.789880	0.000093
1705	1.6955e+02	-12.1055	-44.426660	0.000274	2.736794	0.927251	0.000110
1706	1.6965e+02	-12.0686	-44.358029	0.000172	1.723167	0.583825	0.000069
1707	1.6975e+02	-12.0237	-44.212692	0.000365	3.649059	1.236335	0.000146
1708	1.6985e+02	-11.9916	-44.164246	0.000122	1.216353	0.412112	0.000049
1709	1.6995e+02	-11.9419	-44.051207	0.000284	2.838157	0.961594	0.000114
1710	1.7005e+02	-11.9130	-43.934130	0.000294	2.939520	0.995936	0.000118
1711	1.7015e+02	-11.8697	-43.869535	0.000162	1.621804	0.549482	0.000065
1712	1.7024e+02	-11.8264	-43.764570	0.000264	2.635431	0.892908	0.000105
1713	1.7034e+02	-11.7863	-43.627307	0.000345	3.446333	1.167649	0.000138
1714	1.7044e+02	-11.7478	-43.550602	0.000193	1.925892	0.652510	0.000077
1715	1.7054e+02	-11.7189	-43.461785	0.000223	2.229980	0.755538	0.000089
1716	1.7064e+02	-11.6676	-43.336634	0.000314	3.142245	1.064621	0.000126
1717	1.7074e+02	-11.6387	-43.247817	0.000223	2.229980	0.755538	0.000089
1718	1.7084e+02	-11.5922	-43.142851	0.000264	2.635431	0.892908	0.000105
1719	1.7094e+02	-11.5569	-43.058071	0.000213	2.128618	0.721195	0.000085
1720	1.7104e+02	-11.5088	-42.940994	0.000294	2.939520	0.995936	0.000118
1721	1.7114e+02	-11.4815	-42.848140	0.000233	2.331343	0.789880	0.000093
1722	1.7124e+02	-11.4302	-42.747212	0.000253	2.534069	0.858566	0.000101
1723	1.7134e+02	-11.3933	-42.634172	0.000284	2.838157	0.961594	0.000114
1724	1.7144e+02	-11.3548	-42.537281	0.000243	2.432706	0.824223	0.000097
1725	1.7154e+02	-11.3050	-42.432315	0.000264	2.635431	0.892908	0.000105
1726	1.7164e+02	-11.2794	-42.327350	0.000264	2.635431	0.892908	0.000105
1727	1.7174e+02	-11.2393	-42.246607	0.000203	2.027255	0.686853	0.000081
1728	1.7184e+02	-11.1911	-42.121456	0.000314	3.142245	1.064621	0.000126
1729	1.7194e+02	-11.1542	-42.004379	0.000294	2.939520	0.995936	0.000118
1730	1.7204e+02	-11.1109	-41.887302	0.000294	2.939520	0.995936	0.000118
1731	1.7213e+02	-11.0772	-41.798485	0.000223	2.229980	0.755538	0.000089
1732	1.7223e+02	-11.0371	-41.673334	0.000314	3.142245	1.064621	0.000126
1733	1.7233e+02	-10.9970	-41.588554	0.000213	2.128618	0.721195	0.000085
1734	1.7243e+02	-10.9569	-41.491663	0.000243	2.432706	0.824223	0.000097
1735	1.7253e+02	-10.9104	-41.346326	0.000365	3.649059	1.236335	0.000146
1736	1.7263e+02	-10.8719	-41.265583	0.000203	2.027255	0.686853	0.000081
1737	1.7273e+02	-10.8350	-41.160617	0.000264	2.635431	0.892908	0.000105
1738	1.7283e+02	-10.7885	-41.120246	0.000101	1.013627	0.343426	0.000041
1739	1.7293e+02	-10.7516	-40.954723	0.000416	4.155873	1.408048	0.000166
1740	1.7303e+02	-10.7147	-40.865907	0.000223	2.229980	0.755538	0.000089
1741	1.7313e+02	-10.6794	-40.777090	0.000223	2.229980	0.755538	0.000089
1742	1.7323e+02	-10.6377	-40.680198	0.000243	2.432706	0.824223	0.000097
1743	1.7333e+02	-10.5879	-40.563121	0.000294	2.939520	0.995936	0.000118
1744	1.7343e+02	-10.5671	-40.446044	0.000294	2.939520	0.995936	0.000118
1745	1.7353e+02	-10.5222	-40.349153	0.000243	2.432706	0.824223	0.000097
1746	1.7363e+02	-10.4772	-40.240150	0.000274	2.736794	0.927251	0.000110
1747	1.7373e+02	-10.4323	-40.127111	0.000284	2.838157	0.961594	0.000114
1748	1.7383e+02	-10.3906	-40.034257	0.000233	2.331343	0.789880	0.000093
1749	1.7393e+02	-10.3569	-39.965625	0.000172	1.723167	0.583825	0.000069
1750	1.7403e+02	-10.3184	-39.840474	0.000314	3.142245	1.064621	0.000126
1751	1.7413e+02	-10.2735	-39.727434	0.000284	2.838157	0.961594	0.000114
1752	1.7422e+02	-10.2286	-39.638617	0.000223	2.229980	0.755538	0.000089
1753	1.7432e+02	-10.2045	-39.541726	0.000243	2.432706	0.824223	0.000097
1754	1.7442e+02	-10.1628	-39.432723	0.000274	2.736794	0.927251	0.000110
1755	1.7452e+02	-10.1163	-39.315646	0.000294	2.939520	0.995936	0.000118
1756	1.7462e+02	-10.0682	-39.238941	0.000193	1.925892	0.652510	0.000077
1757	1.7472e+02	-10.0377	-39.101678	0.000345	3.446333	1.167649	0.000138
1758	1.7482e+02	-9.9944	-39.024973	0.000193	1.925892	0.652510	0.000077
1759	1.7492e+02	-9.9591	-38.887710	0.000345	3.446333	1.167649	0.000138
1760	1.7502e+02	-9.9126	-38.823116	0.000162	1.621804	0.549482	0.000065
1761	1.7512e+02	-9.8789	-38.693927	0.000324	3.243608	1.098964	0.000130
1762	1.7522e+02	-9.8388	-38.584925	0.000274	2.736794	0.927251	0.000110
1763	1.7532e+02	-9.8019	-38.500145	0.000213	2.128618	0.721195	0.000085
1764	1.7542e+02	-9.7585	-38.395179	0.000264	2.635431	0.892908	0.000105
1765	1.7552e+02	-9.7136	-38.282140	0.000284	2.838157	0.961594	0.000114
1766	1.7562e+02	-9.6799	-38.185248	0.000243	2.432706	0.824223	0.000097
1767	1.7572e+02	-9.6398	-38.108543	0.000193	1.925892	0.652510	0.000077
1768	1.7582e+02	-9.6078	-37.947057	0.000405	4.054510	1.373705	0.000162
1769	1.7592e+02	-9.5580	-37.886500	0.000152	1.520441	0.515139	0.000061
1770	1.7602e+02	-9.5211	-37.801720	0.000213	2.128618	0.721195	0.000085
1771	1.7612e+02	-9.4746	-37.660421	0.000355	3.547696	1.201992	0.000142
1772	1.7621e+02	-9.4377	-37.527195	0.000334	3.344971	1.133307	0.000134
1773	1.7631e+02	-9.4056	-37.454527	0.000182	1.824529	0.618167	0.000073
1774	1.7641e+02	-9.3575	-37.337450	0.000294	2.939520	0.995936	0.000118
1775	1.7651e+02	-9.3174	-37.200187	0.000345	3.446333	1.167649	0.000138
1776	1.7661e+02	-9.2789	-37.135593	0.000162	1.621804	0.549482	0.000065
1777	1.7671e+02	-9.2388	-37.026590	0.000274	2.736794	0.927251	0.000110
1778	1.7681e+02	-9.1987	-36.901439	0.000314	3.142245	1.064621	0.000126
1779	1.7691e+02	-9.1682	-36.828771	0.000182	1.824529	0.618167	0.000073
1780	1.7701e+02	-9.1169	-36.695545	0.000334	3.344971	1.133307	0.000134
1781	1.7711e+02	-9.0800	-36.574431	0.000304	3.040882	1.030279	0.000122
1782	1.7721e+02	-9.0431	-36.469466	0.000264	2.635431	0.892908	0.000105
1783	1.7731e+02	-9.0094	-36.392760	0.000193	1.925892	0.652510	0.000077
1784	1.7741e+02	-8.9628	-36.303943	0.000223	2.229980	0.755538	0.000089
1785	1.7751e+02	-8.9163	-36.154569	0.000375	3.750422	1.270677	0.000150
1786	1.7761e+02	-8.8810	-36.061715	0.000233	2.331343	0.789880	0.000093
1787	1.7771e+02	-8.8393	-35.940601	0.000304	3.040882	1.030279	0.000122
1788	1.7781e+02	-8.8024	-35.819487	0.000304	3.040882	1.030279	0.000122
1789	1.7791e+02	-8.7655	-35.767004	0.000132	1.317716	0.446454	0.000053
1790	1.7801e+02	-8.7174	-35.625704	0.000355	3.547696	1.201992	0.000142
1791	1.7810e+02	-8.6757	-35.553036	0.000182	1.824529	0.618167	0.000073
1792	1.7820e+02	-8.6420	-35.407699	0.000365	3.649059	1.236335	0.000146
1793	1.7830e+02	-8.6003	-35.310808	0.000243	2.432706	0.824223	0.000097
1794	1.7840e+02	-8.5666	-35.185657	0.000314	3.142245	1.064621	0.000126
1795	1.7850e+02	-8.5201	-35.108951	0.000193	1.925892	0.652510	0.000077
1796	1.7860e+02	-8.4928	-34.979763	0.000324	3.243608	1.098964	0.000130
1797	1.7870e+02	-8.4399	-34.842500	0.000345	3.446333	1.167649	0.000138
1798	1.7880e+02	-8.4046	-34.761757	0.000203	2.027255	0.686853	0.000081
1799	1.7890e+02	-8.3661	-34.681015	0.000203	2.027255	0.686853	0.000081
1800	1.7900e+02	-8.3292	-34.547789	0.000334	3.344971	1.133307	0.000134
1801	1.7910e+02	-8.2778	-34.454935	0.000233	2.331343	0.789880	0.000093
1802	1.7920e+02	-8.2442	-34.321709	0.000334	3.344971	1.133307	0.000134
1803	1.7930e+02	-8.2073	-34.216744	0.000264	2.635431	0.892908	0.000105
1804	1.7940e+02	-8.1671	-34.123890	0.000233	2.331343	0.789880	0.000093
1805	1.7950e+02	-8.1286	-34.014887	0.000274	2.736794	0.927251	0.000110
1806	1.7960e+02	-8.0853	-33.934144	0.000203	2.027255	0.686853	0.000081
1807	1.7970e+02	-8.0500	-33.817068	0.000294	2.939520	0.995936	0.000118
1808	1.7980e+02	-8.0131	-33.687879	0.000324	3.243608	1.098964	0.000130
1809	1.7990e+02	-7.9586	-33.578877	0.000274	2.736794	0.927251	0.000110
1810	1.8000e+02	-7.9265	-33.445651	0.000334	3.344971	1.133307	0.000134
1811	1.8009e+02	-7.8816	-33.344723	0.000253	2.534069	0.858566	0.000101
1812	1.8019e+02	-7.8479	-33.227646	0.000294	2.939520	0.995936	0.000118
1813	1.8029e+02	-7.8030	-33.118643	0.000274	2.736794	0.927251	0.000110
1814	1.8039e+02	-7.7613	-33.037900	0.000203	2.027255	0.686853	0.000081
1815	1.8049e+02	-7.7276	-32.912749	0.000314	3.142245	1.064621	0.000126
1816	1.8059e+02	-7.6971	-32.767412	0.000365	3.649059	1.236335	0.000146
1817	1.8069e+02	-7.6458	-32.727041	0.000101	1.013627	0.343426	0.000041
1818	1.8079e+02	-7.6089	-32.569593	0.000395	3.953147	1.339363	0.000158
1819	1.8089e+02	-7.5624	-32.496924	0.000182	1.824529	0.618167	0.000073
1820	1.8099e+02	-7.5319	-32.323327	0.000436	4.358598	1.476733	0.000174
1821	1.8109e+02	-7.4870	-32.226436	0.000243	2.432706	0.824223	0.000097
1822	1.8119e+02	-7.4404	-32.125508	0.000253	2.534069	0.858566	0.000101
1823	1.8129e+02	-7.4148	-32.004394	0.000304	3.040882	1.030279	0.000122
1824	1.8139e+02	-7.3747	-31.887317	0.000294	2.939520	0.995936	0.000118
1825	1.8149e+02	-7.3329	-31.774277	0.000284	2.838157	0.961594	0.000114
1826	1.8159e+02	-7.2832	-31.653163	0.000304	3.040882	1.030279	0.000122
1827	1.8169e+02	-7.2511	-31.572420	0.000203	2.027255	0.686853	0.000081
1828	1.8179e+02	-7.2142	-31.406897	0.000416	4.155873	1.408048	0.000166
1829	1.8189e+02	-7.1693	-31.326155	0.000203	2.027255	0.686853	0.000081
1830	1.8199e+02	-7.1324	-31.201004	0.000314	3.142245	1.064621	0.000126
1831	1.8209e+02	-7.0779	-31.071815	0.000324	3.243608	1.098964	0.000130
1832	1.8218e+02	-7.0522	-30.946664	0.000314	3.142245	1.064621	0.000126
1833	1.8228e+02	-7.0105	-30.837661	0.000274	2.736794	0.927251	0.000110
1834	1.8238e+02	-6.9624	-30.769030	0.000172	1.723167	0.583825	0.000069
1835	1.8248e+02	-6.9383	-30.615619	0.000385	3.851784	1.305020	0.000154
1836	1.8258e+02	-6.8870	-30.486431	0.000324	3.243608	1.098964	0.000130
1837	1.8268e+02	-6.8453	-30.333019	0.000385	3.851784	1.305020	0.000154
1838	1.8278e+02	-6.8148	-30.207868	0.000314	3.142245	1.064621	0.000126
1839	1.8288e+02	-6.7634	-30.127125	0.000203	2.027255	0.686853	0.000081
1840	1.8298e+02	-6.7378	-30.018123	0.000274	2.736794	0.927251	0.000110
1841	1.8308e+02	-6.6913	-29.888934	0.000324	3.243608	1.098964	0.000130
1842	1.8318e+02	-6.6479	-29.735523	0.000385	3.851784	1.305020	0.000154
1843	1.8328e+02	-6.6078	-29.626521	0.000274	2.736794	0.927251	0.000110
1844	1.8338e+02	-6.5741	-29.541741	0.000213	2.128618	0.721195	0.000085
1845	1.8348e+02	-6.5260	-29.416590	0.000314	3.142245	1.064621	0.000126
1846	1.8358e+02	-6.4923	-29.311624	0.000264	2.635431	0.892908	0.000105
1847	1.8368e+02	-6.4506	-29.133990	0.000446	4.459961	1.511076	0.000179
1848	1.8378e+02	-6.4137	-29.033062	0.000253	2.534069	0.858566	0.000101
1849	1.8388e+02	-6.3688	-28.911948	0.000304	3.040882	1.030279	0.000122
1850	1.8398e+02	-6.3351	-28.782759	0.000324	3.243608	1.098964	0.000130
1851	1.8407e+02	-6.3030	-28.669719	0.000284	2.838157	0.961594	0.000114
1852	1.8417e+02	-6.2597	-28.524383	0.000365	3.649059	1.236335	0.000146
1853	1.8427e+02	-6.2148	-28.411343	0.000284	2.838157	0.961594	0.000114
1854	1.8437e+02	-6.1763	-28.326563	0.000213	2.128618	0.721195	0.000085
1855	1.8447e+02	-6.1410	-28.193337	0.000334	3.344971	1.133307	0.000134
1856	1.8457e+02	-6.0945	-28.052038	0.000355	3.547696	1.201992	0.000142
1857	1.8467e+02	-6.0528	-27.938998	0.000284	2.838157	0.961594	0.000114
1858	1.8477e+02	-6.0223	-27.777512	0.000405	4.054510	1.373705	0.000162
1859	1.8487e+02	-5.9726	-27.656398	0.000304	3.040882	1.030279	0.000122
1860	1.8497e+02	-5.9308	-27.555470	0.000253	2.534069	0.858566	0.000101
1861	1.8507e+02	-5.8940	-27.458579	0.000243	2.432706	0.824223	0.000097
1862	1.8517e+02	-5.8506	-27.264796	0.000487	4.865412	1.648446	0.000195
1863	1.8527e+02	-5.8186	-27.159831	0.000264	2.635431	0.892908	0.000105
1864	1.8537e+02	-5.7688	-27.071014	0.000223	2.229980	0.755538	0.000089
1865	1.8547e+02	-5.7367	-26.929714	0.000355	3.547696	1.201992	0.000142
1866	1.8557e+02	-5.6966	-26.824748	0.000264	2.635431	0.892908	0.000105
1867	1.8567e+02	-5.6485	-26.707671	0.000294	2.939520	0.995936	0.000118
1868	1.8577e+02	-5.6180	-26.538112	0.000426	4.257235	1.442390	0.000170
1869	1.8587e+02	-5.5795	-26.421035	0.000294	2.939520	0.995936	0.000118
1870	1.8597e+02	-5.5410	-26.283772	0.000345	3.446333	1.167649	0.000138
1871	1.8606e+02	-5.4977	-26.158621	0.000314	3.142245	1.064621	0.000126
1872	1.8616e+02	-5.4624	-26.029433	0.000324	3.243608	1.098964	0.000130
1873	1.8626e+02	-5.4175	-25.924467	0.000264	2.635431	0.892908	0.000105
1874	1.8636e+02	-5.3854	-25.791242	0.000334	3.344971	1.133307	0.000134
1875	1.8646e+02	-5.3453	-25.645905	0.000365	3.649059	1.236335	0.000146
1876	1.8656e+02	-5.2940	-25.504605	0.000355	3.547696	1.201992	0.000142
1877	1.8666e+02	-5.2683	-25.347157	0.000395	3.953147	1.339363	0.000158
1878	1.8676e+02	-5.2122	-25.286600	0.000152	1.520441	0.515139	0.000061
1879	1.8686e+02	-5.1833	-25.121077	0.000416	4.155873	1.408048	0.000166
1880	1.8696e+02	-5.1448	-24.987852	0.000334	3.344971	1.133307	0.000134
1881	1.8706e+02	-5.1031	-24.886923	0.000253	2.534069	0.858566	0.000101
1882	1.8716e+02	-5.0598	-24.725438	0.000405	4.054510	1.373705	0.000162
1883	1.8726e+02	-5.0212	-24.567990	0.000395	3.953147	1.339363	0.000158
1884	1.8736e+02	-4.9747	-24.475135	0.000233	2.331343	0.789880	0.000093
1885	1.8746e+02	-4.9394	-24.325761	0.000375	3.750422	1.270677	0.000150
1886	1.8756e+02	-4.9041	-24.200610	0.000314	3.142245	1.064621	0.000126
1887	1.8766e+02	-4.8592	-24.059310	0.000355	3.547696	1.201992	0.000142
1888	1.8776e+02	-4.8207	-23.926085	0.000334	3.344971	1.133307	0.000134
1889	1.8786e+02	-4.7742	-23.776711	0.000375	3.750422	1.270677	0.000150
1890	1.8796e+02	-4.7437	-23.631374	0.000365	3.649059	1.236335	0.000146
1891	1.8806e+02	-4.6924	-23.510260	0.000304	3.040882	1.030279	0.000122
1892	1.8815e+02	-4.6587	-23.401257	0.000274	2.736794	0.927251	0.000110
1893	1.8825e+02	-4.6186	-23.263995	0.000345	3.446333	1.167649	0.000138
1894	1.8835e+02	-4.5849	-23.138843	0.000314	3.142245	1.064621	0.000126
1895	1.8845e+02	-4.5336	-22.977358	0.000405	4.054510	1.373705	0.000162
1896	1.8855e+02	-4.5063	-22.852207	0.000314	3.142245	1.064621	0.000126
1897	1.8865e+02	-4.4630	-22.727056	0.000314	3.142245	1.064621	0.000126
1898	1.8875e+02	-4.4181	-22.549422	0.000446	4.459961	1.511076	0.000179
1899	1.8885e+02	-4.3812	-22.448493	0.000253	2.534069	0.858566	0.000101
1900	1.8895e+02	-4.3427	-22.319305	0.000324	3.243608	1.098964	0.000130
1901	1.8905e+02	-4.2993	-22.165894	0.000385	3.851784	1.305020	0.000154
1902	1.8915e+02	-4.2673	-22.016520	0.000375	3.750422	1.270677	0.000150
1903	1.8925e+02	-4.2207	-21.887331	0.000324	3.243608	1.098964	0.000130
1904	1.8935e+02	-4.1854	-21.770254	0.000294	2.939520	0.995936	0.000118
1905	1.8945e+02	-4.1357	-21.620880	0.000375	3.750422	1.270677	0.000150
1906	1.8955e+02	-4.0956	-21.471506	0.000375	3.750422	1.270677	0.000150
1907	1.8965e+02	-4.0603	-21.354429	0.000294	2.939520	0.995936	0.000118
1908	1.8975e+02	-4.0250	-21.188907	0.000416	4.155873	1.408048	0.000166
1909	1.8985e+02	-3.9865	-21.079904	0.000274	2.736794	0.927251	0.000110
1910	1.8995e+02	-3.9432	-20.930530	0.000375	3.750422	1.270677	0.000150
1911	1.9004e+02	-3.8983	-20.781156	0.000375	3.750422	1.270677	0.000150
1912	1.9014e+02	-3.8566	-20.651968	0.000324	3.243608	1.098964	0.000130
1913	1.9024e+02	-3.8213	-20.494520	0.000395	3.953147	1.339363	0.000158
1914	1.9034e+02	-3.7844	-20.337071	0.000395	3.953147	1.339363	0.000158
1915	1.9044e+02	-3.7443	-20.203846	0.000334	3.344971	1.133307	0.000134
1916	1.9054e+02	-3.6978	-20.082732	0.000304	3.040882	1.030279	0.000122
1917	1.9064e+02	-3.6609	-19.973729	0.000274	2.736794	0.927251	0.000110
1918	1.9074e+02	-3.6272	-19.820318	0.000385	3.851784	1.305020	0.000154
1919	1.9084e+02	-3.5855	-19.687092	0.000334	3.344971	1.133307	0.000134
1920	1.9094e+02	-3.5405	-19.565978	0.000304	3.040882	1.030279	0.000122
1921	1.9104e+02	-3.5036	-19.412567	0.000385	3.851784	1.305020	0.000154
1922	1.9114e+02	-3.4635	-19.275305	0.000345	3.446333	1.167649	0.000138
1923	1.9124e+02	-3.4218	-19.129968	0.000365	3.649059	1.236335	0.000146
1924	1.9134e+02	-3.3817	-18.992705	0.000345	3.446333	1.167649	0.000138
1925	1.9144e+02	-3.3496	-18.827183	0.000416	4.155873	1.408048	0.000166
1926	1.9154e+02	-3.3127	-18.685883	0.000355	3.547696	1.201992	0.000142
1927	1.9164e+02	-3.2630	-18.576880	0.000274	2.736794	0.927251	0.000110
1928	1.9174e+02	-3.2229	-18.423469	0.000385	3.851784	1.305020	0.000154
1929	1.9184e+02	-3.2037	-18.290243	0.000334	3.344971	1.133307	0.000134
1930	1.9194e+02	-3.1411	-18.181241	0.000274	2.736794	0.927251	0.000110
1931	1.9203e+02	-3.1186	-18.027830	0.000385	3.851784	1.305020	0.000154
1932	1.9213e+02	-3.0609	-17.878456	0.000375	3.750422	1.270677	0.000150
1933	1.9223e+02	-3.0240	-17.753304	0.000314	3.142245	1.064621	0.000126
1934	1.9233e+02	-2.9823	-17.575670	0.000446	4.459961	1.511076	0.000179
1935	1.9243e+02	-2.9454	-17.410148	0.000416	4.155873	1.408048	0.000166
1936	1.9253e+02	-2.9037	-17.313257	0.000243	2.432706	0.824223	0.000097
1937	1.9263e+02	-2.8636	-17.167920	0.000365	3.649059	1.236335	0.000146
1938	1.9273e+02	-2.8218	-16.982211	0.000466	4.662686	1.579761	0.000187
1939	1.9283e+02	-2.7914	-16.865135	0.000294	2.939520	0.995936	0.000118
1940	1.9293e+02	-2.7497	-16.731909	0.000334	3.344971	1.133307	0.000134
1941	1.9303e+02	-2.7160	-16.570424	0.000405	4.054510	1.373705	0.000162
1942	1.9313e+02	-2.6582	-16.449310	0.000304	3.040882	1.030279	0.000122
1943	1.9323e+02	-2.6261	-16.287824	0.000405	4.054510	1.373705	0.000162
1944	1.9333e+02	-2.5860	-16.142487	0.000365	3.649059	1.236335	0.000146
1945	1.9343e+02	-2.5604	-16.005225	0.000345	3.446333	1.167649	0.000138
1946	1.9353e+02	-2.5090	-15.876036	0.000324	3.243608	1.098964	0.000130
1947	1.9363e+02	-2.4705	-15.726662	0.000375	3.750422	1.270677	0.000150
1948	1.9373e+02	-2.4272	-15.605548	0.000304	3.040882	1.030279	0.000122
1949	1.9383e+02	-2.3871	-15.427914	0.000446	4.459961	1.511076	0.000179
1950	1.9393e+02	-2.3550	-15.254317	0.000436	4.358598	1.476733	0.000174
1951	1.9403e+02	-2.3037	-15.181649	0.000182	1.824529	0.618167	0.000073
1952	1.9412e+02	-2.2748	-15.004015	0.000446	4.459961	1.511076	0.000179
1953	1.9422e+02	-2.2315	-14.870789	0.000334	3.344971	1.133307	0.000134
1954	1.9432e+02	-2.2010	-14.681044	0.000476	4.764049	1.614104	0.000191
1955	1.9442e+02	-2.1577	-14.568004	0.000284	2.838157	0.961594	0.000114
1956	1.9452e+02	-2.1112	-14.426705	0.000355	3.547696	1.201992	0.000142
1957	1.9462e+02	-2.0743	-14.265219	0.000405	4.054510	1.373705	0.000162
1958	1.9472e+02	-2.0294	-14.099697	0.000416	4.155873	1.408048	0.000166
1959	1.9482e+02	-1.9892	-13.986657	0.000284	2.838157	0.961594	0.000114
1960	1.9492e+02	-1.9556	-13.857468	0.000324	3.243608	1.098964	0.000130
1961	1.9502e+02	-1.9122	-13.655612	0.000507	5.068137	1.717131	0.000203
1962	1.9512e+02	-1.8673	-13.522386	0.000334	3.344971	1.133307	0.000134
1963	1.9522e+02	-1.8336	-13.389161	0.000334	3.344971	1.133307	0.000134
1964	1.9532e+02	-1.7903	-13.179230	0.000527	5.270863	1.785817	0.000211
1965	1.9542e+02	-1.7582	-13.070227	0.000274	2.736794	0.927251	0.000110
1966	1.9552e+02	-1.7085	-12.924890	0.000365	3.649059	1.236335	0.000146
1967	1.9562e+02	-1.6684	-12.787627	0.000345	3.446333	1.167649	0.000138
1968	1.9572e+02	-1.6251	-12.630179	0.000395	3.953147	1.339363	0.000158
1969	1.9582e+02	-1.5898	-12.456582	0.000436	4.358598	1.476733	0.000174
1970	1.9592e+02	-1.5449	-12.323357	0.000334	3.344971	1.133307	0.000134
1971	1.9601e+02	-1.5112	-12.242614	0.000203	2.027255	0.686853	0.000081
1972	1.9611e+02	-1.4711	-12.024609	0.000547	5.473588	1.854502	0.000219
1973	1.9621e+02	-1.4278	-11.879272	0.000365	3.649059	1.236335	0.000146
1974	1.9631e+02	-1.3877	-11.762195	0.000294	2.939520	0.995936	0.000118
1975	1.9641e+02	-1.3476	-11.564375	0.000497	4.966775	1.682789	0.000199
1976	1.9651e+02	-1.2994	-11.455373	0.000274	2.736794	0.927251	0.000110
1977	1.9661e+02	-1.2706	-11.338296	0.000294	2.939520	0.995936	0.000118
1978	1.9671e+02	-1.2337	-11.144513	0.000487	4.865412	1.648446	0.000195
1979	1.9681e+02	-1.1952	-10.987065	0.000395	3.953147	1.339363	0.000158
1980	1.9691e+02	-1.1518	-10.874025	0.000284	2.838157	0.961594	0.000114
1981	1.9701e+02	-1.1133	-10.732725	0.000355	3.547696	1.201992	0.000142
1982	1.9711e+02	-1.0732	-10.575277	0.000395	3.953147	1.339363	0.000158
1983	1.9721e+02	-1.0363	-10.421866	0.000385	3.851784	1.305020	0.000154
1984	1.9731e+02	-0.9866	-10.236158	0.000466	4.662686	1.579761	0.000187
1985	1.9741e+02	-0.9481	-10.094858	0.000355	3.547696	1.201992	0.000142
1986	1.9751e+02	-0.9176	-9.973744	0.000304	3.040882	1.030279	0.000122
1987	1.9761e+02	-0.8695	-9.788036	0.000466	4.662686	1.579761	0.000187
1988	1.9771e+02	-0.8422	-9.687107	0.000253	2.534069	0.858566	0.000101
1989	1.9781e+02	-0.7893	-9.513510	0.000436	4.358598	1.476733	0.000174
1990	1.9791e+02	-0.7524	-9.335876	0.000446	4.459961	1.511076	0.000179
1991	1.9800e+02	-0.7123	-9.154205	0.000456	4.561324	1.545418	0.000183
1992	1.9810e+02	-0.6770	-9.033091	0.000304	3.040882	1.030279	0.000122
1993	1.9820e+02	-0.6337	-8.883717	0.000375	3.750422	1.270677	0.000150
1994	1.9830e+02	-0.5920	-8.726269	0.000395	3.953147	1.339363	0.000158
1995	1.9840e+02	-0.5503	-8.556709	0.000426	4.257235	1.442390	0.000170
1996	1.9850e+02	-0.5182	-8.419447	0.000345	3.446333	1.167649	0.000138
1997	1.9860e+02	-0.4684	-8.237775	0.000456	4.561324	1.545418	0.000183
1998	1.9870e+02	-0.4347	-8.104550	0.000334	3.344971	1.133307	0.000134
1999	1.9880e+02	-0.3978	-7.930953	0.000436	4.358598	1.476733	0.000174
2000	1.9890e+02	-0.3529	-7.761393	0.000426	4.257235	1.442390	0.000170
2001	1.9900e+02	-0.3112	-7.603945	0.000395	3.953147	1.339363	0.000158
2002	1.9910e+02	-0.2823	-7.462645	0.000355	3.547696	1.201992	0.000142
2003	1.9920e+02	-0.2310	-7.321346	0.000355	3.547696	1.201992	0.000142
2004	1.9930e+02	-0.1925	-7.167935	0.000385	3.851784	1.305020	0.000154
2005	1.9940e+02	-0.1604	-6.974152	0.000487	4.865412	1.648446	0.000195
2006	1.9950e+02	-0.1139	-6.824778	0.000375	3.750422	1.270677	0.000150
2007	1.9960e+02	-0.0706	-6.671367	0.000385	3.851784	1.305020	0.000154
2008	1.9970e+02	-0.0369	-6.513919	0.000395	3.953147	1.339363	0.000158
2009	1.9980e+02	0.0112	-6.348396	0.000395	3.953147	1.339363	0.000166

Center data before PMax,+/-Pr and +/-Vc Calc.

PMax (uC/cm2):	6.01e+01
Pr (uC/cm2):	1.92e+00
-Pr (uC/cm2):	-6.35e+00
PLoss (uC/cm2):	-4.14e+00
Vc:	6.24e-01
-Vc:	-4.97e-01
C (Max-Eff) (nF):	3.01e-01
K (Eff):	1.02e+03
Vert. (+/-Pr) Shift (uC/cm2):	-2.21e+00
Horiz. Shift (+/-Vc):	6.37e-02
Offset (uC/cm2):	2.23e+00

A (Loop Area - uC/cm2·Volts):	7.66e-02



Hysteresis Version: 5.48.1 - Radiant Technologies, Inc., 1999 - 9/12/24

