»»»»»»»»»»»»»»»»»»»»»»»»»»»»»»»»»»»» Hysteresis ««««««««««««««««««««««««««««««««««««
»»»  Executed Version:	5.48.1
»»»  Vision Version:	5.48.4 (R)
»»»  Vision Compiled:	9/18/24
»»»  Driver Version:	5.47.0
»»»  Windows Version:	Windows 8 or 8.1
»»»  Processor Information:	x86 (AMD or Intel) - 32 Processors
»»»  Tester Name:	PMF21124-494 (100V)
»»»  Tester S/N:	PMF21124-494
»»»  Internal Amp Type:	100V RevK 270k
»»»  Internal Amp S/N:	iAB2-596/K     
»»»  Execution Count:	1
»»»»»»»»»»»»»»»»»»»»»»»»»»»»»»»»»»»»»»»»»»««««««««««««««««««««««««««««««««««««««««««

Stored:	6/13/2025 - 15:33:50
Configured:	06/13/25 01:30:53 PM
Executed:	06/13/25 03:33:15 PM

»»»»»»»»»»»»»»»»»»»»»»»»»»»»»»»»»»» Sample Info ««««««««««««««««««««««««««««««««««««
Sample Name:	
Lot Name:	
Wafer Name:	
Die Row/Column:	0/0
Capacitor Number:	0
Sample Area (cm2):	1.00e-04
Sample Thickness (microns):	3.00e-01

Amplifier:	Internal

»»»»»»»»»»»»»»»»»»»»»»»»»»»»»»»»»»» Tester Info «««««««««««««««««««««««««««««««««««
Tester Name:	PMF21124-494 (100V)
Tester Serial Number:	PMF21124-494
Return Signal Amp. Level:	0.19 [Index: 3]

»»»»»»»»»»»»»»»»»»»»»»»»»»»»»»»» Hysteresis Info ««««««««««««««««««««««««««««««««««
Task Name:	Hyst-1922
Volts:	20.00
Field:	666.67 (kV/cm)
DCBias:	0.00
DCField:	0.00 (kV/cm)
Hysteresis Period (ms):	2.00e+02
Preset:	Enabled
Preset Delay (ms):	1.00e+03
Profile:	Standard Bipolar

»»»»»»»»»»»»»»»»»»»»»»»»»»»»»»»»»»»»»» Data «««««««««««««««««««««««««««««««««««««««
Points:	2009

Valid Data

Point	Time (ms)	Drive Voltage	Measured Polarization (uC/cm2)	Capacitance (uF)	Normalized Capacitance (uF/cm2)	Dielectric Constant	Instantaneous Current (mA)
   1	0.0000e+00	0.0016	-3.148966	0.000304	3.040821	1.030258	0.000122
   2	9.9500e-02	0.0353	-3.027852	0.000304	3.040821	1.030258	0.000122
   3	1.9900e-01	0.0738	-2.870404	0.000395	3.953068	1.339336	0.000158
   4	2.9850e-01	0.1139	-2.680658	0.000476	4.763954	1.614071	0.000191
   5	3.9800e-01	0.1556	-2.539358	0.000355	3.547625	1.201968	0.000142
   6	4.9750e-01	0.1941	-2.377873	0.000405	4.054429	1.373678	0.000162
   7	5.9700e-01	0.2230	-2.220425	0.000395	3.953068	1.339336	0.000158
   8	6.9650e-01	0.2775	-2.062976	0.000395	3.953068	1.339336	0.000158
   9	7.9600e-01	0.3080	-1.925714	0.000345	3.446264	1.167626	0.000138
  10	8.9550e-01	0.3529	-1.764228	0.000405	4.054429	1.373678	0.000162
  11	9.9500e-01	0.3882	-1.554297	0.000527	5.270757	1.785781	0.000211
  12	1.0945e+00	0.4283	-1.392812	0.000405	4.054429	1.373678	0.000162
  13	1.1940e+00	0.4716	-1.283809	0.000274	2.736739	0.927232	0.000110
  14	1.2935e+00	0.5118	-1.061767	0.000557	5.574839	1.888807	0.000223
  15	1.3930e+00	0.5519	-0.888170	0.000436	4.358511	1.476703	0.000174
  16	1.4925e+00	0.5888	-0.771093	0.000294	2.939461	0.995916	0.000118
  17	1.5920e+00	0.6337	-0.609607	0.000405	4.054429	1.373678	0.000162
  18	1.6915e+00	0.6738	-0.419862	0.000476	4.763954	1.614071	0.000191
  19	1.7910e+00	0.7010	-0.234154	0.000466	4.662593	1.579729	0.000187
  20	1.8905e+00	0.7572	-0.092854	0.000355	3.547625	1.201968	0.000142
  21	1.9900e+00	0.7909	0.076706	0.000426	4.257150	1.442361	0.000170
  22	2.0895e+00	0.8342	0.222042	0.000365	3.648986	1.236310	0.000146
  23	2.1890e+00	0.8663	0.391602	0.000426	4.257150	1.442361	0.000170
  24	2.2885e+00	0.9112	0.557125	0.000416	4.155789	1.408020	0.000166
  25	2.3880e+00	0.9449	0.706499	0.000375	3.750346	1.270652	0.000150
  26	2.4875e+00	0.9882	0.884133	0.000446	4.459871	1.511045	0.000179
  27	2.5870e+00	1.0283	1.021395	0.000345	3.446264	1.167626	0.000138
  28	2.6865e+00	1.0620	1.219215	0.000497	4.966675	1.682755	0.000199
  29	2.7860e+00	1.1101	1.376663	0.000395	3.953068	1.339336	0.000158
  30	2.8855e+00	1.1438	1.562372	0.000466	4.662593	1.579729	0.000187
  31	2.9850e+00	1.1952	1.715783	0.000385	3.851707	1.304994	0.000154
  32	3.0845e+00	1.2337	1.853045	0.000345	3.446264	1.167626	0.000138
  33	3.1840e+00	1.2722	2.075088	0.000557	5.574839	1.888807	0.000223
  34	3.2835e+00	1.3123	2.208313	0.000334	3.344904	1.133284	0.000134
  35	3.3830e+00	1.3476	2.418244	0.000527	5.270757	1.785781	0.000211
  36	3.4825e+00	1.3845	2.547433	0.000324	3.243543	1.098942	0.000130
  37	3.5820e+00	1.4278	2.721029	0.000436	4.358511	1.476703	0.000174
  38	3.6815e+00	1.4679	2.918849	0.000497	4.966675	1.682755	0.000199
  39	3.7810e+00	1.5128	3.100520	0.000456	4.561232	1.545387	0.000183
  40	3.8805e+00	1.5481	3.237783	0.000345	3.446264	1.167626	0.000138
  41	3.9800e+00	1.5882	3.403305	0.000416	4.155789	1.408020	0.000166
  42	4.0795e+00	1.6235	3.564791	0.000405	4.054429	1.373678	0.000162
  43	4.1790e+00	1.6668	3.770685	0.000517	5.169396	1.751439	0.000207
  44	4.2785e+00	1.7069	3.940244	0.000426	4.257150	1.442361	0.000170
  45	4.3780e+00	1.7518	4.113841	0.000436	4.358511	1.476703	0.000174
  46	4.4775e+00	1.7903	4.238993	0.000314	3.142182	1.064600	0.000126
  47	4.5770e+00	1.8385	4.432775	0.000487	4.865314	1.648413	0.000195
  48	4.6765e+00	1.8657	4.598298	0.000416	4.155789	1.408020	0.000166
  49	4.7760e+00	1.9090	4.767857	0.000426	4.257150	1.442361	0.000170
  50	4.8755e+00	1.9459	4.913194	0.000365	3.648986	1.236310	0.000146
  51	4.9750e+00	1.9892	5.131200	0.000547	5.473479	1.854465	0.000219
  52	5.0745e+00	2.0358	5.292685	0.000405	4.054429	1.373678	0.000162
  53	5.1740e+00	2.0695	5.450133	0.000395	3.953068	1.339336	0.000158
  54	5.2735e+00	2.1096	5.647953	0.000497	4.966675	1.682755	0.000199
  55	5.3730e+00	2.1513	5.756956	0.000274	2.736739	0.927232	0.000110
  56	5.4725e+00	2.1898	5.978998	0.000557	5.574839	1.888807	0.000223
  57	5.5720e+00	2.2219	6.124335	0.000365	3.648986	1.236310	0.000146
  58	5.6715e+00	2.2668	6.301969	0.000446	4.459871	1.511045	0.000179
  59	5.7710e+00	2.3053	6.483640	0.000456	4.561232	1.545387	0.000183
  60	5.8705e+00	2.3422	6.608791	0.000314	3.142182	1.064600	0.000126
  61	5.9700e+00	2.3887	6.782388	0.000436	4.358511	1.476703	0.000174
  62	6.0695e+00	2.4272	6.988282	0.000517	5.169396	1.751439	0.000207
  63	6.1690e+00	2.4705	7.125545	0.000345	3.446264	1.167626	0.000138
  64	6.2685e+00	2.5106	7.323364	0.000497	4.966675	1.682755	0.000199
  65	6.3680e+00	2.5363	7.496961	0.000436	4.358511	1.476703	0.000174
  66	6.4675e+00	2.5844	7.666521	0.000426	4.257150	1.442361	0.000170
  67	6.5670e+00	2.6213	7.856266	0.000476	4.763954	1.614071	0.000191
  68	6.6665e+00	2.6598	7.993529	0.000345	3.446264	1.167626	0.000138
  69	6.7660e+00	2.7015	8.183274	0.000476	4.763954	1.614071	0.000191
  70	6.8655e+00	2.7481	8.320537	0.000345	3.446264	1.167626	0.000138
  71	6.9650e+00	2.7833	8.526431	0.000517	5.169396	1.751439	0.000207
  72	7.0645e+00	2.8154	8.667730	0.000355	3.547625	1.201968	0.000142
  73	7.1640e+00	2.8652	8.841327	0.000436	4.358511	1.476703	0.000174
  74	7.2635e+00	2.9133	8.990701	0.000375	3.750346	1.270652	0.000150
  75	7.3630e+00	2.9438	9.192558	0.000507	5.068036	1.717097	0.000203
  76	7.4625e+00	2.9807	9.354044	0.000405	4.054429	1.373678	0.000162
  77	7.5620e+00	3.0160	9.527640	0.000436	4.358511	1.476703	0.000174
  78	7.6615e+00	3.0673	9.705274	0.000446	4.459871	1.511045	0.000179
  79	7.7610e+00	3.1026	9.854648	0.000375	3.750346	1.270652	0.000150
  80	7.8605e+00	3.1443	10.032282	0.000446	4.459871	1.511045	0.000179
  81	7.9600e+00	3.1732	10.185693	0.000385	3.851707	1.304994	0.000154
  82	8.0595e+00	3.2197	10.383513	0.000497	4.966675	1.682755	0.000199
  83	8.1590e+00	3.2518	10.520776	0.000345	3.446264	1.167626	0.000138
  84	8.2585e+00	3.3095	10.694373	0.000436	4.358511	1.476703	0.000174
  85	8.3580e+00	3.3464	10.880081	0.000466	4.662593	1.579729	0.000187
  86	8.4575e+00	3.3849	11.029455	0.000375	3.750346	1.270652	0.000150
  87	8.5570e+00	3.4234	11.219200	0.000476	4.763954	1.614071	0.000191
  88	8.6565e+00	3.4603	11.372611	0.000385	3.851707	1.304994	0.000154
  89	8.7560e+00	3.4956	11.538134	0.000416	4.155789	1.408020	0.000166
  90	8.8555e+00	3.5341	11.675397	0.000345	3.446264	1.167626	0.000138
  91	8.9550e+00	3.5839	11.861105	0.000466	4.662593	1.579729	0.000187
  92	9.0545e+00	3.6208	12.038739	0.000446	4.459871	1.511045	0.000179
  93	9.1540e+00	3.6560	12.216373	0.000446	4.459871	1.511045	0.000179
  94	9.2535e+00	3.7010	12.402081	0.000466	4.662593	1.579729	0.000187
  95	9.3530e+00	3.7411	12.563566	0.000405	4.054429	1.373678	0.000162
  96	9.4525e+00	3.7812	12.692755	0.000324	3.243543	1.098942	0.000130
  97	9.5520e+00	3.8165	12.870389	0.000446	4.459871	1.511045	0.000179
  98	9.6515e+00	3.8678	13.064171	0.000487	4.865314	1.648413	0.000195
  99	9.7510e+00	3.8951	13.237768	0.000436	4.358511	1.476703	0.000174
 100	9.8505e+00	3.9464	13.354845	0.000294	2.939461	0.995916	0.000118
 101	9.9500e+00	3.9769	13.552665	0.000497	4.966675	1.682755	0.000199
 102	1.0050e+01	4.0266	13.738373	0.000466	4.662593	1.579729	0.000187
 103	1.0149e+01	4.0619	13.879673	0.000355	3.547625	1.201968	0.000142
 104	1.0248e+01	4.0956	14.073455	0.000487	4.865314	1.648413	0.000195
 105	1.0348e+01	4.1389	14.267238	0.000487	4.865314	1.648413	0.000195
 106	1.0447e+01	4.1822	14.404500	0.000345	3.446264	1.167626	0.000138
 107	1.0547e+01	4.2079	14.574060	0.000426	4.257150	1.442361	0.000170
 108	1.0646e+01	4.2608	14.739583	0.000416	4.155789	1.408020	0.000166
 109	1.0746e+01	4.2977	14.909142	0.000426	4.257150	1.442361	0.000170
 110	1.0845e+01	4.3427	15.082739	0.000436	4.358511	1.476703	0.000174
 111	1.0945e+01	4.3796	15.260373	0.000446	4.459871	1.511045	0.000179
 112	1.1044e+01	4.4132	15.433970	0.000436	4.358511	1.476703	0.000174
 113	1.1144e+01	4.4534	15.571233	0.000345	3.446264	1.167626	0.000138
 114	1.1243e+01	4.4967	15.777126	0.000517	5.169396	1.751439	0.000207
 115	1.1343e+01	4.5384	15.906315	0.000324	3.243543	1.098942	0.000130
 116	1.1443e+01	4.5753	16.063763	0.000395	3.953068	1.339336	0.000158
 117	1.1542e+01	4.6138	16.229286	0.000416	4.155789	1.408020	0.000166
 118	1.1642e+01	4.6571	16.378660	0.000375	3.750346	1.270652	0.000150
 119	1.1741e+01	4.7004	16.580516	0.000507	5.068036	1.717097	0.000203
 120	1.1841e+01	4.7437	16.737965	0.000395	3.953068	1.339336	0.000158
 121	1.1940e+01	4.7758	16.899450	0.000405	4.054429	1.373678	0.000162
 122	1.2040e+01	4.8159	17.048824	0.000375	3.750346	1.270652	0.000150
 123	1.2139e+01	4.8544	17.238570	0.000476	4.763954	1.614071	0.000191
 124	1.2239e+01	4.8929	17.391981	0.000385	3.851707	1.304994	0.000154
 125	1.2338e+01	4.9410	17.533281	0.000355	3.547625	1.201968	0.000142
 126	1.2438e+01	4.9699	17.694766	0.000405	4.054429	1.373678	0.000162
 127	1.2537e+01	5.0196	17.844140	0.000375	3.750346	1.270652	0.000150
 128	1.2636e+01	5.0662	18.029848	0.000466	4.662593	1.579729	0.000187
 129	1.2736e+01	5.0886	18.167111	0.000345	3.446264	1.167626	0.000138
 130	1.2835e+01	5.1368	18.340708	0.000436	4.358511	1.476703	0.000174
 131	1.2935e+01	5.1833	18.514304	0.000436	4.358511	1.476703	0.000174
 132	1.3034e+01	5.2170	18.679827	0.000416	4.155789	1.408020	0.000166
 133	1.3134e+01	5.2539	18.837275	0.000395	3.953068	1.339336	0.000158
 134	1.3233e+01	5.2940	18.994724	0.000395	3.953068	1.339336	0.000158
 135	1.3333e+01	5.3341	19.204655	0.000527	5.270757	1.785781	0.000211
 136	1.3432e+01	5.3742	19.317695	0.000284	2.838100	0.961574	0.000114
 137	1.3532e+01	5.4191	19.483217	0.000416	4.155789	1.408020	0.000166
 138	1.3632e+01	5.4608	19.640665	0.000395	3.953068	1.339336	0.000158
 139	1.3731e+01	5.4849	19.806188	0.000416	4.155789	1.408020	0.000166
 140	1.3831e+01	5.5266	19.983822	0.000446	4.459871	1.511045	0.000179
 141	1.3930e+01	5.5779	20.117047	0.000334	3.344904	1.133284	0.000134
 142	1.4030e+01	5.6132	20.294681	0.000446	4.459871	1.511045	0.000179
 143	1.4129e+01	5.6485	20.440018	0.000365	3.648986	1.236310	0.000146
 144	1.4229e+01	5.6902	20.609578	0.000426	4.257150	1.442361	0.000170
 145	1.4328e+01	5.7319	20.799323	0.000476	4.763954	1.614071	0.000191
 146	1.4428e+01	5.7801	20.944660	0.000365	3.648986	1.236310	0.000146
 147	1.4527e+01	5.8089	21.098071	0.000385	3.851707	1.304994	0.000154
 148	1.4627e+01	5.8571	21.251483	0.000385	3.851707	1.304994	0.000154
 149	1.4726e+01	5.8923	21.429116	0.000446	4.459871	1.511045	0.000179
 150	1.4825e+01	5.9260	21.574453	0.000365	3.648986	1.236310	0.000146
 151	1.4925e+01	5.9742	21.739976	0.000416	4.155789	1.408020	0.000166
 152	1.5024e+01	6.0095	21.885313	0.000365	3.648986	1.236310	0.000146
 153	1.5124e+01	6.0560	22.038724	0.000385	3.851707	1.304994	0.000154
 154	1.5223e+01	6.0897	22.240581	0.000507	5.068036	1.717097	0.000203
 155	1.5323e+01	6.1298	22.377843	0.000345	3.446264	1.167626	0.000138
 156	1.5422e+01	6.1683	22.543366	0.000416	4.155789	1.408020	0.000166
 157	1.5522e+01	6.2100	22.700814	0.000395	3.953068	1.339336	0.000158
 158	1.5621e+01	6.2453	22.838077	0.000345	3.446264	1.167626	0.000138
 159	1.5721e+01	6.2934	23.015711	0.000446	4.459871	1.511045	0.000179
 160	1.5820e+01	6.3319	23.181233	0.000416	4.155789	1.408020	0.000166
 161	1.5920e+01	6.3688	23.334645	0.000385	3.851707	1.304994	0.000154
 162	1.6020e+01	6.4137	23.492093	0.000395	3.953068	1.339336	0.000158
 163	1.6119e+01	6.4458	23.665690	0.000436	4.358511	1.476703	0.000174
 164	1.6218e+01	6.4891	23.823138	0.000395	3.953068	1.339336	0.000158
 165	1.6318e+01	6.5276	23.976549	0.000385	3.851707	1.304994	0.000154
 166	1.6418e+01	6.5693	24.109775	0.000334	3.344904	1.133284	0.000134
 167	1.6517e+01	6.6046	24.279334	0.000426	4.257150	1.442361	0.000170
 168	1.6616e+01	6.6463	24.485228	0.000517	5.169396	1.751439	0.000207
 169	1.6716e+01	6.6897	24.582120	0.000243	2.432657	0.824207	0.000097
 170	1.6816e+01	6.7282	24.743605	0.000405	4.054429	1.373678	0.000162
 171	1.6915e+01	6.7650	24.868756	0.000314	3.142182	1.064600	0.000126
 172	1.7015e+01	6.8052	25.042353	0.000436	4.358511	1.476703	0.000174
 173	1.7114e+01	6.8485	25.215950	0.000436	4.358511	1.476703	0.000174
 174	1.7213e+01	6.8854	25.377435	0.000405	4.054429	1.373678	0.000162
 175	1.7313e+01	6.9287	25.571218	0.000487	4.865314	1.648413	0.000195
 176	1.7413e+01	6.9656	25.700406	0.000324	3.243543	1.098942	0.000130
 177	1.7512e+01	7.0057	25.849780	0.000375	3.750346	1.270652	0.000150
 178	1.7611e+01	7.0490	25.991080	0.000355	3.547625	1.201968	0.000142
 179	1.7711e+01	7.0891	26.160640	0.000426	4.257150	1.442361	0.000170
 180	1.7811e+01	7.1292	26.346348	0.000466	4.662593	1.579729	0.000187
 181	1.7910e+01	7.1677	26.483610	0.000345	3.446264	1.167626	0.000138
 182	1.8009e+01	7.2062	26.628947	0.000365	3.648986	1.236310	0.000146
 183	1.8109e+01	7.2447	26.774284	0.000365	3.648986	1.236310	0.000146
 184	1.8209e+01	7.2800	26.923658	0.000375	3.750346	1.270652	0.000150
 185	1.8308e+01	7.3346	27.089181	0.000416	4.155789	1.408020	0.000166
 186	1.8407e+01	7.3602	27.222406	0.000334	3.344904	1.133284	0.000134
 187	1.8507e+01	7.4035	27.367743	0.000365	3.648986	1.236310	0.000146
 188	1.8607e+01	7.4420	27.525191	0.000395	3.953068	1.339336	0.000158
 189	1.8706e+01	7.4805	27.686677	0.000405	4.054429	1.373678	0.000162
 190	1.8805e+01	7.5271	27.876422	0.000476	4.763954	1.614071	0.000191
 191	1.8905e+01	7.5575	28.001573	0.000314	3.142182	1.064600	0.000126
 192	1.9005e+01	7.5976	28.138836	0.000345	3.446264	1.167626	0.000138
 193	1.9104e+01	7.6490	28.332619	0.000487	4.865314	1.648413	0.000195
 194	1.9203e+01	7.6859	28.453733	0.000304	3.040821	1.030258	0.000122
 195	1.9303e+01	7.7276	28.603107	0.000375	3.750346	1.270652	0.000150
 196	1.9402e+01	7.7677	28.704035	0.000253	2.534018	0.858548	0.000101
 197	1.9502e+01	7.8078	28.885706	0.000456	4.561232	1.545387	0.000183
 198	1.9602e+01	7.8447	29.018932	0.000334	3.344904	1.133284	0.000134
 199	1.9701e+01	7.8880	29.232900	0.000537	5.372118	1.820123	0.000215
 200	1.9800e+01	7.9233	29.354014	0.000304	3.040821	1.030258	0.000122
 201	1.9900e+01	7.9666	29.539722	0.000466	4.662593	1.579729	0.000187
 202	2.0000e+01	8.0067	29.676985	0.000345	3.446264	1.167626	0.000138
 203	2.0099e+01	8.0436	29.822322	0.000365	3.648986	1.236310	0.000146
 204	2.0198e+01	8.0837	29.995919	0.000436	4.358511	1.476703	0.000174
 205	2.0298e+01	8.1222	30.137218	0.000355	3.547625	1.201968	0.000142
 206	2.0398e+01	8.1623	30.306778	0.000426	4.257150	1.442361	0.000170
 207	2.0497e+01	8.2105	30.435966	0.000324	3.243543	1.098942	0.000130
 208	2.0596e+01	8.2409	30.605526	0.000426	4.257150	1.442361	0.000170
 209	2.0696e+01	8.2746	30.758937	0.000385	3.851707	1.304994	0.000154
 210	2.0796e+01	8.3212	30.900237	0.000355	3.547625	1.201968	0.000142
 211	2.0895e+01	8.3613	31.053648	0.000385	3.851707	1.304994	0.000154
 212	2.0994e+01	8.3950	31.219171	0.000416	4.155789	1.408020	0.000166
 213	2.1094e+01	8.4479	31.328173	0.000274	2.736739	0.927232	0.000110
 214	2.1194e+01	8.4848	31.505807	0.000446	4.459871	1.511045	0.000179
 215	2.1293e+01	8.5233	31.655181	0.000375	3.750346	1.270652	0.000150
 216	2.1392e+01	8.5570	31.836852	0.000456	4.561232	1.545387	0.000183
 217	2.1492e+01	8.5939	31.945855	0.000274	2.736739	0.927232	0.000110
 218	2.1591e+01	8.6452	32.103303	0.000395	3.953068	1.339336	0.000158
 219	2.1691e+01	8.6885	32.240566	0.000345	3.446264	1.167626	0.000138
 220	2.1791e+01	8.7142	32.406089	0.000416	4.155789	1.408020	0.000166
 221	2.1890e+01	8.7671	32.535277	0.000324	3.243543	1.098942	0.000130
 222	2.1989e+01	8.8024	32.684651	0.000375	3.750346	1.270652	0.000150
 223	2.2089e+01	8.8473	32.846136	0.000405	4.054429	1.373678	0.000162
 224	2.2189e+01	8.8874	33.011659	0.000416	4.155789	1.408020	0.000166
 225	2.2288e+01	8.9147	33.128736	0.000294	2.939461	0.995916	0.000118
 226	2.2387e+01	8.9548	33.270036	0.000355	3.547625	1.201968	0.000142
 227	2.2487e+01	9.0030	33.399224	0.000324	3.243543	1.098942	0.000130
 228	2.2587e+01	9.0431	33.580895	0.000456	4.561232	1.545387	0.000183
 229	2.2686e+01	9.0751	33.726232	0.000365	3.648986	1.236310	0.000146
 230	2.2785e+01	9.1297	33.843309	0.000294	2.939461	0.995916	0.000118
 231	2.2885e+01	9.1538	34.016906	0.000436	4.358511	1.476703	0.000174
 232	2.2985e+01	9.1971	34.190503	0.000436	4.358511	1.476703	0.000174
 233	2.3084e+01	9.2404	34.263171	0.000182	1.824493	0.618155	0.000073
 234	2.3183e+01	9.2757	34.416582	0.000385	3.851707	1.304994	0.000154
 235	2.3283e+01	9.3126	34.618439	0.000507	5.068036	1.717097	0.000203
 236	2.3383e+01	9.3607	34.723404	0.000264	2.635379	0.892890	0.000105
 237	2.3482e+01	9.3928	34.892964	0.000426	4.257150	1.442361	0.000170
 238	2.3581e+01	9.4457	35.050412	0.000395	3.953068	1.339336	0.000158
 239	2.3681e+01	9.4762	35.159415	0.000274	2.736739	0.927232	0.000110
 240	2.3780e+01	9.5179	35.312826	0.000385	3.851707	1.304994	0.000154
 241	2.3880e+01	9.5580	35.490460	0.000446	4.459871	1.511045	0.000179
 242	2.3980e+01	9.6029	35.595426	0.000264	2.635379	0.892890	0.000105
 243	2.4079e+01	9.6382	35.781134	0.000466	4.662593	1.579729	0.000187
 244	2.4178e+01	9.6735	35.902248	0.000304	3.040821	1.030258	0.000122
 245	2.4278e+01	9.7152	36.051622	0.000375	3.750346	1.270652	0.000150
 246	2.4378e+01	9.7505	36.196959	0.000365	3.648986	1.236310	0.000146
 247	2.4477e+01	9.7922	36.354407	0.000395	3.953068	1.339336	0.000158
 248	2.4576e+01	9.8339	36.483596	0.000324	3.243543	1.098942	0.000130
 249	2.4676e+01	9.8708	36.596635	0.000284	2.838100	0.961574	0.000114
 250	2.4776e+01	9.9158	36.762158	0.000416	4.155789	1.408020	0.000166
 251	2.4875e+01	9.9575	36.895384	0.000334	3.344904	1.133284	0.000134
 252	2.4974e+01	9.9960	37.044758	0.000375	3.750346	1.270652	0.000150
 253	2.5074e+01	10.0409	37.194132	0.000375	3.750346	1.270652	0.000150
 254	2.5174e+01	10.0714	37.331394	0.000345	3.446264	1.167626	0.000138
 255	2.5273e+01	10.1147	37.496917	0.000416	4.155789	1.408020	0.000166
 256	2.5372e+01	10.1564	37.618031	0.000304	3.040821	1.030258	0.000122
 257	2.5472e+01	10.1853	37.739145	0.000304	3.040821	1.030258	0.000122
 258	2.5572e+01	10.2414	37.860259	0.000304	3.040821	1.030258	0.000122
 259	2.5671e+01	10.2831	38.045967	0.000466	4.662593	1.579729	0.000187
 260	2.5770e+01	10.3056	38.191304	0.000365	3.648986	1.236310	0.000146
 261	2.5870e+01	10.3489	38.316455	0.000314	3.142182	1.064600	0.000126
 262	2.5970e+01	10.3986	38.449681	0.000334	3.344904	1.133284	0.000134
 263	2.6069e+01	10.4371	38.607129	0.000395	3.953068	1.339336	0.000158
 264	2.6169e+01	10.4772	38.752466	0.000365	3.648986	1.236310	0.000146
 265	2.6268e+01	10.5125	38.897803	0.000365	3.648986	1.236310	0.000146
 266	2.6367e+01	10.5559	39.026991	0.000324	3.243543	1.098942	0.000130
 267	2.6467e+01	10.5992	39.156180	0.000324	3.243543	1.098942	0.000130
 268	2.6567e+01	10.6296	39.317665	0.000405	4.054429	1.373678	0.000162
 269	2.6666e+01	10.6730	39.458965	0.000355	3.547625	1.201968	0.000142
 270	2.6765e+01	10.7227	39.584116	0.000314	3.142182	1.064600	0.000126
 271	2.6865e+01	10.7516	39.729453	0.000365	3.648986	1.236310	0.000146
 272	2.6965e+01	10.7933	39.866715	0.000345	3.446264	1.167626	0.000138
 273	2.7064e+01	10.8350	40.012052	0.000365	3.648986	1.236310	0.000146
 274	2.7163e+01	10.8671	40.133166	0.000304	3.040821	1.030258	0.000122
 275	2.7263e+01	10.9184	40.278503	0.000365	3.648986	1.236310	0.000146
 276	2.7363e+01	10.9521	40.444026	0.000416	4.155789	1.408020	0.000166
 277	2.7462e+01	10.9938	40.601474	0.000395	3.953068	1.339336	0.000158
 278	2.7561e+01	11.0291	40.718551	0.000294	2.939461	0.995916	0.000118
 279	2.7661e+01	11.0676	40.823517	0.000264	2.635379	0.892890	0.000105
 280	2.7761e+01	11.1141	40.985002	0.000405	4.054429	1.373678	0.000162
 281	2.7860e+01	11.1494	41.146487	0.000405	4.054429	1.373678	0.000162
 282	2.7959e+01	11.1959	41.247416	0.000253	2.534018	0.858548	0.000101
 283	2.8059e+01	11.2168	41.392753	0.000365	3.648986	1.236310	0.000146
 284	2.8159e+01	11.2778	41.525978	0.000334	3.344904	1.133284	0.000134
 285	2.8258e+01	11.3114	41.695538	0.000426	4.257150	1.442361	0.000170
 286	2.8358e+01	11.3548	41.800503	0.000264	2.635379	0.892890	0.000105
 287	2.8457e+01	11.3949	41.913543	0.000284	2.838100	0.961574	0.000114
 288	2.8556e+01	11.4286	42.062917	0.000375	3.750346	1.270652	0.000150
 289	2.8656e+01	11.4751	42.167883	0.000264	2.635379	0.892890	0.000105
 290	2.8756e+01	11.5184	42.333405	0.000416	4.155789	1.408020	0.000166
 291	2.8855e+01	11.5489	42.482779	0.000375	3.750346	1.270652	0.000150
 292	2.8954e+01	11.5922	42.611968	0.000324	3.243543	1.098942	0.000130
 293	2.9054e+01	11.6259	42.745193	0.000334	3.344904	1.133284	0.000134
 294	2.9154e+01	11.6692	42.834010	0.000223	2.229936	0.755523	0.000089
 295	2.9253e+01	11.7173	42.979347	0.000365	3.648986	1.236310	0.000146
 296	2.9352e+01	11.7382	43.120647	0.000355	3.547625	1.201968	0.000142
 297	2.9452e+01	11.7863	43.245798	0.000314	3.142182	1.064600	0.000126
 298	2.9552e+01	11.8312	43.374986	0.000324	3.243543	1.098942	0.000130
 299	2.9651e+01	11.8729	43.512249	0.000345	3.446264	1.167626	0.000138
 300	2.9750e+01	11.9130	43.633363	0.000304	3.040821	1.030258	0.000122
 301	2.9850e+01	11.9499	43.770626	0.000345	3.446264	1.167626	0.000138
 302	2.9950e+01	11.9852	43.895777	0.000314	3.142182	1.064600	0.000126
 303	3.0049e+01	12.0285	44.041114	0.000365	3.648986	1.236310	0.000146
 304	3.0148e+01	12.0686	44.182414	0.000355	3.547625	1.201968	0.000142
 305	3.0248e+01	12.1023	44.303528	0.000304	3.040821	1.030258	0.000122
 306	3.0348e+01	12.1505	44.469050	0.000416	4.155789	1.408020	0.000166
 307	3.0447e+01	12.1809	44.614387	0.000365	3.648986	1.236310	0.000146
 308	3.0547e+01	12.2323	44.699167	0.000213	2.128575	0.721181	0.000085
 309	3.0646e+01	12.2676	44.816244	0.000294	2.939461	0.995916	0.000118
 310	3.0745e+01	12.3077	44.949469	0.000334	3.344904	1.133284	0.000134
 311	3.0845e+01	12.3462	45.114992	0.000416	4.155789	1.408020	0.000166
 312	3.0945e+01	12.3975	45.203809	0.000223	2.229936	0.755523	0.000089
 313	3.1044e+01	12.4344	45.389517	0.000466	4.662593	1.579729	0.000187
 314	3.1143e+01	12.4665	45.478334	0.000223	2.229936	0.755523	0.000089
 315	3.1243e+01	12.5066	45.615597	0.000345	3.446264	1.167626	0.000138
 316	3.1343e+01	12.5499	45.744785	0.000324	3.243543	1.098942	0.000130
 317	3.1442e+01	12.5788	45.902233	0.000395	3.953068	1.339336	0.000158
 318	3.1541e+01	12.6205	46.051607	0.000375	3.750346	1.270652	0.000150
 319	3.1641e+01	12.6622	46.148499	0.000243	2.432657	0.824207	0.000097
 320	3.1741e+01	12.7103	46.257501	0.000274	2.736739	0.927232	0.000110
 321	3.1840e+01	12.7569	46.394764	0.000345	3.446264	1.167626	0.000138
 322	3.1939e+01	12.7809	46.507804	0.000284	2.838100	0.961574	0.000114
 323	3.2039e+01	12.8210	46.628918	0.000304	3.040821	1.030258	0.000122
 324	3.2139e+01	12.8627	46.778292	0.000375	3.750346	1.270652	0.000150
 325	3.2238e+01	12.9125	46.923629	0.000365	3.648986	1.236310	0.000146
 326	3.2337e+01	12.9413	47.052817	0.000324	3.243543	1.098942	0.000130
 327	3.2437e+01	12.9750	47.169894	0.000294	2.939461	0.995916	0.000118
 328	3.2536e+01	13.0167	47.299082	0.000324	3.243543	1.098942	0.000130
 329	3.2636e+01	13.0585	47.440382	0.000355	3.547625	1.201968	0.000142
 330	3.2736e+01	13.0954	47.573608	0.000334	3.344904	1.133284	0.000134
 331	3.2835e+01	13.1435	47.690684	0.000294	2.939461	0.995916	0.000118
 332	3.2934e+01	13.1916	47.811799	0.000304	3.040821	1.030258	0.000122
 333	3.3034e+01	13.2173	47.957135	0.000365	3.648986	1.236310	0.000146
 334	3.3133e+01	13.2670	48.070175	0.000284	2.838100	0.961574	0.000114
 335	3.3233e+01	13.2991	48.191289	0.000304	3.040821	1.030258	0.000122
 336	3.3333e+01	13.3440	48.308366	0.000294	2.939461	0.995916	0.000118
 337	3.3432e+01	13.3873	48.453703	0.000365	3.648986	1.236310	0.000146
 338	3.3532e+01	13.4242	48.586929	0.000334	3.344904	1.133284	0.000134
 339	3.3631e+01	13.4579	48.671708	0.000213	2.128575	0.721181	0.000085
 340	3.3730e+01	13.5044	48.845305	0.000436	4.358511	1.476703	0.000174
 341	3.3830e+01	13.5397	48.974494	0.000324	3.243543	1.098942	0.000130
 342	3.3929e+01	13.5798	49.083496	0.000274	2.736739	0.927232	0.000110
 343	3.4029e+01	13.6199	49.224796	0.000355	3.547625	1.201968	0.000142
 344	3.4129e+01	13.6697	49.366096	0.000355	3.547625	1.201968	0.000142
 345	3.4228e+01	13.6921	49.479136	0.000284	2.838100	0.961574	0.000114
 346	3.4328e+01	13.7386	49.596213	0.000294	2.939461	0.995916	0.000118
 347	3.4427e+01	13.7820	49.701178	0.000264	2.635379	0.892890	0.000105
 348	3.4526e+01	13.8189	49.834404	0.000334	3.344904	1.133284	0.000134
 349	3.4626e+01	13.8574	49.959555	0.000314	3.142182	1.064600	0.000126
 350	3.4725e+01	13.8959	50.068557	0.000274	2.736739	0.927232	0.000110
 351	3.4825e+01	13.9360	50.213894	0.000365	3.648986	1.236310	0.000146
 352	3.4925e+01	13.9761	50.330971	0.000294	2.939461	0.995916	0.000118
 353	3.5024e+01	14.0178	50.472271	0.000355	3.547625	1.201968	0.000142
 354	3.5123e+01	14.0659	50.589348	0.000294	2.939461	0.995916	0.000118
 355	3.5223e+01	14.1028	50.722573	0.000334	3.344904	1.133284	0.000134
 356	3.5322e+01	14.1413	50.827539	0.000264	2.635379	0.892890	0.000105
 357	3.5422e+01	14.1782	50.940579	0.000284	2.838100	0.961574	0.000114
 358	3.5522e+01	14.2119	51.085916	0.000365	3.648986	1.236310	0.000146
 359	3.5621e+01	14.2600	51.182807	0.000243	2.432657	0.824207	0.000097
 360	3.5721e+01	14.2985	51.299884	0.000294	2.939461	0.995916	0.000118
 361	3.5820e+01	14.3450	51.433109	0.000334	3.344904	1.133284	0.000134
 362	3.5919e+01	14.3836	51.598632	0.000416	4.155789	1.408020	0.000166
 363	3.6019e+01	14.4124	51.723783	0.000314	3.142182	1.064600	0.000126
 364	3.6118e+01	14.4606	51.812600	0.000223	2.229936	0.755523	0.000089
 365	3.6218e+01	14.4942	51.917566	0.000264	2.635379	0.892890	0.000105
 366	3.6318e+01	14.5424	52.070977	0.000385	3.851707	1.304994	0.000154
 367	3.6417e+01	14.5729	52.208239	0.000345	3.446264	1.167626	0.000138
 368	3.6517e+01	14.6210	52.305131	0.000243	2.432657	0.824207	0.000097
 369	3.6616e+01	14.6482	52.446430	0.000355	3.547625	1.201968	0.000142
 370	3.6715e+01	14.6980	52.583693	0.000345	3.446264	1.167626	0.000138
 371	3.6815e+01	14.7397	52.696733	0.000284	2.838100	0.961574	0.000114
 372	3.6914e+01	14.7862	52.854181	0.000395	3.953068	1.339336	0.000158
 373	3.7014e+01	14.8103	52.942998	0.000223	2.229936	0.755523	0.000089
 374	3.7114e+01	14.8584	53.064112	0.000304	3.040821	1.030258	0.000122
 375	3.7213e+01	14.8937	53.189263	0.000314	3.142182	1.064600	0.000126
 376	3.7313e+01	14.9306	53.330563	0.000355	3.547625	1.201968	0.000142
 377	3.7412e+01	14.9643	53.471863	0.000355	3.547625	1.201968	0.000142
 378	3.7511e+01	15.0076	53.568754	0.000243	2.432657	0.824207	0.000097
 379	3.7611e+01	15.0493	53.693905	0.000314	3.142182	1.064600	0.000126
 380	3.7711e+01	15.0894	53.778685	0.000213	2.128575	0.721181	0.000085
 381	3.7810e+01	15.1311	53.936133	0.000395	3.953068	1.339336	0.000158
 382	3.7910e+01	15.1648	54.053210	0.000294	2.939461	0.995916	0.000118
 383	3.8009e+01	15.2178	54.154139	0.000253	2.534018	0.858548	0.000101
 384	3.8108e+01	15.2450	54.311587	0.000395	3.953068	1.339336	0.000158
 385	3.8208e+01	15.2899	54.416553	0.000264	2.635379	0.892890	0.000105
 386	3.8307e+01	15.3349	54.561889	0.000365	3.648986	1.236310	0.000146
 387	3.8407e+01	15.3686	54.642632	0.000203	2.027214	0.686839	0.000081
 388	3.8507e+01	15.4071	54.816229	0.000436	4.358511	1.476703	0.000174
 389	3.8606e+01	15.4680	54.896972	0.000203	2.027214	0.686839	0.000081
 390	3.8706e+01	15.5017	55.026160	0.000324	3.243543	1.098942	0.000130
 391	3.8805e+01	15.5354	55.139200	0.000284	2.838100	0.961574	0.000114
 392	3.8904e+01	15.5787	55.296648	0.000395	3.953068	1.339336	0.000158
 393	3.9004e+01	15.6156	55.361242	0.000162	1.621771	0.549471	0.000065
 394	3.9103e+01	15.6493	55.506579	0.000365	3.648986	1.236310	0.000146
 395	3.9203e+01	15.7038	55.631730	0.000314	3.142182	1.064600	0.000126
 396	3.9303e+01	15.7327	55.736696	0.000264	2.635379	0.892890	0.000105
 397	3.9402e+01	15.7776	55.873959	0.000345	3.446264	1.167626	0.000138
 398	3.9502e+01	15.8065	55.986998	0.000284	2.838100	0.961574	0.000114
 399	3.9601e+01	15.8562	56.100038	0.000284	2.838100	0.961574	0.000114
 400	3.9700e+01	15.8899	56.196929	0.000243	2.432657	0.824207	0.000097
 401	3.9800e+01	15.9316	56.318044	0.000304	3.040821	1.030258	0.000122
 402	3.9900e+01	15.9717	56.423009	0.000264	2.635379	0.892890	0.000105
 403	3.9999e+01	16.0151	56.584495	0.000405	4.054429	1.373678	0.000162
 404	4.0099e+01	16.0503	56.681386	0.000243	2.432657	0.824207	0.000097
 405	4.0198e+01	16.0969	56.814611	0.000334	3.344904	1.133284	0.000134
 406	4.0297e+01	16.1370	56.915540	0.000253	2.534018	0.858548	0.000101
 407	4.0397e+01	16.1707	57.048765	0.000334	3.344904	1.133284	0.000134
 408	4.0496e+01	16.2124	57.161805	0.000284	2.838100	0.961574	0.000114
 409	4.0596e+01	16.2509	57.282919	0.000304	3.040821	1.030258	0.000122
 410	4.0696e+01	16.2942	57.408070	0.000314	3.142182	1.064600	0.000126
 411	4.0795e+01	16.3311	57.504961	0.000243	2.432657	0.824207	0.000097
 412	4.0895e+01	16.3712	57.589741	0.000213	2.128575	0.721181	0.000085
 413	4.0994e+01	16.4081	57.735078	0.000365	3.648986	1.236310	0.000146
 414	4.1093e+01	16.4482	57.844081	0.000274	2.736739	0.927232	0.000110
 415	4.1193e+01	16.4883	57.965195	0.000304	3.040821	1.030258	0.000122
 416	4.1292e+01	16.5300	58.070160	0.000264	2.635379	0.892890	0.000105
 417	4.1392e+01	16.5685	58.227609	0.000395	3.953068	1.339336	0.000158
 418	4.1492e+01	16.6054	58.312389	0.000213	2.128575	0.721181	0.000085
 419	4.1591e+01	16.6471	58.457725	0.000365	3.648986	1.236310	0.000146
 420	4.1691e+01	16.6904	58.574802	0.000294	2.939461	0.995916	0.000118
 421	4.1790e+01	16.7289	58.691879	0.000294	2.939461	0.995916	0.000118
 422	4.1889e+01	16.7706	58.812993	0.000304	3.040821	1.030258	0.000122
 423	4.1989e+01	16.8108	58.885662	0.000182	1.824493	0.618155	0.000073
 424	4.2089e+01	16.8493	58.978516	0.000233	2.331296	0.789865	0.000093
 425	4.2188e+01	16.8894	59.123853	0.000365	3.648986	1.236310	0.000146
 426	4.2288e+01	16.9311	59.249004	0.000314	3.142182	1.064600	0.000126
 427	4.2387e+01	16.9648	59.345895	0.000243	2.432657	0.824207	0.000097
 428	4.2486e+01	17.0017	59.499307	0.000385	3.851707	1.304994	0.000154
 429	4.2586e+01	17.0482	59.580049	0.000203	2.027214	0.686839	0.000081
 430	4.2685e+01	17.0819	59.725386	0.000365	3.648986	1.236310	0.000146
 431	4.2785e+01	17.1220	59.810166	0.000213	2.128575	0.721181	0.000085
 432	4.2885e+01	17.1733	59.927243	0.000294	2.939461	0.995916	0.000118
 433	4.2984e+01	17.2038	60.048357	0.000304	3.040821	1.030258	0.000122
 434	4.3084e+01	17.2423	60.141211	0.000233	2.331296	0.789865	0.000093
 435	4.3183e+01	17.2840	60.294622	0.000385	3.851707	1.304994	0.000154
 436	4.3282e+01	17.3273	60.375365	0.000203	2.027214	0.686839	0.000081
 437	4.3382e+01	17.3642	60.504553	0.000324	3.243543	1.098942	0.000130
 438	4.3481e+01	17.4011	60.641816	0.000345	3.446264	1.167626	0.000138
 439	4.3581e+01	17.4589	60.746781	0.000264	2.635379	0.892890	0.000105
 440	4.3681e+01	17.4958	60.880007	0.000334	3.344904	1.133284	0.000134
 441	4.3780e+01	17.5246	60.940564	0.000152	1.520411	0.515129	0.000061
 442	4.3880e+01	17.5696	61.093975	0.000385	3.851707	1.304994	0.000154
 443	4.3979e+01	17.6129	61.190866	0.000243	2.432657	0.824207	0.000097
 444	4.4078e+01	17.6466	61.332166	0.000355	3.547625	1.201968	0.000142
 445	4.4178e+01	17.6867	61.429057	0.000243	2.432657	0.824207	0.000097
 446	4.4278e+01	17.7252	61.513837	0.000213	2.128575	0.721181	0.000085
 447	4.4377e+01	17.7637	61.655137	0.000355	3.547625	1.201968	0.000142
 448	4.4477e+01	17.8070	61.739917	0.000213	2.128575	0.721181	0.000085
 449	4.4576e+01	17.8471	61.873142	0.000334	3.344904	1.133284	0.000134
 450	4.4675e+01	17.8824	61.998294	0.000314	3.142182	1.064600	0.000126
 451	4.4775e+01	17.9177	62.083073	0.000213	2.128575	0.721181	0.000085
 452	4.4874e+01	17.9690	62.204187	0.000304	3.040821	1.030258	0.000122
 453	4.4974e+01	18.0075	62.309153	0.000264	2.635379	0.892890	0.000105
 454	4.5074e+01	18.0476	62.446416	0.000345	3.446264	1.167626	0.000138
 455	4.5173e+01	18.0893	62.531195	0.000213	2.128575	0.721181	0.000085
 456	4.5273e+01	18.1198	62.644235	0.000284	2.838100	0.961574	0.000114
 457	4.5372e+01	18.1711	62.777461	0.000334	3.344904	1.133284	0.000134
 458	4.5471e+01	18.2064	62.829943	0.000132	1.317689	0.446445	0.000053
 459	4.5571e+01	18.2369	62.987392	0.000395	3.953068	1.339336	0.000158
 460	4.5670e+01	18.2770	63.096394	0.000274	2.736739	0.927232	0.000110
 461	4.5770e+01	18.3123	63.197323	0.000253	2.534018	0.858548	0.000101
 462	4.5870e+01	18.3685	63.338623	0.000355	3.547625	1.201968	0.000142
 463	4.5969e+01	18.4150	63.423402	0.000213	2.128575	0.721181	0.000085
 464	4.6069e+01	18.4407	63.504145	0.000203	2.027214	0.686839	0.000081
 465	4.6168e+01	18.4776	63.641408	0.000345	3.446264	1.167626	0.000138
 466	4.6267e+01	18.5289	63.750410	0.000274	2.736739	0.927232	0.000110
 467	4.6367e+01	18.5513	63.831153	0.000203	2.027214	0.686839	0.000081
 468	4.6467e+01	18.5979	63.956304	0.000314	3.142182	1.064600	0.000126
 469	4.6566e+01	18.6412	64.061270	0.000264	2.635379	0.892890	0.000105
 470	4.6666e+01	18.6941	64.202570	0.000355	3.547625	1.201968	0.000142
 471	4.6765e+01	18.7150	64.267164	0.000162	1.621771	0.549471	0.000065
 472	4.6864e+01	18.7615	64.380204	0.000284	2.838100	0.961574	0.000114
 473	4.6964e+01	18.7984	64.485169	0.000264	2.635379	0.892890	0.000105
 474	4.7063e+01	18.8465	64.634543	0.000375	3.750346	1.270652	0.000150
 475	4.7163e+01	18.8754	64.699137	0.000162	1.621771	0.549471	0.000065
 476	4.7263e+01	18.9171	64.791991	0.000233	2.331296	0.789865	0.000093
 477	4.7362e+01	18.9572	64.937328	0.000365	3.648986	1.236310	0.000146
 478	4.7462e+01	19.0005	65.090740	0.000385	3.851707	1.304994	0.000154
 479	4.7561e+01	19.0342	65.195705	0.000264	2.635379	0.892890	0.000105
 480	4.7660e+01	19.0823	65.272411	0.000193	1.925854	0.652497	0.000077
 481	4.7760e+01	19.1096	65.393525	0.000304	3.040821	1.030258	0.000122
 482	4.7859e+01	19.1545	65.450045	0.000142	1.419050	0.480787	0.000057
 483	4.7959e+01	19.2027	65.591344	0.000355	3.547625	1.201968	0.000142
 484	4.8059e+01	19.2364	65.700347	0.000274	2.736739	0.927232	0.000110
 485	4.8158e+01	19.2845	65.781090	0.000203	2.027214	0.686839	0.000081
 486	4.8258e+01	19.3150	65.930464	0.000375	3.750346	1.270652	0.000150
 487	4.8357e+01	19.3663	66.011206	0.000203	2.027214	0.686839	0.000081
 488	4.8456e+01	19.3904	66.104061	0.000233	2.331296	0.789865	0.000093
 489	4.8556e+01	19.4417	66.184803	0.000203	2.027214	0.686839	0.000081
 490	4.8656e+01	19.4738	66.313992	0.000324	3.243543	1.098942	0.000130
 491	4.8755e+01	19.5251	66.435106	0.000304	3.040821	1.030258	0.000122
 492	4.8855e+01	19.5524	66.527960	0.000233	2.331296	0.789865	0.000093
 493	4.8954e+01	19.5989	66.636962	0.000274	2.736739	0.927232	0.000110
 494	4.9053e+01	19.6406	66.758077	0.000304	3.040821	1.030258	0.000122
 495	4.9153e+01	19.6695	66.859005	0.000253	2.534018	0.858548	0.000101
 496	4.9252e+01	19.7208	66.972045	0.000284	2.838100	0.961574	0.000114
 497	4.9352e+01	19.7481	67.048750	0.000193	1.925854	0.652497	0.000077
 498	4.9452e+01	19.7914	67.210236	0.000405	4.054429	1.373678	0.000162
 499	4.9551e+01	19.8315	67.274830	0.000162	1.621771	0.549471	0.000065
 500	4.9651e+01	19.8764	67.351536	0.000193	1.925854	0.652497	0.000077
 501	4.9750e+01	19.9278	67.500910	0.000375	3.750346	1.270652	0.000150
 502	4.9849e+01	19.9486	67.601838	0.000253	2.534018	0.858548	0.000101
 503	4.9949e+01	19.9952	67.682581	0.000203	2.027214	0.686839	0.000081
 504	5.0048e+01	19.9551	67.585689	0.000243	2.432657	0.824207	-0.000097
 505	5.0148e+01	19.9069	67.549355	0.000091	0.912246	0.309077	-0.000037
 506	5.0248e+01	19.8716	67.420167	0.000324	3.243543	1.098942	-0.000130
 507	5.0347e+01	19.8395	67.355573	0.000162	1.621771	0.549471	-0.000065
 508	5.0447e+01	19.7946	67.282904	0.000182	1.824493	0.618155	-0.000073
 509	5.0546e+01	19.7529	67.177939	0.000264	2.635379	0.892890	-0.000105
 510	5.0645e+01	19.7192	67.133530	0.000111	1.114968	0.377761	-0.000045
 511	5.0745e+01	19.6839	67.032602	0.000253	2.534018	0.858548	-0.000101
 512	5.0844e+01	19.6294	66.915525	0.000294	2.939461	0.995916	-0.000118
 513	5.0944e+01	19.5989	66.838819	0.000193	1.925854	0.652497	-0.000077
 514	5.1044e+01	19.5556	66.741928	0.000243	2.432657	0.824207	-0.000097
 515	5.1143e+01	19.5139	66.673297	0.000172	1.723132	0.583813	-0.000069
 516	5.1242e+01	19.4754	66.568331	0.000264	2.635379	0.892890	-0.000105
 517	5.1342e+01	19.4337	66.487588	0.000203	2.027214	0.686839	-0.000081
 518	5.1441e+01	19.4016	66.370512	0.000294	2.939461	0.995916	-0.000118
 519	5.1541e+01	19.3470	66.309954	0.000152	1.520411	0.515129	-0.000061
 520	5.1641e+01	19.3214	66.164618	0.000365	3.648986	1.236310	-0.000146
 521	5.1740e+01	19.2700	66.104061	0.000152	1.520411	0.515129	-0.000061
 522	5.1840e+01	19.2428	66.011206	0.000233	2.331296	0.789865	-0.000093
 523	5.1939e+01	19.1995	65.902204	0.000274	2.736739	0.927232	-0.000110
 524	5.2038e+01	19.1529	65.773015	0.000324	3.243543	1.098942	-0.000130
 525	5.2138e+01	19.1192	65.724570	0.000122	1.216329	0.412103	-0.000049
 526	5.2237e+01	19.0775	65.619604	0.000264	2.635379	0.892890	-0.000105
 527	5.2337e+01	19.0358	65.542899	0.000193	1.925854	0.652497	-0.000077
 528	5.2437e+01	18.9941	65.413710	0.000324	3.243543	1.098942	-0.000130
 529	5.2536e+01	18.9540	65.349116	0.000162	1.621771	0.549471	-0.000065
 530	5.2636e+01	18.9283	65.248188	0.000253	2.534018	0.858548	-0.000101
 531	5.2735e+01	18.8834	65.171482	0.000193	1.925854	0.652497	-0.000077
 532	5.2834e+01	18.8337	65.062480	0.000274	2.736739	0.927232	-0.000110
 533	5.2934e+01	18.7952	64.957514	0.000264	2.635379	0.892890	-0.000105
 534	5.3033e+01	18.7663	64.864660	0.000233	2.331296	0.789865	-0.000093
 535	5.3133e+01	18.7246	64.779880	0.000213	2.128575	0.721181	-0.000085
 536	5.3233e+01	18.6845	64.646655	0.000334	3.344904	1.133284	-0.000134
 537	5.3332e+01	18.6332	64.578023	0.000172	1.723132	0.583813	-0.000069
 538	5.3431e+01	18.6059	64.517466	0.000152	1.520411	0.515129	-0.000061
 539	5.3531e+01	18.5626	64.388278	0.000324	3.243543	1.098942	-0.000130
 540	5.3630e+01	18.5225	64.295424	0.000233	2.331296	0.789865	-0.000093
 541	5.3730e+01	18.4743	64.234867	0.000152	1.520411	0.515129	-0.000061
 542	5.3830e+01	18.4391	64.146050	0.000223	2.229936	0.755523	-0.000089
 543	5.3929e+01	18.4086	64.033010	0.000284	2.838100	0.961574	-0.000114
 544	5.4029e+01	18.3653	63.944193	0.000223	2.229936	0.755523	-0.000089
 545	5.4128e+01	18.3252	63.819042	0.000314	3.142182	1.064600	-0.000126
 546	5.4227e+01	18.2834	63.722150	0.000243	2.432657	0.824207	-0.000097
 547	5.4327e+01	18.2433	63.657556	0.000162	1.621771	0.549471	-0.000065
 548	5.4426e+01	18.2032	63.576814	0.000203	2.027214	0.686839	-0.000081
 549	5.4526e+01	18.1695	63.455700	0.000304	3.040821	1.030258	-0.000122
 550	5.4626e+01	18.1150	63.350734	0.000264	2.635379	0.892890	-0.000105
 551	5.4725e+01	18.0781	63.225583	0.000314	3.142182	1.064600	-0.000126
 552	5.4825e+01	18.0412	63.144840	0.000203	2.027214	0.686839	-0.000081
 553	5.4924e+01	18.0123	63.080246	0.000162	1.621771	0.549471	-0.000065
 554	5.5023e+01	17.9594	62.942983	0.000345	3.446264	1.167626	-0.000138
 555	5.5123e+01	17.9289	62.870315	0.000182	1.824493	0.618155	-0.000073
 556	5.5222e+01	17.8776	62.781498	0.000223	2.229936	0.755523	-0.000089
 557	5.5322e+01	17.8439	62.696718	0.000213	2.128575	0.721181	-0.000085
 558	5.5422e+01	17.7990	62.539270	0.000395	3.953068	1.339336	-0.000158
 559	5.5521e+01	17.7685	62.462564	0.000193	1.925854	0.652497	-0.000077
 560	5.5620e+01	17.7300	62.373747	0.000223	2.229936	0.755523	-0.000089
 561	5.5720e+01	17.6819	62.276856	0.000243	2.432657	0.824207	-0.000097
 562	5.5819e+01	17.6417	62.188039	0.000223	2.229936	0.755523	-0.000089
 563	5.5919e+01	17.5984	62.050776	0.000345	3.446264	1.167626	-0.000138
 564	5.6019e+01	17.5631	61.978108	0.000182	1.824493	0.618155	-0.000073
 565	5.6118e+01	17.5246	61.893328	0.000213	2.128575	0.721181	-0.000085
 566	5.6218e+01	17.4845	61.788362	0.000264	2.635379	0.892890	-0.000105
 567	5.6317e+01	17.4492	61.630914	0.000395	3.953068	1.339336	-0.000158
 568	5.6416e+01	17.4156	61.566320	0.000162	1.621771	0.549471	-0.000065
 569	5.6516e+01	17.3642	61.509800	0.000142	1.419050	0.480787	-0.000057
 570	5.6615e+01	17.3289	61.400797	0.000274	2.736739	0.927232	-0.000110
 571	5.6715e+01	17.2840	61.247386	0.000385	3.851707	1.304994	-0.000154
 572	5.6815e+01	17.2359	61.150495	0.000243	2.432657	0.824207	-0.000097
 573	5.6914e+01	17.1926	61.057641	0.000233	2.331296	0.789865	-0.000093
 574	5.7014e+01	17.1717	60.952675	0.000264	2.635379	0.892890	-0.000105
 575	5.7113e+01	17.1236	60.871933	0.000203	2.027214	0.686839	-0.000081
 576	5.7212e+01	17.0867	60.750819	0.000304	3.040821	1.030258	-0.000122
 577	5.7312e+01	17.0498	60.670076	0.000203	2.027214	0.686839	-0.000081
 578	5.7411e+01	17.0033	60.573185	0.000243	2.432657	0.824207	-0.000097
 579	5.7511e+01	16.9696	60.448033	0.000314	3.142182	1.064600	-0.000126
 580	5.7611e+01	16.9263	60.355179	0.000233	2.331296	0.789865	-0.000093
 581	5.7710e+01	16.8797	60.290585	0.000162	1.621771	0.549471	-0.000065
 582	5.7809e+01	16.8509	60.145248	0.000365	3.648986	1.236310	-0.000146
 583	5.7909e+01	16.8043	60.032208	0.000284	2.838100	0.961574	-0.000114
 584	5.8008e+01	16.7690	59.923206	0.000274	2.736739	0.927232	-0.000110
 585	5.8108e+01	16.7209	59.830352	0.000233	2.331296	0.789865	-0.000093
 586	5.8208e+01	16.6904	59.725386	0.000264	2.635379	0.892890	-0.000105
 587	5.8307e+01	16.6535	59.596198	0.000324	3.243543	1.098942	-0.000130
 588	5.8407e+01	16.6086	59.511418	0.000213	2.128575	0.721181	-0.000085
 589	5.8506e+01	16.5733	59.446824	0.000162	1.621771	0.549471	-0.000065
 590	5.8605e+01	16.5268	59.317635	0.000324	3.243543	1.098942	-0.000130
 591	5.8705e+01	16.4803	59.208633	0.000274	2.736739	0.927232	-0.000110
 592	5.8804e+01	16.4530	59.131927	0.000193	1.925854	0.652497	-0.000077
 593	5.8904e+01	16.4049	59.055222	0.000193	1.925854	0.652497	-0.000077
 594	5.9004e+01	16.3712	58.909885	0.000365	3.648986	1.236310	-0.000146
 595	5.9103e+01	16.3327	58.821068	0.000223	2.229936	0.755523	-0.000089
 596	5.9203e+01	16.2862	58.703991	0.000294	2.939461	0.995916	-0.000118
 597	5.9302e+01	16.2477	58.599025	0.000264	2.635379	0.892890	-0.000105
 598	5.9401e+01	16.2028	58.498097	0.000253	2.534018	0.858548	-0.000101
 599	5.9501e+01	16.1675	58.393131	0.000264	2.635379	0.892890	-0.000105
 600	5.9600e+01	16.1290	58.292203	0.000253	2.534018	0.858548	-0.000101
 601	5.9700e+01	16.0937	58.171089	0.000304	3.040821	1.030258	-0.000122
 602	5.9800e+01	16.0503	58.078235	0.000233	2.331296	0.789865	-0.000093
 603	5.9899e+01	16.0167	57.993455	0.000213	2.128575	0.721181	-0.000085
 604	5.9998e+01	15.9669	57.860229	0.000334	3.344904	1.133284	-0.000134
 605	6.0098e+01	15.9316	57.771412	0.000223	2.229936	0.755523	-0.000089
 606	6.0197e+01	15.8867	57.658373	0.000284	2.838100	0.961574	-0.000114
 607	6.0297e+01	15.8466	57.569556	0.000223	2.229936	0.755523	-0.000089
 608	6.0397e+01	15.8129	57.464590	0.000264	2.635379	0.892890	-0.000105
 609	6.0496e+01	15.7712	57.327327	0.000345	3.446264	1.167626	-0.000138
 610	6.0596e+01	15.7391	57.222362	0.000264	2.635379	0.892890	-0.000105
 611	6.0695e+01	15.6862	57.129508	0.000233	2.331296	0.789865	-0.000093
 612	6.0794e+01	15.6525	57.012431	0.000294	2.939461	0.995916	-0.000118
 613	6.0894e+01	15.6188	56.939762	0.000182	1.824493	0.618155	-0.000073
 614	6.0993e+01	15.5755	56.830760	0.000274	2.736739	0.927232	-0.000110
 615	6.1093e+01	15.5242	56.701571	0.000324	3.243543	1.098942	-0.000130
 616	6.1193e+01	15.4953	56.596606	0.000264	2.635379	0.892890	-0.000105
 617	6.1292e+01	15.4648	56.475492	0.000304	3.040821	1.030258	-0.000122
 618	6.1392e+01	15.4022	56.382638	0.000233	2.331296	0.789865	-0.000093
 619	6.1491e+01	15.3718	56.261524	0.000304	3.040821	1.030258	-0.000122
 620	6.1590e+01	15.3268	56.168670	0.000233	2.331296	0.789865	-0.000093
 621	6.1690e+01	15.2915	56.055630	0.000284	2.838100	0.961574	-0.000114
 622	6.1789e+01	15.2579	55.910293	0.000365	3.648986	1.236310	-0.000146
 623	6.1889e+01	15.2113	55.797253	0.000284	2.838100	0.961574	-0.000114
 624	6.1989e+01	15.1809	55.696325	0.000253	2.534018	0.858548	-0.000101
 625	6.2088e+01	15.1295	55.599433	0.000243	2.432657	0.824207	-0.000097
 626	6.2188e+01	15.0942	55.474282	0.000314	3.142182	1.064600	-0.000126
 627	6.2287e+01	15.0605	55.381428	0.000233	2.331296	0.789865	-0.000093
 628	6.2386e+01	15.0076	55.256277	0.000314	3.142182	1.064600	-0.000126
 629	6.2486e+01	14.9787	55.139200	0.000294	2.939461	0.995916	-0.000118
 630	6.2586e+01	14.9386	55.022123	0.000294	2.939461	0.995916	-0.000118
 631	6.2685e+01	14.8969	54.925232	0.000243	2.432657	0.824207	-0.000097
 632	6.2785e+01	14.8648	54.820266	0.000264	2.635379	0.892890	-0.000105
 633	6.2884e+01	14.8119	54.674929	0.000365	3.648986	1.236310	-0.000146
 634	6.2983e+01	14.7798	54.590149	0.000213	2.128575	0.721181	-0.000085
 635	6.3083e+01	14.7301	54.509407	0.000203	2.027214	0.686839	-0.000081
 636	6.3182e+01	14.7012	54.372144	0.000345	3.446264	1.167626	-0.000138
 637	6.3282e+01	14.6563	54.251030	0.000304	3.040821	1.030258	-0.000122
 638	6.3382e+01	14.6178	54.162213	0.000223	2.229936	0.755523	-0.000089
 639	6.3481e+01	14.5777	54.020913	0.000355	3.547625	1.201968	-0.000142
 640	6.3581e+01	14.5360	53.928059	0.000233	2.331296	0.789865	-0.000093
 641	6.3680e+01	14.4975	53.827131	0.000253	2.534018	0.858548	-0.000101
 642	6.3779e+01	14.4638	53.697942	0.000324	3.243543	1.098942	-0.000130
 643	6.3879e+01	14.4188	53.580866	0.000294	2.939461	0.995916	-0.000118
 644	6.3978e+01	14.3852	53.471863	0.000274	2.736739	0.927232	-0.000110
 645	6.4078e+01	14.3483	53.379009	0.000233	2.331296	0.789865	-0.000093
 646	6.4177e+01	14.2953	53.249820	0.000324	3.243543	1.098942	-0.000130
 647	6.4277e+01	14.2520	53.140818	0.000274	2.736739	0.927232	-0.000110
 648	6.4376e+01	14.2071	53.056038	0.000213	2.128575	0.721181	-0.000085
 649	6.4476e+01	14.1766	52.914738	0.000355	3.547625	1.201968	-0.000142
 650	6.4576e+01	14.1429	52.825921	0.000223	2.229936	0.755523	-0.000089
 651	6.4675e+01	14.0980	52.676547	0.000375	3.750346	1.270652	-0.000150
 652	6.4775e+01	14.0547	52.551396	0.000314	3.142182	1.064600	-0.000126
 653	6.4874e+01	14.0290	52.442393	0.000274	2.736739	0.927232	-0.000110
 654	6.4974e+01	13.9809	52.309168	0.000334	3.344904	1.133284	-0.000134
 655	6.5073e+01	13.9408	52.252648	0.000142	1.419050	0.480787	-0.000057
 656	6.5172e+01	13.8975	52.099237	0.000385	3.851707	1.304994	-0.000154
 657	6.5272e+01	13.8670	51.998308	0.000253	2.534018	0.858548	-0.000101
 658	6.5371e+01	13.8205	51.933714	0.000162	1.621771	0.549471	-0.000065
 659	6.5471e+01	13.7739	51.776266	0.000395	3.953068	1.339336	-0.000158
 660	6.5570e+01	13.7322	51.655152	0.000304	3.040821	1.030258	-0.000122
 661	6.5670e+01	13.7001	51.521926	0.000334	3.344904	1.133284	-0.000134
 662	6.5769e+01	13.6552	51.469444	0.000132	1.317689	0.446445	-0.000053
 663	6.5869e+01	13.6087	51.311995	0.000395	3.953068	1.339336	-0.000158
 664	6.5969e+01	13.5750	51.186844	0.000314	3.142182	1.064600	-0.000126
 665	6.6068e+01	13.5365	51.077841	0.000274	2.736739	0.927232	-0.000110
 666	6.6168e+01	13.4916	50.972876	0.000264	2.635379	0.892890	-0.000105
 667	6.6267e+01	13.4563	50.855799	0.000294	2.939461	0.995916	-0.000118
 668	6.6367e+01	13.4210	50.718536	0.000345	3.446264	1.167626	-0.000138
 669	6.6466e+01	13.3777	50.585311	0.000334	3.344904	1.133284	-0.000134
 670	6.6566e+01	13.3456	50.516679	0.000172	1.723132	0.583813	-0.000069
 671	6.6665e+01	13.2959	50.371343	0.000365	3.648986	1.236310	-0.000146
 672	6.6764e+01	13.2590	50.314823	0.000142	1.419050	0.480787	-0.000057
 673	6.6864e+01	13.2157	50.149300	0.000416	4.155789	1.408020	-0.000166
 674	6.6963e+01	13.1868	50.028186	0.000304	3.040821	1.030258	-0.000122
 675	6.7063e+01	13.1387	49.907072	0.000304	3.040821	1.030258	-0.000122
 676	6.7162e+01	13.0970	49.794032	0.000284	2.838100	0.961574	-0.000114
 677	6.7262e+01	13.0649	49.701178	0.000233	2.331296	0.789865	-0.000093
 678	6.7362e+01	13.0183	49.567953	0.000334	3.344904	1.133284	-0.000134
 679	6.7461e+01	12.9815	49.438764	0.000324	3.243543	1.098942	-0.000130
 680	6.7561e+01	12.9462	49.301502	0.000345	3.446264	1.167626	-0.000138
 681	6.7660e+01	12.9028	49.216722	0.000213	2.128575	0.721181	-0.000085
 682	6.7760e+01	12.8692	49.135979	0.000203	2.027214	0.686839	-0.000081
 683	6.7859e+01	12.8307	49.010828	0.000314	3.142182	1.064600	-0.000126
 684	6.7959e+01	12.7841	48.865491	0.000365	3.648986	1.236310	-0.000146
 685	6.8058e+01	12.7520	48.760525	0.000264	2.635379	0.892890	-0.000105
 686	6.8157e+01	12.7087	48.651523	0.000274	2.736739	0.927232	-0.000110
 687	6.8257e+01	12.6590	48.522334	0.000324	3.243543	1.098942	-0.000130
 688	6.8356e+01	12.6301	48.425443	0.000243	2.432657	0.824207	-0.000097
 689	6.8456e+01	12.5772	48.296255	0.000324	3.243543	1.098942	-0.000130
 690	6.8555e+01	12.5403	48.171104	0.000314	3.142182	1.064600	-0.000126
 691	6.8655e+01	12.5146	48.049990	0.000304	3.040821	1.030258	-0.000122
 692	6.8754e+01	12.4745	47.912727	0.000345	3.446264	1.167626	-0.000138
 693	6.8854e+01	12.4296	47.763353	0.000375	3.750346	1.270652	-0.000150
 694	6.8954e+01	12.3831	47.654350	0.000274	2.736739	0.927232	-0.000110
 695	6.9053e+01	12.3462	47.533236	0.000304	3.040821	1.030258	-0.000122
 696	6.9153e+01	12.2980	47.432308	0.000253	2.534018	0.858548	-0.000101
 697	6.9252e+01	12.2724	47.303119	0.000324	3.243543	1.098942	-0.000130
 698	6.9352e+01	12.2226	47.190080	0.000284	2.838100	0.961574	-0.000114
 699	6.9451e+01	12.1890	47.048780	0.000355	3.547625	1.201968	-0.000142
 700	6.9550e+01	12.1489	46.931703	0.000294	2.939461	0.995916	-0.000118
 701	6.9650e+01	12.1087	46.806552	0.000314	3.142182	1.064600	-0.000126
 702	6.9749e+01	12.0622	46.697549	0.000274	2.736739	0.927232	-0.000110
 703	6.9849e+01	12.0237	46.596621	0.000253	2.534018	0.858548	-0.000101
 704	6.9948e+01	11.9884	46.447247	0.000375	3.750346	1.270652	-0.000150
 705	7.0048e+01	11.9483	46.309984	0.000345	3.446264	1.167626	-0.000138
 706	7.0147e+01	11.9082	46.209056	0.000253	2.534018	0.858548	-0.000101
 707	7.0247e+01	11.8777	46.091979	0.000294	2.939461	0.995916	-0.000118
 708	7.0347e+01	11.8280	45.987013	0.000264	2.635379	0.892890	-0.000105
 709	7.0446e+01	11.7879	45.853788	0.000334	3.344904	1.133284	-0.000134
 710	7.0546e+01	11.7494	45.728637	0.000314	3.142182	1.064600	-0.000126
 711	7.0645e+01	11.7109	45.615597	0.000284	2.838100	0.961574	-0.000114
 712	7.0745e+01	11.6724	45.486408	0.000324	3.243543	1.098942	-0.000130
 713	7.0844e+01	11.6371	45.377406	0.000274	2.736739	0.927232	-0.000110
 714	7.0944e+01	11.5890	45.248217	0.000324	3.243543	1.098942	-0.000130
 715	7.1043e+01	11.5457	45.151326	0.000243	2.432657	0.824207	-0.000097
 716	7.1142e+01	11.5056	45.026175	0.000314	3.142182	1.064600	-0.000126
 717	7.1242e+01	11.4735	44.868727	0.000395	3.953068	1.339336	-0.000158
 718	7.1341e+01	11.4270	44.739538	0.000324	3.243543	1.098942	-0.000130
 719	7.1441e+01	11.3965	44.638610	0.000253	2.534018	0.858548	-0.000101
 720	7.1540e+01	11.3499	44.501347	0.000345	3.446264	1.167626	-0.000138
 721	7.1640e+01	11.3130	44.416567	0.000213	2.128575	0.721181	-0.000085
 722	7.1740e+01	11.2729	44.271231	0.000365	3.648986	1.236310	-0.000146
 723	7.1839e+01	11.2312	44.117819	0.000385	3.851707	1.304994	-0.000154
 724	7.1939e+01	11.1943	44.008817	0.000274	2.736739	0.927232	-0.000110
 725	7.2038e+01	11.1558	43.879628	0.000324	3.243543	1.098942	-0.000130
 726	7.2138e+01	11.1141	43.746403	0.000334	3.344904	1.133284	-0.000134
 727	7.2237e+01	11.0660	43.649512	0.000243	2.432657	0.824207	-0.000097
 728	7.2337e+01	11.0323	43.524360	0.000314	3.142182	1.064600	-0.000126
 729	7.2436e+01	10.9922	43.403246	0.000304	3.040821	1.030258	-0.000122
 730	7.2535e+01	10.9553	43.282132	0.000304	3.040821	1.030258	-0.000122
 731	7.2635e+01	10.9024	43.152944	0.000324	3.243543	1.098942	-0.000130
 732	7.2734e+01	10.8751	42.991458	0.000405	4.054429	1.373678	-0.000162
 733	7.2834e+01	10.8318	42.890530	0.000253	2.534018	0.858548	-0.000101
 734	7.2933e+01	10.7949	42.761342	0.000324	3.243543	1.098942	-0.000130
 735	7.3033e+01	10.7564	42.616005	0.000365	3.648986	1.236310	-0.000146
 736	7.3132e+01	10.7099	42.498928	0.000294	2.939461	0.995916	-0.000118
 737	7.3232e+01	10.6714	42.377814	0.000304	3.040821	1.030258	-0.000122
 738	7.3332e+01	10.6345	42.232477	0.000365	3.648986	1.236310	-0.000146
 739	7.3431e+01	10.5911	42.103289	0.000324	3.243543	1.098942	-0.000130
 740	7.3531e+01	10.5559	41.986212	0.000294	2.939461	0.995916	-0.000118
 741	7.3630e+01	10.5109	41.861060	0.000314	3.142182	1.064600	-0.000126
 742	7.3730e+01	10.4692	41.752058	0.000274	2.736739	0.927232	-0.000110
 743	7.3829e+01	10.4291	41.582498	0.000426	4.257150	1.442361	-0.000170
 744	7.3928e+01	10.3890	41.489644	0.000233	2.331296	0.789865	-0.000093
 745	7.4028e+01	10.3457	41.368530	0.000304	3.040821	1.030258	-0.000122
 746	7.4127e+01	10.3200	41.239342	0.000324	3.243543	1.098942	-0.000130
 747	7.4227e+01	10.2799	41.126302	0.000284	2.838100	0.961574	-0.000114
 748	7.4326e+01	10.2302	40.936556	0.000476	4.763954	1.614071	-0.000191
 749	7.4426e+01	10.1901	40.855814	0.000203	2.027214	0.686839	-0.000081
 750	7.4525e+01	10.1548	40.702403	0.000385	3.851707	1.304994	-0.000154
 751	7.4625e+01	10.1163	40.581288	0.000304	3.040821	1.030258	-0.000122
 752	7.4725e+01	10.0714	40.419803	0.000405	4.054429	1.373678	-0.000162
 753	7.4824e+01	10.0409	40.314837	0.000264	2.635379	0.892890	-0.000105
 754	7.4924e+01	9.9960	40.169501	0.000365	3.648986	1.236310	-0.000146
 755	7.5023e+01	9.9639	40.056461	0.000284	2.838100	0.961574	-0.000114
 756	7.5123e+01	9.9110	39.955532	0.000253	2.534018	0.858548	-0.000101
 757	7.5222e+01	9.8773	39.785973	0.000426	4.257150	1.442361	-0.000170
 758	7.5322e+01	9.8372	39.668896	0.000294	2.939461	0.995916	-0.000118
 759	7.5421e+01	9.8003	39.515485	0.000385	3.851707	1.304994	-0.000154
 760	7.5520e+01	9.7505	39.386296	0.000324	3.243543	1.098942	-0.000130
 761	7.5620e+01	9.7168	39.273256	0.000284	2.838100	0.961574	-0.000114
 762	7.5719e+01	9.6703	39.140031	0.000334	3.344904	1.133284	-0.000134
 763	7.5819e+01	9.6366	39.002768	0.000345	3.446264	1.167626	-0.000138
 764	7.5918e+01	9.6013	38.901840	0.000253	2.534018	0.858548	-0.000101
 765	7.6018e+01	9.5516	38.760540	0.000355	3.547625	1.201968	-0.000142
 766	7.6118e+01	9.5147	38.574832	0.000466	4.662593	1.579729	-0.000187
 767	7.6217e+01	9.4794	38.510238	0.000162	1.621771	0.549471	-0.000065
 768	7.6317e+01	9.4409	38.312418	0.000497	4.966675	1.682755	-0.000199
 769	7.6416e+01	9.4024	38.183230	0.000324	3.243543	1.098942	-0.000130
 770	7.6516e+01	9.3575	38.066153	0.000294	2.939461	0.995916	-0.000118
 771	7.6615e+01	9.3174	37.932927	0.000334	3.344904	1.133284	-0.000134
 772	7.6715e+01	9.2853	37.799702	0.000334	3.344904	1.133284	-0.000134
 773	7.6814e+01	9.2356	37.662439	0.000345	3.446264	1.167626	-0.000138
 774	7.6913e+01	9.2051	37.553437	0.000274	2.736739	0.927232	-0.000110
 775	7.7013e+01	9.1554	37.379840	0.000436	4.358511	1.476703	-0.000174
 776	7.7112e+01	9.1153	37.270837	0.000274	2.736739	0.927232	-0.000110
 777	7.7212e+01	9.0848	37.125500	0.000365	3.648986	1.236310	-0.000146
 778	7.7311e+01	9.0511	37.004386	0.000304	3.040821	1.030258	-0.000122
 779	7.7411e+01	8.9981	36.867124	0.000345	3.446264	1.167626	-0.000138
 780	7.7510e+01	8.9645	36.721787	0.000365	3.648986	1.236310	-0.000146
 781	7.7610e+01	8.9211	36.588561	0.000334	3.344904	1.133284	-0.000134
 782	7.7710e+01	8.8826	36.471484	0.000294	2.939461	0.995916	-0.000118
 783	7.7809e+01	8.8377	36.322110	0.000375	3.750346	1.270652	-0.000150
 784	7.7909e+01	8.7928	36.184848	0.000345	3.446264	1.167626	-0.000138
 785	7.8008e+01	8.7607	36.059696	0.000314	3.142182	1.064600	-0.000126
 786	7.8108e+01	8.7222	35.922434	0.000345	3.446264	1.167626	-0.000138
 787	7.8207e+01	8.6789	35.769023	0.000385	3.851707	1.304994	-0.000154
 788	7.8306e+01	8.6516	35.643871	0.000314	3.142182	1.064600	-0.000126
 789	7.8406e+01	8.6003	35.478349	0.000416	4.155789	1.408020	-0.000166
 790	7.8505e+01	8.5650	35.421829	0.000142	1.419050	0.480787	-0.000057
 791	7.8605e+01	8.5217	35.228046	0.000487	4.865314	1.648413	-0.000195
 792	7.8704e+01	8.4768	35.094821	0.000334	3.344904	1.133284	-0.000134
 793	7.8804e+01	8.4335	34.925261	0.000426	4.257150	1.442361	-0.000170
 794	7.8903e+01	8.4030	34.808184	0.000294	2.939461	0.995916	-0.000118
 795	7.9003e+01	8.3629	34.650736	0.000395	3.953068	1.339336	-0.000158
 796	7.9103e+01	8.3196	34.529622	0.000304	3.040821	1.030258	-0.000122
 797	7.9202e+01	8.2762	34.408508	0.000304	3.040821	1.030258	-0.000122
 798	7.9302e+01	8.2458	34.230874	0.000446	4.459871	1.511045	-0.000179
 799	7.9401e+01	8.2040	34.109760	0.000304	3.040821	1.030258	-0.000122
 800	7.9501e+01	8.1575	33.984609	0.000314	3.142182	1.064600	-0.000126
 801	7.9600e+01	8.1174	33.802938	0.000456	4.561232	1.545387	-0.000183
 802	7.9700e+01	8.0837	33.661638	0.000355	3.547625	1.201968	-0.000142
 803	7.9799e+01	8.0516	33.536487	0.000314	3.142182	1.064600	-0.000126
 804	7.9898e+01	8.0003	33.403261	0.000334	3.344904	1.133284	-0.000134
 805	7.9998e+01	7.9634	33.253887	0.000375	3.750346	1.270652	-0.000150
 806	8.0097e+01	7.9217	33.152959	0.000253	2.534018	0.858548	-0.000101
 807	8.0197e+01	7.8816	32.947065	0.000517	5.169396	1.751439	-0.000207
 808	8.0296e+01	7.8511	32.846136	0.000253	2.534018	0.858548	-0.000101
 809	8.0396e+01	7.7982	32.668502	0.000446	4.459871	1.511045	-0.000179
 810	8.0496e+01	7.7629	32.547388	0.000304	3.040821	1.030258	-0.000122
 811	8.0595e+01	7.7292	32.365717	0.000456	4.561232	1.545387	-0.000183
 812	8.0695e+01	7.6891	32.244603	0.000304	3.040821	1.030258	-0.000122
 813	8.0794e+01	7.6394	32.083118	0.000405	4.054429	1.373678	-0.000162
 814	8.0894e+01	7.6041	31.953929	0.000324	3.243543	1.098942	-0.000130
 815	8.0993e+01	7.5672	31.824741	0.000324	3.243543	1.098942	-0.000130
 816	8.1093e+01	7.5255	31.667293	0.000395	3.953068	1.339336	-0.000158
 817	8.1192e+01	7.4837	31.534067	0.000334	3.344904	1.133284	-0.000134
 818	8.1291e+01	7.4501	31.400842	0.000334	3.344904	1.133284	-0.000134
 819	8.1391e+01	7.3987	31.227245	0.000436	4.358511	1.476703	-0.000174
 820	8.1490e+01	7.3618	31.085945	0.000355	3.547625	1.201968	-0.000142
 821	8.1590e+01	7.3249	30.980980	0.000264	2.635379	0.892890	-0.000105
 822	8.1689e+01	7.2880	30.835643	0.000365	3.648986	1.236310	-0.000146
 823	8.1789e+01	7.2479	30.662046	0.000436	4.358511	1.476703	-0.000174
 824	8.1888e+01	7.2062	30.508635	0.000385	3.851707	1.304994	-0.000154
 825	8.1988e+01	7.1661	30.395595	0.000284	2.838100	0.961574	-0.000114
 826	8.2088e+01	7.1308	30.226035	0.000426	4.257150	1.442361	-0.000170
 827	8.2187e+01	7.0795	30.072624	0.000385	3.851707	1.304994	-0.000154
 828	8.2287e+01	7.0506	29.955547	0.000294	2.939461	0.995916	-0.000118
 829	8.2386e+01	7.0041	29.794062	0.000405	4.054429	1.373678	-0.000162
 830	8.2486e+01	6.9592	29.624502	0.000426	4.257150	1.442361	-0.000170
 831	8.2585e+01	6.9207	29.483202	0.000355	3.547625	1.201968	-0.000142
 832	8.2684e+01	6.8806	29.333828	0.000375	3.750346	1.270652	-0.000150
 833	8.2784e+01	6.8501	29.228863	0.000264	2.635379	0.892890	-0.000105
 834	8.2883e+01	6.8003	29.067377	0.000405	4.054429	1.373678	-0.000162
 835	8.2983e+01	6.7683	28.922040	0.000365	3.648986	1.236310	-0.000146
 836	8.3082e+01	6.7282	28.740369	0.000456	4.561232	1.545387	-0.000183
 837	8.3182e+01	6.6800	28.619255	0.000304	3.040821	1.030258	-0.000122
 838	8.3281e+01	6.6479	28.465844	0.000385	3.851707	1.304994	-0.000154
 839	8.3381e+01	6.6078	28.324544	0.000355	3.547625	1.201968	-0.000142
 840	8.3481e+01	6.5774	28.150948	0.000436	4.358511	1.476703	-0.000174
 841	8.3580e+01	6.5276	28.066168	0.000213	2.128575	0.721181	-0.000085
 842	8.3680e+01	6.4891	27.868348	0.000497	4.966675	1.682755	-0.000199
 843	8.3779e+01	6.4586	27.731085	0.000345	3.446264	1.167626	-0.000138
 844	8.3879e+01	6.4073	27.605934	0.000314	3.142182	1.064600	-0.000126
 845	8.3978e+01	6.3688	27.452523	0.000385	3.851707	1.304994	-0.000154
 846	8.4078e+01	6.3319	27.266815	0.000466	4.662593	1.579729	-0.000187
 847	8.4177e+01	6.2870	27.161849	0.000264	2.635379	0.892890	-0.000105
 848	8.4276e+01	6.2597	27.004401	0.000395	3.953068	1.339336	-0.000158
 849	8.4376e+01	6.2116	26.871175	0.000334	3.344904	1.133284	-0.000134
 850	8.4475e+01	6.1731	26.665282	0.000517	5.169396	1.751439	-0.000207
 851	8.4575e+01	6.1362	26.580502	0.000213	2.128575	0.721181	-0.000085
 852	8.4674e+01	6.0961	26.406905	0.000436	4.358511	1.476703	-0.000174
 853	8.4774e+01	6.0480	26.237345	0.000426	4.257150	1.442361	-0.000170
 854	8.4874e+01	6.0079	26.108157	0.000324	3.243543	1.098942	-0.000130
 855	8.4973e+01	5.9838	25.934560	0.000436	4.358511	1.476703	-0.000174
 856	8.5073e+01	5.9357	25.817483	0.000294	2.939461	0.995916	-0.000118
 857	8.5172e+01	5.8907	25.643886	0.000436	4.358511	1.476703	-0.000174
 858	8.5272e+01	5.8538	25.506624	0.000345	3.446264	1.167626	-0.000138
 859	8.5371e+01	5.8089	25.345138	0.000405	4.054429	1.373678	-0.000162
 860	8.5471e+01	5.7704	25.159430	0.000466	4.662593	1.579729	-0.000187
 861	8.5570e+01	5.7287	25.001982	0.000395	3.953068	1.339336	-0.000158
 862	8.5669e+01	5.6886	24.856645	0.000365	3.648986	1.236310	-0.000146
 863	8.5769e+01	5.6533	24.715345	0.000355	3.547625	1.201968	-0.000142
 864	8.5868e+01	5.6020	24.590194	0.000314	3.142182	1.064600	-0.000126
 865	8.5968e+01	5.5731	24.408523	0.000456	4.561232	1.545387	-0.000183
 866	8.6067e+01	5.5298	24.263186	0.000365	3.648986	1.236310	-0.000146
 867	8.6167e+01	5.4881	24.138035	0.000314	3.142182	1.064600	-0.000126
 868	8.6266e+01	5.4464	23.948289	0.000476	4.763954	1.614071	-0.000191
 869	8.6366e+01	5.4095	23.815064	0.000334	3.344904	1.133284	-0.000134
 870	8.6466e+01	5.3742	23.645504	0.000426	4.257150	1.442361	-0.000170
 871	8.6565e+01	5.3293	23.516316	0.000324	3.243543	1.098942	-0.000130
 872	8.6665e+01	5.2859	23.350793	0.000416	4.155789	1.408020	-0.000166
 873	8.6764e+01	5.2587	23.217568	0.000334	3.344904	1.133284	-0.000134
 874	8.6864e+01	5.2073	23.035897	0.000456	4.561232	1.545387	-0.000183
 875	8.6963e+01	5.1704	22.878448	0.000395	3.953068	1.339336	-0.000158
 876	8.7063e+01	5.1335	22.721000	0.000395	3.953068	1.339336	-0.000158
 877	8.7162e+01	5.0966	22.559515	0.000405	4.054429	1.373678	-0.000162
 878	8.7261e+01	5.0646	22.410140	0.000375	3.750346	1.270652	-0.000150
 879	8.7361e+01	5.0068	22.276915	0.000334	3.344904	1.133284	-0.000134
 880	8.7460e+01	4.9747	22.115430	0.000405	4.054429	1.373678	-0.000162
 881	8.7560e+01	4.9394	21.962018	0.000385	3.851707	1.304994	-0.000154
 882	8.7659e+01	4.9090	21.836867	0.000314	3.142182	1.064600	-0.000126
 883	8.7759e+01	4.8544	21.655196	0.000456	4.561232	1.545387	-0.000183
 884	8.7859e+01	4.8143	21.473525	0.000456	4.561232	1.545387	-0.000183
 885	8.7958e+01	4.7790	21.336262	0.000345	3.446264	1.167626	-0.000138
 886	8.8058e+01	4.7293	21.190925	0.000365	3.648986	1.236310	-0.000146
 887	8.8157e+01	4.6940	21.037514	0.000385	3.851707	1.304994	-0.000154
 888	8.8257e+01	4.6619	20.896215	0.000355	3.547625	1.201968	-0.000142
 889	8.8356e+01	4.6218	20.710506	0.000466	4.662593	1.579729	-0.000187
 890	8.8456e+01	4.5721	20.484427	0.000568	5.676200	1.923149	-0.000227
 891	8.8555e+01	4.5368	20.435981	0.000122	1.216329	0.412103	-0.000049
 892	8.8654e+01	4.5015	20.270459	0.000416	4.155789	1.408020	-0.000166
 893	8.8754e+01	4.4646	20.104936	0.000416	4.155789	1.408020	-0.000166
 894	8.8853e+01	4.4229	19.931339	0.000436	4.358511	1.476703	-0.000174
 895	8.8953e+01	4.3731	19.786002	0.000365	3.648986	1.236310	-0.000146
 896	8.9052e+01	4.3411	19.677000	0.000274	2.736739	0.927232	-0.000110
 897	8.9152e+01	4.2961	19.442846	0.000588	5.878921	1.991833	-0.000235
 898	8.9251e+01	4.2592	19.269249	0.000436	4.358511	1.476703	-0.000174
 899	8.9351e+01	4.2143	19.099689	0.000426	4.257150	1.442361	-0.000170
 900	8.9451e+01	4.1822	18.970501	0.000324	3.243543	1.098942	-0.000130
 901	8.9550e+01	4.1325	18.804978	0.000416	4.155789	1.408020	-0.000166
 902	8.9650e+01	4.1052	18.659641	0.000365	3.648986	1.236310	-0.000146
 903	8.9749e+01	4.0571	18.518342	0.000355	3.547625	1.201968	-0.000142
 904	8.9849e+01	4.0234	18.368968	0.000375	3.750346	1.270652	-0.000150
 905	8.9948e+01	3.9817	18.159037	0.000527	5.270757	1.785781	-0.000211
 906	9.0047e+01	3.9432	18.029848	0.000324	3.243543	1.098942	-0.000130
 907	9.0147e+01	3.9015	17.844140	0.000466	4.662593	1.579729	-0.000187
 908	9.0246e+01	3.8566	17.678617	0.000416	4.155789	1.408020	-0.000166
 909	9.0346e+01	3.8261	17.533281	0.000365	3.648986	1.236310	-0.000146
 910	9.0445e+01	3.7828	17.383906	0.000375	3.750346	1.270652	-0.000150
 911	9.0545e+01	3.7395	17.182050	0.000507	5.068036	1.717097	-0.000203
 912	9.0644e+01	3.6978	17.044787	0.000345	3.446264	1.167626	-0.000138
 913	9.0744e+01	3.6593	16.919636	0.000314	3.142182	1.064600	-0.000126
 914	9.0844e+01	3.6159	16.713742	0.000517	5.169396	1.751439	-0.000207
 915	9.0943e+01	3.5790	16.552257	0.000405	4.054429	1.373678	-0.000162
 916	9.1043e+01	3.5438	16.427105	0.000314	3.142182	1.064600	-0.000126
 917	9.1142e+01	3.5101	16.192951	0.000588	5.878921	1.991833	-0.000235
 918	9.1242e+01	3.4684	16.092023	0.000253	2.534018	0.858548	-0.000101
 919	9.1341e+01	3.4282	15.894203	0.000497	4.966675	1.682755	-0.000199
 920	9.1441e+01	3.3753	15.744829	0.000375	3.750346	1.270652	-0.000150
 921	9.1540e+01	3.3432	15.599492	0.000365	3.648986	1.236310	-0.000146
 922	9.1639e+01	3.2967	15.417821	0.000456	4.561232	1.545387	-0.000183
 923	9.1739e+01	3.2678	15.272484	0.000365	3.648986	1.236310	-0.000146
 924	9.1838e+01	3.2197	15.094851	0.000446	4.459871	1.511045	-0.000179
 925	9.1938e+01	3.1764	14.921254	0.000436	4.358511	1.476703	-0.000174
 926	9.2037e+01	3.1443	14.788028	0.000334	3.344904	1.133284	-0.000134
 927	9.2137e+01	3.0994	14.602320	0.000466	4.662593	1.579729	-0.000187
 928	9.2237e+01	3.0641	14.432760	0.000426	4.257150	1.442361	-0.000170
 929	9.2336e+01	3.0208	14.271275	0.000405	4.054429	1.373678	-0.000162
 930	9.2436e+01	2.9823	14.089604	0.000456	4.561232	1.545387	-0.000183
 931	9.2535e+01	2.9486	13.916007	0.000436	4.358511	1.476703	-0.000174
 932	9.2635e+01	2.9085	13.774707	0.000355	3.547625	1.201968	-0.000142
 933	9.2734e+01	2.8603	13.597073	0.000446	4.459871	1.511045	-0.000179
 934	9.2834e+01	2.8251	13.435588	0.000405	4.054429	1.373678	-0.000162
 935	9.2933e+01	2.7849	13.278139	0.000395	3.953068	1.339336	-0.000158
 936	9.3032e+01	2.7432	13.116654	0.000405	4.054429	1.373678	-0.000162
 937	9.3132e+01	2.7063	12.967280	0.000375	3.750346	1.270652	-0.000150
 938	9.3231e+01	2.6662	12.789646	0.000446	4.459871	1.511045	-0.000179
 939	9.3331e+01	2.6085	12.607975	0.000456	4.561232	1.545387	-0.000183
 940	9.3430e+01	2.5860	12.450527	0.000395	3.953068	1.339336	-0.000158
 941	9.3530e+01	2.5523	12.297115	0.000385	3.851707	1.304994	-0.000154
 942	9.3629e+01	2.5010	12.127556	0.000426	4.257150	1.442361	-0.000170
 943	9.3729e+01	2.4673	11.925699	0.000507	5.068036	1.717097	-0.000203
 944	9.3829e+01	2.4304	11.784399	0.000355	3.547625	1.201968	-0.000142
 945	9.3928e+01	2.3871	11.598691	0.000466	4.662593	1.579729	-0.000187
 946	9.4028e+01	2.3454	11.489688	0.000274	2.736739	0.927232	-0.000110
 947	9.4127e+01	2.3053	11.279757	0.000527	5.270757	1.785781	-0.000211
 948	9.4227e+01	2.2716	11.118272	0.000405	4.054429	1.373678	-0.000162
 949	9.4326e+01	2.2299	10.956786	0.000405	4.054429	1.373678	-0.000162
 950	9.4425e+01	2.1818	10.799338	0.000395	3.953068	1.339336	-0.000158
 951	9.4525e+01	2.1465	10.617667	0.000456	4.561232	1.545387	-0.000183
 952	9.4624e+01	2.1031	10.448107	0.000426	4.257150	1.442361	-0.000170
 953	9.4724e+01	2.0711	10.266436	0.000456	4.561232	1.545387	-0.000183
 954	9.4823e+01	2.0326	10.113025	0.000385	3.851707	1.304994	-0.000154
 955	9.4923e+01	1.9828	9.947502	0.000416	4.155789	1.408020	-0.000166
 956	9.5022e+01	1.9507	9.781980	0.000416	4.155789	1.408020	-0.000166
 957	9.5122e+01	1.9074	9.584160	0.000497	4.966675	1.682755	-0.000199
 958	9.5222e+01	1.8753	9.406526	0.000446	4.459871	1.511045	-0.000179
 959	9.5321e+01	1.8288	9.249078	0.000395	3.953068	1.339336	-0.000158
 960	9.5421e+01	1.7839	9.047221	0.000507	5.068036	1.717097	-0.000203
 961	9.5520e+01	1.7502	8.901884	0.000365	3.648986	1.236310	-0.000146
 962	9.5620e+01	1.7101	8.728287	0.000436	4.358511	1.476703	-0.000174
 963	9.5719e+01	1.6668	8.534505	0.000487	4.865314	1.648413	-0.000195
 964	9.5819e+01	1.6235	8.373020	0.000405	4.054429	1.373678	-0.000162
 965	9.5918e+01	1.5882	8.207497	0.000416	4.155789	1.408020	-0.000166
 966	9.6017e+01	1.5449	8.062160	0.000365	3.648986	1.236310	-0.000146
 967	9.6117e+01	1.5032	7.868378	0.000487	4.865314	1.648413	-0.000195
 968	9.6216e+01	1.4727	7.690744	0.000446	4.459871	1.511045	-0.000179
 969	9.6316e+01	1.4262	7.541370	0.000375	3.750346	1.270652	-0.000150
 970	9.6415e+01	1.3989	7.351624	0.000476	4.763954	1.614071	-0.000191
 971	9.6515e+01	1.3540	7.186102	0.000416	4.155789	1.408020	-0.000166
 972	9.6615e+01	1.3123	6.992319	0.000487	4.865314	1.648413	-0.000195
 973	9.6714e+01	1.2802	6.798537	0.000487	4.865314	1.648413	-0.000195
 974	9.6814e+01	1.2385	6.628977	0.000426	4.257150	1.442361	-0.000170
 975	9.6913e+01	1.1871	6.467491	0.000405	4.054429	1.373678	-0.000162
 976	9.7013e+01	1.1534	6.338303	0.000324	3.243543	1.098942	-0.000130
 977	9.7112e+01	1.1198	6.140483	0.000497	4.966675	1.682755	-0.000199
 978	9.7212e+01	1.0684	5.983035	0.000395	3.953068	1.339336	-0.000158
 979	9.7311e+01	1.0235	5.801364	0.000456	4.561232	1.545387	-0.000183
 980	9.7410e+01	0.9850	5.615656	0.000466	4.662593	1.579729	-0.000187
 981	9.7510e+01	0.9465	5.429948	0.000466	4.662593	1.579729	-0.000187
 982	9.7609e+01	0.9096	5.272499	0.000395	3.953068	1.339336	-0.000158
 983	9.7709e+01	0.8727	5.115051	0.000395	3.953068	1.339336	-0.000158
 984	9.7808e+01	0.8326	4.941454	0.000436	4.358511	1.476703	-0.000174
 985	9.7908e+01	0.7893	4.751709	0.000476	4.763954	1.614071	-0.000191
 986	9.8007e+01	0.7540	4.590223	0.000405	4.054429	1.373678	-0.000162
 987	9.8107e+01	0.7091	4.420664	0.000426	4.257150	1.442361	-0.000170
 988	9.8207e+01	0.6706	4.194584	0.000568	5.676200	1.923149	-0.000227
 989	9.8306e+01	0.6337	4.077507	0.000294	2.939461	0.995916	-0.000118
 990	9.8406e+01	0.5888	3.883725	0.000487	4.865314	1.648413	-0.000195
 991	9.8505e+01	0.5519	3.714165	0.000426	4.257150	1.442361	-0.000170
 992	9.8605e+01	0.5101	3.512308	0.000507	5.068036	1.717097	-0.000203
 993	9.8704e+01	0.4652	3.338711	0.000436	4.358511	1.476703	-0.000174
 994	9.8803e+01	0.4347	3.169152	0.000426	4.257150	1.442361	-0.000170
 995	9.8903e+01	0.3978	2.979406	0.000476	4.763954	1.614071	-0.000191
 996	9.9002e+01	0.3481	2.838106	0.000355	3.547625	1.201968	-0.000142
 997	9.9102e+01	0.3160	2.680658	0.000395	3.953068	1.339336	-0.000158
 998	9.9201e+01	0.2775	2.478801	0.000507	5.068036	1.717097	-0.000203
 999	9.9301e+01	0.2342	2.309242	0.000426	4.257150	1.442361	-0.000170
1000	9.9400e+01	0.2005	2.123533	0.000466	4.662593	1.579729	-0.000187
1001	9.9500e+01	0.1604	1.953974	0.000426	4.257150	1.442361	-0.000170
1002	9.9600e+01	0.1219	1.776340	0.000446	4.459871	1.511045	-0.000179
1003	9.9699e+01	0.0690	1.610817	0.000416	4.155789	1.408020	-0.000166
1004	9.9799e+01	0.0337	1.429146	0.000456	4.561232	1.545387	-0.000183
1005	9.9898e+01	-0.0016	1.287846	0.000355	3.547625	1.201968	-0.000142
1006	9.9998e+01	-0.0369	1.081952	0.000517	5.169396	1.751439	-0.000207
1007	1.0010e+02	-0.0834	0.932578	0.000375	3.750346	1.270652	-0.000150
1008	1.0020e+02	-0.1155	0.750907	0.000456	4.561232	1.545387	-0.000183
1009	1.0030e+02	-0.1572	0.601533	0.000375	3.750346	1.270652	-0.000150
1010	1.0040e+02	-0.2037	0.375454	0.000568	5.676200	1.923149	-0.000227
1011	1.0050e+02	-0.2438	0.234154	0.000355	3.547625	1.201968	-0.000142
1012	1.0059e+02	-0.2775	0.064594	0.000426	4.257150	1.442361	-0.000170
1013	1.0069e+02	-0.3176	-0.161485	0.000568	5.676200	1.923149	-0.000227
1014	1.0079e+02	-0.3513	-0.290674	0.000324	3.243543	1.098942	-0.000130
1015	1.0089e+02	-0.3995	-0.472345	0.000456	4.561232	1.545387	-0.000183
1016	1.0099e+02	-0.4444	-0.645942	0.000436	4.358511	1.476703	-0.000174
1017	1.0109e+02	-0.4829	-0.835687	0.000476	4.763954	1.614071	-0.000191
1018	1.0119e+02	-0.5134	-0.989098	0.000385	3.851707	1.304994	-0.000154
1019	1.0129e+02	-0.5535	-1.182881	0.000487	4.865314	1.648413	-0.000195
1020	1.0139e+02	-0.6064	-1.400886	0.000547	5.473479	1.854465	-0.000219
1021	1.0149e+02	-0.6385	-1.546223	0.000365	3.648986	1.236310	-0.000146
1022	1.0159e+02	-0.6770	-1.695597	0.000375	3.750346	1.270652	-0.000150
1023	1.0169e+02	-0.7107	-1.897454	0.000507	5.068036	1.717097	-0.000203
1024	1.0179e+02	-0.7540	-2.083162	0.000466	4.662593	1.579729	-0.000187
1025	1.0189e+02	-0.7925	-2.264833	0.000456	4.561232	1.545387	-0.000183
1026	1.0199e+02	-0.8390	-2.454579	0.000476	4.763954	1.614071	-0.000191
1027	1.0209e+02	-0.8775	-2.583767	0.000324	3.243543	1.098942	-0.000130
1028	1.0219e+02	-0.9208	-2.777549	0.000487	4.865314	1.648413	-0.000195
1029	1.0229e+02	-0.9481	-2.987480	0.000527	5.270757	1.785781	-0.000211
1030	1.0239e+02	-0.9946	-3.144929	0.000395	3.953068	1.339336	-0.000158
1031	1.0248e+02	-1.0299	-3.330637	0.000466	4.662593	1.579729	-0.000187
1032	1.0258e+02	-1.0845	-3.475974	0.000365	3.648986	1.236310	-0.000146
1033	1.0268e+02	-1.1149	-3.689942	0.000537	5.372118	1.820123	-0.000215
1034	1.0278e+02	-1.1454	-3.847390	0.000395	3.953068	1.339336	-0.000158
1035	1.0288e+02	-1.2000	-4.033099	0.000466	4.662593	1.579729	-0.000187
1036	1.0298e+02	-1.2304	-4.190547	0.000395	3.953068	1.339336	-0.000158
1037	1.0308e+02	-1.2689	-4.364144	0.000436	4.358511	1.476703	-0.000174
1038	1.0318e+02	-1.3074	-4.549852	0.000466	4.662593	1.579729	-0.000187
1039	1.0328e+02	-1.3620	-4.739597	0.000476	4.763954	1.614071	-0.000191
1040	1.0338e+02	-1.4021	-4.884934	0.000365	3.648986	1.236310	-0.000146
1041	1.0348e+02	-1.4390	-5.062568	0.000446	4.459871	1.511045	-0.000179
1042	1.0358e+02	-1.4727	-5.236165	0.000436	4.358511	1.476703	-0.000174
1043	1.0368e+02	-1.5208	-5.429948	0.000487	4.865314	1.648413	-0.000195
1044	1.0378e+02	-1.5545	-5.607582	0.000446	4.459871	1.511045	-0.000179
1045	1.0388e+02	-1.5962	-5.748881	0.000355	3.547625	1.201968	-0.000142
1046	1.0398e+02	-1.6283	-5.962849	0.000537	5.372118	1.820123	-0.000215
1047	1.0408e+02	-1.6652	-6.112224	0.000375	3.750346	1.270652	-0.000150
1048	1.0418e+02	-1.7133	-6.289857	0.000446	4.459871	1.511045	-0.000179
1049	1.0428e+02	-1.7582	-6.463454	0.000436	4.358511	1.476703	-0.000174
1050	1.0438e+02	-1.7983	-6.653200	0.000476	4.763954	1.614071	-0.000191
1051	1.0447e+02	-1.8368	-6.818722	0.000416	4.155789	1.408020	-0.000166
1052	1.0457e+02	-1.8786	-6.968096	0.000375	3.750346	1.270652	-0.000150
1053	1.0467e+02	-1.9058	-7.137656	0.000426	4.257150	1.442361	-0.000170
1054	1.0477e+02	-1.9491	-7.319327	0.000456	4.561232	1.545387	-0.000183
1055	1.0487e+02	-1.9909	-7.496961	0.000446	4.459871	1.511045	-0.000179
1056	1.0497e+02	-2.0342	-7.670558	0.000436	4.358511	1.476703	-0.000174
1057	1.0507e+02	-2.0711	-7.836080	0.000416	4.155789	1.408020	-0.000166
1058	1.0517e+02	-2.1080	-8.005640	0.000426	4.257150	1.442361	-0.000170
1059	1.0527e+02	-2.1449	-8.195386	0.000476	4.763954	1.614071	-0.000191
1060	1.0537e+02	-2.1898	-8.381094	0.000466	4.662593	1.579729	-0.000187
1061	1.0547e+02	-2.2203	-8.546616	0.000416	4.155789	1.408020	-0.000166
1062	1.0557e+02	-2.2780	-8.687916	0.000355	3.547625	1.201968	-0.000142
1063	1.0567e+02	-2.3069	-8.881699	0.000487	4.865314	1.648413	-0.000195
1064	1.0577e+02	-2.3502	-9.043184	0.000405	4.054429	1.373678	-0.000162
1065	1.0587e+02	-2.3935	-9.241004	0.000497	4.966675	1.682755	-0.000199
1066	1.0597e+02	-2.4288	-9.398452	0.000395	3.953068	1.339336	-0.000158
1067	1.0607e+02	-2.4689	-9.555900	0.000395	3.953068	1.339336	-0.000158
1068	1.0617e+02	-2.5106	-9.733534	0.000446	4.459871	1.511045	-0.000179
1069	1.0627e+02	-2.5443	-9.951540	0.000547	5.473479	1.854465	-0.000219
1070	1.0637e+02	-2.5924	-10.096876	0.000365	3.648986	1.236310	-0.000146
1071	1.0647e+02	-2.6213	-10.250288	0.000385	3.851707	1.304994	-0.000154
1072	1.0656e+02	-2.6678	-10.435996	0.000466	4.662593	1.579729	-0.000187
1073	1.0666e+02	-2.7112	-10.589407	0.000385	3.851707	1.304994	-0.000154
1074	1.0676e+02	-2.7432	-10.767041	0.000446	4.459871	1.511045	-0.000179
1075	1.0686e+02	-2.7898	-10.948712	0.000456	4.561232	1.545387	-0.000183
1076	1.0696e+02	-2.8299	-11.102123	0.000385	3.851707	1.304994	-0.000154
1077	1.0706e+02	-2.8716	-11.279757	0.000446	4.459871	1.511045	-0.000179
1078	1.0716e+02	-2.9101	-11.441243	0.000405	4.054429	1.373678	-0.000162
1079	1.0726e+02	-2.9454	-11.618877	0.000446	4.459871	1.511045	-0.000179
1080	1.0736e+02	-2.9759	-11.784399	0.000416	4.155789	1.408020	-0.000166
1081	1.0746e+02	-3.0368	-11.994330	0.000527	5.270757	1.785781	-0.000211
1082	1.0756e+02	-3.0689	-12.171964	0.000446	4.459871	1.511045	-0.000179
1083	1.0766e+02	-3.1090	-12.305190	0.000334	3.344904	1.133284	-0.000134
1084	1.0776e+02	-3.1395	-12.490898	0.000466	4.662593	1.579729	-0.000187
1085	1.0786e+02	-3.1844	-12.644309	0.000385	3.851707	1.304994	-0.000154
1086	1.0796e+02	-3.2261	-12.817906	0.000436	4.358511	1.476703	-0.000174
1087	1.0806e+02	-3.2582	-12.971317	0.000385	3.851707	1.304994	-0.000154
1088	1.0816e+02	-3.3079	-13.161063	0.000476	4.763954	1.614071	-0.000191
1089	1.0826e+02	-3.3432	-13.282177	0.000304	3.040821	1.030258	-0.000122
1090	1.0836e+02	-3.3817	-13.447699	0.000416	4.155789	1.408020	-0.000166
1091	1.0845e+02	-3.4218	-13.661667	0.000537	5.372118	1.820123	-0.000215
1092	1.0855e+02	-3.4667	-13.811041	0.000375	3.750346	1.270652	-0.000150
1093	1.0865e+02	-3.5052	-13.984638	0.000436	4.358511	1.476703	-0.000174
1094	1.0875e+02	-3.5502	-14.150161	0.000416	4.155789	1.408020	-0.000166
1095	1.0885e+02	-3.5823	-14.335869	0.000466	4.662593	1.579729	-0.000187
1096	1.0895e+02	-3.6208	-14.481206	0.000365	3.648986	1.236310	-0.000146
1097	1.0905e+02	-3.6641	-14.654803	0.000436	4.358511	1.476703	-0.000174
1098	1.0915e+02	-3.6962	-14.852622	0.000497	4.966675	1.682755	-0.000199
1099	1.0925e+02	-3.7395	-14.973736	0.000304	3.040821	1.030258	-0.000122
1100	1.0935e+02	-3.7860	-15.151370	0.000446	4.459871	1.511045	-0.000179
1101	1.0945e+02	-3.8309	-15.345153	0.000487	4.865314	1.648413	-0.000195
1102	1.0955e+02	-3.8630	-15.470304	0.000314	3.142182	1.064600	-0.000126
1103	1.0965e+02	-3.9111	-15.639864	0.000426	4.257150	1.442361	-0.000170
1104	1.0975e+02	-3.9464	-15.789238	0.000375	3.750346	1.270652	-0.000150
1105	1.0985e+02	-3.9897	-15.978983	0.000476	4.763954	1.614071	-0.000191
1106	1.0995e+02	-4.0250	-16.132394	0.000385	3.851707	1.304994	-0.000154
1107	1.1005e+02	-4.0571	-16.265620	0.000334	3.344904	1.133284	-0.000134
1108	1.1015e+02	-4.1084	-16.431142	0.000416	4.155789	1.408020	-0.000166
1109	1.1025e+02	-4.1325	-16.628962	0.000497	4.966675	1.682755	-0.000199
1110	1.1035e+02	-4.1822	-16.778336	0.000375	3.750346	1.270652	-0.000150
1111	1.1044e+02	-4.2239	-16.931747	0.000385	3.851707	1.304994	-0.000154
1112	1.1054e+02	-4.2624	-17.121493	0.000476	4.763954	1.614071	-0.000191
1113	1.1064e+02	-4.2913	-17.274904	0.000385	3.851707	1.304994	-0.000154
1114	1.1074e+02	-4.3394	-17.412166	0.000345	3.446264	1.167626	-0.000138
1115	1.1084e+02	-4.3780	-17.593838	0.000456	4.561232	1.545387	-0.000183
1116	1.1094e+02	-4.4357	-17.743212	0.000375	3.750346	1.270652	-0.000150
1117	1.1104e+02	-4.4614	-17.900660	0.000395	3.953068	1.339336	-0.000158
1118	1.1114e+02	-4.4999	-18.062145	0.000405	4.054429	1.373678	-0.000162
1119	1.1124e+02	-4.5400	-18.211519	0.000375	3.750346	1.270652	-0.000150
1120	1.1134e+02	-4.5897	-18.377042	0.000416	4.155789	1.408020	-0.000166
1121	1.1144e+02	-4.6186	-18.570824	0.000487	4.865314	1.648413	-0.000195
1122	1.1154e+02	-4.6523	-18.708087	0.000345	3.446264	1.167626	-0.000138
1123	1.1164e+02	-4.6940	-18.877647	0.000426	4.257150	1.442361	-0.000170
1124	1.1174e+02	-4.7421	-19.055281	0.000446	4.459871	1.511045	-0.000179
1125	1.1184e+02	-4.7854	-19.232915	0.000446	4.459871	1.511045	-0.000179
1126	1.1194e+02	-4.8239	-19.358066	0.000314	3.142182	1.064600	-0.000126
1127	1.1204e+02	-4.8496	-19.519551	0.000405	4.054429	1.373678	-0.000162
1128	1.1214e+02	-4.8945	-19.705260	0.000466	4.662593	1.579729	-0.000187
1129	1.1224e+02	-4.9330	-19.830411	0.000314	3.142182	1.064600	-0.000126
1130	1.1234e+02	-4.9827	-20.036305	0.000517	5.169396	1.751439	-0.000207
1131	1.1244e+02	-5.0132	-20.129159	0.000233	2.331296	0.789865	-0.000093
1132	1.1253e+02	-5.0533	-20.347164	0.000547	5.473479	1.854465	-0.000219
1133	1.1263e+02	-5.0999	-20.440018	0.000233	2.331296	0.789865	-0.000093
1134	1.1273e+02	-5.1400	-20.637838	0.000497	4.966675	1.682755	-0.000199
1135	1.1283e+02	-5.1817	-20.807398	0.000426	4.257150	1.442361	-0.000170
1136	1.1293e+02	-5.2202	-20.964846	0.000395	3.953068	1.339336	-0.000158
1137	1.1303e+02	-5.2555	-21.122294	0.000395	3.953068	1.339336	-0.000158
1138	1.1313e+02	-5.2892	-21.295891	0.000436	4.358511	1.476703	-0.000174
1139	1.1323e+02	-5.3325	-21.404894	0.000274	2.736739	0.927232	-0.000110
1140	1.1333e+02	-5.3790	-21.578491	0.000436	4.358511	1.476703	-0.000174
1141	1.1343e+02	-5.4159	-21.744013	0.000416	4.155789	1.408020	-0.000166
1142	1.1353e+02	-5.4576	-21.869164	0.000314	3.142182	1.064600	-0.000126
1143	1.1363e+02	-5.4945	-22.034687	0.000416	4.155789	1.408020	-0.000166
1144	1.1373e+02	-5.5394	-22.196172	0.000405	4.054429	1.373678	-0.000162
1145	1.1383e+02	-5.5859	-22.341509	0.000365	3.648986	1.236310	-0.000146
1146	1.1393e+02	-5.6132	-22.519143	0.000446	4.459871	1.511045	-0.000179
1147	1.1403e+02	-5.6629	-22.708889	0.000476	4.763954	1.614071	-0.000191
1148	1.1413e+02	-5.6902	-22.797706	0.000223	2.229936	0.755523	-0.000089
1149	1.1423e+02	-5.7432	-22.983414	0.000466	4.662593	1.579729	-0.000187
1150	1.1433e+02	-5.7720	-23.128751	0.000365	3.648986	1.236310	-0.000146
1151	1.1442e+02	-5.8218	-23.282162	0.000385	3.851707	1.304994	-0.000154
1152	1.1452e+02	-5.8587	-23.479981	0.000497	4.966675	1.682755	-0.000199
1153	1.1462e+02	-5.8875	-23.580910	0.000253	2.534018	0.858548	-0.000101
1154	1.1472e+02	-5.9308	-23.754507	0.000436	4.358511	1.476703	-0.000174
1155	1.1482e+02	-5.9806	-23.887732	0.000334	3.344904	1.133284	-0.000134
1156	1.1492e+02	-6.0143	-24.037106	0.000375	3.750346	1.270652	-0.000150
1157	1.1502e+02	-6.0608	-24.158220	0.000304	3.040821	1.030258	-0.000122
1158	1.1512e+02	-6.0961	-24.356040	0.000497	4.966675	1.682755	-0.000199
1159	1.1522e+02	-6.1346	-24.489265	0.000334	3.344904	1.133284	-0.000134
1160	1.1532e+02	-6.1731	-24.683048	0.000487	4.865314	1.648413	-0.000195
1161	1.1542e+02	-6.2196	-24.779939	0.000243	2.432657	0.824207	-0.000097
1162	1.1552e+02	-6.2549	-24.941425	0.000405	4.054429	1.373678	-0.000162
1163	1.1562e+02	-6.2998	-25.098873	0.000395	3.953068	1.339336	-0.000158
1164	1.1572e+02	-6.3303	-25.248247	0.000375	3.750346	1.270652	-0.000150
1165	1.1582e+02	-6.3768	-25.393584	0.000365	3.648986	1.236310	-0.000146
1166	1.1592e+02	-6.4073	-25.559106	0.000416	4.155789	1.408020	-0.000166
1167	1.1602e+02	-6.4522	-25.716555	0.000395	3.953068	1.339336	-0.000158
1168	1.1612e+02	-6.4859	-25.869966	0.000385	3.851707	1.304994	-0.000154
1169	1.1622e+02	-6.5308	-25.995117	0.000314	3.142182	1.064600	-0.000126
1170	1.1632e+02	-6.5741	-26.132380	0.000345	3.446264	1.167626	-0.000138
1171	1.1642e+02	-6.6126	-26.273679	0.000355	3.547625	1.201968	-0.000142
1172	1.1651e+02	-6.6511	-26.439202	0.000416	4.155789	1.408020	-0.000166
1173	1.1661e+02	-6.6961	-26.588576	0.000375	3.750346	1.270652	-0.000150
1174	1.1671e+02	-6.7282	-26.705653	0.000294	2.939461	0.995916	-0.000118
1175	1.1681e+02	-6.7715	-26.867138	0.000405	4.054429	1.373678	-0.000162
1176	1.1691e+02	-6.8100	-27.012475	0.000365	3.648986	1.236310	-0.000146
1177	1.1701e+02	-6.8388	-27.153775	0.000355	3.547625	1.201968	-0.000142
1178	1.1711e+02	-6.8870	-27.323335	0.000426	4.257150	1.442361	-0.000170
1179	1.1721e+02	-6.9271	-27.456560	0.000334	3.344904	1.133284	-0.000134
1180	1.1731e+02	-6.9640	-27.581711	0.000314	3.142182	1.064600	-0.000126
1181	1.1741e+02	-7.0153	-27.747234	0.000416	4.155789	1.408020	-0.000166
1182	1.1751e+02	-7.0458	-27.892571	0.000365	3.648986	1.236310	-0.000146
1183	1.1761e+02	-7.0891	-28.058093	0.000416	4.155789	1.408020	-0.000166
1184	1.1771e+02	-7.1276	-28.126725	0.000172	1.723132	0.583813	-0.000069
1185	1.1781e+02	-7.1661	-28.332619	0.000517	5.169396	1.751439	-0.000207
1186	1.1791e+02	-7.2126	-28.445658	0.000284	2.838100	0.961574	-0.000114
1187	1.1801e+02	-7.2447	-28.623292	0.000446	4.459871	1.511045	-0.000179
1188	1.1811e+02	-7.2928	-28.764592	0.000355	3.547625	1.201968	-0.000142
1189	1.1821e+02	-7.3233	-28.913966	0.000375	3.750346	1.270652	-0.000150
1190	1.1831e+02	-7.3650	-29.075452	0.000405	4.054429	1.373678	-0.000162
1191	1.1841e+02	-7.4100	-29.208677	0.000334	3.344904	1.133284	-0.000134
1192	1.1850e+02	-7.4485	-29.378237	0.000426	4.257150	1.442361	-0.000170
1193	1.1860e+02	-7.4886	-29.519537	0.000355	3.547625	1.201968	-0.000142
1194	1.1870e+02	-7.5335	-29.616428	0.000243	2.432657	0.824207	-0.000097
1195	1.1880e+02	-7.5640	-29.802136	0.000466	4.662593	1.579729	-0.000187
1196	1.1890e+02	-7.6105	-29.903064	0.000253	2.534018	0.858548	-0.000101
1197	1.1900e+02	-7.6490	-30.068587	0.000416	4.155789	1.408020	-0.000166
1198	1.1910e+02	-7.6939	-30.205850	0.000345	3.446264	1.167626	-0.000138
1199	1.1920e+02	-7.7292	-30.326964	0.000304	3.040821	1.030258	-0.000122
1200	1.1930e+02	-7.7693	-30.520746	0.000487	4.865314	1.648413	-0.000195
1201	1.1940e+02	-7.8030	-30.641860	0.000304	3.040821	1.030258	-0.000122
1202	1.1950e+02	-7.8447	-30.746826	0.000264	2.635379	0.892890	-0.000105
1203	1.1960e+02	-7.8928	-30.904274	0.000395	3.953068	1.339336	-0.000158
1204	1.1970e+02	-7.9233	-31.049611	0.000365	3.648986	1.236310	-0.000146
1205	1.1980e+02	-7.9586	-31.186874	0.000345	3.446264	1.167626	-0.000138
1206	1.1990e+02	-8.0099	-31.348359	0.000405	4.054429	1.373678	-0.000162
1207	1.2000e+02	-8.0452	-31.449287	0.000253	2.534018	0.858548	-0.000101
1208	1.2010e+02	-8.0789	-31.598661	0.000375	3.750346	1.270652	-0.000150
1209	1.2020e+02	-8.1286	-31.727850	0.000324	3.243543	1.098942	-0.000130
1210	1.2030e+02	-8.1655	-31.873187	0.000365	3.648986	1.236310	-0.000146
1211	1.2039e+02	-8.2040	-32.030635	0.000395	3.953068	1.339336	-0.000158
1212	1.2049e+02	-8.2345	-32.163860	0.000334	3.344904	1.133284	-0.000134
1213	1.2059e+02	-8.2810	-32.293049	0.000324	3.243543	1.098942	-0.000130
1214	1.2069e+02	-8.3324	-32.470683	0.000446	4.459871	1.511045	-0.000179
1215	1.2079e+02	-8.3581	-32.571611	0.000253	2.534018	0.858548	-0.000101
1216	1.2089e+02	-8.4030	-32.708874	0.000345	3.446264	1.167626	-0.000138
1217	1.2099e+02	-8.4479	-32.825951	0.000294	2.939461	0.995916	-0.000118
1218	1.2109e+02	-8.4784	-33.003585	0.000446	4.459871	1.511045	-0.000179
1219	1.2119e+02	-8.5249	-33.104513	0.000253	2.534018	0.858548	-0.000101
1220	1.2129e+02	-8.5650	-33.265998	0.000405	4.054429	1.373678	-0.000162
1221	1.2139e+02	-8.5955	-33.362890	0.000243	2.432657	0.824207	-0.000097
1222	1.2149e+02	-8.6452	-33.528412	0.000416	4.155789	1.408020	-0.000166
1223	1.2159e+02	-8.6805	-33.657601	0.000324	3.243543	1.098942	-0.000130
1224	1.2169e+02	-8.7238	-33.794863	0.000345	3.446264	1.167626	-0.000138
1225	1.2179e+02	-8.7575	-33.915977	0.000304	3.040821	1.030258	-0.000122
1226	1.2189e+02	-8.8072	-34.045166	0.000324	3.243543	1.098942	-0.000130
1227	1.2199e+02	-8.8313	-34.198577	0.000385	3.851707	1.304994	-0.000154
1228	1.2209e+02	-8.8778	-34.343914	0.000365	3.648986	1.236310	-0.000146
1229	1.2219e+02	-8.9195	-34.485213	0.000355	3.547625	1.201968	-0.000142
1230	1.2229e+02	-8.9580	-34.618439	0.000334	3.344904	1.133284	-0.000134
1231	1.2239e+02	-8.9949	-34.779924	0.000405	4.054429	1.373678	-0.000162
1232	1.2248e+02	-9.0366	-34.880853	0.000253	2.534018	0.858548	-0.000101
1233	1.2258e+02	-9.0848	-35.018115	0.000345	3.446264	1.167626	-0.000138
1234	1.2268e+02	-9.1249	-35.163452	0.000365	3.648986	1.236310	-0.000146
1235	1.2278e+02	-9.1666	-35.268418	0.000264	2.635379	0.892890	-0.000105
1236	1.2288e+02	-9.2051	-35.413755	0.000365	3.648986	1.236310	-0.000146
1237	1.2298e+02	-9.2484	-35.551017	0.000345	3.446264	1.167626	-0.000138
1238	1.2308e+02	-9.2853	-35.688280	0.000345	3.446264	1.167626	-0.000138
1239	1.2318e+02	-9.3174	-35.801320	0.000284	2.838100	0.961574	-0.000114
1240	1.2328e+02	-9.3623	-35.958768	0.000395	3.953068	1.339336	-0.000158
1241	1.2338e+02	-9.4056	-36.083919	0.000314	3.142182	1.064600	-0.000126
1242	1.2348e+02	-9.4425	-36.192922	0.000274	2.736739	0.927232	-0.000110
1243	1.2358e+02	-9.4858	-36.354407	0.000405	4.054429	1.373678	-0.000162
1244	1.2368e+02	-9.5211	-36.475521	0.000304	3.040821	1.030258	-0.000122
1245	1.2378e+02	-9.5596	-36.580487	0.000264	2.635379	0.892890	-0.000105
1246	1.2388e+02	-9.6013	-36.746009	0.000416	4.155789	1.408020	-0.000166
1247	1.2398e+02	-9.6286	-36.838864	0.000233	2.331296	0.789865	-0.000093
1248	1.2408e+02	-9.6767	-37.008423	0.000426	4.257150	1.442361	-0.000170
1249	1.2418e+02	-9.7088	-37.157797	0.000375	3.750346	1.270652	-0.000150
1250	1.2428e+02	-9.7537	-37.278911	0.000304	3.040821	1.030258	-0.000122
1251	1.2438e+02	-9.8035	-37.404063	0.000314	3.142182	1.064600	-0.000126
1252	1.2447e+02	-9.8356	-37.541325	0.000345	3.446264	1.167626	-0.000138
1253	1.2457e+02	-9.8837	-37.650328	0.000274	2.736739	0.927232	-0.000110
1254	1.2467e+02	-9.9142	-37.799702	0.000375	3.750346	1.270652	-0.000150
1255	1.2477e+02	-9.9607	-37.916779	0.000294	2.939461	0.995916	-0.000118
1256	1.2487e+02	-9.9976	-38.058079	0.000355	3.547625	1.201968	-0.000142
1257	1.2497e+02	-10.0329	-38.146896	0.000223	2.229936	0.755523	-0.000089
1258	1.2507e+02	-10.0810	-38.312418	0.000416	4.155789	1.408020	-0.000166
1259	1.2517e+02	-10.1227	-38.453718	0.000355	3.547625	1.201968	-0.000142
1260	1.2527e+02	-10.1564	-38.582906	0.000324	3.243543	1.098942	-0.000130
1261	1.2537e+02	-10.1981	-38.708057	0.000314	3.142182	1.064600	-0.000126
1262	1.2547e+02	-10.2302	-38.833209	0.000314	3.142182	1.064600	-0.000126
1263	1.2557e+02	-10.2751	-38.958360	0.000314	3.142182	1.064600	-0.000126
1264	1.2567e+02	-10.3232	-39.095622	0.000345	3.446264	1.167626	-0.000138
1265	1.2577e+02	-10.3521	-39.224811	0.000324	3.243543	1.098942	-0.000130
1266	1.2587e+02	-10.3954	-39.370148	0.000365	3.648986	1.236310	-0.000146
1267	1.2597e+02	-10.4371	-39.467039	0.000243	2.432657	0.824207	-0.000097
1268	1.2607e+02	-10.4756	-39.563930	0.000243	2.432657	0.824207	-0.000097
1269	1.2617e+02	-10.5125	-39.737527	0.000436	4.358511	1.476703	-0.000174
1270	1.2627e+02	-10.5494	-39.834418	0.000243	2.432657	0.824207	-0.000097
1271	1.2636e+02	-10.5976	-39.959570	0.000314	3.142182	1.064600	-0.000126
1272	1.2646e+02	-10.6329	-40.129129	0.000426	4.257150	1.442361	-0.000170
1273	1.2656e+02	-10.6730	-40.209872	0.000203	2.027214	0.686839	-0.000081
1274	1.2666e+02	-10.7163	-40.335023	0.000314	3.142182	1.064600	-0.000126
1275	1.2676e+02	-10.7484	-40.504583	0.000426	4.257150	1.442361	-0.000170
1276	1.2686e+02	-10.7933	-40.605511	0.000253	2.534018	0.858548	-0.000101
1277	1.2696e+02	-10.8334	-40.722588	0.000294	2.939461	0.995916	-0.000118
1278	1.2706e+02	-10.8767	-40.835628	0.000284	2.838100	0.961574	-0.000114
1279	1.2716e+02	-10.9120	-40.980965	0.000365	3.648986	1.236310	-0.000146
1280	1.2726e+02	-10.9601	-41.134376	0.000385	3.851707	1.304994	-0.000154
1281	1.2736e+02	-10.9922	-41.231267	0.000243	2.432657	0.824207	-0.000097
1282	1.2746e+02	-11.0307	-41.336233	0.000264	2.635379	0.892890	-0.000105
1283	1.2756e+02	-11.0788	-41.461384	0.000314	3.142182	1.064600	-0.000126
1284	1.2766e+02	-11.1109	-41.622869	0.000405	4.054429	1.373678	-0.000162
1285	1.2776e+02	-11.1606	-41.743984	0.000304	3.040821	1.030258	-0.000122
1286	1.2786e+02	-11.1959	-41.857023	0.000284	2.838100	0.961574	-0.000114
1287	1.2796e+02	-11.2377	-41.982175	0.000314	3.142182	1.064600	-0.000126
1288	1.2806e+02	-11.2697	-42.091177	0.000274	2.736739	0.927232	-0.000110
1289	1.2816e+02	-11.3179	-42.232477	0.000355	3.547625	1.201968	-0.000142
1290	1.2826e+02	-11.3483	-42.361665	0.000324	3.243543	1.098942	-0.000130
1291	1.2835e+02	-11.4045	-42.502965	0.000355	3.547625	1.201968	-0.000142
1292	1.2845e+02	-11.4318	-42.567559	0.000162	1.621771	0.549471	-0.000065
1293	1.2855e+02	-11.4671	-42.737119	0.000426	4.257150	1.442361	-0.000170
1294	1.2865e+02	-11.5120	-42.846122	0.000274	2.736739	0.927232	-0.000110
1295	1.2875e+02	-11.5505	-42.979347	0.000334	3.344904	1.133284	-0.000134
1296	1.2885e+02	-11.5938	-43.096424	0.000294	2.939461	0.995916	-0.000118
1297	1.2895e+02	-11.6387	-43.245798	0.000375	3.750346	1.270652	-0.000150
1298	1.2905e+02	-11.6740	-43.362875	0.000294	2.939461	0.995916	-0.000118
1299	1.2915e+02	-11.7109	-43.500138	0.000345	3.446264	1.167626	-0.000138
1300	1.2925e+02	-11.7478	-43.601066	0.000253	2.534018	0.858548	-0.000101
1301	1.2935e+02	-11.7863	-43.758514	0.000395	3.953068	1.339336	-0.000158
1302	1.2945e+02	-11.8360	-43.847331	0.000223	2.229936	0.755523	-0.000089
1303	1.2955e+02	-11.8697	-43.984594	0.000345	3.446264	1.167626	-0.000138
1304	1.2965e+02	-11.9002	-44.097634	0.000284	2.838100	0.961574	-0.000114
1305	1.2975e+02	-11.9483	-44.230859	0.000334	3.344904	1.133284	-0.000134
1306	1.2985e+02	-11.9884	-44.307565	0.000193	1.925854	0.652497	-0.000077
1307	1.2995e+02	-12.0301	-44.465013	0.000395	3.953068	1.339336	-0.000158
1308	1.3005e+02	-12.0767	-44.610350	0.000365	3.648986	1.236310	-0.000146
1309	1.3015e+02	-12.1184	-44.751650	0.000355	3.547625	1.201968	-0.000142
1310	1.3025e+02	-12.1489	-44.860652	0.000274	2.736739	0.927232	-0.000110
1311	1.3034e+02	-12.1793	-44.949469	0.000223	2.229936	0.755523	-0.000089
1312	1.3044e+02	-12.2339	-45.082695	0.000334	3.344904	1.133284	-0.000134
1313	1.3054e+02	-12.2628	-45.187660	0.000264	2.635379	0.892890	-0.000105
1314	1.3064e+02	-12.3093	-45.292626	0.000264	2.635379	0.892890	-0.000105
1315	1.3074e+02	-12.3462	-45.474297	0.000456	4.561232	1.545387	-0.000183
1316	1.3084e+02	-12.3959	-45.579262	0.000264	2.635379	0.892890	-0.000105
1317	1.3094e+02	-12.4312	-45.684228	0.000264	2.635379	0.892890	-0.000105
1318	1.3104e+02	-12.4649	-45.785156	0.000253	2.534018	0.858548	-0.000101
1319	1.3114e+02	-12.5098	-45.922419	0.000345	3.446264	1.167626	-0.000138
1320	1.3124e+02	-12.5531	-46.075830	0.000385	3.851707	1.304994	-0.000154
1321	1.3134e+02	-12.5900	-46.160610	0.000213	2.128575	0.721181	-0.000085
1322	1.3144e+02	-12.6285	-46.334207	0.000436	4.358511	1.476703	-0.000174
1323	1.3154e+02	-12.6670	-46.423024	0.000223	2.229936	0.755523	-0.000089
1324	1.3164e+02	-12.7168	-46.523952	0.000253	2.534018	0.858548	-0.000101
1325	1.3174e+02	-12.7537	-46.681401	0.000395	3.953068	1.339336	-0.000158
1326	1.3184e+02	-12.7793	-46.762143	0.000203	2.027214	0.686839	-0.000081
1327	1.3194e+02	-12.8242	-46.895369	0.000334	3.344904	1.133284	-0.000134
1328	1.3204e+02	-12.8643	-47.020520	0.000314	3.142182	1.064600	-0.000126
1329	1.3214e+02	-12.9012	-47.173931	0.000385	3.851707	1.304994	-0.000154
1330	1.3224e+02	-12.9413	-47.266785	0.000233	2.331296	0.789865	-0.000093
1331	1.3234e+02	-12.9895	-47.379825	0.000284	2.838100	0.961574	-0.000114
1332	1.3243e+02	-13.0216	-47.464605	0.000213	2.128575	0.721181	-0.000085
1333	1.3253e+02	-13.0697	-47.618016	0.000385	3.851707	1.304994	-0.000154
1334	1.3263e+02	-13.1098	-47.706833	0.000223	2.229936	0.755523	-0.000089
1335	1.3273e+02	-13.1467	-47.836021	0.000324	3.243543	1.098942	-0.000130
1336	1.3283e+02	-13.1836	-47.973284	0.000345	3.446264	1.167626	-0.000138
1337	1.3293e+02	-13.2365	-48.094398	0.000304	3.040821	1.030258	-0.000122
1338	1.3303e+02	-13.2654	-48.179178	0.000213	2.128575	0.721181	-0.000085
1339	1.3313e+02	-13.3039	-48.332589	0.000385	3.851707	1.304994	-0.000154
1340	1.3323e+02	-13.3440	-48.429480	0.000243	2.432657	0.824207	-0.000097
1341	1.3333e+02	-13.3889	-48.530409	0.000253	2.534018	0.858548	-0.000101
1342	1.3343e+02	-13.4242	-48.663634	0.000334	3.344904	1.133284	-0.000134
1343	1.3353e+02	-13.4643	-48.817045	0.000385	3.851707	1.304994	-0.000154
1344	1.3363e+02	-13.4996	-48.889714	0.000182	1.824493	0.618155	-0.000073
1345	1.3373e+02	-13.5461	-49.006791	0.000294	2.939461	0.995916	-0.000118
1346	1.3383e+02	-13.5846	-49.135979	0.000324	3.243543	1.098942	-0.000130
1347	1.3393e+02	-13.6151	-49.265167	0.000324	3.243543	1.098942	-0.000130
1348	1.3403e+02	-13.6729	-49.337836	0.000182	1.824493	0.618155	-0.000073
1349	1.3413e+02	-13.6969	-49.475098	0.000345	3.446264	1.167626	-0.000138
1350	1.3423e+02	-13.7435	-49.580064	0.000264	2.635379	0.892890	-0.000105
1351	1.3432e+02	-13.7820	-49.745587	0.000416	4.155789	1.408020	-0.000166
1352	1.3442e+02	-13.8189	-49.834404	0.000223	2.229936	0.755523	-0.000089
1353	1.3452e+02	-13.8654	-49.898998	0.000162	1.621771	0.549471	-0.000065
1354	1.3462e+02	-13.8911	-50.056446	0.000395	3.953068	1.339336	-0.000158
1355	1.3472e+02	-13.9456	-50.213894	0.000395	3.953068	1.339336	-0.000158
1356	1.3482e+02	-13.9905	-50.294637	0.000203	2.027214	0.686839	-0.000081
1357	1.3492e+02	-14.0162	-50.411714	0.000294	2.939461	0.995916	-0.000118
1358	1.3502e+02	-14.0659	-50.557051	0.000365	3.648986	1.236310	-0.000146
1359	1.3512e+02	-14.0980	-50.649905	0.000233	2.331296	0.789865	-0.000093
1360	1.3522e+02	-14.1381	-50.762945	0.000284	2.838100	0.961574	-0.000114
1361	1.3532e+02	-14.1814	-50.880022	0.000294	2.939461	0.995916	-0.000118
1362	1.3542e+02	-14.2231	-51.001136	0.000304	3.040821	1.030258	-0.000122
1363	1.3552e+02	-14.2632	-51.146473	0.000365	3.648986	1.236310	-0.000146
1364	1.3562e+02	-14.3033	-51.251438	0.000264	2.635379	0.892890	-0.000105
1365	1.3572e+02	-14.3418	-51.340255	0.000223	2.229936	0.755523	-0.000089
1366	1.3582e+02	-14.3852	-51.437146	0.000243	2.432657	0.824207	-0.000097
1367	1.3592e+02	-14.4221	-51.562298	0.000314	3.142182	1.064600	-0.000126
1368	1.3602e+02	-14.4590	-51.695523	0.000334	3.344904	1.133284	-0.000134
1369	1.3612e+02	-14.4991	-51.828749	0.000334	3.344904	1.133284	-0.000134
1370	1.3622e+02	-14.5424	-51.945826	0.000294	2.939461	0.995916	-0.000118
1371	1.3631e+02	-14.5777	-52.030605	0.000213	2.128575	0.721181	-0.000085
1372	1.3641e+02	-14.6322	-52.143645	0.000284	2.838100	0.961574	-0.000114
1373	1.3651e+02	-14.6627	-52.272834	0.000324	3.243543	1.098942	-0.000130
1374	1.3661e+02	-14.7028	-52.377799	0.000264	2.635379	0.892890	-0.000105
1375	1.3671e+02	-14.7365	-52.519099	0.000355	3.547625	1.201968	-0.000142
1376	1.3681e+02	-14.7798	-52.640213	0.000304	3.040821	1.030258	-0.000122
1377	1.3691e+02	-14.8183	-52.688659	0.000122	1.216329	0.412103	-0.000049
1378	1.3701e+02	-14.8552	-52.789587	0.000253	2.534018	0.858548	-0.000101
1379	1.3711e+02	-14.8985	-52.926850	0.000345	3.446264	1.167626	-0.000138
1380	1.3721e+02	-14.9386	-53.068149	0.000355	3.547625	1.201968	-0.000142
1381	1.3731e+02	-14.9771	-53.185226	0.000294	2.939461	0.995916	-0.000118
1382	1.3741e+02	-15.0108	-53.286155	0.000253	2.534018	0.858548	-0.000101
1383	1.3751e+02	-15.0541	-53.391120	0.000264	2.635379	0.892890	-0.000105
1384	1.3761e+02	-15.1022	-53.475900	0.000213	2.128575	0.721181	-0.000085
1385	1.3771e+02	-15.1359	-53.584903	0.000274	2.736739	0.927232	-0.000110
1386	1.3781e+02	-15.1825	-53.734277	0.000375	3.750346	1.270652	-0.000150
1387	1.3791e+02	-15.2145	-53.835205	0.000253	2.534018	0.858548	-0.000101
1388	1.3801e+02	-15.2514	-53.952282	0.000294	2.939461	0.995916	-0.000118
1389	1.3811e+02	-15.2996	-54.065322	0.000284	2.838100	0.961574	-0.000114
1390	1.3821e+02	-15.3397	-54.210659	0.000365	3.648986	1.236310	-0.000146
1391	1.3831e+02	-15.3878	-54.323698	0.000284	2.838100	0.961574	-0.000114
1392	1.3840e+02	-15.4135	-54.436738	0.000284	2.838100	0.961574	-0.000114
1393	1.3850e+02	-15.4584	-54.513444	0.000193	1.925854	0.652497	-0.000077
1394	1.3860e+02	-15.4937	-54.622447	0.000274	2.736739	0.927232	-0.000110
1395	1.3870e+02	-15.5354	-54.715301	0.000233	2.331296	0.789865	-0.000093
1396	1.3880e+02	-15.5851	-54.840452	0.000314	3.142182	1.064600	-0.000126
1397	1.3890e+02	-15.6156	-54.961566	0.000304	3.040821	1.030258	-0.000122
1398	1.3900e+02	-15.6493	-55.066531	0.000264	2.635379	0.892890	-0.000105
1399	1.3910e+02	-15.6958	-55.167460	0.000253	2.534018	0.858548	-0.000101
1400	1.3920e+02	-15.7359	-55.296648	0.000324	3.243543	1.098942	-0.000130
1401	1.3930e+02	-15.7840	-55.421799	0.000314	3.142182	1.064600	-0.000126
1402	1.3940e+02	-15.8193	-55.518691	0.000243	2.432657	0.824207	-0.000097
1403	1.3950e+02	-15.8578	-55.668065	0.000375	3.750346	1.270652	-0.000150
1404	1.3960e+02	-15.8963	-55.740733	0.000182	1.824493	0.618155	-0.000073
1405	1.3970e+02	-15.9348	-55.849736	0.000274	2.736739	0.927232	-0.000110
1406	1.3980e+02	-15.9733	-55.982961	0.000334	3.344904	1.133284	-0.000134
1407	1.3990e+02	-16.0151	-56.083890	0.000253	2.534018	0.858548	-0.000101
1408	1.4000e+02	-16.0536	-56.233264	0.000375	3.750346	1.270652	-0.000150
1409	1.4010e+02	-16.0985	-56.322081	0.000223	2.229936	0.755523	-0.000089
1410	1.4020e+02	-16.1322	-56.443195	0.000304	3.040821	1.030258	-0.000122
1411	1.4029e+02	-16.1659	-56.532012	0.000223	2.229936	0.755523	-0.000089
1412	1.4039e+02	-16.2140	-56.653126	0.000304	3.040821	1.030258	-0.000122
1413	1.4049e+02	-16.2573	-56.762128	0.000274	2.736739	0.927232	-0.000110
1414	1.4059e+02	-16.2942	-56.915540	0.000385	3.851707	1.304994	-0.000154
1415	1.4069e+02	-16.3391	-56.996282	0.000203	2.027214	0.686839	-0.000081
1416	1.4079e+02	-16.3808	-57.109322	0.000284	2.838100	0.961574	-0.000114
1417	1.4089e+02	-16.4049	-57.202176	0.000233	2.331296	0.789865	-0.000093
1418	1.4099e+02	-16.4530	-57.315216	0.000284	2.838100	0.961574	-0.000114
1419	1.4109e+02	-16.4835	-57.387885	0.000182	1.824493	0.618155	-0.000073
1420	1.4119e+02	-16.5364	-57.541296	0.000385	3.851707	1.304994	-0.000154
1421	1.4129e+02	-16.5685	-57.658373	0.000294	2.939461	0.995916	-0.000118
1422	1.4139e+02	-16.6070	-57.767375	0.000274	2.736739	0.927232	-0.000110
1423	1.4149e+02	-16.6471	-57.876378	0.000274	2.736739	0.927232	-0.000110
1424	1.4159e+02	-16.6904	-57.985381	0.000274	2.736739	0.927232	-0.000110
1425	1.4169e+02	-16.7305	-58.118606	0.000334	3.344904	1.133284	-0.000134
1426	1.4179e+02	-16.7755	-58.235683	0.000294	2.939461	0.995916	-0.000118
1427	1.4189e+02	-16.8124	-58.340649	0.000264	2.635379	0.892890	-0.000105
1428	1.4199e+02	-16.8380	-58.449651	0.000274	2.736739	0.927232	-0.000110
1429	1.4209e+02	-16.8910	-58.562691	0.000284	2.838100	0.961574	-0.000114
1430	1.4219e+02	-16.9327	-58.675731	0.000284	2.838100	0.961574	-0.000114
1431	1.4228e+02	-16.9648	-58.808956	0.000334	3.344904	1.133284	-0.000134
1432	1.4238e+02	-17.0097	-58.869513	0.000152	1.520411	0.515129	-0.000061
1433	1.4248e+02	-17.0402	-59.043110	0.000436	4.358511	1.476703	-0.000174
1434	1.4258e+02	-17.0867	-59.135964	0.000233	2.331296	0.789865	-0.000093
1435	1.4268e+02	-17.1284	-59.244967	0.000274	2.736739	0.927232	-0.000110
1436	1.4278e+02	-17.1733	-59.333784	0.000223	2.229936	0.755523	-0.000089
1437	1.4288e+02	-17.2134	-59.483158	0.000375	3.750346	1.270652	-0.000150
1438	1.4298e+02	-17.2535	-59.580049	0.000243	2.432657	0.824207	-0.000097
1439	1.4308e+02	-17.2952	-59.729423	0.000375	3.750346	1.270652	-0.000150
1440	1.4318e+02	-17.3305	-59.810166	0.000203	2.027214	0.686839	-0.000081
1441	1.4328e+02	-17.3722	-59.923206	0.000284	2.838100	0.961574	-0.000114
1442	1.4338e+02	-17.4075	-60.036246	0.000284	2.838100	0.961574	-0.000114
1443	1.4348e+02	-17.4460	-60.125063	0.000223	2.229936	0.755523	-0.000089
1444	1.4358e+02	-17.4829	-60.258288	0.000334	3.344904	1.133284	-0.000134
1445	1.4368e+02	-17.5295	-60.383439	0.000314	3.142182	1.064600	-0.000126
1446	1.4378e+02	-17.5631	-60.468219	0.000213	2.128575	0.721181	-0.000085
1447	1.4388e+02	-17.6065	-60.573185	0.000264	2.635379	0.892890	-0.000105
1448	1.4398e+02	-17.6401	-60.690262	0.000294	2.939461	0.995916	-0.000118
1449	1.4408e+02	-17.6835	-60.795227	0.000264	2.635379	0.892890	-0.000105
1450	1.4418e+02	-17.7236	-60.884044	0.000223	2.229936	0.755523	-0.000089
1451	1.4428e+02	-17.7653	-61.033418	0.000375	3.750346	1.270652	-0.000150
1452	1.4437e+02	-17.8102	-61.110124	0.000193	1.925854	0.652497	-0.000077
1453	1.4447e+02	-17.8471	-61.211052	0.000253	2.534018	0.858548	-0.000101
1454	1.4457e+02	-17.8824	-61.384649	0.000436	4.358511	1.476703	-0.000174
1455	1.4467e+02	-17.9257	-61.449243	0.000162	1.621771	0.549471	-0.000065
1456	1.4477e+02	-17.9642	-61.594580	0.000365	3.648986	1.236310	-0.000146
1457	1.4487e+02	-18.0091	-61.731843	0.000345	3.446264	1.167626	-0.000138
1458	1.4497e+02	-18.0540	-61.861031	0.000324	3.243543	1.098942	-0.000130
1459	1.4507e+02	-18.0797	-61.949848	0.000223	2.229936	0.755523	-0.000089
1460	1.4517e+02	-18.1310	-62.038665	0.000223	2.229936	0.755523	-0.000089
1461	1.4527e+02	-18.1744	-62.188039	0.000375	3.750346	1.270652	-0.000150
1462	1.4537e+02	-18.2096	-62.333376	0.000365	3.648986	1.236310	-0.000146
1463	1.4547e+02	-18.2369	-62.438341	0.000264	2.635379	0.892890	-0.000105
1464	1.4557e+02	-18.2866	-62.527158	0.000223	2.229936	0.755523	-0.000089
1465	1.4567e+02	-18.3252	-62.664421	0.000345	3.446264	1.167626	-0.000138
1466	1.4577e+02	-18.3717	-62.765349	0.000253	2.534018	0.858548	-0.000101
1467	1.4587e+02	-18.4118	-62.930872	0.000416	4.155789	1.408020	-0.000166
1468	1.4597e+02	-18.4455	-63.023726	0.000233	2.331296	0.789865	-0.000093
1469	1.4607e+02	-18.4840	-63.185211	0.000405	4.054429	1.373678	-0.000162
1470	1.4617e+02	-18.5321	-63.257880	0.000182	1.824493	0.618155	-0.000073
1471	1.4626e+02	-18.5610	-63.354771	0.000243	2.432657	0.824207	-0.000097
1472	1.4636e+02	-18.5995	-63.471848	0.000294	2.939461	0.995916	-0.000118
1473	1.4646e+02	-18.6492	-63.621222	0.000375	3.750346	1.270652	-0.000150
1474	1.4656e+02	-18.6829	-63.718113	0.000243	2.432657	0.824207	-0.000097
1475	1.4666e+02	-18.7182	-63.839227	0.000304	3.040821	1.030258	-0.000122
1476	1.4676e+02	-18.7615	-63.944193	0.000264	2.635379	0.892890	-0.000105
1477	1.4686e+02	-18.8048	-64.073381	0.000324	3.243543	1.098942	-0.000130
1478	1.4696e+02	-18.8545	-64.166235	0.000233	2.331296	0.789865	-0.000093
1479	1.4706e+02	-18.8850	-64.303498	0.000345	3.446264	1.167626	-0.000138
1480	1.4716e+02	-18.9091	-64.420575	0.000294	2.939461	0.995916	-0.000118
1481	1.4726e+02	-18.9620	-64.565912	0.000365	3.648986	1.236310	-0.000146
1482	1.4736e+02	-19.0102	-64.687026	0.000304	3.040821	1.030258	-0.000122
1483	1.4746e+02	-19.0390	-64.771806	0.000213	2.128575	0.721181	-0.000085
1484	1.4756e+02	-19.0823	-64.876771	0.000264	2.635379	0.892890	-0.000105
1485	1.4766e+02	-19.1225	-65.014034	0.000345	3.446264	1.167626	-0.000138
1486	1.4776e+02	-19.1610	-65.155334	0.000355	3.547625	1.201968	-0.000142
1487	1.4786e+02	-19.1995	-65.296633	0.000355	3.547625	1.201968	-0.000142
1488	1.4796e+02	-19.2460	-65.389488	0.000233	2.331296	0.789865	-0.000093
1489	1.4806e+02	-19.2813	-65.502527	0.000284	2.838100	0.961574	-0.000114
1490	1.4816e+02	-19.3182	-65.607493	0.000264	2.635379	0.892890	-0.000105
1491	1.4825e+02	-19.3631	-65.728607	0.000304	3.040821	1.030258	-0.000122
1492	1.4835e+02	-19.4000	-65.833572	0.000264	2.635379	0.892890	-0.000105
1493	1.4845e+02	-19.4401	-65.978909	0.000365	3.648986	1.236310	-0.000146
1494	1.4855e+02	-19.4754	-66.087912	0.000274	2.736739	0.927232	-0.000110
1495	1.4865e+02	-19.5171	-66.221138	0.000334	3.344904	1.133284	-0.000134
1496	1.4875e+02	-19.5508	-66.289769	0.000172	1.723132	0.583813	-0.000069
1497	1.4885e+02	-19.5989	-66.455291	0.000416	4.155789	1.408020	-0.000166
1498	1.4895e+02	-19.6374	-66.580443	0.000314	3.142182	1.064600	-0.000126
1499	1.4905e+02	-19.6711	-66.713668	0.000334	3.344904	1.133284	-0.000134
1500	1.4915e+02	-19.7144	-66.846894	0.000334	3.344904	1.133284	-0.000134
1501	1.4925e+02	-19.7545	-66.976082	0.000324	3.243543	1.098942	-0.000130
1502	1.4935e+02	-19.7946	-67.085085	0.000274	2.736739	0.927232	-0.000110
1503	1.4945e+02	-19.8460	-67.210236	0.000314	3.142182	1.064600	-0.000126
1504	1.4955e+02	-19.8668	-67.270793	0.000152	1.520411	0.515129	-0.000061
1505	1.4965e+02	-19.9133	-67.444390	0.000436	4.358511	1.476703	-0.000174
1506	1.4975e+02	-19.9518	-67.553392	0.000274	2.736739	0.927232	-0.000110
1507	1.4985e+02	-19.9936	-67.682581	0.000324	3.243543	1.098942	-0.000130
1508	1.4995e+02	-19.9534	-67.613949	0.000172	1.723132	0.583813	0.000069
1509	1.5005e+02	-19.9182	-67.577615	0.000091	0.912246	0.309077	0.000037
1510	1.5015e+02	-19.8636	-67.549355	0.000071	0.709525	0.240394	0.000028
1511	1.5025e+02	-19.8363	-67.492835	0.000142	1.419050	0.480787	0.000057
1512	1.5034e+02	-19.7946	-67.412093	0.000203	2.027214	0.686839	0.000081
1513	1.5044e+02	-19.7609	-67.359610	0.000132	1.317689	0.446445	0.000053
1514	1.5054e+02	-19.7112	-67.295016	0.000162	1.621771	0.549471	0.000065
1515	1.5064e+02	-19.6839	-67.242533	0.000132	1.317689	0.446445	0.000053
1516	1.5074e+02	-19.6390	-67.129493	0.000284	2.838100	0.961574	0.000114
1517	1.5084e+02	-19.6021	-67.097196	0.000081	0.810886	0.274736	0.000032
1518	1.5094e+02	-19.5588	-67.032602	0.000162	1.621771	0.549471	0.000065
1519	1.5104e+02	-19.5203	-66.976082	0.000142	1.419050	0.480787	0.000057
1520	1.5114e+02	-19.4722	-66.899376	0.000193	1.925854	0.652497	0.000077
1521	1.5124e+02	-19.4433	-66.842856	0.000142	1.419050	0.480787	0.000057
1522	1.5134e+02	-19.3968	-66.754039	0.000223	2.229936	0.755523	0.000089
1523	1.5144e+02	-19.3615	-66.705594	0.000122	1.216329	0.412103	0.000049
1524	1.5154e+02	-19.3150	-66.616777	0.000223	2.229936	0.755523	0.000089
1525	1.5164e+02	-19.2845	-66.576405	0.000101	1.013607	0.343419	0.000041
1526	1.5174e+02	-19.2412	-66.459329	0.000294	2.939461	0.995916	0.000118
1527	1.5184e+02	-19.1962	-66.414920	0.000111	1.114968	0.377761	0.000045
1528	1.5194e+02	-19.1642	-66.346289	0.000172	1.723132	0.583813	0.000069
1529	1.5204e+02	-19.1257	-66.245360	0.000253	2.534018	0.858548	0.000101
1530	1.5214e+02	-19.0791	-66.160580	0.000213	2.128575	0.721181	0.000085
1531	1.5224e+02	-19.0438	-66.120209	0.000101	1.013607	0.343419	0.000041
1532	1.5233e+02	-18.9957	-66.051578	0.000172	1.723132	0.583813	0.000069
1533	1.5243e+02	-18.9588	-65.982947	0.000172	1.723132	0.583813	0.000069
1534	1.5253e+02	-18.9251	-65.914315	0.000172	1.723132	0.583813	0.000069
1535	1.5263e+02	-18.8802	-65.801275	0.000284	2.838100	0.961574	0.000114
1536	1.5273e+02	-18.8401	-65.768978	0.000081	0.810886	0.274736	0.000032
1537	1.5283e+02	-18.8048	-65.680161	0.000223	2.229936	0.755523	0.000089
1538	1.5293e+02	-18.7583	-65.579233	0.000253	2.534018	0.858548	0.000101
1539	1.5303e+02	-18.7278	-65.538862	0.000101	1.013607	0.343419	0.000041
1540	1.5313e+02	-18.6813	-65.446007	0.000233	2.331296	0.789865	0.000093
1541	1.5323e+02	-18.6428	-65.345079	0.000253	2.534018	0.858548	0.000101
1542	1.5333e+02	-18.6091	-65.284522	0.000152	1.520411	0.515129	0.000061
1543	1.5343e+02	-18.5578	-65.155334	0.000324	3.243543	1.098942	0.000130
1544	1.5353e+02	-18.5241	-65.143222	0.000030	0.304082	0.103026	0.000012
1545	1.5363e+02	-18.4856	-64.989811	0.000385	3.851707	1.304994	0.000154
1546	1.5373e+02	-18.4487	-64.953477	0.000091	0.912246	0.309077	0.000037
1547	1.5383e+02	-18.4054	-64.844474	0.000274	2.736739	0.927232	0.000110
1548	1.5393e+02	-18.3685	-64.783917	0.000152	1.520411	0.515129	0.000061
1549	1.5403e+02	-18.3268	-64.691063	0.000233	2.331296	0.789865	0.000093
1550	1.5413e+02	-18.2818	-64.614357	0.000193	1.925854	0.652497	0.000077
1551	1.5422e+02	-18.2417	-64.529578	0.000213	2.128575	0.721181	0.000085
1552	1.5432e+02	-18.2064	-64.392315	0.000345	3.446264	1.167626	0.000138
1553	1.5442e+02	-18.1679	-64.355981	0.000091	0.912246	0.309077	0.000037
1554	1.5452e+02	-18.1246	-64.234867	0.000304	3.040821	1.030258	0.000122
1555	1.5462e+02	-18.0877	-64.178347	0.000142	1.419050	0.480787	0.000057
1556	1.5472e+02	-18.0444	-64.097604	0.000203	2.027214	0.686839	0.000081
1557	1.5482e+02	-18.0075	-63.984564	0.000284	2.838100	0.961574	0.000114
1558	1.5492e+02	-17.9626	-63.952267	0.000081	0.810886	0.274736	0.000032
1559	1.5502e+02	-17.9225	-63.851339	0.000253	2.534018	0.858548	0.000101
1560	1.5512e+02	-17.8824	-63.774633	0.000193	1.925854	0.652497	0.000077
1561	1.5522e+02	-17.8487	-63.645445	0.000324	3.243543	1.098942	0.000130
1562	1.5532e+02	-17.8038	-63.596999	0.000122	1.216329	0.412103	0.000049
1563	1.5542e+02	-17.7540	-63.479922	0.000294	2.939461	0.995916	0.000118
1564	1.5552e+02	-17.7316	-63.395142	0.000213	2.128575	0.721181	0.000085
1565	1.5562e+02	-17.6802	-63.322474	0.000182	1.824493	0.618155	0.000073
1566	1.5572e+02	-17.6562	-63.221546	0.000253	2.534018	0.858548	0.000101
1567	1.5582e+02	-17.6032	-63.148877	0.000182	1.824493	0.618155	0.000073
1568	1.5592e+02	-17.5647	-63.051986	0.000243	2.432657	0.824207	0.000097
1569	1.5602e+02	-17.5278	-62.955095	0.000243	2.432657	0.824207	0.000097
1570	1.5612e+02	-17.4942	-62.906649	0.000122	1.216329	0.412103	0.000049
1571	1.5622e+02	-17.4428	-62.781498	0.000314	3.142182	1.064600	0.000126
1572	1.5631e+02	-17.4123	-62.733052	0.000122	1.216329	0.412103	0.000049
1573	1.5641e+02	-17.3722	-62.624050	0.000274	2.736739	0.927232	0.000110
1574	1.5651e+02	-17.3289	-62.535233	0.000223	2.229936	0.755523	0.000089
1575	1.5661e+02	-17.2888	-62.482750	0.000132	1.317689	0.446445	0.000053
1576	1.5671e+02	-17.2519	-62.353561	0.000324	3.243543	1.098942	0.000130
1577	1.5681e+02	-17.2070	-62.248596	0.000264	2.635379	0.892890	0.000105
1578	1.5691e+02	-17.1605	-62.179965	0.000172	1.723132	0.583813	0.000069
1579	1.5701e+02	-17.1316	-62.066925	0.000284	2.838100	0.961574	0.000114
1580	1.5711e+02	-17.0867	-61.982145	0.000213	2.128575	0.721181	0.000085
1581	1.5721e+02	-17.0514	-61.913514	0.000172	1.723132	0.583813	0.000069
1582	1.5731e+02	-17.0033	-61.804511	0.000274	2.736739	0.927232	0.000110
1583	1.5741e+02	-16.9712	-61.752028	0.000132	1.317689	0.446445	0.000053
1584	1.5751e+02	-16.9391	-61.663211	0.000223	2.229936	0.755523	0.000089
1585	1.5761e+02	-16.8894	-61.513837	0.000375	3.750346	1.270652	0.000150
1586	1.5771e+02	-16.8541	-61.497689	0.000041	0.405443	0.137368	0.000016
1587	1.5781e+02	-16.8140	-61.376575	0.000304	3.040821	1.030258	0.000122
1588	1.5791e+02	-16.7626	-61.279683	0.000243	2.432657	0.824207	0.000097
1589	1.5801e+02	-16.7273	-61.178755	0.000253	2.534018	0.858548	0.000101
1590	1.5811e+02	-16.6904	-61.098012	0.000203	2.027214	0.686839	0.000081
1591	1.5821e+02	-16.6535	-60.972861	0.000314	3.142182	1.064600	0.000126
1592	1.5830e+02	-16.6086	-60.896155	0.000193	1.925854	0.652497	0.000077
1593	1.5840e+02	-16.5685	-60.807338	0.000223	2.229936	0.755523	0.000089
1594	1.5850e+02	-16.5268	-60.742744	0.000162	1.621771	0.549471	0.000065
1595	1.5860e+02	-16.4931	-60.633742	0.000274	2.736739	0.927232	0.000110
1596	1.5870e+02	-16.4546	-60.569147	0.000162	1.621771	0.549471	0.000065
1597	1.5880e+02	-16.4081	-60.472256	0.000243	2.432657	0.824207	0.000097
1598	1.5890e+02	-16.3712	-60.367291	0.000264	2.635379	0.892890	0.000105
1599	1.5900e+02	-16.3423	-60.278474	0.000223	2.229936	0.755523	0.000089
1600	1.5910e+02	-16.2926	-60.161397	0.000294	2.939461	0.995916	0.000118
1601	1.5920e+02	-16.2509	-60.104877	0.000142	1.419050	0.480787	0.000057
1602	1.5930e+02	-16.2108	-59.999911	0.000264	2.635379	0.892890	0.000105
1603	1.5940e+02	-16.1675	-59.862649	0.000345	3.446264	1.167626	0.000138
1604	1.5950e+02	-16.1386	-59.794017	0.000172	1.723132	0.583813	0.000069
1605	1.5960e+02	-16.1033	-59.705200	0.000223	2.229936	0.755523	0.000089
1606	1.5970e+02	-16.0632	-59.580049	0.000314	3.142182	1.064600	0.000126
1607	1.5980e+02	-16.0183	-59.483158	0.000243	2.432657	0.824207	0.000097
1608	1.5990e+02	-15.9717	-59.467009	0.000041	0.405443	0.137368	0.000016
1609	1.6000e+02	-15.9397	-59.309561	0.000395	3.953068	1.339336	0.000158
1610	1.6010e+02	-15.8867	-59.244967	0.000162	1.621771	0.549471	0.000065
1611	1.6019e+02	-15.8610	-59.148076	0.000243	2.432657	0.824207	0.000097
1612	1.6029e+02	-15.8113	-59.043110	0.000264	2.635379	0.892890	0.000105
1613	1.6039e+02	-15.7808	-58.930070	0.000284	2.838100	0.961574	0.000114
1614	1.6049e+02	-15.7311	-58.829142	0.000253	2.534018	0.858548	0.000101
1615	1.6059e+02	-15.6878	-58.760511	0.000172	1.723132	0.583813	0.000069
1616	1.6069e+02	-15.6525	-58.659582	0.000253	2.534018	0.858548	0.000101
1617	1.6079e+02	-15.6028	-58.562691	0.000243	2.432657	0.824207	0.000097
1618	1.6089e+02	-15.5771	-58.453688	0.000274	2.736739	0.927232	0.000110
1619	1.6099e+02	-15.5290	-58.344686	0.000274	2.736739	0.927232	0.000110
1620	1.6109e+02	-15.4921	-58.255869	0.000223	2.229936	0.755523	0.000089
1621	1.6119e+02	-15.4488	-58.195312	0.000152	1.520411	0.515129	0.000061
1622	1.6129e+02	-15.4247	-58.062086	0.000334	3.344904	1.133284	0.000134
1623	1.6139e+02	-15.3750	-57.985381	0.000193	1.925854	0.652497	0.000077
1624	1.6149e+02	-15.3381	-57.892526	0.000233	2.331296	0.789865	0.000093
1625	1.6159e+02	-15.2899	-57.799672	0.000233	2.331296	0.789865	0.000093
1626	1.6169e+02	-15.2595	-57.714893	0.000213	2.128575	0.721181	0.000085
1627	1.6179e+02	-15.2145	-57.593778	0.000304	3.040821	1.030258	0.000122
1628	1.6189e+02	-15.1889	-57.513036	0.000203	2.027214	0.686839	0.000081
1629	1.6199e+02	-15.1391	-57.395959	0.000294	2.939461	0.995916	0.000118
1630	1.6209e+02	-15.0990	-57.331365	0.000162	1.621771	0.549471	0.000065
1631	1.6219e+02	-15.0589	-57.238510	0.000233	2.331296	0.789865	0.000093
1632	1.6228e+02	-15.0172	-57.145656	0.000233	2.331296	0.789865	0.000093
1633	1.6238e+02	-14.9771	-57.004357	0.000355	3.547625	1.201968	0.000142
1634	1.6248e+02	-14.9338	-56.915540	0.000223	2.229936	0.755523	0.000089
1635	1.6258e+02	-14.9017	-56.814611	0.000253	2.534018	0.858548	0.000101
1636	1.6268e+02	-14.8600	-56.721757	0.000233	2.331296	0.789865	0.000093
1637	1.6278e+02	-14.8183	-56.641014	0.000203	2.027214	0.686839	0.000081
1638	1.6288e+02	-14.7814	-56.560272	0.000203	2.027214	0.686839	0.000081
1639	1.6298e+02	-14.7445	-56.451269	0.000274	2.736739	0.927232	0.000110
1640	1.6308e+02	-14.7012	-56.314006	0.000345	3.446264	1.167626	0.000138
1641	1.6318e+02	-14.6675	-56.221152	0.000233	2.331296	0.789865	0.000093
1642	1.6328e+02	-14.6194	-56.160595	0.000152	1.520411	0.515129	0.000061
1643	1.6338e+02	-14.5729	-56.003147	0.000395	3.953068	1.339336	0.000158
1644	1.6348e+02	-14.5392	-55.934516	0.000172	1.723132	0.583813	0.000069
1645	1.6358e+02	-14.4975	-55.869921	0.000162	1.621771	0.549471	0.000065
1646	1.6368e+02	-14.4638	-55.752845	0.000294	2.939461	0.995916	0.000118
1647	1.6378e+02	-14.4140	-55.619619	0.000334	3.344904	1.133284	0.000134
1648	1.6388e+02	-14.3803	-55.530802	0.000223	2.229936	0.755523	0.000089
1649	1.6398e+02	-14.3467	-55.486394	0.000111	1.114968	0.377761	0.000045
1650	1.6408e+02	-14.3017	-55.365280	0.000304	3.040821	1.030258	0.000122
1651	1.6418e+02	-14.2536	-55.232054	0.000334	3.344904	1.133284	0.000134
1652	1.6427e+02	-14.2247	-55.151311	0.000203	2.027214	0.686839	0.000081
1653	1.6437e+02	-14.1798	-55.034234	0.000294	2.939461	0.995916	0.000118
1654	1.6447e+02	-14.1429	-54.921195	0.000284	2.838100	0.961574	0.000114
1655	1.6457e+02	-14.1156	-54.892935	0.000071	0.709525	0.240394	0.000028
1656	1.6467e+02	-14.0691	-54.735486	0.000395	3.953068	1.339336	0.000158
1657	1.6477e+02	-14.0242	-54.638595	0.000243	2.432657	0.824207	0.000097
1658	1.6487e+02	-13.9729	-54.553815	0.000213	2.128575	0.721181	0.000085
1659	1.6497e+02	-13.9440	-54.444813	0.000274	2.736739	0.927232	0.000110
1660	1.6507e+02	-13.8927	-54.311587	0.000334	3.344904	1.133284	0.000134
1661	1.6517e+02	-13.8654	-54.226807	0.000213	2.128575	0.721181	0.000085
1662	1.6527e+02	-13.8157	-54.125879	0.000253	2.534018	0.858548	0.000101
1663	1.6537e+02	-13.7868	-54.033025	0.000233	2.331296	0.789865	0.000093
1664	1.6547e+02	-13.7483	-53.928059	0.000264	2.635379	0.892890	0.000105
1665	1.6557e+02	-13.7001	-53.810982	0.000294	2.939461	0.995916	0.000118
1666	1.6567e+02	-13.6600	-53.710054	0.000253	2.534018	0.858548	0.000101
1667	1.6577e+02	-13.6215	-53.625274	0.000213	2.128575	0.721181	0.000085
1668	1.6587e+02	-13.5862	-53.483974	0.000355	3.547625	1.201968	0.000142
1669	1.6597e+02	-13.5445	-53.391120	0.000233	2.331296	0.789865	0.000093
1670	1.6607e+02	-13.5060	-53.334600	0.000142	1.419050	0.480787	0.000057
1671	1.6616e+02	-13.4579	-53.193300	0.000355	3.547625	1.201968	0.000142
1672	1.6626e+02	-13.4146	-53.072186	0.000304	3.040821	1.030258	0.000122
1673	1.6636e+02	-13.3841	-52.983369	0.000223	2.229936	0.755523	0.000089
1674	1.6646e+02	-13.3472	-52.870330	0.000284	2.838100	0.961574	0.000114
1675	1.6656e+02	-13.3055	-52.801698	0.000172	1.723132	0.583813	0.000069
1676	1.6666e+02	-13.2622	-52.676547	0.000314	3.142182	1.064600	0.000126
1677	1.6676e+02	-13.2285	-52.599842	0.000193	1.925854	0.652497	0.000077
1678	1.6686e+02	-13.1804	-52.466616	0.000334	3.344904	1.133284	0.000134
1679	1.6696e+02	-13.1483	-52.369725	0.000243	2.432657	0.824207	0.000097
1680	1.6706e+02	-13.1002	-52.276871	0.000233	2.331296	0.789865	0.000093
1681	1.6716e+02	-13.0697	-52.139608	0.000345	3.446264	1.167626	0.000138
1682	1.6726e+02	-13.0216	-52.034643	0.000264	2.635379	0.892890	0.000105
1683	1.6736e+02	-12.9750	-51.929677	0.000264	2.635379	0.892890	0.000105
1684	1.6746e+02	-12.9478	-51.812600	0.000294	2.939461	0.995916	0.000118
1685	1.6756e+02	-12.9093	-51.727820	0.000213	2.128575	0.721181	0.000085
1686	1.6766e+02	-12.8740	-51.639003	0.000223	2.229936	0.755523	0.000089
1687	1.6776e+02	-12.8210	-51.530001	0.000274	2.736739	0.927232	0.000110
1688	1.6786e+02	-12.7922	-51.425035	0.000264	2.635379	0.892890	0.000105
1689	1.6796e+02	-12.7456	-51.324107	0.000253	2.534018	0.858548	0.000101
1690	1.6806e+02	-12.7151	-51.235290	0.000223	2.229936	0.755523	0.000089
1691	1.6816e+02	-12.6654	-51.098027	0.000345	3.446264	1.167626	0.000138
1692	1.6825e+02	-12.6365	-51.005173	0.000233	2.331296	0.789865	0.000093
1693	1.6835e+02	-12.5884	-50.924430	0.000203	2.027214	0.686839	0.000081
1694	1.6845e+02	-12.5419	-50.775056	0.000375	3.750346	1.270652	0.000150
1695	1.6855e+02	-12.5066	-50.662016	0.000284	2.838100	0.961574	0.000114
1696	1.6865e+02	-12.4649	-50.565125	0.000243	2.432657	0.824207	0.000097
1697	1.6875e+02	-12.4424	-50.476308	0.000223	2.229936	0.755523	0.000089
1698	1.6885e+02	-12.3879	-50.367305	0.000274	2.736739	0.927232	0.000110
1699	1.6895e+02	-12.3494	-50.250229	0.000294	2.939461	0.995916	0.000118
1700	1.6905e+02	-12.3093	-50.177560	0.000182	1.824493	0.618155	0.000073
1701	1.6915e+02	-12.2644	-50.008000	0.000426	4.257150	1.442361	0.000170
1702	1.6925e+02	-12.2323	-49.951480	0.000142	1.419050	0.480787	0.000057
1703	1.6935e+02	-12.1938	-49.822292	0.000324	3.243543	1.098942	0.000130
1704	1.6945e+02	-12.1585	-49.697141	0.000314	3.142182	1.064600	0.000126
1705	1.6955e+02	-12.1104	-49.600250	0.000243	2.432657	0.824207	0.000097
1706	1.6965e+02	-12.0751	-49.479136	0.000304	3.040821	1.030258	0.000122
1707	1.6975e+02	-12.0301	-49.366096	0.000284	2.838100	0.961574	0.000114
1708	1.6985e+02	-11.9852	-49.257093	0.000274	2.736739	0.927232	0.000110
1709	1.6995e+02	-11.9531	-49.131942	0.000314	3.142182	1.064600	0.000126
1710	1.7005e+02	-11.9082	-49.059273	0.000182	1.824493	0.618155	0.000073
1711	1.7015e+02	-11.8729	-48.950271	0.000274	2.736739	0.927232	0.000110
1712	1.7024e+02	-11.8296	-48.776674	0.000436	4.358511	1.476703	0.000174
1713	1.7034e+02	-11.7895	-48.687857	0.000223	2.229936	0.755523	0.000089
1714	1.7044e+02	-11.7478	-48.599040	0.000223	2.229936	0.755523	0.000089
1715	1.7054e+02	-11.7061	-48.486000	0.000284	2.838100	0.961574	0.000114
1716	1.7064e+02	-11.6772	-48.376998	0.000274	2.736739	0.927232	0.000110
1717	1.7074e+02	-11.6291	-48.259921	0.000294	2.939461	0.995916	0.000118
1718	1.7084e+02	-11.5954	-48.163029	0.000243	2.432657	0.824207	0.000097
1719	1.7094e+02	-11.5553	-47.989433	0.000436	4.358511	1.476703	0.000174
1720	1.7104e+02	-11.5120	-47.924838	0.000162	1.621771	0.549471	0.000065
1721	1.7114e+02	-11.4751	-47.775464	0.000375	3.750346	1.270652	0.000150
1722	1.7124e+02	-11.4302	-47.678573	0.000243	2.432657	0.824207	0.000097
1723	1.7134e+02	-11.3933	-47.581682	0.000243	2.432657	0.824207	0.000097
1724	1.7144e+02	-11.3532	-47.460568	0.000304	3.040821	1.030258	0.000122
1725	1.7154e+02	-11.3179	-47.339454	0.000304	3.040821	1.030258	0.000122
1726	1.7164e+02	-11.2745	-47.234488	0.000264	2.635379	0.892890	0.000105
1727	1.7174e+02	-11.2312	-47.141634	0.000233	2.331296	0.789865	0.000093
1728	1.7184e+02	-11.1895	-47.032631	0.000274	2.736739	0.927232	0.000110
1729	1.7194e+02	-11.1526	-46.846923	0.000466	4.662593	1.579729	0.000187
1730	1.7204e+02	-11.1189	-46.766180	0.000203	2.027214	0.686839	0.000081
1731	1.7213e+02	-11.0772	-46.685438	0.000203	2.027214	0.686839	0.000081
1732	1.7223e+02	-11.0291	-46.560286	0.000314	3.142182	1.064600	0.000126
1733	1.7233e+02	-10.9906	-46.427061	0.000334	3.344904	1.133284	0.000134
1734	1.7243e+02	-10.9569	-46.322095	0.000264	2.635379	0.892890	0.000105
1735	1.7253e+02	-10.9184	-46.200981	0.000304	3.040821	1.030258	0.000122
1736	1.7263e+02	-10.8831	-46.087942	0.000284	2.838100	0.961574	0.000114
1737	1.7273e+02	-10.8350	-45.950679	0.000345	3.446264	1.167626	0.000138
1738	1.7283e+02	-10.7997	-45.865899	0.000213	2.128575	0.721181	0.000085
1739	1.7293e+02	-10.7580	-45.760934	0.000264	2.635379	0.892890	0.000105
1740	1.7303e+02	-10.7131	-45.651931	0.000274	2.736739	0.927232	0.000110
1741	1.7313e+02	-10.6762	-45.510631	0.000355	3.547625	1.201968	0.000142
1742	1.7323e+02	-10.6345	-45.409703	0.000253	2.534018	0.858548	0.000101
1743	1.7333e+02	-10.6024	-45.272440	0.000345	3.446264	1.167626	0.000138
1744	1.7343e+02	-10.5462	-45.183623	0.000223	2.229936	0.755523	0.000089
1745	1.7353e+02	-10.5125	-45.030212	0.000385	3.851707	1.304994	0.000154
1746	1.7363e+02	-10.4837	-44.941395	0.000223	2.229936	0.755523	0.000089
1747	1.7373e+02	-10.4403	-44.812207	0.000324	3.243543	1.098942	0.000130
1748	1.7383e+02	-10.3954	-44.707241	0.000264	2.635379	0.892890	0.000105
1749	1.7393e+02	-10.3601	-44.557867	0.000375	3.750346	1.270652	0.000150
1750	1.7403e+02	-10.3232	-44.473087	0.000213	2.128575	0.721181	0.000085
1751	1.7413e+02	-10.2767	-44.347936	0.000314	3.142182	1.064600	0.000126
1752	1.7422e+02	-10.2382	-44.222785	0.000314	3.142182	1.064600	0.000126
1753	1.7432e+02	-10.1917	-44.085522	0.000345	3.446264	1.167626	0.000138
1754	1.7442e+02	-10.1516	-44.008817	0.000193	1.925854	0.652497	0.000077
1755	1.7452e+02	-10.1195	-43.879628	0.000324	3.243543	1.098942	0.000130
1756	1.7462e+02	-10.0730	-43.762551	0.000294	2.939461	0.995916	0.000118
1757	1.7472e+02	-10.0345	-43.625289	0.000345	3.446264	1.167626	0.000138
1758	1.7482e+02	-10.0024	-43.528398	0.000243	2.432657	0.824207	0.000097
1759	1.7492e+02	-9.9559	-43.411321	0.000294	2.939461	0.995916	0.000118
1760	1.7502e+02	-9.9190	-43.306355	0.000264	2.635379	0.892890	0.000105
1761	1.7512e+02	-9.8660	-43.165055	0.000355	3.547625	1.201968	0.000142
1762	1.7522e+02	-9.8323	-43.023756	0.000355	3.547625	1.201968	0.000142
1763	1.7532e+02	-9.7954	-42.930901	0.000233	2.331296	0.789865	0.000093
1764	1.7542e+02	-9.7489	-42.773453	0.000395	3.953068	1.339336	0.000158
1765	1.7552e+02	-9.7233	-42.668488	0.000264	2.635379	0.892890	0.000105
1766	1.7562e+02	-9.6783	-42.543336	0.000314	3.142182	1.064600	0.000126
1767	1.7572e+02	-9.6334	-42.454519	0.000223	2.229936	0.755523	0.000089
1768	1.7582e+02	-9.5997	-42.329368	0.000314	3.142182	1.064600	0.000126
1769	1.7592e+02	-9.5580	-42.196143	0.000334	3.344904	1.133284	0.000134
1770	1.7602e+02	-9.5259	-42.066954	0.000324	3.243543	1.098942	0.000130
1771	1.7612e+02	-9.4842	-42.002360	0.000162	1.621771	0.549471	0.000065
1772	1.7621e+02	-9.4441	-41.832801	0.000426	4.257150	1.442361	0.000170
1773	1.7631e+02	-9.4040	-41.691501	0.000355	3.547625	1.201968	0.000142
1774	1.7641e+02	-9.3655	-41.602684	0.000223	2.229936	0.755523	0.000089
1775	1.7651e+02	-9.3206	-41.445235	0.000395	3.953068	1.339336	0.000158
1776	1.7661e+02	-9.2869	-41.344307	0.000253	2.534018	0.858548	0.000101
1777	1.7671e+02	-9.2436	-41.219156	0.000314	3.142182	1.064600	0.000126
1778	1.7681e+02	-9.1987	-41.094005	0.000314	3.142182	1.064600	0.000126
1779	1.7691e+02	-9.1650	-40.980965	0.000284	2.838100	0.961574	0.000114
1780	1.7701e+02	-9.1233	-40.871962	0.000274	2.736739	0.927232	0.000110
1781	1.7711e+02	-9.0816	-40.762960	0.000274	2.736739	0.927232	0.000110
1782	1.7721e+02	-9.0431	-40.577251	0.000466	4.662593	1.579729	0.000187
1783	1.7731e+02	-9.0030	-40.431914	0.000365	3.648986	1.236310	0.000146
1784	1.7741e+02	-8.9596	-40.347135	0.000213	2.128575	0.721181	0.000085
1785	1.7751e+02	-8.9276	-40.217946	0.000324	3.243543	1.098942	0.000130
1786	1.7761e+02	-8.8826	-40.125092	0.000233	2.331296	0.789865	0.000093
1787	1.7771e+02	-8.8393	-39.983792	0.000355	3.547625	1.201968	0.000142
1788	1.7781e+02	-8.7992	-39.830381	0.000385	3.851707	1.304994	0.000154
1789	1.7791e+02	-8.7575	-39.761750	0.000172	1.723132	0.583813	0.000069
1790	1.7801e+02	-8.7286	-39.592190	0.000426	4.257150	1.442361	0.000170
1791	1.7810e+02	-8.6741	-39.471076	0.000304	3.040821	1.030258	0.000122
1792	1.7820e+02	-8.6452	-39.362073	0.000274	2.736739	0.927232	0.000110
1793	1.7830e+02	-8.6019	-39.228848	0.000334	3.344904	1.133284	0.000134
1794	1.7840e+02	-8.5602	-39.103697	0.000314	3.142182	1.064600	0.000126
1795	1.7850e+02	-8.5265	-38.994694	0.000274	2.736739	0.927232	0.000110
1796	1.7860e+02	-8.4832	-38.865506	0.000324	3.243543	1.098942	0.000130
1797	1.7870e+02	-8.4479	-38.768614	0.000243	2.432657	0.824207	0.000097
1798	1.7880e+02	-8.4014	-38.595018	0.000436	4.358511	1.476703	0.000174
1799	1.7890e+02	-8.3645	-38.490052	0.000264	2.635379	0.892890	0.000105
1800	1.7900e+02	-8.3212	-38.340678	0.000375	3.750346	1.270652	0.000150
1801	1.7910e+02	-8.2955	-38.235713	0.000264	2.635379	0.892890	0.000105
1802	1.7920e+02	-8.2522	-38.110561	0.000314	3.142182	1.064600	0.000126
1803	1.7930e+02	-8.2153	-37.985410	0.000314	3.142182	1.064600	0.000126
1804	1.7940e+02	-8.1688	-37.864296	0.000304	3.040821	1.030258	0.000122
1805	1.7950e+02	-8.1270	-37.718959	0.000365	3.648986	1.236310	0.000146
1806	1.7960e+02	-8.0837	-37.634179	0.000213	2.128575	0.721181	0.000085
1807	1.7970e+02	-8.0372	-37.456545	0.000446	4.459871	1.511045	0.000179
1808	1.7980e+02	-8.0035	-37.367728	0.000223	2.229936	0.755523	0.000089
1809	1.7990e+02	-7.9650	-37.186057	0.000456	4.561232	1.545387	0.000183
1810	1.8000e+02	-7.9233	-37.105315	0.000203	2.027214	0.686839	0.000081
1811	1.8009e+02	-7.8848	-36.976126	0.000324	3.243543	1.098942	0.000130
1812	1.8019e+02	-7.8495	-36.814641	0.000405	4.054429	1.373678	0.000162
1813	1.8029e+02	-7.8094	-36.701601	0.000284	2.838100	0.961574	0.000114
1814	1.8039e+02	-7.7645	-36.523967	0.000446	4.459871	1.511045	0.000179
1815	1.8049e+02	-7.7164	-36.423039	0.000253	2.534018	0.858548	0.000101
1816	1.8059e+02	-7.6843	-36.322110	0.000253	2.534018	0.858548	0.000101
1817	1.8069e+02	-7.6442	-36.164662	0.000395	3.953068	1.339336	0.000158
1818	1.8079e+02	-7.5944	-36.063734	0.000253	2.534018	0.858548	0.000101
1819	1.8089e+02	-7.5736	-35.922434	0.000355	3.547625	1.201968	0.000142
1820	1.8099e+02	-7.5222	-35.809394	0.000284	2.838100	0.961574	0.000114
1821	1.8109e+02	-7.4789	-35.668094	0.000355	3.547625	1.201968	0.000142
1822	1.8119e+02	-7.4468	-35.510646	0.000395	3.953068	1.339336	0.000158
1823	1.8129e+02	-7.4100	-35.401643	0.000274	2.736739	0.927232	0.000110
1824	1.8139e+02	-7.3634	-35.276492	0.000314	3.142182	1.064600	0.000126
1825	1.8149e+02	-7.3394	-35.106932	0.000426	4.257150	1.442361	0.000170
1826	1.8159e+02	-7.2848	-35.018115	0.000223	2.229936	0.755523	0.000089
1827	1.8169e+02	-7.2479	-34.913150	0.000264	2.635379	0.892890	0.000105
1828	1.8179e+02	-7.2030	-34.743590	0.000426	4.257150	1.442361	0.000170
1829	1.8189e+02	-7.1677	-34.626513	0.000294	2.939461	0.995916	0.000118
1830	1.8199e+02	-7.1276	-34.460991	0.000416	4.155789	1.408020	0.000166
1831	1.8209e+02	-7.0923	-34.364099	0.000243	2.432657	0.824207	0.000097
1832	1.8218e+02	-7.0522	-34.202614	0.000405	4.054429	1.373678	0.000162
1833	1.8228e+02	-7.0009	-34.057277	0.000365	3.648986	1.236310	0.000146
1834	1.8238e+02	-6.9752	-33.964423	0.000233	2.331296	0.789865	0.000093
1835	1.8248e+02	-6.9271	-33.782752	0.000456	4.561232	1.545387	0.000183
1836	1.8258e+02	-6.8934	-33.669712	0.000284	2.838100	0.961574	0.000114
1837	1.8268e+02	-6.8517	-33.532449	0.000345	3.446264	1.167626	0.000138
1838	1.8278e+02	-6.8100	-33.423447	0.000274	2.736739	0.927232	0.000110
1839	1.8288e+02	-6.7602	-33.274073	0.000375	3.750346	1.270652	0.000150
1840	1.8298e+02	-6.7346	-33.128736	0.000365	3.648986	1.236310	0.000146
1841	1.8308e+02	-6.6848	-32.943028	0.000466	4.662593	1.579729	0.000187
1842	1.8318e+02	-6.6479	-32.886508	0.000142	1.419050	0.480787	0.000057
1843	1.8328e+02	-6.6110	-32.688688	0.000497	4.966675	1.682755	0.000199
1844	1.8338e+02	-6.5565	-32.583723	0.000264	2.635379	0.892890	0.000105
1845	1.8348e+02	-6.5276	-32.442423	0.000355	3.547625	1.201968	0.000142
1846	1.8358e+02	-6.4891	-32.321309	0.000304	3.040821	1.030258	0.000122
1847	1.8368e+02	-6.4506	-32.143675	0.000446	4.459871	1.511045	0.000179
1848	1.8378e+02	-6.4137	-32.079081	0.000162	1.621771	0.549471	0.000065
1849	1.8388e+02	-6.3768	-31.921632	0.000395	3.953068	1.339336	0.000158
1850	1.8398e+02	-6.3303	-31.784370	0.000345	3.446264	1.167626	0.000138
1851	1.8407e+02	-6.2998	-31.598661	0.000466	4.662593	1.579729	0.000187
1852	1.8417e+02	-6.2517	-31.509844	0.000223	2.229936	0.755523	0.000089
1853	1.8427e+02	-6.2244	-31.372582	0.000345	3.446264	1.167626	0.000138
1854	1.8437e+02	-6.1747	-31.186874	0.000466	4.662593	1.579729	0.000187
1855	1.8447e+02	-6.1362	-31.094019	0.000233	2.331296	0.789865	0.000093
1856	1.8457e+02	-6.1057	-30.952720	0.000355	3.547625	1.201968	0.000142
1857	1.8467e+02	-6.0576	-30.815457	0.000345	3.446264	1.167626	0.000138
1858	1.8477e+02	-6.0175	-30.686269	0.000324	3.243543	1.098942	0.000130
1859	1.8487e+02	-5.9758	-30.573229	0.000284	2.838100	0.961574	0.000114
1860	1.8497e+02	-5.9421	-30.391558	0.000456	4.561232	1.545387	0.000183
1861	1.8507e+02	-5.9004	-30.226035	0.000416	4.155789	1.408020	0.000166
1862	1.8517e+02	-5.8522	-30.153367	0.000182	1.824493	0.618155	0.000073
1863	1.8527e+02	-5.8073	-29.963621	0.000476	4.763954	1.614071	0.000191
1864	1.8537e+02	-5.7817	-29.830396	0.000334	3.344904	1.133284	0.000134
1865	1.8547e+02	-5.7303	-29.664873	0.000416	4.155789	1.408020	0.000166
1866	1.8557e+02	-5.6934	-29.559908	0.000264	2.635379	0.892890	0.000105
1867	1.8567e+02	-5.6581	-29.386311	0.000436	4.358511	1.476703	0.000174
1868	1.8577e+02	-5.6116	-29.273271	0.000284	2.838100	0.961574	0.000114
1869	1.8587e+02	-5.5827	-29.168306	0.000264	2.635379	0.892890	0.000105
1870	1.8597e+02	-5.5314	-28.970486	0.000497	4.966675	1.682755	0.000199
1871	1.8606e+02	-5.4993	-28.893780	0.000193	1.925854	0.652497	0.000077
1872	1.8616e+02	-5.4496	-28.732295	0.000405	4.054429	1.373678	0.000162
1873	1.8626e+02	-5.4287	-28.582921	0.000375	3.750346	1.270652	0.000150
1874	1.8636e+02	-5.3854	-28.385101	0.000497	4.966675	1.682755	0.000199
1875	1.8646e+02	-5.3357	-28.259950	0.000314	3.142182	1.064600	0.000126
1876	1.8656e+02	-5.3036	-28.102502	0.000395	3.953068	1.339336	0.000158
1877	1.8666e+02	-5.2635	-27.989462	0.000284	2.838100	0.961574	0.000114
1878	1.8676e+02	-5.2089	-27.815865	0.000436	4.358511	1.476703	0.000174
1879	1.8686e+02	-5.1785	-27.666491	0.000375	3.750346	1.270652	0.000150
1880	1.8696e+02	-5.1335	-27.541340	0.000314	3.142182	1.064600	0.000126
1881	1.8706e+02	-5.1031	-27.420226	0.000304	3.040821	1.030258	0.000122
1882	1.8716e+02	-5.0469	-27.270852	0.000375	3.750346	1.270652	0.000150
1883	1.8726e+02	-5.0309	-27.073032	0.000497	4.966675	1.682755	0.000199
1884	1.8736e+02	-4.9795	-26.959992	0.000284	2.838100	0.961574	0.000114
1885	1.8746e+02	-4.9442	-26.762173	0.000497	4.966675	1.682755	0.000199
1886	1.8756e+02	-4.9009	-26.649133	0.000284	2.838100	0.961574	0.000114
1887	1.8766e+02	-4.8608	-26.487648	0.000405	4.054429	1.373678	0.000162
1888	1.8776e+02	-4.8191	-26.301939	0.000466	4.662593	1.579729	0.000187
1889	1.8786e+02	-4.7838	-26.164677	0.000345	3.446264	1.167626	0.000138
1890	1.8796e+02	-4.7453	-26.059711	0.000264	2.635379	0.892890	0.000105
1891	1.8806e+02	-4.7052	-25.869966	0.000476	4.763954	1.614071	0.000191
1892	1.8815e+02	-4.6587	-25.736740	0.000334	3.344904	1.133284	0.000134
1893	1.8825e+02	-4.6250	-25.619663	0.000294	2.939461	0.995916	0.000118
1894	1.8835e+02	-4.5785	-25.474327	0.000365	3.648986	1.236310	0.000146
1895	1.8845e+02	-4.5400	-25.268433	0.000517	5.169396	1.751439	0.000207
1896	1.8855e+02	-4.4983	-25.135207	0.000334	3.344904	1.133284	0.000134
1897	1.8865e+02	-4.4646	-25.022167	0.000284	2.838100	0.961574	0.000114
1898	1.8875e+02	-4.4309	-24.836459	0.000466	4.662593	1.579729	0.000187
1899	1.8885e+02	-4.3860	-24.658825	0.000446	4.459871	1.511045	0.000179
1900	1.8895e+02	-4.3362	-24.545785	0.000284	2.838100	0.961574	0.000114
1901	1.8905e+02	-4.3009	-24.343929	0.000507	5.068036	1.717097	0.000203
1902	1.8915e+02	-4.2641	-24.267223	0.000193	1.925854	0.652497	0.000077
1903	1.8925e+02	-4.2223	-24.065366	0.000507	5.068036	1.717097	0.000203
1904	1.8935e+02	-4.1854	-23.907918	0.000395	3.953068	1.339336	0.000158
1905	1.8945e+02	-4.1421	-23.798915	0.000274	2.736739	0.927232	0.000110
1906	1.8955e+02	-4.1068	-23.645504	0.000385	3.851707	1.304994	0.000154
1907	1.8965e+02	-4.0571	-23.439610	0.000517	5.169396	1.751439	0.000207
1908	1.8975e+02	-4.0250	-23.334645	0.000264	2.635379	0.892890	0.000105
1909	1.8985e+02	-3.9929	-23.181233	0.000385	3.851707	1.304994	0.000154
1910	1.8995e+02	-3.9464	-23.072231	0.000274	2.736739	0.927232	0.000110
1911	1.9004e+02	-3.9063	-22.834040	0.000598	5.980282	2.026174	0.000239
1912	1.9014e+02	-3.8582	-22.696777	0.000345	3.446264	1.167626	0.000138
1913	1.9024e+02	-3.8197	-22.551440	0.000365	3.648986	1.236310	0.000146
1914	1.9034e+02	-3.7892	-22.389955	0.000405	4.054429	1.373678	0.000162
1915	1.9044e+02	-3.7475	-22.280952	0.000274	2.736739	0.927232	0.000110
1916	1.9054e+02	-3.7090	-22.062947	0.000547	5.473479	1.854465	0.000219
1917	1.9064e+02	-3.6705	-21.921647	0.000355	3.547625	1.201968	0.000142
1918	1.9074e+02	-3.6224	-21.800533	0.000304	3.040821	1.030258	0.000122
1919	1.9084e+02	-3.5887	-21.618862	0.000456	4.561232	1.545387	0.000183
1920	1.9094e+02	-3.5486	-21.489674	0.000324	3.243543	1.098942	0.000130
1921	1.9104e+02	-3.5069	-21.283780	0.000517	5.169396	1.751439	0.000207
1922	1.9114e+02	-3.4732	-21.150554	0.000334	3.344904	1.133284	0.000134
1923	1.9124e+02	-3.4234	-20.972920	0.000446	4.459871	1.511045	0.000179
1924	1.9134e+02	-3.3769	-20.843732	0.000324	3.243543	1.098942	0.000130
1925	1.9144e+02	-3.3464	-20.662061	0.000456	4.561232	1.545387	0.000183
1926	1.9154e+02	-3.3015	-20.532872	0.000324	3.243543	1.098942	0.000130
1927	1.9164e+02	-3.2662	-20.331016	0.000507	5.068036	1.717097	0.000203
1928	1.9174e+02	-3.2245	-20.209902	0.000304	3.040821	1.030258	0.000122
1929	1.9184e+02	-3.1844	-20.032268	0.000446	4.459871	1.511045	0.000179
1930	1.9194e+02	-3.1443	-19.903079	0.000324	3.243543	1.098942	0.000130
1931	1.9203e+02	-3.0930	-19.709297	0.000487	4.865314	1.648413	0.000195
1932	1.9213e+02	-3.0705	-19.559923	0.000375	3.750346	1.270652	0.000150
1933	1.9223e+02	-3.0320	-19.426697	0.000334	3.344904	1.133284	0.000134
1934	1.9233e+02	-2.9903	-19.245026	0.000456	4.561232	1.545387	0.000183
1935	1.9243e+02	-2.9438	-19.067392	0.000446	4.459871	1.511045	0.000179
1936	1.9253e+02	-2.9069	-18.909944	0.000395	3.953068	1.339336	0.000158
1937	1.9263e+02	-2.8652	-18.776718	0.000334	3.344904	1.133284	0.000134
1938	1.9273e+02	-2.8299	-18.582936	0.000487	4.865314	1.648413	0.000195
1939	1.9283e+02	-2.7898	-18.425488	0.000395	3.953068	1.339336	0.000158
1940	1.9293e+02	-2.7481	-18.284188	0.000355	3.547625	1.201968	0.000142
1941	1.9303e+02	-2.7128	-18.114628	0.000426	4.257150	1.442361	0.000170
1942	1.9313e+02	-2.6646	-17.957180	0.000395	3.953068	1.339336	0.000158
1943	1.9323e+02	-2.6293	-17.775509	0.000456	4.561232	1.545387	0.000183
1944	1.9333e+02	-2.5908	-17.626135	0.000375	3.750346	1.270652	0.000150
1945	1.9343e+02	-2.5555	-17.400055	0.000568	5.676200	1.923149	0.000227
1946	1.9353e+02	-2.5122	-17.299127	0.000253	2.534018	0.858548	0.000101
1947	1.9363e+02	-2.4705	-17.137641	0.000405	4.054429	1.373678	0.000162
1948	1.9373e+02	-2.4208	-16.984230	0.000385	3.851707	1.304994	0.000154
1949	1.9383e+02	-2.3807	-16.770262	0.000537	5.372118	1.820123	0.000215
1950	1.9393e+02	-2.3502	-16.665296	0.000264	2.635379	0.892890	0.000105
1951	1.9403e+02	-2.3069	-16.443254	0.000557	5.574839	1.888807	0.000223
1952	1.9412e+02	-2.2684	-16.281768	0.000405	4.054429	1.373678	0.000162
1953	1.9422e+02	-2.2347	-16.112209	0.000426	4.257150	1.442361	0.000170
1954	1.9432e+02	-2.1898	-15.974946	0.000345	3.446264	1.167626	0.000138
1955	1.9442e+02	-2.1561	-15.805386	0.000426	4.257150	1.442361	0.000170
1956	1.9452e+02	-2.1080	-15.619678	0.000466	4.662593	1.579729	0.000187
1957	1.9462e+02	-2.0679	-15.478378	0.000355	3.547625	1.201968	0.000142
1958	1.9472e+02	-2.0278	-15.304782	0.000436	4.358511	1.476703	0.000174
1959	1.9482e+02	-1.9876	-15.155408	0.000375	3.750346	1.270652	0.000150
1960	1.9492e+02	-1.9604	-14.981811	0.000436	4.358511	1.476703	0.000174
1961	1.9502e+02	-1.9122	-14.812251	0.000426	4.257150	1.442361	0.000170
1962	1.9512e+02	-1.8641	-14.614431	0.000497	4.966675	1.682755	0.000199
1963	1.9522e+02	-1.8272	-14.501392	0.000284	2.838100	0.961574	0.000114
1964	1.9532e+02	-1.7823	-14.275312	0.000568	5.676200	1.923149	0.000227
1965	1.9542e+02	-1.7598	-14.134012	0.000355	3.547625	1.201968	0.000142
1966	1.9552e+02	-1.7117	-13.964453	0.000426	4.257150	1.442361	0.000170
1967	1.9562e+02	-1.6828	-13.778744	0.000466	4.662593	1.579729	0.000187
1968	1.9572e+02	-1.6347	-13.629370	0.000375	3.750346	1.270652	0.000150
1969	1.9582e+02	-1.5994	-13.488071	0.000355	3.547625	1.201968	0.000142
1970	1.9592e+02	-1.5609	-13.314474	0.000436	4.358511	1.476703	0.000174
1971	1.9601e+02	-1.5176	-13.128765	0.000466	4.662593	1.579729	0.000187
1972	1.9611e+02	-1.4791	-12.959206	0.000426	4.257150	1.442361	0.000170
1973	1.9621e+02	-1.4342	-12.793683	0.000416	4.155789	1.408020	0.000166
1974	1.9631e+02	-1.3941	-12.636235	0.000395	3.953068	1.339336	0.000158
1975	1.9641e+02	-1.3556	-12.478787	0.000395	3.953068	1.339336	0.000158
1976	1.9651e+02	-1.3091	-12.268856	0.000527	5.270757	1.785781	0.000211
1977	1.9661e+02	-1.2706	-12.091222	0.000446	4.459871	1.511045	0.000179
1978	1.9671e+02	-1.2304	-11.994330	0.000243	2.432657	0.824207	0.000097
1979	1.9681e+02	-1.1968	-11.788436	0.000517	5.169396	1.751439	0.000207
1980	1.9691e+02	-1.1567	-11.578505	0.000527	5.270757	1.785781	0.000211
1981	1.9701e+02	-1.1117	-11.425094	0.000385	3.851707	1.304994	0.000154
1982	1.9711e+02	-1.0780	-11.243423	0.000456	4.561232	1.545387	0.000183
1983	1.9721e+02	-1.0331	-11.122309	0.000304	3.040821	1.030258	0.000122
1984	1.9731e+02	-0.9946	-10.940638	0.000456	4.561232	1.545387	0.000183
1985	1.9741e+02	-0.9593	-10.750892	0.000476	4.763954	1.614071	0.000191
1986	1.9751e+02	-0.9192	-10.577296	0.000436	4.358511	1.476703	0.000174
1987	1.9761e+02	-0.8839	-10.411773	0.000416	4.155789	1.408020	0.000166
1988	1.9771e+02	-0.8422	-10.246251	0.000416	4.155789	1.408020	0.000166
1989	1.9781e+02	-0.7989	-10.072654	0.000436	4.358511	1.476703	0.000174
1990	1.9791e+02	-0.7572	-9.866760	0.000517	5.169396	1.751439	0.000207
1991	1.9800e+02	-0.7091	-9.757757	0.000274	2.736739	0.927232	0.000110
1992	1.9810e+02	-0.6786	-9.523603	0.000588	5.878921	1.991833	0.000235
1993	1.9820e+02	-0.6321	-9.362118	0.000405	4.054429	1.373678	0.000162
1994	1.9830e+02	-0.6016	-9.208707	0.000385	3.851707	1.304994	0.000154
1995	1.9840e+02	-0.5454	-8.986664	0.000557	5.574839	1.888807	0.000223
1996	1.9850e+02	-0.5182	-8.841327	0.000365	3.648986	1.236310	0.000146
1997	1.9860e+02	-0.4781	-8.675805	0.000416	4.155789	1.408020	0.000166
1998	1.9870e+02	-0.4396	-8.486059	0.000476	4.763954	1.614071	0.000191
1999	1.9880e+02	-0.3946	-8.308425	0.000446	4.459871	1.511045	0.000179
2000	1.9890e+02	-0.3626	-8.175200	0.000334	3.344904	1.133284	0.000134
2001	1.9900e+02	-0.3257	-7.989492	0.000466	4.662593	1.579729	0.000187
2002	1.9910e+02	-0.2839	-7.819932	0.000426	4.257150	1.442361	0.000170
2003	1.9920e+02	-0.2358	-7.610001	0.000527	5.270757	1.785781	0.000211
2004	1.9930e+02	-0.1989	-7.456590	0.000385	3.851707	1.304994	0.000154
2005	1.9940e+02	-0.1588	-7.295104	0.000405	4.054429	1.373678	0.000162
2006	1.9950e+02	-0.1155	-7.105359	0.000476	4.763954	1.614071	0.000191
2007	1.9960e+02	-0.0738	-6.935799	0.000426	4.257150	1.442361	0.000170
2008	1.9970e+02	-0.0385	-6.754128	0.000456	4.561232	1.545387	0.000183
2009	1.9980e+02	0.0016	-6.596680	0.000456	4.561232	1.545387	0.000158

Center data before PMax,+/-Pr and +/-Vc Calc.

PMax (uC/cm2):	6.77e+01
Pr (uC/cm2):	1.29e+00
-Pr (uC/cm2):	-6.60e+00
PLoss (uC/cm2):	-3.45e+00
Vc:	7.76e-01
-Vc:	-2.89e-01
C (Max-Eff) (nF):	3.38e-01
K (Eff):	1.15e+03
Vert. (+/-Pr) Shift (uC/cm2):	-2.65e+00
Horiz. Shift (+/-Vc):	2.43e-01
Offset (uC/cm2):	3.15e+00

A (Loop Area - uC/cm2·Volts):	2.41e-02



Hysteresis Version: 5.48.1 - Radiant Technologies, Inc., 1999 - 9/12/24

