»»»»»»»»»»»»»»»»»»»»»»»»»»»»»»»»»»»» Hysteresis ««««««««««««««««««««««««««««««««««««
»»»  Executed Version:	5.48.1
»»»  Vision Version:	5.48.4 (R)
»»»  Vision Compiled:	9/18/24
»»»  Driver Version:	5.47.0
»»»  Windows Version:	Windows 8 or 8.1
»»»  Processor Information:	x86 (AMD or Intel) - 32 Processors
»»»  Tester Name:	PMF21124-494 (100V)
»»»  Tester S/N:	PMF21124-494
»»»  Internal Amp Type:	100V RevK 270k
»»»  Internal Amp S/N:	iAB2-596/K     
»»»  Execution Count:	1
»»»»»»»»»»»»»»»»»»»»»»»»»»»»»»»»»»»»»»»»»»««««««««««««««««««««««««««««««««««««««««««

Stored:	6/13/2025 - 16:14:19
Configured:	06/13/25 01:30:53 PM
Executed:	06/13/25 04:13:17 PM

»»»»»»»»»»»»»»»»»»»»»»»»»»»»»»»»»»» Sample Info ««««««««««««««««««««««««««««««««««««
Sample Name:	
Lot Name:	
Wafer Name:	
Die Row/Column:	0/0
Capacitor Number:	0
Sample Area (cm2):	1.00e-04
Sample Thickness (microns):	3.00e-01

Amplifier:	Internal

»»»»»»»»»»»»»»»»»»»»»»»»»»»»»»»»»»» Tester Info «««««««««««««««««««««««««««««««««««
Tester Name:	PMF21124-494 (100V)
Tester Serial Number:	PMF21124-494
Return Signal Amp. Level:	0.19 [Index: 3]

»»»»»»»»»»»»»»»»»»»»»»»»»»»»»»»» Hysteresis Info ««««««««««««««««««««««««««««««««««
Task Name:	Hyst-1922
Volts:	20.00
Field:	666.67 (kV/cm)
DCBias:	0.00
DCField:	0.00 (kV/cm)
Hysteresis Period (ms):	2.00e+02
Preset:	Enabled
Preset Delay (ms):	1.00e+03
Profile:	Standard Bipolar

»»»»»»»»»»»»»»»»»»»»»»»»»»»»»»»»»»»»»» Data «««««««««««««««««««««««««««««««««««««««
Points:	2009

Valid Data

Point	Time (ms)	Drive Voltage	Measured Polarization (uC/cm2)	Capacitance (uF)	Normalized Capacitance (uF/cm2)	Dielectric Constant	Instantaneous Current (mA)
   1	0.0000e+00	0.0112	-3.245857	0.000395	3.953068	1.339336	0.000158
   2	9.9500e-02	0.0353	-3.088409	0.000395	3.953068	1.339336	0.000158
   3	1.9900e-01	0.0690	-2.918849	0.000426	4.257150	1.442361	0.000170
   4	2.9850e-01	0.1123	-2.729104	0.000476	4.763954	1.614071	0.000191
   5	3.9800e-01	0.1524	-2.523210	0.000517	5.169396	1.751439	0.000207
   6	4.9750e-01	0.1989	-2.325390	0.000497	4.966675	1.682755	0.000199
   7	5.9700e-01	0.2342	-2.159868	0.000416	4.155789	1.408020	0.000166
   8	6.9650e-01	0.2775	-1.917639	0.000608	6.081643	2.060516	0.000243
   9	7.9600e-01	0.3080	-1.735968	0.000456	4.561232	1.545387	0.000183
  10	8.9550e-01	0.3545	-1.582557	0.000385	3.851707	1.304994	0.000154
  11	9.9500e-01	0.3946	-1.408960	0.000436	4.358511	1.476703	0.000174
  12	1.0945e+00	0.4412	-1.178844	0.000578	5.777561	1.957491	0.000231
  13	1.1940e+00	0.4909	-0.968913	0.000527	5.270757	1.785781	0.000211
  14	1.2935e+00	0.5118	-0.771093	0.000497	4.966675	1.682755	0.000199
  15	1.3930e+00	0.5647	-0.601533	0.000426	4.257150	1.442361	0.000170
  16	1.4925e+00	0.5904	-0.395639	0.000517	5.169396	1.751439	0.000207
  17	1.5920e+00	0.6240	-0.193783	0.000507	5.068036	1.717097	0.000203
  18	1.6915e+00	0.6738	0.032297	0.000568	5.676200	1.923149	0.000227
  19	1.7910e+00	0.7107	0.205894	0.000436	4.358511	1.476703	0.000174
  20	1.8905e+00	0.7444	0.403714	0.000497	4.966675	1.682755	0.000199
  21	1.9900e+00	0.7877	0.601533	0.000497	4.966675	1.682755	0.000199
  22	2.0895e+00	0.8310	0.795316	0.000487	4.865314	1.648413	0.000195
  23	2.1890e+00	0.8727	1.013321	0.000547	5.473479	1.854465	0.000219
  24	2.2885e+00	0.9176	1.235364	0.000557	5.574839	1.888807	0.000223
  25	2.3880e+00	0.9609	1.388775	0.000385	3.851707	1.304994	0.000154
  26	2.4875e+00	0.9978	1.602743	0.000537	5.372118	1.820123	0.000215
  27	2.5870e+00	1.0331	1.804600	0.000507	5.068036	1.717097	0.000203
  28	2.6865e+00	1.0813	1.998382	0.000487	4.865314	1.648413	0.000195
  29	2.7860e+00	1.1133	2.216388	0.000547	5.473479	1.854465	0.000219
  30	2.8855e+00	1.1534	2.422281	0.000517	5.169396	1.751439	0.000207
  31	2.9850e+00	1.2032	2.620101	0.000497	4.966675	1.682755	0.000199
  32	3.0845e+00	1.2256	2.850218	0.000578	5.777561	1.957491	0.000231
  33	3.1840e+00	1.2657	2.971332	0.000304	3.040821	1.030258	0.000122
  34	3.2835e+00	1.3171	3.225671	0.000639	6.385725	2.163542	0.000256
  35	3.3830e+00	1.3476	3.415417	0.000476	4.763954	1.614071	0.000191
  36	3.4825e+00	1.3845	3.609199	0.000487	4.865314	1.648413	0.000195
  37	3.5820e+00	1.4310	3.815093	0.000517	5.169396	1.751439	0.000207
  38	3.6815e+00	1.4743	4.045210	0.000578	5.777561	1.957491	0.000231
  39	3.7810e+00	1.5192	4.194584	0.000375	3.750346	1.270652	0.000150
  40	3.8805e+00	1.5481	4.404515	0.000527	5.270757	1.785781	0.000211
  41	3.9800e+00	1.5850	4.638669	0.000588	5.878921	1.991833	0.000235
  42	4.0795e+00	1.6299	4.808229	0.000426	4.257150	1.442361	0.000170
  43	4.1790e+00	1.6748	4.969714	0.000405	4.054429	1.373678	0.000162
  44	4.2785e+00	1.7085	5.207905	0.000598	5.980282	2.026174	0.000239
  45	4.3780e+00	1.7470	5.409762	0.000507	5.068036	1.717097	0.000203
  46	4.4775e+00	1.7839	5.623730	0.000537	5.372118	1.820123	0.000215
  47	4.5770e+00	1.8272	5.805401	0.000456	4.561232	1.545387	0.000183
  48	4.6765e+00	1.8721	5.999184	0.000487	4.865314	1.648413	0.000195
  49	4.7760e+00	1.9106	6.233338	0.000588	5.878921	1.991833	0.000235
  50	4.8755e+00	1.9491	6.439232	0.000517	5.169396	1.751439	0.000207
  51	4.9750e+00	1.9957	6.616865	0.000446	4.459871	1.511045	0.000179
  52	5.0745e+00	2.0149	6.826797	0.000527	5.270757	1.785781	0.000211
  53	5.1740e+00	2.0663	7.028653	0.000507	5.068036	1.717097	0.000203
  54	5.2735e+00	2.1096	7.234547	0.000517	5.169396	1.751439	0.000207
  55	5.3730e+00	2.1497	7.436404	0.000507	5.068036	1.717097	0.000203
  56	5.4725e+00	2.1818	7.626149	0.000476	4.763954	1.614071	0.000191
  57	5.5720e+00	2.2331	7.840118	0.000537	5.372118	1.820123	0.000215
  58	5.6715e+00	2.2668	8.037937	0.000497	4.966675	1.682755	0.000199
  59	5.7710e+00	2.3069	8.207497	0.000426	4.257150	1.442361	0.000170
  60	5.8705e+00	2.3470	8.413391	0.000517	5.169396	1.751439	0.000207
  61	5.9700e+00	2.3919	8.663693	0.000628	6.284364	2.129200	0.000252
  62	6.0695e+00	2.4256	8.845364	0.000456	4.561232	1.545387	0.000183
  63	6.1690e+00	2.4689	9.071444	0.000568	5.676200	1.923149	0.000227
  64	6.2685e+00	2.5058	9.289449	0.000547	5.473479	1.854465	0.000219
  65	6.3680e+00	2.5427	9.479195	0.000476	4.763954	1.614071	0.000191
  66	6.4675e+00	2.5924	9.644717	0.000416	4.155789	1.408020	0.000166
  67	6.5670e+00	2.6293	9.866760	0.000557	5.574839	1.888807	0.000223
  68	6.6665e+00	2.6710	10.048431	0.000456	4.561232	1.545387	0.000183
  69	6.7660e+00	2.7095	10.238176	0.000476	4.763954	1.614071	0.000191
  70	6.8655e+00	2.7464	10.460219	0.000557	5.574839	1.888807	0.000223
  71	6.9650e+00	2.7866	10.641890	0.000456	4.561232	1.545387	0.000183
  72	7.0645e+00	2.8299	10.855858	0.000537	5.372118	1.820123	0.000215
  73	7.1640e+00	2.8684	11.094049	0.000598	5.980282	2.026174	0.000239
  74	7.2635e+00	2.9085	11.308017	0.000537	5.372118	1.820123	0.000215
  75	7.3630e+00	2.9422	11.469503	0.000405	4.054429	1.373678	0.000162
  76	7.4625e+00	2.9903	11.675397	0.000517	5.169396	1.751439	0.000207
  77	7.5620e+00	3.0240	11.869179	0.000487	4.865314	1.648413	0.000195
  78	7.6615e+00	3.0689	12.054887	0.000466	4.662593	1.579729	0.000187
  79	7.7610e+00	3.1042	12.280967	0.000568	5.676200	1.923149	0.000227
  80	7.8605e+00	3.1411	12.466675	0.000466	4.662593	1.579729	0.000187
  81	7.9600e+00	3.1812	12.680643	0.000537	5.372118	1.820123	0.000215
  82	8.0595e+00	3.2245	12.890574	0.000527	5.270757	1.785781	0.000211
  83	8.1590e+00	3.2646	13.088394	0.000497	4.966675	1.682755	0.000199
  84	8.2585e+00	3.3047	13.278139	0.000476	4.763954	1.614071	0.000191
  85	8.3580e+00	3.3368	13.475959	0.000497	4.966675	1.682755	0.000199
  86	8.4575e+00	3.3817	13.677816	0.000507	5.068036	1.717097	0.000203
  87	8.5570e+00	3.4250	13.891784	0.000537	5.372118	1.820123	0.000215
  88	8.6565e+00	3.4619	14.089604	0.000497	4.966675	1.682755	0.000199
  89	8.7560e+00	3.5069	14.303572	0.000537	5.372118	1.820123	0.000215
  90	8.8555e+00	3.5373	14.473132	0.000426	4.257150	1.442361	0.000170
  91	8.9550e+00	3.5823	14.670951	0.000497	4.966675	1.682755	0.000199
  92	9.0545e+00	3.6191	14.824362	0.000385	3.851707	1.304994	0.000154
  93	9.1540e+00	3.6721	15.098888	0.000689	6.892529	2.335252	0.000276
  94	9.2535e+00	3.6929	15.215965	0.000294	2.939461	0.995916	0.000118
  95	9.3530e+00	3.7491	15.474341	0.000649	6.487086	2.197884	0.000260
  96	9.4525e+00	3.7764	15.611604	0.000345	3.446264	1.167626	0.000138
  97	9.5520e+00	3.8229	15.817498	0.000517	5.169396	1.751439	0.000207
  98	9.6515e+00	3.8662	16.027429	0.000527	5.270757	1.785781	0.000211
  99	9.7510e+00	3.8983	16.213137	0.000466	4.662593	1.579729	0.000187
 100	9.8505e+00	3.9336	16.410957	0.000497	4.966675	1.682755	0.000199
 101	9.9500e+00	3.9865	16.620888	0.000527	5.270757	1.785781	0.000211
 102	1.0050e+01	4.0282	16.810633	0.000476	4.763954	1.614071	0.000191
 103	1.0149e+01	4.0796	16.984230	0.000436	4.358511	1.476703	0.000174
 104	1.0248e+01	4.1052	17.194161	0.000527	5.270757	1.785781	0.000211
 105	1.0348e+01	4.1389	17.391981	0.000497	4.966675	1.682755	0.000199
 106	1.0447e+01	4.1758	17.609986	0.000547	5.473479	1.854465	0.000219
 107	1.0547e+01	4.2111	17.779546	0.000426	4.257150	1.442361	0.000170
 108	1.0646e+01	4.2560	17.949105	0.000426	4.257150	1.442361	0.000170
 109	1.0746e+01	4.2929	18.154999	0.000517	5.169396	1.751439	0.000207
 110	1.0845e+01	4.3346	18.377042	0.000557	5.574839	1.888807	0.000223
 111	1.0945e+01	4.3747	18.562750	0.000466	4.662593	1.579729	0.000187
 112	1.1044e+01	4.4229	18.708087	0.000365	3.648986	1.236310	0.000146
 113	1.1144e+01	4.4598	18.861498	0.000385	3.851707	1.304994	0.000154
 114	1.1243e+01	4.4967	19.148135	0.000720	7.196611	2.438278	0.000288
 115	1.1343e+01	4.5336	19.293472	0.000365	3.648986	1.236310	0.000146
 116	1.1443e+01	4.5769	19.499366	0.000517	5.169396	1.751439	0.000207
 117	1.1542e+01	4.6138	19.697185	0.000497	4.966675	1.682755	0.000199
 118	1.1642e+01	4.6635	19.866745	0.000426	4.257150	1.442361	0.000170
 119	1.1741e+01	4.7004	20.064565	0.000497	4.966675	1.682755	0.000199
 120	1.1841e+01	4.7405	20.254310	0.000476	4.763954	1.614071	0.000191
 121	1.1940e+01	4.7694	20.431944	0.000446	4.459871	1.511045	0.000179
 122	1.2040e+01	4.8207	20.589392	0.000395	3.953068	1.339336	0.000158
 123	1.2139e+01	4.8592	20.847769	0.000649	6.487086	2.197884	0.000260
 124	1.2239e+01	4.8993	21.017329	0.000426	4.257150	1.442361	0.000170
 125	1.2338e+01	4.9410	21.186888	0.000426	4.257150	1.442361	0.000170
 126	1.2438e+01	4.9715	21.372597	0.000466	4.662593	1.579729	0.000187
 127	1.2537e+01	5.0180	21.534082	0.000405	4.054429	1.373678	0.000162
 128	1.2636e+01	5.0614	21.756124	0.000557	5.574839	1.888807	0.000223
 129	1.2736e+01	5.0950	21.929721	0.000436	4.358511	1.476703	0.000174
 130	1.2835e+01	5.1384	22.139652	0.000527	5.270757	1.785781	0.000211
 131	1.2935e+01	5.1720	22.325361	0.000466	4.662593	1.579729	0.000187
 132	1.3034e+01	5.2202	22.470698	0.000365	3.648986	1.236310	0.000146
 133	1.3134e+01	5.2523	22.716963	0.000618	6.183004	2.094858	0.000248
 134	1.3233e+01	5.2940	22.854225	0.000345	3.446264	1.167626	0.000138
 135	1.3333e+01	5.3437	23.052045	0.000497	4.966675	1.682755	0.000199
 136	1.3432e+01	5.3806	23.233716	0.000456	4.561232	1.545387	0.000183
 137	1.3532e+01	5.4239	23.451722	0.000547	5.473479	1.854465	0.000219
 138	1.3632e+01	5.4480	23.617244	0.000416	4.155789	1.408020	0.000166
 139	1.3731e+01	5.4865	23.782767	0.000416	4.155789	1.408020	0.000166
 140	1.3831e+01	5.5346	23.960401	0.000446	4.459871	1.511045	0.000179
 141	1.3930e+01	5.5827	24.158220	0.000497	4.966675	1.682755	0.000199
 142	1.4030e+01	5.6180	24.352003	0.000487	4.865314	1.648413	0.000195
 143	1.4129e+01	5.6581	24.521562	0.000426	4.257150	1.442361	0.000170
 144	1.4229e+01	5.6854	24.707271	0.000466	4.662593	1.579729	0.000187
 145	1.4328e+01	5.7399	24.901053	0.000487	4.865314	1.648413	0.000195
 146	1.4428e+01	5.7817	25.046390	0.000365	3.648986	1.236310	0.000146
 147	1.4527e+01	5.8153	25.264395	0.000547	5.473479	1.854465	0.000219
 148	1.4627e+01	5.8474	25.429918	0.000416	4.155789	1.408020	0.000166
 149	1.4726e+01	5.8875	25.639849	0.000527	5.270757	1.785781	0.000211
 150	1.4825e+01	5.9437	25.789223	0.000375	3.750346	1.270652	0.000150
 151	1.4925e+01	5.9774	25.991080	0.000507	5.068036	1.717097	0.000203
 152	1.5024e+01	6.0159	26.120268	0.000324	3.243543	1.098942	0.000130
 153	1.5124e+01	6.0544	26.334236	0.000537	5.372118	1.820123	0.000215
 154	1.5223e+01	6.0881	26.528019	0.000487	4.865314	1.648413	0.000195
 155	1.5323e+01	6.1330	26.669319	0.000355	3.547625	1.201968	0.000142
 156	1.5422e+01	6.1763	26.871175	0.000507	5.068036	1.717097	0.000203
 157	1.5522e+01	6.2116	27.024587	0.000385	3.851707	1.304994	0.000154
 158	1.5621e+01	6.2517	27.242592	0.000547	5.473479	1.854465	0.000219
 159	1.5721e+01	6.2854	27.351595	0.000274	2.736739	0.927232	0.000110
 160	1.5820e+01	6.3271	27.529229	0.000446	4.459871	1.511045	0.000179
 161	1.5920e+01	6.3865	27.767420	0.000598	5.980282	2.026174	0.000239
 162	1.6020e+01	6.4121	27.904682	0.000345	3.446264	1.167626	0.000138
 163	1.6119e+01	6.4522	28.094428	0.000476	4.763954	1.614071	0.000191
 164	1.6218e+01	6.4907	28.276099	0.000456	4.561232	1.545387	0.000183
 165	1.6318e+01	6.5308	28.433547	0.000395	3.953068	1.339336	0.000158
 166	1.6418e+01	6.5741	28.635404	0.000507	5.068036	1.717097	0.000203
 167	1.6517e+01	6.6110	28.833223	0.000497	4.966675	1.682755	0.000199
 168	1.6616e+01	6.6463	28.974523	0.000355	3.547625	1.201968	0.000142
 169	1.6716e+01	6.6880	29.144083	0.000426	4.257150	1.442361	0.000170
 170	1.6816e+01	6.7298	29.362088	0.000547	5.473479	1.854465	0.000219
 171	1.6915e+01	6.7634	29.531648	0.000426	4.257150	1.442361	0.000170
 172	1.7015e+01	6.8132	29.717356	0.000466	4.662593	1.579729	0.000187
 173	1.7114e+01	6.8485	29.899027	0.000456	4.561232	1.545387	0.000183
 174	1.7213e+01	6.8966	30.048401	0.000375	3.750346	1.270652	0.000150
 175	1.7313e+01	6.9287	30.226035	0.000446	4.459871	1.511045	0.000179
 176	1.7413e+01	6.9608	30.427892	0.000507	5.068036	1.717097	0.000203
 177	1.7512e+01	7.0057	30.605526	0.000446	4.459871	1.511045	0.000179
 178	1.7611e+01	7.0474	30.742789	0.000345	3.446264	1.167626	0.000138
 179	1.7711e+01	7.0859	30.920423	0.000446	4.459871	1.511045	0.000179
 180	1.7811e+01	7.1196	31.126317	0.000517	5.169396	1.751439	0.000207
 181	1.7910e+01	7.1629	31.267616	0.000355	3.547625	1.201968	0.000142
 182	1.8009e+01	7.2078	31.453325	0.000466	4.662593	1.579729	0.000187
 183	1.8109e+01	7.2495	31.586550	0.000334	3.344904	1.133284	0.000134
 184	1.8209e+01	7.2848	31.804555	0.000547	5.473479	1.854465	0.000219
 185	1.8308e+01	7.3249	31.998338	0.000487	4.865314	1.648413	0.000195
 186	1.8407e+01	7.3634	32.175972	0.000446	4.459871	1.511045	0.000179
 187	1.8507e+01	7.4003	32.321309	0.000365	3.648986	1.236310	0.000146
 188	1.8607e+01	7.4485	32.511054	0.000476	4.763954	1.614071	0.000191
 189	1.8706e+01	7.4773	32.660428	0.000375	3.750346	1.270652	0.000150
 190	1.8805e+01	7.5351	32.850174	0.000476	4.763954	1.614071	0.000191
 191	1.8905e+01	7.5559	33.056067	0.000517	5.169396	1.751439	0.000207
 192	1.9005e+01	7.6057	33.193330	0.000345	3.446264	1.167626	0.000138
 193	1.9104e+01	7.6442	33.379038	0.000466	4.662593	1.579729	0.000187
 194	1.9203e+01	7.6827	33.564747	0.000466	4.662593	1.579729	0.000187
 195	1.9303e+01	7.7276	33.718158	0.000385	3.851707	1.304994	0.000154
 196	1.9402e+01	7.7709	33.887717	0.000426	4.257150	1.442361	0.000170
 197	1.9502e+01	7.8110	34.089574	0.000507	5.068036	1.717097	0.000203
 198	1.9602e+01	7.8431	34.242985	0.000385	3.851707	1.304994	0.000154
 199	1.9701e+01	7.8912	34.412545	0.000426	4.257150	1.442361	0.000170
 200	1.9800e+01	7.9217	34.574030	0.000405	4.054429	1.373678	0.000162
 201	1.9900e+01	7.9618	34.767813	0.000487	4.865314	1.648413	0.000195
 202	2.0000e+01	8.0083	34.937373	0.000426	4.257150	1.442361	0.000170
 203	2.0099e+01	8.0484	35.098858	0.000405	4.054429	1.373678	0.000162
 204	2.0198e+01	8.0773	35.292641	0.000487	4.865314	1.648413	0.000195
 205	2.0298e+01	8.1254	35.437978	0.000365	3.648986	1.236310	0.000146
 206	2.0398e+01	8.1527	35.619649	0.000456	4.561232	1.545387	0.000183
 207	2.0497e+01	8.2008	35.777097	0.000395	3.953068	1.339336	0.000158
 208	2.0596e+01	8.2442	35.934545	0.000395	3.953068	1.339336	0.000158
 209	2.0696e+01	8.2955	36.128328	0.000487	4.865314	1.648413	0.000195
 210	2.0796e+01	8.3260	36.305962	0.000446	4.459871	1.511045	0.000179
 211	2.0895e+01	8.3709	36.451299	0.000365	3.648986	1.236310	0.000146
 212	2.0994e+01	8.3933	36.645081	0.000487	4.865314	1.648413	0.000195
 213	2.1094e+01	8.4335	36.794455	0.000375	3.750346	1.270652	0.000150
 214	2.1194e+01	8.4800	36.959978	0.000416	4.155789	1.408020	0.000166
 215	2.1293e+01	8.5249	37.157797	0.000497	4.966675	1.682755	0.000199
 216	2.1392e+01	8.5650	37.295060	0.000345	3.446264	1.167626	0.000138
 217	2.1492e+01	8.5971	37.500954	0.000517	5.169396	1.751439	0.000207
 218	2.1591e+01	8.6436	37.626105	0.000314	3.142182	1.064600	0.000126
 219	2.1691e+01	8.6709	37.815850	0.000476	4.763954	1.614071	0.000191
 220	2.1791e+01	8.7158	37.993484	0.000446	4.459871	1.511045	0.000179
 221	2.1890e+01	8.7575	38.126710	0.000334	3.344904	1.133284	0.000134
 222	2.1989e+01	8.7896	38.300307	0.000436	4.358511	1.476703	0.000174
 223	2.2089e+01	8.8441	38.465829	0.000416	4.155789	1.408020	0.000166
 224	2.2189e+01	8.8874	38.667686	0.000507	5.068036	1.717097	0.000203
 225	2.2288e+01	8.9147	38.825134	0.000395	3.953068	1.339336	0.000158
 226	2.2387e+01	8.9628	38.970471	0.000365	3.648986	1.236310	0.000146
 227	2.2487e+01	9.0094	39.144068	0.000436	4.358511	1.476703	0.000174
 228	2.2587e+01	9.0431	39.305554	0.000405	4.054429	1.373678	0.000162
 229	2.2686e+01	9.0800	39.463002	0.000395	3.953068	1.339336	0.000158
 230	2.2785e+01	9.1136	39.656784	0.000487	4.865314	1.648413	0.000195
 231	2.2885e+01	9.1634	39.798084	0.000355	3.547625	1.201968	0.000142
 232	2.2985e+01	9.2003	39.959570	0.000405	4.054429	1.373678	0.000162
 233	2.3084e+01	9.2356	40.145278	0.000466	4.662593	1.579729	0.000187
 234	2.3183e+01	9.2853	40.298689	0.000385	3.851707	1.304994	0.000154
 235	2.3283e+01	9.3206	40.484397	0.000466	4.662593	1.579729	0.000187
 236	2.3383e+01	9.3639	40.653957	0.000426	4.257150	1.442361	0.000170
 237	2.3482e+01	9.3912	40.807368	0.000385	3.851707	1.304994	0.000154
 238	2.3581e+01	9.4329	41.001151	0.000487	4.865314	1.648413	0.000195
 239	2.3681e+01	9.4810	41.150525	0.000375	3.750346	1.270652	0.000150
 240	2.3780e+01	9.5147	41.279713	0.000324	3.243543	1.098942	0.000130
 241	2.3880e+01	9.5516	41.477533	0.000497	4.966675	1.682755	0.000199
 242	2.3980e+01	9.5981	41.634981	0.000395	3.953068	1.339336	0.000158
 243	2.4079e+01	9.6414	41.780318	0.000365	3.648986	1.236310	0.000146
 244	2.4178e+01	9.6815	41.982175	0.000507	5.068036	1.717097	0.000203
 245	2.4278e+01	9.7184	42.147697	0.000416	4.155789	1.408020	0.000166
 246	2.4378e+01	9.7505	42.260737	0.000284	2.838100	0.961574	0.000114
 247	2.4477e+01	9.7987	42.414148	0.000385	3.851707	1.304994	0.000154
 248	2.4576e+01	9.8339	42.603893	0.000476	4.763954	1.614071	0.000191
 249	2.4676e+01	9.8773	42.753267	0.000375	3.750346	1.270652	0.000150
 250	2.4776e+01	9.9174	42.890530	0.000345	3.446264	1.167626	0.000138
 251	2.4875e+01	9.9527	43.096424	0.000517	5.169396	1.751439	0.000207
 252	2.4974e+01	9.9992	43.205427	0.000274	2.736739	0.927232	0.000110
 253	2.5074e+01	10.0457	43.383061	0.000446	4.459871	1.511045	0.000179
 254	2.5174e+01	10.0714	43.544546	0.000405	4.054429	1.373678	0.000162
 255	2.5273e+01	10.1179	43.701994	0.000395	3.953068	1.339336	0.000158
 256	2.5372e+01	10.1676	43.851368	0.000375	3.750346	1.270652	0.000150
 257	2.5472e+01	10.1901	44.057262	0.000517	5.169396	1.751439	0.000207
 258	2.5572e+01	10.2334	44.182414	0.000314	3.142182	1.064600	0.000126
 259	2.5671e+01	10.2719	44.347936	0.000416	4.155789	1.408020	0.000166
 260	2.5770e+01	10.3216	44.489236	0.000355	3.547625	1.201968	0.000142
 261	2.5870e+01	10.3537	44.654758	0.000416	4.155789	1.408020	0.000166
 262	2.5970e+01	10.3954	44.800095	0.000365	3.648986	1.236310	0.000146
 263	2.6069e+01	10.4403	44.957544	0.000395	3.953068	1.339336	0.000158
 264	2.6169e+01	10.4740	45.078658	0.000304	3.040821	1.030258	0.000122
 265	2.6268e+01	10.5109	45.268403	0.000476	4.763954	1.614071	0.000191
 266	2.6367e+01	10.5510	45.421814	0.000385	3.851707	1.304994	0.000154
 267	2.6467e+01	10.6008	45.563114	0.000355	3.547625	1.201968	0.000142
 268	2.6567e+01	10.6329	45.720562	0.000395	3.953068	1.339336	0.000158
 269	2.6666e+01	10.6698	45.869936	0.000375	3.750346	1.270652	0.000150
 270	2.6765e+01	10.7131	46.011236	0.000355	3.547625	1.201968	0.000142
 271	2.6865e+01	10.7548	46.196944	0.000466	4.662593	1.579729	0.000187
 272	2.6965e+01	10.7901	46.350355	0.000385	3.851707	1.304994	0.000154
 273	2.7064e+01	10.8334	46.495692	0.000365	3.648986	1.236310	0.000146
 274	2.7163e+01	10.8799	46.661215	0.000416	4.155789	1.408020	0.000166
 275	2.7263e+01	10.9184	46.802515	0.000355	3.547625	1.201968	0.000142
 276	2.7363e+01	10.9409	46.976111	0.000436	4.358511	1.476703	0.000174
 277	2.7462e+01	11.0018	47.085114	0.000274	2.736739	0.927232	0.000110
 278	2.7561e+01	11.0291	47.266785	0.000456	4.561232	1.545387	0.000183
 279	2.7661e+01	11.0756	47.355602	0.000223	2.229936	0.755523	0.000089
 280	2.7761e+01	11.1125	47.585719	0.000578	5.777561	1.957491	0.000231
 281	2.7860e+01	11.1510	47.702796	0.000294	2.939461	0.995916	0.000118
 282	2.7959e+01	11.1959	47.844096	0.000355	3.547625	1.201968	0.000142
 283	2.8059e+01	11.2264	47.985395	0.000355	3.547625	1.201968	0.000142
 284	2.8159e+01	11.2762	48.150918	0.000416	4.155789	1.408020	0.000166
 285	2.8258e+01	11.3098	48.308366	0.000395	3.953068	1.339336	0.000158
 286	2.8358e+01	11.3580	48.465815	0.000395	3.953068	1.339336	0.000158
 287	2.8457e+01	11.3868	48.578854	0.000284	2.838100	0.961574	0.000114
 288	2.8556e+01	11.4253	48.744377	0.000416	4.155789	1.408020	0.000166
 289	2.8656e+01	11.4687	48.917974	0.000436	4.358511	1.476703	0.000174
 290	2.8756e+01	11.5184	49.039088	0.000304	3.040821	1.030258	0.000122
 291	2.8855e+01	11.5473	49.208648	0.000426	4.257150	1.442361	0.000170
 292	2.8954e+01	11.5826	49.329762	0.000304	3.040821	1.030258	0.000122
 293	2.9054e+01	11.6371	49.479136	0.000375	3.750346	1.270652	0.000150
 294	2.9154e+01	11.6612	49.640621	0.000405	4.054429	1.373678	0.000162
 295	2.9253e+01	11.7157	49.729438	0.000223	2.229936	0.755523	0.000089
 296	2.9352e+01	11.7478	49.890923	0.000405	4.054429	1.373678	0.000162
 297	2.9452e+01	11.7895	50.072595	0.000456	4.561232	1.545387	0.000183
 298	2.9552e+01	11.8280	50.221969	0.000375	3.750346	1.270652	0.000150
 299	2.9651e+01	11.8665	50.387491	0.000416	4.155789	1.408020	0.000166
 300	2.9750e+01	11.9162	50.472271	0.000213	2.128575	0.721181	0.000085
 301	2.9850e+01	11.9531	50.637794	0.000416	4.155789	1.408020	0.000166
 302	2.9950e+01	11.9868	50.791205	0.000385	3.851707	1.304994	0.000154
 303	3.0049e+01	12.0317	50.936542	0.000365	3.648986	1.236310	0.000146
 304	3.0148e+01	12.0654	51.065730	0.000324	3.243543	1.098942	0.000130
 305	3.0248e+01	12.1184	51.223178	0.000395	3.953068	1.339336	0.000158
 306	3.0348e+01	12.1408	51.368515	0.000365	3.648986	1.236310	0.000146
 307	3.0447e+01	12.1858	51.521926	0.000385	3.851707	1.304994	0.000154
 308	3.0547e+01	12.2291	51.630929	0.000274	2.736739	0.927232	0.000110
 309	3.0646e+01	12.2676	51.776266	0.000365	3.648986	1.236310	0.000146
 310	3.0745e+01	12.3013	51.941788	0.000416	4.155789	1.408020	0.000166
 311	3.0845e+01	12.3510	52.058865	0.000294	2.939461	0.995916	0.000118
 312	3.0945e+01	12.3751	52.212276	0.000385	3.851707	1.304994	0.000154
 313	3.1044e+01	12.4360	52.361651	0.000375	3.750346	1.270652	0.000150
 314	3.1143e+01	12.4697	52.506987	0.000365	3.648986	1.236310	0.000146
 315	3.1243e+01	12.5114	52.636176	0.000324	3.243543	1.098942	0.000130
 316	3.1343e+01	12.5515	52.781513	0.000365	3.648986	1.236310	0.000146
 317	3.1442e+01	12.5916	52.918775	0.000345	3.446264	1.167626	0.000138
 318	3.1541e+01	12.6333	53.080261	0.000405	4.054429	1.373678	0.000162
 319	3.1641e+01	12.6750	53.201375	0.000304	3.040821	1.030258	0.000122
 320	3.1741e+01	12.7055	53.330563	0.000324	3.243543	1.098942	0.000130
 321	3.1840e+01	12.7553	53.459751	0.000324	3.243543	1.098942	0.000130
 322	3.1939e+01	12.7841	53.645460	0.000466	4.662593	1.579729	0.000187
 323	3.2039e+01	12.8242	53.766574	0.000304	3.040821	1.030258	0.000122
 324	3.2139e+01	12.8676	53.911911	0.000365	3.648986	1.236310	0.000146
 325	3.2238e+01	12.9077	54.028988	0.000294	2.939461	0.995916	0.000118
 326	3.2337e+01	12.9494	54.218733	0.000476	4.763954	1.614071	0.000191
 327	3.2437e+01	12.9831	54.323698	0.000264	2.635379	0.892890	0.000105
 328	3.2536e+01	13.0376	54.469035	0.000365	3.648986	1.236310	0.000146
 329	3.2636e+01	13.0569	54.598224	0.000324	3.243543	1.098942	0.000130
 330	3.2736e+01	13.1066	54.739523	0.000355	3.547625	1.201968	0.000142
 331	3.2835e+01	13.1483	54.876786	0.000345	3.446264	1.167626	0.000138
 332	3.2934e+01	13.1852	54.989826	0.000284	2.838100	0.961574	0.000114
 333	3.3034e+01	13.2253	55.119014	0.000324	3.243543	1.098942	0.000130
 334	3.3133e+01	13.2590	55.300685	0.000456	4.561232	1.545387	0.000183
 335	3.3233e+01	13.2991	55.446022	0.000365	3.648986	1.236310	0.000146
 336	3.3333e+01	13.3408	55.571173	0.000314	3.142182	1.064600	0.000126
 337	3.3432e+01	13.3841	55.704399	0.000334	3.344904	1.133284	0.000134
 338	3.3532e+01	13.4194	55.809364	0.000264	2.635379	0.892890	0.000105
 339	3.3631e+01	13.4627	55.986998	0.000446	4.459871	1.511045	0.000179
 340	3.3730e+01	13.5012	56.132335	0.000365	3.648986	1.236310	0.000146
 341	3.3830e+01	13.5365	56.261524	0.000324	3.243543	1.098942	0.000130
 342	3.3929e+01	13.5750	56.435120	0.000436	4.358511	1.476703	0.000174
 343	3.4029e+01	13.6183	56.532012	0.000243	2.432657	0.824207	0.000097
 344	3.4129e+01	13.6568	56.669274	0.000345	3.446264	1.167626	0.000138
 345	3.4228e+01	13.6969	56.830760	0.000405	4.054429	1.373678	0.000162
 346	3.4328e+01	13.7386	56.968022	0.000345	3.446264	1.167626	0.000138
 347	3.4427e+01	13.7804	57.089136	0.000304	3.040821	1.030258	0.000122
 348	3.4526e+01	13.8205	57.246585	0.000395	3.953068	1.339336	0.000158
 349	3.4626e+01	13.8558	57.371736	0.000314	3.142182	1.064600	0.000126
 350	3.4725e+01	13.9071	57.504961	0.000334	3.344904	1.133284	0.000134
 351	3.4825e+01	13.9440	57.658373	0.000385	3.851707	1.304994	0.000154
 352	3.4925e+01	13.9809	57.783524	0.000314	3.142182	1.064600	0.000126
 353	3.5024e+01	14.0258	57.916749	0.000334	3.344904	1.133284	0.000134
 354	3.5123e+01	14.0547	58.001529	0.000213	2.128575	0.721181	0.000085
 355	3.5223e+01	14.1108	58.179163	0.000446	4.459871	1.511045	0.000179
 356	3.5322e+01	14.1397	58.340649	0.000405	4.054429	1.373678	0.000162
 357	3.5422e+01	14.1830	58.461763	0.000304	3.040821	1.030258	0.000122
 358	3.5522e+01	14.2167	58.599025	0.000345	3.446264	1.167626	0.000138
 359	3.5621e+01	14.2504	58.764548	0.000416	4.155789	1.408020	0.000166
 360	3.5721e+01	14.2953	58.865476	0.000253	2.534018	0.858548	0.000101
 361	3.5820e+01	14.3370	59.006776	0.000355	3.547625	1.201968	0.000142
 362	3.5919e+01	14.3739	59.131927	0.000314	3.142182	1.064600	0.000126
 363	3.6019e+01	14.4253	59.273227	0.000355	3.547625	1.201968	0.000142
 364	3.6118e+01	14.4606	59.402415	0.000324	3.243543	1.098942	0.000130
 365	3.6218e+01	14.5055	59.567938	0.000416	4.155789	1.408020	0.000166
 366	3.6318e+01	14.5408	59.697126	0.000324	3.243543	1.098942	0.000130
 367	3.6417e+01	14.5729	59.822277	0.000314	3.142182	1.064600	0.000126
 368	3.6517e+01	14.6178	59.975689	0.000385	3.851707	1.304994	0.000154
 369	3.6616e+01	14.6499	60.072580	0.000243	2.432657	0.824207	0.000097
 370	3.6715e+01	14.6868	60.250214	0.000446	4.459871	1.511045	0.000179
 371	3.6815e+01	14.7349	60.379402	0.000324	3.243543	1.098942	0.000130
 372	3.6914e+01	14.7686	60.500516	0.000304	3.040821	1.030258	0.000122
 373	3.7014e+01	14.8167	60.637779	0.000345	3.446264	1.167626	0.000138
 374	3.7114e+01	14.8616	60.791190	0.000385	3.851707	1.304994	0.000154
 375	3.7213e+01	14.8953	60.928453	0.000345	3.446264	1.167626	0.000138
 376	3.7313e+01	14.9386	61.057641	0.000324	3.243543	1.098942	0.000130
 377	3.7412e+01	14.9691	61.174718	0.000294	2.939461	0.995916	0.000118
 378	3.7511e+01	15.0092	61.340240	0.000416	4.155789	1.408020	0.000166
 379	3.7611e+01	15.0605	61.445206	0.000264	2.635379	0.892890	0.000105
 380	3.7711e+01	15.0910	61.562283	0.000294	2.939461	0.995916	0.000118
 381	3.7810e+01	15.1327	61.687434	0.000314	3.142182	1.064600	0.000126
 382	3.7910e+01	15.1760	61.840845	0.000385	3.851707	1.304994	0.000154
 383	3.8009e+01	15.2161	61.974071	0.000334	3.344904	1.133284	0.000134
 384	3.8108e+01	15.2466	62.123445	0.000375	3.750346	1.270652	0.000150
 385	3.8208e+01	15.2932	62.248596	0.000314	3.142182	1.064600	0.000126
 386	3.8307e+01	15.3333	62.377784	0.000324	3.243543	1.098942	0.000130
 387	3.8407e+01	15.3750	62.482750	0.000264	2.635379	0.892890	0.000105
 388	3.8507e+01	15.4135	62.648272	0.000416	4.155789	1.408020	0.000166
 389	3.8606e+01	15.4423	62.761312	0.000284	2.838100	0.961574	0.000114
 390	3.8706e+01	15.4937	62.898575	0.000345	3.446264	1.167626	0.000138
 391	3.8805e+01	15.5370	63.031800	0.000334	3.344904	1.133284	0.000134
 392	3.8904e+01	15.5707	63.181174	0.000375	3.750346	1.270652	0.000150
 393	3.9004e+01	15.6172	63.302288	0.000304	3.040821	1.030258	0.000122
 394	3.9103e+01	15.6525	63.447625	0.000365	3.648986	1.236310	0.000146
 395	3.9203e+01	15.6958	63.556628	0.000274	2.736739	0.927232	0.000110
 396	3.9303e+01	15.7295	63.722150	0.000416	4.155789	1.408020	0.000166
 397	3.9402e+01	15.7776	63.831153	0.000274	2.736739	0.927232	0.000110
 398	3.9502e+01	15.8177	63.964379	0.000334	3.344904	1.133284	0.000134
 399	3.9601e+01	15.8498	64.101641	0.000345	3.446264	1.167626	0.000138
 400	3.9700e+01	15.8867	64.251015	0.000375	3.750346	1.270652	0.000150
 401	3.9800e+01	15.9316	64.368092	0.000294	2.939461	0.995916	0.000118
 402	3.9900e+01	15.9701	64.493243	0.000314	3.142182	1.064600	0.000126
 403	3.9999e+01	16.0118	64.654729	0.000405	4.054429	1.373678	0.000162
 404	4.0099e+01	16.0616	64.759694	0.000264	2.635379	0.892890	0.000105
 405	4.0198e+01	16.0953	64.896957	0.000345	3.446264	1.167626	0.000138
 406	4.0297e+01	16.1306	65.030182	0.000334	3.344904	1.133284	0.000134
 407	4.0397e+01	16.1771	65.175519	0.000365	3.648986	1.236310	0.000146
 408	4.0496e+01	16.2140	65.288559	0.000284	2.838100	0.961574	0.000114
 409	4.0596e+01	16.2509	65.421785	0.000334	3.344904	1.133284	0.000134
 410	4.0696e+01	16.2910	65.510602	0.000223	2.229936	0.755523	0.000089
 411	4.0795e+01	16.3311	65.700347	0.000476	4.763954	1.614071	0.000191
 412	4.0895e+01	16.3712	65.781090	0.000203	2.027214	0.686839	0.000081
 413	4.0994e+01	16.4145	65.938538	0.000395	3.953068	1.339336	0.000158
 414	4.1093e+01	16.4610	66.047541	0.000274	2.736739	0.927232	0.000110
 415	4.1193e+01	16.4947	66.192878	0.000365	3.648986	1.236310	0.000146
 416	4.1292e+01	16.5236	66.350326	0.000395	3.953068	1.339336	0.000158
 417	4.1392e+01	16.5685	66.447217	0.000243	2.432657	0.824207	0.000097
 418	4.1492e+01	16.6054	66.568331	0.000304	3.040821	1.030258	0.000122
 419	4.1591e+01	16.6519	66.697520	0.000324	3.243543	1.098942	0.000130
 420	4.1691e+01	16.6888	66.863042	0.000416	4.155789	1.408020	0.000166
 421	4.1790e+01	16.7354	66.919562	0.000142	1.419050	0.480787	0.000057
 422	4.1889e+01	16.7706	67.064899	0.000365	3.648986	1.236310	0.000146
 423	4.1989e+01	16.8011	67.226384	0.000405	4.054429	1.373678	0.000162
 424	4.2089e+01	16.8573	67.391907	0.000416	4.155789	1.408020	0.000166
 425	4.2188e+01	16.8829	67.456501	0.000162	1.621771	0.549471	0.000065
 426	4.2288e+01	16.9247	67.601838	0.000365	3.648986	1.236310	0.000146
 427	4.2387e+01	16.9680	67.731026	0.000324	3.243543	1.098942	0.000130
 428	4.2486e+01	17.0049	67.844066	0.000284	2.838100	0.961574	0.000114
 429	4.2586e+01	17.0514	67.953069	0.000274	2.736739	0.927232	0.000110
 430	4.2685e+01	17.0819	68.090331	0.000345	3.446264	1.167626	0.000138
 431	4.2785e+01	17.1300	68.171074	0.000203	2.027214	0.686839	0.000081
 432	4.2885e+01	17.1701	68.360819	0.000476	4.763954	1.614071	0.000191
 433	4.2984e+01	17.2070	68.437525	0.000193	1.925854	0.652497	0.000077
 434	4.3084e+01	17.2455	68.599010	0.000405	4.054429	1.373678	0.000162
 435	4.3183e+01	17.2856	68.724162	0.000314	3.142182	1.064600	0.000126
 436	4.3282e+01	17.3289	68.800867	0.000193	1.925854	0.652497	0.000077
 437	4.3382e+01	17.3754	68.962353	0.000405	4.054429	1.373678	0.000162
 438	4.3481e+01	17.4043	69.071355	0.000274	2.736739	0.927232	0.000110
 439	4.3581e+01	17.4589	69.208618	0.000345	3.446264	1.167626	0.000138
 440	4.3681e+01	17.4861	69.313583	0.000264	2.635379	0.892890	0.000105
 441	4.3780e+01	17.5230	69.418549	0.000264	2.635379	0.892890	0.000105
 442	4.3880e+01	17.5615	69.555812	0.000345	3.446264	1.167626	0.000138
 443	4.3979e+01	17.5984	69.689037	0.000334	3.344904	1.133284	0.000134
 444	4.4078e+01	17.6482	69.798040	0.000274	2.736739	0.927232	0.000110
 445	4.4178e+01	17.6851	69.931265	0.000334	3.344904	1.133284	0.000134
 446	4.4278e+01	17.7188	70.036231	0.000264	2.635379	0.892890	0.000105
 447	4.4377e+01	17.7669	70.153308	0.000294	2.939461	0.995916	0.000118
 448	4.4477e+01	17.8086	70.278459	0.000314	3.142182	1.064600	0.000126
 449	4.4576e+01	17.8471	70.375350	0.000243	2.432657	0.824207	0.000097
 450	4.4675e+01	17.8856	70.484353	0.000274	2.736739	0.927232	0.000110
 451	4.4775e+01	17.9209	70.649875	0.000416	4.155789	1.408020	0.000166
 452	4.4874e+01	17.9626	70.783101	0.000334	3.344904	1.133284	0.000134
 453	4.4974e+01	18.0011	70.867881	0.000213	2.128575	0.721181	0.000085
 454	4.5074e+01	18.0476	71.013218	0.000365	3.648986	1.236310	0.000146
 455	4.5173e+01	18.0861	71.114146	0.000253	2.534018	0.858548	0.000101
 456	4.5273e+01	18.1246	71.219112	0.000264	2.635379	0.892890	0.000105
 457	4.5372e+01	18.1567	71.340226	0.000304	3.040821	1.030258	0.000122
 458	4.5471e+01	18.2000	71.465377	0.000314	3.142182	1.064600	0.000126
 459	4.5571e+01	18.2498	71.606677	0.000355	3.547625	1.201968	0.000142
 460	4.5670e+01	18.2786	71.707605	0.000253	2.534018	0.858548	0.000101
 461	4.5770e+01	18.3219	71.796422	0.000223	2.229936	0.755523	0.000089
 462	4.5870e+01	18.3572	71.965982	0.000426	4.257150	1.442361	0.000170
 463	4.5969e+01	18.4006	72.062873	0.000243	2.432657	0.824207	0.000097
 464	4.6069e+01	18.4535	72.208210	0.000365	3.648986	1.236310	0.000146
 465	4.6168e+01	18.4759	72.292990	0.000213	2.128575	0.721181	0.000085
 466	4.6267e+01	18.5161	72.430252	0.000345	3.446264	1.167626	0.000138
 467	4.6367e+01	18.5642	72.523106	0.000233	2.331296	0.789865	0.000093
 468	4.6467e+01	18.5947	72.599812	0.000193	1.925854	0.652497	0.000077
 469	4.6566e+01	18.6444	72.765335	0.000416	4.155789	1.408020	0.000166
 470	4.6666e+01	18.6909	72.866263	0.000253	2.534018	0.858548	0.000101
 471	4.6765e+01	18.7230	72.971228	0.000264	2.635379	0.892890	0.000105
 472	4.6864e+01	18.7631	73.092343	0.000304	3.040821	1.030258	0.000122
 473	4.6964e+01	18.7968	73.221531	0.000324	3.243543	1.098942	0.000130
 474	4.7063e+01	18.8385	73.326496	0.000264	2.635379	0.892890	0.000105
 475	4.7163e+01	18.8914	73.455685	0.000324	3.243543	1.098942	0.000130
 476	4.7263e+01	18.9267	73.596985	0.000355	3.547625	1.201968	0.000142
 477	4.7362e+01	18.9620	73.693876	0.000243	2.432657	0.824207	0.000097
 478	4.7462e+01	18.9989	73.778656	0.000213	2.128575	0.721181	0.000085
 479	4.7561e+01	19.0374	73.919955	0.000355	3.547625	1.201968	0.000142
 480	4.7660e+01	19.0840	74.028958	0.000274	2.736739	0.927232	0.000110
 481	4.7760e+01	19.1241	74.117775	0.000223	2.229936	0.755523	0.000089
 482	4.7859e+01	19.1690	74.259075	0.000355	3.547625	1.201968	0.000142
 483	4.7959e+01	19.1995	74.364040	0.000264	2.635379	0.892890	0.000105
 484	4.8059e+01	19.2364	74.481117	0.000294	2.939461	0.995916	0.000118
 485	4.8158e+01	19.2765	74.582046	0.000253	2.534018	0.858548	0.000101
 486	4.8258e+01	19.3214	74.707197	0.000314	3.142182	1.064600	0.000126
 487	4.8357e+01	19.3599	74.848497	0.000355	3.547625	1.201968	0.000142
 488	4.8456e+01	19.4000	74.925202	0.000193	1.925854	0.652497	0.000077
 489	4.8556e+01	19.4369	75.026131	0.000253	2.534018	0.858548	0.000101
 490	4.8656e+01	19.4802	75.139170	0.000284	2.838100	0.961574	0.000114
 491	4.8755e+01	19.5139	75.248173	0.000274	2.736739	0.927232	0.000110
 492	4.8855e+01	19.5588	75.385436	0.000345	3.446264	1.167626	0.000138
 493	4.8954e+01	19.5957	75.490401	0.000264	2.635379	0.892890	0.000105
 494	4.9053e+01	19.6358	75.611515	0.000304	3.040821	1.030258	0.000122
 495	4.9153e+01	19.6775	75.712444	0.000253	2.534018	0.858548	0.000101
 496	4.9252e+01	19.7128	75.857781	0.000365	3.648986	1.236310	0.000146
 497	4.9352e+01	19.7561	75.942560	0.000213	2.128575	0.721181	0.000085
 498	4.9452e+01	19.7946	76.055600	0.000284	2.838100	0.961574	0.000114
 499	4.9551e+01	19.8395	76.152491	0.000243	2.432657	0.824207	0.000097
 500	4.9651e+01	19.8732	76.277643	0.000314	3.142182	1.064600	0.000126
 501	4.9750e+01	19.9198	76.374534	0.000243	2.432657	0.824207	0.000097
 502	4.9849e+01	19.9567	76.511797	0.000345	3.446264	1.167626	0.000138
 503	4.9949e+01	19.9936	76.624836	0.000284	2.838100	0.961574	0.000114
 504	5.0048e+01	19.9647	76.515834	0.000274	2.736739	0.927232	-0.000110
 505	5.0148e+01	19.9166	76.431054	0.000213	2.128575	0.721181	-0.000085
 506	5.0248e+01	19.8797	76.322051	0.000274	2.736739	0.927232	-0.000110
 507	5.0347e+01	19.8428	76.209011	0.000284	2.838100	0.961574	-0.000114
 508	5.0447e+01	19.8010	76.140380	0.000172	1.723132	0.583813	-0.000069
 509	5.0546e+01	19.7577	76.059637	0.000203	2.027214	0.686839	-0.000081
 510	5.0645e+01	19.7144	75.958709	0.000253	2.534018	0.858548	-0.000101
 511	5.0745e+01	19.6711	75.829521	0.000324	3.243543	1.098942	-0.000130
 512	5.0844e+01	19.6326	75.740704	0.000223	2.229936	0.755523	-0.000089
 513	5.0944e+01	19.5973	75.663998	0.000193	1.925854	0.652497	-0.000077
 514	5.1044e+01	19.5572	75.575181	0.000223	2.229936	0.755523	-0.000089
 515	5.1143e+01	19.5203	75.445993	0.000324	3.243543	1.098942	-0.000130
 516	5.1242e+01	19.4818	75.377361	0.000172	1.723132	0.583813	-0.000069
 517	5.1342e+01	19.4321	75.308730	0.000172	1.723132	0.583813	-0.000069
 518	5.1441e+01	19.3968	75.159356	0.000375	3.750346	1.270652	-0.000150
 519	5.1541e+01	19.3583	75.086688	0.000182	1.824493	0.618155	-0.000073
 520	5.1641e+01	19.3182	74.981722	0.000264	2.635379	0.892890	-0.000105
 521	5.1740e+01	19.2765	74.856571	0.000314	3.142182	1.064600	-0.000126
 522	5.1840e+01	19.2444	74.800051	0.000142	1.419050	0.480787	-0.000057
 523	5.1939e+01	19.2075	74.691048	0.000274	2.736739	0.927232	-0.000110
 524	5.2038e+01	19.1594	74.590120	0.000253	2.534018	0.858548	-0.000101
 525	5.2138e+01	19.1241	74.513414	0.000193	1.925854	0.652497	-0.000077
 526	5.2237e+01	19.0840	74.376152	0.000345	3.446264	1.167626	-0.000138
 527	5.2337e+01	19.0406	74.299446	0.000193	1.925854	0.652497	-0.000077
 528	5.2437e+01	18.9989	74.218703	0.000203	2.027214	0.686839	-0.000081
 529	5.2536e+01	18.9444	74.109701	0.000274	2.736739	0.927232	-0.000110
 530	5.2636e+01	18.9155	74.000698	0.000274	2.736739	0.927232	-0.000110
 531	5.2735e+01	18.8947	73.879584	0.000304	3.040821	1.030258	-0.000122
 532	5.2834e+01	18.8449	73.790767	0.000223	2.229936	0.755523	-0.000089
 533	5.2934e+01	18.7984	73.681764	0.000274	2.736739	0.927232	-0.000110
 534	5.3033e+01	18.7711	73.596985	0.000213	2.128575	0.721181	-0.000085
 535	5.3133e+01	18.7198	73.528353	0.000172	1.723132	0.583813	-0.000069
 536	5.3233e+01	18.6781	73.427425	0.000253	2.534018	0.858548	-0.000101
 537	5.3332e+01	18.6428	73.302274	0.000314	3.142182	1.064600	-0.000126
 538	5.3431e+01	18.6043	73.169048	0.000334	3.344904	1.133284	-0.000134
 539	5.3531e+01	18.5610	73.072157	0.000243	2.432657	0.824207	-0.000097
 540	5.3630e+01	18.5289	72.967191	0.000264	2.635379	0.892890	-0.000105
 541	5.3730e+01	18.4808	72.890486	0.000193	1.925854	0.652497	-0.000077
 542	5.3830e+01	18.4455	72.793594	0.000243	2.432657	0.824207	-0.000097
 543	5.3929e+01	18.4086	72.656332	0.000345	3.446264	1.167626	-0.000138
 544	5.4029e+01	18.3685	72.555403	0.000253	2.534018	0.858548	-0.000101
 545	5.4128e+01	18.3155	72.430252	0.000314	3.142182	1.064600	-0.000126
 546	5.4227e+01	18.2818	72.353547	0.000193	1.925854	0.652497	-0.000077
 547	5.4327e+01	18.2369	72.252618	0.000253	2.534018	0.858548	-0.000101
 548	5.4426e+01	18.2016	72.151690	0.000253	2.534018	0.858548	-0.000101
 549	5.4526e+01	18.1567	72.054799	0.000243	2.432657	0.824207	-0.000097
 550	5.4626e+01	18.1294	71.933685	0.000304	3.040821	1.030258	-0.000122
 551	5.4725e+01	18.0813	71.828719	0.000264	2.635379	0.892890	-0.000105
 552	5.4825e+01	18.0428	71.756051	0.000182	1.824493	0.618155	-0.000073
 553	5.4924e+01	17.9915	71.610714	0.000365	3.648986	1.236310	-0.000146
 554	5.5023e+01	17.9658	71.521897	0.000223	2.229936	0.755523	-0.000089
 555	5.5123e+01	17.9305	71.449228	0.000182	1.824493	0.618155	-0.000073
 556	5.5222e+01	17.8744	71.307929	0.000355	3.547625	1.201968	-0.000142
 557	5.5322e+01	17.8455	71.227186	0.000203	2.027214	0.686839	-0.000081
 558	5.5422e+01	17.8070	71.122220	0.000264	2.635379	0.892890	-0.000105
 559	5.5521e+01	17.7589	71.009180	0.000284	2.838100	0.961574	-0.000114
 560	5.5620e+01	17.7220	70.920364	0.000223	2.229936	0.755523	-0.000089
 561	5.5720e+01	17.6835	70.819435	0.000253	2.534018	0.858548	-0.000101
 562	5.5819e+01	17.6369	70.714470	0.000264	2.635379	0.892890	-0.000105
 563	5.5919e+01	17.6113	70.605467	0.000274	2.736739	0.927232	-0.000110
 564	5.6019e+01	17.5631	70.464167	0.000355	3.547625	1.201968	-0.000142
 565	5.6118e+01	17.5246	70.371313	0.000233	2.331296	0.789865	-0.000093
 566	5.6218e+01	17.4877	70.298645	0.000182	1.824493	0.618155	-0.000073
 567	5.6317e+01	17.4541	70.165419	0.000334	3.344904	1.133284	-0.000134
 568	5.6416e+01	17.4059	70.064491	0.000253	2.534018	0.858548	-0.000101
 569	5.6516e+01	17.3610	69.955488	0.000274	2.736739	0.927232	-0.000110
 570	5.6615e+01	17.3321	69.850523	0.000264	2.635379	0.892890	-0.000105
 571	5.6715e+01	17.2808	69.725371	0.000314	3.142182	1.064600	-0.000126
 572	5.6815e+01	17.2423	69.648666	0.000193	1.925854	0.652497	-0.000077
 573	5.6914e+01	17.2070	69.511403	0.000345	3.446264	1.167626	-0.000138
 574	5.7014e+01	17.1653	69.446809	0.000162	1.621771	0.549471	-0.000065
 575	5.7113e+01	17.1252	69.321658	0.000314	3.142182	1.064600	-0.000126
 576	5.7212e+01	17.0883	69.232841	0.000223	2.229936	0.755523	-0.000089
 577	5.7312e+01	17.0418	69.119801	0.000284	2.838100	0.961574	-0.000114
 578	5.7411e+01	16.9968	69.014835	0.000264	2.635379	0.892890	-0.000105
 579	5.7511e+01	16.9616	68.885647	0.000324	3.243543	1.098942	-0.000130
 580	5.7611e+01	16.9214	68.780682	0.000264	2.635379	0.892890	-0.000105
 581	5.7710e+01	16.8862	68.671679	0.000274	2.736739	0.927232	-0.000110
 582	5.7809e+01	16.8477	68.582862	0.000223	2.229936	0.755523	-0.000089
 583	5.7909e+01	16.8108	68.481934	0.000253	2.534018	0.858548	-0.000101
 584	5.8008e+01	16.7674	68.336597	0.000365	3.648986	1.236310	-0.000146
 585	5.8108e+01	16.7241	68.251817	0.000213	2.128575	0.721181	-0.000085
 586	5.8208e+01	16.6904	68.138777	0.000284	2.838100	0.961574	-0.000114
 587	5.8307e+01	16.6439	68.009589	0.000324	3.243543	1.098942	-0.000130
 588	5.8407e+01	16.6134	67.896549	0.000284	2.838100	0.961574	-0.000114
 589	5.8506e+01	16.5669	67.787546	0.000274	2.736739	0.927232	-0.000110
 590	5.8605e+01	16.5284	67.718915	0.000172	1.723132	0.583813	-0.000069
 591	5.8705e+01	16.4835	67.577615	0.000355	3.547625	1.201968	-0.000142
 592	5.8804e+01	16.4530	67.500910	0.000193	1.925854	0.652497	-0.000077
 593	5.8904e+01	16.4113	67.343461	0.000395	3.953068	1.339336	-0.000158
 594	5.9004e+01	16.3632	67.230421	0.000284	2.838100	0.961574	-0.000114
 595	5.9103e+01	16.3279	67.149679	0.000203	2.027214	0.686839	-0.000081
 596	5.9203e+01	16.2878	67.004342	0.000365	3.648986	1.236310	-0.000146
 597	5.9302e+01	16.2509	66.903413	0.000253	2.534018	0.858548	-0.000101
 598	5.9401e+01	16.2108	66.794411	0.000274	2.736739	0.927232	-0.000110
 599	5.9501e+01	16.1691	66.701557	0.000233	2.331296	0.789865	-0.000093
 600	5.9600e+01	16.1322	66.572368	0.000324	3.243543	1.098942	-0.000130
 601	5.9700e+01	16.0856	66.463366	0.000274	2.736739	0.927232	-0.000110
 602	5.9800e+01	16.0584	66.354363	0.000274	2.736739	0.927232	-0.000110
 603	5.9899e+01	16.0199	66.229212	0.000314	3.142182	1.064600	-0.000126
 604	5.9998e+01	15.9733	66.120209	0.000274	2.736739	0.927232	-0.000110
 605	6.0098e+01	15.9300	66.019281	0.000253	2.534018	0.858548	-0.000101
 606	6.0197e+01	15.8867	65.869907	0.000375	3.750346	1.270652	-0.000150
 607	6.0297e+01	15.8482	65.752830	0.000294	2.939461	0.995916	-0.000118
 608	6.0397e+01	15.8129	65.655939	0.000243	2.432657	0.824207	-0.000097
 609	6.0496e+01	15.7664	65.514639	0.000355	3.547625	1.201968	-0.000142
 610	6.0596e+01	15.7343	65.397562	0.000294	2.939461	0.995916	-0.000118
 611	6.0695e+01	15.6926	65.320856	0.000193	1.925854	0.652497	-0.000077
 612	6.0794e+01	15.6525	65.187631	0.000334	3.344904	1.133284	-0.000134
 613	6.0894e+01	15.6124	65.062480	0.000314	3.142182	1.064600	-0.000126
 614	6.0993e+01	15.5723	64.941365	0.000304	3.040821	1.030258	-0.000122
 615	6.1093e+01	15.5242	64.860623	0.000203	2.027214	0.686839	-0.000081
 616	6.1193e+01	15.4985	64.707212	0.000385	3.851707	1.304994	-0.000154
 617	6.1292e+01	15.4520	64.573986	0.000334	3.344904	1.133284	-0.000134
 618	6.1392e+01	15.4071	64.469021	0.000264	2.635379	0.892890	-0.000105
 619	6.1491e+01	15.3782	64.376166	0.000233	2.331296	0.789865	-0.000093
 620	6.1590e+01	15.3429	64.267164	0.000274	2.736739	0.927232	-0.000110
 621	6.1690e+01	15.2948	64.101641	0.000416	4.155789	1.408020	-0.000166
 622	6.1789e+01	15.2595	63.992639	0.000274	2.736739	0.927232	-0.000110
 623	6.1889e+01	15.2129	63.903822	0.000223	2.229936	0.755523	-0.000089
 624	6.1989e+01	15.1809	63.746373	0.000395	3.953068	1.339336	-0.000158
 625	6.2088e+01	15.1343	63.621222	0.000314	3.142182	1.064600	-0.000126
 626	6.2188e+01	15.0942	63.528368	0.000233	2.331296	0.789865	-0.000093
 627	6.2287e+01	15.0557	63.463774	0.000162	1.621771	0.549471	-0.000065
 628	6.2386e+01	15.0092	63.282103	0.000456	4.561232	1.545387	-0.000183
 629	6.2486e+01	14.9755	63.173100	0.000274	2.736739	0.927232	-0.000110
 630	6.2586e+01	14.9226	63.035837	0.000345	3.446264	1.167626	-0.000138
 631	6.2685e+01	14.8937	62.930872	0.000264	2.635379	0.892890	-0.000105
 632	6.2785e+01	14.8536	62.793609	0.000345	3.446264	1.167626	-0.000138
 633	6.2884e+01	14.8231	62.692681	0.000253	2.534018	0.858548	-0.000101
 634	6.2983e+01	14.7782	62.575604	0.000294	2.939461	0.995916	-0.000118
 635	6.3083e+01	14.7429	62.438341	0.000345	3.446264	1.167626	-0.000138
 636	6.3182e+01	14.6996	62.333376	0.000264	2.635379	0.892890	-0.000105
 637	6.3282e+01	14.6547	62.200150	0.000334	3.344904	1.133284	-0.000134
 638	6.3382e+01	14.6162	62.095185	0.000264	2.635379	0.892890	-0.000105
 639	6.3481e+01	14.5777	61.957922	0.000345	3.446264	1.167626	-0.000138
 640	6.3581e+01	14.5343	61.784325	0.000436	4.358511	1.476703	-0.000174
 641	6.3680e+01	14.5087	61.719731	0.000162	1.621771	0.549471	-0.000065
 642	6.3779e+01	14.4606	61.590543	0.000324	3.243543	1.098942	-0.000130
 643	6.3879e+01	14.4140	61.429057	0.000405	4.054429	1.373678	-0.000162
 644	6.3978e+01	14.3803	61.360426	0.000172	1.723132	0.583813	-0.000069
 645	6.4078e+01	14.3450	61.215089	0.000365	3.648986	1.236310	-0.000146
 646	6.4177e+01	14.3049	61.098012	0.000294	2.939461	0.995916	-0.000118
 647	6.4277e+01	14.2552	60.956713	0.000355	3.547625	1.201968	-0.000142
 648	6.4376e+01	14.2215	60.863858	0.000233	2.331296	0.789865	-0.000093
 649	6.4476e+01	14.1734	60.750819	0.000284	2.838100	0.961574	-0.000114
 650	6.4576e+01	14.1285	60.597407	0.000385	3.851707	1.304994	-0.000154
 651	6.4675e+01	14.0932	60.472256	0.000314	3.142182	1.064600	-0.000126
 652	6.4775e+01	14.0643	60.355179	0.000294	2.939461	0.995916	-0.000118
 653	6.4874e+01	14.0146	60.177545	0.000446	4.459871	1.511045	-0.000179
 654	6.4974e+01	13.9761	60.108914	0.000172	1.723132	0.583813	-0.000069
 655	6.5073e+01	13.9360	59.991837	0.000294	2.939461	0.995916	-0.000118
 656	6.5172e+01	13.8991	59.822277	0.000426	4.257150	1.442361	-0.000170
 657	6.5272e+01	13.8638	59.713275	0.000274	2.736739	0.927232	-0.000110
 658	6.5371e+01	13.8205	59.584086	0.000324	3.243543	1.098942	-0.000130
 659	6.5471e+01	13.7772	59.475084	0.000274	2.736739	0.927232	-0.000110
 660	6.5570e+01	13.7419	59.362044	0.000284	2.838100	0.961574	-0.000114
 661	6.5670e+01	13.6921	59.240930	0.000304	3.040821	1.030258	-0.000122
 662	6.5769e+01	13.6520	59.079444	0.000405	4.054429	1.373678	-0.000162
 663	6.5869e+01	13.6183	58.942182	0.000345	3.446264	1.167626	-0.000138
 664	6.5969e+01	13.5814	58.821068	0.000304	3.040821	1.030258	-0.000122
 665	6.6068e+01	13.5333	58.708028	0.000284	2.838100	0.961574	-0.000114
 666	6.6168e+01	13.5012	58.570765	0.000345	3.446264	1.167626	-0.000138
 667	6.6267e+01	13.4675	58.473874	0.000243	2.432657	0.824207	-0.000097
 668	6.6367e+01	13.4226	58.292203	0.000456	4.561232	1.545387	-0.000183
 669	6.6466e+01	13.3761	58.179163	0.000284	2.838100	0.961574	-0.000114
 670	6.6566e+01	13.3424	58.041901	0.000345	3.446264	1.167626	-0.000138
 671	6.6665e+01	13.2959	57.916749	0.000314	3.142182	1.064600	-0.000126
 672	6.6764e+01	13.2622	57.795635	0.000304	3.040821	1.030258	-0.000122
 673	6.6864e+01	13.2237	57.674521	0.000304	3.040821	1.030258	-0.000122
 674	6.6963e+01	13.1788	57.549370	0.000314	3.142182	1.064600	-0.000126
 675	6.7063e+01	13.1387	57.428256	0.000304	3.040821	1.030258	-0.000122
 676	6.7162e+01	13.1034	57.282919	0.000365	3.648986	1.236310	-0.000146
 677	6.7262e+01	13.0601	57.186028	0.000243	2.432657	0.824207	-0.000097
 678	6.7362e+01	13.0264	57.040691	0.000365	3.648986	1.236310	-0.000146
 679	6.7461e+01	12.9847	56.907465	0.000334	3.344904	1.133284	-0.000134
 680	6.7561e+01	12.9494	56.814611	0.000233	2.331296	0.789865	-0.000093
 681	6.7660e+01	12.9077	56.701571	0.000284	2.838100	0.961574	-0.000114
 682	6.7760e+01	12.8756	56.540086	0.000405	4.054429	1.373678	-0.000162
 683	6.7859e+01	12.8210	56.390712	0.000375	3.750346	1.270652	-0.000150
 684	6.7959e+01	12.7905	56.269598	0.000304	3.040821	1.030258	-0.000122
 685	6.8058e+01	12.7408	56.140410	0.000324	3.243543	1.098942	-0.000130
 686	6.8157e+01	12.7200	55.995073	0.000365	3.648986	1.236310	-0.000146
 687	6.8257e+01	12.6670	55.894144	0.000253	2.534018	0.858548	-0.000101
 688	6.8356e+01	12.6285	55.793216	0.000253	2.534018	0.858548	-0.000101
 689	6.8456e+01	12.5836	55.627693	0.000416	4.155789	1.408020	-0.000166
 690	6.8555e+01	12.5451	55.522728	0.000264	2.635379	0.892890	-0.000105
 691	6.8655e+01	12.5130	55.369317	0.000385	3.851707	1.304994	-0.000154
 692	6.8754e+01	12.4649	55.264351	0.000264	2.635379	0.892890	-0.000105
 693	6.8854e+01	12.4296	55.110940	0.000385	3.851707	1.304994	-0.000154
 694	6.8954e+01	12.3815	55.014049	0.000243	2.432657	0.824207	-0.000097
 695	6.9053e+01	12.3558	54.909083	0.000264	2.635379	0.892890	-0.000105
 696	6.9153e+01	12.3061	54.759709	0.000375	3.750346	1.270652	-0.000150
 697	6.9252e+01	12.2676	54.602261	0.000395	3.953068	1.339336	-0.000158
 698	6.9352e+01	12.2323	54.497295	0.000264	2.635379	0.892890	-0.000105
 699	6.9451e+01	12.1954	54.343884	0.000385	3.851707	1.304994	-0.000154
 700	6.9550e+01	12.1456	54.202584	0.000355	3.547625	1.201968	-0.000142
 701	6.9650e+01	12.1055	54.085507	0.000294	2.939461	0.995916	-0.000118
 702	6.9749e+01	12.0670	53.956319	0.000324	3.243543	1.098942	-0.000130
 703	6.9849e+01	12.0205	53.839242	0.000294	2.939461	0.995916	-0.000118
 704	6.9948e+01	11.9868	53.697942	0.000355	3.547625	1.201968	-0.000142
 705	7.0048e+01	11.9435	53.564717	0.000334	3.344904	1.133284	-0.000134
 706	7.0147e+01	11.9098	53.435529	0.000324	3.243543	1.098942	-0.000130
 707	7.0247e+01	11.8761	53.290192	0.000365	3.648986	1.236310	-0.000146
 708	7.0347e+01	11.8248	53.136781	0.000385	3.851707	1.304994	-0.000154
 709	7.0446e+01	11.7895	53.043926	0.000233	2.331296	0.789865	-0.000093
 710	7.0546e+01	11.7494	52.878404	0.000416	4.155789	1.408020	-0.000166
 711	7.0645e+01	11.7125	52.741141	0.000345	3.446264	1.167626	-0.000138
 712	7.0745e+01	11.6756	52.620027	0.000304	3.040821	1.030258	-0.000122
 713	7.0844e+01	11.6355	52.494876	0.000314	3.142182	1.064600	-0.000126
 714	7.0944e+01	11.5826	52.353576	0.000355	3.547625	1.201968	-0.000142
 715	7.1043e+01	11.5489	52.268796	0.000213	2.128575	0.721181	-0.000085
 716	7.1142e+01	11.5072	52.095200	0.000436	4.358511	1.476703	-0.000174
 717	7.1242e+01	11.4655	51.961974	0.000334	3.344904	1.133284	-0.000134
 718	7.1341e+01	11.4270	51.836823	0.000314	3.142182	1.064600	-0.000126
 719	7.1441e+01	11.3981	51.695523	0.000355	3.547625	1.201968	-0.000142
 720	7.1540e+01	11.3516	51.586520	0.000274	2.736739	0.927232	-0.000110
 721	7.1640e+01	11.3050	51.425035	0.000405	4.054429	1.373678	-0.000162
 722	7.1740e+01	11.2649	51.263550	0.000405	4.054429	1.373678	-0.000162
 723	7.1839e+01	11.2312	51.154547	0.000274	2.736739	0.927232	-0.000110
 724	7.1939e+01	11.1815	51.025359	0.000324	3.243543	1.098942	-0.000130
 725	7.2038e+01	11.1494	50.900207	0.000314	3.142182	1.064600	-0.000126
 726	7.2138e+01	11.1173	50.726611	0.000436	4.358511	1.476703	-0.000174
 727	7.2237e+01	11.0756	50.629719	0.000243	2.432657	0.824207	-0.000097
 728	7.2337e+01	11.0307	50.504568	0.000314	3.142182	1.064600	-0.000126
 729	7.2436e+01	10.9954	50.359231	0.000365	3.648986	1.236310	-0.000146
 730	7.2535e+01	10.9553	50.221969	0.000345	3.446264	1.167626	-0.000138
 731	7.2635e+01	10.9088	50.076632	0.000365	3.648986	1.236310	-0.000146
 732	7.2734e+01	10.8735	49.947443	0.000324	3.243543	1.098942	-0.000130
 733	7.2834e+01	10.8366	49.826329	0.000304	3.040821	1.030258	-0.000122
 734	7.2933e+01	10.7965	49.705215	0.000304	3.040821	1.030258	-0.000122
 735	7.3033e+01	10.7548	49.584101	0.000304	3.040821	1.030258	-0.000122
 736	7.3132e+01	10.7195	49.394356	0.000476	4.763954	1.614071	-0.000191
 737	7.3232e+01	10.6730	49.257093	0.000345	3.446264	1.167626	-0.000138
 738	7.3332e+01	10.6345	49.119831	0.000345	3.446264	1.167626	-0.000138
 739	7.3431e+01	10.5960	49.026976	0.000233	2.331296	0.789865	-0.000093
 740	7.3531e+01	10.5414	48.853380	0.000436	4.358511	1.476703	-0.000174
 741	7.3630e+01	10.5157	48.699968	0.000385	3.851707	1.304994	-0.000154
 742	7.3730e+01	10.4676	48.635374	0.000162	1.621771	0.549471	-0.000065
 743	7.3829e+01	10.4323	48.429480	0.000517	5.169396	1.751439	-0.000207
 744	7.3928e+01	10.3954	48.320478	0.000274	2.736739	0.927232	-0.000110
 745	7.4028e+01	10.3505	48.171104	0.000375	3.750346	1.270652	-0.000150
 746	7.4127e+01	10.3248	48.049990	0.000304	3.040821	1.030258	-0.000122
 747	7.4227e+01	10.2767	47.912727	0.000345	3.446264	1.167626	-0.000138
 748	7.4326e+01	10.2366	47.755279	0.000395	3.953068	1.339336	-0.000158
 749	7.4426e+01	10.1949	47.581682	0.000436	4.358511	1.476703	-0.000174
 750	7.4525e+01	10.1452	47.472679	0.000274	2.736739	0.927232	-0.000110
 751	7.4625e+01	10.1211	47.343491	0.000324	3.243543	1.098942	-0.000130
 752	7.4725e+01	10.0810	47.226414	0.000294	2.939461	0.995916	-0.000118
 753	7.4824e+01	10.0329	47.085114	0.000355	3.547625	1.201968	-0.000142
 754	7.4924e+01	9.9880	46.907480	0.000446	4.459871	1.511045	-0.000179
 755	7.5023e+01	9.9559	46.782329	0.000314	3.142182	1.064600	-0.000126
 756	7.5123e+01	9.9158	46.645066	0.000345	3.446264	1.167626	-0.000138
 757	7.5222e+01	9.8757	46.499729	0.000365	3.648986	1.236310	-0.000146
 758	7.5322e+01	9.8275	46.386690	0.000284	2.838100	0.961574	-0.000114
 759	7.5421e+01	9.7987	46.213093	0.000436	4.358511	1.476703	-0.000174
 760	7.5520e+01	9.7553	46.087942	0.000314	3.142182	1.064600	-0.000126
 761	7.5620e+01	9.7120	45.946642	0.000355	3.547625	1.201968	-0.000142
 762	7.5719e+01	9.6848	45.781119	0.000416	4.155789	1.408020	-0.000166
 763	7.5819e+01	9.6398	45.643857	0.000345	3.446264	1.167626	-0.000138
 764	7.5918e+01	9.5981	45.482371	0.000405	4.054429	1.373678	-0.000162
 765	7.6018e+01	9.5596	45.341071	0.000355	3.547625	1.201968	-0.000142
 766	7.6118e+01	9.5179	45.183623	0.000395	3.953068	1.339336	-0.000158
 767	7.6217e+01	9.4682	45.074621	0.000274	2.736739	0.927232	-0.000110
 768	7.6317e+01	9.4505	44.901024	0.000436	4.358511	1.476703	-0.000174
 769	7.6416e+01	9.3976	44.759724	0.000355	3.547625	1.201968	-0.000142
 770	7.6516e+01	9.3639	44.610350	0.000375	3.750346	1.270652	-0.000150
 771	7.6615e+01	9.3174	44.473087	0.000345	3.446264	1.167626	-0.000138
 772	7.6715e+01	9.2837	44.315639	0.000395	3.953068	1.339336	-0.000158
 773	7.6814e+01	9.2436	44.162228	0.000385	3.851707	1.304994	-0.000154
 774	7.6913e+01	9.2035	44.073411	0.000223	2.229936	0.755523	-0.000089
 775	7.7013e+01	9.1618	43.863480	0.000527	5.270757	1.785781	-0.000211
 776	7.7112e+01	9.1201	43.758514	0.000264	2.635379	0.892890	-0.000105
 777	7.7212e+01	9.0864	43.601066	0.000395	3.953068	1.339336	-0.000158
 778	7.7311e+01	9.0415	43.471878	0.000324	3.243543	1.098942	-0.000130
 779	7.7411e+01	8.9997	43.274058	0.000497	4.966675	1.682755	-0.000199
 780	7.7510e+01	8.9564	43.092387	0.000456	4.561232	1.545387	-0.000183
 781	7.7610e+01	8.9211	42.987421	0.000264	2.635379	0.892890	-0.000105
 782	7.7710e+01	8.8842	42.821899	0.000416	4.155789	1.408020	-0.000166
 783	7.7809e+01	8.8377	42.700785	0.000304	3.040821	1.030258	-0.000122
 784	7.7909e+01	8.8040	42.543336	0.000395	3.953068	1.339336	-0.000158
 785	7.8008e+01	8.7591	42.381851	0.000405	4.054429	1.373678	-0.000162
 786	7.8108e+01	8.7238	42.212291	0.000426	4.257150	1.442361	-0.000170
 787	7.8207e+01	8.6869	42.062917	0.000375	3.750346	1.270652	-0.000150
 788	7.8306e+01	8.6516	41.909506	0.000385	3.851707	1.304994	-0.000154
 789	7.8406e+01	8.6067	41.772243	0.000345	3.446264	1.167626	-0.000138
 790	7.8505e+01	8.5618	41.639018	0.000334	3.344904	1.133284	-0.000134
 791	7.8605e+01	8.5185	41.461384	0.000446	4.459871	1.511045	-0.000179
 792	7.8704e+01	8.4816	41.324121	0.000345	3.446264	1.167626	-0.000138
 793	7.8804e+01	8.4479	41.178785	0.000365	3.648986	1.236310	-0.000146
 794	7.8903e+01	8.4078	41.021336	0.000395	3.953068	1.339336	-0.000158
 795	7.9003e+01	8.3581	40.839665	0.000456	4.561232	1.545387	-0.000183
 796	7.9103e+01	8.3212	40.694328	0.000365	3.648986	1.236310	-0.000146
 797	7.9202e+01	8.2794	40.573214	0.000304	3.040821	1.030258	-0.000122
 798	7.9302e+01	8.2377	40.419803	0.000385	3.851707	1.304994	-0.000154
 799	7.9401e+01	8.1976	40.250243	0.000426	4.257150	1.442361	-0.000170
 800	7.9501e+01	8.1671	40.060498	0.000476	4.763954	1.614071	-0.000191
 801	7.9600e+01	8.1222	39.923235	0.000345	3.446264	1.167626	-0.000138
 802	7.9700e+01	8.0853	39.749638	0.000436	4.358511	1.476703	-0.000174
 803	7.9799e+01	8.0420	39.644673	0.000264	2.635379	0.892890	-0.000105
 804	7.9898e+01	8.0180	39.471076	0.000436	4.358511	1.476703	-0.000174
 805	7.9998e+01	7.9554	39.329776	0.000355	3.547625	1.201968	-0.000142
 806	8.0097e+01	7.9345	39.148105	0.000456	4.561232	1.545387	-0.000183
 807	8.0197e+01	7.8944	38.990657	0.000395	3.953068	1.339336	-0.000158
 808	8.0296e+01	7.8431	38.813023	0.000446	4.459871	1.511045	-0.000179
 809	8.0396e+01	7.7982	38.663649	0.000375	3.750346	1.270652	-0.000150
 810	8.0496e+01	7.7581	38.490052	0.000436	4.358511	1.476703	-0.000174
 811	8.0595e+01	7.7260	38.381049	0.000274	2.736739	0.927232	-0.000110
 812	8.0695e+01	7.6811	38.191304	0.000476	4.763954	1.614071	-0.000191
 813	8.0794e+01	7.6490	38.070190	0.000304	3.040821	1.030258	-0.000122
 814	8.0894e+01	7.6057	37.868333	0.000507	5.068036	1.717097	-0.000203
 815	8.0993e+01	7.5607	37.718959	0.000375	3.750346	1.270652	-0.000150
 816	8.1093e+01	7.5335	37.577659	0.000355	3.547625	1.201968	-0.000142
 817	8.1192e+01	7.4870	37.371766	0.000517	5.169396	1.751439	-0.000207
 818	8.1291e+01	7.4533	37.222392	0.000375	3.750346	1.270652	-0.000150
 819	8.1391e+01	7.4051	37.060906	0.000405	4.054429	1.373678	-0.000162
 820	8.1490e+01	7.3698	36.907495	0.000385	3.851707	1.304994	-0.000154
 821	8.1590e+01	7.3362	36.762158	0.000365	3.648986	1.236310	-0.000146
 822	8.1689e+01	7.2912	36.540116	0.000557	5.574839	1.888807	-0.000223
 823	8.1789e+01	7.2543	36.443224	0.000243	2.432657	0.824207	-0.000097
 824	8.1888e+01	7.2014	36.249442	0.000487	4.865314	1.648413	-0.000195
 825	8.1988e+01	7.1693	36.071808	0.000446	4.459871	1.511045	-0.000179
 826	8.2088e+01	7.1324	35.946657	0.000314	3.142182	1.064600	-0.000126
 827	8.2187e+01	7.0827	35.744800	0.000507	5.068036	1.717097	-0.000203
 828	8.2287e+01	7.0378	35.607537	0.000345	3.446264	1.167626	-0.000138
 829	8.2386e+01	6.9961	35.454126	0.000385	3.851707	1.304994	-0.000154
 830	8.2486e+01	6.9720	35.272455	0.000456	4.561232	1.545387	-0.000183
 831	8.2585e+01	6.9303	35.139229	0.000334	3.344904	1.133284	-0.000134
 832	8.2684e+01	6.8982	34.993893	0.000365	3.648986	1.236310	-0.000146
 833	8.2784e+01	6.8437	34.796073	0.000497	4.966675	1.682755	-0.000199
 834	8.2883e+01	6.8116	34.598253	0.000497	4.966675	1.682755	-0.000199
 835	8.2983e+01	6.7602	34.424656	0.000436	4.358511	1.476703	-0.000174
 836	8.3082e+01	6.7282	34.291431	0.000334	3.344904	1.133284	-0.000134
 837	8.3182e+01	6.6913	34.133983	0.000395	3.953068	1.339336	-0.000158
 838	8.3281e+01	6.6447	33.952312	0.000456	4.561232	1.545387	-0.000183
 839	8.3381e+01	6.6078	33.798900	0.000385	3.851707	1.304994	-0.000154
 840	8.3481e+01	6.5709	33.633378	0.000416	4.155789	1.408020	-0.000166
 841	8.3580e+01	6.5276	33.447670	0.000466	4.662593	1.579729	-0.000187
 842	8.3680e+01	6.4939	33.286184	0.000405	4.054429	1.373678	-0.000162
 843	8.3779e+01	6.4522	33.120662	0.000416	4.155789	1.408020	-0.000166
 844	8.3879e+01	6.4073	32.983399	0.000345	3.446264	1.167626	-0.000138
 845	8.3978e+01	6.3624	32.813839	0.000426	4.257150	1.442361	-0.000170
 846	8.4078e+01	6.3223	32.644280	0.000426	4.257150	1.442361	-0.000170
 847	8.4177e+01	6.2918	32.490868	0.000385	3.851707	1.304994	-0.000154
 848	8.4276e+01	6.2565	32.317272	0.000436	4.358511	1.476703	-0.000174
 849	8.4376e+01	6.2068	32.159823	0.000395	3.953068	1.339336	-0.000158
 850	8.4475e+01	6.1619	31.986226	0.000436	4.358511	1.476703	-0.000174
 851	8.4575e+01	6.1266	31.796481	0.000476	4.763954	1.614071	-0.000191
 852	8.4674e+01	6.0881	31.614810	0.000456	4.561232	1.545387	-0.000183
 853	8.4774e+01	6.0576	31.517919	0.000243	2.432657	0.824207	-0.000097
 854	8.4874e+01	6.0079	31.320099	0.000497	4.966675	1.682755	-0.000199
 855	8.4973e+01	5.9694	31.142465	0.000446	4.459871	1.511045	-0.000179
 856	8.5073e+01	5.9276	30.944645	0.000497	4.966675	1.682755	-0.000199
 857	8.5172e+01	5.8972	30.819494	0.000314	3.142182	1.064600	-0.000126
 858	8.5272e+01	5.8587	30.641860	0.000446	4.459871	1.511045	-0.000179
 859	8.5371e+01	5.8137	30.456152	0.000466	4.662593	1.579729	-0.000187
 860	8.5471e+01	5.7736	30.314852	0.000355	3.547625	1.201968	-0.000142
 861	8.5570e+01	5.7271	30.153367	0.000405	4.054429	1.373678	-0.000162
 862	8.5669e+01	5.7030	29.995919	0.000395	3.953068	1.339336	-0.000158
 863	8.5769e+01	5.6581	29.838470	0.000395	3.953068	1.339336	-0.000158
 864	8.5868e+01	5.6116	29.600279	0.000598	5.980282	2.026174	-0.000239
 865	8.5968e+01	5.5747	29.491277	0.000274	2.736739	0.927232	-0.000110
 866	8.6067e+01	5.5346	29.293457	0.000497	4.966675	1.682755	-0.000199
 867	8.6167e+01	5.4833	29.099674	0.000487	4.865314	1.648413	-0.000195
 868	8.6266e+01	5.4512	28.962412	0.000345	3.446264	1.167626	-0.000138
 869	8.6366e+01	5.4063	28.804963	0.000395	3.953068	1.339336	-0.000158
 870	8.6466e+01	5.3822	28.599070	0.000517	5.169396	1.751439	-0.000207
 871	8.6565e+01	5.3469	28.465844	0.000334	3.344904	1.133284	-0.000134
 872	8.6665e+01	5.2892	28.251876	0.000537	5.372118	1.820123	-0.000215
 873	8.6764e+01	5.2555	28.126725	0.000314	3.142182	1.064600	-0.000126
 874	8.6864e+01	5.2266	27.916794	0.000527	5.270757	1.785781	-0.000211
 875	8.6963e+01	5.1833	27.743197	0.000436	4.358511	1.476703	-0.000174
 876	8.7063e+01	5.1368	27.593823	0.000375	3.750346	1.270652	-0.000150
 877	8.7162e+01	5.0854	27.383892	0.000527	5.270757	1.785781	-0.000211
 878	8.7261e+01	5.0501	27.210295	0.000436	4.358511	1.476703	-0.000174
 879	8.7361e+01	5.0180	27.056884	0.000385	3.851707	1.304994	-0.000154
 880	8.7460e+01	4.9779	26.895398	0.000405	4.054429	1.373678	-0.000162
 881	8.7560e+01	4.9475	26.689504	0.000517	5.169396	1.751439	-0.000207
 882	8.7659e+01	4.8977	26.499759	0.000476	4.763954	1.614071	-0.000191
 883	8.7759e+01	4.8608	26.374608	0.000314	3.142182	1.064600	-0.000126
 884	8.7859e+01	4.8079	26.196974	0.000446	4.459871	1.511045	-0.000179
 885	8.7958e+01	4.7694	26.039526	0.000395	3.953068	1.339336	-0.000158
 886	8.8058e+01	4.7421	25.825557	0.000537	5.372118	1.820123	-0.000215
 887	8.8157e+01	4.7036	25.680220	0.000365	3.648986	1.236310	-0.000146
 888	8.8257e+01	4.6539	25.510661	0.000426	4.257150	1.442361	-0.000170
 889	8.8356e+01	4.6170	25.312841	0.000497	4.966675	1.682755	-0.000199
 890	8.8456e+01	4.5833	25.151356	0.000405	4.054429	1.373678	-0.000162
 891	8.8555e+01	4.5352	25.010056	0.000355	3.547625	1.201968	-0.000142
 892	8.8654e+01	4.5015	24.812236	0.000497	4.966675	1.682755	-0.000199
 893	8.8754e+01	4.4582	24.634602	0.000446	4.459871	1.511045	-0.000179
 894	8.8853e+01	4.4261	24.456968	0.000446	4.459871	1.511045	-0.000179
 895	8.8953e+01	4.3812	24.287409	0.000426	4.257150	1.442361	-0.000170
 896	8.9052e+01	4.3427	24.142072	0.000365	3.648986	1.236310	-0.000146
 897	8.9152e+01	4.2977	23.932141	0.000527	5.270757	1.785781	-0.000211
 898	8.9251e+01	4.2512	23.774692	0.000395	3.953068	1.339336	-0.000158
 899	8.9351e+01	4.2223	23.580910	0.000487	4.865314	1.648413	-0.000195
 900	8.9451e+01	4.1806	23.411350	0.000426	4.257150	1.442361	-0.000170
 901	8.9550e+01	4.1389	23.233716	0.000446	4.459871	1.511045	-0.000179
 902	8.9650e+01	4.1052	23.035897	0.000497	4.966675	1.682755	-0.000199
 903	8.9749e+01	4.0619	22.894597	0.000355	3.547625	1.201968	-0.000142
 904	8.9849e+01	4.0186	22.684666	0.000527	5.270757	1.785781	-0.000211
 905	8.9948e+01	3.9817	22.523180	0.000405	4.054429	1.373678	-0.000162
 906	9.0047e+01	3.9352	22.341509	0.000456	4.561232	1.545387	-0.000183
 907	9.0147e+01	3.9047	22.163875	0.000446	4.459871	1.511045	-0.000179
 908	9.0246e+01	3.8550	21.957981	0.000517	5.169396	1.751439	-0.000207
 909	9.0346e+01	3.8229	21.824756	0.000334	3.344904	1.133284	-0.000134
 910	9.0445e+01	3.7796	21.610788	0.000537	5.372118	1.820123	-0.000215
 911	9.0545e+01	3.7427	21.481599	0.000324	3.243543	1.098942	-0.000130
 912	9.0644e+01	3.6929	21.295891	0.000466	4.662593	1.579729	-0.000187
 913	9.0744e+01	3.6657	21.106146	0.000476	4.763954	1.614071	-0.000191
 914	9.0844e+01	3.6272	20.867955	0.000598	5.980282	2.026174	-0.000239
 915	9.0943e+01	3.5855	20.726655	0.000355	3.547625	1.201968	-0.000142
 916	9.1043e+01	3.5389	20.549021	0.000446	4.459871	1.511045	-0.000179
 917	9.1142e+01	3.4972	20.363313	0.000466	4.662593	1.579729	-0.000187
 918	9.1242e+01	3.4667	20.213939	0.000375	3.750346	1.270652	-0.000150
 919	9.1341e+01	3.4250	20.040342	0.000436	4.358511	1.476703	-0.000174
 920	9.1441e+01	3.3817	19.822336	0.000547	5.473479	1.854465	-0.000219
 921	9.1540e+01	3.3448	19.668925	0.000385	3.851707	1.304994	-0.000154
 922	9.1639e+01	3.2951	19.479180	0.000476	4.763954	1.614071	-0.000191
 923	9.1739e+01	3.2710	19.257137	0.000557	5.574839	1.888807	-0.000223
 924	9.1838e+01	3.2245	19.123912	0.000334	3.344904	1.133284	-0.000134
 925	9.1938e+01	3.1796	18.905907	0.000547	5.473479	1.854465	-0.000219
 926	9.2037e+01	3.1459	18.720198	0.000466	4.662593	1.579729	-0.000187
 927	9.2137e+01	3.1090	18.534490	0.000466	4.662593	1.579729	-0.000187
 928	9.2237e+01	3.0593	18.373005	0.000405	4.054429	1.373678	-0.000162
 929	9.2336e+01	3.0336	18.146925	0.000568	5.676200	1.923149	-0.000227
 930	9.2436e+01	2.9823	17.965254	0.000456	4.561232	1.545387	-0.000183
 931	9.2535e+01	2.9406	17.819917	0.000365	3.648986	1.236310	-0.000146
 932	9.2635e+01	2.9117	17.646320	0.000436	4.358511	1.476703	-0.000174
 933	9.2734e+01	2.8636	17.428315	0.000547	5.473479	1.854465	-0.000219
 934	9.2834e+01	2.8234	17.226458	0.000507	5.068036	1.717097	-0.000203
 935	9.2933e+01	2.7849	17.064973	0.000405	4.054429	1.373678	-0.000162
 936	9.3032e+01	2.7400	16.875227	0.000476	4.763954	1.614071	-0.000191
 937	9.3132e+01	2.6983	16.677408	0.000497	4.966675	1.682755	-0.000199
 938	9.3231e+01	2.6694	16.463440	0.000537	5.372118	1.820123	-0.000215
 939	9.3331e+01	2.6213	16.310028	0.000385	3.851707	1.304994	-0.000154
 940	9.3430e+01	2.5940	16.120283	0.000476	4.763954	1.614071	-0.000191
 941	9.3530e+01	2.5459	15.894203	0.000568	5.676200	1.923149	-0.000227
 942	9.3629e+01	2.5058	15.700421	0.000487	4.865314	1.648413	-0.000195
 943	9.3729e+01	2.4673	15.514713	0.000466	4.662593	1.579729	-0.000187
 944	9.3829e+01	2.4320	15.345153	0.000426	4.257150	1.442361	-0.000170
 945	9.3928e+01	2.3919	15.167519	0.000446	4.459871	1.511045	-0.000179
 946	9.4028e+01	2.3518	14.937402	0.000578	5.777561	1.957491	-0.000231
 947	9.4127e+01	2.3069	14.759768	0.000446	4.459871	1.511045	-0.000179
 948	9.4227e+01	2.2748	14.570023	0.000476	4.763954	1.614071	-0.000191
 949	9.4326e+01	2.2315	14.408537	0.000405	4.054429	1.373678	-0.000162
 950	9.4425e+01	2.1882	14.178421	0.000578	5.777561	1.957491	-0.000231
 951	9.4525e+01	2.1513	13.976564	0.000507	5.068036	1.717097	-0.000203
 952	9.4624e+01	2.0999	13.786819	0.000476	4.763954	1.614071	-0.000191
 953	9.4724e+01	2.0695	13.576887	0.000527	5.270757	1.785781	-0.000211
 954	9.4823e+01	2.0245	13.395216	0.000456	4.561232	1.545387	-0.000183
 955	9.4923e+01	1.9876	13.233731	0.000405	4.054429	1.373678	-0.000162
 956	9.5022e+01	1.9572	12.991503	0.000608	6.081643	2.060516	-0.000243
 957	9.5122e+01	1.8978	12.846166	0.000365	3.648986	1.236310	-0.000146
 958	9.5222e+01	1.8625	12.624123	0.000557	5.574839	1.888807	-0.000223
 959	9.5321e+01	1.8368	12.426304	0.000497	4.966675	1.682755	-0.000199
 960	9.5421e+01	1.7983	12.240596	0.000466	4.662593	1.579729	-0.000187
 961	9.5520e+01	1.7454	12.010479	0.000578	5.777561	1.957491	-0.000231
 962	9.5620e+01	1.7021	11.861105	0.000375	3.750346	1.270652	-0.000150
 963	9.5719e+01	1.6732	11.651174	0.000527	5.270757	1.785781	-0.000211
 964	9.5819e+01	1.6379	11.437206	0.000537	5.372118	1.820123	-0.000215
 965	9.5918e+01	1.5930	11.263609	0.000436	4.358511	1.476703	-0.000174
 966	9.6017e+01	1.5417	11.069826	0.000487	4.865314	1.648413	-0.000195
 967	9.6117e+01	1.5176	10.892192	0.000446	4.459871	1.511045	-0.000179
 968	9.6216e+01	1.4679	10.670150	0.000557	5.574839	1.888807	-0.000223
 969	9.6316e+01	1.4358	10.480404	0.000476	4.763954	1.614071	-0.000191
 970	9.6415e+01	1.3909	10.294696	0.000466	4.662593	1.579729	-0.000187
 971	9.6515e+01	1.3508	10.080728	0.000537	5.372118	1.820123	-0.000215
 972	9.6615e+01	1.3139	9.882908	0.000497	4.966675	1.682755	-0.000199
 973	9.6714e+01	1.2722	9.681051	0.000507	5.068036	1.717097	-0.000203
 974	9.6814e+01	1.2208	9.483232	0.000497	4.966675	1.682755	-0.000199
 975	9.6913e+01	1.1952	9.297524	0.000466	4.662593	1.579729	-0.000187
 976	9.7013e+01	1.1534	9.091630	0.000517	5.169396	1.751439	-0.000207
 977	9.7112e+01	1.1101	8.877661	0.000537	5.372118	1.820123	-0.000215
 978	9.7212e+01	1.0732	8.687916	0.000476	4.763954	1.614071	-0.000191
 979	9.7311e+01	1.0283	8.502208	0.000466	4.662593	1.579729	-0.000187
 980	9.7410e+01	1.0026	8.280165	0.000557	5.574839	1.888807	-0.000223
 981	9.7510e+01	0.9497	8.066197	0.000537	5.372118	1.820123	-0.000215
 982	9.7609e+01	0.9096	7.852229	0.000537	5.372118	1.820123	-0.000215
 983	9.7709e+01	0.8631	7.638261	0.000537	5.372118	1.820123	-0.000215
 984	9.7808e+01	0.8310	7.480813	0.000395	3.953068	1.339336	-0.000158
 985	9.7908e+01	0.7941	7.262807	0.000547	5.473479	1.854465	-0.000219
 986	9.8007e+01	0.7604	7.069025	0.000487	4.865314	1.648413	-0.000195
 987	9.8107e+01	0.7107	6.867168	0.000507	5.068036	1.717097	-0.000203
 988	9.8207e+01	0.6706	6.669348	0.000497	4.966675	1.682755	-0.000199
 989	9.8306e+01	0.6401	6.439232	0.000578	5.777561	1.957491	-0.000231
 990	9.8406e+01	0.5968	6.269672	0.000426	4.257150	1.442361	-0.000170
 991	9.8505e+01	0.5374	6.067815	0.000507	5.068036	1.717097	-0.000203
 992	9.8605e+01	0.5214	5.861921	0.000517	5.169396	1.751439	-0.000207
 993	9.8704e+01	0.4765	5.599507	0.000659	6.588446	2.232226	-0.000264
 994	9.8803e+01	0.4428	5.425910	0.000436	4.358511	1.476703	-0.000174
 995	9.8903e+01	0.3898	5.264425	0.000405	4.054429	1.373678	-0.000162
 996	9.9002e+01	0.3513	5.038345	0.000568	5.676200	1.923149	-0.000227
 997	9.9102e+01	0.3176	4.804192	0.000588	5.878921	1.991833	-0.000235
 998	9.9201e+01	0.2775	4.618483	0.000466	4.662593	1.579729	-0.000187
 999	9.9301e+01	0.2326	4.424701	0.000487	4.865314	1.648413	-0.000195
1000	9.9400e+01	0.1989	4.238993	0.000466	4.662593	1.579729	-0.000187
1001	9.9500e+01	0.1572	4.020987	0.000547	5.473479	1.854465	-0.000219
1002	9.9600e+01	0.1091	3.794908	0.000568	5.676200	1.923149	-0.000227
1003	9.9699e+01	0.0674	3.580939	0.000537	5.372118	1.820123	-0.000215
1004	9.9799e+01	0.0337	3.391194	0.000476	4.763954	1.614071	-0.000191
1005	9.9898e+01	0.0064	3.241820	0.000375	3.750346	1.270652	-0.000150
1006	9.9998e+01	-0.0305	3.035926	0.000517	5.169396	1.751439	-0.000207
1007	1.0010e+02	-0.0690	2.797735	0.000598	5.980282	2.026174	-0.000239
1008	1.0020e+02	-0.1251	2.624138	0.000436	4.358511	1.476703	-0.000174
1009	1.0030e+02	-0.1524	2.418244	0.000517	5.169396	1.751439	-0.000207
1010	1.0040e+02	-0.1973	2.196202	0.000557	5.574839	1.888807	-0.000223
1011	1.0050e+02	-0.2406	2.010494	0.000466	4.662593	1.579729	-0.000187
1012	1.0059e+02	-0.2856	1.780377	0.000578	5.777561	1.957491	-0.000231
1013	1.0069e+02	-0.3225	1.570446	0.000527	5.270757	1.785781	-0.000211
1014	1.0079e+02	-0.3561	1.356478	0.000537	5.372118	1.820123	-0.000215
1015	1.0089e+02	-0.4027	1.146547	0.000527	5.270757	1.785781	-0.000211
1016	1.0099e+02	-0.4380	0.989098	0.000395	3.953068	1.339336	-0.000158
1017	1.0109e+02	-0.4700	0.738796	0.000628	6.284364	2.129200	-0.000252
1018	1.0119e+02	-0.5198	0.577310	0.000405	4.054429	1.373678	-0.000162
1019	1.0129e+02	-0.5519	0.343157	0.000588	5.878921	1.991833	-0.000235
1020	1.0139e+02	-0.5936	0.185708	0.000395	3.953068	1.339336	-0.000158
1021	1.0149e+02	-0.6369	0.020186	0.000416	4.155789	1.408020	-0.000166
1022	1.0159e+02	-0.6658	-0.209931	0.000578	5.777561	1.957491	-0.000231
1023	1.0169e+02	-0.7139	-0.431974	0.000557	5.574839	1.888807	-0.000223
1024	1.0179e+02	-0.7492	-0.641905	0.000527	5.270757	1.785781	-0.000211
1025	1.0189e+02	-0.8005	-0.876058	0.000588	5.878921	1.991833	-0.000235
1026	1.0199e+02	-0.8294	-1.053692	0.000446	4.459871	1.511045	-0.000179
1027	1.0209e+02	-0.8791	-1.271698	0.000547	5.473479	1.854465	-0.000219
1028	1.0219e+02	-0.9080	-1.469517	0.000497	4.966675	1.682755	-0.000199
1029	1.0229e+02	-0.9577	-1.651189	0.000456	4.561232	1.545387	-0.000183
1030	1.0239e+02	-0.9866	-1.865157	0.000537	5.372118	1.820123	-0.000215
1031	1.0248e+02	-1.0379	-2.067013	0.000507	5.068036	1.717097	-0.000203
1032	1.0258e+02	-1.0652	-2.289056	0.000557	5.574839	1.888807	-0.000223
1033	1.0268e+02	-1.1133	-2.498987	0.000527	5.270757	1.785781	-0.000211
1034	1.0278e+02	-1.1502	-2.692770	0.000487	4.865314	1.648413	-0.000195
1035	1.0288e+02	-1.1919	-2.894626	0.000507	5.068036	1.717097	-0.000203
1036	1.0298e+02	-1.2369	-3.112632	0.000547	5.473479	1.854465	-0.000219
1037	1.0308e+02	-1.2689	-3.298340	0.000466	4.662593	1.579729	-0.000187
1038	1.0318e+02	-1.3074	-3.471937	0.000436	4.358511	1.476703	-0.000174
1039	1.0328e+02	-1.3668	-3.722239	0.000628	6.284364	2.129200	-0.000252
1040	1.0338e+02	-1.3893	-3.907947	0.000466	4.662593	1.579729	-0.000187
1041	1.0348e+02	-1.4262	-4.138064	0.000578	5.777561	1.957491	-0.000231
1042	1.0358e+02	-1.4647	-4.331847	0.000487	4.865314	1.648413	-0.000195
1043	1.0368e+02	-1.5064	-4.545815	0.000537	5.372118	1.820123	-0.000215
1044	1.0378e+02	-1.5529	-4.747672	0.000507	5.068036	1.717097	-0.000203
1045	1.0388e+02	-1.6010	-4.925306	0.000446	4.459871	1.511045	-0.000179
1046	1.0398e+02	-1.6235	-5.131200	0.000517	5.169396	1.751439	-0.000207
1047	1.0408e+02	-1.6636	-5.329019	0.000497	4.966675	1.682755	-0.000199
1048	1.0418e+02	-1.7117	-5.514727	0.000466	4.662593	1.579729	-0.000187
1049	1.0428e+02	-1.7390	-5.756956	0.000608	6.081643	2.060516	-0.000243
1050	1.0438e+02	-1.7871	-5.938627	0.000456	4.561232	1.545387	-0.000183
1051	1.0447e+02	-1.8272	-6.164706	0.000568	5.676200	1.923149	-0.000227
1052	1.0457e+02	-1.8705	-6.378674	0.000537	5.372118	1.820123	-0.000215
1053	1.0467e+02	-1.9203	-6.568420	0.000476	4.763954	1.614071	-0.000191
1054	1.0477e+02	-1.9604	-6.750091	0.000456	4.561232	1.545387	-0.000183
1055	1.0487e+02	-1.9973	-6.992319	0.000608	6.081643	2.060516	-0.000243
1056	1.0497e+02	-2.0310	-7.149767	0.000395	3.953068	1.339336	-0.000158
1057	1.0507e+02	-2.0695	-7.379884	0.000578	5.777561	1.957491	-0.000231
1058	1.0517e+02	-2.0999	-7.553481	0.000436	4.358511	1.476703	-0.000174
1059	1.0527e+02	-2.1400	-7.771486	0.000547	5.473479	1.854465	-0.000219
1060	1.0537e+02	-2.1914	-7.977380	0.000517	5.169396	1.751439	-0.000207
1061	1.0547e+02	-2.2315	-8.171163	0.000487	4.865314	1.648413	-0.000195
1062	1.0557e+02	-2.2684	-8.389168	0.000547	5.473479	1.854465	-0.000219
1063	1.0567e+02	-2.3037	-8.562765	0.000436	4.358511	1.476703	-0.000174
1064	1.0577e+02	-2.3566	-8.796919	0.000588	5.878921	1.991833	-0.000235
1065	1.0587e+02	-2.3871	-8.974553	0.000446	4.459871	1.511045	-0.000179
1066	1.0597e+02	-2.4256	-9.184484	0.000527	5.270757	1.785781	-0.000211
1067	1.0607e+02	-2.4753	-9.374229	0.000476	4.763954	1.614071	-0.000191
1068	1.0617e+02	-2.5058	-9.592235	0.000547	5.473479	1.854465	-0.000219
1069	1.0627e+02	-2.5507	-9.814277	0.000557	5.574839	1.888807	-0.000223
1070	1.0637e+02	-2.5796	-10.004022	0.000476	4.763954	1.614071	-0.000191
1071	1.0647e+02	-2.6325	-10.125136	0.000304	3.040821	1.030258	-0.000122
1072	1.0656e+02	-2.6727	-10.423884	0.000750	7.500693	2.541304	-0.000300
1073	1.0666e+02	-2.7079	-10.577296	0.000385	3.851707	1.304994	-0.000154
1074	1.0676e+02	-2.7448	-10.819524	0.000608	6.081643	2.060516	-0.000243
1075	1.0686e+02	-2.7898	-10.972935	0.000385	3.851707	1.304994	-0.000154
1076	1.0696e+02	-2.8315	-11.178829	0.000517	5.169396	1.751439	-0.000207
1077	1.0706e+02	-2.8620	-11.364537	0.000466	4.662593	1.579729	-0.000187
1078	1.0716e+02	-2.8988	-11.554282	0.000476	4.763954	1.614071	-0.000191
1079	1.0726e+02	-2.9582	-11.784399	0.000578	5.777561	1.957491	-0.000231
1080	1.0736e+02	-2.9871	-11.978182	0.000487	4.865314	1.648413	-0.000195
1081	1.0746e+02	-3.0304	-12.159853	0.000456	4.561232	1.545387	-0.000183
1082	1.0756e+02	-3.0577	-12.369784	0.000527	5.270757	1.785781	-0.000211
1083	1.0766e+02	-3.1138	-12.579715	0.000527	5.270757	1.785781	-0.000211
1084	1.0776e+02	-3.1491	-12.797720	0.000547	5.473479	1.854465	-0.000219
1085	1.0786e+02	-3.1876	-12.967280	0.000426	4.257150	1.442361	-0.000170
1086	1.0796e+02	-3.2165	-13.165100	0.000497	4.966675	1.682755	-0.000199
1087	1.0806e+02	-3.2566	-13.350808	0.000466	4.662593	1.579729	-0.000187
1088	1.0816e+02	-3.3015	-13.588999	0.000598	5.980282	2.026174	-0.000239
1089	1.0826e+02	-3.3528	-13.726262	0.000345	3.446264	1.167626	-0.000138
1090	1.0836e+02	-3.3881	-13.940230	0.000537	5.372118	1.820123	-0.000215
1091	1.0845e+02	-3.4202	-14.158235	0.000547	5.473479	1.854465	-0.000219
1092	1.0855e+02	-3.4635	-14.368166	0.000527	5.270757	1.785781	-0.000211
1093	1.0865e+02	-3.5069	-14.541763	0.000436	4.358511	1.476703	-0.000174
1094	1.0875e+02	-3.5373	-14.719397	0.000446	4.459871	1.511045	-0.000179
1095	1.0885e+02	-3.5823	-14.961625	0.000608	6.081643	2.060516	-0.000243
1096	1.0895e+02	-3.6336	-15.155408	0.000487	4.865314	1.648413	-0.000195
1097	1.0905e+02	-3.6657	-15.333042	0.000446	4.459871	1.511045	-0.000179
1098	1.0915e+02	-3.7042	-15.514713	0.000456	4.561232	1.545387	-0.000183
1099	1.0925e+02	-3.7443	-15.696384	0.000456	4.561232	1.545387	-0.000183
1100	1.0935e+02	-3.7860	-15.914389	0.000547	5.473479	1.854465	-0.000219
1101	1.0945e+02	-3.8229	-16.096060	0.000456	4.561232	1.545387	-0.000183
1102	1.0955e+02	-3.8614	-16.289843	0.000487	4.865314	1.648413	-0.000195
1103	1.0965e+02	-3.8983	-16.507848	0.000547	5.473479	1.854465	-0.000219
1104	1.0975e+02	-3.9336	-16.689519	0.000456	4.561232	1.545387	-0.000183
1105	1.0985e+02	-3.9801	-16.887339	0.000497	4.966675	1.682755	-0.000199
1106	1.0995e+02	-4.0154	-17.069010	0.000456	4.561232	1.545387	-0.000183
1107	1.1005e+02	-4.0603	-17.295090	0.000568	5.676200	1.923149	-0.000227
1108	1.1015e+02	-4.0972	-17.472723	0.000446	4.459871	1.511045	-0.000179
1109	1.1025e+02	-4.1357	-17.686692	0.000537	5.372118	1.820123	-0.000215
1110	1.1035e+02	-4.1870	-17.848177	0.000405	4.054429	1.373678	-0.000162
1111	1.1044e+02	-4.2047	-18.066182	0.000547	5.473479	1.854465	-0.000219
1112	1.1054e+02	-4.2576	-18.292262	0.000568	5.676200	1.923149	-0.000227
1113	1.1064e+02	-4.3026	-18.457785	0.000416	4.155789	1.408020	-0.000166
1114	1.1074e+02	-4.3427	-18.659641	0.000507	5.068036	1.717097	-0.000203
1115	1.1084e+02	-4.3828	-18.853424	0.000487	4.865314	1.648413	-0.000195
1116	1.1094e+02	-4.4084	-19.075466	0.000557	5.574839	1.888807	-0.000223
1117	1.1104e+02	-4.4726	-19.232915	0.000395	3.953068	1.339336	-0.000158
1118	1.1114e+02	-4.5047	-19.430734	0.000497	4.966675	1.682755	-0.000199
1119	1.1124e+02	-4.5352	-19.592220	0.000405	4.054429	1.373678	-0.000162
1120	1.1134e+02	-4.5785	-19.794077	0.000507	5.068036	1.717097	-0.000203
1121	1.1144e+02	-4.6234	-19.955562	0.000405	4.054429	1.373678	-0.000162
1122	1.1154e+02	-4.6571	-20.173567	0.000547	5.473479	1.854465	-0.000219
1123	1.1164e+02	-4.7036	-20.371387	0.000497	4.966675	1.682755	-0.000199
1124	1.1174e+02	-4.7421	-20.557095	0.000466	4.662593	1.579729	-0.000187
1125	1.1184e+02	-4.7742	-20.742803	0.000466	4.662593	1.579729	-0.000187
1126	1.1194e+02	-4.8207	-20.920437	0.000446	4.459871	1.511045	-0.000179
1127	1.1204e+02	-4.8576	-21.102109	0.000456	4.561232	1.545387	-0.000183
1128	1.1214e+02	-4.8993	-21.332225	0.000578	5.777561	1.957491	-0.000231
1129	1.1224e+02	-4.9346	-21.509859	0.000446	4.459871	1.511045	-0.000179
1130	1.1234e+02	-4.9811	-21.707679	0.000497	4.966675	1.682755	-0.000199
1131	1.1244e+02	-5.0196	-21.889350	0.000456	4.561232	1.545387	-0.000183
1132	1.1253e+02	-5.0678	-22.042761	0.000385	3.851707	1.304994	-0.000154
1133	1.1263e+02	-5.0966	-22.224432	0.000456	4.561232	1.545387	-0.000183
1134	1.1273e+02	-5.1303	-22.414178	0.000476	4.763954	1.614071	-0.000191
1135	1.1283e+02	-5.1769	-22.611997	0.000497	4.966675	1.682755	-0.000199
1136	1.1293e+02	-5.2154	-22.809817	0.000497	4.966675	1.682755	-0.000199
1137	1.1303e+02	-5.2619	-22.983414	0.000436	4.358511	1.476703	-0.000174
1138	1.1313e+02	-5.2972	-23.189308	0.000517	5.169396	1.751439	-0.000207
1139	1.1323e+02	-5.3357	-23.354830	0.000416	4.155789	1.408020	-0.000166
1140	1.1333e+02	-5.3774	-23.508241	0.000385	3.851707	1.304994	-0.000154
1141	1.1343e+02	-5.4175	-23.762581	0.000639	6.385725	2.163542	-0.000256
1142	1.1353e+02	-5.4624	-23.903881	0.000355	3.547625	1.201968	-0.000142
1143	1.1363e+02	-5.4977	-24.097663	0.000487	4.865314	1.648413	-0.000195
1144	1.1373e+02	-5.5282	-24.271260	0.000436	4.358511	1.476703	-0.000174
1145	1.1383e+02	-5.5827	-24.469080	0.000497	4.966675	1.682755	-0.000199
1146	1.1393e+02	-5.6148	-24.634602	0.000416	4.155789	1.408020	-0.000166
1147	1.1403e+02	-5.6597	-24.832422	0.000497	4.966675	1.682755	-0.000199
1148	1.1413e+02	-5.6918	-25.082724	0.000628	6.284364	2.129200	-0.000252
1149	1.1423e+02	-5.7335	-25.179616	0.000243	2.432657	0.824207	-0.000097
1150	1.1433e+02	-5.7752	-25.393584	0.000537	5.372118	1.820123	-0.000215
1151	1.1442e+02	-5.8218	-25.583329	0.000476	4.763954	1.614071	-0.000191
1152	1.1452e+02	-5.8522	-25.732703	0.000375	3.750346	1.270652	-0.000150
1153	1.1462e+02	-5.8875	-25.954746	0.000557	5.574839	1.888807	-0.000223
1154	1.1472e+02	-5.9357	-26.128342	0.000436	4.358511	1.476703	-0.000174
1155	1.1482e+02	-5.9790	-26.281754	0.000385	3.851707	1.304994	-0.000154
1156	1.1492e+02	-6.0207	-26.419016	0.000345	3.446264	1.167626	-0.000138
1157	1.1502e+02	-6.0480	-26.641059	0.000557	5.574839	1.888807	-0.000223
1158	1.1512e+02	-6.0913	-26.830804	0.000476	4.763954	1.614071	-0.000191
1159	1.1522e+02	-6.1298	-26.992290	0.000405	4.054429	1.373678	-0.000162
1160	1.1532e+02	-6.1811	-27.190109	0.000497	4.966675	1.682755	-0.000199
1161	1.1542e+02	-6.2084	-27.387929	0.000497	4.966675	1.682755	-0.000199
1162	1.1552e+02	-6.2581	-27.557489	0.000426	4.257150	1.442361	-0.000170
1163	1.1562e+02	-6.2966	-27.714937	0.000395	3.953068	1.339336	-0.000158
1164	1.1572e+02	-6.3303	-27.896608	0.000456	4.561232	1.545387	-0.000183
1165	1.1582e+02	-6.3736	-28.094428	0.000497	4.966675	1.682755	-0.000199
1166	1.1592e+02	-6.4153	-28.247839	0.000385	3.851707	1.304994	-0.000154
1167	1.1602e+02	-6.4570	-28.449696	0.000507	5.068036	1.717097	-0.000203
1168	1.1612e+02	-6.4923	-28.586958	0.000345	3.446264	1.167626	-0.000138
1169	1.1622e+02	-6.5324	-28.756518	0.000426	4.257150	1.442361	-0.000170
1170	1.1632e+02	-6.5774	-28.958375	0.000507	5.068036	1.717097	-0.000203
1171	1.1642e+02	-6.6014	-29.156194	0.000497	4.966675	1.682755	-0.000199
1172	1.1651e+02	-6.6479	-29.269234	0.000284	2.838100	0.961574	-0.000114
1173	1.1661e+02	-6.6768	-29.495314	0.000568	5.676200	1.923149	-0.000227
1174	1.1671e+02	-6.7233	-29.628539	0.000334	3.344904	1.133284	-0.000134
1175	1.1681e+02	-6.7779	-29.846545	0.000547	5.473479	1.854465	-0.000219
1176	1.1691e+02	-6.8132	-29.995919	0.000375	3.750346	1.270652	-0.000150
1177	1.1701e+02	-6.8388	-30.185664	0.000476	4.763954	1.614071	-0.000191
1178	1.1711e+02	-6.8870	-30.318889	0.000334	3.344904	1.133284	-0.000134
1179	1.1721e+02	-6.9335	-30.464226	0.000365	3.648986	1.236310	-0.000146
1180	1.1731e+02	-6.9672	-30.653972	0.000476	4.763954	1.614071	-0.000191
1181	1.1741e+02	-7.0089	-30.839680	0.000466	4.662593	1.579729	-0.000187
1182	1.1751e+02	-7.0570	-31.029425	0.000476	4.763954	1.614071	-0.000191
1183	1.1761e+02	-7.0955	-31.170725	0.000355	3.547625	1.201968	-0.000142
1184	1.1771e+02	-7.1292	-31.320099	0.000375	3.750346	1.270652	-0.000150
1185	1.1781e+02	-7.1677	-31.538104	0.000547	5.473479	1.854465	-0.000219
1186	1.1791e+02	-7.2078	-31.711701	0.000436	4.358511	1.476703	-0.000174
1187	1.1801e+02	-7.2479	-31.828778	0.000294	2.939461	0.995916	-0.000118
1188	1.1811e+02	-7.2912	-32.010449	0.000456	4.561232	1.545387	-0.000183
1189	1.1821e+02	-7.3281	-32.163860	0.000385	3.851707	1.304994	-0.000154
1190	1.1831e+02	-7.3747	-32.333420	0.000426	4.257150	1.442361	-0.000170
1191	1.1841e+02	-7.4228	-32.494906	0.000405	4.054429	1.373678	-0.000162
1192	1.1850e+02	-7.4436	-32.676577	0.000456	4.561232	1.545387	-0.000183
1193	1.1860e+02	-7.4998	-32.834025	0.000395	3.953068	1.339336	-0.000158
1194	1.1870e+02	-7.5287	-33.027807	0.000487	4.865314	1.648413	-0.000195
1195	1.1880e+02	-7.5688	-33.193330	0.000416	4.155789	1.408020	-0.000166
1196	1.1890e+02	-7.6073	-33.322518	0.000324	3.243543	1.098942	-0.000130
1197	1.1900e+02	-7.6538	-33.484004	0.000405	4.054429	1.373678	-0.000162
1198	1.1910e+02	-7.6907	-33.669712	0.000466	4.662593	1.579729	-0.000187
1199	1.1920e+02	-7.7180	-33.831197	0.000405	4.054429	1.373678	-0.000162
1200	1.1930e+02	-7.7725	-33.988646	0.000395	3.953068	1.339336	-0.000158
1201	1.1940e+02	-7.8046	-34.113797	0.000314	3.142182	1.064600	-0.000126
1202	1.1950e+02	-7.8463	-34.267208	0.000385	3.851707	1.304994	-0.000154
1203	1.1960e+02	-7.8880	-34.460991	0.000487	4.865314	1.648413	-0.000195
1204	1.1970e+02	-7.9233	-34.614402	0.000385	3.851707	1.304994	-0.000154
1205	1.1980e+02	-7.9602	-34.824333	0.000527	5.270757	1.785781	-0.000211
1206	1.1990e+02	-8.0099	-34.953521	0.000324	3.243543	1.098942	-0.000130
1207	1.2000e+02	-8.0516	-35.098858	0.000365	3.648986	1.236310	-0.000146
1208	1.2010e+02	-8.0805	-35.252269	0.000385	3.851707	1.304994	-0.000154
1209	1.2020e+02	-8.1319	-35.417792	0.000416	4.155789	1.408020	-0.000166
1210	1.2030e+02	-8.1655	-35.627723	0.000527	5.270757	1.785781	-0.000211
1211	1.2039e+02	-8.2089	-35.732688	0.000264	2.635379	0.892890	-0.000105
1212	1.2049e+02	-8.2425	-35.886100	0.000385	3.851707	1.304994	-0.000154
1213	1.2059e+02	-8.2843	-36.067771	0.000456	4.561232	1.545387	-0.000183
1214	1.2069e+02	-8.3163	-36.221182	0.000385	3.851707	1.304994	-0.000154
1215	1.2079e+02	-8.3661	-36.342296	0.000304	3.040821	1.030258	-0.000122
1216	1.2089e+02	-8.4014	-36.519930	0.000446	4.459871	1.511045	-0.000179
1217	1.2099e+02	-8.4415	-36.673341	0.000385	3.851707	1.304994	-0.000154
1218	1.2109e+02	-8.4816	-36.879235	0.000517	5.169396	1.751439	-0.000207
1219	1.2119e+02	-8.5169	-36.984200	0.000264	2.635379	0.892890	-0.000105
1220	1.2129e+02	-8.5650	-37.157797	0.000436	4.358511	1.476703	-0.000174
1221	1.2139e+02	-8.5987	-37.347543	0.000476	4.763954	1.614071	-0.000191
1222	1.2149e+02	-8.6452	-37.448471	0.000253	2.534018	0.858548	-0.000101
1223	1.2159e+02	-8.6757	-37.630142	0.000456	4.561232	1.545387	-0.000183
1224	1.2169e+02	-8.7270	-37.759331	0.000324	3.243543	1.098942	-0.000130
1225	1.2179e+02	-8.7623	-37.928890	0.000426	4.257150	1.442361	-0.000170
1226	1.2189e+02	-8.7976	-38.054041	0.000314	3.142182	1.064600	-0.000126
1227	1.2199e+02	-8.8393	-38.227638	0.000436	4.358511	1.476703	-0.000174
1228	1.2209e+02	-8.8762	-38.385087	0.000395	3.953068	1.339336	-0.000158
1229	1.2219e+02	-8.9308	-38.546572	0.000405	4.054429	1.373678	-0.000162
1230	1.2229e+02	-8.9580	-38.691909	0.000365	3.648986	1.236310	-0.000146
1231	1.2239e+02	-8.9965	-38.877617	0.000466	4.662593	1.579729	-0.000187
1232	1.2248e+02	-9.0431	-39.014880	0.000345	3.446264	1.167626	-0.000138
1233	1.2258e+02	-9.0767	-39.184439	0.000426	4.257150	1.442361	-0.000170
1234	1.2268e+02	-9.1201	-39.309591	0.000314	3.142182	1.064600	-0.000126
1235	1.2278e+02	-9.1602	-39.479150	0.000426	4.257150	1.442361	-0.000170
1236	1.2288e+02	-9.1971	-39.600264	0.000304	3.040821	1.030258	-0.000122
1237	1.2298e+02	-9.2404	-39.745601	0.000365	3.648986	1.236310	-0.000146
1238	1.2308e+02	-9.2885	-39.907087	0.000405	4.054429	1.373678	-0.000162
1239	1.2318e+02	-9.3206	-40.040312	0.000334	3.344904	1.133284	-0.000134
1240	1.2328e+02	-9.3575	-40.181612	0.000355	3.547625	1.201968	-0.000142
1241	1.2338e+02	-9.3944	-40.367320	0.000466	4.662593	1.579729	-0.000187
1242	1.2348e+02	-9.4345	-40.532843	0.000416	4.155789	1.408020	-0.000166
1243	1.2358e+02	-9.4778	-40.649920	0.000294	2.939461	0.995916	-0.000118
1244	1.2368e+02	-9.5147	-40.791219	0.000355	3.547625	1.201968	-0.000142
1245	1.2378e+02	-9.5580	-40.932519	0.000355	3.547625	1.201968	-0.000142
1246	1.2388e+02	-9.6045	-41.098042	0.000416	4.155789	1.408020	-0.000166
1247	1.2398e+02	-9.6382	-41.255490	0.000395	3.953068	1.339336	-0.000158
1248	1.2408e+02	-9.6751	-41.348344	0.000233	2.331296	0.789865	-0.000093
1249	1.2418e+02	-9.7184	-41.562312	0.000537	5.372118	1.820123	-0.000215
1250	1.2428e+02	-9.7553	-41.679389	0.000294	2.939461	0.995916	-0.000118
1251	1.2438e+02	-9.7938	-41.824726	0.000365	3.648986	1.236310	-0.000146
1252	1.2447e+02	-9.8372	-41.994286	0.000426	4.257150	1.442361	-0.000170
1253	1.2457e+02	-9.8773	-42.111363	0.000294	2.939461	0.995916	-0.000118
1254	1.2467e+02	-9.9142	-42.240551	0.000324	3.243543	1.098942	-0.000130
1255	1.2477e+02	-9.9527	-42.398000	0.000395	3.953068	1.339336	-0.000158
1256	1.2487e+02	-10.0056	-42.535262	0.000345	3.446264	1.167626	-0.000138
1257	1.2497e+02	-10.0361	-42.688673	0.000385	3.851707	1.304994	-0.000154
1258	1.2507e+02	-10.0858	-42.797676	0.000274	2.736739	0.927232	-0.000110
1259	1.2517e+02	-10.1147	-42.963199	0.000416	4.155789	1.408020	-0.000166
1260	1.2527e+02	-10.1564	-43.116610	0.000385	3.851707	1.304994	-0.000154
1261	1.2537e+02	-10.1997	-43.245798	0.000324	3.243543	1.098942	-0.000130
1262	1.2547e+02	-10.2350	-43.467840	0.000557	5.574839	1.888807	-0.000223
1263	1.2557e+02	-10.2687	-43.572806	0.000264	2.635379	0.892890	-0.000105
1264	1.2567e+02	-10.3184	-43.693920	0.000304	3.040821	1.030258	-0.000122
1265	1.2577e+02	-10.3601	-43.827146	0.000334	3.344904	1.133284	-0.000134
1266	1.2587e+02	-10.3954	-44.041114	0.000537	5.372118	1.820123	-0.000215
1267	1.2597e+02	-10.4323	-44.158191	0.000294	2.939461	0.995916	-0.000118
1268	1.2607e+02	-10.4724	-44.287379	0.000324	3.243543	1.098942	-0.000130
1269	1.2617e+02	-10.5141	-44.424642	0.000345	3.446264	1.167626	-0.000138
1270	1.2627e+02	-10.5559	-44.582090	0.000395	3.953068	1.339336	-0.000158
1271	1.2636e+02	-10.5944	-44.735501	0.000385	3.851707	1.304994	-0.000154
1272	1.2646e+02	-10.6313	-44.844504	0.000274	2.736739	0.927232	-0.000110
1273	1.2656e+02	-10.6778	-45.030212	0.000466	4.662593	1.579729	-0.000187
1274	1.2666e+02	-10.7115	-45.215920	0.000466	4.662593	1.579729	-0.000187
1275	1.2676e+02	-10.7516	-45.296663	0.000203	2.027214	0.686839	-0.000081
1276	1.2686e+02	-10.7917	-45.425851	0.000324	3.243543	1.098942	-0.000130
1277	1.2696e+02	-10.8318	-45.575225	0.000375	3.750346	1.270652	-0.000150
1278	1.2706e+02	-10.8735	-45.724599	0.000375	3.750346	1.270652	-0.000150
1279	1.2716e+02	-10.9072	-45.857825	0.000334	3.344904	1.133284	-0.000134
1280	1.2726e+02	-10.9489	-46.063719	0.000517	5.169396	1.751439	-0.000207
1281	1.2736e+02	-10.9954	-46.152536	0.000223	2.229936	0.755523	-0.000089
1282	1.2746e+02	-11.0275	-46.314021	0.000405	4.054429	1.373678	-0.000162
1283	1.2756e+02	-11.0772	-46.447247	0.000334	3.344904	1.133284	-0.000134
1284	1.2766e+02	-11.1141	-46.645066	0.000497	4.966675	1.682755	-0.000199
1285	1.2776e+02	-11.1542	-46.741958	0.000243	2.432657	0.824207	-0.000097
1286	1.2786e+02	-11.1943	-46.895369	0.000385	3.851707	1.304994	-0.000154
1287	1.2796e+02	-11.2280	-47.028594	0.000334	3.344904	1.133284	-0.000134
1288	1.2806e+02	-11.2713	-47.165857	0.000345	3.446264	1.167626	-0.000138
1289	1.2816e+02	-11.3147	-47.278897	0.000284	2.838100	0.961574	-0.000114
1290	1.2826e+02	-11.3516	-47.456531	0.000446	4.459871	1.511045	-0.000179
1291	1.2835e+02	-11.3933	-47.618016	0.000405	4.054429	1.373678	-0.000162
1292	1.2845e+02	-11.4302	-47.771427	0.000385	3.851707	1.304994	-0.000154
1293	1.2855e+02	-11.4703	-47.876393	0.000264	2.635379	0.892890	-0.000105
1294	1.2865e+02	-11.5120	-48.033841	0.000395	3.953068	1.339336	-0.000158
1295	1.2875e+02	-11.5553	-48.158992	0.000314	3.142182	1.064600	-0.000126
1296	1.2885e+02	-11.5826	-48.332589	0.000436	4.358511	1.476703	-0.000174
1297	1.2895e+02	-11.6371	-48.445629	0.000284	2.838100	0.961574	-0.000114
1298	1.2905e+02	-11.6724	-48.607114	0.000405	4.054429	1.373678	-0.000162
1299	1.2915e+02	-11.7141	-48.728228	0.000304	3.040821	1.030258	-0.000122
1300	1.2925e+02	-11.7526	-48.865491	0.000345	3.446264	1.167626	-0.000138
1301	1.2935e+02	-11.7879	-48.994679	0.000324	3.243543	1.098942	-0.000130
1302	1.2945e+02	-11.8232	-49.156165	0.000405	4.054429	1.373678	-0.000162
1303	1.2955e+02	-11.8697	-49.285353	0.000324	3.243543	1.098942	-0.000130
1304	1.2965e+02	-11.9146	-49.378207	0.000233	2.331296	0.789865	-0.000093
1305	1.2975e+02	-11.9419	-49.588138	0.000527	5.270757	1.785781	-0.000211
1306	1.2985e+02	-11.9868	-49.693104	0.000264	2.635379	0.892890	-0.000105
1307	1.2995e+02	-12.0317	-49.846515	0.000385	3.851707	1.304994	-0.000154
1308	1.3005e+02	-12.0590	-50.024149	0.000446	4.459871	1.511045	-0.000179
1309	1.3015e+02	-12.1136	-50.096817	0.000182	1.824493	0.618155	-0.000073
1310	1.3025e+02	-12.1456	-50.270414	0.000436	4.358511	1.476703	-0.000174
1311	1.3034e+02	-12.1954	-50.427863	0.000395	3.953068	1.339336	-0.000158
1312	1.3044e+02	-12.2226	-50.569162	0.000355	3.547625	1.201968	-0.000142
1313	1.3054e+02	-12.2628	-50.698351	0.000324	3.243543	1.098942	-0.000130
1314	1.3064e+02	-12.3045	-50.799279	0.000253	2.534018	0.858548	-0.000101
1315	1.3074e+02	-12.3446	-50.968839	0.000426	4.257150	1.442361	-0.000170
1316	1.3084e+02	-12.3911	-51.077841	0.000274	2.736739	0.927232	-0.000110
1317	1.3094e+02	-12.4360	-51.231253	0.000385	3.851707	1.304994	-0.000154
1318	1.3104e+02	-12.4729	-51.437146	0.000517	5.169396	1.751439	-0.000207
1319	1.3114e+02	-12.5002	-51.530001	0.000233	2.331296	0.789865	-0.000093
1320	1.3124e+02	-12.5451	-51.663226	0.000334	3.344904	1.133284	-0.000134
1321	1.3134e+02	-12.5900	-51.764154	0.000253	2.534018	0.858548	-0.000101
1322	1.3144e+02	-12.6173	-51.937751	0.000436	4.358511	1.476703	-0.000174
1323	1.3154e+02	-12.6702	-52.058865	0.000304	3.040821	1.030258	-0.000122
1324	1.3164e+02	-12.7071	-52.204202	0.000365	3.648986	1.236310	-0.000146
1325	1.3174e+02	-12.7537	-52.402022	0.000497	4.966675	1.682755	-0.000199
1326	1.3184e+02	-12.7905	-52.498913	0.000243	2.432657	0.824207	-0.000097
1327	1.3194e+02	-12.8290	-52.591767	0.000233	2.331296	0.789865	-0.000093
1328	1.3204e+02	-12.8692	-52.773438	0.000456	4.561232	1.545387	-0.000183
1329	1.3214e+02	-12.9125	-52.902627	0.000324	3.243543	1.098942	-0.000130
1330	1.3224e+02	-12.9510	-53.035852	0.000334	3.344904	1.133284	-0.000134
1331	1.3234e+02	-12.9815	-53.193300	0.000395	3.953068	1.339336	-0.000158
1332	1.3243e+02	-13.0167	-53.322489	0.000324	3.243543	1.098942	-0.000130
1333	1.3253e+02	-13.0585	-53.447640	0.000314	3.142182	1.064600	-0.000126
1334	1.3263e+02	-13.1050	-53.584903	0.000345	3.446264	1.167626	-0.000138
1335	1.3273e+02	-13.1483	-53.734277	0.000375	3.750346	1.270652	-0.000150
1336	1.3283e+02	-13.1772	-53.859428	0.000314	3.142182	1.064600	-0.000126
1337	1.3293e+02	-13.2269	-54.020913	0.000405	4.054429	1.373678	-0.000162
1338	1.3303e+02	-13.2686	-54.085507	0.000162	1.621771	0.549471	-0.000065
1339	1.3313e+02	-13.3007	-54.271216	0.000466	4.662593	1.579729	-0.000187
1340	1.3323e+02	-13.3344	-54.404441	0.000334	3.344904	1.133284	-0.000134
1341	1.3333e+02	-13.3809	-54.525555	0.000304	3.040821	1.030258	-0.000122
1342	1.3343e+02	-13.4258	-54.683004	0.000395	3.953068	1.339336	-0.000158
1343	1.3353e+02	-13.4723	-54.820266	0.000345	3.446264	1.167626	-0.000138
1344	1.3363e+02	-13.4996	-54.957529	0.000345	3.446264	1.167626	-0.000138
1345	1.3373e+02	-13.5365	-55.054420	0.000243	2.432657	0.824207	-0.000097
1346	1.3383e+02	-13.5879	-55.187646	0.000334	3.344904	1.133284	-0.000134
1347	1.3393e+02	-13.6183	-55.320871	0.000334	3.344904	1.133284	-0.000134
1348	1.3403e+02	-13.6600	-55.474282	0.000385	3.851707	1.304994	-0.000154
1349	1.3413e+02	-13.7050	-55.579248	0.000264	2.635379	0.892890	-0.000105
1350	1.3423e+02	-13.7403	-55.708436	0.000324	3.243543	1.098942	-0.000130
1351	1.3432e+02	-13.7820	-55.853773	0.000365	3.648986	1.236310	-0.000146
1352	1.3442e+02	-13.8157	-55.986998	0.000334	3.344904	1.133284	-0.000134
1353	1.3452e+02	-13.8558	-56.136372	0.000375	3.750346	1.270652	-0.000150
1354	1.3462e+02	-13.9039	-56.213078	0.000193	1.925854	0.652497	-0.000077
1355	1.3472e+02	-13.9344	-56.406861	0.000487	4.865314	1.648413	-0.000195
1356	1.3482e+02	-13.9857	-56.503752	0.000243	2.432657	0.824207	-0.000097
1357	1.3492e+02	-14.0194	-56.636977	0.000334	3.344904	1.133284	-0.000134
1358	1.3502e+02	-14.0563	-56.786351	0.000375	3.750346	1.270652	-0.000150
1359	1.3512e+02	-14.1028	-56.891317	0.000264	2.635379	0.892890	-0.000105
1360	1.3522e+02	-14.1381	-57.052802	0.000405	4.054429	1.373678	-0.000162
1361	1.3532e+02	-14.1750	-57.165842	0.000284	2.838100	0.961574	-0.000114
1362	1.3542e+02	-14.2263	-57.278882	0.000284	2.838100	0.961574	-0.000114
1363	1.3552e+02	-14.2664	-57.408070	0.000324	3.243543	1.098942	-0.000130
1364	1.3562e+02	-14.2985	-57.537259	0.000324	3.243543	1.098942	-0.000130
1365	1.3572e+02	-14.3467	-57.686633	0.000375	3.750346	1.270652	-0.000150
1366	1.3582e+02	-14.3739	-57.799672	0.000284	2.838100	0.961574	-0.000114
1367	1.3592e+02	-14.4269	-57.977306	0.000446	4.459871	1.511045	-0.000179
1368	1.3602e+02	-14.4590	-58.037863	0.000152	1.520411	0.515129	-0.000061
1369	1.3612e+02	-14.5039	-58.183200	0.000365	3.648986	1.236310	-0.000146
1370	1.3622e+02	-14.5376	-58.364871	0.000456	4.561232	1.545387	-0.000183
1371	1.3631e+02	-14.5777	-58.409280	0.000111	1.114968	0.377761	-0.000045
1372	1.3641e+02	-14.6274	-58.570765	0.000405	4.054429	1.373678	-0.000162
1373	1.3651e+02	-14.6643	-58.667657	0.000243	2.432657	0.824207	-0.000097
1374	1.3661e+02	-14.6964	-58.869513	0.000507	5.068036	1.717097	-0.000203
1375	1.3671e+02	-14.7365	-58.962367	0.000233	2.331296	0.789865	-0.000093
1376	1.3681e+02	-14.7782	-59.091556	0.000324	3.243543	1.098942	-0.000130
1377	1.3691e+02	-14.8199	-59.200558	0.000274	2.736739	0.927232	-0.000110
1378	1.3701e+02	-14.8568	-59.374155	0.000436	4.358511	1.476703	-0.000174
1379	1.3711e+02	-14.9017	-59.458935	0.000213	2.128575	0.721181	-0.000085
1380	1.3721e+02	-14.9370	-59.608309	0.000375	3.750346	1.270652	-0.000150
1381	1.3731e+02	-14.9771	-59.693089	0.000213	2.128575	0.721181	-0.000085
1382	1.3741e+02	-15.0140	-59.838426	0.000365	3.648986	1.236310	-0.000146
1383	1.3751e+02	-15.0541	-59.983763	0.000365	3.648986	1.236310	-0.000146
1384	1.3761e+02	-15.1055	-60.116988	0.000334	3.344904	1.133284	-0.000134
1385	1.3771e+02	-15.1391	-60.254251	0.000345	3.446264	1.167626	-0.000138
1386	1.3781e+02	-15.1664	-60.379402	0.000314	3.142182	1.064600	-0.000126
1387	1.3791e+02	-15.2145	-60.500516	0.000304	3.040821	1.030258	-0.000122
1388	1.3801e+02	-15.2514	-60.573185	0.000182	1.824493	0.618155	-0.000073
1389	1.3811e+02	-15.2948	-60.738707	0.000416	4.155789	1.408020	-0.000166
1390	1.3821e+02	-15.3317	-60.839636	0.000253	2.534018	0.858548	-0.000101
1391	1.3831e+02	-15.3734	-61.009195	0.000426	4.257150	1.442361	-0.000170
1392	1.3840e+02	-15.4215	-61.154532	0.000365	3.648986	1.236310	-0.000146
1393	1.3850e+02	-15.4504	-61.247386	0.000233	2.331296	0.789865	-0.000093
1394	1.3860e+02	-15.4905	-61.344278	0.000243	2.432657	0.824207	-0.000097
1395	1.3870e+02	-15.5354	-61.517874	0.000436	4.358511	1.476703	-0.000174
1396	1.3880e+02	-15.5771	-61.590543	0.000182	1.824493	0.618155	-0.000073
1397	1.3890e+02	-15.6028	-61.719731	0.000324	3.243543	1.098942	-0.000130
1398	1.3900e+02	-15.6461	-61.824697	0.000264	2.635379	0.892890	-0.000105
1399	1.3910e+02	-15.6910	-61.994256	0.000426	4.257150	1.442361	-0.000170
1400	1.3920e+02	-15.7375	-62.095185	0.000253	2.534018	0.858548	-0.000101
1401	1.3930e+02	-15.7776	-62.216299	0.000304	3.040821	1.030258	-0.000122
1402	1.3940e+02	-15.8145	-62.377784	0.000405	4.054429	1.373678	-0.000162
1403	1.3950e+02	-15.8434	-62.511010	0.000334	3.344904	1.133284	-0.000134
1404	1.3960e+02	-15.9012	-62.595790	0.000213	2.128575	0.721181	-0.000085
1405	1.3970e+02	-15.9300	-62.765349	0.000426	4.257150	1.442361	-0.000170
1406	1.3980e+02	-15.9669	-62.850129	0.000213	2.128575	0.721181	-0.000085
1407	1.3990e+02	-16.0102	-63.019689	0.000426	4.257150	1.442361	-0.000170
1408	1.4000e+02	-16.0487	-63.116580	0.000243	2.432657	0.824207	-0.000097
1409	1.4010e+02	-16.0937	-63.261917	0.000365	3.648986	1.236310	-0.000146
1410	1.4020e+02	-16.1306	-63.354771	0.000233	2.331296	0.789865	-0.000093
1411	1.4029e+02	-16.1642	-63.455700	0.000253	2.534018	0.858548	-0.000101
1412	1.4039e+02	-16.2140	-63.617185	0.000405	4.054429	1.373678	-0.000162
1413	1.4049e+02	-16.2509	-63.742336	0.000314	3.142182	1.064600	-0.000126
1414	1.4059e+02	-16.2958	-63.863450	0.000304	3.040821	1.030258	-0.000122
1415	1.4069e+02	-16.3199	-63.960341	0.000243	2.432657	0.824207	-0.000097
1416	1.4079e+02	-16.3648	-64.097604	0.000345	3.446264	1.167626	-0.000138
1417	1.4089e+02	-16.4081	-64.230830	0.000334	3.344904	1.133284	-0.000134
1418	1.4099e+02	-16.4450	-64.351944	0.000304	3.040821	1.030258	-0.000122
1419	1.4109e+02	-16.4995	-64.497281	0.000365	3.648986	1.236310	-0.000146
1420	1.4119e+02	-16.5364	-64.626469	0.000324	3.243543	1.098942	-0.000130
1421	1.4129e+02	-16.5733	-64.783917	0.000395	3.953068	1.339336	-0.000158
1422	1.4139e+02	-16.6102	-64.896957	0.000284	2.838100	0.961574	-0.000114
1423	1.4149e+02	-16.6551	-65.005960	0.000274	2.736739	0.927232	-0.000110
1424	1.4159e+02	-16.6776	-65.139185	0.000334	3.344904	1.133284	-0.000134
1425	1.4169e+02	-16.7321	-65.264336	0.000314	3.142182	1.064600	-0.000126
1426	1.4179e+02	-16.7706	-65.393525	0.000324	3.243543	1.098942	-0.000130
1427	1.4189e+02	-16.8108	-65.498490	0.000264	2.635379	0.892890	-0.000105
1428	1.4199e+02	-16.8541	-65.639790	0.000355	3.547625	1.201968	-0.000142
1429	1.4209e+02	-16.8926	-65.789164	0.000375	3.750346	1.270652	-0.000150
1430	1.4219e+02	-16.9279	-65.877981	0.000223	2.229936	0.755523	-0.000089
1431	1.4228e+02	-16.9696	-66.035429	0.000395	3.953068	1.339336	-0.000158
1432	1.4238e+02	-17.0065	-66.168655	0.000334	3.344904	1.133284	-0.000134
1433	1.4248e+02	-17.0418	-66.305917	0.000345	3.446264	1.167626	-0.000138
1434	1.4258e+02	-17.0819	-66.370512	0.000162	1.621771	0.549471	-0.000065
1435	1.4268e+02	-17.1316	-66.507774	0.000345	3.446264	1.167626	-0.000138
1436	1.4278e+02	-17.1701	-66.677334	0.000426	4.257150	1.442361	-0.000170
1437	1.4288e+02	-17.2150	-66.838819	0.000405	4.054429	1.373678	-0.000162
1438	1.4298e+02	-17.2455	-66.923599	0.000213	2.128575	0.721181	-0.000085
1439	1.4308e+02	-17.2888	-67.097196	0.000436	4.358511	1.476703	-0.000174
1440	1.4318e+02	-17.3193	-67.137567	0.000101	1.013607	0.343419	-0.000041
1441	1.4328e+02	-17.3594	-67.331350	0.000487	4.865314	1.648413	-0.000195
1442	1.4338e+02	-17.4107	-67.436315	0.000264	2.635379	0.892890	-0.000105
1443	1.4348e+02	-17.4541	-67.601838	0.000416	4.155789	1.408020	-0.000166
1444	1.4358e+02	-17.4877	-67.690655	0.000223	2.229936	0.755523	-0.000089
1445	1.4368e+02	-17.5278	-67.860215	0.000426	4.257150	1.442361	-0.000170
1446	1.4378e+02	-17.5647	-67.989403	0.000324	3.243543	1.098942	-0.000130
1447	1.4388e+02	-17.5984	-68.138777	0.000375	3.750346	1.270652	-0.000150
1448	1.4398e+02	-17.6498	-68.207408	0.000172	1.723132	0.583813	-0.000069
1449	1.4408e+02	-17.6899	-68.397154	0.000476	4.763954	1.614071	-0.000191
1450	1.4418e+02	-17.7332	-68.490008	0.000233	2.331296	0.789865	-0.000093
1451	1.4428e+02	-17.7637	-68.667642	0.000446	4.459871	1.511045	-0.000179
1452	1.4437e+02	-17.8054	-68.780682	0.000284	2.838100	0.961574	-0.000114
1453	1.4447e+02	-17.8423	-68.889684	0.000274	2.736739	0.927232	-0.000110
1454	1.4457e+02	-17.8840	-69.006761	0.000294	2.939461	0.995916	-0.000118
1455	1.4467e+02	-17.9209	-69.172284	0.000416	4.155789	1.408020	-0.000166
1456	1.4477e+02	-17.9610	-69.313583	0.000355	3.547625	1.201968	-0.000142
1457	1.4487e+02	-18.0091	-69.471032	0.000395	3.953068	1.339336	-0.000158
1458	1.4497e+02	-18.0476	-69.584072	0.000284	2.838100	0.961574	-0.000114
1459	1.4507e+02	-18.0893	-69.672889	0.000223	2.229936	0.755523	-0.000089
1460	1.4517e+02	-18.1262	-69.834374	0.000405	4.054429	1.373678	-0.000162
1461	1.4527e+02	-18.1679	-70.003934	0.000426	4.257150	1.442361	-0.000170
1462	1.4537e+02	-18.2096	-70.157345	0.000385	3.851707	1.304994	-0.000154
1463	1.4547e+02	-18.2449	-70.286533	0.000324	3.243543	1.098942	-0.000130
1464	1.4557e+02	-18.2818	-70.403610	0.000294	2.939461	0.995916	-0.000118
1465	1.4567e+02	-18.3300	-70.516650	0.000284	2.838100	0.961574	-0.000114
1466	1.4577e+02	-18.3669	-70.718507	0.000507	5.068036	1.717097	-0.000203
1467	1.4587e+02	-18.4006	-70.819435	0.000253	2.534018	0.858548	-0.000101
1468	1.4597e+02	-18.4519	-70.944586	0.000314	3.142182	1.064600	-0.000126
1469	1.4607e+02	-18.4808	-71.081849	0.000345	3.446264	1.167626	-0.000138
1470	1.4617e+02	-18.5321	-71.247372	0.000416	4.155789	1.408020	-0.000166
1471	1.4626e+02	-18.5642	-71.380597	0.000334	3.344904	1.133284	-0.000134
1472	1.4636e+02	-18.6027	-71.457303	0.000193	1.925854	0.652497	-0.000077
1473	1.4646e+02	-18.6444	-71.659159	0.000507	5.068036	1.717097	-0.000203
1474	1.4656e+02	-18.6845	-71.780273	0.000304	3.040821	1.030258	-0.000122
1475	1.4666e+02	-18.7214	-71.913499	0.000334	3.344904	1.133284	-0.000134
1476	1.4676e+02	-18.7631	-72.087096	0.000436	4.358511	1.476703	-0.000174
1477	1.4686e+02	-18.8096	-72.228395	0.000355	3.547625	1.201968	-0.000142
1478	1.4696e+02	-18.8369	-72.349510	0.000304	3.040821	1.030258	-0.000122
1479	1.4706e+02	-18.8850	-72.482735	0.000334	3.344904	1.133284	-0.000134
1480	1.4716e+02	-18.9267	-72.628072	0.000365	3.648986	1.236310	-0.000146
1481	1.4726e+02	-18.9556	-72.769372	0.000355	3.547625	1.201968	-0.000142
1482	1.4736e+02	-19.0150	-72.922783	0.000385	3.851707	1.304994	-0.000154
1483	1.4746e+02	-19.0438	-73.043897	0.000304	3.040821	1.030258	-0.000122
1484	1.4756e+02	-19.0823	-73.197308	0.000385	3.851707	1.304994	-0.000154
1485	1.4766e+02	-19.1192	-73.294199	0.000243	2.432657	0.824207	-0.000097
1486	1.4776e+02	-19.1658	-73.492019	0.000497	4.966675	1.682755	-0.000199
1487	1.4786e+02	-19.2075	-73.605059	0.000284	2.838100	0.961574	-0.000114
1488	1.4796e+02	-19.2283	-73.770581	0.000416	4.155789	1.408020	-0.000166
1489	1.4806e+02	-19.2797	-73.915918	0.000365	3.648986	1.236310	-0.000146
1490	1.4816e+02	-19.3198	-74.093552	0.000446	4.459871	1.511045	-0.000179
1491	1.4825e+02	-19.3567	-74.222741	0.000324	3.243543	1.098942	-0.000130
1492	1.4835e+02	-19.4016	-74.351929	0.000324	3.243543	1.098942	-0.000130
1493	1.4845e+02	-19.4449	-74.485154	0.000334	3.344904	1.133284	-0.000134
1494	1.4855e+02	-19.4738	-74.715271	0.000578	5.777561	1.957491	-0.000231
1495	1.4865e+02	-19.5219	-74.812162	0.000243	2.432657	0.824207	-0.000097
1496	1.4875e+02	-19.5572	-74.949425	0.000345	3.446264	1.167626	-0.000138
1497	1.4885e+02	-19.6037	-75.114948	0.000416	4.155789	1.408020	-0.000166
1498	1.4895e+02	-19.6374	-75.240099	0.000314	3.142182	1.064600	-0.000126
1499	1.4905e+02	-19.6887	-75.421770	0.000456	4.561232	1.545387	-0.000183
1500	1.4915e+02	-19.7160	-75.567107	0.000365	3.648986	1.236310	-0.000146
1501	1.4925e+02	-19.7625	-75.720518	0.000385	3.851707	1.304994	-0.000154
1502	1.4935e+02	-19.7898	-75.845669	0.000314	3.142182	1.064600	-0.000126
1503	1.4945e+02	-19.8428	-76.015229	0.000426	4.257150	1.442361	-0.000170
1504	1.4955e+02	-19.8684	-76.164603	0.000375	3.750346	1.270652	-0.000150
1505	1.4965e+02	-19.9133	-76.273605	0.000274	2.736739	0.927232	-0.000110
1506	1.4975e+02	-19.9663	-76.499685	0.000568	5.676200	1.923149	-0.000227
1507	1.4985e+02	-19.9968	-76.624836	0.000314	3.142182	1.064600	-0.000126
1508	1.4995e+02	-19.9567	-76.624836	0.000000	0.000000	0.000000	0.000000
1509	1.5005e+02	-19.9230	-76.564279	0.000152	1.520411	0.515129	0.000061
1510	1.5015e+02	-19.8764	-76.479499	0.000213	2.128575	0.721181	0.000085
1511	1.5025e+02	-19.8379	-76.455277	0.000061	0.608164	0.206052	0.000024
1512	1.5034e+02	-19.8043	-76.414905	0.000101	1.013607	0.343419	0.000041
1513	1.5044e+02	-19.7513	-76.370497	0.000111	1.114968	0.377761	0.000045
1514	1.5054e+02	-19.7096	-76.354348	0.000041	0.405443	0.137368	0.000016
1515	1.5064e+02	-19.6759	-76.249383	0.000264	2.635379	0.892890	0.000105
1516	1.5074e+02	-19.6326	-76.221123	0.000071	0.709525	0.240394	0.000028
1517	1.5084e+02	-19.5973	-76.180751	0.000101	1.013607	0.343419	0.000041
1518	1.5094e+02	-19.5620	-76.116157	0.000162	1.621771	0.549471	0.000065
1519	1.5104e+02	-19.5123	-76.043489	0.000182	1.824493	0.618155	0.000073
1520	1.5114e+02	-19.4770	-75.982932	0.000152	1.520411	0.515129	0.000061
1521	1.5124e+02	-19.4401	-75.926412	0.000142	1.419050	0.480787	0.000057
1522	1.5134e+02	-19.4016	-75.853743	0.000182	1.824493	0.618155	0.000073
1523	1.5144e+02	-19.3647	-75.825483	0.000071	0.709525	0.240394	0.000028
1524	1.5154e+02	-19.3182	-75.768964	0.000142	1.419050	0.480787	0.000057
1525	1.5164e+02	-19.2813	-75.704369	0.000162	1.621771	0.549471	0.000065
1526	1.5174e+02	-19.2460	-75.603441	0.000253	2.534018	0.858548	0.000101
1527	1.5184e+02	-19.1995	-75.538847	0.000162	1.621771	0.549471	0.000065
1528	1.5194e+02	-19.1594	-75.454067	0.000213	2.128575	0.721181	0.000085
1529	1.5204e+02	-19.1128	-75.413696	0.000101	1.013607	0.343419	0.000041
1530	1.5214e+02	-19.0791	-75.349101	0.000162	1.621771	0.549471	0.000065
1531	1.5224e+02	-19.0406	-75.232024	0.000294	2.939461	0.995916	0.000118
1532	1.5233e+02	-18.9925	-75.195690	0.000091	0.912246	0.309077	0.000037
1533	1.5243e+02	-18.9556	-75.118985	0.000193	1.925854	0.652497	0.000077
1534	1.5253e+02	-18.9203	-75.026131	0.000233	2.331296	0.789865	0.000093
1535	1.5263e+02	-18.8850	-75.001908	0.000061	0.608164	0.206052	0.000024
1536	1.5273e+02	-18.8449	-74.900979	0.000253	2.534018	0.858548	0.000101
1537	1.5283e+02	-18.8048	-74.791977	0.000274	2.736739	0.927232	0.000110
1538	1.5293e+02	-18.7647	-74.715271	0.000193	1.925854	0.652497	0.000077
1539	1.5303e+02	-18.7246	-74.638566	0.000193	1.925854	0.652497	0.000077
1540	1.5313e+02	-18.6733	-74.610306	0.000071	0.709525	0.240394	0.000028
1541	1.5323e+02	-18.6396	-74.509377	0.000253	2.534018	0.858548	0.000101
1542	1.5333e+02	-18.6011	-74.416523	0.000233	2.331296	0.789865	0.000093
1543	1.5343e+02	-18.5658	-74.339817	0.000193	1.925854	0.652497	0.000077
1544	1.5353e+02	-18.5225	-74.222741	0.000294	2.939461	0.995916	0.000118
1545	1.5363e+02	-18.4824	-74.182369	0.000101	1.013607	0.343419	0.000041
1546	1.5373e+02	-18.4471	-74.158146	0.000061	0.608164	0.206052	0.000024
1547	1.5383e+02	-18.4070	-74.032995	0.000314	3.142182	1.064600	0.000126
1548	1.5393e+02	-18.3749	-73.980512	0.000132	1.317689	0.446445	0.000053
1549	1.5403e+02	-18.3235	-73.859398	0.000304	3.040821	1.030258	0.000122
1550	1.5413e+02	-18.2850	-73.734247	0.000314	3.142182	1.064600	0.000126
1551	1.5422e+02	-18.2401	-73.657542	0.000193	1.925854	0.652497	0.000077
1552	1.5432e+02	-18.1952	-73.580836	0.000193	1.925854	0.652497	0.000077
1553	1.5442e+02	-18.1711	-73.516242	0.000162	1.621771	0.549471	0.000065
1554	1.5452e+02	-18.1214	-73.439536	0.000193	1.925854	0.652497	0.000077
1555	1.5462e+02	-18.0781	-73.366868	0.000182	1.824493	0.618155	0.000073
1556	1.5472e+02	-18.0460	-73.253828	0.000284	2.838100	0.961574	0.000114
1557	1.5482e+02	-18.0011	-73.177122	0.000193	1.925854	0.652497	0.000077
1558	1.5492e+02	-17.9658	-73.108491	0.000172	1.723132	0.583813	0.000069
1559	1.5502e+02	-17.9289	-72.971228	0.000345	3.446264	1.167626	0.000138
1560	1.5512e+02	-17.8872	-72.866263	0.000264	2.635379	0.892890	0.000105
1561	1.5522e+02	-17.8407	-72.833966	0.000081	0.810886	0.274736	0.000032
1562	1.5532e+02	-17.8118	-72.729000	0.000264	2.635379	0.892890	0.000105
1563	1.5542e+02	-17.7701	-72.599812	0.000324	3.243543	1.098942	0.000130
1564	1.5552e+02	-17.7220	-72.506958	0.000233	2.331296	0.789865	0.000093
1565	1.5562e+02	-17.6883	-72.422178	0.000213	2.128575	0.721181	0.000085
1566	1.5572e+02	-17.6434	-72.373732	0.000122	1.216329	0.412103	0.000049
1567	1.5582e+02	-17.5968	-72.248581	0.000314	3.142182	1.064600	0.000126
1568	1.5592e+02	-17.5712	-72.147653	0.000253	2.534018	0.858548	0.000101
1569	1.5602e+02	-17.5230	-72.087096	0.000152	1.520411	0.515129	0.000061
1570	1.5612e+02	-17.4861	-71.986167	0.000253	2.534018	0.858548	0.000101
1571	1.5622e+02	-17.4428	-71.897350	0.000223	2.229936	0.755523	0.000089
1572	1.5631e+02	-17.4027	-71.796422	0.000253	2.534018	0.858548	0.000101
1573	1.5641e+02	-17.3706	-71.671271	0.000314	3.142182	1.064600	0.000126
1574	1.5651e+02	-17.3209	-71.622825	0.000122	1.216329	0.412103	0.000049
1575	1.5661e+02	-17.2904	-71.485563	0.000345	3.446264	1.167626	0.000138
1576	1.5671e+02	-17.2535	-71.429043	0.000142	1.419050	0.480787	0.000057
1577	1.5681e+02	-17.2070	-71.332151	0.000243	2.432657	0.824207	0.000097
1578	1.5691e+02	-17.1749	-71.227186	0.000264	2.635379	0.892890	0.000105
1579	1.5701e+02	-17.1220	-71.142406	0.000213	2.128575	0.721181	0.000085
1580	1.5711e+02	-17.0867	-71.033403	0.000274	2.736739	0.927232	0.000110
1581	1.5721e+02	-17.0498	-70.972846	0.000152	1.520411	0.515129	0.000061
1582	1.5731e+02	-17.0113	-70.839621	0.000334	3.344904	1.133284	0.000134
1583	1.5741e+02	-16.9712	-70.750804	0.000223	2.229936	0.755523	0.000089
1584	1.5751e+02	-16.9423	-70.666024	0.000213	2.128575	0.721181	0.000085
1585	1.5761e+02	-16.8862	-70.532798	0.000334	3.344904	1.133284	0.000134
1586	1.5771e+02	-16.8493	-70.464167	0.000172	1.723132	0.583813	0.000069
1587	1.5781e+02	-16.8124	-70.351127	0.000284	2.838100	0.961574	0.000114
1588	1.5791e+02	-16.7723	-70.242125	0.000274	2.736739	0.927232	0.000110
1589	1.5801e+02	-16.7354	-70.181568	0.000152	1.520411	0.515129	0.000061
1590	1.5811e+02	-16.6856	-70.052379	0.000324	3.243543	1.098942	0.000130
1591	1.5821e+02	-16.6439	-69.931265	0.000304	3.040821	1.030258	0.000122
1592	1.5830e+02	-16.6038	-69.890894	0.000101	1.013607	0.343419	0.000041
1593	1.5840e+02	-16.5701	-69.773817	0.000294	2.939461	0.995916	0.000118
1594	1.5850e+02	-16.5252	-69.616369	0.000395	3.953068	1.339336	0.000158
1595	1.5860e+02	-16.4883	-69.567923	0.000122	1.216329	0.412103	0.000049
1596	1.5870e+02	-16.4594	-69.446809	0.000304	3.040821	1.030258	0.000122
1597	1.5880e+02	-16.4161	-69.394326	0.000132	1.317689	0.446445	0.000053
1598	1.5890e+02	-16.3696	-69.285324	0.000274	2.736739	0.927232	0.000110
1599	1.5900e+02	-16.3327	-69.144024	0.000355	3.547625	1.201968	0.000142
1600	1.5910e+02	-16.2926	-69.063281	0.000203	2.027214	0.686839	0.000081
1601	1.5920e+02	-16.2573	-68.990613	0.000182	1.824493	0.618155	0.000073
1602	1.5930e+02	-16.2108	-68.897759	0.000233	2.331296	0.789865	0.000093
1603	1.5940e+02	-16.1723	-68.792793	0.000264	2.635379	0.892890	0.000105
1604	1.5950e+02	-16.1354	-68.708013	0.000213	2.128575	0.721181	0.000085
1605	1.5960e+02	-16.1049	-68.566713	0.000355	3.547625	1.201968	0.000142
1606	1.5970e+02	-16.0487	-68.506156	0.000152	1.520411	0.515129	0.000061
1607	1.5980e+02	-16.0054	-68.421376	0.000213	2.128575	0.721181	0.000085
1608	1.5990e+02	-15.9766	-68.276040	0.000365	3.648986	1.236310	0.000146
1609	1.6000e+02	-15.9252	-68.191260	0.000213	2.128575	0.721181	0.000085
1610	1.6010e+02	-15.8996	-68.122628	0.000172	1.723132	0.583813	0.000069
1611	1.6019e+02	-15.8610	-68.009589	0.000284	2.838100	0.961574	0.000114
1612	1.6029e+02	-15.8081	-67.876363	0.000334	3.344904	1.133284	0.000134
1613	1.6039e+02	-15.7728	-67.787546	0.000223	2.229936	0.755523	0.000089
1614	1.6049e+02	-15.7407	-67.718915	0.000172	1.723132	0.583813	0.000069
1615	1.6059e+02	-15.6942	-67.569541	0.000375	3.750346	1.270652	0.000150
1616	1.6069e+02	-15.6525	-67.488798	0.000203	2.027214	0.686839	0.000081
1617	1.6079e+02	-15.6204	-67.399981	0.000223	2.229936	0.755523	0.000089
1618	1.6089e+02	-15.5771	-67.282904	0.000294	2.939461	0.995916	0.000118
1619	1.6099e+02	-15.5450	-67.202161	0.000203	2.027214	0.686839	0.000081
1620	1.6109e+02	-15.5017	-67.064899	0.000345	3.446264	1.167626	0.000138
1621	1.6119e+02	-15.4552	-67.012416	0.000132	1.317689	0.446445	0.000053
1622	1.6129e+02	-15.4183	-66.871116	0.000355	3.547625	1.201968	0.000142
1623	1.6139e+02	-15.3734	-66.733854	0.000345	3.446264	1.167626	0.000138
1624	1.6149e+02	-15.3349	-66.697520	0.000091	0.912246	0.309077	0.000037
1625	1.6159e+02	-15.2867	-66.568331	0.000324	3.243543	1.098942	0.000130
1626	1.6169e+02	-15.2546	-66.459329	0.000274	2.736739	0.927232	0.000110
1627	1.6179e+02	-15.2161	-66.366474	0.000233	2.331296	0.789865	0.000093
1628	1.6189e+02	-15.1728	-66.261509	0.000264	2.635379	0.892890	0.000105
1629	1.6199e+02	-15.1311	-66.168655	0.000233	2.331296	0.789865	0.000093
1630	1.6209e+02	-15.0878	-66.091949	0.000193	1.925854	0.652497	0.000077
1631	1.6219e+02	-15.0573	-65.986984	0.000264	2.635379	0.892890	0.000105
1632	1.6228e+02	-15.0140	-65.869907	0.000294	2.939461	0.995916	0.000118
1633	1.6238e+02	-14.9723	-65.764941	0.000264	2.635379	0.892890	0.000105
1634	1.6248e+02	-14.9370	-65.655939	0.000274	2.736739	0.927232	0.000110
1635	1.6258e+02	-14.8857	-65.571159	0.000213	2.128575	0.721181	0.000085
1636	1.6268e+02	-14.8632	-65.482342	0.000223	2.229936	0.755523	0.000089
1637	1.6278e+02	-14.8279	-65.381413	0.000253	2.534018	0.858548	0.000101
1638	1.6288e+02	-14.7766	-65.248188	0.000334	3.344904	1.133284	0.000134
1639	1.6298e+02	-14.7285	-65.106888	0.000355	3.547625	1.201968	0.000142
1640	1.6308e+02	-14.7012	-65.038257	0.000172	1.723132	0.583813	0.000069
1641	1.6318e+02	-14.6579	-64.909068	0.000324	3.243543	1.098942	0.000130
1642	1.6328e+02	-14.6178	-64.824289	0.000213	2.128575	0.721181	0.000085
1643	1.6338e+02	-14.5696	-64.707212	0.000294	2.939461	0.995916	0.000118
1644	1.6348e+02	-14.5520	-64.610320	0.000243	2.432657	0.824207	0.000097
1645	1.6358e+02	-14.5039	-64.501318	0.000274	2.736739	0.927232	0.000110
1646	1.6368e+02	-14.4638	-64.396352	0.000264	2.635379	0.892890	0.000105
1647	1.6378e+02	-14.4188	-64.267164	0.000324	3.243543	1.098942	0.000130
1648	1.6388e+02	-14.3723	-64.222755	0.000111	1.114968	0.377761	0.000045
1649	1.6398e+02	-14.3322	-64.089530	0.000334	3.344904	1.133284	0.000134
1650	1.6408e+02	-14.3049	-63.952267	0.000345	3.446264	1.167626	0.000138
1651	1.6418e+02	-14.2632	-63.879599	0.000182	1.824493	0.618155	0.000073
1652	1.6427e+02	-14.2151	-63.782708	0.000243	2.432657	0.824207	0.000097
1653	1.6437e+02	-14.1798	-63.685816	0.000243	2.432657	0.824207	0.000097
1654	1.6447e+02	-14.1397	-63.568739	0.000294	2.939461	0.995916	0.000118
1655	1.6457e+02	-14.1044	-63.447625	0.000304	3.040821	1.030258	0.000122
1656	1.6467e+02	-14.0499	-63.334585	0.000284	2.838100	0.961574	0.000114
1657	1.6477e+02	-14.0194	-63.229620	0.000264	2.635379	0.892890	0.000105
1658	1.6487e+02	-13.9825	-63.144840	0.000213	2.128575	0.721181	0.000085
1659	1.6497e+02	-13.9456	-63.043912	0.000253	2.534018	0.858548	0.000101
1660	1.6507e+02	-13.8991	-62.963169	0.000203	2.027214	0.686839	0.000081
1661	1.6517e+02	-13.8542	-62.797646	0.000416	4.155789	1.408020	0.000166
1662	1.6527e+02	-13.8173	-62.745164	0.000132	1.317689	0.446445	0.000053
1663	1.6537e+02	-13.7820	-62.591752	0.000385	3.851707	1.304994	0.000154
1664	1.6547e+02	-13.7467	-62.498898	0.000233	2.331296	0.789865	0.000093
1665	1.6557e+02	-13.7001	-62.406044	0.000233	2.331296	0.789865	0.000093
1666	1.6567e+02	-13.6633	-62.240522	0.000416	4.155789	1.408020	0.000166
1667	1.6577e+02	-13.6247	-62.155742	0.000213	2.128575	0.721181	0.000085
1668	1.6587e+02	-13.5830	-62.087111	0.000172	1.723132	0.583813	0.000069
1669	1.6597e+02	-13.5429	-61.953885	0.000334	3.344904	1.133284	0.000134
1670	1.6607e+02	-13.4948	-61.848920	0.000264	2.635379	0.892890	0.000105
1671	1.6616e+02	-13.4611	-61.707620	0.000355	3.547625	1.201968	0.000142
1672	1.6626e+02	-13.4210	-61.630914	0.000193	1.925854	0.652497	0.000077
1673	1.6636e+02	-13.3825	-61.485577	0.000365	3.648986	1.236310	0.000146
1674	1.6646e+02	-13.3472	-61.420983	0.000162	1.621771	0.549471	0.000065
1675	1.6656e+02	-13.2943	-61.303906	0.000294	2.939461	0.995916	0.000118
1676	1.6666e+02	-13.2574	-61.194904	0.000274	2.736739	0.927232	0.000110
1677	1.6676e+02	-13.2269	-61.106087	0.000223	2.229936	0.755523	0.000089
1678	1.6686e+02	-13.1788	-60.976898	0.000324	3.243543	1.098942	0.000130
1679	1.6696e+02	-13.1435	-60.859821	0.000294	2.939461	0.995916	0.000118
1680	1.6706e+02	-13.1162	-60.714484	0.000365	3.648986	1.236310	0.000146
1681	1.6716e+02	-13.0681	-60.629705	0.000213	2.128575	0.721181	0.000085
1682	1.6726e+02	-13.0280	-60.557036	0.000182	1.824493	0.618155	0.000073
1683	1.6736e+02	-12.9863	-60.395551	0.000405	4.054429	1.373678	0.000162
1684	1.6746e+02	-12.9478	-60.274437	0.000304	3.040821	1.030258	0.000122
1685	1.6756e+02	-12.9028	-60.193694	0.000203	2.027214	0.686839	0.000081
1686	1.6766e+02	-12.8692	-60.040283	0.000385	3.851707	1.304994	0.000154
1687	1.6776e+02	-12.8258	-59.923206	0.000294	2.939461	0.995916	0.000118
1688	1.6786e+02	-12.7922	-59.842463	0.000203	2.027214	0.686839	0.000081
1689	1.6796e+02	-12.7472	-59.676940	0.000416	4.155789	1.408020	0.000166
1690	1.6806e+02	-12.7039	-59.624458	0.000132	1.317689	0.446445	0.000053
1691	1.6816e+02	-12.6734	-59.527566	0.000243	2.432657	0.824207	0.000097
1692	1.6825e+02	-12.6269	-59.349932	0.000446	4.459871	1.511045	0.000179
1693	1.6835e+02	-12.5964	-59.224781	0.000314	3.142182	1.064600	0.000126
1694	1.6845e+02	-12.5371	-59.160187	0.000162	1.621771	0.549471	0.000065
1695	1.6855e+02	-12.5034	-59.002739	0.000395	3.953068	1.339336	0.000158
1696	1.6865e+02	-12.4633	-58.889699	0.000284	2.838100	0.961574	0.000114
1697	1.6875e+02	-12.4296	-58.800882	0.000223	2.229936	0.755523	0.000089
1698	1.6885e+02	-12.3863	-58.675731	0.000314	3.142182	1.064600	0.000126
1699	1.6895e+02	-12.3478	-58.554617	0.000304	3.040821	1.030258	0.000122
1700	1.6905e+02	-12.3157	-58.429466	0.000314	3.142182	1.064600	0.000126
1701	1.6915e+02	-12.2660	-58.288166	0.000355	3.547625	1.201968	0.000142
1702	1.6925e+02	-12.2323	-58.183200	0.000264	2.635379	0.892890	0.000105
1703	1.6935e+02	-12.1841	-58.094383	0.000223	2.229936	0.755523	0.000089
1704	1.6945e+02	-12.1473	-57.904638	0.000476	4.763954	1.614071	0.000191
1705	1.6955e+02	-12.1168	-57.815821	0.000223	2.229936	0.755523	0.000089
1706	1.6965e+02	-12.0638	-57.706818	0.000274	2.736739	0.927232	0.000110
1707	1.6975e+02	-12.0301	-57.581667	0.000314	3.142182	1.064600	0.000126
1708	1.6985e+02	-11.9820	-57.456516	0.000314	3.142182	1.064600	0.000126
1709	1.6995e+02	-11.9483	-57.315216	0.000355	3.547625	1.201968	0.000142
1710	1.7005e+02	-11.9066	-57.222362	0.000233	2.331296	0.789865	0.000093
1711	1.7015e+02	-11.8713	-57.097211	0.000314	3.142182	1.064600	0.000126
1712	1.7024e+02	-11.8152	-57.004357	0.000233	2.331296	0.789865	0.000093
1713	1.7034e+02	-11.7879	-56.846908	0.000395	3.953068	1.339336	0.000158
1714	1.7044e+02	-11.7478	-56.709646	0.000345	3.446264	1.167626	0.000138
1715	1.7054e+02	-11.7173	-56.645052	0.000162	1.621771	0.549471	0.000065
1716	1.7064e+02	-11.6692	-56.487603	0.000395	3.953068	1.339336	0.000158
1717	1.7074e+02	-11.6243	-56.374563	0.000284	2.838100	0.961574	0.000114
1718	1.7084e+02	-11.5906	-56.253449	0.000304	3.040821	1.030258	0.000122
1719	1.7094e+02	-11.5489	-56.144447	0.000274	2.736739	0.927232	0.000110
1720	1.7104e+02	-11.5152	-55.995073	0.000375	3.750346	1.270652	0.000150
1721	1.7114e+02	-11.4719	-55.902219	0.000233	2.331296	0.789865	0.000093
1722	1.7124e+02	-11.4286	-55.748807	0.000385	3.851707	1.304994	0.000154
1723	1.7134e+02	-11.3884	-55.651916	0.000243	2.432657	0.824207	0.000097
1724	1.7144e+02	-11.3532	-55.514654	0.000345	3.446264	1.167626	0.000138
1725	1.7154e+02	-11.3147	-55.377391	0.000345	3.446264	1.167626	0.000138
1726	1.7164e+02	-11.2697	-55.276463	0.000253	2.534018	0.858548	0.000101
1727	1.7174e+02	-11.2312	-55.135163	0.000355	3.547625	1.201968	0.000142
1728	1.7184e+02	-11.1927	-55.030197	0.000264	2.635379	0.892890	0.000105
1729	1.7194e+02	-11.1478	-54.840452	0.000476	4.763954	1.614071	0.000191
1730	1.7204e+02	-11.1077	-54.743561	0.000243	2.432657	0.824207	0.000097
1731	1.7213e+02	-11.0820	-54.638595	0.000264	2.635379	0.892890	0.000105
1732	1.7223e+02	-11.0387	-54.501332	0.000345	3.446264	1.167626	0.000138
1733	1.7233e+02	-10.9922	-54.384256	0.000294	2.939461	0.995916	0.000118
1734	1.7243e+02	-10.9489	-54.226807	0.000395	3.953068	1.339336	0.000158
1735	1.7253e+02	-10.9072	-54.101656	0.000314	3.142182	1.064600	0.000126
1736	1.7263e+02	-10.8815	-53.964393	0.000345	3.446264	1.167626	0.000138
1737	1.7273e+02	-10.8366	-53.859428	0.000264	2.635379	0.892890	0.000105
1738	1.7283e+02	-10.7869	-53.685831	0.000436	4.358511	1.476703	0.000174
1739	1.7293e+02	-10.7532	-53.597014	0.000223	2.229936	0.755523	0.000089
1740	1.7303e+02	-10.7179	-53.427454	0.000426	4.257150	1.442361	0.000170
1741	1.7313e+02	-10.6714	-53.366897	0.000152	1.520411	0.515129	0.000061
1742	1.7323e+02	-10.6377	-53.213486	0.000385	3.851707	1.304994	0.000154
1743	1.7333e+02	-10.5911	-53.072186	0.000355	3.547625	1.201968	0.000142
1744	1.7343e+02	-10.5542	-52.947035	0.000314	3.142182	1.064600	0.000126
1745	1.7353e+02	-10.5190	-52.829958	0.000294	2.939461	0.995916	0.000118
1746	1.7363e+02	-10.4756	-52.700770	0.000324	3.243543	1.098942	0.000130
1747	1.7373e+02	-10.4323	-52.571582	0.000324	3.243543	1.098942	0.000130
1748	1.7383e+02	-10.3970	-52.430282	0.000355	3.547625	1.201968	0.000142
1749	1.7393e+02	-10.3569	-52.297056	0.000334	3.344904	1.133284	0.000134
1750	1.7403e+02	-10.3184	-52.179979	0.000294	2.939461	0.995916	0.000118
1751	1.7413e+02	-10.2767	-52.054828	0.000314	3.142182	1.064600	0.000126
1752	1.7422e+02	-10.2334	-51.893343	0.000405	4.054429	1.373678	0.000162
1753	1.7432e+02	-10.1885	-51.760117	0.000334	3.344904	1.133284	0.000134
1754	1.7442e+02	-10.1532	-51.659189	0.000253	2.534018	0.858548	0.000101
1755	1.7452e+02	-10.1227	-51.505778	0.000385	3.851707	1.304994	0.000154
1756	1.7462e+02	-10.0714	-51.392738	0.000284	2.838100	0.961574	0.000114
1757	1.7472e+02	-10.0441	-51.251438	0.000355	3.547625	1.201968	0.000142
1758	1.7482e+02	-9.9944	-51.098027	0.000385	3.851707	1.304994	0.000154
1759	1.7492e+02	-9.9575	-50.956727	0.000355	3.547625	1.201968	0.000142
1760	1.7502e+02	-9.9158	-50.807353	0.000375	3.750346	1.270652	0.000150
1761	1.7512e+02	-9.8821	-50.698351	0.000274	2.736739	0.927232	0.000110
1762	1.7522e+02	-9.8323	-50.585311	0.000284	2.838100	0.961574	0.000114
1763	1.7532e+02	-9.8003	-50.456122	0.000324	3.243543	1.098942	0.000130
1764	1.7542e+02	-9.7521	-50.339046	0.000294	2.939461	0.995916	0.000118
1765	1.7552e+02	-9.7249	-50.205820	0.000334	3.344904	1.133284	0.000134
1766	1.7562e+02	-9.6751	-50.056446	0.000375	3.750346	1.270652	0.000150
1767	1.7572e+02	-9.6382	-49.898998	0.000395	3.953068	1.339336	0.000158
1768	1.7582e+02	-9.6013	-49.794032	0.000264	2.635379	0.892890	0.000105
1769	1.7592e+02	-9.5580	-49.664844	0.000324	3.243543	1.098942	0.000130
1770	1.7602e+02	-9.5179	-49.531618	0.000334	3.344904	1.133284	0.000134
1771	1.7612e+02	-9.4794	-49.386281	0.000365	3.648986	1.236310	0.000146
1772	1.7621e+02	-9.4377	-49.236907	0.000375	3.750346	1.270652	0.000150
1773	1.7631e+02	-9.4120	-49.107719	0.000324	3.243543	1.098942	0.000130
1774	1.7641e+02	-9.3591	-48.970457	0.000345	3.446264	1.167626	0.000138
1775	1.7651e+02	-9.3238	-48.877602	0.000233	2.331296	0.789865	0.000093
1776	1.7661e+02	-9.2741	-48.699968	0.000446	4.459871	1.511045	0.000179
1777	1.7671e+02	-9.2420	-48.578854	0.000304	3.040821	1.030258	0.000122
1778	1.7681e+02	-9.1987	-48.490037	0.000223	2.229936	0.755523	0.000089
1779	1.7691e+02	-9.1650	-48.332589	0.000395	3.953068	1.339336	0.000158
1780	1.7701e+02	-9.1169	-48.167066	0.000416	4.155789	1.408020	0.000166
1781	1.7711e+02	-9.0864	-48.029804	0.000345	3.446264	1.167626	0.000138
1782	1.7721e+02	-9.0399	-47.896578	0.000334	3.344904	1.133284	0.000134
1783	1.7731e+02	-9.0078	-47.759316	0.000345	3.446264	1.167626	0.000138
1784	1.7741e+02	-8.9645	-47.626090	0.000334	3.344904	1.133284	0.000134
1785	1.7751e+02	-8.9356	-47.504976	0.000304	3.040821	1.030258	0.000122
1786	1.7761e+02	-8.8714	-47.355602	0.000375	3.750346	1.270652	0.000150
1787	1.7771e+02	-8.8329	-47.242562	0.000284	2.838100	0.961574	0.000114
1788	1.7781e+02	-8.7992	-47.089151	0.000385	3.851707	1.304994	0.000154
1789	1.7791e+02	-8.7543	-46.939777	0.000375	3.750346	1.270652	0.000150
1790	1.7801e+02	-8.7206	-46.822700	0.000294	2.939461	0.995916	0.000118
1791	1.7810e+02	-8.6821	-46.628918	0.000487	4.865314	1.648413	0.000195
1792	1.7820e+02	-8.6436	-46.532027	0.000243	2.432657	0.824207	0.000097
1793	1.7830e+02	-8.5987	-46.410912	0.000304	3.040821	1.030258	0.000122
1794	1.7840e+02	-8.5618	-46.249427	0.000405	4.054429	1.373678	0.000162
1795	1.7850e+02	-8.5201	-46.112164	0.000345	3.446264	1.167626	0.000138
1796	1.7860e+02	-8.4864	-45.982976	0.000324	3.243543	1.098942	0.000130
1797	1.7870e+02	-8.4415	-45.841676	0.000355	3.547625	1.201968	0.000142
1798	1.7880e+02	-8.3998	-45.732674	0.000274	2.736739	0.927232	0.000110
1799	1.7890e+02	-8.3661	-45.599448	0.000334	3.344904	1.133284	0.000134
1800	1.7900e+02	-8.3228	-45.409703	0.000476	4.763954	1.614071	0.000191
1801	1.7910e+02	-8.2794	-45.276477	0.000334	3.344904	1.133284	0.000134
1802	1.7920e+02	-8.2474	-45.127103	0.000375	3.750346	1.270652	0.000150
1803	1.7930e+02	-8.2057	-45.026175	0.000253	2.534018	0.858548	0.000101
1804	1.7940e+02	-8.1688	-44.844504	0.000456	4.561232	1.545387	0.000183
1805	1.7950e+02	-8.1286	-44.691093	0.000385	3.851707	1.304994	0.000154
1806	1.7960e+02	-8.0821	-44.586127	0.000264	2.635379	0.892890	0.000105
1807	1.7970e+02	-8.0500	-44.436753	0.000375	3.750346	1.270652	0.000150
1808	1.7980e+02	-7.9987	-44.267193	0.000426	4.257150	1.442361	0.000170
1809	1.7990e+02	-7.9682	-44.162228	0.000264	2.635379	0.892890	0.000105
1810	1.8000e+02	-7.9249	-44.004780	0.000395	3.953068	1.339336	0.000158
1811	1.8009e+02	-7.8832	-43.855406	0.000375	3.750346	1.270652	0.000150
1812	1.8019e+02	-7.8415	-43.730254	0.000314	3.142182	1.064600	0.000126
1813	1.8029e+02	-7.8030	-43.621252	0.000274	2.736739	0.927232	0.000110
1814	1.8039e+02	-7.7693	-43.459766	0.000405	4.054429	1.373678	0.000162
1815	1.8049e+02	-7.7276	-43.326541	0.000334	3.344904	1.133284	0.000134
1816	1.8059e+02	-7.6859	-43.148907	0.000446	4.459871	1.511045	0.000179
1817	1.8069e+02	-7.6490	-42.983384	0.000416	4.155789	1.408020	0.000166
1818	1.8079e+02	-7.6089	-42.874382	0.000274	2.736739	0.927232	0.000110
1819	1.8089e+02	-7.5688	-42.725008	0.000375	3.750346	1.270652	0.000150
1820	1.8099e+02	-7.5190	-42.571596	0.000385	3.851707	1.304994	0.000154
1821	1.8109e+02	-7.4902	-42.430297	0.000355	3.547625	1.201968	0.000142
1822	1.8119e+02	-7.4549	-42.276885	0.000385	3.851707	1.304994	0.000154
1823	1.8129e+02	-7.4019	-42.147697	0.000324	3.243543	1.098942	0.000130
1824	1.8139e+02	-7.3634	-41.978137	0.000426	4.257150	1.442361	0.000170
1825	1.8149e+02	-7.3265	-41.861060	0.000294	2.939461	0.995916	0.000118
1826	1.8159e+02	-7.2928	-41.691501	0.000426	4.257150	1.442361	0.000170
1827	1.8169e+02	-7.2527	-41.582498	0.000274	2.736739	0.927232	0.000110
1828	1.8179e+02	-7.2078	-41.416976	0.000416	4.155789	1.408020	0.000166
1829	1.8189e+02	-7.1741	-41.279713	0.000345	3.446264	1.167626	0.000138
1830	1.8199e+02	-7.1356	-41.146487	0.000334	3.344904	1.133284	0.000134
1831	1.8209e+02	-7.0859	-40.989039	0.000395	3.953068	1.339336	0.000158
1832	1.8218e+02	-7.0522	-40.851777	0.000345	3.446264	1.167626	0.000138
1833	1.8228e+02	-7.0073	-40.657994	0.000487	4.865314	1.648413	0.000195
1834	1.8238e+02	-6.9656	-40.500546	0.000395	3.953068	1.339336	0.000158
1835	1.8248e+02	-6.9191	-40.391543	0.000274	2.736739	0.927232	0.000110
1836	1.8258e+02	-6.8838	-40.262355	0.000324	3.243543	1.098942	0.000130
1837	1.8268e+02	-6.8437	-40.064535	0.000497	4.966675	1.682755	0.000199
1838	1.8278e+02	-6.8100	-39.975718	0.000223	2.229936	0.755523	0.000089
1839	1.8288e+02	-6.7683	-39.785973	0.000476	4.763954	1.614071	0.000191
1840	1.8298e+02	-6.7330	-39.628524	0.000395	3.953068	1.339336	0.000158
1841	1.8308e+02	-6.6800	-39.467039	0.000405	4.054429	1.373678	0.000162
1842	1.8318e+02	-6.6576	-39.362073	0.000264	2.635379	0.892890	0.000105
1843	1.8328e+02	-6.6110	-39.224811	0.000345	3.446264	1.167626	0.000138
1844	1.8338e+02	-6.5758	-39.067363	0.000395	3.953068	1.339336	0.000158
1845	1.8348e+02	-6.5212	-38.889729	0.000446	4.459871	1.511045	0.000179
1846	1.8358e+02	-6.5068	-38.704020	0.000466	4.662593	1.579729	0.000187
1847	1.8368e+02	-6.4506	-38.582906	0.000304	3.040821	1.030258	0.000122
1848	1.8378e+02	-6.4137	-38.429495	0.000385	3.851707	1.304994	0.000154
1849	1.8388e+02	-6.3784	-38.255898	0.000436	4.358511	1.476703	0.000174
1850	1.8398e+02	-6.3415	-38.134784	0.000304	3.040821	1.030258	0.000122
1851	1.8407e+02	-6.2870	-37.985410	0.000375	3.750346	1.270652	0.000150
1852	1.8417e+02	-6.2485	-37.767405	0.000547	5.473479	1.854465	0.000219
1853	1.8427e+02	-6.2180	-37.634179	0.000334	3.344904	1.133284	0.000134
1854	1.8437e+02	-6.1779	-37.480768	0.000385	3.851707	1.304994	0.000154
1855	1.8447e+02	-6.1330	-37.327357	0.000385	3.851707	1.304994	0.000154
1856	1.8457e+02	-6.0961	-37.137612	0.000476	4.763954	1.614071	0.000191
1857	1.8467e+02	-6.0656	-37.004386	0.000334	3.344904	1.133284	0.000134
1858	1.8477e+02	-6.0271	-36.911532	0.000233	2.331296	0.789865	0.000093
1859	1.8487e+02	-5.9742	-36.697564	0.000537	5.372118	1.820123	0.000215
1860	1.8497e+02	-5.9373	-36.560301	0.000345	3.446264	1.167626	0.000138
1861	1.8507e+02	-5.8875	-36.366519	0.000487	4.865314	1.648413	0.000195
1862	1.8517e+02	-5.8683	-36.184848	0.000456	4.561232	1.545387	0.000183
1863	1.8527e+02	-5.8234	-36.027399	0.000395	3.953068	1.339336	0.000158
1864	1.8537e+02	-5.7768	-35.882062	0.000365	3.648986	1.236310	0.000146
1865	1.8547e+02	-5.7399	-35.724614	0.000395	3.953068	1.339336	0.000158
1866	1.8557e+02	-5.6934	-35.559092	0.000416	4.155789	1.408020	0.000166
1867	1.8567e+02	-5.6565	-35.377420	0.000456	4.561232	1.545387	0.000183
1868	1.8577e+02	-5.6084	-35.236121	0.000355	3.547625	1.201968	0.000142
1869	1.8587e+02	-5.5715	-35.046375	0.000476	4.763954	1.614071	0.000191
1870	1.8597e+02	-5.5426	-34.872779	0.000436	4.358511	1.476703	0.000174
1871	1.8606e+02	-5.4993	-34.719367	0.000385	3.851707	1.304994	0.000154
1872	1.8616e+02	-5.4592	-34.557882	0.000405	4.054429	1.373678	0.000162
1873	1.8626e+02	-5.4175	-34.400434	0.000395	3.953068	1.339336	0.000158
1874	1.8636e+02	-5.3758	-34.259134	0.000355	3.547625	1.201968	0.000142
1875	1.8646e+02	-5.3501	-34.077463	0.000456	4.561232	1.545387	0.000183
1876	1.8656e+02	-5.2956	-33.883680	0.000487	4.865314	1.648413	0.000195
1877	1.8666e+02	-5.2619	-33.734306	0.000375	3.750346	1.270652	0.000150
1878	1.8676e+02	-5.2186	-33.528412	0.000517	5.169396	1.751439	0.000207
1879	1.8686e+02	-5.1881	-33.387113	0.000355	3.547625	1.201968	0.000142
1880	1.8696e+02	-5.1464	-33.225627	0.000405	4.054429	1.373678	0.000162
1881	1.8706e+02	-5.0983	-33.068179	0.000395	3.953068	1.339336	0.000158
1882	1.8716e+02	-5.0614	-32.906693	0.000405	4.054429	1.373678	0.000162
1883	1.8726e+02	-5.0196	-32.729059	0.000446	4.459871	1.511045	0.000179
1884	1.8736e+02	-4.9956	-32.571611	0.000395	3.953068	1.339336	0.000158
1885	1.8746e+02	-4.9410	-32.377829	0.000487	4.865314	1.648413	0.000195
1886	1.8756e+02	-4.8945	-32.188083	0.000476	4.763954	1.614071	0.000191
1887	1.8766e+02	-4.8608	-32.030635	0.000395	3.953068	1.339336	0.000158
1888	1.8776e+02	-4.8095	-31.885298	0.000365	3.648986	1.236310	0.000146
1889	1.8786e+02	-4.7822	-31.699590	0.000466	4.662593	1.579729	0.000187
1890	1.8796e+02	-4.7405	-31.497733	0.000507	5.068036	1.717097	0.000203
1891	1.8806e+02	-4.7020	-31.340285	0.000395	3.953068	1.339336	0.000158
1892	1.8815e+02	-4.6571	-31.190911	0.000375	3.750346	1.270652	0.000150
1893	1.8825e+02	-4.6218	-30.972905	0.000547	5.473479	1.854465	0.000219
1894	1.8835e+02	-4.5833	-30.827568	0.000365	3.648986	1.236310	0.000146
1895	1.8845e+02	-4.5287	-30.641860	0.000466	4.662593	1.579729	0.000187
1896	1.8855e+02	-4.5063	-30.488449	0.000385	3.851707	1.304994	0.000154
1897	1.8865e+02	-4.4646	-30.266407	0.000557	5.574839	1.888807	0.000223
1898	1.8875e+02	-4.4245	-30.100884	0.000416	4.155789	1.408020	0.000166
1899	1.8885e+02	-4.3828	-29.911139	0.000476	4.763954	1.614071	0.000191
1900	1.8895e+02	-4.3346	-29.725430	0.000466	4.662593	1.579729	0.000187
1901	1.8905e+02	-4.2945	-29.584131	0.000355	3.547625	1.201968	0.000142
1902	1.8915e+02	-4.2641	-29.394385	0.000476	4.763954	1.614071	0.000191
1903	1.8925e+02	-4.2272	-29.184454	0.000527	5.270757	1.785781	0.000211
1904	1.8935e+02	-4.1838	-29.031043	0.000385	3.851707	1.304994	0.000154
1905	1.8945e+02	-4.1453	-28.857446	0.000436	4.358511	1.476703	0.000174
1906	1.8955e+02	-4.0940	-28.708072	0.000375	3.750346	1.270652	0.000150
1907	1.8965e+02	-4.0651	-28.514290	0.000487	4.865314	1.648413	0.000195
1908	1.8975e+02	-4.0250	-28.336656	0.000446	4.459871	1.511045	0.000179
1909	1.8985e+02	-3.9865	-28.142873	0.000487	4.865314	1.648413	0.000195
1910	1.8995e+02	-3.9448	-27.945054	0.000497	4.966675	1.682755	0.000199
1911	1.9004e+02	-3.9047	-27.795680	0.000375	3.750346	1.270652	0.000150
1912	1.9014e+02	-3.8598	-27.593823	0.000507	5.068036	1.717097	0.000203
1913	1.9024e+02	-3.8277	-27.416189	0.000446	4.459871	1.511045	0.000179
1914	1.9034e+02	-3.7844	-27.218369	0.000497	4.966675	1.682755	0.000199
1915	1.9044e+02	-3.7427	-27.004401	0.000537	5.372118	1.820123	0.000215
1916	1.9054e+02	-3.7042	-26.826767	0.000446	4.459871	1.511045	0.000179
1917	1.9064e+02	-3.6737	-26.665282	0.000405	4.054429	1.373678	0.000162
1918	1.9074e+02	-3.6159	-26.467462	0.000497	4.966675	1.682755	0.000199
1919	1.9084e+02	-3.5871	-26.273679	0.000487	4.865314	1.648413	0.000195
1920	1.9094e+02	-3.5341	-26.083934	0.000476	4.763954	1.614071	0.000191
1921	1.9104e+02	-3.5117	-25.886114	0.000497	4.966675	1.682755	0.000199
1922	1.9114e+02	-3.4651	-25.696369	0.000476	4.763954	1.614071	0.000191
1923	1.9124e+02	-3.4266	-25.542958	0.000385	3.851707	1.304994	0.000154
1924	1.9134e+02	-3.3785	-25.337064	0.000517	5.169396	1.751439	0.000207
1925	1.9144e+02	-3.3464	-25.175578	0.000405	4.054429	1.373678	0.000162
1926	1.9154e+02	-3.3079	-24.945462	0.000578	5.777561	1.957491	0.000231
1927	1.9164e+02	-3.2646	-24.792051	0.000385	3.851707	1.304994	0.000154
1928	1.9174e+02	-3.2261	-24.574045	0.000547	5.473479	1.854465	0.000219
1929	1.9184e+02	-3.1860	-24.372188	0.000507	5.068036	1.717097	0.000203
1930	1.9194e+02	-3.1411	-24.174369	0.000497	4.966675	1.682755	0.000199
1931	1.9203e+02	-3.1042	-24.000772	0.000436	4.358511	1.476703	0.000174
1932	1.9213e+02	-3.0529	-23.794878	0.000517	5.169396	1.751439	0.000207
1933	1.9223e+02	-3.0208	-23.641467	0.000385	3.851707	1.304994	0.000154
1934	1.9233e+02	-2.9871	-23.431536	0.000527	5.270757	1.785781	0.000211
1935	1.9243e+02	-2.9438	-23.261976	0.000426	4.257150	1.442361	0.000170
1936	1.9253e+02	-2.9101	-23.048008	0.000537	5.372118	1.820123	0.000215
1937	1.9263e+02	-2.8571	-22.825965	0.000557	5.574839	1.888807	0.000223
1938	1.9273e+02	-2.8283	-22.696777	0.000324	3.243543	1.098942	0.000130
1939	1.9283e+02	-2.7882	-22.478772	0.000547	5.473479	1.854465	0.000219
1940	1.9293e+02	-2.7545	-22.317286	0.000405	4.054429	1.373678	0.000162
1941	1.9303e+02	-2.7208	-22.119467	0.000497	4.966675	1.682755	0.000199
1942	1.9313e+02	-2.6694	-21.913573	0.000517	5.169396	1.751439	0.000207
1943	1.9323e+02	-2.6325	-21.711716	0.000507	5.068036	1.717097	0.000203
1944	1.9333e+02	-2.5892	-21.517933	0.000487	4.865314	1.648413	0.000195
1945	1.9343e+02	-2.5443	-21.316077	0.000507	5.068036	1.717097	0.000203
1946	1.9353e+02	-2.5122	-21.150554	0.000416	4.155789	1.408020	0.000166
1947	1.9363e+02	-2.4625	-20.920437	0.000578	5.777561	1.957491	0.000231
1948	1.9373e+02	-2.4240	-20.750878	0.000426	4.257150	1.442361	0.000170
1949	1.9383e+02	-2.3823	-20.581318	0.000426	4.257150	1.442361	0.000170
1950	1.9393e+02	-2.3454	-20.335053	0.000618	6.183004	2.094858	0.000248
1951	1.9403e+02	-2.3005	-20.133196	0.000507	5.068036	1.717097	0.000203
1952	1.9412e+02	-2.2684	-19.967673	0.000416	4.155789	1.408020	0.000166
1953	1.9422e+02	-2.2331	-19.765817	0.000507	5.068036	1.717097	0.000203
1954	1.9432e+02	-2.1802	-19.592220	0.000436	4.358511	1.476703	0.000174
1955	1.9442e+02	-2.1513	-19.374214	0.000547	5.473479	1.854465	0.000219
1956	1.9452e+02	-2.1080	-19.192543	0.000456	4.561232	1.545387	0.000183
1957	1.9462e+02	-2.0663	-18.962427	0.000578	5.777561	1.957491	0.000231
1958	1.9472e+02	-2.0294	-18.788830	0.000436	4.358511	1.476703	0.000174
1959	1.9482e+02	-1.9909	-18.546602	0.000608	6.081643	2.060516	0.000243
1960	1.9492e+02	-1.9475	-18.381079	0.000416	4.155789	1.408020	0.000166
1961	1.9502e+02	-1.9042	-18.215556	0.000416	4.155789	1.408020	0.000166
1962	1.9512e+02	-1.8641	-17.997551	0.000547	5.473479	1.854465	0.000219
1963	1.9522e+02	-1.8288	-17.799731	0.000497	4.966675	1.682755	0.000199
1964	1.9532e+02	-1.7871	-17.565578	0.000588	5.878921	1.991833	0.000235
1965	1.9542e+02	-1.7566	-17.383906	0.000456	4.561232	1.545387	0.000183
1966	1.9552e+02	-1.7021	-17.226458	0.000395	3.953068	1.339336	0.000158
1967	1.9562e+02	-1.6748	-17.008453	0.000547	5.473479	1.854465	0.000219
1968	1.9572e+02	-1.6251	-16.770262	0.000598	5.980282	2.026174	0.000239
1969	1.9582e+02	-1.5866	-16.608776	0.000405	4.054429	1.373678	0.000162
1970	1.9592e+02	-1.5481	-16.386734	0.000557	5.574839	1.888807	0.000223
1971	1.9601e+02	-1.5064	-16.184877	0.000507	5.068036	1.717097	0.000203
1972	1.9611e+02	-1.4711	-15.991095	0.000487	4.865314	1.648413	0.000195
1973	1.9621e+02	-1.4390	-15.781164	0.000527	5.270757	1.785781	0.000211
1974	1.9631e+02	-1.4005	-15.599492	0.000456	4.561232	1.545387	0.000183
1975	1.9641e+02	-1.3556	-15.329004	0.000679	6.791168	2.300910	0.000272
1976	1.9651e+02	-1.3139	-15.175593	0.000385	3.851707	1.304994	0.000154
1977	1.9661e+02	-1.2722	-14.945477	0.000578	5.777561	1.957491	0.000231
1978	1.9671e+02	-1.2288	-14.759768	0.000466	4.662593	1.579729	0.000187
1979	1.9681e+02	-1.1887	-14.565986	0.000487	4.865314	1.648413	0.000195
1980	1.9691e+02	-1.1583	-14.400463	0.000416	4.155789	1.408020	0.000166
1981	1.9701e+02	-1.1085	-14.182458	0.000547	5.473479	1.854465	0.000219
1982	1.9711e+02	-1.0732	-13.936193	0.000618	6.183004	2.094858	0.000248
1983	1.9721e+02	-1.0331	-13.770670	0.000416	4.155789	1.408020	0.000166
1984	1.9731e+02	-0.9882	-13.544590	0.000568	5.676200	1.923149	0.000227
1985	1.9741e+02	-0.9481	-13.346771	0.000497	4.966675	1.682755	0.000199
1986	1.9751e+02	-0.9208	-13.132803	0.000537	5.372118	1.820123	0.000215
1987	1.9761e+02	-0.8743	-12.939020	0.000487	4.865314	1.648413	0.000195
1988	1.9771e+02	-0.8422	-12.721015	0.000547	5.473479	1.854465	0.000219
1989	1.9781e+02	-0.7877	-12.490898	0.000578	5.777561	1.957491	0.000231
1990	1.9791e+02	-0.7540	-12.305190	0.000466	4.662593	1.579729	0.000187
1991	1.9800e+02	-0.7075	-12.095259	0.000527	5.270757	1.785781	0.000211
1992	1.9810e+02	-0.6722	-11.925699	0.000426	4.257150	1.442361	0.000170
1993	1.9820e+02	-0.6401	-11.711731	0.000537	5.372118	1.820123	0.000215
1994	1.9830e+02	-0.5968	-11.513911	0.000497	4.966675	1.682755	0.000199
1995	1.9840e+02	-0.5503	-11.299943	0.000537	5.372118	1.820123	0.000215
1996	1.9850e+02	-0.5150	-11.106160	0.000487	4.865314	1.648413	0.000195
1997	1.9860e+02	-0.4781	-10.900266	0.000517	5.169396	1.751439	0.000207
1998	1.9870e+02	-0.4380	-10.730707	0.000426	4.257150	1.442361	0.000170
1999	1.9880e+02	-0.3946	-10.460219	0.000679	6.791168	2.300910	0.000272
2000	1.9890e+02	-0.3385	-10.294696	0.000416	4.155789	1.408020	0.000166
2001	1.9900e+02	-0.3128	-10.048431	0.000618	6.183004	2.094858	0.000248
2002	1.9910e+02	-0.2759	-9.870797	0.000446	4.459871	1.511045	0.000179
2003	1.9920e+02	-0.2374	-9.660866	0.000527	5.270757	1.785781	0.000211
2004	1.9930e+02	-0.1973	-9.450935	0.000527	5.270757	1.785781	0.000211
2005	1.9940e+02	-0.1636	-9.228892	0.000557	5.574839	1.888807	0.000223
2006	1.9950e+02	-0.1267	-9.014924	0.000537	5.372118	1.820123	0.000215
2007	1.9960e+02	-0.0850	-8.821142	0.000487	4.865314	1.648413	0.000195
2008	1.9970e+02	-0.0369	-8.623322	0.000497	4.966675	1.682755	0.000199
2009	1.9980e+02	0.0080	-8.417428	0.000497	4.966675	1.682755	0.000207

Center data before PMax,+/-Pr and +/-Vc Calc.

PMax (uC/cm2):	7.66e+01
Pr (uC/cm2):	3.21e+00
-Pr (uC/cm2):	-8.42e+00
PLoss (uC/cm2):	-5.17e+00
Vc:	6.67e-01
-Vc:	-6.39e-01
C (Max-Eff) (nF):	3.83e-01
K (Eff):	1.30e+03
Vert. (+/-Pr) Shift (uC/cm2):	-2.61e+00
Horiz. Shift (+/-Vc):	1.36e-02
Offset (uC/cm2):	3.22e+00

A (Loop Area - uC/cm2·Volts):	6.04e-02



Hysteresis Version: 5.48.1 - Radiant Technologies, Inc., 1999 - 9/12/24

