»»»»»»»»»»»»»»»»»»»»»»»»»»»»»»»»»»»» Hysteresis ««««««««««««««««««««««««««««««««««««
»»»  Executed Version:	5.48.1
»»»  Vision Version:	5.48.4 (R)
»»»  Vision Compiled:	9/18/24
»»»  Driver Version:	5.47.0
»»»  Windows Version:	Windows 8 or 8.1
»»»  Processor Information:	x86 (AMD or Intel) - 32 Processors
»»»  Tester Name:	PMF21124-494 (100V)
»»»  Tester S/N:	PMF21124-494
»»»  Internal Amp Type:	100V RevK 270k
»»»  Internal Amp S/N:	iAB2-596/K     
»»»  Execution Count:	1
»»»»»»»»»»»»»»»»»»»»»»»»»»»»»»»»»»»»»»»»»»««««««««««««««««««««««««««««««««««««««««««

Stored:	6/13/2025 - 16:4:3
Configured:	06/13/25 01:30:53 PM
Executed:	06/13/25 04:03:00 PM

»»»»»»»»»»»»»»»»»»»»»»»»»»»»»»»»»»» Sample Info ««««««««««««««««««««««««««««««««««««
Sample Name:	
Lot Name:	
Wafer Name:	
Die Row/Column:	0/0
Capacitor Number:	0
Sample Area (cm2):	1.00e-04
Sample Thickness (microns):	3.00e-01

Amplifier:	Internal

»»»»»»»»»»»»»»»»»»»»»»»»»»»»»»»»»»» Tester Info «««««««««««««««««««««««««««««««««««
Tester Name:	PMF21124-494 (100V)
Tester Serial Number:	PMF21124-494
Return Signal Amp. Level:	0.19 [Index: 3]

»»»»»»»»»»»»»»»»»»»»»»»»»»»»»»»» Hysteresis Info ««««««««««««««««««««««««««««««««««
Task Name:	Hyst-1922
Volts:	20.00
Field:	666.67 (kV/cm)
DCBias:	0.00
DCField:	0.00 (kV/cm)
Hysteresis Period (ms):	2.00e+02
Preset:	Enabled
Preset Delay (ms):	1.00e+03
Profile:	Standard Bipolar

»»»»»»»»»»»»»»»»»»»»»»»»»»»»»»»»»»»»»» Data «««««««««««««««««««««««««««««««««««««««
Points:	2009

Valid Data

Point	Time (ms)	Drive Voltage	Measured Polarization (uC/cm2)	Capacitance (uF)	Normalized Capacitance (uF/cm2)	Dielectric Constant	Instantaneous Current (mA)
   1	0.0000e+00	0.0096	-2.452560	0.000426	4.257321	1.442419	0.000170
   2	9.9500e-02	0.0369	-2.283000	0.000426	4.257321	1.442419	0.000170
   3	1.9900e-01	0.0802	-2.113441	0.000426	4.257321	1.442419	0.000170
   4	2.9850e-01	0.1123	-1.968104	0.000365	3.649132	1.236359	0.000146
   5	3.9800e-01	0.1604	-1.770284	0.000497	4.966874	1.682823	0.000199
   6	4.9750e-01	0.2005	-1.616873	0.000385	3.851862	1.305046	0.000154
   7	5.9700e-01	0.2358	-1.443276	0.000436	4.358686	1.476763	0.000174
   8	6.9650e-01	0.2743	-1.205085	0.000598	5.980522	2.026256	0.000239
   9	7.9600e-01	0.3160	-1.067822	0.000345	3.446403	1.167673	0.000138
  10	8.9550e-01	0.3529	-0.882114	0.000466	4.662780	1.579793	0.000187
  11	9.9500e-01	0.3930	-0.744852	0.000345	3.446403	1.167673	0.000138
  12	1.0945e+00	0.4315	-0.542995	0.000507	5.068239	1.717166	0.000203
  13	1.1940e+00	0.4668	-0.337101	0.000517	5.169604	1.751509	0.000207
  14	1.2935e+00	0.5101	-0.183690	0.000385	3.851862	1.305046	0.000154
  15	1.3930e+00	0.5583	-0.010093	0.000436	4.358686	1.476763	0.000174
  16	1.4925e+00	0.5984	0.199838	0.000527	5.270969	1.785853	0.000211
  17	1.5920e+00	0.6321	0.369398	0.000426	4.257321	1.442419	0.000170
  18	1.6915e+00	0.6754	0.510698	0.000355	3.547767	1.202016	0.000142
  19	1.7910e+00	0.7075	0.692369	0.000456	4.561415	1.545449	0.000183
  20	1.8905e+00	0.7540	0.849817	0.000395	3.953226	1.339389	0.000158
  21	1.9900e+00	0.7989	1.063785	0.000537	5.372333	1.820196	0.000215
  22	2.0895e+00	0.8422	1.241419	0.000446	4.460050	1.511106	0.000179
  23	2.1890e+00	0.8775	1.423090	0.000456	4.561415	1.545449	0.000183
  24	2.2885e+00	0.9048	1.560353	0.000345	3.446403	1.167673	0.000138
  25	2.3880e+00	0.9513	1.766247	0.000517	5.169604	1.751509	0.000207
  26	2.4875e+00	0.9898	1.931769	0.000416	4.155956	1.408076	0.000166
  27	2.5870e+00	1.0267	2.149775	0.000547	5.473698	1.854539	0.000219
  28	2.6865e+00	1.0668	2.291075	0.000355	3.547767	1.202016	0.000142
  29	2.7860e+00	1.1198	2.496968	0.000517	5.169604	1.751509	0.000207
  30	2.8855e+00	1.1454	2.706900	0.000527	5.270969	1.785853	0.000211
  31	2.9850e+00	1.1887	2.848199	0.000355	3.547767	1.202016	0.000142
  32	3.0845e+00	1.2321	3.033908	0.000466	4.662780	1.579793	0.000187
  33	3.1840e+00	1.2673	3.195393	0.000405	4.054591	1.373733	0.000162
  34	3.2835e+00	1.3155	3.397250	0.000507	5.068239	1.717166	0.000203
  35	3.3830e+00	1.3492	3.574884	0.000446	4.460050	1.511106	0.000179
  36	3.4825e+00	1.3941	3.752518	0.000446	4.460050	1.511106	0.000179
  37	3.5820e+00	1.4262	3.918040	0.000416	4.155956	1.408076	0.000166
  38	3.6815e+00	1.4759	4.087600	0.000426	4.257321	1.442419	0.000170
  39	3.7810e+00	1.5096	4.265234	0.000446	4.460050	1.511106	0.000179
  40	3.8805e+00	1.5497	4.475165	0.000527	5.270969	1.785853	0.000211
  41	3.9800e+00	1.5898	4.640688	0.000416	4.155956	1.408076	0.000166
  42	4.0795e+00	1.6219	4.822359	0.000456	4.561415	1.545449	0.000183
  43	4.1790e+00	1.6716	5.036327	0.000537	5.372333	1.820196	0.000215
  44	4.2785e+00	1.7101	5.177627	0.000355	3.547767	1.202016	0.000142
  45	4.3780e+00	1.7502	5.399669	0.000558	5.575063	1.888882	0.000223
  46	4.4775e+00	1.7887	5.561154	0.000405	4.054591	1.373733	0.000162
  47	4.5770e+00	1.8304	5.722640	0.000405	4.054591	1.373733	0.000162
  48	4.6765e+00	1.8689	5.912385	0.000476	4.764145	1.614136	0.000191
  49	4.7760e+00	1.9106	6.102131	0.000476	4.764145	1.614136	0.000191
  50	4.8755e+00	1.9507	6.271690	0.000426	4.257321	1.442419	0.000170
  51	4.9750e+00	1.9876	6.465473	0.000487	4.865509	1.648479	0.000195
  52	5.0745e+00	2.0326	6.655218	0.000476	4.764145	1.614136	0.000191
  53	5.1740e+00	2.0663	6.836889	0.000456	4.561415	1.545449	0.000183
  54	5.2735e+00	2.1048	7.002412	0.000416	4.155956	1.408076	0.000166
  55	5.3730e+00	2.1497	7.188120	0.000466	4.662780	1.579793	0.000187
  56	5.4725e+00	2.1914	7.381903	0.000487	4.865509	1.648479	0.000195
  57	5.5720e+00	2.2283	7.559537	0.000446	4.460050	1.511106	0.000179
  58	5.6715e+00	2.2652	7.696799	0.000345	3.446403	1.167673	0.000138
  59	5.7710e+00	2.3037	7.894619	0.000497	4.966874	1.682823	0.000199
  60	5.8705e+00	2.3486	8.088401	0.000487	4.865509	1.648479	0.000195
  61	5.9700e+00	2.3887	8.294295	0.000517	5.169604	1.751509	0.000207
  62	6.0695e+00	2.4256	8.447707	0.000385	3.851862	1.305046	0.000154
  63	6.1690e+00	2.4705	8.653600	0.000517	5.169604	1.751509	0.000207
  64	6.2685e+00	2.5122	8.831234	0.000446	4.460050	1.511106	0.000179
  65	6.3680e+00	2.5443	9.041165	0.000527	5.270969	1.785853	0.000211
  66	6.4675e+00	2.5924	9.218799	0.000446	4.460050	1.511106	0.000179
  67	6.5670e+00	2.6213	9.396433	0.000446	4.460050	1.511106	0.000179
  68	6.6665e+00	2.6678	9.549845	0.000385	3.851862	1.305046	0.000154
  69	6.7660e+00	2.6967	9.735553	0.000466	4.662780	1.579793	0.000187
  70	6.8655e+00	2.7529	9.969707	0.000588	5.879157	1.991912	0.000235
  71	6.9650e+00	2.7849	10.111006	0.000355	3.547767	1.202016	0.000142
  72	7.0645e+00	2.8267	10.268455	0.000395	3.953226	1.339389	0.000158
  73	7.1640e+00	2.8539	10.442052	0.000436	4.358686	1.476763	0.000174
  74	7.2635e+00	2.9053	10.631797	0.000476	4.764145	1.614136	0.000191
  75	7.3630e+00	2.9486	10.825579	0.000487	4.865509	1.648479	0.000195
  76	7.4625e+00	2.9839	11.007251	0.000456	4.561415	1.545449	0.000183
  77	7.5620e+00	3.0336	11.132402	0.000314	3.142308	1.064643	0.000126
  78	7.6615e+00	3.0593	11.346370	0.000537	5.372333	1.820196	0.000215
  79	7.7610e+00	3.0994	11.528041	0.000456	4.561415	1.545449	0.000183
  80	7.8605e+00	3.1539	11.737972	0.000527	5.270969	1.785853	0.000211
  81	7.9600e+00	3.1780	11.899458	0.000405	4.054591	1.373733	0.000162
  82	8.0595e+00	3.2165	12.097277	0.000497	4.966874	1.682823	0.000199
  83	8.1590e+00	3.2582	12.274911	0.000446	4.460050	1.511106	0.000179
  84	8.2585e+00	3.3095	12.440434	0.000416	4.155956	1.408076	0.000166
  85	8.3580e+00	3.3416	12.601919	0.000405	4.054591	1.373733	0.000162
  86	8.4575e+00	3.3849	12.779553	0.000446	4.460050	1.511106	0.000179
  87	8.5570e+00	3.4218	12.973336	0.000487	4.865509	1.648479	0.000195
  88	8.6565e+00	3.4716	13.155007	0.000456	4.561415	1.545449	0.000183
  89	8.7560e+00	3.4956	13.308418	0.000385	3.851862	1.305046	0.000154
  90	8.8555e+00	3.5438	13.498163	0.000476	4.764145	1.614136	0.000191
  91	8.9550e+00	3.5806	13.691946	0.000487	4.865509	1.648479	0.000195
  92	9.0545e+00	3.6288	13.829208	0.000345	3.446403	1.167673	0.000138
  93	9.1540e+00	3.6705	14.059325	0.000578	5.777793	1.957569	0.000231
  94	9.2535e+00	3.6929	14.224848	0.000416	4.155956	1.408076	0.000166
  95	9.3530e+00	3.7411	14.406519	0.000456	4.561415	1.545449	0.000183
  96	9.4525e+00	3.7844	14.580116	0.000436	4.358686	1.476763	0.000174
  97	9.5520e+00	3.8213	14.761787	0.000456	4.561415	1.545449	0.000183
  98	9.6515e+00	3.8630	14.947495	0.000466	4.662780	1.579793	0.000187
  99	9.7510e+00	3.8951	15.092832	0.000365	3.649132	1.236359	0.000146
 100	9.8505e+00	3.9480	15.302763	0.000527	5.270969	1.785853	0.000211
 101	9.9500e+00	3.9753	15.496546	0.000487	4.865509	1.648479	0.000195
 102	1.0050e+01	4.0170	15.625734	0.000324	3.243673	1.098986	0.000130
 103	1.0149e+01	4.0651	15.827591	0.000507	5.068239	1.717166	0.000203
 104	1.0248e+01	4.0972	16.041559	0.000537	5.372333	1.820196	0.000215
 105	1.0348e+01	4.1389	16.186896	0.000365	3.649132	1.236359	0.000146
 106	1.0447e+01	4.1758	16.356455	0.000426	4.257321	1.442419	0.000170
 107	1.0547e+01	4.2255	16.582535	0.000568	5.676428	1.923226	0.000227
 108	1.0646e+01	4.2528	16.719798	0.000345	3.446403	1.167673	0.000138
 109	1.0746e+01	4.3026	16.881283	0.000405	4.054591	1.373733	0.000162
 110	1.0845e+01	4.3362	17.111400	0.000578	5.777793	1.957569	0.000231
 111	1.0945e+01	4.3828	17.224440	0.000284	2.838214	0.961613	0.000114
 112	1.1044e+01	4.4245	17.398036	0.000436	4.358686	1.476763	0.000174
 113	1.1144e+01	4.4469	17.628153	0.000578	5.777793	1.957569	0.000231
 114	1.1243e+01	4.5063	17.777527	0.000375	3.750497	1.270703	0.000150
 115	1.1343e+01	4.5368	17.975347	0.000497	4.966874	1.682823	0.000199
 116	1.1443e+01	4.5801	18.136832	0.000405	4.054591	1.373733	0.000162
 117	1.1542e+01	4.6154	18.322541	0.000466	4.662780	1.579793	0.000187
 118	1.1642e+01	4.6635	18.500175	0.000446	4.460050	1.511106	0.000179
 119	1.1741e+01	4.6908	18.649549	0.000375	3.750497	1.270703	0.000150
 120	1.1841e+01	4.7357	18.851405	0.000507	5.068239	1.717166	0.000203
 121	1.1940e+01	4.7806	18.984631	0.000335	3.345038	1.133329	0.000134
 122	1.2040e+01	4.8191	19.218785	0.000588	5.879157	1.991912	0.000235
 123	1.2139e+01	4.8560	19.343936	0.000314	3.142308	1.064643	0.000126
 124	1.2239e+01	4.8993	19.541756	0.000497	4.966874	1.682823	0.000199
 125	1.2338e+01	4.9250	19.683055	0.000355	3.547767	1.202016	0.000142
 126	1.2438e+01	4.9844	19.856652	0.000436	4.358686	1.476763	0.000174
 127	1.2537e+01	5.0196	20.070620	0.000537	5.372333	1.820196	0.000215
 128	1.2636e+01	5.0517	20.252291	0.000456	4.561415	1.545449	0.000183
 129	1.2736e+01	5.0950	20.393591	0.000355	3.547767	1.202016	0.000142
 130	1.2835e+01	5.1384	20.607559	0.000537	5.372333	1.820196	0.000215
 131	1.2935e+01	5.1849	20.781156	0.000436	4.358686	1.476763	0.000174
 132	1.3034e+01	5.2154	20.942642	0.000405	4.054591	1.373733	0.000162
 133	1.3134e+01	5.2603	21.120276	0.000446	4.460050	1.511106	0.000179
 134	1.3233e+01	5.3020	21.289835	0.000426	4.257321	1.442419	0.000170
 135	1.3333e+01	5.3421	21.443246	0.000385	3.851862	1.305046	0.000154
 136	1.3432e+01	5.3742	21.624918	0.000456	4.561415	1.545449	0.000183
 137	1.3532e+01	5.4191	21.802552	0.000446	4.460050	1.511106	0.000179
 138	1.3632e+01	5.4544	21.988260	0.000466	4.662780	1.579793	0.000187
 139	1.3731e+01	5.5009	22.125522	0.000345	3.446403	1.167673	0.000138
 140	1.3831e+01	5.5394	22.303156	0.000446	4.460050	1.511106	0.000179
 141	1.3930e+01	5.5795	22.492902	0.000476	4.764145	1.614136	0.000191
 142	1.4030e+01	5.5972	22.682647	0.000476	4.764145	1.614136	0.000191
 143	1.4129e+01	5.6597	22.807798	0.000314	3.142308	1.064643	0.000126
 144	1.4229e+01	5.6886	22.997544	0.000476	4.764145	1.614136	0.000191
 145	1.4328e+01	5.7383	23.171141	0.000436	4.358686	1.476763	0.000174
 146	1.4428e+01	5.7801	23.340700	0.000426	4.257321	1.442419	0.000170
 147	1.4527e+01	5.8057	23.514297	0.000436	4.358686	1.476763	0.000174
 148	1.4627e+01	5.8522	23.671745	0.000395	3.953226	1.339389	0.000158
 149	1.4726e+01	5.8972	23.869565	0.000497	4.966874	1.682823	0.000199
 150	1.4825e+01	5.9308	24.047199	0.000446	4.460050	1.511106	0.000179
 151	1.4925e+01	5.9710	24.192536	0.000365	3.649132	1.236359	0.000146
 152	1.5024e+01	6.0191	24.366133	0.000436	4.358686	1.476763	0.000174
 153	1.5124e+01	6.0512	24.527618	0.000405	4.054591	1.373733	0.000162
 154	1.5223e+01	6.0833	24.709289	0.000456	4.561415	1.545449	0.000183
 155	1.5323e+01	6.1314	24.838478	0.000324	3.243673	1.098986	0.000130
 156	1.5422e+01	6.1731	25.024186	0.000466	4.662780	1.579793	0.000187
 157	1.5522e+01	6.2164	25.213931	0.000476	4.764145	1.614136	0.000191
 158	1.5621e+01	6.2645	25.399639	0.000466	4.662780	1.579793	0.000187
 159	1.5721e+01	6.2886	25.544976	0.000365	3.649132	1.236359	0.000146
 160	1.5820e+01	6.3383	25.718573	0.000436	4.358686	1.476763	0.000174
 161	1.5920e+01	6.3752	25.880059	0.000405	4.054591	1.373733	0.000162
 162	1.6020e+01	6.4089	26.061730	0.000456	4.561415	1.545449	0.000183
 163	1.6119e+01	6.4538	26.227252	0.000416	4.155956	1.408076	0.000166
 164	1.6218e+01	6.4859	26.396812	0.000426	4.257321	1.442419	0.000170
 165	1.6318e+01	6.5292	26.530038	0.000335	3.345038	1.133329	0.000134
 166	1.6418e+01	6.5741	26.739969	0.000527	5.270969	1.785853	0.000211
 167	1.6517e+01	6.6078	26.861083	0.000304	3.040943	1.030300	0.000122
 168	1.6616e+01	6.6544	27.066977	0.000517	5.169604	1.751509	0.000207
 169	1.6716e+01	6.6880	27.192128	0.000314	3.142308	1.064643	0.000126
 170	1.6816e+01	6.7298	27.365725	0.000436	4.358686	1.476763	0.000174
 171	1.6915e+01	6.7683	27.547396	0.000456	4.561415	1.545449	0.000183
 172	1.7015e+01	6.8116	27.684658	0.000345	3.446403	1.167673	0.000138
 173	1.7114e+01	6.8549	27.882478	0.000497	4.966874	1.682823	0.000199
 174	1.7213e+01	6.8854	28.052038	0.000426	4.257321	1.442419	0.000170
 175	1.7313e+01	6.9175	28.209486	0.000395	3.953226	1.339389	0.000158
 176	1.7413e+01	6.9656	28.362897	0.000385	3.851862	1.305046	0.000154
 177	1.7512e+01	7.0105	28.540531	0.000446	4.460050	1.511106	0.000179
 178	1.7611e+01	7.0426	28.702017	0.000405	4.054591	1.373733	0.000162
 179	1.7711e+01	7.0875	28.843316	0.000355	3.547767	1.202016	0.000142
 180	1.7811e+01	7.1276	29.081507	0.000598	5.980522	2.026256	0.000239
 181	1.7910e+01	7.1645	29.190510	0.000274	2.736849	0.927270	0.000110
 182	1.8009e+01	7.2046	29.364107	0.000436	4.358686	1.476763	0.000174
 183	1.8109e+01	7.2511	29.505407	0.000355	3.547767	1.202016	0.000142
 184	1.8209e+01	7.2896	29.666892	0.000405	4.054591	1.373733	0.000162
 185	1.8308e+01	7.3281	29.888934	0.000558	5.575063	1.888882	0.000223
 186	1.8407e+01	7.3698	30.018123	0.000324	3.243673	1.098986	0.000130
 187	1.8507e+01	7.4051	30.183645	0.000416	4.155956	1.408076	0.000166
 188	1.8607e+01	7.4324	30.345131	0.000405	4.054591	1.373733	0.000162
 189	1.8706e+01	7.4870	30.470282	0.000314	3.142308	1.064643	0.000126
 190	1.8805e+01	7.5222	30.664064	0.000487	4.865509	1.648479	0.000195
 191	1.8905e+01	7.5624	30.841698	0.000446	4.460050	1.511106	0.000179
 192	1.9005e+01	7.6105	30.962813	0.000304	3.040943	1.030300	0.000122
 193	1.9104e+01	7.6426	31.132372	0.000426	4.257321	1.442419	0.000170
 194	1.9203e+01	7.6843	31.314043	0.000456	4.561415	1.545449	0.000183
 195	1.9303e+01	7.7180	31.475529	0.000405	4.054591	1.373733	0.000162
 196	1.9402e+01	7.7613	31.600680	0.000314	3.142308	1.064643	0.000126
 197	1.9502e+01	7.7982	31.806574	0.000517	5.169604	1.751509	0.000207
 198	1.9602e+01	7.8463	31.931725	0.000314	3.142308	1.064643	0.000126
 199	1.9701e+01	7.8848	32.109359	0.000446	4.460050	1.511106	0.000179
 200	1.9800e+01	7.9217	32.218362	0.000274	2.736849	0.927270	0.000110
 201	1.9900e+01	7.9650	32.424256	0.000517	5.169604	1.751509	0.000207
 202	2.0000e+01	8.0035	32.609964	0.000466	4.662780	1.579793	0.000187
 203	2.0099e+01	8.0468	32.739152	0.000324	3.243673	1.098986	0.000130
 204	2.0198e+01	8.0853	32.884489	0.000365	3.649132	1.236359	0.000146
 205	2.0298e+01	8.1238	33.078272	0.000487	4.865509	1.648479	0.000195
 206	2.0398e+01	8.1591	33.183237	0.000264	2.635484	0.892926	0.000105
 207	2.0497e+01	8.2057	33.364908	0.000456	4.561415	1.545449	0.000183
 208	2.0596e+01	8.2377	33.542542	0.000446	4.460050	1.511106	0.000179
 209	2.0696e+01	8.2794	33.671731	0.000324	3.243673	1.098986	0.000130
 210	2.0796e+01	8.3292	33.865513	0.000487	4.865509	1.648479	0.000195
 211	2.0895e+01	8.3661	34.002776	0.000345	3.446403	1.167673	0.000138
 212	2.0994e+01	8.4046	34.123890	0.000304	3.040943	1.030300	0.000122
 213	2.1094e+01	8.4447	34.337858	0.000537	5.372333	1.820196	0.000215
 214	2.1194e+01	8.4864	34.507418	0.000426	4.257321	1.442419	0.000170
 215	2.1293e+01	8.5233	34.676977	0.000426	4.257321	1.442419	0.000170
 216	2.1392e+01	8.5602	34.773869	0.000243	2.432755	0.824240	0.000097
 217	2.1492e+01	8.5923	34.915168	0.000355	3.547767	1.202016	0.000142
 218	2.1591e+01	8.6468	35.060505	0.000365	3.649132	1.236359	0.000146
 219	2.1691e+01	8.6885	35.262362	0.000507	5.068239	1.717166	0.000203
 220	2.1791e+01	8.7206	35.399625	0.000345	3.446403	1.167673	0.000138
 221	2.1890e+01	8.7559	35.553036	0.000385	3.851862	1.305046	0.000154
 222	2.1989e+01	8.8072	35.694336	0.000355	3.547767	1.202016	0.000142
 223	2.2089e+01	8.8393	35.867932	0.000436	4.358686	1.476763	0.000174
 224	2.2189e+01	8.8810	36.033455	0.000416	4.155956	1.408076	0.000166
 225	2.2288e+01	8.9163	36.174755	0.000355	3.547767	1.202016	0.000142
 226	2.2387e+01	8.9532	36.340277	0.000416	4.155956	1.408076	0.000166
 227	2.2487e+01	9.0014	36.473503	0.000335	3.345038	1.133329	0.000134
 228	2.2587e+01	9.0415	36.639025	0.000416	4.155956	1.408076	0.000166
 229	2.2686e+01	9.0800	36.808585	0.000426	4.257321	1.442419	0.000170
 230	2.2785e+01	9.1185	36.945848	0.000345	3.446403	1.167673	0.000138
 231	2.2885e+01	9.1586	37.103296	0.000395	3.953226	1.339389	0.000158
 232	2.2985e+01	9.2083	37.248633	0.000365	3.649132	1.236359	0.000146
 233	2.3084e+01	9.2340	37.398007	0.000375	3.750497	1.270703	0.000150
 234	2.3183e+01	9.2805	37.547381	0.000375	3.750497	1.270703	0.000150
 235	2.3283e+01	9.3222	37.704829	0.000395	3.953226	1.339389	0.000158
 236	2.3383e+01	9.3575	37.890537	0.000466	4.662780	1.579793	0.000187
 237	2.3482e+01	9.3896	38.031837	0.000355	3.547767	1.202016	0.000142
 238	2.3581e+01	9.4281	38.148914	0.000294	2.939579	0.995956	0.000118
 239	2.3681e+01	9.4858	38.314437	0.000416	4.155956	1.408076	0.000166
 240	2.3780e+01	9.5099	38.475922	0.000405	4.054591	1.373733	0.000162
 241	2.3880e+01	9.5500	38.633370	0.000395	3.953226	1.339389	0.000158
 242	2.3980e+01	9.6061	38.786782	0.000385	3.851862	1.305046	0.000154
 243	2.4079e+01	9.6334	38.915970	0.000324	3.243673	1.098986	0.000130
 244	2.4178e+01	9.6719	39.061307	0.000365	3.649132	1.236359	0.000146
 245	2.4278e+01	9.7152	39.214718	0.000385	3.851862	1.305046	0.000154
 246	2.4378e+01	9.7602	39.384278	0.000426	4.257321	1.442419	0.000170
 247	2.4477e+01	9.7987	39.521540	0.000345	3.446403	1.167673	0.000138
 248	2.4576e+01	9.8436	39.650729	0.000324	3.243673	1.098986	0.000130
 249	2.4676e+01	9.8708	39.804140	0.000385	3.851862	1.305046	0.000154
 250	2.4776e+01	9.9174	39.957551	0.000385	3.851862	1.305046	0.000154
 251	2.4875e+01	9.9543	40.123074	0.000416	4.155956	1.408076	0.000166
 252	2.4974e+01	9.9912	40.228039	0.000264	2.635484	0.892926	0.000105
 253	2.5074e+01	10.0393	40.385487	0.000395	3.953226	1.339389	0.000158
 254	2.5174e+01	10.0746	40.559084	0.000436	4.358686	1.476763	0.000174
 255	2.5273e+01	10.1067	40.708458	0.000375	3.750497	1.270703	0.000150
 256	2.5372e+01	10.1596	40.833609	0.000314	3.142308	1.064643	0.000126
 257	2.5472e+01	10.1901	40.982983	0.000375	3.750497	1.270703	0.000150
 258	2.5572e+01	10.2286	41.108135	0.000314	3.142308	1.064643	0.000126
 259	2.5671e+01	10.2671	41.269620	0.000405	4.054591	1.373733	0.000162
 260	2.5770e+01	10.3168	41.427068	0.000395	3.953226	1.339389	0.000158
 261	2.5870e+01	10.3585	41.584517	0.000395	3.953226	1.339389	0.000158
 262	2.5970e+01	10.3826	41.721779	0.000345	3.446403	1.167673	0.000138
 263	2.6069e+01	10.4355	41.850968	0.000324	3.243673	1.098986	0.000130
 264	2.6169e+01	10.4740	41.996305	0.000365	3.649132	1.236359	0.000146
 265	2.6268e+01	10.5190	42.137604	0.000355	3.547767	1.202016	0.000142
 266	2.6367e+01	10.5623	42.291015	0.000385	3.851862	1.305046	0.000154
 267	2.6467e+01	10.5911	42.432315	0.000355	3.547767	1.202016	0.000142
 268	2.6567e+01	10.6361	42.589763	0.000395	3.953226	1.339389	0.000158
 269	2.6666e+01	10.6762	42.706840	0.000294	2.939579	0.995956	0.000118
 270	2.6765e+01	10.7163	42.884474	0.000446	4.460050	1.511106	0.000179
 271	2.6865e+01	10.7580	43.009626	0.000314	3.142308	1.064643	0.000126
 272	2.6965e+01	10.7885	43.154962	0.000365	3.649132	1.236359	0.000146
 273	2.7064e+01	10.8286	43.304336	0.000375	3.750497	1.270703	0.000150
 274	2.7163e+01	10.8719	43.441599	0.000345	3.446403	1.167673	0.000138
 275	2.7263e+01	10.9168	43.595010	0.000385	3.851862	1.305046	0.000154
 276	2.7363e+01	10.9537	43.720161	0.000314	3.142308	1.064643	0.000126
 277	2.7462e+01	10.9938	43.865498	0.000365	3.649132	1.236359	0.000146
 278	2.7561e+01	11.0355	44.010835	0.000365	3.649132	1.236359	0.000146
 279	2.7661e+01	11.0724	44.184432	0.000436	4.358686	1.476763	0.000174
 280	2.7761e+01	11.1157	44.309583	0.000314	3.142308	1.064643	0.000126
 281	2.7860e+01	11.1510	44.406475	0.000243	2.432755	0.824240	0.000097
 282	2.7959e+01	11.1879	44.571997	0.000416	4.155956	1.408076	0.000166
 283	2.8059e+01	11.2296	44.697148	0.000314	3.142308	1.064643	0.000126
 284	2.8159e+01	11.2681	44.826337	0.000324	3.243673	1.098986	0.000130
 285	2.8258e+01	11.3050	44.991859	0.000416	4.155956	1.408076	0.000166
 286	2.8358e+01	11.3516	45.133159	0.000355	3.547767	1.202016	0.000142
 287	2.8457e+01	11.3965	45.294644	0.000405	4.054591	1.373733	0.000162
 288	2.8556e+01	11.4302	45.427870	0.000335	3.345038	1.133329	0.000134
 289	2.8656e+01	11.4622	45.577244	0.000375	3.750497	1.270703	0.000150
 290	2.8756e+01	11.5023	45.698358	0.000304	3.040943	1.030300	0.000122
 291	2.8855e+01	11.5553	45.847732	0.000375	3.750497	1.270703	0.000150
 292	2.8954e+01	11.5922	45.993069	0.000365	3.649132	1.236359	0.000146
 293	2.9054e+01	11.6323	46.146480	0.000385	3.851862	1.305046	0.000154
 294	2.9154e+01	11.6740	46.251446	0.000264	2.635484	0.892926	0.000105
 295	2.9253e+01	11.7093	46.356411	0.000264	2.635484	0.892926	0.000105
 296	2.9352e+01	11.7430	46.530008	0.000436	4.358686	1.476763	0.000174
 297	2.9452e+01	11.7863	46.679382	0.000375	3.750497	1.270703	0.000150
 298	2.9552e+01	11.8248	46.832793	0.000385	3.851862	1.305046	0.000154
 299	2.9651e+01	11.8665	46.961981	0.000324	3.243673	1.098986	0.000130
 300	2.9750e+01	11.9018	47.099244	0.000345	3.446403	1.167673	0.000138
 301	2.9850e+01	11.9419	47.208247	0.000274	2.736849	0.927270	0.000110
 302	2.9950e+01	11.9965	47.373769	0.000416	4.155956	1.408076	0.000166
 303	3.0049e+01	12.0301	47.531218	0.000395	3.953226	1.339389	0.000158
 304	3.0148e+01	12.0686	47.628109	0.000243	2.432755	0.824240	0.000097
 305	3.0248e+01	12.1104	47.801706	0.000436	4.358686	1.476763	0.000174
 306	3.0348e+01	12.1456	47.914746	0.000284	2.838214	0.961613	0.000114
 307	3.0447e+01	12.1890	48.035860	0.000304	3.040943	1.030300	0.000122
 308	3.0547e+01	12.2275	48.209456	0.000436	4.358686	1.476763	0.000174
 309	3.0646e+01	12.2692	48.342682	0.000335	3.345038	1.133329	0.000134
 310	3.0745e+01	12.3061	48.479945	0.000345	3.446403	1.167673	0.000138
 311	3.0845e+01	12.3430	48.588947	0.000274	2.736849	0.927270	0.000110
 312	3.0945e+01	12.3895	48.806953	0.000547	5.473698	1.854539	0.000219
 313	3.1044e+01	12.4344	48.887695	0.000203	2.027296	0.686866	0.000081
 314	3.1143e+01	12.4649	49.004772	0.000294	2.939579	0.995956	0.000118
 315	3.1243e+01	12.5034	49.146072	0.000355	3.547767	1.202016	0.000142
 316	3.1343e+01	12.5499	49.267186	0.000304	3.040943	1.030300	0.000122
 317	3.1442e+01	12.5868	49.396374	0.000324	3.243673	1.098986	0.000130
 318	3.1541e+01	12.6237	49.517488	0.000304	3.040943	1.030300	0.000122
 319	3.1641e+01	12.6686	49.646677	0.000324	3.243673	1.098986	0.000130
 320	3.1741e+01	12.7151	49.808162	0.000405	4.054591	1.373733	0.000162
 321	3.1840e+01	12.7424	49.921202	0.000284	2.838214	0.961613	0.000114
 322	3.1939e+01	12.7905	50.066539	0.000365	3.649132	1.236359	0.000146
 323	3.2039e+01	12.8339	50.151319	0.000213	2.128660	0.721210	0.000085
 324	3.2139e+01	12.8579	50.296656	0.000365	3.649132	1.236359	0.000146
 325	3.2238e+01	12.9109	50.482364	0.000466	4.662780	1.579793	0.000187
 326	3.2337e+01	12.9494	50.603478	0.000304	3.040943	1.030300	0.000122
 327	3.2437e+01	12.9815	50.736703	0.000335	3.345038	1.133329	0.000134
 328	3.2536e+01	13.0328	50.882040	0.000365	3.649132	1.236359	0.000146
 329	3.2636e+01	13.0617	50.974894	0.000233	2.331390	0.789896	0.000093
 330	3.2736e+01	13.1002	51.132343	0.000395	3.953226	1.339389	0.000158
 331	3.2835e+01	13.1387	51.221160	0.000223	2.230025	0.755553	0.000089
 332	3.2934e+01	13.1740	51.398794	0.000446	4.460050	1.511106	0.000179
 333	3.3034e+01	13.2237	51.532019	0.000335	3.345038	1.133329	0.000134
 334	3.3133e+01	13.2494	51.665245	0.000335	3.345038	1.133329	0.000134
 335	3.3233e+01	13.2911	51.758099	0.000233	2.331390	0.789896	0.000093
 336	3.3333e+01	13.3344	51.895361	0.000345	3.446403	1.167673	0.000138
 337	3.3432e+01	13.3889	52.060884	0.000416	4.155956	1.408076	0.000166
 338	3.3532e+01	13.4242	52.226406	0.000416	4.155956	1.408076	0.000166
 339	3.3631e+01	13.4547	52.323298	0.000243	2.432755	0.824240	0.000097
 340	3.3730e+01	13.4932	52.428263	0.000264	2.635484	0.892926	0.000105
 341	3.3830e+01	13.5397	52.605897	0.000446	4.460050	1.511106	0.000179
 342	3.3929e+01	13.5734	52.714900	0.000274	2.736849	0.927270	0.000110
 343	3.4029e+01	13.6215	52.872348	0.000395	3.953226	1.339389	0.000158
 344	3.4129e+01	13.6697	53.001537	0.000324	3.243673	1.098986	0.000130
 345	3.4228e+01	13.6969	53.106502	0.000264	2.635484	0.892926	0.000105
 346	3.4328e+01	13.7403	53.255876	0.000375	3.750497	1.270703	0.000150
 347	3.4427e+01	13.7820	53.397176	0.000355	3.547767	1.202016	0.000142
 348	3.4526e+01	13.8140	53.522327	0.000314	3.142308	1.064643	0.000126
 349	3.4626e+01	13.8542	53.639404	0.000294	2.939579	0.995956	0.000118
 350	3.4725e+01	13.8975	53.796852	0.000395	3.953226	1.339389	0.000158
 351	3.4825e+01	13.9408	53.885669	0.000223	2.230025	0.755553	0.000089
 352	3.4925e+01	13.9793	54.031006	0.000365	3.649132	1.236359	0.000146
 353	3.5024e+01	14.0194	54.152120	0.000304	3.040943	1.030300	0.000122
 354	3.5123e+01	14.0611	54.301494	0.000375	3.750497	1.270703	0.000150
 355	3.5223e+01	14.0980	54.414534	0.000284	2.838214	0.961613	0.000114
 356	3.5322e+01	14.1461	54.588131	0.000436	4.358686	1.476763	0.000174
 357	3.5422e+01	14.1702	54.660799	0.000182	1.824566	0.618180	0.000073
 358	3.5522e+01	14.2183	54.822285	0.000405	4.054591	1.373733	0.000162
 359	3.5621e+01	14.2600	54.947436	0.000314	3.142308	1.064643	0.000126
 360	3.5721e+01	14.3001	55.076624	0.000324	3.243673	1.098986	0.000130
 361	3.5820e+01	14.3338	55.193701	0.000294	2.939579	0.995956	0.000118
 362	3.5919e+01	14.3787	55.322890	0.000324	3.243673	1.098986	0.000130
 363	3.6019e+01	14.4188	55.423818	0.000253	2.534120	0.858583	0.000101
 364	3.6118e+01	14.4590	55.569155	0.000365	3.649132	1.236359	0.000146
 365	3.6218e+01	14.4926	55.698343	0.000324	3.243673	1.098986	0.000130
 366	3.6318e+01	14.5424	55.835606	0.000345	3.446403	1.167673	0.000138
 367	3.6417e+01	14.5664	55.968831	0.000335	3.345038	1.133329	0.000134
 368	3.6517e+01	14.6210	56.089945	0.000304	3.040943	1.030300	0.000122
 369	3.6616e+01	14.6659	56.202985	0.000284	2.838214	0.961613	0.000114
 370	3.6715e+01	14.7060	56.352359	0.000375	3.750497	1.270703	0.000150
 371	3.6815e+01	14.7381	56.465399	0.000284	2.838214	0.961613	0.000114
 372	3.6914e+01	14.7798	56.610736	0.000365	3.649132	1.236359	0.000146
 373	3.7014e+01	14.8183	56.707627	0.000243	2.432755	0.824240	0.000097
 374	3.7114e+01	14.8568	56.861038	0.000385	3.851862	1.305046	0.000154
 375	3.7213e+01	14.8873	56.957930	0.000243	2.432755	0.824240	0.000097
 376	3.7313e+01	14.9354	57.083081	0.000314	3.142308	1.064643	0.000126
 377	3.7412e+01	14.9739	57.196121	0.000284	2.838214	0.961613	0.000114
 378	3.7511e+01	15.0092	57.369717	0.000436	4.358686	1.476763	0.000174
 379	3.7611e+01	15.0493	57.478720	0.000274	2.736849	0.927270	0.000110
 380	3.7711e+01	15.1055	57.615983	0.000345	3.446403	1.167673	0.000138
 381	3.7810e+01	15.1343	57.753245	0.000345	3.446403	1.167673	0.000138
 382	3.7910e+01	15.1857	57.825914	0.000182	1.824566	0.618180	0.000073
 383	3.8009e+01	15.2113	57.987399	0.000405	4.054591	1.373733	0.000162
 384	3.8108e+01	15.2498	58.088328	0.000253	2.534120	0.858583	0.000101
 385	3.8208e+01	15.2819	58.225590	0.000345	3.446403	1.167673	0.000138
 386	3.8307e+01	15.3349	58.358816	0.000335	3.345038	1.133329	0.000134
 387	3.8407e+01	15.3798	58.471855	0.000284	2.838214	0.961613	0.000114
 388	3.8507e+01	15.4183	58.584895	0.000284	2.838214	0.961613	0.000114
 389	3.8606e+01	15.4616	58.685824	0.000253	2.534120	0.858583	0.000101
 390	3.8706e+01	15.4921	58.843272	0.000395	3.953226	1.339389	0.000158
 391	3.8805e+01	15.5322	58.988609	0.000365	3.649132	1.236359	0.000146
 392	3.8904e+01	15.5739	59.049166	0.000152	1.520472	0.515150	0.000061
 393	3.9004e+01	15.6220	59.251023	0.000507	5.068239	1.717166	0.000203
 394	3.9103e+01	15.6557	59.355988	0.000264	2.635484	0.892926	0.000105
 395	3.9203e+01	15.6894	59.416545	0.000152	1.520472	0.515150	0.000061
 396	3.9303e+01	15.7295	59.606291	0.000476	4.764145	1.614136	0.000191
 397	3.9402e+01	15.7728	59.695108	0.000223	2.230025	0.755553	0.000089
 398	3.9502e+01	15.8161	59.824296	0.000324	3.243673	1.098986	0.000130
 399	3.9601e+01	15.8498	59.949447	0.000314	3.142308	1.064643	0.000126
 400	3.9700e+01	15.8915	60.094784	0.000365	3.649132	1.236359	0.000146
 401	3.9800e+01	15.9300	60.215898	0.000304	3.040943	1.030300	0.000122
 402	3.9900e+01	15.9621	60.316826	0.000253	2.534120	0.858583	0.000101
 403	3.9999e+01	16.0070	60.450052	0.000335	3.345038	1.133329	0.000134
 404	4.0099e+01	16.0487	60.559055	0.000274	2.736849	0.927270	0.000110
 405	4.0198e+01	16.0921	60.676132	0.000294	2.939579	0.995956	0.000118
 406	4.0297e+01	16.1386	60.777060	0.000253	2.534120	0.858583	0.000101
 407	4.0397e+01	16.1659	60.958731	0.000456	4.561415	1.545449	0.000183
 408	4.0496e+01	16.2156	61.047548	0.000223	2.230025	0.755553	0.000089
 409	4.0596e+01	16.2541	61.168662	0.000304	3.040943	1.030300	0.000122
 410	4.0696e+01	16.2878	61.309962	0.000355	3.547767	1.202016	0.000142
 411	4.0795e+01	16.3247	61.439150	0.000324	3.243673	1.098986	0.000130
 412	4.0895e+01	16.3616	61.523930	0.000213	2.128660	0.721210	0.000085
 413	4.0994e+01	16.4113	61.653118	0.000324	3.243673	1.098986	0.000130
 414	4.1093e+01	16.4514	61.774232	0.000304	3.040943	1.030300	0.000122
 415	4.1193e+01	16.4819	61.883235	0.000274	2.736849	0.927270	0.000110
 416	4.1292e+01	16.5252	62.024535	0.000355	3.547767	1.202016	0.000142
 417	4.1392e+01	16.5669	62.133538	0.000274	2.736849	0.927270	0.000110
 418	4.1492e+01	16.6118	62.254652	0.000304	3.040943	1.030300	0.000122
 419	4.1591e+01	16.6487	62.371729	0.000294	2.939579	0.995956	0.000118
 420	4.1691e+01	16.6824	62.472657	0.000253	2.534120	0.858583	0.000101
 421	4.1790e+01	16.7289	62.605882	0.000335	3.345038	1.133329	0.000134
 422	4.1889e+01	16.7755	62.714885	0.000274	2.736849	0.927270	0.000110
 423	4.1989e+01	16.8124	62.844073	0.000324	3.243673	1.098986	0.000130
 424	4.2089e+01	16.8396	62.945002	0.000253	2.534120	0.858583	0.000101
 425	4.2188e+01	16.8781	63.090339	0.000365	3.649132	1.236359	0.000146
 426	4.2288e+01	16.9198	63.203379	0.000284	2.838214	0.961613	0.000114
 427	4.2387e+01	16.9760	63.280084	0.000193	1.925931	0.652523	0.000077
 428	4.2486e+01	17.0081	63.417347	0.000345	3.446403	1.167673	0.000138
 429	4.2586e+01	17.0434	63.546535	0.000324	3.243673	1.098986	0.000130
 430	4.2685e+01	17.0835	63.663612	0.000294	2.939579	0.995956	0.000118
 431	4.2785e+01	17.1300	63.776652	0.000284	2.838214	0.961613	0.000114
 432	4.2885e+01	17.1733	63.893729	0.000294	2.939579	0.995956	0.000118
 433	4.2984e+01	17.1990	63.998694	0.000264	2.635484	0.892926	0.000105
 434	4.3084e+01	17.2471	64.152105	0.000385	3.851862	1.305046	0.000154
 435	4.3183e+01	17.2856	64.212662	0.000152	1.520472	0.515150	0.000061
 436	4.3282e+01	17.3241	64.366074	0.000385	3.851862	1.305046	0.000154
 437	4.3382e+01	17.3658	64.491225	0.000314	3.142308	1.064643	0.000126
 438	4.3481e+01	17.4107	64.596190	0.000264	2.635484	0.892926	0.000105
 439	4.3581e+01	17.4573	64.725379	0.000324	3.243673	1.098986	0.000130
 440	4.3681e+01	17.4765	64.834381	0.000274	2.736849	0.927270	0.000110
 441	4.3780e+01	17.5327	64.955495	0.000304	3.040943	1.030300	0.000122
 442	4.3880e+01	17.5535	65.060461	0.000264	2.635484	0.892926	0.000105
 443	4.3979e+01	17.6097	65.177538	0.000294	2.939579	0.995956	0.000118
 444	4.4078e+01	17.6289	65.286541	0.000274	2.736849	0.927270	0.000110
 445	4.4178e+01	17.6802	65.427840	0.000355	3.547767	1.202016	0.000142
 446	4.4278e+01	17.7204	65.528769	0.000253	2.534120	0.858583	0.000101
 447	4.4377e+01	17.7717	65.637771	0.000274	2.736849	0.927270	0.000110
 448	4.4477e+01	17.8054	65.754848	0.000294	2.939579	0.995956	0.000118
 449	4.4576e+01	17.8407	65.892111	0.000345	3.446403	1.167673	0.000138
 450	4.4675e+01	17.8824	65.976891	0.000213	2.128660	0.721210	0.000085
 451	4.4775e+01	17.9257	66.085893	0.000274	2.736849	0.927270	0.000110
 452	4.4874e+01	17.9642	66.162599	0.000193	1.925931	0.652523	0.000077
 453	4.4974e+01	17.9963	66.324084	0.000405	4.054591	1.373733	0.000162
 454	4.5074e+01	18.0508	66.420976	0.000243	2.432755	0.824240	0.000097
 455	4.5173e+01	18.0845	66.542090	0.000304	3.040943	1.030300	0.000122
 456	4.5273e+01	18.1182	66.655130	0.000284	2.838214	0.961613	0.000114
 457	4.5372e+01	18.1663	66.816615	0.000405	4.054591	1.373733	0.000162
 458	4.5471e+01	18.1888	66.901395	0.000213	2.128660	0.721210	0.000085
 459	4.5571e+01	18.2433	67.042695	0.000355	3.547767	1.202016	0.000142
 460	4.5670e+01	18.2915	67.111326	0.000172	1.723201	0.583836	0.000069
 461	4.5770e+01	18.3203	67.256663	0.000365	3.649132	1.236359	0.000146
 462	4.5870e+01	18.3588	67.369703	0.000284	2.838214	0.961613	0.000114
 463	4.5969e+01	18.4038	67.418148	0.000122	1.216377	0.412120	0.000049
 464	4.6069e+01	18.4326	67.587708	0.000426	4.257321	1.442419	0.000170
 465	4.6168e+01	18.4808	67.676525	0.000223	2.230025	0.755553	0.000089
 466	4.6267e+01	18.5193	67.813788	0.000345	3.446403	1.167673	0.000138
 467	4.6367e+01	18.5610	67.922790	0.000274	2.736849	0.927270	0.000110
 468	4.6467e+01	18.6059	68.007570	0.000213	2.128660	0.721210	0.000085
 469	4.6566e+01	18.6412	68.165018	0.000395	3.953226	1.339389	0.000158
 470	4.6666e+01	18.6861	68.278058	0.000284	2.838214	0.961613	0.000114
 471	4.6765e+01	18.7262	68.354764	0.000193	1.925931	0.652523	0.000077
 472	4.6864e+01	18.7679	68.471841	0.000294	2.939579	0.995956	0.000118
 473	4.6964e+01	18.7936	68.596992	0.000314	3.142308	1.064643	0.000126
 474	4.7063e+01	18.8385	68.677735	0.000203	2.027296	0.686866	0.000081
 475	4.7163e+01	18.8770	68.806923	0.000324	3.243673	1.098986	0.000130
 476	4.7263e+01	18.9267	68.964371	0.000395	3.953226	1.339389	0.000158
 477	4.7362e+01	18.9588	69.057225	0.000233	2.331390	0.789896	0.000093
 478	4.7462e+01	18.9973	69.158154	0.000253	2.534120	0.858583	0.000101
 479	4.7561e+01	19.0342	69.275231	0.000294	2.939579	0.995956	0.000118
 480	4.7660e+01	19.0791	69.376159	0.000253	2.534120	0.858583	0.000101
 481	4.7760e+01	19.1192	69.525533	0.000375	3.750497	1.270703	0.000150
 482	4.7859e+01	19.1529	69.549756	0.000061	0.608189	0.206060	0.000024
 483	4.7959e+01	19.1930	69.703167	0.000385	3.851862	1.305046	0.000154
 484	4.8059e+01	19.2331	69.832355	0.000324	3.243673	1.098986	0.000130
 485	4.8158e+01	19.2700	69.941358	0.000274	2.736849	0.927270	0.000110
 486	4.8258e+01	19.3182	70.042286	0.000253	2.534120	0.858583	0.000101
 487	4.8357e+01	19.3583	70.147252	0.000264	2.635484	0.892926	0.000105
 488	4.8456e+01	19.4048	70.252218	0.000264	2.635484	0.892926	0.000105
 489	4.8556e+01	19.4305	70.373332	0.000304	3.040943	1.030300	0.000122
 490	4.8656e+01	19.4802	70.441963	0.000172	1.723201	0.583836	0.000069
 491	4.8755e+01	19.5171	70.587300	0.000365	3.649132	1.236359	0.000146
 492	4.8855e+01	19.5620	70.712451	0.000314	3.142308	1.064643	0.000126
 493	4.8954e+01	19.5957	70.829528	0.000294	2.939579	0.995956	0.000118
 494	4.9053e+01	19.6390	70.930456	0.000253	2.534120	0.858583	0.000101
 495	4.9153e+01	19.6807	71.031385	0.000253	2.534120	0.858583	0.000101
 496	4.9252e+01	19.7176	71.132313	0.000253	2.534120	0.858583	0.000101
 497	4.9352e+01	19.7577	71.233242	0.000253	2.534120	0.858583	0.000101
 498	4.9452e+01	19.7930	71.342244	0.000274	2.736849	0.927270	0.000110
 499	4.9551e+01	19.8444	71.475470	0.000335	3.345038	1.133329	0.000134
 500	4.9651e+01	19.8748	71.548138	0.000182	1.824566	0.618180	0.000073
 501	4.9750e+01	19.9069	71.689438	0.000355	3.547767	1.202016	0.000142
 502	4.9849e+01	19.9567	71.778255	0.000223	2.230025	0.755553	0.000089
 503	4.9949e+01	19.9952	71.915517	0.000345	3.446403	1.167673	0.000138
 504	5.0048e+01	19.9599	71.826700	0.000223	2.230025	0.755553	-0.000089
 505	5.0148e+01	19.9133	71.697512	0.000324	3.243673	1.098986	-0.000130
 506	5.0248e+01	19.8780	71.624844	0.000182	1.824566	0.618180	-0.000073
 507	5.0347e+01	19.8331	71.540064	0.000213	2.128660	0.721210	-0.000085
 508	5.0447e+01	19.7994	71.467395	0.000182	1.824566	0.618180	-0.000073
 509	5.0546e+01	19.7529	71.414913	0.000132	1.317742	0.446463	-0.000053
 510	5.0645e+01	19.7176	71.301873	0.000284	2.838214	0.961613	-0.000114
 511	5.0745e+01	19.6727	71.140387	0.000405	4.054591	1.373733	-0.000162
 512	5.0844e+01	19.6422	71.087905	0.000132	1.317742	0.446463	-0.000053
 513	5.0944e+01	19.6037	71.031385	0.000142	1.419107	0.480806	-0.000057
 514	5.1044e+01	19.5540	70.914308	0.000294	2.939579	0.995956	-0.000118
 515	5.1143e+01	19.5171	70.813379	0.000253	2.534120	0.858583	-0.000101
 516	5.1242e+01	19.4818	70.732637	0.000203	2.027296	0.686866	-0.000081
 517	5.1342e+01	19.4433	70.635745	0.000243	2.432755	0.824240	-0.000097
 518	5.1441e+01	19.3936	70.546928	0.000223	2.230025	0.755553	-0.000089
 519	5.1541e+01	19.3551	70.458111	0.000223	2.230025	0.755553	-0.000089
 520	5.1641e+01	19.3246	70.389480	0.000172	1.723201	0.583836	-0.000069
 521	5.1740e+01	19.2765	70.276440	0.000284	2.838214	0.961613	-0.000114
 522	5.1840e+01	19.2460	70.183586	0.000233	2.331390	0.789896	-0.000093
 523	5.1939e+01	19.2011	70.054398	0.000324	3.243673	1.098986	-0.000130
 524	5.2038e+01	19.1642	69.993841	0.000152	1.520472	0.515150	-0.000061
 525	5.2138e+01	19.1144	69.872727	0.000304	3.040943	1.030300	-0.000122
 526	5.2237e+01	19.0872	69.787947	0.000213	2.128660	0.721210	-0.000085
 527	5.2337e+01	19.0422	69.650684	0.000345	3.446403	1.167673	-0.000138
 528	5.2437e+01	18.9941	69.586090	0.000162	1.621836	0.549493	-0.000065
 529	5.2536e+01	18.9508	69.485162	0.000253	2.534120	0.858583	-0.000101
 530	5.2636e+01	18.9187	69.416530	0.000172	1.723201	0.583836	-0.000069
 531	5.2735e+01	18.8802	69.287342	0.000324	3.243673	1.098986	-0.000130
 532	5.2834e+01	18.8369	69.226785	0.000152	1.520472	0.515150	-0.000061
 533	5.2934e+01	18.8000	69.113745	0.000284	2.838214	0.961613	-0.000114
 534	5.3033e+01	18.7631	69.016854	0.000243	2.432755	0.824240	-0.000097
 535	5.3133e+01	18.7294	68.907851	0.000274	2.736849	0.927270	-0.000110
 536	5.3233e+01	18.6781	68.823071	0.000213	2.128660	0.721210	-0.000085
 537	5.3332e+01	18.6364	68.726180	0.000243	2.432755	0.824240	-0.000097
 538	5.3431e+01	18.6027	68.617178	0.000274	2.736849	0.927270	-0.000110
 539	5.3531e+01	18.5642	68.516249	0.000253	2.534120	0.858583	-0.000101
 540	5.3630e+01	18.5353	68.435506	0.000203	2.027296	0.686866	-0.000081
 541	5.3730e+01	18.4840	68.310355	0.000314	3.142308	1.064643	-0.000126
 542	5.3830e+01	18.4423	68.225575	0.000213	2.128660	0.721210	-0.000085
 543	5.3929e+01	18.4070	68.108498	0.000294	2.939579	0.995956	-0.000118
 544	5.4029e+01	18.3669	68.047941	0.000152	1.520472	0.515150	-0.000061
 545	5.4128e+01	18.3252	67.930864	0.000294	2.939579	0.995956	-0.000118
 546	5.4227e+01	18.2834	67.829936	0.000253	2.534120	0.858583	-0.000101
 547	5.4327e+01	18.2353	67.708822	0.000304	3.040943	1.030300	-0.000122
 548	5.4426e+01	18.2080	67.636154	0.000182	1.824566	0.618180	-0.000073
 549	5.4526e+01	18.1679	67.506965	0.000324	3.243673	1.098986	-0.000130
 550	5.4626e+01	18.1198	67.418148	0.000223	2.230025	0.755553	-0.000089
 551	5.4725e+01	18.0861	67.313183	0.000264	2.635484	0.892926	-0.000105
 552	5.4825e+01	18.0380	67.208217	0.000264	2.635484	0.892926	-0.000105
 553	5.4924e+01	17.9963	67.123437	0.000213	2.128660	0.721210	-0.000085
 554	5.5023e+01	17.9690	67.014435	0.000274	2.736849	0.927270	-0.000110
 555	5.5123e+01	17.9289	66.917543	0.000243	2.432755	0.824240	-0.000097
 556	5.5222e+01	17.8824	66.836801	0.000203	2.027296	0.686866	-0.000081
 557	5.5322e+01	17.8407	66.727798	0.000274	2.736849	0.927270	-0.000110
 558	5.5422e+01	17.8022	66.586498	0.000355	3.547767	1.202016	-0.000142
 559	5.5521e+01	17.7653	66.497681	0.000223	2.230025	0.755553	-0.000089
 560	5.5620e+01	17.7155	66.408864	0.000223	2.230025	0.755553	-0.000089
 561	5.5720e+01	17.6899	66.263527	0.000365	3.649132	1.236359	-0.000146
 562	5.5819e+01	17.6434	66.146450	0.000294	2.939579	0.995956	-0.000118
 563	5.5919e+01	17.5936	66.138376	0.000020	0.202730	0.068687	-0.000008
 564	5.6019e+01	17.5663	65.956705	0.000456	4.561415	1.545449	-0.000183
 565	5.6118e+01	17.5295	65.904222	0.000132	1.317742	0.446463	-0.000053
 566	5.6218e+01	17.4926	65.807331	0.000243	2.432755	0.824240	-0.000097
 567	5.6317e+01	17.4492	65.678143	0.000324	3.243673	1.098986	-0.000130
 568	5.6416e+01	17.4075	65.601437	0.000193	1.925931	0.652523	-0.000077
 569	5.6516e+01	17.3674	65.504546	0.000243	2.432755	0.824240	-0.000097
 570	5.6615e+01	17.3241	65.355172	0.000375	3.750497	1.270703	-0.000150
 571	5.6715e+01	17.2856	65.258281	0.000243	2.432755	0.824240	-0.000097
 572	5.6815e+01	17.2423	65.185612	0.000182	1.824566	0.618180	-0.000073
 573	5.6914e+01	17.2086	65.044312	0.000355	3.547767	1.202016	-0.000142
 574	5.7014e+01	17.1653	64.967607	0.000193	1.925931	0.652523	-0.000077
 575	5.7113e+01	17.1268	64.854567	0.000284	2.838214	0.961613	-0.000114
 576	5.7212e+01	17.0851	64.729416	0.000314	3.142308	1.064643	-0.000126
 577	5.7312e+01	17.0466	64.685007	0.000112	1.115013	0.377776	-0.000045
 578	5.7411e+01	17.0097	64.519485	0.000416	4.155956	1.408076	-0.000166
 579	5.7511e+01	16.9744	64.438742	0.000203	2.027296	0.686866	-0.000081
 580	5.7611e+01	16.9134	64.325702	0.000284	2.838214	0.961613	-0.000114
 581	5.7710e+01	16.8926	64.240922	0.000213	2.128660	0.721210	-0.000085
 582	5.7809e+01	16.8541	64.123845	0.000294	2.939579	0.995956	-0.000118
 583	5.7909e+01	16.8059	64.035029	0.000223	2.230025	0.755553	-0.000089
 584	5.8008e+01	16.7626	63.926026	0.000274	2.736849	0.927270	-0.000110
 585	5.8108e+01	16.7354	63.764540	0.000405	4.054591	1.373733	-0.000162
 586	5.8208e+01	16.6936	63.703983	0.000152	1.520472	0.515150	-0.000061
 587	5.8307e+01	16.6535	63.558646	0.000365	3.649132	1.236359	-0.000146
 588	5.8407e+01	16.6102	63.494052	0.000162	1.621836	0.549493	-0.000065
 589	5.8506e+01	16.5701	63.364864	0.000324	3.243673	1.098986	-0.000130
 590	5.8605e+01	16.5220	63.211453	0.000385	3.851862	1.305046	-0.000154
 591	5.8705e+01	16.4819	63.158970	0.000132	1.317742	0.446463	-0.000053
 592	5.8804e+01	16.4562	63.033819	0.000314	3.142308	1.064643	-0.000126
 593	5.8904e+01	16.4049	62.928853	0.000264	2.635484	0.892926	-0.000105
 594	5.9004e+01	16.3632	62.835999	0.000233	2.331390	0.789896	-0.000093
 595	5.9103e+01	16.3343	62.698737	0.000345	3.446403	1.167673	-0.000138
 596	5.9203e+01	16.2942	62.581660	0.000294	2.939579	0.995956	-0.000118
 597	5.9302e+01	16.2429	62.500917	0.000203	2.027296	0.686866	-0.000081
 598	5.9401e+01	16.2204	62.383840	0.000294	2.939579	0.995956	-0.000118
 599	5.9501e+01	16.1691	62.319246	0.000162	1.621836	0.549493	-0.000065
 600	5.9600e+01	16.1354	62.173909	0.000365	3.649132	1.236359	-0.000146
 601	5.9700e+01	16.0872	62.089129	0.000213	2.128660	0.721210	-0.000085
 602	5.9800e+01	16.0520	61.968015	0.000304	3.040943	1.030300	-0.000122
 603	5.9899e+01	16.0151	61.867087	0.000253	2.534120	0.858583	-0.000101
 604	5.9998e+01	15.9637	61.721750	0.000365	3.649132	1.236359	-0.000146
 605	6.0098e+01	15.9284	61.632933	0.000223	2.230025	0.755553	-0.000089
 606	6.0197e+01	15.8979	61.507782	0.000314	3.142308	1.064643	-0.000126
 607	6.0297e+01	15.8594	61.386667	0.000304	3.040943	1.030300	-0.000122
 608	6.0397e+01	15.8113	61.305925	0.000203	2.027296	0.686866	-0.000081
 609	6.0496e+01	15.7792	61.192885	0.000284	2.838214	0.961613	-0.000114
 610	6.0596e+01	15.7327	61.067734	0.000314	3.142308	1.064643	-0.000126
 611	6.0695e+01	15.6990	60.950657	0.000294	2.939579	0.995956	-0.000118
 612	6.0794e+01	15.6541	60.841654	0.000274	2.736849	0.927270	-0.000110
 613	6.0894e+01	15.6124	60.740726	0.000253	2.534120	0.858583	-0.000101
 614	6.0993e+01	15.5851	60.615575	0.000314	3.142308	1.064643	-0.000126
 615	6.1093e+01	15.5418	60.506572	0.000274	2.736849	0.927270	-0.000110
 616	6.1193e+01	15.4905	60.417755	0.000223	2.230025	0.755553	-0.000089
 617	6.1292e+01	15.4456	60.276455	0.000355	3.547767	1.202016	-0.000142
 618	6.1392e+01	15.4151	60.223972	0.000132	1.317742	0.446463	-0.000053
 619	6.1491e+01	15.3750	60.078635	0.000365	3.649132	1.236359	-0.000146
 620	6.1590e+01	15.3268	59.977707	0.000253	2.534120	0.858583	-0.000101
 621	6.1690e+01	15.2948	59.836407	0.000355	3.547767	1.202016	-0.000142
 622	6.1789e+01	15.2530	59.775850	0.000152	1.520472	0.515150	-0.000061
 623	6.1889e+01	15.2210	59.654736	0.000304	3.040943	1.030300	-0.000122
 624	6.1989e+01	15.1760	59.565919	0.000223	2.230025	0.755553	-0.000089
 625	6.2088e+01	15.1327	59.396360	0.000426	4.257321	1.442419	-0.000170
 626	6.2188e+01	15.0878	59.271208	0.000314	3.142308	1.064643	-0.000126
 627	6.2287e+01	15.0541	59.186428	0.000213	2.128660	0.721210	-0.000085
 628	6.2386e+01	15.0172	59.089537	0.000243	2.432755	0.824240	-0.000097
 629	6.2486e+01	14.9771	58.952275	0.000345	3.446403	1.167673	-0.000138
 630	6.2586e+01	14.9370	58.843272	0.000274	2.736849	0.927270	-0.000110
 631	6.2685e+01	14.8921	58.730232	0.000284	2.838214	0.961613	-0.000114
 632	6.2785e+01	14.8600	58.625267	0.000264	2.635484	0.892926	-0.000105
 633	6.2884e+01	14.8199	58.463781	0.000405	4.054591	1.373733	-0.000162
 634	6.2983e+01	14.7830	58.383038	0.000203	2.027296	0.686866	-0.000081
 635	6.3083e+01	14.7381	58.286147	0.000243	2.432755	0.824240	-0.000097
 636	6.3182e+01	14.7092	58.144847	0.000355	3.547767	1.202016	-0.000142
 637	6.3282e+01	14.6515	58.072179	0.000182	1.824566	0.618180	-0.000073
 638	6.3382e+01	14.6274	57.938954	0.000335	3.345038	1.133329	-0.000134
 639	6.3481e+01	14.5793	57.829951	0.000274	2.736849	0.927270	-0.000110
 640	6.3581e+01	14.5343	57.716911	0.000284	2.838214	0.961613	-0.000114
 641	6.3680e+01	14.5007	57.559463	0.000395	3.953226	1.339389	-0.000158
 642	6.3779e+01	14.4461	57.494869	0.000162	1.621836	0.549493	-0.000065
 643	6.3879e+01	14.4269	57.353569	0.000355	3.547767	1.202016	-0.000142
 644	6.3978e+01	14.3755	57.244566	0.000274	2.736849	0.927270	-0.000110
 645	6.4078e+01	14.3386	57.127489	0.000294	2.939579	0.995956	-0.000118
 646	6.4177e+01	14.2969	57.010412	0.000294	2.939579	0.995956	-0.000118
 647	6.4277e+01	14.2584	56.909484	0.000253	2.534120	0.858583	-0.000101
 648	6.4376e+01	14.2151	56.760110	0.000375	3.750497	1.270703	-0.000150
 649	6.4476e+01	14.1750	56.675330	0.000213	2.128660	0.721210	-0.000085
 650	6.4576e+01	14.1301	56.550179	0.000314	3.142308	1.064643	-0.000126
 651	6.4675e+01	14.0852	56.441176	0.000274	2.736849	0.927270	-0.000110
 652	6.4775e+01	14.0547	56.340248	0.000253	2.534120	0.858583	-0.000101
 653	6.4874e+01	14.0162	56.174725	0.000416	4.155956	1.408076	-0.000166
 654	6.4974e+01	13.9857	56.089945	0.000213	2.128660	0.721210	-0.000085
 655	6.5073e+01	13.9376	55.956720	0.000335	3.345038	1.133329	-0.000134
 656	6.5172e+01	13.9055	55.823494	0.000335	3.345038	1.133329	-0.000134
 657	6.5272e+01	13.8542	55.694306	0.000324	3.243673	1.098986	-0.000130
 658	6.5371e+01	13.8140	55.637786	0.000142	1.419107	0.480806	-0.000057
 659	6.5471e+01	13.7739	55.504561	0.000335	3.345038	1.133329	-0.000134
 660	6.5570e+01	13.7354	55.391521	0.000284	2.838214	0.961613	-0.000114
 661	6.5670e+01	13.6985	55.225998	0.000416	4.155956	1.408076	-0.000166
 662	6.5769e+01	13.6584	55.141218	0.000213	2.128660	0.721210	-0.000085
 663	6.5869e+01	13.6199	55.036253	0.000264	2.635484	0.892926	-0.000105
 664	6.5969e+01	13.5846	54.927250	0.000274	2.736849	0.927270	-0.000110
 665	6.6068e+01	13.5381	54.769802	0.000395	3.953226	1.339389	-0.000158
 666	6.6168e+01	13.4948	54.668874	0.000253	2.534120	0.858583	-0.000101
 667	6.6267e+01	13.4611	54.563908	0.000264	2.635484	0.892926	-0.000105
 668	6.6367e+01	13.4226	54.438757	0.000314	3.142308	1.064643	-0.000126
 669	6.6466e+01	13.3793	54.317643	0.000304	3.040943	1.030300	-0.000122
 670	6.6566e+01	13.3408	54.196529	0.000304	3.040943	1.030300	-0.000122
 671	6.6665e+01	13.2959	54.075415	0.000304	3.040943	1.030300	-0.000122
 672	6.6764e+01	13.2702	53.922003	0.000385	3.851862	1.305046	-0.000154
 673	6.6864e+01	13.2141	53.829149	0.000233	2.331390	0.789896	-0.000093
 674	6.6963e+01	13.1756	53.695924	0.000335	3.345038	1.133329	-0.000134
 675	6.7063e+01	13.1435	53.590958	0.000264	2.635484	0.892926	-0.000105
 676	6.7162e+01	13.0954	53.477919	0.000284	2.838214	0.961613	-0.000114
 677	6.7262e+01	13.0617	53.352767	0.000314	3.142308	1.064643	-0.000126
 678	6.7362e+01	13.0328	53.239728	0.000284	2.838214	0.961613	-0.000114
 679	6.7461e+01	12.9879	53.094391	0.000365	3.649132	1.236359	-0.000146
 680	6.7561e+01	12.9381	53.017685	0.000193	1.925931	0.652523	-0.000077
 681	6.7660e+01	12.9028	52.884460	0.000335	3.345038	1.133329	-0.000134
 682	6.7760e+01	12.8659	52.751234	0.000335	3.345038	1.133329	-0.000134
 683	6.7859e+01	12.8290	52.630120	0.000304	3.040943	1.030300	-0.000122
 684	6.7959e+01	12.7938	52.517080	0.000284	2.838214	0.961613	-0.000114
 685	6.8058e+01	12.7488	52.408078	0.000274	2.736849	0.927270	-0.000110
 686	6.8157e+01	12.7087	52.303112	0.000264	2.635484	0.892926	-0.000105
 687	6.8257e+01	12.6654	52.105292	0.000497	4.966874	1.682823	-0.000199
 688	6.8356e+01	12.6269	51.984178	0.000304	3.040943	1.030300	-0.000122
 689	6.8456e+01	12.5948	51.927658	0.000142	1.419107	0.480806	-0.000057
 690	6.8555e+01	12.5483	51.810581	0.000294	2.939579	0.995956	-0.000118
 691	6.8655e+01	12.5098	51.657170	0.000385	3.851862	1.305046	-0.000154
 692	6.8754e+01	12.4745	51.507796	0.000375	3.750497	1.270703	-0.000150
 693	6.8854e+01	12.4248	51.459351	0.000122	1.216377	0.412120	-0.000049
 694	6.8954e+01	12.3863	51.249420	0.000527	5.270969	1.785853	-0.000211
 695	6.9053e+01	12.3430	51.172714	0.000193	1.925931	0.652523	-0.000077
 696	6.9153e+01	12.2997	51.055637	0.000294	2.939579	0.995956	-0.000118
 697	6.9252e+01	12.2660	50.914337	0.000355	3.547767	1.202016	-0.000142
 698	6.9352e+01	12.2307	50.781112	0.000335	3.345038	1.133329	-0.000134
 699	6.9451e+01	12.1841	50.676146	0.000264	2.635484	0.892926	-0.000105
 700	6.9550e+01	12.1537	50.530809	0.000365	3.649132	1.236359	-0.000146
 701	6.9650e+01	12.1087	50.389510	0.000355	3.547767	1.202016	-0.000142
 702	6.9749e+01	12.0735	50.284544	0.000264	2.635484	0.892926	-0.000105
 703	6.9849e+01	12.0269	50.151319	0.000335	3.345038	1.133329	-0.000134
 704	6.9948e+01	11.9965	50.001945	0.000375	3.750497	1.270703	-0.000150
 705	7.0048e+01	11.9580	49.929276	0.000182	1.824566	0.618180	-0.000073
 706	7.0147e+01	11.9082	49.792014	0.000345	3.446403	1.167673	-0.000138
 707	7.0247e+01	11.8761	49.678974	0.000284	2.838214	0.961613	-0.000114
 708	7.0347e+01	11.8296	49.525563	0.000385	3.851862	1.305046	-0.000154
 709	7.0446e+01	11.7959	49.384263	0.000355	3.547767	1.202016	-0.000142
 710	7.0546e+01	11.7494	49.263149	0.000304	3.040943	1.030300	-0.000122
 711	7.0645e+01	11.7061	49.146072	0.000294	2.939579	0.995956	-0.000118
 712	7.0745e+01	11.6692	49.004772	0.000355	3.547767	1.202016	-0.000142
 713	7.0844e+01	11.6355	48.899807	0.000264	2.635484	0.892926	-0.000105
 714	7.0944e+01	11.5874	48.770618	0.000324	3.243673	1.098986	-0.000130
 715	7.1043e+01	11.5521	48.673727	0.000243	2.432755	0.824240	-0.000097
 716	7.1142e+01	11.5104	48.520316	0.000385	3.851862	1.305046	-0.000154
 717	7.1242e+01	11.4703	48.383053	0.000345	3.446403	1.167673	-0.000138
 718	7.1341e+01	11.4286	48.249828	0.000335	3.345038	1.133329	-0.000134
 719	7.1441e+01	11.3884	48.128714	0.000304	3.040943	1.030300	-0.000122
 720	7.1540e+01	11.3580	48.015674	0.000284	2.838214	0.961613	-0.000114
 721	7.1640e+01	11.3163	47.886486	0.000324	3.243673	1.098986	-0.000130
 722	7.1740e+01	11.2617	47.737112	0.000375	3.750497	1.270703	-0.000150
 723	7.1839e+01	11.2296	47.599849	0.000345	3.446403	1.167673	-0.000138
 724	7.1939e+01	11.1879	47.486809	0.000284	2.838214	0.961613	-0.000114
 725	7.2038e+01	11.1446	47.353584	0.000335	3.345038	1.133329	-0.000134
 726	7.2138e+01	11.1157	47.240544	0.000284	2.838214	0.961613	-0.000114
 727	7.2237e+01	11.0660	47.046761	0.000487	4.865509	1.648479	-0.000195
 728	7.2337e+01	11.0275	46.978130	0.000172	1.723201	0.583836	-0.000069
 729	7.2436e+01	10.9986	46.852979	0.000314	3.142308	1.064643	-0.000126
 730	7.2535e+01	10.9537	46.703605	0.000375	3.750497	1.270703	-0.000150
 731	7.2635e+01	10.9152	46.586528	0.000294	2.939579	0.995956	-0.000118
 732	7.2734e+01	10.8799	46.449265	0.000345	3.446403	1.167673	-0.000138
 733	7.2834e+01	10.8334	46.316040	0.000335	3.345038	1.133329	-0.000134
 734	7.2933e+01	10.8013	46.190889	0.000314	3.142308	1.064643	-0.000126
 735	7.3033e+01	10.7435	46.049589	0.000355	3.547767	1.202016	-0.000142
 736	7.3132e+01	10.7243	45.948660	0.000253	2.534120	0.858583	-0.000101
 737	7.3232e+01	10.6746	45.815435	0.000335	3.345038	1.133329	-0.000134
 738	7.3332e+01	10.6425	45.670098	0.000365	3.649132	1.236359	-0.000146
 739	7.3431e+01	10.5863	45.504575	0.000416	4.155956	1.408076	-0.000166
 740	7.3531e+01	10.5510	45.415758	0.000223	2.230025	0.755553	-0.000089
 741	7.3630e+01	10.5029	45.262347	0.000385	3.851862	1.305046	-0.000154
 742	7.3730e+01	10.4660	45.133159	0.000324	3.243673	1.098986	-0.000130
 743	7.3829e+01	10.4339	45.040305	0.000233	2.331390	0.789896	-0.000093
 744	7.3928e+01	10.3970	44.862671	0.000446	4.460050	1.511106	-0.000179
 745	7.4028e+01	10.3537	44.725408	0.000345	3.446403	1.167673	-0.000138
 746	7.4127e+01	10.3184	44.616406	0.000274	2.736849	0.927270	-0.000110
 747	7.4227e+01	10.2815	44.479143	0.000345	3.446403	1.167673	-0.000138
 748	7.4326e+01	10.2270	44.313620	0.000416	4.155956	1.408076	-0.000166
 749	7.4426e+01	10.1949	44.232878	0.000203	2.027296	0.686866	-0.000081
 750	7.4525e+01	10.1628	44.091578	0.000355	3.547767	1.202016	-0.000142
 751	7.4625e+01	10.1323	43.954315	0.000345	3.446403	1.167673	-0.000138
 752	7.4725e+01	10.0762	43.792830	0.000405	4.054591	1.373733	-0.000162
 753	7.4824e+01	10.0441	43.667679	0.000314	3.142308	1.064643	-0.000126
 754	7.4924e+01	9.9992	43.522342	0.000365	3.649132	1.236359	-0.000146
 755	7.5023e+01	9.9495	43.356819	0.000416	4.155956	1.408076	-0.000166
 756	7.5123e+01	9.9142	43.268002	0.000223	2.230025	0.755553	-0.000089
 757	7.5222e+01	9.8757	43.122665	0.000365	3.649132	1.236359	-0.000146
 758	7.5322e+01	9.8404	42.953106	0.000426	4.257321	1.442419	-0.000170
 759	7.5421e+01	9.7858	42.860252	0.000233	2.331390	0.789896	-0.000093
 760	7.5520e+01	9.7618	42.727026	0.000335	3.345038	1.133329	-0.000134
 761	7.5620e+01	9.7168	42.593801	0.000335	3.345038	1.133329	-0.000134
 762	7.5719e+01	9.6799	42.428278	0.000416	4.155956	1.408076	-0.000166
 763	7.5819e+01	9.6446	42.303127	0.000314	3.142308	1.064643	-0.000126
 764	7.5918e+01	9.5933	42.153753	0.000375	3.750497	1.270703	-0.000150
 765	7.6018e+01	9.5580	41.996305	0.000395	3.953226	1.339389	-0.000158
 766	7.6118e+01	9.5083	41.911525	0.000213	2.128660	0.721210	-0.000085
 767	7.6217e+01	9.4794	41.737928	0.000436	4.358686	1.476763	-0.000174
 768	7.6317e+01	9.4505	41.596628	0.000355	3.547767	1.202016	-0.000142
 769	7.6416e+01	9.3960	41.475514	0.000304	3.040943	1.030300	-0.000122
 770	7.6516e+01	9.3543	41.358437	0.000294	2.939579	0.995956	-0.000118
 771	7.6615e+01	9.3222	41.176766	0.000456	4.561415	1.545449	-0.000183
 772	7.6715e+01	9.2789	41.031429	0.000365	3.649132	1.236359	-0.000146
 773	7.6814e+01	9.2356	40.906278	0.000314	3.142308	1.064643	-0.000126
 774	7.6913e+01	9.2115	40.817461	0.000223	2.230025	0.755553	-0.000089
 775	7.7013e+01	9.1634	40.615604	0.000507	5.068239	1.717166	-0.000203
 776	7.7112e+01	9.1201	40.474304	0.000355	3.547767	1.202016	-0.000142
 777	7.7212e+01	9.0751	40.369339	0.000264	2.635484	0.892926	-0.000105
 778	7.7311e+01	9.0527	40.228039	0.000355	3.547767	1.202016	-0.000142
 779	7.7411e+01	8.9981	40.082702	0.000365	3.649132	1.236359	-0.000146
 780	7.7510e+01	8.9532	39.925254	0.000395	3.953226	1.339389	-0.000158
 781	7.7610e+01	8.9243	39.808177	0.000294	2.939579	0.995956	-0.000118
 782	7.7710e+01	8.8826	39.687063	0.000304	3.040943	1.030300	-0.000122
 783	7.7809e+01	8.8313	39.513466	0.000436	4.358686	1.476763	-0.000174
 784	7.7909e+01	8.7928	39.368129	0.000365	3.649132	1.236359	-0.000146
 785	7.8008e+01	8.7543	39.218755	0.000375	3.750497	1.270703	-0.000150
 786	7.8108e+01	8.7254	39.065344	0.000385	3.851862	1.305046	-0.000154
 787	7.8207e+01	8.6789	38.968453	0.000243	2.432755	0.824240	-0.000097
 788	7.8306e+01	8.6372	38.806967	0.000405	4.054591	1.373733	-0.000162
 789	7.8406e+01	8.6003	38.625296	0.000456	4.561415	1.545449	-0.000183
 790	7.8505e+01	8.5634	38.532442	0.000233	2.331390	0.789896	-0.000093
 791	7.8605e+01	8.5265	38.374994	0.000395	3.953226	1.339389	-0.000158
 792	7.8704e+01	8.4944	38.221583	0.000385	3.851862	1.305046	-0.000154
 793	7.8804e+01	8.4399	38.056060	0.000416	4.155956	1.408076	-0.000166
 794	7.8903e+01	8.4110	37.902649	0.000385	3.851862	1.305046	-0.000154
 795	7.9003e+01	8.3613	37.801720	0.000253	2.534120	0.858583	-0.000101
 796	7.9103e+01	8.3196	37.656384	0.000365	3.649132	1.236359	-0.000146
 797	7.9202e+01	8.2746	37.466638	0.000476	4.764145	1.614136	-0.000191
 798	7.9302e+01	8.2442	37.341487	0.000314	3.142308	1.064643	-0.000126
 799	7.9401e+01	8.2153	37.184039	0.000395	3.953226	1.339389	-0.000158
 800	7.9501e+01	8.1591	37.062925	0.000304	3.040943	1.030300	-0.000122
 801	7.9600e+01	8.1206	36.913551	0.000375	3.750497	1.270703	-0.000150
 802	7.9700e+01	8.0741	36.784362	0.000324	3.243673	1.098986	-0.000130
 803	7.9799e+01	8.0436	36.630951	0.000385	3.851862	1.305046	-0.000154
 804	7.9898e+01	8.0003	36.501763	0.000324	3.243673	1.098986	-0.000130
 805	7.9998e+01	7.9650	36.352389	0.000375	3.750497	1.270703	-0.000150
 806	8.0097e+01	7.9217	36.170718	0.000456	4.561415	1.545449	-0.000183
 807	8.0197e+01	7.8880	36.045566	0.000314	3.142308	1.064643	-0.000126
 808	8.0296e+01	7.8511	35.916378	0.000324	3.243673	1.098986	-0.000130
 809	8.0396e+01	7.7998	35.738744	0.000446	4.460050	1.511106	-0.000179
 810	8.0496e+01	7.7549	35.577259	0.000405	4.054591	1.373733	-0.000162
 811	8.0595e+01	7.7148	35.452107	0.000314	3.142308	1.064643	-0.000126
 812	8.0695e+01	7.6923	35.306771	0.000365	3.649132	1.236359	-0.000146
 813	8.0794e+01	7.6490	35.133174	0.000436	4.358686	1.476763	-0.000174
 814	8.0894e+01	7.6041	35.020134	0.000284	2.838214	0.961613	-0.000114
 815	8.0993e+01	7.5624	34.826351	0.000487	4.865509	1.648479	-0.000195
 816	8.1093e+01	7.5222	34.737534	0.000223	2.230025	0.755553	-0.000089
 817	8.1192e+01	7.4821	34.551826	0.000466	4.662780	1.579793	-0.000187
 818	8.1291e+01	7.4549	34.370155	0.000456	4.561415	1.545449	-0.000183
 819	8.1391e+01	7.4067	34.236930	0.000335	3.345038	1.133329	-0.000134
 820	8.1490e+01	7.3650	34.087556	0.000375	3.750497	1.270703	-0.000150
 821	8.1590e+01	7.3233	33.962404	0.000314	3.142308	1.064643	-0.000126
 822	8.1689e+01	7.2864	33.788808	0.000436	4.358686	1.476763	-0.000174
 823	8.1789e+01	7.2399	33.603099	0.000466	4.662780	1.579793	-0.000187
 824	8.1888e+01	7.2046	33.546579	0.000142	1.419107	0.480806	-0.000057
 825	8.1988e+01	7.1661	33.328574	0.000547	5.473698	1.854539	-0.000219
 826	8.2088e+01	7.1308	33.199386	0.000324	3.243673	1.098986	-0.000130
 827	8.2187e+01	7.0827	33.050012	0.000375	3.750497	1.270703	-0.000150
 828	8.2287e+01	7.0442	32.892563	0.000395	3.953226	1.339389	-0.000158
 829	8.2386e+01	7.0073	32.739152	0.000385	3.851862	1.305046	-0.000154
 830	8.2486e+01	6.9640	32.614001	0.000314	3.142308	1.064643	-0.000126
 831	8.2585e+01	6.9191	32.408107	0.000517	5.169604	1.751509	-0.000207
 832	8.2684e+01	6.8870	32.315253	0.000233	2.331390	0.789896	-0.000093
 833	8.2784e+01	6.8453	32.153768	0.000405	4.054591	1.373733	-0.000162
 834	8.2883e+01	6.8132	32.036691	0.000294	2.939579	0.995956	-0.000118
 835	8.2983e+01	6.7634	31.830797	0.000517	5.169604	1.751509	-0.000207
 836	8.3082e+01	6.7298	31.673348	0.000395	3.953226	1.339389	-0.000158
 837	8.3182e+01	6.6913	31.532049	0.000355	3.547767	1.202016	-0.000142
 838	8.3281e+01	6.6495	31.366526	0.000416	4.155956	1.408076	-0.000166
 839	8.3381e+01	6.6078	31.229264	0.000345	3.446403	1.167673	-0.000138
 840	8.3481e+01	6.5774	31.059704	0.000426	4.257321	1.442419	-0.000170
 841	8.3580e+01	6.5324	30.902256	0.000395	3.953226	1.339389	-0.000158
 842	8.3680e+01	6.4859	30.777104	0.000314	3.142308	1.064643	-0.000126
 843	8.3779e+01	6.4554	30.611582	0.000416	4.155956	1.408076	-0.000166
 844	8.3879e+01	6.4153	30.494505	0.000294	2.939579	0.995956	-0.000118
 845	8.3978e+01	6.3720	30.333019	0.000405	4.054591	1.373733	-0.000162
 846	8.4078e+01	6.3271	30.167497	0.000416	4.155956	1.408076	-0.000166
 847	8.4177e+01	6.2822	30.026197	0.000355	3.547767	1.202016	-0.000142
 848	8.4276e+01	6.2453	29.872786	0.000385	3.851862	1.305046	-0.000154
 849	8.4376e+01	6.2116	29.662855	0.000527	5.270969	1.785853	-0.000211
 850	8.4475e+01	6.1651	29.533666	0.000324	3.243673	1.098986	-0.000130
 851	8.4575e+01	6.1314	29.372181	0.000405	4.054591	1.373733	-0.000162
 852	8.4674e+01	6.0833	29.247030	0.000314	3.142308	1.064643	-0.000126
 853	8.4774e+01	6.0560	29.057284	0.000476	4.764145	1.614136	-0.000191
 854	8.4874e+01	6.0143	28.907910	0.000375	3.750497	1.270703	-0.000150
 855	8.4973e+01	5.9645	28.746425	0.000405	4.054591	1.373733	-0.000162
 856	8.5073e+01	5.9373	28.588977	0.000395	3.953226	1.339389	-0.000158
 857	8.5172e+01	5.8907	28.419417	0.000426	4.257321	1.442419	-0.000170
 858	8.5272e+01	5.8490	28.274080	0.000365	3.649132	1.236359	-0.000146
 859	8.5371e+01	5.8153	28.120669	0.000385	3.851862	1.305046	-0.000154
 860	8.5471e+01	5.7801	27.971295	0.000375	3.750497	1.270703	-0.000150
 861	8.5570e+01	5.7367	27.834032	0.000345	3.446403	1.167673	-0.000138
 862	8.5669e+01	5.6998	27.620064	0.000537	5.372333	1.820196	-0.000215
 863	8.5769e+01	5.6533	27.511061	0.000274	2.736849	0.927270	-0.000110
 864	8.5868e+01	5.6100	27.317279	0.000487	4.865509	1.648479	-0.000195
 865	8.5968e+01	5.5859	27.159831	0.000395	3.953226	1.339389	-0.000158
 866	8.6067e+01	5.5330	27.014494	0.000365	3.649132	1.236359	-0.000146
 867	8.6167e+01	5.4945	26.853008	0.000405	4.054591	1.373733	-0.000162
 868	8.6266e+01	5.4592	26.675374	0.000446	4.460050	1.511106	-0.000179
 869	8.6366e+01	5.4207	26.542149	0.000335	3.345038	1.133329	-0.000134
 870	8.6466e+01	5.3710	26.360478	0.000456	4.561415	1.545449	-0.000183
 871	8.6565e+01	5.3341	26.227252	0.000335	3.345038	1.133329	-0.000134
 872	8.6665e+01	5.2940	26.057693	0.000426	4.257321	1.442419	-0.000170
 873	8.6764e+01	5.2651	25.908319	0.000375	3.750497	1.270703	-0.000150
 874	8.6864e+01	5.2138	25.698388	0.000527	5.270969	1.785853	-0.000211
 875	8.6963e+01	5.1720	25.557088	0.000355	3.547767	1.202016	-0.000142
 876	8.7063e+01	5.1432	25.415788	0.000355	3.547767	1.202016	-0.000142
 877	8.7162e+01	5.0950	25.213931	0.000507	5.068239	1.717166	-0.000203
 878	8.7261e+01	5.0549	25.044372	0.000426	4.257321	1.442419	-0.000170
 879	8.7361e+01	5.0148	24.874812	0.000426	4.257321	1.442419	-0.000170
 880	8.7460e+01	4.9811	24.741586	0.000335	3.345038	1.133329	-0.000134
 881	8.7560e+01	4.9410	24.576064	0.000416	4.155956	1.408076	-0.000166
 882	8.7659e+01	4.8961	24.450913	0.000314	3.142308	1.064643	-0.000126
 883	8.7759e+01	4.8560	24.261167	0.000476	4.764145	1.614136	-0.000191
 884	8.7859e+01	4.8143	24.107756	0.000385	3.851862	1.305046	-0.000154
 885	8.7958e+01	4.7726	23.926085	0.000456	4.561415	1.545449	-0.000183
 886	8.8058e+01	4.7341	23.740377	0.000466	4.662780	1.579793	-0.000187
 887	8.8157e+01	4.6940	23.607151	0.000335	3.345038	1.133329	-0.000134
 888	8.8257e+01	4.6539	23.457777	0.000375	3.750497	1.270703	-0.000150
 889	8.8356e+01	4.6074	23.296292	0.000405	4.054591	1.373733	-0.000162
 890	8.8456e+01	4.5705	23.110584	0.000466	4.662780	1.579793	-0.000187
 891	8.8555e+01	4.5432	22.928912	0.000456	4.561415	1.545449	-0.000183
 892	8.8654e+01	4.4983	22.775501	0.000385	3.851862	1.305046	-0.000154
 893	8.8754e+01	4.4550	22.614016	0.000405	4.054591	1.373733	-0.000162
 894	8.8853e+01	4.4181	22.416196	0.000497	4.966874	1.682823	-0.000199
 895	8.8953e+01	4.3780	22.311231	0.000264	2.635484	0.892926	-0.000105
 896	8.9052e+01	4.3427	22.093225	0.000547	5.473698	1.854539	-0.000219
 897	8.9152e+01	4.2897	21.931740	0.000405	4.054591	1.373733	-0.000162
 898	8.9251e+01	4.2560	21.758143	0.000436	4.358686	1.476763	-0.000174
 899	8.9351e+01	4.2207	21.596658	0.000405	4.054591	1.373733	-0.000162
 900	8.9451e+01	4.1774	21.455358	0.000355	3.547767	1.202016	-0.000142
 901	8.9550e+01	4.1437	21.277724	0.000446	4.460050	1.511106	-0.000179
 902	8.9650e+01	4.1020	21.124313	0.000385	3.851862	1.305046	-0.000154
 903	8.9749e+01	4.0603	20.922456	0.000507	5.068239	1.717166	-0.000203
 904	8.9849e+01	4.0330	20.777119	0.000365	3.649132	1.236359	-0.000146
 905	8.9948e+01	3.9801	20.660042	0.000294	2.939579	0.995956	-0.000118
 906	9.0047e+01	3.9400	20.429925	0.000578	5.777793	1.957569	-0.000231
 907	9.0147e+01	3.8919	20.292663	0.000345	3.446403	1.167673	-0.000138
 908	9.0246e+01	3.8614	20.094843	0.000497	4.966874	1.682823	-0.000199
 909	9.0346e+01	3.8261	19.909135	0.000466	4.662780	1.579793	-0.000187
 910	9.0445e+01	3.7860	19.759761	0.000375	3.750497	1.270703	-0.000150
 911	9.0545e+01	3.7395	19.622498	0.000345	3.446403	1.167673	-0.000138
 912	9.0644e+01	3.6994	19.412567	0.000527	5.270969	1.785853	-0.000211
 913	9.0744e+01	3.6657	19.271267	0.000355	3.547767	1.202016	-0.000142
 914	9.0844e+01	3.6191	19.077485	0.000487	4.865509	1.648479	-0.000195
 915	9.0943e+01	3.5806	18.948297	0.000324	3.243673	1.098986	-0.000130
 916	9.1043e+01	3.5389	18.718180	0.000578	5.777793	1.957569	-0.000231
 917	9.1142e+01	3.5004	18.536509	0.000456	4.561415	1.545449	-0.000183
 918	9.1242e+01	3.4603	18.395209	0.000355	3.547767	1.202016	-0.000142
 919	9.1341e+01	3.4202	18.221612	0.000436	4.358686	1.476763	-0.000174
 920	9.1441e+01	3.3737	18.060127	0.000405	4.054591	1.373733	-0.000162
 921	9.1540e+01	3.3464	17.886530	0.000436	4.358686	1.476763	-0.000174
 922	9.1639e+01	3.3031	17.656413	0.000578	5.777793	1.957569	-0.000231
 923	9.1739e+01	3.2598	17.539336	0.000294	2.939579	0.995956	-0.000118
 924	9.1838e+01	3.2261	17.317294	0.000558	5.575063	1.888882	-0.000223
 925	9.1938e+01	3.1780	17.143697	0.000436	4.358686	1.476763	-0.000174
 926	9.2037e+01	3.1491	17.018546	0.000314	3.142308	1.064643	-0.000126
 927	9.2137e+01	3.1058	16.796503	0.000558	5.575063	1.888882	-0.000223
 928	9.2237e+01	3.0561	16.659241	0.000345	3.446403	1.167673	-0.000138
 929	9.2336e+01	3.0256	16.489681	0.000426	4.257321	1.442419	-0.000170
 930	9.2436e+01	2.9759	16.316084	0.000436	4.358686	1.476763	-0.000174
 931	9.2535e+01	2.9486	16.077893	0.000598	5.980522	2.026256	-0.000239
 932	9.2635e+01	2.9069	15.960816	0.000294	2.939579	0.995956	-0.000118
 933	9.2734e+01	2.8652	15.771071	0.000476	4.764145	1.614136	-0.000191
 934	9.2834e+01	2.8202	15.625734	0.000365	3.649132	1.236359	-0.000146
 935	9.2933e+01	2.7833	15.387543	0.000598	5.980522	2.026256	-0.000239
 936	9.3032e+01	2.7384	15.286614	0.000253	2.534120	0.858583	-0.000101
 937	9.3132e+01	2.7063	15.076683	0.000527	5.270969	1.785853	-0.000211
 938	9.3231e+01	2.6646	14.890975	0.000466	4.662780	1.579793	-0.000187
 939	9.3331e+01	2.6277	14.705267	0.000466	4.662780	1.579793	-0.000187
 940	9.3430e+01	2.5860	14.547819	0.000395	3.953226	1.339389	-0.000158
 941	9.3530e+01	2.5475	14.374222	0.000436	4.358686	1.476763	-0.000174
 942	9.3629e+01	2.5106	14.168328	0.000517	5.169604	1.751509	-0.000207
 943	9.3729e+01	2.4721	14.022991	0.000365	3.649132	1.236359	-0.000146
 944	9.3829e+01	2.4336	13.825171	0.000497	4.966874	1.682823	-0.000199
 945	9.3928e+01	2.3935	13.627352	0.000497	4.966874	1.682823	-0.000199
 946	9.4028e+01	2.3454	13.482015	0.000365	3.649132	1.236359	-0.000146
 947	9.4127e+01	2.3165	13.268047	0.000537	5.372333	1.820196	-0.000215
 948	9.4227e+01	2.2668	13.122710	0.000365	3.649132	1.236359	-0.000146
 949	9.4326e+01	2.2203	12.949113	0.000436	4.358686	1.476763	-0.000174
 950	9.4425e+01	2.1882	12.767442	0.000456	4.561415	1.545449	-0.000183
 951	9.4525e+01	2.1481	12.609993	0.000395	3.953226	1.339389	-0.000158
 952	9.4624e+01	2.0983	12.383914	0.000568	5.676428	1.923226	-0.000227
 953	9.4724e+01	2.0695	12.206280	0.000446	4.460050	1.511106	-0.000179
 954	9.4823e+01	2.0310	12.044794	0.000405	4.054591	1.373733	-0.000162
 955	9.4923e+01	1.9780	11.867161	0.000446	4.460050	1.511106	-0.000179
 956	9.5022e+01	1.9427	11.677415	0.000476	4.764145	1.614136	-0.000191
 957	9.5122e+01	1.9106	11.511893	0.000416	4.155956	1.408076	-0.000166
 958	9.5222e+01	1.8673	11.338296	0.000436	4.358686	1.476763	-0.000174
 959	9.5321e+01	1.8336	11.148550	0.000476	4.764145	1.614136	-0.000191
 960	9.5421e+01	1.7839	10.922471	0.000568	5.676428	1.923226	-0.000227
 961	9.5520e+01	1.7534	10.773097	0.000375	3.750497	1.270703	-0.000150
 962	9.5620e+01	1.7101	10.579314	0.000487	4.865509	1.648479	-0.000195
 963	9.5719e+01	1.6764	10.413792	0.000416	4.155956	1.408076	-0.000166
 964	9.5819e+01	1.6235	10.264418	0.000375	3.750497	1.270703	-0.000150
 965	9.5918e+01	1.5802	10.074672	0.000476	4.764145	1.614136	-0.000191
 966	9.6017e+01	1.5481	9.872815	0.000507	5.068239	1.717166	-0.000203
 967	9.6117e+01	1.5128	9.695181	0.000446	4.460050	1.511106	-0.000179
 968	9.6216e+01	1.4679	9.497362	0.000497	4.966874	1.682823	-0.000199
 969	9.6316e+01	1.4262	9.327802	0.000426	4.257321	1.442419	-0.000170
 970	9.6415e+01	1.3989	9.158242	0.000426	4.257321	1.442419	-0.000170
 971	9.6515e+01	1.3508	8.952348	0.000517	5.169604	1.751509	-0.000207
 972	9.6615e+01	1.3155	8.794900	0.000395	3.953226	1.339389	-0.000158
 973	9.6714e+01	1.2738	8.621303	0.000436	4.358686	1.476763	-0.000174
 974	9.6814e+01	1.2401	8.435595	0.000466	4.662780	1.579793	-0.000187
 975	9.6913e+01	1.1919	8.257961	0.000446	4.460050	1.511106	-0.000179
 976	9.7013e+01	1.1518	8.060142	0.000497	4.966874	1.682823	-0.000199
 977	9.7112e+01	1.1021	7.894619	0.000416	4.155956	1.408076	-0.000166
 978	9.7212e+01	1.0684	7.696799	0.000497	4.966874	1.682823	-0.000199
 979	9.7311e+01	1.0315	7.486868	0.000527	5.270969	1.785853	-0.000211
 980	9.7410e+01	0.9930	7.317309	0.000426	4.257321	1.442419	-0.000170
 981	9.7510e+01	0.9577	7.143712	0.000436	4.358686	1.476763	-0.000174
 982	9.7609e+01	0.9256	6.929743	0.000537	5.372333	1.820196	-0.000215
 983	9.7709e+01	0.8711	6.772295	0.000395	3.953226	1.339389	-0.000158
 984	9.7808e+01	0.8326	6.594661	0.000446	4.460050	1.511106	-0.000179
 985	9.7908e+01	0.7909	6.376656	0.000547	5.473698	1.854539	-0.000219
 986	9.8007e+01	0.7604	6.211133	0.000416	4.155956	1.408076	-0.000166
 987	9.8107e+01	0.7155	6.021388	0.000476	4.764145	1.614136	-0.000191
 988	9.8207e+01	0.6738	5.876051	0.000365	3.649132	1.236359	-0.000146
 989	9.8306e+01	0.6257	5.637860	0.000598	5.980522	2.026256	-0.000239
 990	9.8406e+01	0.5871	5.440040	0.000497	4.966874	1.682823	-0.000199
 991	9.8505e+01	0.5599	5.270481	0.000426	4.257321	1.442419	-0.000170
 992	9.8605e+01	0.5182	5.145329	0.000314	3.142308	1.064643	-0.000126
 993	9.8704e+01	0.4732	4.915213	0.000578	5.777793	1.957569	-0.000231
 994	9.8803e+01	0.4331	4.733542	0.000456	4.561415	1.545449	-0.000183
 995	9.8903e+01	0.3898	4.555908	0.000446	4.460050	1.511106	-0.000179
 996	9.9002e+01	0.3626	4.354051	0.000507	5.068239	1.717166	-0.000203
 997	9.9102e+01	0.3160	4.168343	0.000466	4.662780	1.579793	-0.000187
 998	9.9201e+01	0.2695	4.002820	0.000416	4.155956	1.408076	-0.000166
 999	9.9301e+01	0.2342	3.788852	0.000537	5.372333	1.820196	-0.000215
1000	9.9400e+01	0.1909	3.639478	0.000375	3.750497	1.270703	-0.000150
1001	9.9500e+01	0.1524	3.433584	0.000517	5.169604	1.751509	-0.000207
1002	9.9600e+01	0.1187	3.255950	0.000446	4.460050	1.511106	-0.000179
1003	9.9699e+01	0.0802	3.050056	0.000517	5.169604	1.751509	-0.000207
1004	9.9799e+01	0.0321	2.864348	0.000466	4.662780	1.579793	-0.000187
1005	9.9898e+01	0.0032	2.743234	0.000304	3.040943	1.030300	-0.000122
1006	9.9998e+01	-0.0337	2.529266	0.000537	5.372333	1.820196	-0.000215
1007	1.0010e+02	-0.0834	2.335483	0.000487	4.865509	1.648479	-0.000195
1008	1.0020e+02	-0.1187	2.173998	0.000405	4.054591	1.373733	-0.000162
1009	1.0030e+02	-0.1572	1.968104	0.000517	5.169604	1.751509	-0.000207
1010	1.0040e+02	-0.1989	1.754135	0.000537	5.372333	1.820196	-0.000215
1011	1.0050e+02	-0.2326	1.628984	0.000314	3.142308	1.064643	-0.000126
1012	1.0059e+02	-0.2695	1.406942	0.000558	5.575063	1.888882	-0.000223
1013	1.0069e+02	-0.3112	1.253531	0.000385	3.851862	1.305046	-0.000154
1014	1.0079e+02	-0.3545	1.063785	0.000476	4.764145	1.614136	-0.000191
1015	1.0089e+02	-0.4027	0.870003	0.000487	4.865509	1.648479	-0.000195
1016	1.0099e+02	-0.4364	0.656035	0.000537	5.372333	1.820196	-0.000215
1017	1.0109e+02	-0.4765	0.486475	0.000426	4.257321	1.442419	-0.000170
1018	1.0119e+02	-0.5166	0.296729	0.000476	4.764145	1.614136	-0.000191
1019	1.0129e+02	-0.5535	0.131207	0.000416	4.155956	1.408076	-0.000166
1020	1.0139e+02	-0.5968	-0.078724	0.000527	5.270969	1.785853	-0.000211
1021	1.0149e+02	-0.6401	-0.244247	0.000416	4.155956	1.408076	-0.000166
1022	1.0159e+02	-0.6818	-0.446103	0.000507	5.068239	1.717166	-0.000203
1023	1.0169e+02	-0.7107	-0.651997	0.000517	5.169604	1.751509	-0.000207
1024	1.0179e+02	-0.7476	-0.801371	0.000375	3.750497	1.270703	-0.000150
1025	1.0189e+02	-0.7941	-0.970931	0.000426	4.257321	1.442419	-0.000170
1026	1.0199e+02	-0.8422	-1.188936	0.000547	5.473698	1.854539	-0.000219
1027	1.0209e+02	-0.8727	-1.370608	0.000456	4.561415	1.545449	-0.000183
1028	1.0219e+02	-0.9160	-1.568427	0.000497	4.966874	1.682823	-0.000199
1029	1.0229e+02	-0.9593	-1.750098	0.000456	4.561415	1.545449	-0.000183
1030	1.0239e+02	-0.9930	-1.939844	0.000476	4.764145	1.614136	-0.000191
1031	1.0248e+02	-1.0315	-2.113441	0.000436	4.358686	1.476763	-0.000174
1032	1.0258e+02	-1.0796	-2.319334	0.000517	5.169604	1.751509	-0.000207
1033	1.0268e+02	-1.1165	-2.496968	0.000446	4.460050	1.511106	-0.000179
1034	1.0278e+02	-1.1534	-2.694788	0.000497	4.966874	1.682823	-0.000199
1035	1.0288e+02	-1.1887	-2.904719	0.000527	5.270969	1.785853	-0.000211
1036	1.0298e+02	-1.2353	-3.046019	0.000355	3.547767	1.202016	-0.000142
1037	1.0308e+02	-1.2722	-3.251913	0.000517	5.169604	1.751509	-0.000207
1038	1.0318e+02	-1.3171	-3.433584	0.000456	4.561415	1.545449	-0.000183
1039	1.0328e+02	-1.3524	-3.647552	0.000537	5.372333	1.820196	-0.000215
1040	1.0338e+02	-1.3925	-3.788852	0.000355	3.547767	1.202016	-0.000142
1041	1.0348e+02	-1.4486	-3.978597	0.000476	4.764145	1.614136	-0.000191
1042	1.0358e+02	-1.4727	-4.204677	0.000568	5.676428	1.923226	-0.000227
1043	1.0368e+02	-1.5240	-4.362125	0.000395	3.953226	1.339389	-0.000158
1044	1.0378e+02	-1.5545	-4.568019	0.000517	5.169604	1.751509	-0.000207
1045	1.0388e+02	-1.5914	-4.777950	0.000527	5.270969	1.785853	-0.000211
1046	1.0398e+02	-1.6267	-4.975770	0.000497	4.966874	1.682823	-0.000199
1047	1.0408e+02	-1.6620	-5.113032	0.000345	3.446403	1.167673	-0.000138
1048	1.0418e+02	-1.7101	-5.302778	0.000476	4.764145	1.614136	-0.000191
1049	1.0428e+02	-1.7422	-5.500597	0.000497	4.966874	1.682823	-0.000199
1050	1.0438e+02	-1.7839	-5.674194	0.000436	4.358686	1.476763	-0.000174
1051	1.0447e+02	-1.8417	-5.843754	0.000426	4.257321	1.442419	-0.000170
1052	1.0457e+02	-1.8657	-6.049648	0.000517	5.169604	1.751509	-0.000207
1053	1.0467e+02	-1.9074	-6.243430	0.000487	4.865509	1.648479	-0.000195
1054	1.0477e+02	-1.9507	-6.437213	0.000487	4.865509	1.648479	-0.000195
1055	1.0487e+02	-1.9909	-6.594661	0.000395	3.953226	1.339389	-0.000158
1056	1.0497e+02	-2.0278	-6.824778	0.000578	5.777793	1.957569	-0.000231
1057	1.0507e+02	-2.0743	-6.962041	0.000345	3.446403	1.167673	-0.000138
1058	1.0517e+02	-2.1048	-7.176009	0.000537	5.372333	1.820196	-0.000215
1059	1.0527e+02	-2.1417	-7.369791	0.000487	4.865509	1.648479	-0.000195
1060	1.0537e+02	-2.1834	-7.523202	0.000385	3.851862	1.305046	-0.000154
1061	1.0547e+02	-2.2203	-7.708911	0.000466	4.662780	1.579793	-0.000187
1062	1.0557e+02	-2.2764	-7.918842	0.000527	5.270969	1.785853	-0.000211
1063	1.0567e+02	-2.3149	-8.104550	0.000466	4.662780	1.579793	-0.000187
1064	1.0577e+02	-2.3454	-8.278147	0.000436	4.358686	1.476763	-0.000174
1065	1.0587e+02	-2.3855	-8.492115	0.000537	5.372333	1.820196	-0.000215
1066	1.0597e+02	-2.4288	-8.698009	0.000517	5.169604	1.751509	-0.000207
1067	1.0607e+02	-2.4721	-8.867569	0.000426	4.257321	1.442419	-0.000170
1068	1.0617e+02	-2.5074	-9.053277	0.000466	4.662780	1.579793	-0.000187
1069	1.0627e+02	-2.5411	-9.210725	0.000395	3.953226	1.339389	-0.000158
1070	1.0637e+02	-2.5908	-9.396433	0.000466	4.662780	1.579793	-0.000187
1071	1.0647e+02	-2.6358	-9.557919	0.000405	4.054591	1.373733	-0.000162
1072	1.0656e+02	-2.6646	-9.792073	0.000588	5.879157	1.991912	-0.000235
1073	1.0666e+02	-2.7128	-9.929335	0.000345	3.446403	1.167673	-0.000138
1074	1.0676e+02	-2.7545	-10.106969	0.000446	4.460050	1.511106	-0.000179
1075	1.0686e+02	-2.7866	-10.292678	0.000466	4.662780	1.579793	-0.000187
1076	1.0696e+02	-2.8251	-10.506646	0.000537	5.372333	1.820196	-0.000215
1077	1.0706e+02	-2.8652	-10.692354	0.000466	4.662780	1.579793	-0.000187
1078	1.0716e+02	-2.9069	-10.882099	0.000476	4.764145	1.614136	-0.000191
1079	1.0726e+02	-2.9534	-11.071845	0.000476	4.764145	1.614136	-0.000191
1080	1.0736e+02	-2.9919	-11.213145	0.000355	3.547767	1.202016	-0.000142
1081	1.0746e+02	-3.0320	-11.423076	0.000527	5.270969	1.785853	-0.000211
1082	1.0756e+02	-3.0625	-11.608784	0.000466	4.662780	1.579793	-0.000187
1083	1.0766e+02	-3.1010	-11.818715	0.000527	5.270969	1.785853	-0.000211
1084	1.0776e+02	-3.1459	-11.984237	0.000416	4.155956	1.408076	-0.000166
1085	1.0786e+02	-3.1860	-12.157834	0.000436	4.358686	1.476763	-0.000174
1086	1.0796e+02	-3.2293	-12.351617	0.000487	4.865509	1.648479	-0.000195
1087	1.0806e+02	-3.2566	-12.509065	0.000395	3.953226	1.339389	-0.000158
1088	1.0816e+02	-3.3015	-12.702848	0.000487	4.865509	1.648479	-0.000195
1089	1.0826e+02	-3.3368	-12.916816	0.000537	5.372333	1.820196	-0.000215
1090	1.0836e+02	-3.3897	-13.062153	0.000365	3.649132	1.236359	-0.000146
1091	1.0845e+02	-3.4218	-13.259972	0.000497	4.966874	1.682823	-0.000199
1092	1.0855e+02	-3.4603	-13.437606	0.000446	4.460050	1.511106	-0.000179
1093	1.0865e+02	-3.5052	-13.615240	0.000446	4.460050	1.511106	-0.000179
1094	1.0875e+02	-3.5373	-13.821134	0.000517	5.169604	1.751509	-0.000207
1095	1.0885e+02	-3.5806	-13.982620	0.000405	4.054591	1.373733	-0.000162
1096	1.0895e+02	-3.6320	-14.172365	0.000476	4.764145	1.614136	-0.000191
1097	1.0905e+02	-3.6641	-14.329813	0.000395	3.953226	1.339389	-0.000158
1098	1.0915e+02	-3.7074	-14.531670	0.000507	5.068239	1.717166	-0.000203
1099	1.0925e+02	-3.7507	-14.697193	0.000416	4.155956	1.408076	-0.000166
1100	1.0935e+02	-3.7860	-14.878864	0.000456	4.561415	1.545449	-0.000183
1101	1.0945e+02	-3.8213	-15.104943	0.000568	5.676428	1.923226	-0.000227
1102	1.0955e+02	-3.8582	-15.222020	0.000294	2.939579	0.995956	-0.000118
1103	1.0965e+02	-3.9015	-15.431951	0.000527	5.270969	1.785853	-0.000211
1104	1.0975e+02	-3.9480	-15.593437	0.000405	4.054591	1.373733	-0.000162
1105	1.0985e+02	-3.9801	-15.758959	0.000416	4.155956	1.408076	-0.000166
1106	1.0995e+02	-4.0298	-15.985039	0.000568	5.676428	1.923226	-0.000227
1107	1.1005e+02	-4.0715	-16.134413	0.000375	3.750497	1.270703	-0.000150
1108	1.1015e+02	-4.0972	-16.299936	0.000416	4.155956	1.408076	-0.000166
1109	1.1025e+02	-4.1373	-16.481607	0.000456	4.561415	1.545449	-0.000183
1110	1.1035e+02	-4.1854	-16.671352	0.000476	4.764145	1.614136	-0.000191
1111	1.1044e+02	-4.2239	-16.820726	0.000375	3.750497	1.270703	-0.000150
1112	1.1054e+02	-4.2624	-17.010471	0.000476	4.764145	1.614136	-0.000191
1113	1.1064e+02	-4.3009	-17.212328	0.000507	5.068239	1.717166	-0.000203
1114	1.1074e+02	-4.3491	-17.385925	0.000436	4.358686	1.476763	-0.000174
1115	1.1084e+02	-4.3828	-17.515113	0.000324	3.243673	1.098986	-0.000130
1116	1.1094e+02	-4.4293	-17.716970	0.000507	5.068239	1.717166	-0.000203
1117	1.1104e+02	-4.4662	-17.922864	0.000517	5.169604	1.751509	-0.000207
1118	1.1114e+02	-4.4951	-18.052052	0.000324	3.243673	1.098986	-0.000130
1119	1.1124e+02	-4.5384	-18.261984	0.000527	5.270969	1.785853	-0.000211
1120	1.1134e+02	-4.5849	-18.391172	0.000324	3.243673	1.098986	-0.000130
1121	1.1144e+02	-4.6250	-18.605140	0.000537	5.372333	1.820196	-0.000215
1122	1.1154e+02	-4.6651	-18.758551	0.000385	3.851862	1.305046	-0.000154
1123	1.1164e+02	-4.6988	-18.948297	0.000476	4.764145	1.614136	-0.000191
1124	1.1174e+02	-4.7437	-19.154191	0.000517	5.169604	1.751509	-0.000207
1125	1.1184e+02	-4.7758	-19.303565	0.000375	3.750497	1.270703	-0.000150
1126	1.1194e+02	-4.8207	-19.481199	0.000446	4.460050	1.511106	-0.000179
1127	1.1204e+02	-4.8576	-19.582127	0.000253	2.534120	0.858583	-0.000101
1128	1.1214e+02	-4.8961	-19.840504	0.000649	6.487346	2.197972	-0.000260
1129	1.1224e+02	-4.9346	-20.001989	0.000405	4.054591	1.373733	-0.000162
1130	1.1234e+02	-4.9795	-20.139252	0.000345	3.446403	1.167673	-0.000138
1131	1.1244e+02	-5.0261	-20.300737	0.000405	4.054591	1.373733	-0.000162
1132	1.1253e+02	-5.0533	-20.502594	0.000507	5.068239	1.717166	-0.000203
1133	1.1263e+02	-5.1047	-20.639856	0.000345	3.446403	1.167673	-0.000138
1134	1.1273e+02	-5.1303	-20.833639	0.000487	4.865509	1.648479	-0.000195
1135	1.1283e+02	-5.1753	-20.991087	0.000395	3.953226	1.339389	-0.000158
1136	1.1293e+02	-5.2122	-21.132387	0.000355	3.547767	1.202016	-0.000142
1137	1.1303e+02	-5.2555	-21.318095	0.000466	4.662780	1.579793	-0.000187
1138	1.1313e+02	-5.2924	-21.503804	0.000466	4.662780	1.579793	-0.000187
1139	1.1323e+02	-5.3437	-21.697586	0.000487	4.865509	1.648479	-0.000195
1140	1.1333e+02	-5.3742	-21.863109	0.000416	4.155956	1.408076	-0.000166
1141	1.1343e+02	-5.4207	-22.028631	0.000416	4.155956	1.408076	-0.000166
1142	1.1353e+02	-5.4544	-22.206265	0.000446	4.460050	1.511106	-0.000179
1143	1.1363e+02	-5.5057	-22.363713	0.000395	3.953226	1.339389	-0.000158
1144	1.1373e+02	-5.5362	-22.529236	0.000416	4.155956	1.408076	-0.000166
1145	1.1383e+02	-5.5715	-22.678610	0.000375	3.750497	1.270703	-0.000150
1146	1.1393e+02	-5.6084	-22.815873	0.000345	3.446403	1.167673	-0.000138
1147	1.1403e+02	-5.6581	-23.041952	0.000568	5.676428	1.923226	-0.000227
1148	1.1413e+02	-5.6982	-23.150955	0.000274	2.736849	0.927270	-0.000110
1149	1.1423e+02	-5.7335	-23.364923	0.000537	5.372333	1.820196	-0.000215
1150	1.1433e+02	-5.7736	-23.514297	0.000375	3.750497	1.270703	-0.000150
1151	1.1442e+02	-5.8137	-23.655597	0.000355	3.547767	1.202016	-0.000142
1152	1.1452e+02	-5.8603	-23.849379	0.000487	4.865509	1.648479	-0.000195
1153	1.1462e+02	-5.9004	-24.039125	0.000476	4.764145	1.614136	-0.000191
1154	1.1472e+02	-5.9276	-24.172350	0.000335	3.345038	1.133329	-0.000134
1155	1.1482e+02	-5.9694	-24.345947	0.000436	4.358686	1.476763	-0.000174
1156	1.1492e+02	-6.0175	-24.527618	0.000456	4.561415	1.545449	-0.000183
1157	1.1502e+02	-6.0640	-24.648732	0.000304	3.040943	1.030300	-0.000122
1158	1.1512e+02	-6.0961	-24.818292	0.000426	4.257321	1.442419	-0.000170
1159	1.1522e+02	-6.1282	-25.028223	0.000527	5.270969	1.785853	-0.000211
1160	1.1532e+02	-6.1747	-25.169523	0.000355	3.547767	1.202016	-0.000142
1161	1.1542e+02	-6.2164	-25.335045	0.000416	4.155956	1.408076	-0.000166
1162	1.1552e+02	-6.2581	-25.496531	0.000405	4.054591	1.373733	-0.000162
1163	1.1562e+02	-6.2950	-25.670128	0.000436	4.358686	1.476763	-0.000174
1164	1.1572e+02	-6.3303	-25.803353	0.000335	3.345038	1.133329	-0.000134
1165	1.1582e+02	-6.3656	-25.972913	0.000426	4.257321	1.442419	-0.000170
1166	1.1592e+02	-6.4233	-26.142472	0.000426	4.257321	1.442419	-0.000170
1167	1.1602e+02	-6.4442	-26.328181	0.000466	4.662780	1.579793	-0.000187
1168	1.1612e+02	-6.4923	-26.416998	0.000223	2.230025	0.755553	-0.000089
1169	1.1622e+02	-6.5324	-26.590595	0.000436	4.358686	1.476763	-0.000174
1170	1.1632e+02	-6.5725	-26.744006	0.000385	3.851862	1.305046	-0.000154
1171	1.1642e+02	-6.6159	-26.909528	0.000416	4.155956	1.408076	-0.000166
1172	1.1651e+02	-6.6495	-27.087162	0.000446	4.460050	1.511106	-0.000179
1173	1.1661e+02	-6.6864	-27.244611	0.000395	3.953226	1.339389	-0.000158
1174	1.1671e+02	-6.7249	-27.373799	0.000324	3.243673	1.098986	-0.000130
1175	1.1681e+02	-6.7699	-27.543359	0.000426	4.257321	1.442419	-0.000170
1176	1.1691e+02	-6.8228	-27.725030	0.000456	4.561415	1.545449	-0.000183
1177	1.1701e+02	-6.8437	-27.850181	0.000314	3.142308	1.064643	-0.000126
1178	1.1711e+02	-6.8870	-27.987444	0.000345	3.446403	1.167673	-0.000138
1179	1.1721e+02	-6.9255	-28.165077	0.000446	4.460050	1.511106	-0.000179
1180	1.1731e+02	-6.9688	-28.286192	0.000304	3.040943	1.030300	-0.000122
1181	1.1741e+02	-7.0185	-28.492085	0.000517	5.169604	1.751509	-0.000207
1182	1.1751e+02	-7.0394	-28.653571	0.000405	4.054591	1.373733	-0.000162
1183	1.1761e+02	-7.0907	-28.815056	0.000405	4.054591	1.373733	-0.000162
1184	1.1771e+02	-7.1340	-28.948282	0.000335	3.345038	1.133329	-0.000134
1185	1.1781e+02	-7.1725	-29.085544	0.000345	3.446403	1.167673	-0.000138
1186	1.1791e+02	-7.2030	-29.295475	0.000527	5.270969	1.785853	-0.000211
1187	1.1801e+02	-7.2479	-29.432738	0.000345	3.446403	1.167673	-0.000138
1188	1.1811e+02	-7.2896	-29.578075	0.000365	3.649132	1.236359	-0.000146
1189	1.1821e+02	-7.3394	-29.751672	0.000436	4.358686	1.476763	-0.000174
1190	1.1831e+02	-7.3634	-29.876823	0.000314	3.142308	1.064643	-0.000126
1191	1.1841e+02	-7.4051	-30.050420	0.000436	4.358686	1.476763	-0.000174
1192	1.1850e+02	-7.4452	-30.211905	0.000405	4.054591	1.373733	-0.000162
1193	1.1860e+02	-7.4789	-30.345131	0.000335	3.345038	1.133329	-0.000134
1194	1.1870e+02	-7.5190	-30.506616	0.000405	4.054591	1.373733	-0.000162
1195	1.1880e+02	-7.5736	-30.631767	0.000314	3.142308	1.064643	-0.000126
1196	1.1890e+02	-7.6057	-30.805364	0.000436	4.358686	1.476763	-0.000174
1197	1.1900e+02	-7.6474	-30.974924	0.000426	4.257321	1.442419	-0.000170
1198	1.1910e+02	-7.6891	-31.136409	0.000405	4.054591	1.373733	-0.000162
1199	1.1920e+02	-7.7228	-31.233301	0.000243	2.432755	0.824240	-0.000097
1200	1.1930e+02	-7.7613	-31.374600	0.000355	3.547767	1.202016	-0.000142
1201	1.1940e+02	-7.8078	-31.540123	0.000416	4.155956	1.408076	-0.000166
1202	1.1950e+02	-7.8447	-31.701608	0.000405	4.054591	1.373733	-0.000162
1203	1.1960e+02	-7.8880	-31.859057	0.000395	3.953226	1.339389	-0.000158
1204	1.1970e+02	-7.9201	-32.016505	0.000395	3.953226	1.339389	-0.000158
1205	1.1980e+02	-7.9666	-32.121470	0.000264	2.635484	0.892926	-0.000105
1206	1.1990e+02	-8.0035	-32.258733	0.000345	3.446403	1.167673	-0.000138
1207	1.2000e+02	-8.0468	-32.468664	0.000527	5.270969	1.785853	-0.000211
1208	1.2010e+02	-8.0950	-32.557481	0.000223	2.230025	0.755553	-0.000089
1209	1.2020e+02	-8.1238	-32.751264	0.000487	4.865509	1.648479	-0.000195
1210	1.2030e+02	-8.1720	-32.896601	0.000365	3.649132	1.236359	-0.000146
1211	1.2039e+02	-8.2040	-33.045975	0.000375	3.750497	1.270703	-0.000150
1212	1.2049e+02	-8.2458	-33.187274	0.000355	3.547767	1.202016	-0.000142
1213	1.2059e+02	-8.2859	-33.340685	0.000385	3.851862	1.305046	-0.000154
1214	1.2069e+02	-8.3196	-33.490060	0.000375	3.750497	1.270703	-0.000150
1215	1.2079e+02	-8.3597	-33.635396	0.000365	3.649132	1.236359	-0.000146
1216	1.2089e+02	-8.4062	-33.784770	0.000375	3.750497	1.270703	-0.000150
1217	1.2099e+02	-8.4383	-33.942219	0.000395	3.953226	1.339389	-0.000158
1218	1.2109e+02	-8.4880	-34.079481	0.000345	3.446403	1.167673	-0.000138
1219	1.2119e+02	-8.5249	-34.240967	0.000405	4.054591	1.373733	-0.000162
1220	1.2129e+02	-8.5682	-34.382267	0.000355	3.547767	1.202016	-0.000142
1221	1.2139e+02	-8.6003	-34.515492	0.000335	3.345038	1.133329	-0.000134
1222	1.2149e+02	-8.6420	-34.672940	0.000395	3.953226	1.339389	-0.000158
1223	1.2159e+02	-8.6789	-34.806166	0.000335	3.345038	1.133329	-0.000134
1224	1.2169e+02	-8.7238	-34.931317	0.000314	3.142308	1.064643	-0.000126
1225	1.2179e+02	-8.7655	-35.112988	0.000456	4.561415	1.545449	-0.000183
1226	1.2189e+02	-8.8072	-35.217954	0.000264	2.635484	0.892926	-0.000105
1227	1.2199e+02	-8.8393	-35.383476	0.000416	4.155956	1.408076	-0.000166
1228	1.2209e+02	-8.8794	-35.561110	0.000446	4.460050	1.511106	-0.000179
1229	1.2219e+02	-8.9388	-35.678187	0.000294	2.939579	0.995956	-0.000118
1230	1.2229e+02	-8.9564	-35.851784	0.000436	4.358686	1.476763	-0.000174
1231	1.2239e+02	-9.0030	-35.980972	0.000324	3.243673	1.098986	-0.000130
1232	1.2248e+02	-9.0382	-36.114198	0.000335	3.345038	1.133329	-0.000134
1233	1.2258e+02	-9.0767	-36.271646	0.000395	3.953226	1.339389	-0.000158
1234	1.2268e+02	-9.1249	-36.384686	0.000284	2.838214	0.961613	-0.000114
1235	1.2278e+02	-9.1666	-36.602691	0.000547	5.473698	1.854539	-0.000219
1236	1.2288e+02	-9.1906	-36.727842	0.000314	3.142308	1.064643	-0.000126
1237	1.2298e+02	-9.2420	-36.812622	0.000213	2.128660	0.721210	-0.000085
1238	1.2308e+02	-9.2789	-36.982182	0.000426	4.257321	1.442419	-0.000170
1239	1.2318e+02	-9.3222	-37.095222	0.000284	2.838214	0.961613	-0.000114
1240	1.2328e+02	-9.3623	-37.216336	0.000304	3.040943	1.030300	-0.000122
1241	1.2338e+02	-9.3944	-37.357636	0.000355	3.547767	1.202016	-0.000142
1242	1.2348e+02	-9.4409	-37.511047	0.000385	3.851862	1.305046	-0.000154
1243	1.2358e+02	-9.4762	-37.656384	0.000365	3.649132	1.236359	-0.000146
1244	1.2368e+02	-9.5067	-37.781535	0.000314	3.142308	1.064643	-0.000126
1245	1.2378e+02	-9.5660	-37.959169	0.000446	4.460050	1.511106	-0.000179
1246	1.2388e+02	-9.6029	-38.128728	0.000426	4.257321	1.442419	-0.000170
1247	1.2398e+02	-9.6479	-38.221583	0.000233	2.331390	0.789896	-0.000093
1248	1.2408e+02	-9.6831	-38.358845	0.000345	3.446403	1.167673	-0.000138
1249	1.2418e+02	-9.7217	-38.508219	0.000375	3.750497	1.270703	-0.000150
1250	1.2428e+02	-9.7489	-38.629333	0.000304	3.040943	1.030300	-0.000122
1251	1.2438e+02	-9.7906	-38.815042	0.000466	4.662780	1.579793	-0.000187
1252	1.2447e+02	-9.8372	-38.932118	0.000294	2.939579	0.995956	-0.000118
1253	1.2457e+02	-9.8757	-39.045158	0.000284	2.838214	0.961613	-0.000114
1254	1.2467e+02	-9.9174	-39.202607	0.000395	3.953226	1.339389	-0.000158
1255	1.2477e+02	-9.9575	-39.360055	0.000395	3.953226	1.339389	-0.000158
1256	1.2487e+02	-9.9928	-39.456946	0.000243	2.432755	0.824240	-0.000097
1257	1.2497e+02	-10.0393	-39.638617	0.000456	4.561415	1.545449	-0.000183
1258	1.2507e+02	-10.0746	-39.755694	0.000294	2.939579	0.995956	-0.000118
1259	1.2517e+02	-10.1179	-39.909105	0.000385	3.851862	1.305046	-0.000154
1260	1.2527e+02	-10.1628	-40.034257	0.000314	3.142308	1.064643	-0.000126
1261	1.2537e+02	-10.2077	-40.203816	0.000426	4.257321	1.442419	-0.000170
1262	1.2547e+02	-10.2366	-40.308782	0.000264	2.635484	0.892926	-0.000105
1263	1.2557e+02	-10.2799	-40.486416	0.000446	4.460050	1.511106	-0.000179
1264	1.2567e+02	-10.3264	-40.599456	0.000284	2.838214	0.961613	-0.000114
1265	1.2577e+02	-10.3441	-40.736718	0.000345	3.446403	1.167673	-0.000138
1266	1.2587e+02	-10.3970	-40.873981	0.000345	3.446403	1.167673	-0.000138
1267	1.2597e+02	-10.4355	-41.011243	0.000345	3.446403	1.167673	-0.000138
1268	1.2607e+02	-10.4724	-41.148506	0.000345	3.446403	1.167673	-0.000138
1269	1.2617e+02	-10.5093	-41.314029	0.000416	4.155956	1.408076	-0.000166
1270	1.2627e+02	-10.5671	-41.423031	0.000274	2.736849	0.927270	-0.000110
1271	1.2636e+02	-10.6008	-41.548182	0.000314	3.142308	1.064643	-0.000126
1272	1.2646e+02	-10.6345	-41.669297	0.000304	3.040943	1.030300	-0.000122
1273	1.2656e+02	-10.6794	-41.846930	0.000446	4.460050	1.511106	-0.000179
1274	1.2666e+02	-10.7115	-41.955933	0.000274	2.736849	0.927270	-0.000110
1275	1.2676e+02	-10.7500	-42.081084	0.000314	3.142308	1.064643	-0.000126
1276	1.2686e+02	-10.7933	-42.230458	0.000375	3.750497	1.270703	-0.000150
1277	1.2696e+02	-10.8270	-42.339461	0.000274	2.736849	0.927270	-0.000110
1278	1.2706e+02	-10.8607	-42.509021	0.000426	4.257321	1.442419	-0.000170
1279	1.2716e+02	-10.9280	-42.613986	0.000264	2.635484	0.892926	-0.000105
1280	1.2726e+02	-10.9553	-42.767397	0.000385	3.851862	1.305046	-0.000154
1281	1.2736e+02	-10.9938	-42.888512	0.000304	3.040943	1.030300	-0.000122
1282	1.2746e+02	-11.0323	-43.021737	0.000335	3.345038	1.133329	-0.000134
1283	1.2756e+02	-11.0804	-43.175148	0.000385	3.851862	1.305046	-0.000154
1284	1.2766e+02	-11.1157	-43.304336	0.000324	3.243673	1.098986	-0.000130
1285	1.2776e+02	-11.1462	-43.425451	0.000304	3.040943	1.030300	-0.000122
1286	1.2786e+02	-11.1959	-43.566750	0.000355	3.547767	1.202016	-0.000142
1287	1.2796e+02	-11.2280	-43.687864	0.000304	3.040943	1.030300	-0.000122
1288	1.2806e+02	-11.2826	-43.813016	0.000314	3.142308	1.064643	-0.000126
1289	1.2816e+02	-11.3130	-43.950278	0.000345	3.446403	1.167673	-0.000138
1290	1.2826e+02	-11.3467	-44.083504	0.000335	3.345038	1.133329	-0.000134
1291	1.2835e+02	-11.3884	-44.228841	0.000365	3.649132	1.236359	-0.000146
1292	1.2845e+02	-11.4334	-44.341880	0.000284	2.838214	0.961613	-0.000114
1293	1.2855e+02	-11.4783	-44.462994	0.000304	3.040943	1.030300	-0.000122
1294	1.2865e+02	-11.5152	-44.588146	0.000314	3.142308	1.064643	-0.000126
1295	1.2875e+02	-11.5457	-44.737520	0.000375	3.750497	1.270703	-0.000150
1296	1.2885e+02	-11.5761	-44.870745	0.000335	3.345038	1.133329	-0.000134
1297	1.2895e+02	-11.6307	-44.995896	0.000314	3.142308	1.064643	-0.000126
1298	1.2905e+02	-11.6676	-45.145270	0.000375	3.750497	1.270703	-0.000150
1299	1.2915e+02	-11.7109	-45.302719	0.000395	3.953226	1.339389	-0.000158
1300	1.2925e+02	-11.7478	-45.355201	0.000132	1.317742	0.446463	-0.000053
1301	1.2935e+02	-11.7863	-45.544947	0.000476	4.764145	1.614136	-0.000191
1302	1.2945e+02	-11.8280	-45.674135	0.000324	3.243673	1.098986	-0.000130
1303	1.2955e+02	-11.8697	-45.787175	0.000284	2.838214	0.961613	-0.000114
1304	1.2965e+02	-11.9082	-45.920400	0.000335	3.345038	1.133329	-0.000134
1305	1.2975e+02	-11.9547	-46.077849	0.000395	3.953226	1.339389	-0.000158
1306	1.2985e+02	-11.9836	-46.170703	0.000233	2.331390	0.789896	-0.000093
1307	1.2995e+02	-12.0334	-46.267594	0.000243	2.432755	0.824240	-0.000097
1308	1.3005e+02	-12.0719	-46.425042	0.000395	3.953226	1.339389	-0.000158
1309	1.3015e+02	-12.1071	-46.550194	0.000314	3.142308	1.064643	-0.000126
1310	1.3025e+02	-12.1585	-46.667271	0.000294	2.939579	0.995956	-0.000118
1311	1.3034e+02	-12.1841	-46.848942	0.000456	4.561415	1.545449	-0.000183
1312	1.3044e+02	-12.2210	-46.941796	0.000233	2.331390	0.789896	-0.000093
1313	1.3054e+02	-12.2676	-47.066947	0.000314	3.142308	1.064643	-0.000126
1314	1.3064e+02	-12.3125	-47.192098	0.000314	3.142308	1.064643	-0.000126
1315	1.3074e+02	-12.3590	-47.325324	0.000335	3.345038	1.133329	-0.000134
1316	1.3084e+02	-12.3959	-47.474698	0.000375	3.750497	1.270703	-0.000150
1317	1.3094e+02	-12.4328	-47.607923	0.000335	3.345038	1.133329	-0.000134
1318	1.3104e+02	-12.4617	-47.696740	0.000223	2.230025	0.755553	-0.000089
1319	1.3114e+02	-12.5050	-47.862263	0.000416	4.155956	1.408076	-0.000166
1320	1.3124e+02	-12.5467	-47.963191	0.000253	2.534120	0.858583	-0.000101
1321	1.3134e+02	-12.5804	-48.076231	0.000284	2.838214	0.961613	-0.000114
1322	1.3144e+02	-12.6317	-48.205419	0.000324	3.243673	1.098986	-0.000130
1323	1.3154e+02	-12.6686	-48.350756	0.000365	3.649132	1.236359	-0.000146
1324	1.3164e+02	-12.7087	-48.483982	0.000335	3.345038	1.133329	-0.000134
1325	1.3174e+02	-12.7520	-48.584910	0.000253	2.534120	0.858583	-0.000101
1326	1.3184e+02	-12.7922	-48.754470	0.000426	4.257321	1.442419	-0.000170
1327	1.3194e+02	-12.8242	-48.867510	0.000284	2.838214	0.961613	-0.000114
1328	1.3204e+02	-12.8740	-48.988624	0.000304	3.040943	1.030300	-0.000122
1329	1.3214e+02	-12.9061	-49.105701	0.000294	2.939579	0.995956	-0.000118
1330	1.3224e+02	-12.9494	-49.259112	0.000385	3.851862	1.305046	-0.000154
1331	1.3234e+02	-12.9863	-49.376189	0.000294	2.939579	0.995956	-0.000118
1332	1.3243e+02	-13.0248	-49.452894	0.000193	1.925931	0.652523	-0.000077
1333	1.3253e+02	-13.0601	-49.666862	0.000537	5.372333	1.820196	-0.000215
1334	1.3263e+02	-13.1034	-49.731457	0.000162	1.621836	0.549493	-0.000065
1335	1.3273e+02	-13.1483	-49.868719	0.000345	3.446403	1.167673	-0.000138
1336	1.3283e+02	-13.1788	-50.022130	0.000385	3.851862	1.305046	-0.000154
1337	1.3293e+02	-13.2269	-50.114984	0.000233	2.331390	0.789896	-0.000093
1338	1.3303e+02	-13.2670	-50.260321	0.000365	3.649132	1.236359	-0.000146
1339	1.3313e+02	-13.3023	-50.393547	0.000335	3.345038	1.133329	-0.000134
1340	1.3323e+02	-13.3456	-50.466215	0.000182	1.824566	0.618180	-0.000073
1341	1.3333e+02	-13.3873	-50.595404	0.000324	3.243673	1.098986	-0.000130
1342	1.3343e+02	-13.4178	-50.740741	0.000365	3.649132	1.236359	-0.000146
1343	1.3353e+02	-13.4627	-50.861855	0.000304	3.040943	1.030300	-0.000122
1344	1.3363e+02	-13.5028	-50.995080	0.000335	3.345038	1.133329	-0.000134
1345	1.3373e+02	-13.5445	-51.112157	0.000294	2.939579	0.995956	-0.000118
1346	1.3383e+02	-13.5846	-51.229234	0.000294	2.939579	0.995956	-0.000118
1347	1.3393e+02	-13.6199	-51.378608	0.000375	3.750497	1.270703	-0.000150
1348	1.3403e+02	-13.6600	-51.475499	0.000243	2.432755	0.824240	-0.000097
1349	1.3413e+02	-13.7050	-51.584502	0.000274	2.736849	0.927270	-0.000110
1350	1.3423e+02	-13.7451	-51.709653	0.000314	3.142308	1.064643	-0.000126
1351	1.3432e+02	-13.7852	-51.867101	0.000395	3.953226	1.339389	-0.000158
1352	1.3442e+02	-13.8253	-51.955918	0.000223	2.230025	0.755553	-0.000089
1353	1.3452e+02	-13.8686	-52.081070	0.000314	3.142308	1.064643	-0.000126
1354	1.3462e+02	-13.9071	-52.210258	0.000324	3.243673	1.098986	-0.000130
1355	1.3472e+02	-13.9392	-52.319261	0.000274	2.736849	0.927270	-0.000110
1356	1.3482e+02	-13.9793	-52.464597	0.000365	3.649132	1.236359	-0.000146
1357	1.3492e+02	-14.0242	-52.561489	0.000243	2.432755	0.824240	-0.000097
1358	1.3502e+02	-14.0579	-52.718937	0.000395	3.953226	1.339389	-0.000158
1359	1.3512e+02	-14.0964	-52.856200	0.000345	3.446403	1.167673	-0.000138
1360	1.3522e+02	-14.1558	-52.997499	0.000355	3.547767	1.202016	-0.000142
1361	1.3532e+02	-14.1798	-53.054019	0.000142	1.419107	0.480806	-0.000057
1362	1.3542e+02	-14.2151	-53.187245	0.000335	3.345038	1.133329	-0.000134
1363	1.3552e+02	-14.2600	-53.316433	0.000324	3.243673	1.098986	-0.000130
1364	1.3562e+02	-14.3017	-53.461770	0.000365	3.649132	1.236359	-0.000146
1365	1.3572e+02	-14.3499	-53.586921	0.000314	3.142308	1.064643	-0.000126
1366	1.3582e+02	-14.3755	-53.655553	0.000172	1.723201	0.583836	-0.000069
1367	1.3592e+02	-14.4156	-53.808964	0.000385	3.851862	1.305046	-0.000154
1368	1.3602e+02	-14.4670	-53.942189	0.000335	3.345038	1.133329	-0.000134
1369	1.3612e+02	-14.4975	-54.095600	0.000385	3.851862	1.305046	-0.000154
1370	1.3622e+02	-14.5360	-54.204603	0.000274	2.736849	0.927270	-0.000110
1371	1.3631e+02	-14.5761	-54.313606	0.000274	2.736849	0.927270	-0.000110
1372	1.3641e+02	-14.6146	-54.410497	0.000243	2.432755	0.824240	-0.000097
1373	1.3651e+02	-14.6531	-54.535648	0.000314	3.142308	1.064643	-0.000126
1374	1.3661e+02	-14.7044	-54.697134	0.000405	4.054591	1.373733	-0.000162
1375	1.3671e+02	-14.7477	-54.753653	0.000142	1.419107	0.480806	-0.000057
1376	1.3681e+02	-14.7750	-54.955510	0.000507	5.068239	1.717166	-0.000203
1377	1.3691e+02	-14.8183	-55.044327	0.000223	2.230025	0.755553	-0.000089
1378	1.3701e+02	-14.8520	-55.173516	0.000324	3.243673	1.098986	-0.000130
1379	1.3711e+02	-14.8953	-55.286555	0.000284	2.838214	0.961613	-0.000114
1380	1.3721e+02	-14.9434	-55.411707	0.000314	3.142308	1.064643	-0.000126
1381	1.3731e+02	-14.9787	-55.524746	0.000284	2.838214	0.961613	-0.000114
1382	1.3741e+02	-15.0140	-55.674120	0.000375	3.750497	1.270703	-0.000150
1383	1.3751e+02	-15.0541	-55.783123	0.000274	2.736849	0.927270	-0.000110
1384	1.3761e+02	-15.0894	-55.928460	0.000365	3.649132	1.236359	-0.000146
1385	1.3771e+02	-15.1391	-56.045537	0.000294	2.939579	0.995956	-0.000118
1386	1.3781e+02	-15.1744	-56.154540	0.000274	2.736849	0.927270	-0.000110
1387	1.3791e+02	-15.2178	-56.291802	0.000345	3.446403	1.167673	-0.000138
1388	1.3801e+02	-15.2611	-56.396768	0.000264	2.635484	0.892926	-0.000105
1389	1.3811e+02	-15.2964	-56.505770	0.000274	2.736849	0.927270	-0.000110
1390	1.3821e+02	-15.3349	-56.659182	0.000385	3.851862	1.305046	-0.000154
1391	1.3831e+02	-15.3830	-56.816630	0.000395	3.953226	1.339389	-0.000158
1392	1.3840e+02	-15.4135	-56.913521	0.000243	2.432755	0.824240	-0.000097
1393	1.3850e+02	-15.4472	-56.990227	0.000193	1.925931	0.652523	-0.000077
1394	1.3860e+02	-15.5033	-57.143638	0.000385	3.851862	1.305046	-0.000154
1395	1.3870e+02	-15.5290	-57.272826	0.000324	3.243673	1.098986	-0.000130
1396	1.3880e+02	-15.5803	-57.397977	0.000314	3.142308	1.064643	-0.000126
1397	1.3890e+02	-15.6172	-57.506980	0.000274	2.736849	0.927270	-0.000110
1398	1.3900e+02	-15.6461	-57.611946	0.000264	2.635484	0.892926	-0.000105
1399	1.3910e+02	-15.6862	-57.749208	0.000345	3.446403	1.167673	-0.000138
1400	1.3920e+02	-15.7391	-57.874359	0.000314	3.142308	1.064643	-0.000126
1401	1.3930e+02	-15.7712	-58.019696	0.000365	3.649132	1.236359	-0.000146
1402	1.3940e+02	-15.8242	-58.112550	0.000233	2.331390	0.789896	-0.000093
1403	1.3950e+02	-15.8546	-58.233664	0.000304	3.040943	1.030300	-0.000122
1404	1.3960e+02	-15.9028	-58.374964	0.000355	3.547767	1.202016	-0.000142
1405	1.3970e+02	-15.9364	-58.471855	0.000243	2.432755	0.824240	-0.000097
1406	1.3980e+02	-15.9701	-58.609118	0.000345	3.446403	1.167673	-0.000138
1407	1.3990e+02	-16.0151	-58.730232	0.000304	3.040943	1.030300	-0.000122
1408	1.4000e+02	-16.0439	-58.855383	0.000314	3.142308	1.064643	-0.000126
1409	1.4010e+02	-16.0824	-58.956312	0.000253	2.534120	0.858583	-0.000101
1410	1.4020e+02	-16.1322	-59.061277	0.000264	2.635484	0.892926	-0.000105
1411	1.4029e+02	-16.1675	-59.202577	0.000355	3.547767	1.202016	-0.000142
1412	1.4039e+02	-16.2172	-59.343877	0.000355	3.547767	1.202016	-0.000142
1413	1.4049e+02	-16.2605	-59.432694	0.000223	2.230025	0.755553	-0.000089
1414	1.4059e+02	-16.2958	-59.618402	0.000466	4.662780	1.579793	-0.000187
1415	1.4069e+02	-16.3295	-59.682996	0.000162	1.621836	0.549493	-0.000065
1416	1.4079e+02	-16.3696	-59.791999	0.000274	2.736849	0.927270	-0.000110
1417	1.4089e+02	-16.4049	-59.933299	0.000355	3.547767	1.202016	-0.000142
1418	1.4099e+02	-16.4466	-60.058450	0.000314	3.142308	1.064643	-0.000126
1419	1.4109e+02	-16.4883	-60.187638	0.000324	3.243673	1.098986	-0.000130
1420	1.4119e+02	-16.5252	-60.308752	0.000304	3.040943	1.030300	-0.000122
1421	1.4129e+02	-16.5685	-60.446015	0.000345	3.446403	1.167673	-0.000138
1422	1.4139e+02	-16.6118	-60.563092	0.000294	2.939579	0.995956	-0.000118
1423	1.4149e+02	-16.6423	-60.704392	0.000355	3.547767	1.202016	-0.000142
1424	1.4159e+02	-16.6888	-60.781097	0.000193	1.925931	0.652523	-0.000077
1425	1.4169e+02	-16.7321	-60.962768	0.000456	4.561415	1.545449	-0.000183
1426	1.4179e+02	-16.7755	-61.051585	0.000223	2.230025	0.755553	-0.000089
1427	1.4189e+02	-16.8075	-61.196922	0.000365	3.649132	1.236359	-0.000146
1428	1.4199e+02	-16.8477	-61.358408	0.000405	4.054591	1.373733	-0.000162
1429	1.4209e+02	-16.8878	-61.451262	0.000233	2.331390	0.789896	-0.000093
1430	1.4219e+02	-16.9295	-61.584487	0.000335	3.345038	1.133329	-0.000134
1431	1.4228e+02	-16.9712	-61.705601	0.000304	3.040943	1.030300	-0.000122
1432	1.4238e+02	-17.0097	-61.810567	0.000264	2.635484	0.892926	-0.000105
1433	1.4248e+02	-17.0578	-61.959941	0.000375	3.750497	1.270703	-0.000150
1434	1.4258e+02	-17.0867	-62.085092	0.000314	3.142308	1.064643	-0.000126
1435	1.4268e+02	-17.1268	-62.210243	0.000314	3.142308	1.064643	-0.000126
1436	1.4278e+02	-17.1669	-62.339431	0.000324	3.243673	1.098986	-0.000130
1437	1.4288e+02	-17.2070	-62.436323	0.000243	2.432755	0.824240	-0.000097
1438	1.4298e+02	-17.2455	-62.585697	0.000375	3.750497	1.270703	-0.000150
1439	1.4308e+02	-17.2920	-62.670477	0.000213	2.128660	0.721210	-0.000085
1440	1.4318e+02	-17.3289	-62.807739	0.000345	3.446403	1.167673	-0.000138
1441	1.4328e+02	-17.3658	-62.953076	0.000365	3.649132	1.236359	-0.000146
1442	1.4338e+02	-17.4027	-63.094376	0.000355	3.547767	1.202016	-0.000142
1443	1.4348e+02	-17.4541	-63.243750	0.000375	3.750497	1.270703	-0.000150
1444	1.4358e+02	-17.4877	-63.332567	0.000223	2.230025	0.755553	-0.000089
1445	1.4368e+02	-17.5343	-63.441570	0.000274	2.736849	0.927270	-0.000110
1446	1.4378e+02	-17.5776	-63.594981	0.000385	3.851862	1.305046	-0.000154
1447	1.4388e+02	-17.6145	-63.703983	0.000274	2.736849	0.927270	-0.000110
1448	1.4398e+02	-17.6498	-63.873543	0.000426	4.257321	1.442419	-0.000170
1449	1.4408e+02	-17.6883	-63.986583	0.000284	2.838214	0.961613	-0.000114
1450	1.4418e+02	-17.7220	-64.083474	0.000243	2.432755	0.824240	-0.000097
1451	1.4428e+02	-17.7669	-64.269182	0.000466	4.662780	1.579793	-0.000187
1452	1.4437e+02	-17.8054	-64.366074	0.000243	2.432755	0.824240	-0.000097
1453	1.4447e+02	-17.8535	-64.491225	0.000314	3.142308	1.064643	-0.000126
1454	1.4457e+02	-17.8840	-64.620413	0.000324	3.243673	1.098986	-0.000130
1455	1.4467e+02	-17.9289	-64.765750	0.000365	3.649132	1.236359	-0.000146
1456	1.4477e+02	-17.9722	-64.890901	0.000314	3.142308	1.064643	-0.000126
1457	1.4487e+02	-18.0027	-64.979718	0.000223	2.230025	0.755553	-0.000089
1458	1.4497e+02	-18.0460	-65.149278	0.000426	4.257321	1.442419	-0.000170
1459	1.4507e+02	-18.0845	-65.262318	0.000284	2.838214	0.961613	-0.000114
1460	1.4517e+02	-18.1262	-65.415729	0.000385	3.851862	1.305046	-0.000154
1461	1.4527e+02	-18.1599	-65.569140	0.000385	3.851862	1.305046	-0.000154
1462	1.4537e+02	-18.2177	-65.637771	0.000172	1.723201	0.583836	-0.000069
1463	1.4547e+02	-18.2465	-65.807331	0.000426	4.257321	1.442419	-0.000170
1464	1.4557e+02	-18.2947	-65.928445	0.000304	3.040943	1.030300	-0.000122
1465	1.4567e+02	-18.3171	-66.053596	0.000314	3.142308	1.064643	-0.000126
1466	1.4577e+02	-18.3588	-66.215082	0.000405	4.054591	1.373733	-0.000162
1467	1.4587e+02	-18.4038	-66.348307	0.000335	3.345038	1.133329	-0.000134
1468	1.4597e+02	-18.4423	-66.449236	0.000253	2.534120	0.858583	-0.000101
1469	1.4607e+02	-18.4840	-66.598610	0.000375	3.750497	1.270703	-0.000150
1470	1.4617e+02	-18.5241	-66.739909	0.000355	3.547767	1.202016	-0.000142
1471	1.4626e+02	-18.5594	-66.869098	0.000324	3.243673	1.098986	-0.000130
1472	1.4636e+02	-18.6075	-67.002323	0.000335	3.345038	1.133329	-0.000134
1473	1.4646e+02	-18.6476	-67.139586	0.000345	3.446403	1.167673	-0.000138
1474	1.4656e+02	-18.6797	-67.256663	0.000294	2.939579	0.995956	-0.000118
1475	1.4666e+02	-18.7214	-67.402000	0.000365	3.649132	1.236359	-0.000146
1476	1.4676e+02	-18.7679	-67.547337	0.000365	3.649132	1.236359	-0.000146
1477	1.4686e+02	-18.8000	-67.611931	0.000162	1.621836	0.549493	-0.000065
1478	1.4696e+02	-18.8417	-67.829936	0.000547	5.473698	1.854539	-0.000219
1479	1.4706e+02	-18.8802	-67.979310	0.000375	3.750497	1.270703	-0.000150
1480	1.4716e+02	-18.9251	-68.104461	0.000314	3.142308	1.064643	-0.000126
1481	1.4726e+02	-18.9652	-68.237687	0.000335	3.345038	1.133329	-0.000134
1482	1.4736e+02	-19.0086	-68.346689	0.000274	2.736849	0.927270	-0.000110
1483	1.4746e+02	-19.0438	-68.496063	0.000375	3.750497	1.270703	-0.000150
1484	1.4756e+02	-19.0872	-68.601029	0.000264	2.635484	0.892926	-0.000105
1485	1.4766e+02	-19.1241	-68.798849	0.000497	4.966874	1.682823	-0.000199
1486	1.4776e+02	-19.1561	-68.919963	0.000304	3.040943	1.030300	-0.000122
1487	1.4786e+02	-19.2059	-69.045114	0.000314	3.142308	1.064643	-0.000126
1488	1.4796e+02	-19.2444	-69.162191	0.000294	2.939579	0.995956	-0.000118
1489	1.4806e+02	-19.2845	-69.368085	0.000517	5.169604	1.751509	-0.000207
1490	1.4816e+02	-19.3182	-69.485162	0.000294	2.939579	0.995956	-0.000118
1491	1.4825e+02	-19.3583	-69.598202	0.000284	2.838214	0.961613	-0.000114
1492	1.4835e+02	-19.3920	-69.759687	0.000405	4.054591	1.373733	-0.000162
1493	1.4845e+02	-19.4449	-69.945395	0.000466	4.662780	1.579793	-0.000187
1494	1.4855e+02	-19.4786	-70.062472	0.000294	2.939579	0.995956	-0.000118
1495	1.4865e+02	-19.5123	-70.203772	0.000355	3.547767	1.202016	-0.000142
1496	1.4875e+02	-19.5556	-70.336997	0.000335	3.345038	1.133329	-0.000134
1497	1.4885e+02	-19.6021	-70.486371	0.000375	3.750497	1.270703	-0.000150
1498	1.4895e+02	-19.6374	-70.647857	0.000405	4.054591	1.373733	-0.000162
1499	1.4905e+02	-19.6759	-70.740711	0.000233	2.331390	0.789896	-0.000093
1500	1.4915e+02	-19.7208	-70.922382	0.000456	4.561415	1.545449	-0.000183
1501	1.4925e+02	-19.7577	-71.051570	0.000324	3.243673	1.098986	-0.000130
1502	1.4935e+02	-19.7898	-71.229204	0.000446	4.460050	1.511106	-0.000179
1503	1.4945e+02	-19.8412	-71.382616	0.000385	3.851862	1.305046	-0.000154
1504	1.4955e+02	-19.8829	-71.519878	0.000345	3.446403	1.167673	-0.000138
1505	1.4965e+02	-19.9182	-71.697512	0.000446	4.460050	1.511106	-0.000179
1506	1.4975e+02	-19.9583	-71.802478	0.000264	2.635484	0.892926	-0.000105
1507	1.4985e+02	-19.9952	-71.907443	0.000264	2.635484	0.892926	-0.000105
1508	1.4995e+02	-19.9518	-71.915517	-0.000020	-0.202730	-0.068687	-0.000008
1509	1.5005e+02	-19.9117	-71.887258	0.000071	0.709553	0.240403	0.000028
1510	1.5015e+02	-19.8813	-71.854960	0.000081	0.810918	0.274747	0.000032
1511	1.5025e+02	-19.8315	-71.798441	0.000142	1.419107	0.480806	0.000057
1512	1.5034e+02	-19.8091	-71.762106	0.000091	0.912283	0.309090	0.000037
1513	1.5044e+02	-19.7577	-71.745958	0.000041	0.405459	0.137373	0.000016
1514	1.5054e+02	-19.7112	-71.661178	0.000213	2.128660	0.721210	0.000085
1515	1.5064e+02	-19.6839	-71.624844	0.000091	0.912283	0.309090	0.000037
1516	1.5074e+02	-19.6342	-71.584472	0.000101	1.013648	0.343433	0.000041
1517	1.5084e+02	-19.6053	-71.519878	0.000162	1.621836	0.549493	0.000065
1518	1.5094e+02	-19.5620	-71.487581	0.000081	0.810918	0.274747	0.000032
1519	1.5104e+02	-19.5203	-71.439135	0.000122	1.216377	0.412120	0.000049
1520	1.5114e+02	-19.4770	-71.366467	0.000182	1.824566	0.618180	0.000073
1521	1.5124e+02	-19.4385	-71.309947	0.000142	1.419107	0.480806	0.000057
1522	1.5134e+02	-19.3968	-71.253427	0.000142	1.419107	0.480806	0.000057
1523	1.5144e+02	-19.3535	-71.184796	0.000172	1.723201	0.583836	0.000069
1524	1.5154e+02	-19.3214	-71.112127	0.000182	1.824566	0.618180	0.000073
1525	1.5164e+02	-19.2765	-71.100016	0.000030	0.304094	0.103030	0.000012
1526	1.5174e+02	-19.2428	-71.027348	0.000182	1.824566	0.618180	0.000073
1527	1.5184e+02	-19.2075	-70.966791	0.000152	1.520472	0.515150	0.000061
1528	1.5194e+02	-19.1577	-70.902196	0.000162	1.621836	0.549493	0.000065
1529	1.5204e+02	-19.1144	-70.809342	0.000233	2.331390	0.789896	0.000093
1530	1.5214e+02	-19.0823	-70.756860	0.000132	1.317742	0.446463	0.000053
1531	1.5224e+02	-19.0406	-70.748785	0.000020	0.202730	0.068687	0.000008
1532	1.5233e+02	-19.0070	-70.655931	0.000233	2.331390	0.789896	0.000093
1533	1.5243e+02	-18.9588	-70.534817	0.000304	3.040943	1.030300	0.000122
1534	1.5253e+02	-18.9283	-70.494446	0.000101	1.013648	0.343433	0.000041
1535	1.5263e+02	-18.8834	-70.409666	0.000213	2.128660	0.721210	0.000085
1536	1.5273e+02	-18.8449	-70.308737	0.000253	2.534120	0.858583	0.000101
1537	1.5283e+02	-18.7904	-70.284515	0.000061	0.608189	0.206060	0.000024
1538	1.5293e+02	-18.7471	-70.199735	0.000213	2.128660	0.721210	0.000085
1539	1.5303e+02	-18.7262	-70.131103	0.000172	1.723201	0.583836	0.000069
1540	1.5313e+02	-18.6893	-70.090732	0.000101	1.013648	0.343433	0.000041
1541	1.5323e+02	-18.6492	-69.989804	0.000253	2.534120	0.858583	0.000101
1542	1.5333e+02	-18.5995	-69.921172	0.000172	1.723201	0.583836	0.000069
1543	1.5343e+02	-18.5578	-69.868690	0.000132	1.317742	0.446463	0.000053
1544	1.5353e+02	-18.5321	-69.763724	0.000264	2.635484	0.892926	0.000105
1545	1.5363e+02	-18.4856	-69.678944	0.000213	2.128660	0.721210	0.000085
1546	1.5373e+02	-18.4391	-69.594164	0.000213	2.128660	0.721210	0.000085
1547	1.5383e+02	-18.4038	-69.529570	0.000162	1.621836	0.549493	0.000065
1548	1.5393e+02	-18.3685	-69.460939	0.000172	1.723201	0.583836	0.000069
1549	1.5403e+02	-18.3252	-69.351936	0.000274	2.736849	0.927270	0.000110
1550	1.5413e+02	-18.2818	-69.307528	0.000112	1.115013	0.377776	0.000045
1551	1.5422e+02	-18.2481	-69.206599	0.000253	2.534120	0.858583	0.000101
1552	1.5432e+02	-18.2096	-69.158154	0.000122	1.216377	0.412120	0.000049
1553	1.5442e+02	-18.1599	-69.117782	0.000101	1.013648	0.343433	0.000041
1554	1.5452e+02	-18.1326	-68.996668	0.000304	3.040943	1.030300	0.000122
1555	1.5462e+02	-18.0877	-68.924000	0.000182	1.824566	0.618180	0.000073
1556	1.5472e+02	-18.0524	-68.806923	0.000294	2.939579	0.995956	0.000118
1557	1.5482e+02	-18.0123	-68.722143	0.000213	2.128660	0.721210	0.000085
1558	1.5492e+02	-17.9594	-68.629289	0.000233	2.331390	0.789896	0.000093
1559	1.5502e+02	-17.9209	-68.576806	0.000132	1.317742	0.446463	0.000053
1560	1.5512e+02	-17.8728	-68.487989	0.000223	2.230025	0.755553	0.000089
1561	1.5522e+02	-17.8471	-68.423395	0.000162	1.621836	0.549493	0.000065
1562	1.5532e+02	-17.8102	-68.314392	0.000274	2.736849	0.927270	0.000110
1563	1.5542e+02	-17.7605	-68.229613	0.000213	2.128660	0.721210	0.000085
1564	1.5552e+02	-17.7316	-68.181167	0.000122	1.216377	0.412120	0.000049
1565	1.5562e+02	-17.6899	-68.064090	0.000294	2.939579	0.995956	0.000118
1566	1.5572e+02	-17.6450	-68.003533	0.000152	1.520472	0.515150	0.000061
1567	1.5582e+02	-17.6049	-67.934902	0.000172	1.723201	0.583836	0.000069
1568	1.5592e+02	-17.5647	-67.833973	0.000253	2.534120	0.858583	0.000101
1569	1.5602e+02	-17.5230	-67.745156	0.000223	2.230025	0.755553	0.000089
1570	1.5612e+02	-17.4893	-67.664414	0.000203	2.027296	0.686866	0.000081
1571	1.5622e+02	-17.4557	-67.563485	0.000253	2.534120	0.858583	0.000101
1572	1.5631e+02	-17.3995	-67.466594	0.000243	2.432755	0.824240	0.000097
1573	1.5641e+02	-17.3722	-67.385851	0.000203	2.027296	0.686866	0.000081
1574	1.5651e+02	-17.3353	-67.309146	0.000193	1.925931	0.652523	0.000077
1575	1.5661e+02	-17.2872	-67.212254	0.000243	2.432755	0.824240	0.000097
1576	1.5671e+02	-17.2439	-67.095177	0.000294	2.939579	0.995956	0.000118
1577	1.5681e+02	-17.2006	-67.038657	0.000142	1.419107	0.480806	0.000057
1578	1.5691e+02	-17.1733	-66.941766	0.000243	2.432755	0.824240	0.000097
1579	1.5701e+02	-17.1204	-66.861024	0.000203	2.027296	0.686866	0.000081
1580	1.5711e+02	-17.0883	-66.760095	0.000253	2.534120	0.858583	0.000101
1581	1.5721e+02	-17.0418	-66.715687	0.000112	1.115013	0.377776	0.000045
1582	1.5731e+02	-17.0097	-66.594573	0.000304	3.040943	1.030300	0.000122
1583	1.5741e+02	-16.9696	-66.493644	0.000253	2.534120	0.858583	0.000101
1584	1.5751e+02	-16.9263	-66.408864	0.000213	2.128660	0.721210	0.000085
1585	1.5761e+02	-16.8942	-66.287750	0.000304	3.040943	1.030300	0.000122
1586	1.5771e+02	-16.8493	-66.243342	0.000112	1.115013	0.377776	0.000045
1587	1.5781e+02	-16.8124	-66.134339	0.000274	2.736849	0.927270	0.000110
1588	1.5791e+02	-16.7771	-66.065708	0.000172	1.723201	0.583836	0.000069
1589	1.5801e+02	-16.7257	-65.924408	0.000355	3.547767	1.202016	0.000142
1590	1.5811e+02	-16.6920	-65.880000	0.000112	1.115013	0.377776	0.000045
1591	1.5821e+02	-16.6487	-65.722551	0.000395	3.953226	1.339389	0.000158
1592	1.5830e+02	-16.6086	-65.702366	0.000051	0.506824	0.171717	0.000020
1593	1.5840e+02	-16.5637	-65.613549	0.000223	2.230025	0.755553	0.000089
1594	1.5850e+02	-16.5252	-65.516657	0.000243	2.432755	0.824240	0.000097
1595	1.5860e+02	-16.4835	-65.411692	0.000264	2.635484	0.892926	0.000105
1596	1.5870e+02	-16.4498	-65.310763	0.000253	2.534120	0.858583	0.000101
1597	1.5880e+02	-16.4145	-65.242132	0.000172	1.723201	0.583836	0.000069
1598	1.5890e+02	-16.3776	-65.141204	0.000253	2.534120	0.858583	0.000101
1599	1.5900e+02	-16.3295	-65.020090	0.000304	3.040943	1.030300	0.000122
1600	1.5910e+02	-16.2894	-64.939347	0.000203	2.027296	0.686866	0.000081
1601	1.5920e+02	-16.2541	-64.862641	0.000193	1.925931	0.652523	0.000077
1602	1.5930e+02	-16.2140	-64.765750	0.000243	2.432755	0.824240	0.000097
1603	1.5940e+02	-16.1578	-64.652710	0.000284	2.838214	0.961613	0.000114
1604	1.5950e+02	-16.1370	-64.584079	0.000172	1.723201	0.583836	0.000069
1605	1.5960e+02	-16.1001	-64.483151	0.000253	2.534120	0.858583	0.000101
1606	1.5970e+02	-16.0520	-64.374148	0.000274	2.736849	0.927270	0.000110
1607	1.5980e+02	-16.0183	-64.297442	0.000193	1.925931	0.652523	0.000077
1608	1.5990e+02	-15.9701	-64.208625	0.000223	2.230025	0.755553	0.000089
1609	1.6000e+02	-15.9300	-64.091548	0.000294	2.939579	0.995956	0.000118
1610	1.6010e+02	-15.8947	-64.026954	0.000162	1.621836	0.549493	0.000065
1611	1.6019e+02	-15.8514	-63.934100	0.000233	2.331390	0.789896	0.000093
1612	1.6029e+02	-15.8145	-63.800875	0.000335	3.345038	1.133329	0.000134
1613	1.6039e+02	-15.7744	-63.716095	0.000213	2.128660	0.721210	0.000085
1614	1.6049e+02	-15.7295	-63.623241	0.000233	2.331390	0.789896	0.000093
1615	1.6059e+02	-15.6974	-63.510201	0.000284	2.838214	0.961613	0.000114
1616	1.6069e+02	-15.6493	-63.461755	0.000122	1.216377	0.412120	0.000049
1617	1.6079e+02	-15.6172	-63.360827	0.000253	2.534120	0.858583	0.000101
1618	1.6089e+02	-15.5707	-63.239713	0.000304	3.040943	1.030300	0.000122
1619	1.6099e+02	-15.5370	-63.114562	0.000314	3.142308	1.064643	0.000126
1620	1.6109e+02	-15.4857	-63.029782	0.000213	2.128660	0.721210	0.000085
1621	1.6119e+02	-15.4584	-62.928853	0.000253	2.534120	0.858583	0.000101
1622	1.6129e+02	-15.4183	-62.840036	0.000223	2.230025	0.755553	0.000089
1623	1.6139e+02	-15.3862	-62.731034	0.000274	2.736849	0.927270	0.000110
1624	1.6149e+02	-15.3381	-62.626068	0.000264	2.635484	0.892926	0.000105
1625	1.6159e+02	-15.2932	-62.545325	0.000203	2.027296	0.686866	0.000081
1626	1.6169e+02	-15.2563	-62.468620	0.000193	1.925931	0.652523	0.000077
1627	1.6179e+02	-15.2129	-62.351543	0.000294	2.939579	0.995956	0.000118
1628	1.6189e+02	-15.1793	-62.254652	0.000243	2.432755	0.824240	0.000097
1629	1.6199e+02	-15.1359	-62.145649	0.000274	2.736849	0.927270	0.000110
1630	1.6209e+02	-15.0958	-62.085092	0.000152	1.520472	0.515150	0.000061
1631	1.6219e+02	-15.0621	-61.968015	0.000294	2.939579	0.995956	0.000118
1632	1.6228e+02	-15.0156	-61.867087	0.000253	2.534120	0.858583	0.000101
1633	1.6238e+02	-14.9803	-61.745973	0.000304	3.040943	1.030300	0.000122
1634	1.6248e+02	-14.9354	-61.653118	0.000233	2.331390	0.789896	0.000093
1635	1.6258e+02	-14.8953	-61.576413	0.000193	1.925931	0.652523	0.000077
1636	1.6268e+02	-14.8520	-61.471447	0.000264	2.635484	0.892926	0.000105
1637	1.6278e+02	-14.8199	-61.378593	0.000233	2.331390	0.789896	0.000093
1638	1.6288e+02	-14.7734	-61.273628	0.000264	2.635484	0.892926	0.000105
1639	1.6298e+02	-14.7285	-61.144439	0.000324	3.243673	1.098986	0.000130
1640	1.6308e+02	-14.7060	-61.043511	0.000253	2.534120	0.858583	0.000101
1641	1.6318e+02	-14.6611	-60.999102	0.000112	1.115013	0.377776	0.000045
1642	1.6328e+02	-14.6242	-60.817431	0.000456	4.561415	1.545449	0.000183
1643	1.6338e+02	-14.5729	-60.781097	0.000091	0.912283	0.309090	0.000037
1644	1.6348e+02	-14.5408	-60.664020	0.000294	2.939579	0.995956	0.000118
1645	1.6358e+02	-14.4975	-60.514646	0.000375	3.750497	1.270703	0.000150
1646	1.6368e+02	-14.4638	-60.486386	0.000071	0.709553	0.240403	0.000028
1647	1.6378e+02	-14.4188	-60.324901	0.000405	4.054591	1.373733	0.000162
1648	1.6388e+02	-14.3675	-60.240121	0.000213	2.128660	0.721210	0.000085
1649	1.6398e+02	-14.3322	-60.114970	0.000314	3.142308	1.064643	0.000126
1650	1.6408e+02	-14.3065	-60.022116	0.000233	2.331390	0.789896	0.000093
1651	1.6418e+02	-14.2713	-59.937336	0.000213	2.128660	0.721210	0.000085
1652	1.6427e+02	-14.2295	-59.787962	0.000375	3.750497	1.270703	0.000150
1653	1.6437e+02	-14.1798	-59.735479	0.000132	1.317742	0.446463	0.000053
1654	1.6447e+02	-14.1461	-59.614365	0.000304	3.040943	1.030300	0.000122
1655	1.6457e+02	-14.1060	-59.505362	0.000274	2.736849	0.927270	0.000110
1656	1.6467e+02	-14.0611	-59.412508	0.000233	2.331390	0.789896	0.000093
1657	1.6477e+02	-14.0162	-59.331765	0.000203	2.027296	0.686866	0.000081
1658	1.6487e+02	-13.9809	-59.210651	0.000304	3.040943	1.030300	0.000122
1659	1.6497e+02	-13.9440	-59.089537	0.000304	3.040943	1.030300	0.000122
1660	1.6507e+02	-13.8959	-59.012832	0.000193	1.925931	0.652523	0.000077
1661	1.6517e+02	-13.8638	-58.928052	0.000213	2.128660	0.721210	0.000085
1662	1.6527e+02	-13.8221	-58.802901	0.000314	3.142308	1.064643	0.000126
1663	1.6537e+02	-13.7836	-58.677749	0.000314	3.142308	1.064643	0.000126
1664	1.6547e+02	-13.7354	-58.617192	0.000152	1.520472	0.515150	0.000061
1665	1.6557e+02	-13.7034	-58.483967	0.000335	3.345038	1.133329	0.000134
1666	1.6567e+02	-13.6600	-58.354779	0.000324	3.243673	1.098986	0.000130
1667	1.6577e+02	-13.6231	-58.286147	0.000172	1.723201	0.583836	0.000069
1668	1.6587e+02	-13.5734	-58.165033	0.000304	3.040943	1.030300	0.000122
1669	1.6597e+02	-13.5413	-58.072179	0.000233	2.331390	0.789896	0.000093
1670	1.6607e+02	-13.4964	-57.955102	0.000294	2.939579	0.995956	0.000118
1671	1.6616e+02	-13.4643	-57.862248	0.000233	2.331390	0.789896	0.000093
1672	1.6626e+02	-13.4226	-57.737097	0.000314	3.142308	1.064643	0.000126
1673	1.6636e+02	-13.3889	-57.628094	0.000274	2.736849	0.927270	0.000110
1674	1.6646e+02	-13.3392	-57.523129	0.000264	2.635484	0.892926	0.000105
1675	1.6656e+02	-13.3087	-57.426237	0.000243	2.432755	0.824240	0.000097
1676	1.6666e+02	-13.2734	-57.345495	0.000203	2.027296	0.686866	0.000081
1677	1.6676e+02	-13.2125	-57.188046	0.000395	3.953226	1.339389	0.000158
1678	1.6686e+02	-13.1772	-57.070969	0.000294	2.939579	0.995956	0.000118
1679	1.6696e+02	-13.1563	-56.957930	0.000284	2.838214	0.961613	0.000114
1680	1.6706e+02	-13.1082	-56.873150	0.000213	2.128660	0.721210	0.000085
1681	1.6716e+02	-13.0649	-56.756073	0.000294	2.939579	0.995956	0.000118
1682	1.6726e+02	-13.0232	-56.630922	0.000314	3.142308	1.064643	0.000126
1683	1.6736e+02	-12.9798	-56.542105	0.000223	2.230025	0.755553	0.000089
1684	1.6746e+02	-12.9413	-56.408879	0.000335	3.345038	1.133329	0.000134
1685	1.6756e+02	-12.9125	-56.348322	0.000152	1.520472	0.515150	0.000061
1686	1.6766e+02	-12.8579	-56.186837	0.000405	4.054591	1.373733	0.000162
1687	1.6776e+02	-12.8194	-56.081871	0.000264	2.635484	0.892926	0.000105
1688	1.6786e+02	-12.7841	-56.009203	0.000182	1.824566	0.618180	0.000073
1689	1.6796e+02	-12.7456	-55.884051	0.000314	3.142308	1.064643	0.000126
1690	1.6806e+02	-12.7119	-55.750826	0.000335	3.345038	1.133329	0.000134
1691	1.6816e+02	-12.6622	-55.674120	0.000193	1.925931	0.652523	0.000077
1692	1.6825e+02	-12.6237	-55.516672	0.000395	3.953226	1.339389	0.000158
1693	1.6835e+02	-12.5948	-55.472264	0.000112	1.115013	0.377776	0.000045
1694	1.6845e+02	-12.5435	-55.322890	0.000375	3.750497	1.270703	0.000150
1695	1.6855e+02	-12.5114	-55.234073	0.000223	2.230025	0.755553	0.000089
1696	1.6865e+02	-12.4713	-55.145256	0.000223	2.230025	0.755553	0.000089
1697	1.6875e+02	-12.4328	-54.999919	0.000365	3.649132	1.236359	0.000146
1698	1.6885e+02	-12.3799	-54.915139	0.000213	2.128660	0.721210	0.000085
1699	1.6895e+02	-12.3510	-54.737505	0.000446	4.460050	1.511106	0.000179
1700	1.6905e+02	-12.3029	-54.656762	0.000203	2.027296	0.686866	0.000081
1701	1.6915e+02	-12.2756	-54.523537	0.000335	3.345038	1.133329	0.000134
1702	1.6925e+02	-12.2355	-54.450868	0.000182	1.824566	0.618180	0.000073
1703	1.6935e+02	-12.1890	-54.337828	0.000284	2.838214	0.961613	0.000114
1704	1.6945e+02	-12.1521	-54.204603	0.000335	3.345038	1.133329	0.000134
1705	1.6955e+02	-12.1023	-54.111749	0.000233	2.331390	0.789896	0.000093
1706	1.6965e+02	-12.0735	-54.018895	0.000233	2.331390	0.789896	0.000093
1707	1.6975e+02	-12.0366	-53.861446	0.000395	3.953226	1.339389	0.000158
1708	1.6985e+02	-11.9884	-53.776667	0.000213	2.128660	0.721210	0.000085
1709	1.6995e+02	-11.9547	-53.683812	0.000233	2.331390	0.789896	0.000093
1710	1.7005e+02	-11.8970	-53.485993	0.000497	4.966874	1.682823	0.000199
1711	1.7015e+02	-11.8681	-53.381027	0.000264	2.635484	0.892926	0.000105
1712	1.7024e+02	-11.8280	-53.263950	0.000294	2.939579	0.995956	0.000118
1713	1.7034e+02	-11.7895	-53.179171	0.000213	2.128660	0.721210	0.000085
1714	1.7044e+02	-11.7430	-53.090354	0.000223	2.230025	0.755553	0.000089
1715	1.7054e+02	-11.7045	-52.977314	0.000284	2.838214	0.961613	0.000114
1716	1.7064e+02	-11.6708	-52.819865	0.000395	3.953226	1.339389	0.000158
1717	1.7074e+02	-11.6371	-52.718937	0.000253	2.534120	0.858583	0.000101
1718	1.7084e+02	-11.5970	-52.597823	0.000304	3.040943	1.030300	0.000122
1719	1.7094e+02	-11.5553	-52.513043	0.000213	2.128660	0.721210	0.000085
1720	1.7104e+02	-11.5120	-52.395966	0.000294	2.939579	0.995956	0.000118
1721	1.7114e+02	-11.4767	-52.295038	0.000253	2.534120	0.858583	0.000101
1722	1.7124e+02	-11.4286	-52.125478	0.000426	4.257321	1.442419	0.000170
1723	1.7134e+02	-11.3884	-52.024550	0.000253	2.534120	0.858583	0.000101
1724	1.7144e+02	-11.3499	-51.919584	0.000264	2.635484	0.892926	0.000105
1725	1.7154e+02	-11.3147	-51.782322	0.000345	3.446403	1.167673	0.000138
1726	1.7164e+02	-11.2729	-51.653133	0.000324	3.243673	1.098986	0.000130
1727	1.7174e+02	-11.2360	-51.536056	0.000294	2.939579	0.995956	0.000118
1728	1.7184e+02	-11.1943	-51.463388	0.000182	1.824566	0.618180	0.000073
1729	1.7194e+02	-11.1526	-51.314014	0.000375	3.750497	1.270703	0.000150
1730	1.7204e+02	-11.1157	-51.196937	0.000294	2.939579	0.995956	0.000118
1731	1.7213e+02	-11.0676	-51.079860	0.000294	2.939579	0.995956	0.000118
1732	1.7223e+02	-11.0339	-50.982969	0.000243	2.432755	0.824240	0.000097
1733	1.7233e+02	-10.9922	-50.849743	0.000335	3.345038	1.133329	0.000134
1734	1.7243e+02	-10.9521	-50.716518	0.000335	3.345038	1.133329	0.000134
1735	1.7253e+02	-10.9168	-50.587329	0.000324	3.243673	1.098986	0.000130
1736	1.7263e+02	-10.8703	-50.490438	0.000243	2.432755	0.824240	0.000097
1737	1.7273e+02	-10.8446	-50.405658	0.000213	2.128660	0.721210	0.000085
1738	1.7283e+02	-10.7981	-50.223987	0.000456	4.561415	1.545449	0.000183
1739	1.7293e+02	-10.7532	-50.114984	0.000274	2.736849	0.927270	0.000110
1740	1.7303e+02	-10.7211	-50.034242	0.000203	2.027296	0.686866	0.000081
1741	1.7313e+02	-10.6794	-49.909091	0.000314	3.142308	1.064643	0.000126
1742	1.7323e+02	-10.6280	-49.800088	0.000274	2.736849	0.927270	0.000110
1743	1.7333e+02	-10.5960	-49.683011	0.000294	2.939579	0.995956	0.000118
1744	1.7343e+02	-10.5591	-49.533637	0.000375	3.750497	1.270703	0.000150
1745	1.7353e+02	-10.5109	-49.404449	0.000324	3.243673	1.098986	0.000130
1746	1.7363e+02	-10.4660	-49.299483	0.000264	2.635484	0.892926	0.000105
1747	1.7373e+02	-10.4387	-49.125886	0.000436	4.358686	1.476763	0.000174
1748	1.7383e+02	-10.4018	-49.045144	0.000203	2.027296	0.686866	0.000081
1749	1.7393e+02	-10.3521	-48.915955	0.000324	3.243673	1.098986	0.000130
1750	1.7403e+02	-10.3056	-48.823101	0.000233	2.331390	0.789896	0.000093
1751	1.7413e+02	-10.2671	-48.693913	0.000324	3.243673	1.098986	0.000130
1752	1.7422e+02	-10.2302	-48.592984	0.000253	2.534120	0.858583	0.000101
1753	1.7432e+02	-10.2013	-48.447647	0.000365	3.649132	1.236359	0.000146
1754	1.7442e+02	-10.1532	-48.330570	0.000294	2.939579	0.995956	0.000118
1755	1.7452e+02	-10.1163	-48.213494	0.000294	2.939579	0.995956	0.000118
1756	1.7462e+02	-10.0778	-48.056045	0.000395	3.953226	1.339389	0.000158
1757	1.7472e+02	-10.0409	-47.947043	0.000274	2.736849	0.927270	0.000110
1758	1.7482e+02	-9.9944	-47.846114	0.000253	2.534120	0.858583	0.000101
1759	1.7492e+02	-9.9575	-47.704814	0.000355	3.547767	1.202016	0.000142
1760	1.7502e+02	-9.9222	-47.579663	0.000314	3.142308	1.064643	0.000126
1761	1.7512e+02	-9.8805	-47.418178	0.000405	4.054591	1.373733	0.000162
1762	1.7522e+02	-9.8356	-47.325324	0.000233	2.331390	0.789896	0.000093
1763	1.7532e+02	-9.7906	-47.248618	0.000193	1.925931	0.652523	0.000077
1764	1.7542e+02	-9.7585	-47.091170	0.000395	3.953226	1.339389	0.000158
1765	1.7552e+02	-9.7136	-46.953907	0.000345	3.446403	1.167673	0.000138
1766	1.7562e+02	-9.6687	-46.800496	0.000385	3.851862	1.305046	0.000154
1767	1.7572e+02	-9.6350	-46.723790	0.000193	1.925931	0.652523	0.000077
1768	1.7582e+02	-9.6029	-46.606714	0.000294	2.939579	0.995956	0.000118
1769	1.7592e+02	-9.5548	-46.461377	0.000365	3.649132	1.236359	0.000146
1770	1.7602e+02	-9.5083	-46.344300	0.000294	2.939579	0.995956	0.000118
1771	1.7612e+02	-9.4714	-46.219148	0.000314	3.142308	1.064643	0.000126
1772	1.7621e+02	-9.4377	-46.098034	0.000304	3.040943	1.030300	0.000122
1773	1.7631e+02	-9.4104	-45.956735	0.000355	3.547767	1.202016	0.000142
1774	1.7641e+02	-9.3623	-45.847732	0.000274	2.736849	0.927270	0.000110
1775	1.7651e+02	-9.3222	-45.678172	0.000426	4.257321	1.442419	0.000170
1776	1.7661e+02	-9.2773	-45.605504	0.000182	1.824566	0.618180	0.000073
1777	1.7671e+02	-9.2356	-45.444018	0.000405	4.054591	1.373733	0.000162
1778	1.7681e+02	-9.2003	-45.314830	0.000324	3.243673	1.098986	0.000130
1779	1.7691e+02	-9.1746	-45.193716	0.000304	3.040943	1.030300	0.000122
1780	1.7701e+02	-9.1233	-45.060491	0.000335	3.345038	1.133329	0.000134
1781	1.7711e+02	-9.0800	-44.951488	0.000274	2.736849	0.927270	0.000110
1782	1.7721e+02	-9.0511	-44.810188	0.000355	3.547767	1.202016	0.000142
1783	1.7731e+02	-8.9981	-44.656777	0.000385	3.851862	1.305046	0.000154
1784	1.7741e+02	-8.9516	-44.543737	0.000284	2.838214	0.961613	0.000114
1785	1.7751e+02	-8.9195	-44.406475	0.000345	3.446403	1.167673	0.000138
1786	1.7761e+02	-8.8939	-44.305546	0.000253	2.534120	0.858583	0.000101
1787	1.7771e+02	-8.8473	-44.172321	0.000335	3.345038	1.133329	0.000134
1788	1.7781e+02	-8.8056	-44.035058	0.000345	3.446403	1.167673	0.000138
1789	1.7791e+02	-8.7607	-43.905870	0.000324	3.243673	1.098986	0.000130
1790	1.7801e+02	-8.7190	-43.780719	0.000314	3.142308	1.064643	0.000126
1791	1.7810e+02	-8.6869	-43.595010	0.000466	4.662780	1.579793	0.000187
1792	1.7820e+02	-8.6292	-43.526379	0.000172	1.723201	0.583836	0.000069
1793	1.7830e+02	-8.6131	-43.372968	0.000385	3.851862	1.305046	0.000154
1794	1.7840e+02	-8.5618	-43.255891	0.000294	2.939579	0.995956	0.000118
1795	1.7850e+02	-8.5217	-43.138814	0.000294	2.939579	0.995956	0.000118
1796	1.7860e+02	-8.4848	-42.969254	0.000426	4.257321	1.442419	0.000170
1797	1.7870e+02	-8.4495	-42.856214	0.000284	2.838214	0.961613	0.000114
1798	1.7880e+02	-8.4078	-42.739137	0.000294	2.939579	0.995956	0.000118
1799	1.7890e+02	-8.3645	-42.585726	0.000385	3.851862	1.305046	0.000154
1800	1.7900e+02	-8.3196	-42.468649	0.000294	2.939579	0.995956	0.000118
1801	1.7910e+02	-8.2875	-42.291015	0.000446	4.460050	1.511106	0.000179
1802	1.7920e+02	-8.2409	-42.182013	0.000274	2.736849	0.927270	0.000110
1803	1.7930e+02	-8.2089	-42.056862	0.000314	3.142308	1.064643	0.000126
1804	1.7940e+02	-8.1671	-41.911525	0.000365	3.649132	1.236359	0.000146
1805	1.7950e+02	-8.1126	-41.782336	0.000324	3.243673	1.098986	0.000130
1806	1.7960e+02	-8.0821	-41.632962	0.000375	3.750497	1.270703	0.000150
1807	1.7970e+02	-8.0404	-41.532034	0.000253	2.534120	0.858583	0.000101
1808	1.7980e+02	-8.0051	-41.394771	0.000345	3.446403	1.167673	0.000138
1809	1.7990e+02	-7.9714	-41.253472	0.000355	3.547767	1.202016	0.000142
1810	1.8000e+02	-7.9281	-41.071800	0.000456	4.561415	1.545449	0.000183
1811	1.8009e+02	-7.8768	-40.970872	0.000253	2.534120	0.858583	0.000101
1812	1.8019e+02	-7.8447	-40.865907	0.000264	2.635484	0.892926	0.000105
1813	1.8029e+02	-7.8046	-40.700384	0.000416	4.155956	1.408076	0.000166
1814	1.8039e+02	-7.7629	-40.530824	0.000426	4.257321	1.442419	0.000170
1815	1.8049e+02	-7.7180	-40.421822	0.000274	2.736849	0.927270	0.000110
1816	1.8059e+02	-7.6923	-40.324930	0.000243	2.432755	0.824240	0.000097
1817	1.8069e+02	-7.6410	-40.155371	0.000426	4.257321	1.442419	0.000170
1818	1.8079e+02	-7.5993	-39.985811	0.000426	4.257321	1.442419	0.000170
1819	1.8089e+02	-7.5672	-39.884883	0.000253	2.534120	0.858583	0.000101
1820	1.8099e+02	-7.5206	-39.739546	0.000365	3.649132	1.236359	0.000146
1821	1.8109e+02	-7.4886	-39.598246	0.000355	3.547767	1.202016	0.000142
1822	1.8119e+02	-7.4436	-39.440798	0.000395	3.953226	1.339389	0.000158
1823	1.8129e+02	-7.4019	-39.335832	0.000264	2.635484	0.892926	0.000105
1824	1.8139e+02	-7.3666	-39.194532	0.000355	3.547767	1.202016	0.000142
1825	1.8149e+02	-7.3249	-39.041121	0.000385	3.851862	1.305046	0.000154
1826	1.8159e+02	-7.2993	-38.887710	0.000385	3.851862	1.305046	0.000154
1827	1.8169e+02	-7.2495	-38.798893	0.000223	2.230025	0.755553	0.000089
1828	1.8179e+02	-7.2094	-38.637408	0.000405	4.054591	1.373733	0.000162
1829	1.8189e+02	-7.1693	-38.475922	0.000405	4.054591	1.373733	0.000162
1830	1.8199e+02	-7.1260	-38.346734	0.000324	3.243673	1.098986	0.000130
1831	1.8209e+02	-7.0955	-38.181211	0.000416	4.155956	1.408076	0.000166
1832	1.8218e+02	-7.0474	-38.056060	0.000314	3.142308	1.064643	0.000126
1833	1.8228e+02	-7.0025	-37.930909	0.000314	3.142308	1.064643	0.000126
1834	1.8238e+02	-6.9688	-37.793646	0.000345	3.446403	1.167673	0.000138
1835	1.8248e+02	-6.9367	-37.628124	0.000416	4.155956	1.408076	0.000166
1836	1.8258e+02	-6.8790	-37.478750	0.000375	3.750497	1.270703	0.000150
1837	1.8268e+02	-6.8613	-37.345524	0.000335	3.345038	1.133329	0.000134
1838	1.8278e+02	-6.8100	-37.184039	0.000405	4.054591	1.373733	0.000162
1839	1.8288e+02	-6.7747	-37.058888	0.000314	3.142308	1.064643	0.000126
1840	1.8298e+02	-6.7282	-36.933736	0.000314	3.142308	1.064643	0.000126
1841	1.8308e+02	-6.6880	-36.752065	0.000456	4.561415	1.545449	0.000183
1842	1.8318e+02	-6.6383	-36.606728	0.000365	3.649132	1.236359	0.000146
1843	1.8328e+02	-6.6159	-36.449280	0.000395	3.953226	1.339389	0.000158
1844	1.8338e+02	-6.5629	-36.336240	0.000284	2.838214	0.961613	0.000114
1845	1.8348e+02	-6.5340	-36.186866	0.000375	3.750497	1.270703	0.000150
1846	1.8358e+02	-6.4907	-36.013269	0.000436	4.358686	1.476763	0.000174
1847	1.8368e+02	-6.4554	-35.924452	0.000223	2.230025	0.755553	0.000089
1848	1.8378e+02	-6.4105	-35.734707	0.000476	4.764145	1.614136	0.000191
1849	1.8388e+02	-6.3768	-35.605519	0.000324	3.243673	1.098986	0.000130
1850	1.8398e+02	-6.3303	-35.444033	0.000405	4.054591	1.373733	0.000162
1851	1.8407e+02	-6.3014	-35.343105	0.000253	2.534120	0.858583	0.000101
1852	1.8417e+02	-6.2597	-35.173545	0.000426	4.257321	1.442419	0.000170
1853	1.8427e+02	-6.2020	-35.064542	0.000274	2.736849	0.927270	0.000110
1854	1.8437e+02	-6.1891	-34.866723	0.000497	4.966874	1.682823	0.000199
1855	1.8447e+02	-6.1442	-34.749646	0.000294	2.939579	0.995956	0.000118
1856	1.8457e+02	-6.1025	-34.588160	0.000405	4.054591	1.373733	0.000162
1857	1.8467e+02	-6.0496	-34.434749	0.000385	3.851862	1.305046	0.000154
1858	1.8477e+02	-6.0062	-34.285375	0.000375	3.750497	1.270703	0.000150
1859	1.8487e+02	-5.9661	-34.095630	0.000476	4.764145	1.614136	0.000191
1860	1.8497e+02	-5.9357	-33.994701	0.000253	2.534120	0.858583	0.000101
1861	1.8507e+02	-5.9052	-33.841290	0.000385	3.851862	1.305046	0.000154
1862	1.8517e+02	-5.8554	-33.675768	0.000416	4.155956	1.408076	0.000166
1863	1.8527e+02	-5.8121	-33.522357	0.000385	3.851862	1.305046	0.000154
1864	1.8537e+02	-5.7736	-33.385094	0.000345	3.446403	1.167673	0.000138
1865	1.8547e+02	-5.7335	-33.211497	0.000436	4.358686	1.476763	0.000174
1866	1.8557e+02	-5.6934	-33.062123	0.000375	3.750497	1.270703	0.000150
1867	1.8567e+02	-5.6533	-32.953120	0.000274	2.736849	0.927270	0.000110
1868	1.8577e+02	-5.6164	-32.735115	0.000547	5.473698	1.854539	0.000219
1869	1.8587e+02	-5.5827	-32.630150	0.000264	2.635484	0.892926	0.000105
1870	1.8597e+02	-5.5362	-32.468664	0.000405	4.054591	1.373733	0.000162
1871	1.8606e+02	-5.4961	-32.295067	0.000436	4.358686	1.476763	0.000174
1872	1.8616e+02	-5.4624	-32.161842	0.000335	3.345038	1.133329	0.000134
1873	1.8626e+02	-5.4191	-32.028616	0.000335	3.345038	1.133329	0.000134
1874	1.8636e+02	-5.3774	-31.818685	0.000527	5.270969	1.785853	0.000211
1875	1.8646e+02	-5.3405	-31.725831	0.000233	2.331390	0.789896	0.000093
1876	1.8656e+02	-5.2876	-31.544160	0.000456	4.561415	1.545449	0.000183
1877	1.8666e+02	-5.2619	-31.386712	0.000395	3.953226	1.339389	0.000158
1878	1.8676e+02	-5.2234	-31.257523	0.000324	3.243673	1.098986	0.000130
1879	1.8686e+02	-5.1801	-31.096038	0.000405	4.054591	1.373733	0.000162
1880	1.8696e+02	-5.1384	-30.930515	0.000416	4.155956	1.408076	0.000166
1881	1.8706e+02	-5.0983	-30.781141	0.000375	3.750497	1.270703	0.000150
1882	1.8716e+02	-5.0598	-30.591396	0.000476	4.764145	1.614136	0.000191
1883	1.8726e+02	-5.0245	-30.466245	0.000314	3.142308	1.064643	0.000126
1884	1.8736e+02	-4.9779	-30.304759	0.000405	4.054591	1.373733	0.000162
1885	1.8746e+02	-4.9555	-30.123088	0.000456	4.561415	1.545449	0.000183
1886	1.8756e+02	-4.9025	-29.989863	0.000335	3.345038	1.133329	0.000134
1887	1.8766e+02	-4.8544	-29.816266	0.000436	4.358686	1.476763	0.000174
1888	1.8776e+02	-4.8191	-29.662855	0.000385	3.851862	1.305046	0.000154
1889	1.8786e+02	-4.7790	-29.477147	0.000466	4.662780	1.579793	0.000187
1890	1.8796e+02	-4.7389	-29.347958	0.000324	3.243673	1.098986	0.000130
1891	1.8806e+02	-4.6972	-29.158213	0.000476	4.764145	1.614136	0.000191
1892	1.8815e+02	-4.6635	-29.024987	0.000335	3.345038	1.133329	0.000134
1893	1.8825e+02	-4.6122	-28.867539	0.000395	3.953226	1.339389	0.000158
1894	1.8835e+02	-4.5817	-28.677794	0.000476	4.764145	1.614136	0.000191
1895	1.8845e+02	-4.5448	-28.544568	0.000335	3.345038	1.133329	0.000134
1896	1.8855e+02	-4.4935	-28.387120	0.000395	3.953226	1.339389	0.000158
1897	1.8865e+02	-4.4630	-28.173152	0.000537	5.372333	1.820196	0.000215
1898	1.8875e+02	-4.4245	-28.039926	0.000335	3.345038	1.133329	0.000134
1899	1.8885e+02	-4.3763	-27.878441	0.000405	4.054591	1.373733	0.000162
1900	1.8895e+02	-4.3378	-27.741178	0.000345	3.446403	1.167673	0.000138
1901	1.8905e+02	-4.3026	-27.567581	0.000436	4.358686	1.476763	0.000174
1902	1.8915e+02	-4.2576	-27.406096	0.000405	4.054591	1.373733	0.000162
1903	1.8925e+02	-4.2255	-27.236536	0.000426	4.257321	1.442419	0.000170
1904	1.8935e+02	-4.1790	-27.042754	0.000487	4.865509	1.648479	0.000195
1905	1.8945e+02	-4.1502	-26.913565	0.000324	3.243673	1.098986	0.000130
1906	1.8955e+02	-4.1068	-26.739969	0.000436	4.358686	1.476763	0.000174
1907	1.8965e+02	-4.0603	-26.630966	0.000274	2.736849	0.927270	0.000110
1908	1.8975e+02	-4.0282	-26.421035	0.000527	5.270969	1.785853	0.000211
1909	1.8985e+02	-3.9849	-26.243401	0.000446	4.460050	1.511106	0.000179
1910	1.8995e+02	-3.9336	-26.089990	0.000385	3.851862	1.305046	0.000154
1911	1.9004e+02	-3.9015	-25.876022	0.000537	5.372333	1.820196	0.000215
1912	1.9014e+02	-3.8566	-25.738759	0.000345	3.446403	1.167673	0.000138
1913	1.9024e+02	-3.8277	-25.585348	0.000385	3.851862	1.305046	0.000154
1914	1.9034e+02	-3.7780	-25.427899	0.000395	3.953226	1.339389	0.000158
1915	1.9044e+02	-3.7363	-25.246228	0.000456	4.561415	1.545449	0.000183
1916	1.9054e+02	-3.7026	-25.080706	0.000416	4.155956	1.408076	0.000166
1917	1.9064e+02	-3.6673	-24.935369	0.000365	3.649132	1.236359	0.000146
1918	1.9074e+02	-3.6224	-24.709289	0.000568	5.676428	1.923226	0.000227
1919	1.9084e+02	-3.5790	-24.580101	0.000324	3.243673	1.098986	0.000130
1920	1.9094e+02	-3.5438	-24.426690	0.000385	3.851862	1.305046	0.000154
1921	1.9104e+02	-3.5052	-24.236944	0.000476	4.764145	1.614136	0.000191
1922	1.9114e+02	-3.4555	-24.059310	0.000446	4.460050	1.511106	0.000179
1923	1.9124e+02	-3.4234	-23.865528	0.000487	4.865509	1.648479	0.000195
1924	1.9134e+02	-3.3897	-23.712117	0.000385	3.851862	1.305046	0.000154
1925	1.9144e+02	-3.3352	-23.546594	0.000416	4.155956	1.408076	0.000166
1926	1.9154e+02	-3.3159	-23.401257	0.000365	3.649132	1.236359	0.000146
1927	1.9164e+02	-3.2678	-23.223623	0.000446	4.460050	1.511106	0.000179
1928	1.9174e+02	-3.2133	-23.005618	0.000547	5.473698	1.854539	0.000219
1929	1.9184e+02	-3.1764	-22.864318	0.000355	3.547767	1.202016	0.000142
1930	1.9194e+02	-3.1475	-22.706870	0.000395	3.953226	1.339389	0.000158
1931	1.9203e+02	-3.1122	-22.496939	0.000527	5.270969	1.785853	0.000211
1932	1.9213e+02	-3.0705	-22.383899	0.000284	2.838214	0.961613	0.000114
1933	1.9223e+02	-3.0288	-22.214339	0.000426	4.257321	1.442419	0.000170
1934	1.9233e+02	-2.9855	-21.972111	0.000608	6.081887	2.060599	0.000243
1935	1.9243e+02	-2.9550	-21.859071	0.000284	2.838214	0.961613	0.000114
1936	1.9253e+02	-2.9133	-21.677400	0.000456	4.561415	1.545449	0.000183
1937	1.9263e+02	-2.8668	-21.471506	0.000517	5.169604	1.751509	0.000207
1938	1.9273e+02	-2.8202	-21.305984	0.000416	4.155956	1.408076	0.000166
1939	1.9283e+02	-2.7898	-21.136424	0.000426	4.257321	1.442419	0.000170
1940	1.9293e+02	-2.7481	-20.950716	0.000466	4.662780	1.579793	0.000187
1941	1.9303e+02	-2.7095	-20.801342	0.000375	3.750497	1.270703	0.000150
1942	1.9313e+02	-2.6646	-20.623708	0.000446	4.460050	1.511106	0.000179
1943	1.9323e+02	-2.6293	-20.393591	0.000578	5.777793	1.957569	0.000231
1944	1.9333e+02	-2.5956	-20.284589	0.000274	2.736849	0.927270	0.000110
1945	1.9343e+02	-2.5459	-20.062546	0.000558	5.575063	1.888882	0.000223
1946	1.9353e+02	-2.5122	-19.876838	0.000466	4.662780	1.579793	0.000187
1947	1.9363e+02	-2.4641	-19.719390	0.000395	3.953226	1.339389	0.000158
1948	1.9373e+02	-2.4400	-19.537718	0.000456	4.561415	1.545449	0.000183
1949	1.9383e+02	-2.3871	-19.372196	0.000416	4.155956	1.408076	0.000166
1950	1.9393e+02	-2.3486	-19.218785	0.000385	3.851862	1.305046	0.000154
1951	1.9403e+02	-2.3069	-19.037114	0.000456	4.561415	1.545449	0.000183
1952	1.9412e+02	-2.2700	-18.851405	0.000466	4.662780	1.579793	0.000187
1953	1.9422e+02	-2.2411	-18.653586	0.000497	4.966874	1.682823	0.000199
1954	1.9432e+02	-2.2010	-18.496137	0.000395	3.953226	1.339389	0.000158
1955	1.9442e+02	-2.1400	-18.278132	0.000547	5.473698	1.854539	0.000219
1956	1.9452e+02	-2.1144	-18.128758	0.000375	3.750497	1.270703	0.000150
1957	1.9462e+02	-2.0743	-17.987458	0.000355	3.547767	1.202016	0.000142
1958	1.9472e+02	-2.0310	-17.745230	0.000608	6.081887	2.060599	0.000243
1959	1.9482e+02	-1.9925	-17.583745	0.000405	4.054591	1.373733	0.000162
1960	1.9492e+02	-1.9588	-17.426296	0.000395	3.953226	1.339389	0.000158
1961	1.9502e+02	-1.9090	-17.232514	0.000487	4.865509	1.648479	0.000195
1962	1.9512e+02	-1.8802	-17.058917	0.000436	4.358686	1.476763	0.000174
1963	1.9522e+02	-1.8368	-16.869172	0.000476	4.764145	1.614136	0.000191
1964	1.9532e+02	-1.7855	-16.715761	0.000385	3.851862	1.305046	0.000154
1965	1.9542e+02	-1.7614	-16.477570	0.000598	5.980522	2.026256	0.000239
1966	1.9552e+02	-1.7037	-16.320121	0.000395	3.953226	1.339389	0.000158
1967	1.9562e+02	-1.6668	-16.122302	0.000497	4.966874	1.682823	0.000199
1968	1.9572e+02	-1.6283	-15.928519	0.000487	4.865509	1.648479	0.000195
1969	1.9582e+02	-1.5962	-15.779145	0.000375	3.750497	1.270703	0.000150
1970	1.9592e+02	-1.5529	-15.573251	0.000517	5.169604	1.751509	0.000207
1971	1.9601e+02	-1.5144	-15.411766	0.000405	4.054591	1.373733	0.000162
1972	1.9611e+02	-1.4711	-15.189723	0.000558	5.575063	1.888882	0.000223
1973	1.9621e+02	-1.4310	-15.060535	0.000324	3.243673	1.098986	0.000130
1974	1.9631e+02	-1.3941	-14.814270	0.000618	6.183252	2.094942	0.000248
1975	1.9641e+02	-1.3476	-14.624524	0.000476	4.764145	1.614136	0.000191
1976	1.9651e+02	-1.3123	-14.507447	0.000294	2.939579	0.995956	0.000118
1977	1.9661e+02	-1.2625	-14.285405	0.000558	5.575063	1.888882	0.000223
1978	1.9671e+02	-1.2369	-14.095659	0.000476	4.764145	1.614136	0.000191
1979	1.9681e+02	-1.1968	-13.942248	0.000385	3.851862	1.305046	0.000154
1980	1.9691e+02	-1.1599	-13.744429	0.000497	4.966874	1.682823	0.000199
1981	1.9701e+02	-1.1037	-13.574869	0.000426	4.257321	1.442419	0.000170
1982	1.9711e+02	-1.0652	-13.340715	0.000588	5.879157	1.991912	0.000235
1983	1.9721e+02	-1.0347	-13.138858	0.000507	5.068239	1.717166	0.000203
1984	1.9731e+02	-0.9882	-12.977373	0.000405	4.054591	1.373733	0.000162
1985	1.9741e+02	-0.9529	-12.823962	0.000385	3.851862	1.305046	0.000154
1986	1.9751e+02	-0.9192	-12.609993	0.000537	5.372333	1.820196	0.000215
1987	1.9761e+02	-0.8743	-12.416211	0.000487	4.865509	1.648479	0.000195
1988	1.9771e+02	-0.8230	-12.234540	0.000456	4.561415	1.545449	0.000183
1989	1.9781e+02	-0.7893	-12.028646	0.000517	5.169604	1.751509	0.000207
1990	1.9791e+02	-0.7556	-11.859086	0.000426	4.257321	1.442419	0.000170
1991	1.9800e+02	-0.7107	-11.685489	0.000436	4.358686	1.476763	0.000174
1992	1.9810e+02	-0.6609	-11.491707	0.000487	4.865509	1.648479	0.000195
1993	1.9820e+02	-0.6433	-11.350407	0.000355	3.547767	1.202016	0.000142
1994	1.9830e+02	-0.5968	-11.152587	0.000497	4.966874	1.682823	0.000199
1995	1.9840e+02	-0.5567	-10.942656	0.000527	5.270969	1.785853	0.000211
1996	1.9850e+02	-0.5198	-10.777134	0.000416	4.155956	1.408076	0.000166
1997	1.9860e+02	-0.4765	-10.571240	0.000517	5.169604	1.751509	0.000207
1998	1.9870e+02	-0.4428	-10.409755	0.000405	4.054591	1.373733	0.000162
1999	1.9880e+02	-0.3898	-10.179638	0.000578	5.777793	1.957569	0.000231
2000	1.9890e+02	-0.3610	-9.997967	0.000456	4.561415	1.545449	0.000183
2001	1.9900e+02	-0.3160	-9.808221	0.000476	4.764145	1.614136	0.000191
2002	1.9910e+02	-0.2679	-9.630587	0.000446	4.460050	1.511106	0.000179
2003	1.9920e+02	-0.2374	-9.469102	0.000405	4.054591	1.373733	0.000162
2004	1.9930e+02	-0.1989	-9.243022	0.000568	5.676428	1.923226	0.000227
2005	1.9940e+02	-0.1572	-9.057314	0.000466	4.662780	1.579793	0.000187
2006	1.9950e+02	-0.1219	-8.895829	0.000405	4.054591	1.373733	0.000162
2007	1.9960e+02	-0.0786	-8.689935	0.000517	5.169604	1.751509	0.000207
2008	1.9970e+02	-0.0369	-8.508264	0.000456	4.561415	1.545449	0.000183
2009	1.9980e+02	0.0032	-8.306407	0.000456	4.561415	1.545449	0.000203

Center data before PMax,+/-Pr and +/-Vc Calc.

PMax (uC/cm2):	7.19e+01
Pr (uC/cm2):	2.72e+00
-Pr (uC/cm2):	-8.31e+00
PLoss (uC/cm2):	-5.85e+00
Vc:	5.60e-01
-Vc:	-5.81e-01
C (Max-Eff) (nF):	3.60e-01
K (Eff):	1.22e+03
Vert. (+/-Pr) Shift (uC/cm2):	-2.79e+00
Horiz. Shift (+/-Vc):	-1.02e-02
Offset (uC/cm2):	2.42e+00

A (Loop Area - uC/cm2·Volts):	2.22e-02



Hysteresis Version: 5.48.1 - Radiant Technologies, Inc., 1999 - 9/12/24

