»»»»»»»»»»»»»»»»»»»»»»»»»»»»»»»»»»»» Hysteresis ««««««««««««««««««««««««««««««««««««
»»»  Executed Version:	5.48.1
»»»  Vision Version:	5.48.4 (R)
»»»  Vision Compiled:	9/18/24
»»»  Driver Version:	5.47.0
»»»  Windows Version:	Windows 8 or 8.1
»»»  Processor Information:	x86 (AMD or Intel) - 32 Processors
»»»  Tester Name:	PMF21124-494 (100V)
»»»  Tester S/N:	PMF21124-494
»»»  Internal Amp Type:	100V RevK 270k
»»»  Internal Amp S/N:	iAB2-596/K     
»»»  Execution Count:	1
»»»»»»»»»»»»»»»»»»»»»»»»»»»»»»»»»»»»»»»»»»««««««««««««««««««««««««««««««««««««««««««

Stored:	6/13/2025 - 17:44:42
Configured:	06/13/25 05:21:47 PM
Executed:	06/13/25 05:44:01 PM

»»»»»»»»»»»»»»»»»»»»»»»»»»»»»»»»»»» Sample Info ««««««««««««««««««««««««««««««««««««
Sample Name:	
Lot Name:	
Wafer Name:	
Die Row/Column:	0/0
Capacitor Number:	0
Sample Area (cm2):	1.00e-04
Sample Thickness (microns):	3.00e-01

Amplifier:	Internal

»»»»»»»»»»»»»»»»»»»»»»»»»»»»»»»»»»» Tester Info «««««««««««««««««««««««««««««««««««
Tester Name:	PMF21124-494 (100V)
Tester Serial Number:	PMF21124-494
Return Signal Amp. Level:	0.19 [Index: 3]

»»»»»»»»»»»»»»»»»»»»»»»»»»»»»»»» Hysteresis Info ««««««««««««««««««««««««««««««««««
Task Name:	Hyst-2150
Volts:	20.00
Field:	666.67 (kV/cm)
DCBias:	0.00
DCField:	0.00 (kV/cm)
Hysteresis Period (ms):	2.00e+02
Preset:	Enabled
Preset Delay (ms):	1.00e+03
Profile:	Standard Bipolar

»»»»»»»»»»»»»»»»»»»»»»»»»»»»»»»»»»»»»» Data «««««««««««««««««««««««««««««««««««««««
Points:	2009

Valid Data

Point	Time (ms)	Drive Voltage	Measured Polarization (uC/cm2)	Capacitance (uF)	Normalized Capacitance (uF/cm2)	Dielectric Constant	Instantaneous Current (mA)
   1	0.0000e+00	0.0000	-8.011696	0.000304	3.041065	1.030341	0.000122
   2	9.9500e-02	0.0225	-7.890582	0.000304	3.041065	1.030341	0.000122
   3	1.9900e-01	0.0738	-7.757356	0.000335	3.345172	1.133375	0.000134
   4	2.9850e-01	0.1059	-7.616057	0.000355	3.547910	1.202064	0.000142
   5	3.9800e-01	0.1492	-7.426311	0.000476	4.764336	1.614201	0.000191
   6	4.9750e-01	0.1845	-7.337494	0.000223	2.230115	0.755583	0.000089
   7	5.9700e-01	0.2278	-7.163897	0.000436	4.358860	1.476822	0.000174
   8	6.9650e-01	0.2695	-7.010486	0.000385	3.852016	1.305098	0.000154
   9	7.9600e-01	0.3128	-6.804592	0.000517	5.169811	1.751579	0.000207
  10	8.9550e-01	0.3561	-6.687515	0.000294	2.939697	0.995996	0.000118
  11	9.9500e-01	0.3898	-6.513919	0.000436	4.358860	1.476822	0.000174
  12	1.0945e+00	0.4315	-6.344359	0.000426	4.257492	1.442477	0.000170
  13	1.1940e+00	0.4572	-6.194985	0.000375	3.750647	1.270754	0.000150
  14	1.2935e+00	0.5037	-6.037536	0.000395	3.953385	1.339443	0.000158
  15	1.3930e+00	0.5454	-5.880088	0.000395	3.953385	1.339443	0.000158
  16	1.4925e+00	0.5888	-5.682269	0.000497	4.967074	1.682890	0.000199
  17	1.5920e+00	0.6289	-5.565192	0.000294	2.939697	0.995996	0.000118
  18	1.6915e+00	0.6577	-5.419855	0.000365	3.649279	1.236409	0.000146
  19	1.7910e+00	0.6994	-5.226072	0.000487	4.865705	1.648545	0.000195
  20	1.8905e+00	0.7444	-5.080735	0.000365	3.649279	1.236409	0.000146
  21	1.9900e+00	0.7893	-4.935398	0.000365	3.649279	1.236409	0.000146
  22	2.0895e+00	0.8246	-4.777950	0.000395	3.953385	1.339443	0.000158
  23	2.1890e+00	0.8583	-4.620502	0.000395	3.953385	1.339443	0.000158
  24	2.2885e+00	0.9080	-4.438831	0.000456	4.561598	1.545511	0.000183
  25	2.3880e+00	0.9481	-4.321754	0.000294	2.939697	0.995996	0.000118
  26	2.4875e+00	0.9850	-4.123934	0.000497	4.967074	1.682890	0.000199
  27	2.5870e+00	1.0267	-3.930152	0.000487	4.865705	1.648545	0.000195
  28	2.6865e+00	1.0652	-3.805000	0.000314	3.142434	1.064686	0.000126
  29	2.7860e+00	1.1101	-3.659664	0.000365	3.649279	1.236409	0.000146
  30	2.8855e+00	1.1438	-3.502215	0.000395	3.953385	1.339443	0.000158
  31	2.9850e+00	1.1871	-3.308433	0.000487	4.865705	1.648545	0.000195
  32	3.0845e+00	1.2256	-3.163096	0.000365	3.649279	1.236409	0.000146
  33	3.1840e+00	1.2641	-3.005648	0.000395	3.953385	1.339443	0.000158
  34	3.2835e+00	1.3058	-2.860311	0.000365	3.649279	1.236409	0.000146
  35	3.3830e+00	1.3443	-2.658454	0.000507	5.068442	1.717235	0.000203
  36	3.4825e+00	1.3828	-2.488894	0.000426	4.257492	1.442477	0.000170
  37	3.5820e+00	1.4181	-2.327409	0.000405	4.054754	1.373788	0.000162
  38	3.6815e+00	1.4631	-2.145738	0.000456	4.561598	1.545511	0.000183
  39	3.7810e+00	1.4984	-2.032698	0.000284	2.838328	0.961651	0.000114
  40	3.8805e+00	1.5401	-1.863138	0.000426	4.257492	1.442477	0.000170
  41	3.9800e+00	1.5850	-1.705690	0.000395	3.953385	1.339443	0.000158
  42	4.0795e+00	1.6203	-1.524019	0.000456	4.561598	1.545511	0.000183
  43	4.1790e+00	1.6604	-1.390793	0.000335	3.345172	1.133375	0.000134
  44	4.2785e+00	1.7117	-1.205085	0.000466	4.662967	1.579856	0.000187
  45	4.3780e+00	1.7438	-1.043600	0.000405	4.054754	1.373788	0.000162
  46	4.4775e+00	1.7743	-0.865966	0.000446	4.460229	1.511167	0.000179
  47	4.5770e+00	1.8320	-0.724666	0.000355	3.547910	1.202064	0.000142
  48	4.6765e+00	1.8657	-0.559143	0.000416	4.156123	1.408133	0.000166
  49	4.7760e+00	1.8962	-0.413806	0.000365	3.649279	1.236409	0.000146
  50	4.8755e+00	1.9443	-0.240210	0.000436	4.358860	1.476822	0.000174
  51	4.9750e+00	1.9812	-0.074687	0.000416	4.156123	1.408133	0.000166
  52	5.0745e+00	2.0213	0.066613	0.000355	3.547910	1.202064	0.000142
  53	5.1740e+00	2.0614	0.252321	0.000466	4.662967	1.579856	0.000187
  54	5.2735e+00	2.0967	0.405732	0.000385	3.852016	1.305098	0.000154
  55	5.3730e+00	2.1417	0.563180	0.000395	3.953385	1.339443	0.000158
  56	5.4725e+00	2.1802	0.756963	0.000487	4.865705	1.648545	0.000195
  57	5.5720e+00	2.2187	0.890188	0.000335	3.345172	1.133375	0.000134
  58	5.6715e+00	2.2620	1.075897	0.000466	4.662967	1.579856	0.000187
  59	5.7710e+00	2.3037	1.205085	0.000324	3.243803	1.099030	0.000130
  60	5.8705e+00	2.3422	1.338310	0.000335	3.345172	1.133375	0.000134
  61	5.9700e+00	2.3871	1.528056	0.000476	4.764336	1.614201	0.000191
  62	6.0695e+00	2.4288	1.725876	0.000497	4.967074	1.682890	0.000199
  63	6.1690e+00	2.4529	1.838915	0.000284	2.838328	0.961651	0.000114
  64	6.2685e+00	2.5058	2.032698	0.000487	4.865705	1.648545	0.000195
  65	6.3680e+00	2.5427	2.194183	0.000405	4.054754	1.373788	0.000162
  66	6.4675e+00	2.5812	2.351632	0.000395	3.953385	1.339443	0.000158
  67	6.5670e+00	2.6149	2.561563	0.000527	5.271180	1.785924	0.000211
  68	6.6665e+00	2.6614	2.678640	0.000294	2.939697	0.995996	0.000118
  69	6.7660e+00	2.6951	2.856274	0.000446	4.460229	1.511167	0.000179
  70	6.8655e+00	2.7464	3.029870	0.000436	4.358860	1.476822	0.000174
  71	6.9650e+00	2.7801	3.167133	0.000345	3.446541	1.167720	0.000138
  72	7.0645e+00	2.8202	3.340730	0.000436	4.358860	1.476822	0.000174
  73	7.1640e+00	2.8587	3.514327	0.000436	4.358860	1.476822	0.000174
  74	7.2635e+00	2.9021	3.671775	0.000395	3.953385	1.339443	0.000158
  75	7.3630e+00	2.9374	3.861520	0.000476	4.764336	1.614201	0.000191
  76	7.4625e+00	2.9807	3.986672	0.000314	3.142434	1.064686	0.000126
  77	7.5620e+00	3.0192	4.176417	0.000476	4.764336	1.614201	0.000191
  78	7.6615e+00	3.0625	4.325791	0.000375	3.750647	1.270754	0.000150
  79	7.7610e+00	3.1026	4.471128	0.000365	3.649279	1.236409	0.000146
  80	7.8605e+00	3.1379	4.664910	0.000487	4.865705	1.648545	0.000195
  81	7.9600e+00	3.1748	4.826396	0.000405	4.054754	1.373788	0.000162
  82	8.0595e+00	3.2181	4.983844	0.000395	3.953385	1.339443	0.000158
  83	8.1590e+00	3.2486	5.141292	0.000395	3.953385	1.339443	0.000158
  84	8.2585e+00	3.2951	5.318926	0.000446	4.460229	1.511167	0.000179
  85	8.3580e+00	3.3368	5.508672	0.000476	4.764336	1.614201	0.000191
  86	8.4575e+00	3.3801	5.658046	0.000375	3.750647	1.270754	0.000150
  87	8.5570e+00	3.4106	5.787234	0.000324	3.243803	1.099030	0.000130
  88	8.6565e+00	3.4587	5.964868	0.000446	4.460229	1.511167	0.000179
  89	8.7560e+00	3.4956	6.146539	0.000456	4.561598	1.545511	0.000183
  90	8.8555e+00	3.5438	6.308025	0.000405	4.054754	1.373788	0.000162
  91	8.9550e+00	3.5790	6.453361	0.000365	3.649279	1.236409	0.000146
  92	9.0545e+00	3.6159	6.667330	0.000537	5.372549	1.820269	0.000215
  93	9.1540e+00	3.6544	6.808629	0.000355	3.547910	1.202064	0.000142
  94	9.2535e+00	3.7042	6.949929	0.000355	3.547910	1.202064	0.000142
  95	9.3530e+00	3.7363	7.147749	0.000497	4.967074	1.682890	0.000199
  96	9.4525e+00	3.7732	7.297123	0.000375	3.750647	1.270754	0.000150
  97	9.5520e+00	3.8197	7.498980	0.000507	5.068442	1.717235	0.000203
  98	9.6515e+00	3.8582	7.599908	0.000253	2.534221	0.858617	0.000101
  99	9.7510e+00	3.9079	7.813876	0.000537	5.372549	1.820269	0.000215
 100	9.8505e+00	3.9320	7.963250	0.000375	3.750647	1.270754	0.000150
 101	9.9500e+00	3.9817	8.104550	0.000355	3.547910	1.202064	0.000142
 102	1.0050e+01	4.0186	8.266035	0.000405	4.054754	1.373788	0.000162
 103	1.0149e+01	4.0539	8.403298	0.000345	3.446541	1.167720	0.000138
 104	1.0248e+01	4.0924	8.621303	0.000547	5.473918	1.854614	0.000219
 105	1.0348e+01	4.1389	8.758566	0.000345	3.446541	1.167720	0.000138
 106	1.0447e+01	4.1742	8.911977	0.000385	3.852016	1.305098	0.000154
 107	1.0547e+01	4.2159	9.109797	0.000497	4.967074	1.682890	0.000199
 108	1.0646e+01	4.2576	9.234948	0.000314	3.142434	1.064686	0.000126
 109	1.0746e+01	4.2993	9.412582	0.000446	4.460229	1.511167	0.000179
 110	1.0845e+01	4.3378	9.586179	0.000436	4.358860	1.476822	0.000174
 111	1.0945e+01	4.3796	9.719404	0.000335	3.345172	1.133375	0.000134
 112	1.1044e+01	4.4181	9.880890	0.000405	4.054754	1.373788	0.000162
 113	1.1144e+01	4.4550	10.046412	0.000416	4.156123	1.408133	0.000166
 114	1.1243e+01	4.4935	10.232121	0.000466	4.662967	1.579856	0.000187
 115	1.1343e+01	4.5320	10.381495	0.000375	3.750647	1.270754	0.000150
 116	1.1443e+01	4.5737	10.522794	0.000355	3.547910	1.202064	0.000142
 117	1.1542e+01	4.6090	10.708503	0.000466	4.662967	1.579856	0.000187
 118	1.1642e+01	4.6523	10.865951	0.000395	3.953385	1.339443	0.000158
 119	1.1741e+01	4.6924	10.995139	0.000324	3.243803	1.099030	0.000130
 120	1.1841e+01	4.7261	11.160662	0.000416	4.156123	1.408133	0.000166
 121	1.1940e+01	4.7758	11.334259	0.000436	4.358860	1.476822	0.000174
 122	1.2040e+01	4.8175	11.487670	0.000385	3.852016	1.305098	0.000154
 123	1.2139e+01	4.8480	11.624932	0.000345	3.446541	1.167720	0.000138
 124	1.2239e+01	4.8945	11.838901	0.000537	5.372549	1.820269	0.000215
 125	1.2338e+01	4.9426	11.964052	0.000314	3.142434	1.064686	0.000126
 126	1.2438e+01	4.9747	12.137649	0.000436	4.358860	1.476822	0.000174
 127	1.2537e+01	5.0100	12.254726	0.000294	2.939697	0.995996	0.000118
 128	1.2636e+01	5.0646	12.444471	0.000476	4.764336	1.614201	0.000191
 129	1.2736e+01	5.0950	12.618068	0.000436	4.358860	1.476822	0.000174
 130	1.2835e+01	5.1255	12.771479	0.000385	3.852016	1.305098	0.000154
 131	1.2935e+01	5.1640	12.924890	0.000385	3.852016	1.305098	0.000154
 132	1.3034e+01	5.2041	13.078301	0.000385	3.852016	1.305098	0.000154
 133	1.3134e+01	5.2571	13.259972	0.000456	4.561598	1.545511	0.000183
 134	1.3233e+01	5.3004	13.393198	0.000335	3.345172	1.133375	0.000134
 135	1.3333e+01	5.3212	13.570832	0.000446	4.460229	1.511167	0.000179
 136	1.3432e+01	5.3694	13.732317	0.000405	4.054754	1.373788	0.000162
 137	1.3532e+01	5.4175	13.865543	0.000335	3.345172	1.133375	0.000134
 138	1.3632e+01	5.4544	14.039140	0.000436	4.358860	1.476822	0.000174
 139	1.3731e+01	5.4977	14.192551	0.000385	3.852016	1.305098	0.000154
 140	1.3831e+01	5.5378	14.378259	0.000466	4.662967	1.579856	0.000187
 141	1.3930e+01	5.5731	14.551856	0.000436	4.358860	1.476822	0.000174
 142	1.4030e+01	5.6020	14.640673	0.000223	2.230115	0.755583	0.000089
 143	1.4129e+01	5.6437	14.830418	0.000476	4.764336	1.614201	0.000191
 144	1.4229e+01	5.6870	14.951532	0.000304	3.041065	1.030341	0.000122
 145	1.4328e+01	5.7432	15.125129	0.000436	4.358860	1.476822	0.000174
 146	1.4428e+01	5.7704	15.314874	0.000476	4.764336	1.614201	0.000191
 147	1.4527e+01	5.8105	15.464248	0.000375	3.750647	1.270754	0.000150
 148	1.4627e+01	5.8458	15.613622	0.000375	3.750647	1.270754	0.000150
 149	1.4726e+01	5.8923	15.758959	0.000365	3.649279	1.236409	0.000146
 150	1.4825e+01	5.9292	15.896222	0.000345	3.446541	1.167720	0.000138
 151	1.4925e+01	5.9677	16.077893	0.000456	4.561598	1.545511	0.000183
 152	1.5024e+01	6.0079	16.259564	0.000456	4.561598	1.545511	0.000183
 153	1.5124e+01	6.0383	16.388753	0.000324	3.243803	1.099030	0.000130
 154	1.5223e+01	6.0993	16.530052	0.000355	3.547910	1.202064	0.000142
 155	1.5323e+01	6.1362	16.671352	0.000355	3.547910	1.202064	0.000142
 156	1.5422e+01	6.1763	16.881283	0.000527	5.271180	1.785924	0.000211
 157	1.5522e+01	6.2052	16.962026	0.000203	2.027377	0.686894	0.000081
 158	1.5621e+01	6.2485	17.135623	0.000436	4.358860	1.476822	0.000174
 159	1.5721e+01	6.2806	17.309219	0.000436	4.358860	1.476822	0.000174
 160	1.5820e+01	6.3319	17.470705	0.000405	4.054754	1.373788	0.000162
 161	1.5920e+01	6.3672	17.607968	0.000345	3.446541	1.167720	0.000138
 162	1.6020e+01	6.4073	17.733119	0.000314	3.142434	1.064686	0.000126
 163	1.6119e+01	6.4442	17.914790	0.000456	4.561598	1.545511	0.000183
 164	1.6218e+01	6.4795	18.068201	0.000385	3.852016	1.305098	0.000154
 165	1.6318e+01	6.5228	18.209501	0.000355	3.547910	1.202064	0.000142
 166	1.6418e+01	6.5661	18.362912	0.000385	3.852016	1.305098	0.000154
 167	1.6517e+01	6.6094	18.500175	0.000345	3.446541	1.167720	0.000138
 168	1.6616e+01	6.6399	18.617251	0.000294	2.939697	0.995996	0.000118
 169	1.6716e+01	6.6816	18.802960	0.000466	4.662967	1.579856	0.000187
 170	1.6816e+01	6.7330	18.932148	0.000324	3.243803	1.099030	0.000130
 171	1.6915e+01	6.7602	19.085559	0.000385	3.852016	1.305098	0.000154
 172	1.7015e+01	6.8036	19.247045	0.000405	4.054754	1.373788	0.000162
 173	1.7114e+01	6.8501	19.376233	0.000324	3.243803	1.099030	0.000130
 174	1.7213e+01	6.8806	19.570015	0.000487	4.865705	1.648545	0.000195
 175	1.7313e+01	6.9207	19.691130	0.000304	3.041065	1.030341	0.000122
 176	1.7413e+01	6.9656	19.824355	0.000335	3.345172	1.133375	0.000134
 177	1.7512e+01	7.0073	19.997952	0.000436	4.358860	1.476822	0.000174
 178	1.7611e+01	7.0474	20.127140	0.000324	3.243803	1.099030	0.000130
 179	1.7711e+01	7.0875	20.264403	0.000345	3.446541	1.167720	0.000138
 180	1.7811e+01	7.1276	20.429925	0.000416	4.156123	1.408133	0.000166
 181	1.7910e+01	7.1581	20.599485	0.000426	4.257492	1.442477	0.000170
 182	1.8009e+01	7.2014	20.712525	0.000284	2.838328	0.961651	0.000114
 183	1.8109e+01	7.2463	20.914382	0.000507	5.068442	1.717235	0.000203
 184	1.8209e+01	7.2784	21.039533	0.000314	3.142434	1.064686	0.000126
 185	1.8308e+01	7.3281	21.188907	0.000375	3.750647	1.270754	0.000150
 186	1.8407e+01	7.3602	21.322132	0.000335	3.345172	1.133375	0.000134
 187	1.8507e+01	7.3971	21.475544	0.000385	3.852016	1.305098	0.000154
 188	1.8607e+01	7.4404	21.580509	0.000264	2.635590	0.892962	0.000105
 189	1.8706e+01	7.4902	21.790440	0.000527	5.271180	1.785924	0.000211
 190	1.8805e+01	7.5206	21.903480	0.000284	2.838328	0.961651	0.000114
 191	1.8905e+01	7.5543	22.048817	0.000365	3.649279	1.236409	0.000146
 192	1.9005e+01	7.6009	22.173968	0.000314	3.142434	1.064686	0.000126
 193	1.9104e+01	7.6378	22.359676	0.000466	4.662967	1.579856	0.000187
 194	1.9203e+01	7.6843	22.496939	0.000345	3.446541	1.167720	0.000138
 195	1.9303e+01	7.7276	22.646313	0.000375	3.750647	1.270754	0.000150
 196	1.9402e+01	7.7597	22.803761	0.000395	3.953385	1.339443	0.000158
 197	1.9502e+01	7.8110	22.941024	0.000345	3.446541	1.167720	0.000138
 198	1.9602e+01	7.8383	23.070212	0.000324	3.243803	1.099030	0.000130
 199	1.9701e+01	7.8816	23.247846	0.000446	4.460229	1.511167	0.000179
 200	1.9800e+01	7.9105	23.368960	0.000304	3.041065	1.030341	0.000122
 201	1.9900e+01	7.9570	23.534483	0.000416	4.156123	1.408133	0.000166
 202	2.0000e+01	7.9987	23.675783	0.000355	3.547910	1.202064	0.000142
 203	2.0099e+01	8.0340	23.817082	0.000355	3.547910	1.202064	0.000142
 204	2.0198e+01	8.0805	23.897825	0.000203	2.027377	0.686894	0.000081
 205	2.0298e+01	8.1190	24.091608	0.000487	4.865705	1.648545	0.000195
 206	2.0398e+01	8.1575	24.220796	0.000324	3.243803	1.099030	0.000130
 207	2.0497e+01	8.2008	24.418616	0.000497	4.967074	1.682890	0.000199
 208	2.0596e+01	8.2393	24.503395	0.000213	2.128746	0.721239	0.000085
 209	2.0696e+01	8.2778	24.660844	0.000395	3.953385	1.339443	0.000158
 210	2.0796e+01	8.3196	24.834440	0.000436	4.358860	1.476822	0.000174
 211	2.0895e+01	8.3532	24.967666	0.000335	3.345172	1.133375	0.000134
 212	2.0994e+01	8.3966	25.113003	0.000365	3.649279	1.236409	0.000146
 213	2.1094e+01	8.4302	25.254303	0.000355	3.547910	1.202064	0.000142
 214	2.1194e+01	8.4832	25.411751	0.000395	3.953385	1.339443	0.000158
 215	2.1293e+01	8.5217	25.500568	0.000223	2.230115	0.755583	0.000089
 216	2.1392e+01	8.5586	25.653979	0.000385	3.852016	1.305098	0.000154
 217	2.1492e+01	8.5955	25.807390	0.000385	3.852016	1.305098	0.000154
 218	2.1591e+01	8.6324	25.948690	0.000355	3.547910	1.202064	0.000142
 219	2.1691e+01	8.6821	26.085953	0.000345	3.446541	1.167720	0.000138
 220	2.1791e+01	8.7222	26.251475	0.000416	4.156123	1.408133	0.000166
 221	2.1890e+01	8.7479	26.364515	0.000284	2.838328	0.961651	0.000114
 222	2.1989e+01	8.7928	26.509852	0.000365	3.649279	1.236409	0.000146
 223	2.2089e+01	8.8329	26.667300	0.000395	3.953385	1.339443	0.000158
 224	2.2189e+01	8.8810	26.808600	0.000355	3.547910	1.202064	0.000142
 225	2.2288e+01	8.9131	26.970085	0.000405	4.054754	1.373788	0.000162
 226	2.2387e+01	8.9548	27.062939	0.000233	2.331483	0.789928	0.000093
 227	2.2487e+01	8.9933	27.175979	0.000284	2.838328	0.961651	0.000114
 228	2.2587e+01	9.0350	27.381873	0.000517	5.169811	1.751579	0.000207
 229	2.2686e+01	9.0719	27.511061	0.000324	3.243803	1.099030	0.000130
 230	2.2785e+01	9.1217	27.632176	0.000304	3.041065	1.030341	0.000122
 231	2.2885e+01	9.1457	27.781550	0.000375	3.750647	1.270754	0.000150
 232	2.2985e+01	9.2019	27.930924	0.000375	3.750647	1.270754	0.000150
 233	2.3084e+01	9.2356	28.068186	0.000345	3.446541	1.167720	0.000138
 234	2.3183e+01	9.2789	28.229672	0.000405	4.054754	1.373788	0.000162
 235	2.3283e+01	9.3190	28.346749	0.000294	2.939697	0.995996	0.000118
 236	2.3383e+01	9.3495	28.492085	0.000365	3.649279	1.236409	0.000146
 237	2.3482e+01	9.3912	28.629348	0.000345	3.446541	1.167720	0.000138
 238	2.3581e+01	9.4313	28.770648	0.000355	3.547910	1.202064	0.000142
 239	2.3681e+01	9.4746	28.895799	0.000314	3.142434	1.064686	0.000126
 240	2.3780e+01	9.5147	29.008839	0.000284	2.838328	0.961651	0.000114
 241	2.3880e+01	9.5628	29.158213	0.000375	3.750647	1.270754	0.000150
 242	2.3980e+01	9.5981	29.303550	0.000365	3.649279	1.236409	0.000146
 243	2.4079e+01	9.6366	29.465035	0.000405	4.054754	1.373788	0.000162
 244	2.4178e+01	9.6671	29.598261	0.000335	3.345172	1.133375	0.000134
 245	2.4278e+01	9.7152	29.715338	0.000294	2.939697	0.995996	0.000118
 246	2.4378e+01	9.7473	29.852600	0.000345	3.446541	1.167720	0.000138
 247	2.4477e+01	9.8019	30.018123	0.000416	4.156123	1.408133	0.000166
 248	2.4576e+01	9.8388	30.155385	0.000345	3.446541	1.167720	0.000138
 249	2.4676e+01	9.8724	30.264388	0.000274	2.736959	0.927307	0.000110
 250	2.4776e+01	9.9110	30.425873	0.000405	4.054754	1.373788	0.000162
 251	2.4875e+01	9.9559	30.530839	0.000264	2.635590	0.892962	0.000105
 252	2.4974e+01	9.9783	30.720584	0.000476	4.764336	1.614201	0.000191
 253	2.5074e+01	10.0329	30.837661	0.000294	2.939697	0.995996	0.000118
 254	2.5174e+01	10.0682	30.970887	0.000335	3.345172	1.133375	0.000134
 255	2.5273e+01	10.1067	31.112187	0.000355	3.547910	1.202064	0.000142
 256	2.5372e+01	10.1580	31.281746	0.000426	4.257492	1.442477	0.000170
 257	2.5472e+01	10.1965	31.374600	0.000233	2.331483	0.789928	0.000093
 258	2.5572e+01	10.2414	31.548197	0.000436	4.358860	1.476822	0.000174
 259	2.5671e+01	10.2719	31.661237	0.000284	2.838328	0.961651	0.000114
 260	2.5770e+01	10.3088	31.786388	0.000314	3.142434	1.064686	0.000126
 261	2.5870e+01	10.3489	31.951911	0.000416	4.156123	1.408133	0.000166
 262	2.5970e+01	10.3986	32.109359	0.000395	3.953385	1.339443	0.000158
 263	2.6069e+01	10.4323	32.234510	0.000314	3.142434	1.064686	0.000126
 264	2.6169e+01	10.4676	32.335439	0.000253	2.534221	0.858617	0.000101
 265	2.6268e+01	10.5125	32.513073	0.000446	4.460229	1.511167	0.000179
 266	2.6367e+01	10.5559	32.622075	0.000274	2.736959	0.927307	0.000110
 267	2.6467e+01	10.5927	32.759338	0.000345	3.446541	1.167720	0.000138
 268	2.6567e+01	10.6264	32.900638	0.000355	3.547910	1.202064	0.000142
 269	2.6666e+01	10.6714	33.045975	0.000365	3.649279	1.236409	0.000146
 270	2.6765e+01	10.7099	33.163052	0.000294	2.939697	0.995996	0.000118
 271	2.6865e+01	10.7500	33.292240	0.000324	3.243803	1.099030	0.000130
 272	2.6965e+01	10.7853	33.457762	0.000416	4.156123	1.408133	0.000166
 273	2.7064e+01	10.8238	33.550617	0.000233	2.331483	0.789928	0.000093
 274	2.7163e+01	10.8655	33.695953	0.000365	3.649279	1.236409	0.000146
 275	2.7263e+01	10.9152	33.841290	0.000365	3.649279	1.236409	0.000146
 276	2.7363e+01	10.9505	33.942219	0.000253	2.534221	0.858617	0.000101
 277	2.7462e+01	10.9906	34.140038	0.000497	4.967074	1.682890	0.000199
 278	2.7561e+01	11.0371	34.240967	0.000253	2.534221	0.858617	0.000101
 279	2.7661e+01	11.0596	34.341895	0.000253	2.534221	0.858617	0.000101
 280	2.7761e+01	11.1045	34.507418	0.000416	4.156123	1.408133	0.000166
 281	2.7860e+01	11.1590	34.644680	0.000345	3.446541	1.167720	0.000138
 282	2.7959e+01	11.1991	34.757720	0.000284	2.838328	0.961651	0.000114
 283	2.8059e+01	11.2248	34.870760	0.000284	2.838328	0.961651	0.000114
 284	2.8159e+01	11.2762	35.032245	0.000405	4.054754	1.373788	0.000162
 285	2.8258e+01	11.3066	35.165471	0.000335	3.345172	1.133375	0.000134
 286	2.8358e+01	11.3580	35.286585	0.000304	3.041065	1.030341	0.000122
 287	2.8457e+01	11.3884	35.407699	0.000304	3.041065	1.030341	0.000122
 288	2.8556e+01	11.4205	35.544962	0.000345	3.446541	1.167720	0.000138
 289	2.8656e+01	11.4719	35.686261	0.000355	3.547910	1.202064	0.000142
 290	2.8756e+01	11.5007	35.791227	0.000264	2.635590	0.892962	0.000105
 291	2.8855e+01	11.5344	35.940601	0.000375	3.750647	1.270754	0.000150
 292	2.8954e+01	11.5906	36.045566	0.000264	2.635590	0.892962	0.000105
 293	2.9054e+01	11.6227	36.170718	0.000314	3.142434	1.064686	0.000126
 294	2.9154e+01	11.6644	36.307980	0.000345	3.446541	1.167720	0.000138
 295	2.9253e+01	11.7013	36.469466	0.000405	4.054754	1.373788	0.000162
 296	2.9352e+01	11.7462	36.570394	0.000253	2.534221	0.858617	0.000101
 297	2.9452e+01	11.7879	36.735917	0.000416	4.156123	1.408133	0.000166
 298	2.9552e+01	11.8200	36.844919	0.000274	2.736959	0.927307	0.000110
 299	2.9651e+01	11.8697	36.974108	0.000324	3.243803	1.099030	0.000130
 300	2.9750e+01	11.9050	37.131556	0.000395	3.953385	1.339443	0.000158
 301	2.9850e+01	11.9419	37.240559	0.000274	2.736959	0.927307	0.000110
 302	2.9950e+01	11.9756	37.365710	0.000314	3.142434	1.064686	0.000126
 303	3.0049e+01	12.0205	37.515084	0.000375	3.750647	1.270754	0.000150
 304	3.0148e+01	12.0638	37.632161	0.000294	2.939697	0.995996	0.000118
 305	3.0248e+01	12.1071	37.729052	0.000243	2.432852	0.824273	0.000097
 306	3.0348e+01	12.1392	37.886500	0.000395	3.953385	1.339443	0.000158
 307	3.0447e+01	12.1874	38.011652	0.000314	3.142434	1.064686	0.000126
 308	3.0547e+01	12.2226	38.148914	0.000345	3.446541	1.167720	0.000138
 309	3.0646e+01	12.2628	38.257917	0.000274	2.736959	0.927307	0.000110
 310	3.0745e+01	12.3061	38.391142	0.000335	3.345172	1.133375	0.000134
 311	3.0845e+01	12.3462	38.560702	0.000426	4.257492	1.442477	0.000170
 312	3.0945e+01	12.3831	38.661630	0.000253	2.534221	0.858617	0.000101
 313	3.1044e+01	12.4232	38.770633	0.000274	2.736959	0.927307	0.000110
 314	3.1143e+01	12.4585	38.911933	0.000355	3.547910	1.202064	0.000142
 315	3.1243e+01	12.5002	39.012861	0.000253	2.534221	0.858617	0.000101
 316	3.1343e+01	12.5515	39.138012	0.000314	3.142434	1.064686	0.000126
 317	3.1442e+01	12.5836	39.279312	0.000355	3.547910	1.202064	0.000142
 318	3.1541e+01	12.6269	39.452909	0.000436	4.358860	1.476822	0.000174
 319	3.1641e+01	12.6606	39.541726	0.000223	2.230115	0.755583	0.000089
 320	3.1741e+01	12.7039	39.691100	0.000375	3.750647	1.270754	0.000150
 321	3.1840e+01	12.7392	39.816251	0.000314	3.142434	1.064686	0.000126
 322	3.1939e+01	12.7809	39.933328	0.000294	2.939697	0.995996	0.000118
 323	3.2039e+01	12.8210	40.022145	0.000223	2.230115	0.755583	0.000089
 324	3.2139e+01	12.8579	40.171519	0.000375	3.750647	1.270754	0.000150
 325	3.2238e+01	12.9109	40.304745	0.000335	3.345172	1.133375	0.000134
 326	3.2337e+01	12.9478	40.413747	0.000274	2.736959	0.927307	0.000110
 327	3.2437e+01	12.9782	40.506601	0.000233	2.331483	0.789928	0.000093
 328	3.2536e+01	13.0200	40.635790	0.000324	3.243803	1.099030	0.000130
 329	3.2636e+01	13.0569	40.777090	0.000355	3.547910	1.202064	0.000142
 330	3.2736e+01	13.1098	40.878018	0.000253	2.534221	0.858617	0.000101
 331	3.2835e+01	13.1467	41.051615	0.000436	4.358860	1.476822	0.000174
 332	3.2934e+01	13.1772	41.140432	0.000223	2.230115	0.755583	0.000089
 333	3.3034e+01	13.2173	41.233286	0.000233	2.331483	0.789928	0.000093
 334	3.3133e+01	13.2574	41.382660	0.000375	3.750647	1.270754	0.000150
 335	3.3233e+01	13.2927	41.511848	0.000324	3.243803	1.099030	0.000130
 336	3.3333e+01	13.3408	41.608739	0.000243	2.432852	0.824273	0.000097
 337	3.3432e+01	13.3841	41.758114	0.000375	3.750647	1.270754	0.000150
 338	3.3532e+01	13.4194	41.846930	0.000223	2.230115	0.755583	0.000089
 339	3.3631e+01	13.4563	42.012453	0.000416	4.156123	1.408133	0.000166
 340	3.3730e+01	13.4884	42.077047	0.000162	1.621902	0.549515	0.000065
 341	3.3830e+01	13.5397	42.238533	0.000405	4.054754	1.373788	0.000162
 342	3.3929e+01	13.5670	42.339461	0.000253	2.534221	0.858617	0.000101
 343	3.4029e+01	13.6119	42.488835	0.000375	3.750647	1.270754	0.000150
 344	3.4129e+01	13.6472	42.577652	0.000223	2.230115	0.755583	0.000089
 345	3.4228e+01	13.6921	42.739137	0.000405	4.054754	1.373788	0.000162
 346	3.4328e+01	13.7306	42.831992	0.000233	2.331483	0.789928	0.000093
 347	3.4427e+01	13.7788	42.953106	0.000304	3.041065	1.030341	0.000122
 348	3.4526e+01	13.8157	43.062108	0.000274	2.736959	0.927307	0.000110
 349	3.4626e+01	13.8526	43.239742	0.000446	4.460229	1.511167	0.000179
 350	3.4725e+01	13.8943	43.356819	0.000294	2.939697	0.995996	0.000118
 351	3.4825e+01	13.9344	43.433525	0.000193	1.926008	0.652549	0.000077
 352	3.4925e+01	13.9729	43.595010	0.000405	4.054754	1.373788	0.000162
 353	3.5024e+01	14.0162	43.716124	0.000304	3.041065	1.030341	0.000122
 354	3.5123e+01	14.0563	43.796867	0.000203	2.027377	0.686894	0.000081
 355	3.5223e+01	14.0932	43.913944	0.000294	2.939697	0.995996	0.000118
 356	3.5322e+01	14.1349	44.047169	0.000335	3.345172	1.133375	0.000134
 357	3.5422e+01	14.1830	44.188469	0.000355	3.547910	1.202064	0.000142
 358	3.5522e+01	14.2183	44.309583	0.000304	3.041065	1.030341	0.000122
 359	3.5621e+01	14.2584	44.442809	0.000335	3.345172	1.133375	0.000134
 360	3.5721e+01	14.2889	44.555849	0.000284	2.838328	0.961651	0.000114
 361	3.5820e+01	14.3386	44.685037	0.000324	3.243803	1.099030	0.000130
 362	3.5919e+01	14.3771	44.790002	0.000264	2.635590	0.892962	0.000105
 363	3.6019e+01	14.4140	44.923228	0.000335	3.345172	1.133375	0.000134
 364	3.6118e+01	14.4590	45.032231	0.000274	2.736959	0.927307	0.000110
 365	3.6218e+01	14.4926	45.153345	0.000304	3.041065	1.030341	0.000122
 366	3.6318e+01	14.5295	45.278496	0.000314	3.142434	1.064686	0.000126
 367	3.6417e+01	14.5632	45.407684	0.000324	3.243803	1.099030	0.000130
 368	3.6517e+01	14.6178	45.508613	0.000253	2.534221	0.858617	0.000101
 369	3.6616e+01	14.6531	45.637801	0.000324	3.243803	1.099030	0.000130
 370	3.6715e+01	14.6964	45.779101	0.000355	3.547910	1.202064	0.000142
 371	3.6815e+01	14.7397	45.863881	0.000213	2.128746	0.721239	0.000085
 372	3.6914e+01	14.7766	46.005180	0.000355	3.547910	1.202064	0.000142
 373	3.7014e+01	14.8183	46.146480	0.000355	3.547910	1.202064	0.000142
 374	3.7114e+01	14.8488	46.251446	0.000264	2.635590	0.892962	0.000105
 375	3.7213e+01	14.8905	46.352374	0.000253	2.534221	0.858617	0.000101
 376	3.7313e+01	14.9322	46.497711	0.000365	3.649279	1.236409	0.000146
 377	3.7412e+01	14.9627	46.630936	0.000335	3.345172	1.133375	0.000134
 378	3.7511e+01	15.0092	46.727828	0.000243	2.432852	0.824273	0.000097
 379	3.7611e+01	15.0509	46.840867	0.000284	2.838328	0.961651	0.000114
 380	3.7711e+01	15.0910	46.945833	0.000264	2.635590	0.892962	0.000105
 381	3.7810e+01	15.1279	47.095207	0.000375	3.750647	1.270754	0.000150
 382	3.7910e+01	15.1696	47.220358	0.000314	3.142434	1.064686	0.000126
 383	3.8009e+01	15.2017	47.349547	0.000324	3.243803	1.099030	0.000130
 384	3.8108e+01	15.2579	47.434326	0.000213	2.128746	0.721239	0.000085
 385	3.8208e+01	15.2915	47.587738	0.000385	3.852016	1.305098	0.000154
 386	3.8307e+01	15.3268	47.708852	0.000304	3.041065	1.030341	0.000122
 387	3.8407e+01	15.3686	47.809780	0.000253	2.534221	0.858617	0.000101
 388	3.8507e+01	15.4135	47.922820	0.000284	2.838328	0.961651	0.000114
 389	3.8606e+01	15.4472	48.104491	0.000456	4.561598	1.545511	0.000183
 390	3.8706e+01	15.4969	48.217531	0.000284	2.838328	0.961651	0.000114
 391	3.8805e+01	15.5322	48.290199	0.000182	1.824639	0.618205	0.000073
 392	3.8904e+01	15.5691	48.435536	0.000365	3.649279	1.236409	0.000146
 393	3.9004e+01	15.6044	48.568761	0.000335	3.345172	1.133375	0.000134
 394	3.9103e+01	15.6493	48.669690	0.000253	2.534221	0.858617	0.000101
 395	3.9203e+01	15.6894	48.810990	0.000355	3.547910	1.202064	0.000142
 396	3.9303e+01	15.7295	48.924029	0.000284	2.838328	0.961651	0.000114
 397	3.9402e+01	15.7712	49.028995	0.000264	2.635590	0.892962	0.000105
 398	3.9502e+01	15.8065	49.198555	0.000426	4.257492	1.442477	0.000170
 399	3.9601e+01	15.8530	49.291409	0.000233	2.331483	0.789928	0.000093
 400	3.9700e+01	15.8851	49.388300	0.000243	2.432852	0.824273	0.000097
 401	3.9800e+01	15.9332	49.541711	0.000385	3.852016	1.305098	0.000154
 402	3.9900e+01	15.9621	49.658788	0.000294	2.939697	0.995996	0.000118
 403	3.9999e+01	16.0102	49.800088	0.000355	3.547910	1.202064	0.000142
 404	4.0099e+01	16.0600	49.933313	0.000335	3.345172	1.133375	0.000134
 405	4.0198e+01	16.0921	50.001945	0.000172	1.723270	0.583860	0.000069
 406	4.0297e+01	16.1274	50.155356	0.000385	3.852016	1.305098	0.000154
 407	4.0397e+01	16.1675	50.316841	0.000405	4.054754	1.373788	0.000162
 408	4.0496e+01	16.2028	50.433918	0.000294	2.939697	0.995996	0.000118
 409	4.0596e+01	16.2493	50.530809	0.000243	2.432852	0.824273	0.000097
 410	4.0696e+01	16.2862	50.659998	0.000324	3.243803	1.099030	0.000130
 411	4.0795e+01	16.3247	50.797260	0.000345	3.446541	1.167720	0.000138
 412	4.0895e+01	16.3648	50.922412	0.000314	3.142434	1.064686	0.000126
 413	4.0994e+01	16.4081	51.075823	0.000385	3.852016	1.305098	0.000154
 414	4.1093e+01	16.4514	51.140417	0.000162	1.621902	0.549515	0.000065
 415	4.1193e+01	16.4851	51.257494	0.000294	2.939697	0.995996	0.000118
 416	4.1292e+01	16.5204	51.431091	0.000436	4.358860	1.476822	0.000174
 417	4.1392e+01	16.5701	51.576428	0.000365	3.649279	1.236409	0.000146
 418	4.1492e+01	16.6086	51.697542	0.000304	3.041065	1.030341	0.000122
 419	4.1591e+01	16.6455	51.838841	0.000355	3.547910	1.202064	0.000142
 420	4.1691e+01	16.6920	51.939770	0.000253	2.534221	0.858617	0.000101
 421	4.1790e+01	16.7161	52.093181	0.000385	3.852016	1.305098	0.000154
 422	4.1889e+01	16.7690	52.206221	0.000284	2.838328	0.961651	0.000114
 423	4.1989e+01	16.7963	52.307149	0.000253	2.534221	0.858617	0.000101
 424	4.2089e+01	16.8300	52.440375	0.000335	3.345172	1.133375	0.000134
 425	4.2188e+01	16.8910	52.601860	0.000405	4.054754	1.373788	0.000162
 426	4.2288e+01	16.9327	52.698751	0.000243	2.432852	0.824273	0.000097
 427	4.2387e+01	16.9696	52.844088	0.000365	3.649279	1.236409	0.000146
 428	4.2486e+01	17.0001	52.977314	0.000335	3.345172	1.133375	0.000134
 429	4.2586e+01	17.0450	53.082279	0.000264	2.635590	0.892962	0.000105
 430	4.2685e+01	17.0867	53.235690	0.000385	3.852016	1.305098	0.000154
 431	4.2785e+01	17.1252	53.364879	0.000324	3.243803	1.099030	0.000130
 432	4.2885e+01	17.1589	53.473881	0.000274	2.736959	0.927307	0.000110
 433	4.2984e+01	17.1958	53.594995	0.000304	3.041065	1.030341	0.000122
 434	4.3084e+01	17.2295	53.768592	0.000436	4.358860	1.476822	0.000174
 435	4.3183e+01	17.2744	53.873558	0.000264	2.635590	0.892962	0.000105
 436	4.3282e+01	17.3273	54.014858	0.000355	3.547910	1.202064	0.000142
 437	4.3382e+01	17.3594	54.107712	0.000233	2.331483	0.789928	0.000093
 438	4.3481e+01	17.3963	54.281309	0.000436	4.358860	1.476822	0.000174
 439	4.3581e+01	17.4396	54.418571	0.000345	3.446541	1.167720	0.000138
 440	4.3681e+01	17.4861	54.547760	0.000324	3.243803	1.099030	0.000130
 441	4.3780e+01	17.5198	54.664836	0.000294	2.939697	0.995996	0.000118
 442	4.3880e+01	17.5680	54.810173	0.000365	3.649279	1.236409	0.000146
 443	4.3979e+01	17.6000	54.919176	0.000274	2.736959	0.927307	0.000110
 444	4.4078e+01	17.6401	55.052401	0.000335	3.345172	1.133375	0.000134
 445	4.4178e+01	17.6883	55.221961	0.000426	4.257492	1.442477	0.000170
 446	4.4278e+01	17.7236	55.286555	0.000162	1.621902	0.549515	0.000065
 447	4.4377e+01	17.7556	55.460152	0.000436	4.358860	1.476822	0.000174
 448	4.4477e+01	17.8006	55.589341	0.000324	3.243803	1.099030	0.000130
 449	4.4576e+01	17.8423	55.726603	0.000345	3.446541	1.167720	0.000138
 450	4.4675e+01	17.8663	55.847717	0.000304	3.041065	1.030341	0.000122
 451	4.4775e+01	17.9241	55.968831	0.000304	3.041065	1.030341	0.000122
 452	4.4874e+01	17.9578	56.102057	0.000335	3.345172	1.133375	0.000134
 453	4.4974e+01	17.9995	56.223171	0.000304	3.041065	1.030341	0.000122
 454	4.5074e+01	18.0396	56.360433	0.000345	3.446541	1.167720	0.000138
 455	4.5173e+01	18.0797	56.534030	0.000436	4.358860	1.476822	0.000174
 456	4.5273e+01	18.1182	56.643033	0.000274	2.736959	0.927307	0.000110
 457	4.5372e+01	18.1663	56.804518	0.000405	4.054754	1.373788	0.000162
 458	4.5471e+01	18.1936	56.913521	0.000274	2.736959	0.927307	0.000110
 459	4.5571e+01	18.2369	57.010412	0.000243	2.432852	0.824273	0.000097
 460	4.5670e+01	18.2658	57.188046	0.000446	4.460229	1.511167	0.000179
 461	4.5770e+01	18.3252	57.321272	0.000335	3.345172	1.133375	0.000134
 462	4.5870e+01	18.3572	57.470646	0.000375	3.750647	1.270754	0.000150
 463	4.5969e+01	18.4022	57.660391	0.000476	4.764336	1.614201	0.000191
 464	4.6069e+01	18.4423	57.761320	0.000253	2.534221	0.858617	0.000101
 465	4.6168e+01	18.4808	57.910694	0.000375	3.750647	1.270754	0.000150
 466	4.6267e+01	18.5209	58.027771	0.000294	2.939697	0.995996	0.000118
 467	4.6367e+01	18.5513	58.169070	0.000355	3.547910	1.202064	0.000142
 468	4.6467e+01	18.5915	58.278073	0.000274	2.736959	0.927307	0.000110
 469	4.6566e+01	18.6428	58.475893	0.000497	4.967074	1.682890	0.000199
 470	4.6666e+01	18.6829	58.572784	0.000243	2.432852	0.824273	0.000097
 471	4.6765e+01	18.7198	58.746381	0.000436	4.358860	1.476822	0.000174
 472	4.6864e+01	18.7567	58.871532	0.000314	3.142434	1.064686	0.000126
 473	4.6964e+01	18.7968	58.988609	0.000294	2.939697	0.995996	0.000118
 474	4.7063e+01	18.8401	59.166243	0.000446	4.460229	1.511167	0.000179
 475	4.7163e+01	18.8818	59.295431	0.000324	3.243803	1.099030	0.000130
 476	4.7263e+01	18.9123	59.428657	0.000335	3.345172	1.133375	0.000134
 477	4.7362e+01	18.9508	59.594179	0.000416	4.156123	1.408133	0.000166
 478	4.7462e+01	18.9957	59.751627	0.000395	3.953385	1.339443	0.000158
 479	4.7561e+01	19.0406	59.905039	0.000385	3.852016	1.305098	0.000154
 480	4.7660e+01	19.0823	60.034227	0.000324	3.243803	1.099030	0.000130
 481	4.7760e+01	19.1144	60.187638	0.000385	3.852016	1.305098	0.000154
 482	4.7859e+01	19.1545	60.320864	0.000335	3.345172	1.133375	0.000134
 483	4.7959e+01	19.1946	60.474275	0.000385	3.852016	1.305098	0.000154
 484	4.8059e+01	19.2364	60.659983	0.000466	4.662967	1.579856	0.000187
 485	4.8158e+01	19.2781	60.768986	0.000274	2.736959	0.927307	0.000110
 486	4.8258e+01	19.3069	60.902211	0.000335	3.345172	1.133375	0.000134
 487	4.8357e+01	19.3519	61.067734	0.000416	4.156123	1.408133	0.000166
 488	4.8456e+01	19.3968	61.245368	0.000446	4.460229	1.511167	0.000179
 489	4.8556e+01	19.4321	61.342259	0.000243	2.432852	0.824273	0.000097
 490	4.8656e+01	19.4834	61.523930	0.000456	4.561598	1.545511	0.000183
 491	4.8755e+01	19.5043	61.721750	0.000497	4.967074	1.682890	0.000199
 492	4.8855e+01	19.5540	61.830752	0.000274	2.736959	0.927307	0.000110
 493	4.8954e+01	19.5941	61.939755	0.000274	2.736959	0.927307	0.000110
 494	4.9053e+01	19.6294	62.133538	0.000487	4.865705	1.648545	0.000195
 495	4.9153e+01	19.6727	62.246577	0.000284	2.838328	0.961651	0.000114
 496	4.9252e+01	19.7112	62.416137	0.000426	4.257492	1.442477	0.000170
 497	4.9352e+01	19.7513	62.581660	0.000416	4.156123	1.408133	0.000166
 498	4.9452e+01	19.7898	62.779479	0.000497	4.967074	1.682890	0.000199
 499	4.9551e+01	19.8331	62.884445	0.000264	2.635590	0.892962	0.000105
 500	4.9651e+01	19.8797	63.029782	0.000365	3.649279	1.236409	0.000146
 501	4.9750e+01	19.9117	63.199341	0.000426	4.257492	1.442477	0.000170
 502	4.9849e+01	19.9583	63.344678	0.000365	3.649279	1.236409	0.000146
 503	4.9949e+01	19.9903	63.510201	0.000416	4.156123	1.408133	0.000166
 504	5.0048e+01	19.9567	63.473867	0.000091	0.912320	0.309102	-0.000037
 505	5.0148e+01	19.9182	63.433495	0.000101	1.013688	0.343447	-0.000041
 506	5.0248e+01	19.8732	63.445607	-0.000030	-0.304107	-0.103034	0.000012
 507	5.0347e+01	19.8347	63.397161	0.000122	1.216426	0.412136	-0.000049
 508	5.0447e+01	19.8010	63.368901	0.000071	0.709582	0.240413	-0.000028
 509	5.0546e+01	19.7545	63.308344	0.000152	1.520533	0.515170	-0.000061
 510	5.0645e+01	19.7064	63.292196	0.000041	0.405475	0.137379	-0.000016
 511	5.0745e+01	19.6759	63.255861	0.000091	0.912320	0.309102	-0.000037
 512	5.0844e+01	19.6422	63.195304	0.000152	1.520533	0.515170	-0.000061
 513	5.0944e+01	19.5941	63.150896	0.000112	1.115057	0.377792	-0.000045
 514	5.1044e+01	19.5476	63.142822	0.000020	0.202738	0.068689	-0.000008
 515	5.1143e+01	19.5203	63.098413	0.000112	1.115057	0.377792	-0.000045
 516	5.1242e+01	19.4626	63.054005	0.000112	1.115057	0.377792	-0.000045
 517	5.1342e+01	19.4337	63.025745	0.000071	0.709582	0.240413	-0.000028
 518	5.1441e+01	19.3920	62.949039	0.000193	1.926008	0.652549	-0.000077
 519	5.1541e+01	19.3599	62.912705	0.000091	0.912320	0.309102	-0.000037
 520	5.1641e+01	19.3118	62.860222	0.000132	1.317795	0.446481	-0.000053
 521	5.1740e+01	19.2716	62.860222	-0.000000	-0.000000	-0.000000	0.000000
 522	5.1840e+01	19.2283	62.763331	0.000243	2.432852	0.824273	-0.000097
 523	5.1939e+01	19.1979	62.731034	0.000081	0.810951	0.274758	-0.000032
 524	5.2038e+01	19.1497	62.694699	0.000091	0.912320	0.309102	-0.000037
 525	5.2138e+01	19.1176	62.630105	0.000162	1.621902	0.549515	-0.000065
 526	5.2237e+01	19.0743	62.561474	0.000172	1.723270	0.583860	-0.000069
 527	5.2337e+01	19.0358	62.525140	0.000091	0.912320	0.309102	-0.000037
 528	5.2437e+01	18.9957	62.456508	0.000172	1.723270	0.583860	-0.000069
 529	5.2536e+01	18.9572	62.416137	0.000101	1.013688	0.343447	-0.000041
 530	5.2636e+01	18.9299	62.379803	0.000091	0.912320	0.309102	-0.000037
 531	5.2735e+01	18.8802	62.307134	0.000182	1.824639	0.618205	-0.000073
 532	5.2834e+01	18.8369	62.250615	0.000142	1.419164	0.480826	-0.000057
 533	5.2934e+01	18.8032	62.198132	0.000132	1.317795	0.446481	-0.000053
 534	5.3033e+01	18.7487	62.129500	0.000172	1.723270	0.583860	-0.000069
 535	5.3133e+01	18.7198	62.064906	0.000162	1.621902	0.549515	-0.000065
 536	5.3233e+01	18.6701	61.972052	0.000233	2.331483	0.789928	-0.000093
 537	5.3332e+01	18.6348	61.939755	0.000081	0.810951	0.274758	-0.000032
 538	5.3431e+01	18.5915	61.903421	0.000091	0.912320	0.309102	-0.000037
 539	5.3531e+01	18.5690	61.826715	0.000193	1.926008	0.652549	-0.000077
 540	5.3630e+01	18.5257	61.709638	0.000294	2.939697	0.995996	-0.000118
 541	5.3730e+01	18.4792	61.653118	0.000142	1.419164	0.480826	-0.000057
 542	5.3830e+01	18.4455	61.568339	0.000213	2.128746	0.721239	-0.000085
 543	5.3929e+01	18.3909	61.540079	0.000071	0.709582	0.240413	-0.000028
 544	5.4029e+01	18.3637	61.491633	0.000122	1.216426	0.412136	-0.000049
 545	5.4128e+01	18.3187	61.394742	0.000243	2.432852	0.824273	-0.000097
 546	5.4227e+01	18.2770	61.322073	0.000182	1.824639	0.618205	-0.000073
 547	5.4327e+01	18.2321	61.265553	0.000142	1.419164	0.480826	-0.000057
 548	5.4426e+01	18.2032	61.188848	0.000193	1.926008	0.652549	-0.000077
 549	5.4526e+01	18.1663	61.124254	0.000162	1.621902	0.549515	-0.000065
 550	5.4626e+01	18.1214	61.055622	0.000172	1.723270	0.583860	-0.000069
 551	5.4725e+01	18.0861	60.970842	0.000213	2.128746	0.721239	-0.000085
 552	5.4825e+01	18.0460	60.894137	0.000193	1.926008	0.652549	-0.000077
 553	5.4924e+01	17.9979	60.845691	0.000122	1.216426	0.412136	-0.000049
 554	5.5023e+01	17.9610	60.773023	0.000182	1.824639	0.618205	-0.000073
 555	5.5123e+01	17.9193	60.664020	0.000274	2.736959	0.927307	-0.000110
 556	5.5222e+01	17.8856	60.567129	0.000243	2.432852	0.824273	-0.000097
 557	5.5322e+01	17.8439	60.542906	0.000061	0.608213	0.206068	-0.000024
 558	5.5422e+01	17.7990	60.413718	0.000324	3.243803	1.099030	-0.000130
 559	5.5521e+01	17.7573	60.341049	0.000182	1.824639	0.618205	-0.000073
 560	5.5620e+01	17.7236	60.260307	0.000203	2.027377	0.686894	-0.000081
 561	5.5720e+01	17.6851	60.219935	0.000101	1.013688	0.343447	-0.000041
 562	5.5819e+01	17.6321	60.131118	0.000223	2.230115	0.755583	-0.000089
 563	5.5919e+01	17.6016	60.014041	0.000294	2.939697	0.995996	-0.000118
 564	5.6019e+01	17.5680	59.945410	0.000172	1.723270	0.583860	-0.000069
 565	5.6118e+01	17.5311	59.892927	0.000132	1.317795	0.446481	-0.000053
 566	5.6218e+01	17.4829	59.816222	0.000193	1.926008	0.652549	-0.000077
 567	5.6317e+01	17.4332	59.727405	0.000223	2.230115	0.755583	-0.000089
 568	5.6416e+01	17.3963	59.650699	0.000193	1.926008	0.652549	-0.000077
 569	5.6516e+01	17.3562	59.565919	0.000213	2.128746	0.721239	-0.000085
 570	5.6615e+01	17.3273	59.481139	0.000213	2.128746	0.721239	-0.000085
 571	5.6715e+01	17.2824	59.412508	0.000172	1.723270	0.583860	-0.000069
 572	5.6815e+01	17.2455	59.287357	0.000314	3.142434	1.064686	-0.000126
 573	5.6914e+01	17.2038	59.234874	0.000132	1.317795	0.446481	-0.000053
 574	5.7014e+01	17.1621	59.129909	0.000264	2.635590	0.892962	-0.000105
 575	5.7113e+01	17.1188	59.061277	0.000172	1.723270	0.583860	-0.000069
 576	5.7212e+01	17.0835	58.984572	0.000193	1.926008	0.652549	-0.000077
 577	5.7312e+01	17.0498	58.907866	0.000193	1.926008	0.652549	-0.000077
 578	5.7411e+01	17.0065	58.831161	0.000193	1.926008	0.652549	-0.000077
 579	5.7511e+01	16.9632	58.718121	0.000284	2.838328	0.961651	-0.000114
 580	5.7611e+01	16.9279	58.649489	0.000172	1.723270	0.583860	-0.000069
 581	5.7710e+01	16.8813	58.568747	0.000203	2.027377	0.686894	-0.000081
 582	5.7809e+01	16.8477	58.451670	0.000294	2.939697	0.995996	-0.000118
 583	5.7909e+01	16.8108	58.354779	0.000243	2.432852	0.824273	-0.000097
 584	5.8008e+01	16.7690	58.314407	0.000101	1.013688	0.343447	-0.000041
 585	5.8108e+01	16.7209	58.173107	0.000355	3.547910	1.202064	-0.000142
 586	5.8208e+01	16.6872	58.120625	0.000132	1.317795	0.446481	-0.000053
 587	5.8307e+01	16.6503	58.047956	0.000182	1.824639	0.618205	-0.000073
 588	5.8407e+01	16.6038	57.955102	0.000233	2.331483	0.789928	-0.000093
 589	5.8506e+01	16.5621	57.866285	0.000223	2.230115	0.755583	-0.000089
 590	5.8605e+01	16.5188	57.761320	0.000264	2.635590	0.892962	-0.000105
 591	5.8705e+01	16.4867	57.688651	0.000182	1.824639	0.618205	-0.000073
 592	5.8804e+01	16.4482	57.611946	0.000193	1.926008	0.652549	-0.000077
 593	5.8904e+01	16.4049	57.511017	0.000253	2.534221	0.858617	-0.000101
 594	5.9004e+01	16.3632	57.418163	0.000233	2.331483	0.789928	-0.000093
 595	5.9103e+01	16.3247	57.313198	0.000264	2.635590	0.892962	-0.000105
 596	5.9203e+01	16.2830	57.256678	0.000142	1.419164	0.480826	-0.000057
 597	5.9302e+01	16.2541	57.131526	0.000314	3.142434	1.064686	-0.000126
 598	5.9401e+01	16.2060	57.022524	0.000274	2.736959	0.927307	-0.000110
 599	5.9501e+01	16.1707	56.921595	0.000253	2.534221	0.858617	-0.000101
 600	5.9600e+01	16.1274	56.877187	0.000112	1.115057	0.377792	-0.000045
 601	5.9700e+01	16.0905	56.788370	0.000223	2.230115	0.755583	-0.000089
 602	5.9800e+01	16.0536	56.695516	0.000233	2.331483	0.789928	-0.000093
 603	5.9899e+01	16.0070	56.598624	0.000243	2.432852	0.824273	-0.000097
 604	5.9998e+01	15.9653	56.469436	0.000324	3.243803	1.099030	-0.000130
 605	6.0098e+01	15.9220	56.412916	0.000142	1.419164	0.480826	-0.000057
 606	6.0197e+01	15.8883	56.291802	0.000304	3.041065	1.030341	-0.000122
 607	6.0297e+01	15.8466	56.174725	0.000294	2.939697	0.995996	-0.000118
 608	6.0397e+01	15.8033	56.093983	0.000203	2.027377	0.686894	-0.000081
 609	6.0496e+01	15.7696	56.009203	0.000213	2.128746	0.721239	-0.000085
 610	6.0596e+01	15.7279	55.908274	0.000253	2.534221	0.858617	-0.000101
 611	6.0695e+01	15.6878	55.803309	0.000264	2.635590	0.892962	-0.000105
 612	6.0794e+01	15.6445	55.698343	0.000264	2.635590	0.892962	-0.000105
 613	6.0894e+01	15.6108	55.617600	0.000203	2.027377	0.686894	-0.000081
 614	6.0993e+01	15.5659	55.524746	0.000233	2.331483	0.789928	-0.000093
 615	6.1093e+01	15.5370	55.415744	0.000274	2.736959	0.927307	-0.000110
 616	6.1193e+01	15.4889	55.314815	0.000253	2.534221	0.858617	-0.000101
 617	6.1292e+01	15.4584	55.193701	0.000304	3.041065	1.030341	-0.000122
 618	6.1392e+01	15.4199	55.125070	0.000172	1.723270	0.583860	-0.000069
 619	6.1491e+01	15.3718	55.044327	0.000203	2.027377	0.686894	-0.000081
 620	6.1590e+01	15.3317	54.923213	0.000304	3.041065	1.030341	-0.000122
 621	6.1690e+01	15.2915	54.834396	0.000223	2.230115	0.755583	-0.000089
 622	6.1789e+01	15.2563	54.721356	0.000284	2.838328	0.961651	-0.000114
 623	6.1889e+01	15.2145	54.620428	0.000253	2.534221	0.858617	-0.000101
 624	6.1989e+01	15.1728	54.543722	0.000193	1.926008	0.652549	-0.000077
 625	6.2088e+01	15.1375	54.442794	0.000253	2.534221	0.858617	-0.000101
 626	6.2188e+01	15.0926	54.309569	0.000335	3.345172	1.133375	-0.000134
 627	6.2287e+01	15.0461	54.249011	0.000152	1.520533	0.515170	-0.000061
 628	6.2386e+01	15.0156	54.115786	0.000335	3.345172	1.133375	-0.000134
 629	6.2486e+01	14.9675	54.010820	0.000264	2.635590	0.892962	-0.000105
 630	6.2586e+01	14.9434	53.897781	0.000284	2.838328	0.961651	-0.000114
 631	6.2685e+01	14.8985	53.817038	0.000203	2.027377	0.686894	-0.000081
 632	6.2785e+01	14.8536	53.683812	0.000335	3.345172	1.133375	-0.000134
 633	6.2884e+01	14.8039	53.631330	0.000132	1.317795	0.446481	-0.000053
 634	6.2983e+01	14.7702	53.498104	0.000335	3.345172	1.133375	-0.000134
 635	6.3083e+01	14.7253	53.376990	0.000304	3.041065	1.030341	-0.000122
 636	6.3182e+01	14.6996	53.308359	0.000172	1.723270	0.583860	-0.000069
 637	6.3282e+01	14.6547	53.231653	0.000193	1.926008	0.652549	-0.000077
 638	6.3382e+01	14.6130	53.082279	0.000375	3.750647	1.270754	-0.000150
 639	6.3481e+01	14.5745	52.993462	0.000223	2.230115	0.755583	-0.000089
 640	6.3581e+01	14.5343	52.912720	0.000203	2.027377	0.686894	-0.000081
 641	6.3680e+01	14.4926	52.779494	0.000335	3.345172	1.133375	-0.000134
 642	6.3779e+01	14.4509	52.674529	0.000264	2.635590	0.892962	-0.000105
 643	6.3879e+01	14.4044	52.545340	0.000324	3.243803	1.099030	-0.000130
 644	6.3978e+01	14.3723	52.468635	0.000193	1.926008	0.652549	-0.000077
 645	6.4078e+01	14.3290	52.363669	0.000264	2.635590	0.892962	-0.000105
 646	6.4177e+01	14.2937	52.238518	0.000314	3.142434	1.064686	-0.000126
 647	6.4277e+01	14.2536	52.153738	0.000213	2.128746	0.721239	-0.000085
 648	6.4376e+01	14.2135	52.036661	0.000294	2.939697	0.995996	-0.000118
 649	6.4476e+01	14.1798	51.927658	0.000274	2.736959	0.927307	-0.000110
 650	6.4576e+01	14.1365	51.854990	0.000182	1.824639	0.618205	-0.000073
 651	6.4675e+01	14.0916	51.754062	0.000253	2.534221	0.858617	-0.000101
 652	6.4775e+01	14.0531	51.592576	0.000405	4.054754	1.373788	-0.000162
 653	6.4874e+01	14.0146	51.483573	0.000274	2.736959	0.927307	-0.000110
 654	6.4974e+01	13.9761	51.386682	0.000243	2.432852	0.824273	-0.000097
 655	6.5073e+01	13.9328	51.293828	0.000233	2.331483	0.789928	-0.000093
 656	6.5172e+01	13.8894	51.168677	0.000314	3.142434	1.064686	-0.000126
 657	6.5272e+01	13.8606	51.104083	0.000162	1.621902	0.549515	-0.000065
 658	6.5371e+01	13.8108	50.938560	0.000416	4.156123	1.408133	-0.000166
 659	6.5471e+01	13.7820	50.873966	0.000162	1.621902	0.549515	-0.000065
 660	6.5570e+01	13.7354	50.773038	0.000253	2.534221	0.858617	-0.000101
 661	6.5670e+01	13.6969	50.655961	0.000294	2.939697	0.995996	-0.000118
 662	6.5769e+01	13.6600	50.542921	0.000284	2.838328	0.961651	-0.000114
 663	6.5869e+01	13.6135	50.405658	0.000345	3.446541	1.167720	-0.000138
 664	6.5969e+01	13.5846	50.292618	0.000284	2.838328	0.961651	-0.000114
 665	6.6068e+01	13.5333	50.179579	0.000284	2.838328	0.961651	-0.000114
 666	6.6168e+01	13.4948	50.086725	0.000233	2.331483	0.789928	-0.000093
 667	6.6267e+01	13.4595	49.961573	0.000314	3.142434	1.064686	-0.000126
 668	6.6367e+01	13.4178	49.864682	0.000243	2.432852	0.824273	-0.000097
 669	6.6466e+01	13.3729	49.743568	0.000304	3.041065	1.030341	-0.000122
 670	6.6566e+01	13.3344	49.606305	0.000345	3.446541	1.167720	-0.000138
 671	6.6665e+01	13.2975	49.513451	0.000233	2.331483	0.789928	-0.000093
 672	6.6764e+01	13.2574	49.408486	0.000264	2.635590	0.892962	-0.000105
 673	6.6864e+01	13.2060	49.287372	0.000304	3.041065	1.030341	-0.000122
 674	6.6963e+01	13.1804	49.174332	0.000284	2.838328	0.961651	-0.000114
 675	6.7063e+01	13.1371	49.073403	0.000253	2.534221	0.858617	-0.000101
 676	6.7162e+01	13.1034	48.952289	0.000304	3.041065	1.030341	-0.000122
 677	6.7262e+01	13.0601	48.855398	0.000243	2.432852	0.824273	-0.000097
 678	6.7362e+01	13.0167	48.706024	0.000375	3.750647	1.270754	-0.000150
 679	6.7461e+01	12.9798	48.645467	0.000152	1.520533	0.515170	-0.000061
 680	6.7561e+01	12.9349	48.488019	0.000395	3.953385	1.339443	-0.000158
 681	6.7660e+01	12.8980	48.370942	0.000294	2.939697	0.995996	-0.000118
 682	6.7760e+01	12.8611	48.249828	0.000304	3.041065	1.030341	-0.000122
 683	6.7859e+01	12.8242	48.140825	0.000274	2.736959	0.927307	-0.000110
 684	6.7959e+01	12.7938	48.047971	0.000233	2.331483	0.789928	-0.000093
 685	6.8058e+01	12.7456	47.930894	0.000294	2.939697	0.995996	-0.000118
 686	6.8157e+01	12.7039	47.781520	0.000375	3.750647	1.270754	-0.000150
 687	6.8257e+01	12.6670	47.704814	0.000193	1.926008	0.652549	-0.000077
 688	6.8356e+01	12.6189	47.563515	0.000355	3.547910	1.202064	-0.000142
 689	6.8456e+01	12.5900	47.486809	0.000193	1.926008	0.652549	-0.000077
 690	6.8555e+01	12.5483	47.333398	0.000385	3.852016	1.305098	-0.000154
 691	6.8655e+01	12.5018	47.228432	0.000264	2.635590	0.892962	-0.000105
 692	6.8754e+01	12.4601	47.115393	0.000284	2.838328	0.961651	-0.000114
 693	6.8854e+01	12.4184	47.006390	0.000274	2.736959	0.927307	-0.000110
 694	6.8954e+01	12.3831	46.893350	0.000284	2.838328	0.961651	-0.000114
 695	6.9053e+01	12.3526	46.743976	0.000375	3.750647	1.270754	-0.000150
 696	6.9153e+01	12.3061	46.655159	0.000223	2.230115	0.755583	-0.000089
 697	6.9252e+01	12.2660	46.521934	0.000335	3.345172	1.133375	-0.000134
 698	6.9352e+01	12.2194	46.437154	0.000213	2.128746	0.721239	-0.000085
 699	6.9451e+01	12.1874	46.312003	0.000314	3.142434	1.064686	-0.000126
 700	6.9550e+01	12.1456	46.182814	0.000324	3.243803	1.099030	-0.000130
 701	6.9650e+01	12.1007	46.089960	0.000233	2.331483	0.789928	-0.000093
 702	6.9749e+01	12.0686	45.960772	0.000324	3.243803	1.099030	-0.000130
 703	6.9849e+01	12.0253	45.863881	0.000243	2.432852	0.824273	-0.000097
 704	6.9948e+01	11.9756	45.726618	0.000345	3.446541	1.167720	-0.000138
 705	7.0048e+01	11.9403	45.589355	0.000345	3.446541	1.167720	-0.000138
 706	7.0147e+01	11.9066	45.476316	0.000284	2.838328	0.961651	-0.000114
 707	7.0247e+01	11.8681	45.359239	0.000294	2.939697	0.995996	-0.000118
 708	7.0347e+01	11.8184	45.290607	0.000172	1.723270	0.583860	-0.000069
 709	7.0446e+01	11.7815	45.145270	0.000365	3.649279	1.236409	-0.000146
 710	7.0546e+01	11.7478	45.036268	0.000274	2.736959	0.927307	-0.000110
 711	7.0645e+01	11.7093	44.915154	0.000304	3.041065	1.030341	-0.000122
 712	7.0745e+01	11.6756	44.806151	0.000274	2.736959	0.927307	-0.000110
 713	7.0844e+01	11.6162	44.644666	0.000405	4.054754	1.373788	-0.000162
 714	7.0944e+01	11.5874	44.551811	0.000233	2.331483	0.789928	-0.000093
 715	7.1043e+01	11.5425	44.434735	0.000294	2.939697	0.995996	-0.000118
 716	7.1142e+01	11.5072	44.321695	0.000284	2.838328	0.961651	-0.000114
 717	7.1242e+01	11.4687	44.180395	0.000355	3.547910	1.202064	-0.000142
 718	7.1341e+01	11.4173	44.063318	0.000294	2.939697	0.995996	-0.000118
 719	7.1441e+01	11.3852	43.926055	0.000345	3.446541	1.167720	-0.000138
 720	7.1540e+01	11.3435	43.821090	0.000264	2.635590	0.892962	-0.000105
 721	7.1640e+01	11.3211	43.691902	0.000324	3.243803	1.099030	-0.000130
 722	7.1740e+01	11.2697	43.554639	0.000345	3.446541	1.167720	-0.000138
 723	7.1839e+01	11.2264	43.437562	0.000294	2.939697	0.995996	-0.000118
 724	7.1939e+01	11.1975	43.336634	0.000253	2.534221	0.858617	-0.000101
 725	7.2038e+01	11.1430	43.203408	0.000335	3.345172	1.133375	-0.000134
 726	7.2138e+01	11.1013	43.106517	0.000243	2.432852	0.824273	-0.000097
 727	7.2237e+01	11.0644	42.985403	0.000304	3.041065	1.030341	-0.000122
 728	7.2337e+01	11.0323	42.860252	0.000314	3.142434	1.064686	-0.000126
 729	7.2436e+01	10.9922	42.735100	0.000314	3.142434	1.064686	-0.000126
 730	7.2535e+01	10.9473	42.585726	0.000375	3.750647	1.270754	-0.000150
 731	7.2635e+01	10.9072	42.464612	0.000304	3.041065	1.030341	-0.000122
 732	7.2734e+01	10.8735	42.331387	0.000335	3.345172	1.133375	-0.000134
 733	7.2834e+01	10.8318	42.230458	0.000253	2.534221	0.858617	-0.000101
 734	7.2933e+01	10.7804	42.145679	0.000213	2.128746	0.721239	-0.000085
 735	7.3033e+01	10.7500	42.024564	0.000304	3.041065	1.030341	-0.000122
 736	7.3132e+01	10.7083	41.883265	0.000355	3.547910	1.202064	-0.000142
 737	7.3232e+01	10.6730	41.721779	0.000405	4.054754	1.373788	-0.000162
 738	7.3332e+01	10.6329	41.641037	0.000203	2.027377	0.686894	-0.000081
 739	7.3431e+01	10.5831	41.519922	0.000304	3.041065	1.030341	-0.000122
 740	7.3531e+01	10.5446	41.390734	0.000324	3.243803	1.099030	-0.000130
 741	7.3630e+01	10.5109	41.269620	0.000304	3.041065	1.030341	-0.000122
 742	7.3730e+01	10.4660	41.152543	0.000294	2.939697	0.995996	-0.000118
 743	7.3829e+01	10.4243	41.015281	0.000345	3.446541	1.167720	-0.000138
 744	7.3928e+01	10.3874	40.898204	0.000294	2.939697	0.995996	-0.000118
 745	7.4028e+01	10.3457	40.740755	0.000395	3.953385	1.339443	-0.000158
 746	7.4127e+01	10.3152	40.643864	0.000243	2.432852	0.824273	-0.000097
 747	7.4227e+01	10.2735	40.542936	0.000253	2.534221	0.858617	-0.000101
 748	7.4326e+01	10.2302	40.393562	0.000375	3.750647	1.270754	-0.000150
 749	7.4426e+01	10.1885	40.256299	0.000345	3.446541	1.167720	-0.000138
 750	7.4525e+01	10.1532	40.175556	0.000203	2.027377	0.686894	-0.000081
 751	7.4625e+01	10.1147	40.066554	0.000274	2.736959	0.927307	-0.000110
 752	7.4725e+01	10.0650	39.909105	0.000395	3.953385	1.339443	-0.000158
 753	7.4824e+01	10.0361	39.800103	0.000274	2.736959	0.927307	-0.000110
 754	7.4924e+01	9.9912	39.650729	0.000375	3.750647	1.270754	-0.000150
 755	7.5023e+01	9.9559	39.525577	0.000314	3.142434	1.064686	-0.000126
 756	7.5123e+01	9.9110	39.444835	0.000203	2.027377	0.686894	-0.000081
 757	7.5222e+01	9.8724	39.291424	0.000385	3.852016	1.305098	-0.000154
 758	7.5322e+01	9.8372	39.198569	0.000233	2.331483	0.789928	-0.000093
 759	7.5421e+01	9.7987	39.029010	0.000426	4.257492	1.442477	-0.000170
 760	7.5520e+01	9.7585	38.932118	0.000243	2.432852	0.824273	-0.000097
 761	7.5620e+01	9.7072	38.782744	0.000375	3.750647	1.270754	-0.000150
 762	7.5719e+01	9.6703	38.649519	0.000335	3.345172	1.133375	-0.000134
 763	7.5819e+01	9.6382	38.532442	0.000294	2.939697	0.995996	-0.000118
 764	7.5918e+01	9.5965	38.427477	0.000264	2.635590	0.892962	-0.000105
 765	7.6018e+01	9.5516	38.282140	0.000365	3.649279	1.236409	-0.000146
 766	7.6118e+01	9.5067	38.165063	0.000294	2.939697	0.995996	-0.000118
 767	7.6217e+01	9.4746	38.056060	0.000274	2.736959	0.927307	-0.000110
 768	7.6317e+01	9.4313	37.882463	0.000436	4.358860	1.476822	-0.000174
 769	7.6416e+01	9.3928	37.834018	0.000122	1.216426	0.412136	-0.000049
 770	7.6516e+01	9.3607	37.648309	0.000466	4.662967	1.579856	-0.000187
 771	7.6615e+01	9.3174	37.535270	0.000284	2.838328	0.961651	-0.000114
 772	7.6715e+01	9.2821	37.406081	0.000324	3.243803	1.099030	-0.000130
 773	7.6814e+01	9.2292	37.276893	0.000324	3.243803	1.099030	-0.000130
 774	7.6913e+01	9.2051	37.167890	0.000274	2.736959	0.927307	-0.000110
 775	7.7013e+01	9.1489	37.054850	0.000284	2.838328	0.961651	-0.000114
 776	7.7112e+01	9.1249	36.905476	0.000375	3.750647	1.270754	-0.000150
 777	7.7212e+01	9.0623	36.800511	0.000264	2.635590	0.892962	-0.000105
 778	7.7311e+01	9.0382	36.683434	0.000294	2.939697	0.995996	-0.000118
 779	7.7411e+01	8.9949	36.513874	0.000426	4.257492	1.442477	-0.000170
 780	7.7510e+01	8.9516	36.376612	0.000345	3.446541	1.167720	-0.000138
 781	7.7610e+01	8.9115	36.243386	0.000335	3.345172	1.133375	-0.000134
 782	7.7710e+01	8.8842	36.130346	0.000284	2.838328	0.961651	-0.000114
 783	7.7809e+01	8.8377	36.013269	0.000294	2.939697	0.995996	-0.000118
 784	7.7909e+01	8.7944	35.831598	0.000456	4.561598	1.545511	-0.000183
 785	7.8008e+01	8.7575	35.718558	0.000284	2.838328	0.961651	-0.000114
 786	7.8108e+01	8.7094	35.585333	0.000335	3.345172	1.133375	-0.000134
 787	7.8207e+01	8.6773	35.456145	0.000324	3.243803	1.099030	-0.000130
 788	7.8306e+01	8.6404	35.367328	0.000223	2.230115	0.755583	-0.000089
 789	7.8406e+01	8.5923	35.230065	0.000345	3.446541	1.167720	-0.000138
 790	7.8505e+01	8.5554	35.088765	0.000355	3.547910	1.202064	-0.000142
 791	7.8605e+01	8.5121	34.947466	0.000355	3.547910	1.202064	-0.000142
 792	7.8704e+01	8.4736	34.798091	0.000375	3.750647	1.270754	-0.000150
 793	7.8804e+01	8.4335	34.660829	0.000345	3.446541	1.167720	-0.000138
 794	7.8903e+01	8.3982	34.539715	0.000304	3.041065	1.030341	-0.000122
 795	7.9003e+01	8.3564	34.414564	0.000314	3.142434	1.064686	-0.000126
 796	7.9103e+01	8.3131	34.281338	0.000335	3.345172	1.133375	-0.000134
 797	7.9202e+01	8.2746	34.168298	0.000284	2.838328	0.961651	-0.000114
 798	7.9302e+01	8.2409	33.974516	0.000487	4.865705	1.648545	-0.000195
 799	7.9401e+01	8.2073	33.889736	0.000213	2.128746	0.721239	-0.000085
 800	7.9501e+01	8.1527	33.732288	0.000395	3.953385	1.339443	-0.000158
 801	7.9600e+01	8.1174	33.586951	0.000365	3.649279	1.236409	-0.000146
 802	7.9700e+01	8.0789	33.477948	0.000274	2.736959	0.927307	-0.000110
 803	7.9799e+01	8.0404	33.364908	0.000284	2.838328	0.961651	-0.000114
 804	7.9898e+01	8.0083	33.195349	0.000426	4.257492	1.442477	-0.000170
 805	7.9998e+01	7.9538	33.098457	0.000243	2.432852	0.824273	-0.000097
 806	8.0097e+01	7.9185	32.908712	0.000476	4.764336	1.614201	-0.000191
 807	8.0197e+01	7.8752	32.811821	0.000243	2.432852	0.824273	-0.000097
 808	8.0296e+01	7.8383	32.666484	0.000365	3.649279	1.236409	-0.000146
 809	8.0396e+01	7.8014	32.525184	0.000355	3.547910	1.202064	-0.000142
 810	8.0496e+01	7.7629	32.404070	0.000304	3.041065	1.030341	-0.000122
 811	8.0595e+01	7.7164	32.250659	0.000385	3.852016	1.305098	-0.000154
 812	8.0695e+01	7.6859	32.161842	0.000223	2.230115	0.755583	-0.000089
 813	8.0794e+01	7.6458	31.972096	0.000476	4.764336	1.614201	-0.000191
 814	8.0894e+01	7.5976	31.846945	0.000314	3.142434	1.064686	-0.000126
 815	8.0993e+01	7.5543	31.725831	0.000304	3.041065	1.030341	-0.000122
 816	8.1093e+01	7.5206	31.592606	0.000335	3.345172	1.133375	-0.000134
 817	8.1192e+01	7.4821	31.431120	0.000405	4.054754	1.373788	-0.000162
 818	8.1291e+01	7.4372	31.297895	0.000335	3.345172	1.133375	-0.000134
 819	8.1391e+01	7.3955	31.176781	0.000304	3.041065	1.030341	-0.000122
 820	8.1490e+01	7.3586	31.019332	0.000395	3.953385	1.339443	-0.000158
 821	8.1590e+01	7.3281	30.861884	0.000395	3.953385	1.339443	-0.000158
 822	8.1689e+01	7.2768	30.740770	0.000304	3.041065	1.030341	-0.000122
 823	8.1789e+01	7.2351	30.599470	0.000355	3.547910	1.202064	-0.000142
 824	8.1888e+01	7.1998	30.474319	0.000314	3.142434	1.064686	-0.000126
 825	8.1988e+01	7.1581	30.312834	0.000405	4.054754	1.373788	-0.000162
 826	8.2088e+01	7.1084	30.199794	0.000284	2.838328	0.961651	-0.000114
 827	8.2187e+01	7.0763	30.050420	0.000375	3.750647	1.270754	-0.000150
 828	8.2287e+01	7.0426	29.901046	0.000375	3.750647	1.270754	-0.000150
 829	8.2386e+01	7.0105	29.783969	0.000294	2.939697	0.995996	-0.000118
 830	8.2486e+01	6.9640	29.630558	0.000385	3.852016	1.305098	-0.000154
 831	8.2585e+01	6.9239	29.452924	0.000446	4.460229	1.511167	-0.000179
 832	8.2684e+01	6.8822	29.347958	0.000264	2.635590	0.892962	-0.000105
 833	8.2784e+01	6.8388	29.186473	0.000405	4.054754	1.373788	-0.000162
 834	8.2883e+01	6.8068	29.073433	0.000284	2.838328	0.961651	-0.000114
 835	8.2983e+01	6.7602	28.936170	0.000345	3.446541	1.167720	-0.000138
 836	8.3082e+01	6.7121	28.786796	0.000375	3.750647	1.270754	-0.000150
 837	8.3182e+01	6.6800	28.601088	0.000466	4.662967	1.579856	-0.000187
 838	8.3281e+01	6.6479	28.504197	0.000243	2.432852	0.824273	-0.000097
 839	8.3381e+01	6.6110	28.326563	0.000446	4.460229	1.511167	-0.000179
 840	8.3481e+01	6.5565	28.197375	0.000324	3.243803	1.099030	-0.000130
 841	8.3580e+01	6.5228	28.056075	0.000355	3.547910	1.202064	-0.000142
 842	8.3680e+01	6.4843	27.902664	0.000385	3.852016	1.305098	-0.000154
 843	8.3779e+01	6.4474	27.765401	0.000345	3.446541	1.167720	-0.000138
 844	8.3879e+01	6.4089	27.628138	0.000345	3.446541	1.167720	-0.000138
 845	8.3978e+01	6.3656	27.482802	0.000365	3.649279	1.236409	-0.000146
 846	8.4078e+01	6.3287	27.333428	0.000375	3.750647	1.270754	-0.000150
 847	8.4177e+01	6.2854	27.171942	0.000405	4.054754	1.373788	-0.000162
 848	8.4276e+01	6.2501	27.042754	0.000324	3.243803	1.099030	-0.000130
 849	8.4376e+01	6.2052	26.865120	0.000446	4.460229	1.511167	-0.000179
 850	8.4475e+01	6.1635	26.703634	0.000405	4.054754	1.373788	-0.000162
 851	8.4575e+01	6.1234	26.590595	0.000284	2.838328	0.961651	-0.000114
 852	8.4674e+01	6.0897	26.465443	0.000314	3.142434	1.064686	-0.000126
 853	8.4774e+01	6.0464	26.275698	0.000476	4.764336	1.614201	-0.000191
 854	8.4874e+01	6.0014	26.194955	0.000203	2.027377	0.686894	-0.000081
 855	8.4973e+01	5.9677	25.985024	0.000527	5.271180	1.785924	-0.000211
 856	8.5073e+01	5.9228	25.863910	0.000304	3.041065	1.030341	-0.000122
 857	8.5172e+01	5.8907	25.714536	0.000375	3.750647	1.270754	-0.000150
 858	8.5272e+01	5.8506	25.549014	0.000416	4.156123	1.408133	-0.000166
 859	8.5371e+01	5.8009	25.427899	0.000304	3.041065	1.030341	-0.000122
 860	8.5471e+01	5.7720	25.302748	0.000314	3.142434	1.064686	-0.000126
 861	8.5570e+01	5.7383	25.157411	0.000365	3.649279	1.236409	-0.000146
 862	8.5669e+01	5.6854	25.028223	0.000324	3.243803	1.099030	-0.000130
 863	8.5769e+01	5.6501	24.850589	0.000446	4.460229	1.511167	-0.000179
 864	8.5868e+01	5.6116	24.693141	0.000395	3.953385	1.339443	-0.000158
 865	8.5968e+01	5.5699	24.563952	0.000324	3.243803	1.099030	-0.000130
 866	8.6067e+01	5.5298	24.414578	0.000375	3.750647	1.270754	-0.000150
 867	8.6167e+01	5.4865	24.236944	0.000446	4.460229	1.511167	-0.000179
 868	8.6266e+01	5.4544	24.115830	0.000304	3.041065	1.030341	-0.000122
 869	8.6366e+01	5.4095	23.994716	0.000304	3.041065	1.030341	-0.000122
 870	8.6466e+01	5.3726	23.796897	0.000497	4.967074	1.682890	-0.000199
 871	8.6565e+01	5.3293	23.671745	0.000314	3.142434	1.064686	-0.000126
 872	8.6665e+01	5.2956	23.494111	0.000446	4.460229	1.511167	-0.000179
 873	8.6764e+01	5.2555	23.377034	0.000294	2.939697	0.995996	-0.000118
 874	8.6864e+01	5.2089	23.231698	0.000365	3.649279	1.236409	-0.000146
 875	8.6963e+01	5.1640	23.054064	0.000446	4.460229	1.511167	-0.000179
 876	8.7063e+01	5.1287	22.908727	0.000365	3.649279	1.236409	-0.000146
 877	8.7162e+01	5.0966	22.747241	0.000405	4.054754	1.373788	-0.000162
 878	8.7261e+01	5.0517	22.650350	0.000243	2.432852	0.824273	-0.000097
 879	8.7361e+01	5.0212	22.484827	0.000416	4.156123	1.408133	-0.000166
 880	8.7460e+01	4.9699	22.331416	0.000385	3.852016	1.305098	-0.000154
 881	8.7560e+01	4.9234	22.153782	0.000446	4.460229	1.511167	-0.000179
 882	8.7659e+01	4.8897	22.032668	0.000304	3.041065	1.030341	-0.000122
 883	8.7759e+01	4.8480	21.863109	0.000426	4.257492	1.442477	-0.000170
 884	8.7859e+01	4.8063	21.721809	0.000355	3.547910	1.202064	-0.000142
 885	8.7958e+01	4.7742	21.556286	0.000416	4.156123	1.408133	-0.000166
 886	8.8058e+01	4.7341	21.398838	0.000395	3.953385	1.339443	-0.000158
 887	8.8157e+01	4.6892	21.229278	0.000426	4.257492	1.442477	-0.000170
 888	8.8257e+01	4.6491	21.124313	0.000264	2.635590	0.892962	-0.000105
 889	8.8356e+01	4.6138	20.930530	0.000487	4.865705	1.648545	-0.000195
 890	8.8456e+01	4.5769	20.785193	0.000365	3.649279	1.236409	-0.000146
 891	8.8555e+01	4.5432	20.651968	0.000335	3.345172	1.133375	-0.000134
 892	8.8654e+01	4.4870	20.502594	0.000375	3.750647	1.270754	-0.000150
 893	8.8754e+01	4.4566	20.333034	0.000426	4.257492	1.442477	-0.000170
 894	8.8853e+01	4.4277	20.159437	0.000436	4.358860	1.476822	-0.000174
 895	8.8953e+01	4.3812	20.022175	0.000345	3.446541	1.167720	-0.000138
 896	8.9052e+01	4.3314	19.844541	0.000446	4.460229	1.511167	-0.000179
 897	8.9152e+01	4.2833	19.715352	0.000324	3.243803	1.099030	-0.000130
 898	8.9251e+01	4.2576	19.549830	0.000416	4.156123	1.408133	-0.000166
 899	8.9351e+01	4.2159	19.392382	0.000395	3.953385	1.339443	-0.000158
 900	8.9451e+01	4.1694	19.238970	0.000385	3.852016	1.305098	-0.000154
 901	8.9550e+01	4.1405	19.065374	0.000436	4.358860	1.476822	-0.000174
 902	8.9650e+01	4.0956	18.903888	0.000405	4.054754	1.373788	-0.000162
 903	8.9749e+01	4.0587	18.730291	0.000436	4.358860	1.476822	-0.000174
 904	8.9849e+01	4.0122	18.653586	0.000193	1.926008	0.652549	-0.000077
 905	8.9948e+01	3.9705	18.488063	0.000416	4.156123	1.408133	-0.000166
 906	9.0047e+01	3.9400	18.326578	0.000405	4.054754	1.373788	-0.000162
 907	9.0147e+01	3.8999	18.177204	0.000375	3.750647	1.270754	-0.000150
 908	9.0246e+01	3.8550	17.987458	0.000476	4.764336	1.614201	-0.000191
 909	9.0346e+01	3.8213	17.862307	0.000314	3.142434	1.064686	-0.000126
 910	9.0445e+01	3.7699	17.660450	0.000507	5.068442	1.717235	-0.000203
 911	9.0545e+01	3.7330	17.563559	0.000243	2.432852	0.824273	-0.000097
 912	9.0644e+01	3.6945	17.385925	0.000446	4.460229	1.511167	-0.000179
 913	9.0744e+01	3.6560	17.264811	0.000304	3.041065	1.030341	-0.000122
 914	9.0844e+01	3.6159	17.127548	0.000345	3.446541	1.167720	-0.000138
 915	9.0943e+01	3.5774	16.937803	0.000476	4.764336	1.614201	-0.000191
 916	9.1043e+01	3.5245	16.756132	0.000456	4.561598	1.545511	-0.000183
 917	9.1142e+01	3.4956	16.626944	0.000324	3.243803	1.099030	-0.000130
 918	9.1242e+01	3.4619	16.465458	0.000405	4.054754	1.373788	-0.000162
 919	9.1341e+01	3.4122	16.283787	0.000456	4.561598	1.545511	-0.000183
 920	9.1441e+01	3.3817	16.150562	0.000335	3.345172	1.133375	-0.000134
 921	9.1540e+01	3.3336	16.037522	0.000284	2.838328	0.961651	-0.000114
 922	9.1639e+01	3.2951	15.863925	0.000436	4.358860	1.476822	-0.000174
 923	9.1739e+01	3.2662	15.694365	0.000426	4.257492	1.442477	-0.000170
 924	9.1838e+01	3.2229	15.536917	0.000395	3.953385	1.339443	-0.000158
 925	9.1938e+01	3.1892	15.391580	0.000365	3.649279	1.236409	-0.000146
 926	9.2037e+01	3.1443	15.217983	0.000436	4.358860	1.476822	-0.000174
 927	9.2137e+01	3.0994	15.080721	0.000345	3.446541	1.167720	-0.000138
 928	9.2237e+01	3.0577	14.903087	0.000446	4.460229	1.511167	-0.000179
 929	9.2336e+01	3.0256	14.761787	0.000355	3.547910	1.202064	-0.000142
 930	9.2436e+01	2.9742	14.632598	0.000324	3.243803	1.099030	-0.000130
 931	9.2535e+01	2.9341	14.459002	0.000436	4.358860	1.476822	-0.000174
 932	9.2635e+01	2.9053	14.273293	0.000466	4.662967	1.579856	-0.000187
 933	9.2734e+01	2.8603	14.140068	0.000335	3.345172	1.133375	-0.000134
 934	9.2834e+01	2.8283	13.966471	0.000436	4.358860	1.476822	-0.000174
 935	9.2933e+01	2.7753	13.792874	0.000436	4.358860	1.476822	-0.000174
 936	9.3032e+01	2.7416	13.655612	0.000345	3.446541	1.167720	-0.000138
 937	9.3132e+01	2.7047	13.506238	0.000375	3.750647	1.270754	-0.000150
 938	9.3231e+01	2.6614	13.332641	0.000436	4.358860	1.476822	-0.000174
 939	9.3331e+01	2.6245	13.155007	0.000446	4.460229	1.511167	-0.000179
 940	9.3430e+01	2.5844	13.021781	0.000335	3.345172	1.133375	-0.000134
 941	9.3530e+01	2.5411	12.823962	0.000497	4.967074	1.682890	-0.000199
 942	9.3629e+01	2.5058	12.694773	0.000324	3.243803	1.099030	-0.000130
 943	9.3729e+01	2.4673	12.509065	0.000466	4.662967	1.579856	-0.000187
 944	9.3829e+01	2.4208	12.379877	0.000324	3.243803	1.099030	-0.000130
 945	9.3928e+01	2.3775	12.234540	0.000365	3.649279	1.236409	-0.000146
 946	9.4028e+01	2.3406	12.064980	0.000426	4.257492	1.442477	-0.000170
 947	9.4127e+01	2.3005	11.891383	0.000436	4.358860	1.476822	-0.000174
 948	9.4227e+01	2.2716	11.729898	0.000405	4.054754	1.373788	-0.000162
 949	9.4326e+01	2.2154	11.572450	0.000395	3.953385	1.339443	-0.000158
 950	9.4425e+01	2.1737	11.406927	0.000416	4.156123	1.408133	-0.000166
 951	9.4525e+01	2.1449	11.269664	0.000345	3.446541	1.167720	-0.000138
 952	9.4624e+01	2.0999	11.100105	0.000426	4.257492	1.442477	-0.000170
 953	9.4724e+01	2.0598	10.934582	0.000416	4.156123	1.408133	-0.000166
 954	9.4823e+01	2.0261	10.720614	0.000537	5.372549	1.820269	-0.000215
 955	9.4923e+01	1.9764	10.587388	0.000335	3.345172	1.133375	-0.000134
 956	9.5022e+01	1.9315	10.438014	0.000375	3.750647	1.270754	-0.000150
 957	9.5122e+01	1.9010	10.232121	0.000517	5.169811	1.751579	-0.000207
 958	9.5222e+01	1.8689	10.119081	0.000284	2.838328	0.961651	-0.000114
 959	9.5321e+01	1.8224	9.957595	0.000405	4.054754	1.373788	-0.000162
 960	9.5421e+01	1.7807	9.771887	0.000466	4.662967	1.579856	-0.000187
 961	9.5520e+01	1.7406	9.610402	0.000405	4.054754	1.373788	-0.000162
 962	9.5620e+01	1.7053	9.432768	0.000446	4.460229	1.511167	-0.000179
 963	9.5719e+01	1.6700	9.279356	0.000385	3.852016	1.305098	-0.000154
 964	9.5819e+01	1.6219	9.109797	0.000426	4.257492	1.442477	-0.000170
 965	9.5918e+01	1.5818	8.924089	0.000466	4.662967	1.579856	-0.000187
 966	9.6017e+01	1.5353	8.786826	0.000345	3.446541	1.167720	-0.000138
 967	9.6117e+01	1.5128	8.597081	0.000476	4.764336	1.614201	-0.000191
 968	9.6216e+01	1.4647	8.459818	0.000345	3.446541	1.167720	-0.000138
 969	9.6316e+01	1.4214	8.290258	0.000426	4.257492	1.442477	-0.000170
 970	9.6415e+01	1.3925	8.108587	0.000456	4.561598	1.545511	-0.000183
 971	9.6515e+01	1.3427	8.003622	0.000264	2.635590	0.892962	-0.000105
 972	9.6615e+01	1.3091	7.769468	0.000588	5.879393	1.991992	-0.000235
 973	9.6714e+01	1.2625	7.644317	0.000314	3.142434	1.064686	-0.000126
 974	9.6814e+01	1.2272	7.494942	0.000375	3.750647	1.270754	-0.000150
 975	9.6913e+01	1.1807	7.301160	0.000487	4.865705	1.648545	-0.000195
 976	9.7013e+01	1.1374	7.155823	0.000365	3.649279	1.236409	-0.000146
 977	9.7112e+01	1.1021	6.970115	0.000466	4.662967	1.579856	-0.000187
 978	9.7212e+01	1.0636	6.812667	0.000395	3.953385	1.339443	-0.000158
 979	9.7311e+01	1.0219	6.643107	0.000426	4.257492	1.442477	-0.000170
 980	9.7410e+01	0.9786	6.497770	0.000365	3.649279	1.236409	-0.000146
 981	9.7510e+01	0.9433	6.312062	0.000466	4.662967	1.579856	-0.000187
 982	9.7609e+01	0.9080	6.166725	0.000365	3.649279	1.236409	-0.000146
 983	9.7709e+01	0.8663	5.993128	0.000436	4.358860	1.476822	-0.000174
 984	9.7808e+01	0.8230	5.815494	0.000446	4.460229	1.511167	-0.000179
 985	9.7908e+01	0.7813	5.662083	0.000385	3.852016	1.305098	-0.000154
 986	9.8007e+01	0.7476	5.476375	0.000466	4.662967	1.579856	-0.000187
 987	9.8107e+01	0.6994	5.351223	0.000314	3.142434	1.064686	-0.000126
 988	9.8207e+01	0.6658	5.149367	0.000507	5.068442	1.717235	-0.000203
 989	9.8306e+01	0.6305	4.971733	0.000446	4.460229	1.511167	-0.000179
 990	9.8406e+01	0.5823	4.858693	0.000284	2.838328	0.961651	-0.000114
 991	9.8505e+01	0.5470	4.652799	0.000517	5.169811	1.751579	-0.000207
 992	9.8605e+01	0.5101	4.479202	0.000436	4.358860	1.476822	-0.000174
 993	9.8704e+01	0.4732	4.309642	0.000426	4.257492	1.442477	-0.000170
 994	9.8803e+01	0.4331	4.152194	0.000395	3.953385	1.339443	-0.000158
 995	9.8903e+01	0.3898	3.974560	0.000446	4.460229	1.511167	-0.000179
 996	9.9002e+01	0.3481	3.788852	0.000466	4.662967	1.579856	-0.000187
 997	9.9102e+01	0.3032	3.663701	0.000314	3.142434	1.064686	-0.000126
 998	9.9201e+01	0.2615	3.449732	0.000537	5.372549	1.820269	-0.000215
 999	9.9301e+01	0.2326	3.300358	0.000375	3.750647	1.270754	-0.000150
1000	9.9400e+01	0.1845	3.122724	0.000446	4.460229	1.511167	-0.000179
1001	9.9500e+01	0.1444	2.969313	0.000385	3.852016	1.305098	-0.000154
1002	9.9600e+01	0.1091	2.747271	0.000558	5.575287	1.888958	-0.000223
1003	9.9699e+01	0.0674	2.593860	0.000385	3.852016	1.305098	-0.000154
1004	9.9799e+01	0.0369	2.432374	0.000405	4.054754	1.373788	-0.000162
1005	9.9898e+01	0.0000	2.323372	0.000274	2.736959	0.927307	-0.000110
1006	9.9998e+01	-0.0417	2.113441	0.000527	5.271180	1.785924	-0.000211
1007	1.0010e+02	-0.0866	1.927732	0.000466	4.662967	1.579856	-0.000187
1008	1.0020e+02	-0.1235	1.806618	0.000304	3.041065	1.030341	-0.000122
1009	1.0030e+02	-0.1668	1.604761	0.000507	5.068442	1.717235	-0.000203
1010	1.0040e+02	-0.1925	1.447313	0.000395	3.953385	1.339443	-0.000158
1011	1.0050e+02	-0.2422	1.245456	0.000507	5.068442	1.717235	-0.000203
1012	1.0059e+02	-0.2888	1.083971	0.000405	4.054754	1.373788	-0.000162
1013	1.0069e+02	-0.3176	0.926523	0.000395	3.953385	1.339443	-0.000158
1014	1.0079e+02	-0.3626	0.761000	0.000416	4.156123	1.408133	-0.000166
1015	1.0089e+02	-0.4027	0.603552	0.000395	3.953385	1.339443	-0.000158
1016	1.0099e+02	-0.4412	0.425918	0.000446	4.460229	1.511167	-0.000179
1017	1.0109e+02	-0.4845	0.244247	0.000456	4.561598	1.545511	-0.000183
1018	1.0119e+02	-0.5198	0.034316	0.000527	5.271180	1.785924	-0.000211
1019	1.0129e+02	-0.5631	-0.102947	0.000345	3.446541	1.167720	-0.000138
1020	1.0139e+02	-0.6112	-0.292692	0.000476	4.764336	1.614201	-0.000191
1021	1.0149e+02	-0.6353	-0.433992	0.000355	3.547910	1.202064	-0.000142
1022	1.0159e+02	-0.6754	-0.615663	0.000456	4.561598	1.545511	-0.000183
1023	1.0169e+02	-0.7155	-0.773111	0.000395	3.953385	1.339443	-0.000158
1024	1.0179e+02	-0.7636	-0.970931	0.000497	4.967074	1.682890	-0.000199
1025	1.0189e+02	-0.7989	-1.156639	0.000466	4.662967	1.579856	-0.000187
1026	1.0199e+02	-0.8390	-1.318125	0.000405	4.054754	1.373788	-0.000162
1027	1.0209e+02	-0.8759	-1.463462	0.000365	3.649279	1.236409	-0.000146
1028	1.0219e+02	-0.9176	-1.653207	0.000476	4.764336	1.614201	-0.000191
1029	1.0229e+02	-0.9674	-1.838915	0.000466	4.662967	1.579856	-0.000187
1030	1.0239e+02	-1.0010	-1.968104	0.000324	3.243803	1.099030	-0.000130
1031	1.0248e+02	-1.0395	-2.165923	0.000497	4.967074	1.682890	-0.000199
1032	1.0258e+02	-1.0796	-2.303186	0.000345	3.446541	1.167720	-0.000138
1033	1.0268e+02	-1.1230	-2.476783	0.000436	4.358860	1.476822	-0.000174
1034	1.0278e+02	-1.1679	-2.678640	0.000507	5.068442	1.717235	-0.000203
1035	1.0288e+02	-1.1968	-2.836088	0.000395	3.953385	1.339443	-0.000158
1036	1.0298e+02	-1.2337	-3.021796	0.000466	4.662967	1.579856	-0.000187
1037	1.0308e+02	-1.2754	-3.187319	0.000416	4.156123	1.408133	-0.000166
1038	1.0318e+02	-1.3251	-3.352841	0.000416	4.156123	1.408133	-0.000166
1039	1.0328e+02	-1.3620	-3.542587	0.000476	4.764336	1.614201	-0.000191
1040	1.0338e+02	-1.3989	-3.671775	0.000324	3.243803	1.099030	-0.000130
1041	1.0348e+02	-1.4390	-3.817112	0.000365	3.649279	1.236409	-0.000146
1042	1.0358e+02	-1.4807	-4.006857	0.000476	4.764336	1.614201	-0.000191
1043	1.0368e+02	-1.5160	-4.196603	0.000476	4.764336	1.614201	-0.000191
1044	1.0378e+02	-1.5545	-4.374237	0.000446	4.460229	1.511167	-0.000179
1045	1.0388e+02	-1.5978	-4.507462	0.000335	3.345172	1.133375	-0.000134
1046	1.0398e+02	-1.6363	-4.693170	0.000466	4.662967	1.579856	-0.000187
1047	1.0408e+02	-1.6716	-4.874841	0.000456	4.561598	1.545511	-0.000183
1048	1.0418e+02	-1.7149	-5.052475	0.000446	4.460229	1.511167	-0.000179
1049	1.0428e+02	-1.7518	-5.173589	0.000304	3.041065	1.030341	-0.000122
1050	1.0438e+02	-1.8016	-5.363335	0.000476	4.764336	1.614201	-0.000191
1051	1.0447e+02	-1.8401	-5.573266	0.000527	5.271180	1.785924	-0.000211
1052	1.0457e+02	-1.8753	-5.738788	0.000416	4.156123	1.408133	-0.000166
1053	1.0467e+02	-1.9203	-5.908348	0.000426	4.257492	1.442477	-0.000170
1054	1.0477e+02	-1.9540	-6.057722	0.000375	3.750647	1.270754	-0.000150
1055	1.0487e+02	-1.9860	-6.223245	0.000416	4.156123	1.408133	-0.000166
1056	1.0497e+02	-2.0422	-6.404916	0.000456	4.561598	1.545511	-0.000183
1057	1.0507e+02	-2.0727	-6.586587	0.000456	4.561598	1.545511	-0.000183
1058	1.0517e+02	-2.1064	-6.715775	0.000324	3.243803	1.099030	-0.000130
1059	1.0527e+02	-2.1497	-6.897446	0.000456	4.561598	1.545511	-0.000183
1060	1.0537e+02	-2.1898	-7.087192	0.000476	4.764336	1.614201	-0.000191
1061	1.0547e+02	-2.2331	-7.240603	0.000385	3.852016	1.305098	-0.000154
1062	1.0557e+02	-2.2716	-7.410163	0.000426	4.257492	1.442477	-0.000170
1063	1.0567e+02	-2.3181	-7.571648	0.000405	4.054754	1.373788	-0.000162
1064	1.0577e+02	-2.3518	-7.769468	0.000497	4.967074	1.682890	-0.000199
1065	1.0587e+02	-2.3887	-7.906730	0.000345	3.446541	1.167720	-0.000138
1066	1.0597e+02	-2.4272	-8.068216	0.000405	4.054754	1.373788	-0.000162
1067	1.0607e+02	-2.4769	-8.241813	0.000436	4.358860	1.476822	-0.000174
1068	1.0617e+02	-2.5219	-8.431558	0.000476	4.764336	1.614201	-0.000191
1069	1.0627e+02	-2.5507	-8.556709	0.000314	3.142434	1.064686	-0.000126
1070	1.0637e+02	-2.5956	-8.726269	0.000426	4.257492	1.442477	-0.000170
1071	1.0647e+02	-2.6261	-8.924089	0.000497	4.967074	1.682890	-0.000199
1072	1.0656e+02	-2.6775	-9.069425	0.000365	3.649279	1.236409	-0.000146
1073	1.0666e+02	-2.7128	-9.234948	0.000416	4.156123	1.408133	-0.000166
1074	1.0676e+02	-2.7545	-9.392396	0.000395	3.953385	1.339443	-0.000158
1075	1.0686e+02	-2.7962	-9.570030	0.000446	4.460229	1.511167	-0.000179
1076	1.0696e+02	-2.8363	-9.763813	0.000487	4.865705	1.648545	-0.000195
1077	1.0706e+02	-2.8587	-9.893001	0.000324	3.243803	1.099030	-0.000130
1078	1.0716e+02	-2.9245	-10.038338	0.000365	3.649279	1.236409	-0.000146
1079	1.0726e+02	-2.9534	-10.187712	0.000375	3.750647	1.270754	-0.000150
1080	1.0736e+02	-2.9823	-10.357272	0.000426	4.257492	1.442477	-0.000170
1081	1.0746e+02	-3.0224	-10.538943	0.000456	4.561598	1.545511	-0.000183
1082	1.0756e+02	-3.0705	-10.688317	0.000375	3.750647	1.270754	-0.000150
1083	1.0766e+02	-3.1090	-10.841728	0.000385	3.852016	1.305098	-0.000154
1084	1.0776e+02	-3.1555	-11.011288	0.000426	4.257492	1.442477	-0.000170
1085	1.0786e+02	-3.1972	-11.196996	0.000466	4.662967	1.579856	-0.000187
1086	1.0796e+02	-3.2277	-11.338296	0.000355	3.547910	1.202064	-0.000142
1087	1.0806e+02	-3.2678	-11.471521	0.000335	3.345172	1.133375	-0.000134
1088	1.0816e+02	-3.3176	-11.653192	0.000456	4.561598	1.545511	-0.000183
1089	1.0826e+02	-3.3512	-11.806603	0.000385	3.852016	1.305098	-0.000154
1090	1.0836e+02	-3.3946	-11.943866	0.000345	3.446541	1.167720	-0.000138
1091	1.0845e+02	-3.4347	-12.157834	0.000537	5.372549	1.820269	-0.000215
1092	1.0855e+02	-3.4732	-12.278948	0.000304	3.041065	1.030341	-0.000122
1093	1.0865e+02	-3.5181	-12.484842	0.000517	5.169811	1.751579	-0.000207
1094	1.0875e+02	-3.5421	-12.609993	0.000314	3.142434	1.064686	-0.000126
1095	1.0885e+02	-3.5903	-12.775516	0.000416	4.156123	1.408133	-0.000166
1096	1.0895e+02	-3.6304	-12.928927	0.000385	3.852016	1.305098	-0.000154
1097	1.0905e+02	-3.6657	-13.082338	0.000385	3.852016	1.305098	-0.000154
1098	1.0915e+02	-3.7026	-13.255935	0.000436	4.358860	1.476822	-0.000174
1099	1.0925e+02	-3.7539	-13.385124	0.000324	3.243803	1.099030	-0.000130
1100	1.0935e+02	-3.7908	-13.542572	0.000395	3.953385	1.339443	-0.000158
1101	1.0945e+02	-3.8261	-13.708094	0.000416	4.156123	1.408133	-0.000166
1102	1.0955e+02	-3.8646	-13.869580	0.000405	4.054754	1.373788	-0.000162
1103	1.0965e+02	-3.9127	-14.018954	0.000375	3.750647	1.270754	-0.000150
1104	1.0975e+02	-3.9576	-14.156216	0.000345	3.446541	1.167720	-0.000138
1105	1.0985e+02	-3.9961	-14.329813	0.000436	4.358860	1.476822	-0.000174
1106	1.0995e+02	-4.0250	-14.491299	0.000405	4.054754	1.373788	-0.000162
1107	1.1005e+02	-4.0603	-14.648747	0.000395	3.953385	1.339443	-0.000158
1108	1.1015e+02	-4.1020	-14.786010	0.000345	3.446541	1.167720	-0.000138
1109	1.1025e+02	-4.1485	-14.971718	0.000466	4.662967	1.579856	-0.000187
1110	1.1035e+02	-4.1919	-15.177612	0.000517	5.169811	1.751579	-0.000207
1111	1.1044e+02	-4.2320	-15.266429	0.000223	2.230115	0.755583	-0.000089
1112	1.1054e+02	-4.2641	-15.399654	0.000335	3.345172	1.133375	-0.000134
1113	1.1064e+02	-4.3058	-15.585363	0.000466	4.662967	1.579856	-0.000187
1114	1.1074e+02	-4.3491	-15.754922	0.000426	4.257492	1.442477	-0.000170
1115	1.1084e+02	-4.3876	-15.871999	0.000294	2.939697	0.995996	-0.000118
1116	1.1094e+02	-4.4261	-16.065782	0.000487	4.865705	1.648545	-0.000195
1117	1.1104e+02	-4.4662	-16.174784	0.000274	2.736959	0.927307	-0.000110
1118	1.1114e+02	-4.5047	-16.376641	0.000507	5.068442	1.717235	-0.000203
1119	1.1124e+02	-4.5480	-16.505829	0.000324	3.243803	1.099030	-0.000130
1120	1.1134e+02	-4.5801	-16.671352	0.000416	4.156123	1.408133	-0.000166
1121	1.1144e+02	-4.6234	-16.832837	0.000405	4.054754	1.373788	-0.000162
1122	1.1154e+02	-4.6651	-16.982211	0.000375	3.750647	1.270754	-0.000150
1123	1.1164e+02	-4.7132	-17.147734	0.000416	4.156123	1.408133	-0.000166
1124	1.1174e+02	-4.7453	-17.280960	0.000335	3.345172	1.133375	-0.000134
1125	1.1184e+02	-4.7838	-17.422259	0.000355	3.547910	1.202064	-0.000142
1126	1.1194e+02	-4.8239	-17.571633	0.000375	3.750647	1.270754	-0.000150
1127	1.1204e+02	-4.8608	-17.753304	0.000456	4.561598	1.545511	-0.000183
1128	1.1214e+02	-4.9154	-17.882493	0.000324	3.243803	1.099030	-0.000130
1129	1.1224e+02	-4.9458	-17.999570	0.000294	2.939697	0.995996	-0.000118
1130	1.1234e+02	-4.9683	-18.209501	0.000527	5.271180	1.785924	-0.000211
1131	1.1244e+02	-5.0245	-18.330615	0.000304	3.041065	1.030341	-0.000122
1132	1.1253e+02	-5.0662	-18.479989	0.000375	3.750647	1.270754	-0.000150
1133	1.1263e+02	-5.1031	-18.629363	0.000375	3.750647	1.270754	-0.000150
1134	1.1273e+02	-5.1496	-18.798923	0.000426	4.257492	1.442477	-0.000170
1135	1.1283e+02	-5.1849	-18.936185	0.000345	3.446541	1.167720	-0.000138
1136	1.1293e+02	-5.2218	-19.109782	0.000436	4.358860	1.476822	-0.000174
1137	1.1303e+02	-5.2619	-19.243007	0.000335	3.345172	1.133375	-0.000134
1138	1.1313e+02	-5.3068	-19.384307	0.000355	3.547910	1.202064	-0.000142
1139	1.1323e+02	-5.3405	-19.513496	0.000324	3.243803	1.099030	-0.000130
1140	1.1333e+02	-5.3822	-19.703241	0.000476	4.764336	1.614201	-0.000191
1141	1.1343e+02	-5.4271	-19.828392	0.000314	3.142434	1.064686	-0.000126
1142	1.1353e+02	-5.4624	-19.953543	0.000314	3.142434	1.064686	-0.000126
1143	1.1363e+02	-5.5041	-20.135214	0.000456	4.561598	1.545511	-0.000183
1144	1.1373e+02	-5.5474	-20.264403	0.000324	3.243803	1.099030	-0.000130
1145	1.1383e+02	-5.5843	-20.429925	0.000416	4.156123	1.408133	-0.000166
1146	1.1393e+02	-5.6164	-20.542965	0.000284	2.838328	0.961651	-0.000114
1147	1.1403e+02	-5.6662	-20.708488	0.000416	4.156123	1.408133	-0.000166
1148	1.1413e+02	-5.7014	-20.865936	0.000395	3.953385	1.339443	-0.000158
1149	1.1423e+02	-5.7448	-20.978976	0.000284	2.838328	0.961651	-0.000114
1150	1.1433e+02	-5.7881	-21.104127	0.000314	3.142434	1.064686	-0.000126
1151	1.1442e+02	-5.8202	-21.281761	0.000446	4.460229	1.511167	-0.000179
1152	1.1452e+02	-5.8667	-21.423061	0.000355	3.547910	1.202064	-0.000142
1153	1.1462e+02	-5.9036	-21.584546	0.000405	4.054754	1.373788	-0.000162
1154	1.1472e+02	-5.9517	-21.737957	0.000385	3.852016	1.305098	-0.000154
1155	1.1482e+02	-5.9854	-21.879257	0.000355	3.547910	1.202064	-0.000142
1156	1.1492e+02	-6.0191	-22.024594	0.000365	3.649279	1.236409	-0.000146
1157	1.1502e+02	-6.0608	-22.165894	0.000355	3.547910	1.202064	-0.000142
1158	1.1512e+02	-6.0961	-22.335453	0.000426	4.257492	1.442477	-0.000170
1159	1.1522e+02	-6.1458	-22.436382	0.000253	2.534221	0.858617	-0.000101
1160	1.1532e+02	-6.1747	-22.618053	0.000456	4.561598	1.545511	-0.000183
1161	1.1542e+02	-6.2276	-22.727056	0.000274	2.736959	0.927307	-0.000110
1162	1.1552e+02	-6.2613	-22.904690	0.000446	4.460229	1.511167	-0.000179
1163	1.1562e+02	-6.3062	-23.058101	0.000385	3.852016	1.305098	-0.000154
1164	1.1572e+02	-6.3351	-23.159029	0.000253	2.534221	0.858617	-0.000101
1165	1.1582e+02	-6.3768	-23.292255	0.000335	3.345172	1.133375	-0.000134
1166	1.1592e+02	-6.4217	-23.477963	0.000466	4.662967	1.579856	-0.000187
1167	1.1602e+02	-6.4586	-23.599077	0.000304	3.041065	1.030341	-0.000122
1168	1.1612e+02	-6.4923	-23.716154	0.000294	2.939697	0.995996	-0.000118
1169	1.1622e+02	-6.5308	-23.889751	0.000436	4.358860	1.476822	-0.000174
1170	1.1632e+02	-6.5693	-24.039125	0.000375	3.750647	1.270754	-0.000150
1171	1.1642e+02	-6.6126	-24.176387	0.000345	3.446541	1.167720	-0.000138
1172	1.1651e+02	-6.6608	-24.325761	0.000375	3.750647	1.270754	-0.000150
1173	1.1661e+02	-6.7009	-24.467061	0.000355	3.547910	1.202064	-0.000142
1174	1.1671e+02	-6.7426	-24.592212	0.000314	3.142434	1.064686	-0.000126
1175	1.1681e+02	-6.7715	-24.737549	0.000365	3.649279	1.236409	-0.000146
1176	1.1691e+02	-6.8164	-24.866738	0.000324	3.243803	1.099030	-0.000130
1177	1.1701e+02	-6.8533	-25.032260	0.000416	4.156123	1.408133	-0.000166
1178	1.1711e+02	-6.9062	-25.169523	0.000345	3.446541	1.167720	-0.000138
1179	1.1721e+02	-6.9431	-25.290637	0.000304	3.041065	1.030341	-0.000122
1180	1.1731e+02	-6.9832	-25.460197	0.000426	4.257492	1.442477	-0.000170
1181	1.1741e+02	-7.0105	-25.581311	0.000304	3.041065	1.030341	-0.000122
1182	1.1751e+02	-7.0506	-25.738759	0.000395	3.953385	1.339443	-0.000158
1183	1.1761e+02	-7.0875	-25.855836	0.000294	2.939697	0.995996	-0.000118
1184	1.1771e+02	-7.1356	-26.053655	0.000497	4.967074	1.682890	-0.000199
1185	1.1781e+02	-7.1773	-26.170732	0.000294	2.939697	0.995996	-0.000118
1186	1.1791e+02	-7.2094	-26.303958	0.000335	3.345172	1.133375	-0.000134
1187	1.1801e+02	-7.2495	-26.437183	0.000335	3.345172	1.133375	-0.000134
1188	1.1811e+02	-7.2944	-26.582520	0.000365	3.649279	1.236409	-0.000146
1189	1.1821e+02	-7.3297	-26.735931	0.000385	3.852016	1.305098	-0.000154
1190	1.1831e+02	-7.3747	-26.844934	0.000274	2.736959	0.927307	-0.000110
1191	1.1841e+02	-7.4148	-27.030642	0.000466	4.662967	1.579856	-0.000187
1192	1.1850e+02	-7.4517	-27.135608	0.000264	2.635590	0.892962	-0.000105
1193	1.1860e+02	-7.4950	-27.301130	0.000416	4.156123	1.408133	-0.000166
1194	1.1870e+02	-7.5303	-27.414170	0.000284	2.838328	0.961651	-0.000114
1195	1.1880e+02	-7.5752	-27.567581	0.000385	3.852016	1.305098	-0.000154
1196	1.1890e+02	-7.6169	-27.692733	0.000314	3.142434	1.064686	-0.000126
1197	1.1900e+02	-7.6490	-27.813847	0.000304	3.041065	1.030341	-0.000122
1198	1.1910e+02	-7.6971	-27.934961	0.000304	3.041065	1.030341	-0.000122
1199	1.1920e+02	-7.7292	-28.080298	0.000365	3.649279	1.236409	-0.000146
1200	1.1930e+02	-7.7693	-28.257932	0.000446	4.460229	1.511167	-0.000179
1201	1.1940e+02	-7.8110	-28.362897	0.000264	2.635590	0.892962	-0.000105
1202	1.1950e+02	-7.8527	-28.492085	0.000324	3.243803	1.099030	-0.000130
1203	1.1960e+02	-7.8960	-28.605125	0.000284	2.838328	0.961651	-0.000114
1204	1.1970e+02	-7.9281	-28.786796	0.000456	4.561598	1.545511	-0.000183
1205	1.1980e+02	-7.9714	-28.887725	0.000253	2.534221	0.858617	-0.000101
1206	1.1990e+02	-8.0115	-29.020950	0.000335	3.345172	1.133375	-0.000134
1207	1.2000e+02	-8.0484	-29.150139	0.000324	3.243803	1.099030	-0.000130
1208	1.2010e+02	-8.0950	-29.311624	0.000405	4.054754	1.373788	-0.000162
1209	1.2020e+02	-8.1383	-29.444850	0.000335	3.345172	1.133375	-0.000134
1210	1.2030e+02	-8.1704	-29.582112	0.000345	3.446541	1.167720	-0.000138
1211	1.2039e+02	-8.2201	-29.723412	0.000355	3.547910	1.202064	-0.000142
1212	1.2049e+02	-8.2474	-29.880860	0.000395	3.953385	1.339443	-0.000158
1213	1.2059e+02	-8.2891	-29.981789	0.000253	2.534221	0.858617	-0.000101
1214	1.2069e+02	-8.3356	-30.098865	0.000294	2.939697	0.995996	-0.000118
1215	1.2079e+02	-8.3693	-30.240165	0.000355	3.547910	1.202064	-0.000142
1216	1.2089e+02	-8.4094	-30.373391	0.000335	3.345172	1.133375	-0.000134
1217	1.2099e+02	-8.4527	-30.502579	0.000324	3.243803	1.099030	-0.000130
1218	1.2109e+02	-8.4944	-30.651953	0.000375	3.750647	1.270754	-0.000150
1219	1.2119e+02	-8.5297	-30.793253	0.000355	3.547910	1.202064	-0.000142
1220	1.2129e+02	-8.5714	-30.894181	0.000253	2.534221	0.858617	-0.000101
1221	1.2139e+02	-8.6131	-31.047592	0.000385	3.852016	1.305098	-0.000154
1222	1.2149e+02	-8.6500	-31.192929	0.000365	3.649279	1.236409	-0.000146
1223	1.2159e+02	-8.6869	-31.326155	0.000335	3.345172	1.133375	-0.000134
1224	1.2169e+02	-8.7254	-31.479566	0.000385	3.852016	1.305098	-0.000154
1225	1.2179e+02	-8.7623	-31.572420	0.000233	2.331483	0.789928	-0.000093
1226	1.2189e+02	-8.8185	-31.713720	0.000355	3.547910	1.202064	-0.000142
1227	1.2199e+02	-8.8538	-31.846945	0.000335	3.345172	1.133375	-0.000134
1228	1.2209e+02	-8.8923	-31.972096	0.000314	3.142434	1.064686	-0.000126
1229	1.2219e+02	-8.9179	-32.097248	0.000314	3.142434	1.064686	-0.000126
1230	1.2229e+02	-8.9628	-32.262770	0.000416	4.156123	1.408133	-0.000166
1231	1.2239e+02	-9.0046	-32.359662	0.000243	2.432852	0.824273	-0.000097
1232	1.2248e+02	-9.0527	-32.484813	0.000314	3.142434	1.064686	-0.000126
1233	1.2258e+02	-9.0912	-32.626112	0.000355	3.547910	1.202064	-0.000142
1234	1.2268e+02	-9.1233	-32.763375	0.000345	3.446541	1.167720	-0.000138
1235	1.2278e+02	-9.1602	-32.860266	0.000243	2.432852	0.824273	-0.000097
1236	1.2288e+02	-9.2115	-33.009640	0.000375	3.750647	1.270754	-0.000150
1237	1.2298e+02	-9.2516	-33.130754	0.000304	3.041065	1.030341	-0.000122
1238	1.2308e+02	-9.2853	-33.276091	0.000365	3.649279	1.236409	-0.000146
1239	1.2318e+02	-9.3334	-33.377020	0.000253	2.534221	0.858617	-0.000101
1240	1.2328e+02	-9.3687	-33.542542	0.000416	4.156123	1.408133	-0.000166
1241	1.2338e+02	-9.4040	-33.663656	0.000304	3.041065	1.030341	-0.000122
1242	1.2348e+02	-9.4409	-33.804956	0.000355	3.547910	1.202064	-0.000142
1243	1.2358e+02	-9.4874	-33.885699	0.000203	2.027377	0.686894	-0.000081
1244	1.2368e+02	-9.5243	-34.026999	0.000355	3.547910	1.202064	-0.000142
1245	1.2378e+02	-9.5692	-34.164261	0.000345	3.446541	1.167720	-0.000138
1246	1.2388e+02	-9.6094	-34.285375	0.000304	3.041065	1.030341	-0.000122
1247	1.2398e+02	-9.6463	-34.394378	0.000274	2.736959	0.927307	-0.000110
1248	1.2408e+02	-9.6848	-34.531641	0.000345	3.446541	1.167720	-0.000138
1249	1.2418e+02	-9.7136	-34.656792	0.000314	3.142434	1.064686	-0.000126
1250	1.2428e+02	-9.7618	-34.765794	0.000274	2.736959	0.927307	-0.000110
1251	1.2438e+02	-9.8019	-34.939391	0.000436	4.358860	1.476822	-0.000174
1252	1.2447e+02	-9.8388	-35.036283	0.000243	2.432852	0.824273	-0.000097
1253	1.2457e+02	-9.8821	-35.125099	0.000223	2.230115	0.755583	-0.000089
1254	1.2467e+02	-9.9190	-35.246214	0.000304	3.041065	1.030341	-0.000122
1255	1.2477e+02	-9.9655	-35.387513	0.000355	3.547910	1.202064	-0.000142
1256	1.2487e+02	-9.9992	-35.496516	0.000274	2.736959	0.927307	-0.000110
1257	1.2497e+02	-10.0473	-35.633779	0.000345	3.446541	1.167720	-0.000138
1258	1.2507e+02	-10.0826	-35.775078	0.000355	3.547910	1.202064	-0.000142
1259	1.2517e+02	-10.1275	-35.876007	0.000253	2.534221	0.858617	-0.000101
1260	1.2527e+02	-10.1580	-35.985009	0.000274	2.736959	0.927307	-0.000110
1261	1.2537e+02	-10.1949	-36.130346	0.000365	3.649279	1.236409	-0.000146
1262	1.2547e+02	-10.2366	-36.251460	0.000304	3.041065	1.030341	-0.000122
1263	1.2557e+02	-10.2879	-36.388723	0.000345	3.446541	1.167720	-0.000138
1264	1.2567e+02	-10.3152	-36.469466	0.000203	2.027377	0.686894	-0.000081
1265	1.2577e+02	-10.3617	-36.622877	0.000385	3.852016	1.305098	-0.000154
1266	1.2587e+02	-10.4051	-36.731880	0.000274	2.736959	0.927307	-0.000110
1267	1.2597e+02	-10.4436	-36.820696	0.000223	2.230115	0.755583	-0.000089
1268	1.2607e+02	-10.4821	-36.982182	0.000405	4.054754	1.373788	-0.000162
1269	1.2617e+02	-10.5190	-37.099259	0.000294	2.939697	0.995996	-0.000118
1270	1.2627e+02	-10.5655	-37.216336	0.000294	2.939697	0.995996	-0.000118
1271	1.2636e+02	-10.6040	-37.345524	0.000324	3.243803	1.099030	-0.000130
1272	1.2646e+02	-10.6473	-37.438378	0.000233	2.331483	0.789928	-0.000093
1273	1.2656e+02	-10.6890	-37.583715	0.000365	3.649279	1.236409	-0.000146
1274	1.2666e+02	-10.7195	-37.704829	0.000304	3.041065	1.030341	-0.000122
1275	1.2676e+02	-10.7660	-37.825943	0.000304	3.041065	1.030341	-0.000122
1276	1.2686e+02	-10.8077	-37.934946	0.000274	2.736959	0.927307	-0.000110
1277	1.2696e+02	-10.8430	-38.047986	0.000284	2.838328	0.961651	-0.000114
1278	1.2706e+02	-10.8783	-38.161026	0.000284	2.838328	0.961651	-0.000114
1279	1.2716e+02	-10.9200	-38.314437	0.000385	3.852016	1.305098	-0.000154
1280	1.2726e+02	-10.9553	-38.383068	0.000172	1.723270	0.583860	-0.000069
1281	1.2736e+02	-10.9922	-38.544553	0.000405	4.054754	1.373788	-0.000162
1282	1.2746e+02	-11.0339	-38.706039	0.000405	4.054754	1.373788	-0.000162
1283	1.2756e+02	-11.0756	-38.806967	0.000253	2.534221	0.858617	-0.000101
1284	1.2766e+02	-11.1254	-38.887710	0.000203	2.027377	0.686894	-0.000081
1285	1.2776e+02	-11.1590	-39.008824	0.000304	3.041065	1.030341	-0.000122
1286	1.2786e+02	-11.1991	-39.109752	0.000253	2.534221	0.858617	-0.000101
1287	1.2796e+02	-11.2425	-39.255089	0.000365	3.649279	1.236409	-0.000146
1288	1.2806e+02	-11.2810	-39.380241	0.000314	3.142434	1.064686	-0.000126
1289	1.2816e+02	-11.3098	-39.493280	0.000284	2.838328	0.961651	-0.000114
1290	1.2826e+02	-11.3580	-39.606320	0.000284	2.838328	0.961651	-0.000114
1291	1.2835e+02	-11.3949	-39.763768	0.000395	3.953385	1.339443	-0.000158
1292	1.2845e+02	-11.4270	-39.828363	0.000162	1.621902	0.549515	-0.000065
1293	1.2855e+02	-11.4719	-39.929291	0.000253	2.534221	0.858617	-0.000101
1294	1.2865e+02	-11.5200	-40.094814	0.000416	4.156123	1.408133	-0.000166
1295	1.2875e+02	-11.5617	-40.179593	0.000213	2.128746	0.721239	-0.000085
1296	1.2885e+02	-11.5938	-40.328967	0.000375	3.750647	1.270754	-0.000150
1297	1.2895e+02	-11.6355	-40.421822	0.000233	2.331483	0.789928	-0.000093
1298	1.2905e+02	-11.6724	-40.559084	0.000345	3.446541	1.167720	-0.000138
1299	1.2915e+02	-11.7045	-40.668087	0.000274	2.736959	0.927307	-0.000110
1300	1.2925e+02	-11.7494	-40.797275	0.000324	3.243803	1.099030	-0.000130
1301	1.2935e+02	-11.8007	-40.882055	0.000213	2.128746	0.721239	-0.000085
1302	1.2945e+02	-11.8312	-40.995095	0.000284	2.838328	0.961651	-0.000114
1303	1.2955e+02	-11.8761	-41.116209	0.000304	3.041065	1.030341	-0.000122
1304	1.2965e+02	-11.9050	-41.241360	0.000314	3.142434	1.064686	-0.000126
1305	1.2975e+02	-11.9563	-41.366511	0.000314	3.142434	1.064686	-0.000126
1306	1.2985e+02	-11.9900	-41.487625	0.000304	3.041065	1.030341	-0.000122
1307	1.2995e+02	-12.0430	-41.576442	0.000223	2.230115	0.755583	-0.000089
1308	1.3005e+02	-12.0783	-41.697556	0.000304	3.041065	1.030341	-0.000122
1309	1.3015e+02	-12.1104	-41.822708	0.000314	3.142434	1.064686	-0.000126
1310	1.3025e+02	-12.1585	-41.911525	0.000223	2.230115	0.755583	-0.000089
1311	1.3034e+02	-12.1970	-42.089159	0.000446	4.460229	1.511167	-0.000179
1312	1.3044e+02	-12.2339	-42.169901	0.000203	2.027377	0.686894	-0.000081
1313	1.3054e+02	-12.2836	-42.262755	0.000233	2.331483	0.789928	-0.000093
1314	1.3064e+02	-12.3141	-42.363684	0.000253	2.534221	0.858617	-0.000101
1315	1.3074e+02	-12.3510	-42.492872	0.000324	3.243803	1.099030	-0.000130
1316	1.3084e+02	-12.4055	-42.613986	0.000304	3.041065	1.030341	-0.000122
1317	1.3094e+02	-12.4296	-42.739137	0.000314	3.142434	1.064686	-0.000126
1318	1.3104e+02	-12.4729	-42.844103	0.000264	2.635590	0.892962	-0.000105
1319	1.3114e+02	-12.5162	-42.981366	0.000345	3.446541	1.167720	-0.000138
1320	1.3124e+02	-12.5467	-43.086331	0.000264	2.635590	0.892962	-0.000105
1321	1.3134e+02	-12.6045	-43.154962	0.000172	1.723270	0.583860	-0.000069
1322	1.3144e+02	-12.6301	-43.296262	0.000355	3.547910	1.202064	-0.000142
1323	1.3154e+02	-12.6734	-43.417376	0.000304	3.041065	1.030341	-0.000122
1324	1.3164e+02	-12.7119	-43.526379	0.000274	2.736959	0.927307	-0.000110
1325	1.3174e+02	-12.7537	-43.615196	0.000223	2.230115	0.755583	-0.000089
1326	1.3184e+02	-12.7905	-43.736310	0.000304	3.041065	1.030341	-0.000122
1327	1.3194e+02	-12.8307	-43.873573	0.000345	3.446541	1.167720	-0.000138
1328	1.3204e+02	-12.8724	-43.974501	0.000253	2.534221	0.858617	-0.000101
1329	1.3214e+02	-12.9109	-44.119838	0.000365	3.649279	1.236409	-0.000146
1330	1.3224e+02	-12.9510	-44.236915	0.000294	2.939697	0.995996	-0.000118
1331	1.3234e+02	-12.9911	-44.317658	0.000203	2.027377	0.686894	-0.000081
1332	1.3243e+02	-13.0200	-44.479143	0.000405	4.054754	1.373788	-0.000162
1333	1.3253e+02	-13.0729	-44.576034	0.000243	2.432852	0.824273	-0.000097
1334	1.3263e+02	-13.1034	-44.640628	0.000162	1.621902	0.549515	-0.000065
1335	1.3273e+02	-13.1499	-44.785965	0.000365	3.649279	1.236409	-0.000146
1336	1.3283e+02	-13.1820	-44.894968	0.000274	2.736959	0.927307	-0.000110
1337	1.3293e+02	-13.2237	-45.040305	0.000365	3.649279	1.236409	-0.000146
1338	1.3303e+02	-13.2750	-45.153345	0.000284	2.838328	0.961651	-0.000114
1339	1.3313e+02	-13.3039	-45.278496	0.000314	3.142434	1.064686	-0.000126
1340	1.3323e+02	-13.3424	-45.379424	0.000253	2.534221	0.858617	-0.000101
1341	1.3333e+02	-13.3921	-45.496501	0.000294	2.939697	0.995996	-0.000118
1342	1.3343e+02	-13.4258	-45.569170	0.000182	1.824639	0.618205	-0.000073
1343	1.3353e+02	-13.4659	-45.718544	0.000375	3.750647	1.270754	-0.000150
1344	1.3363e+02	-13.5108	-45.799286	0.000203	2.027377	0.686894	-0.000081
1345	1.3373e+02	-13.5477	-45.916363	0.000294	2.939697	0.995996	-0.000118
1346	1.3383e+02	-13.5975	-46.045552	0.000324	3.243803	1.099030	-0.000130
1347	1.3393e+02	-13.6296	-46.186851	0.000355	3.547910	1.202064	-0.000142
1348	1.3403e+02	-13.6713	-46.279706	0.000233	2.331483	0.789928	-0.000093
1349	1.3413e+02	-13.7082	-46.360448	0.000203	2.027377	0.686894	-0.000081
1350	1.3423e+02	-13.7515	-46.473488	0.000284	2.838328	0.961651	-0.000114
1351	1.3432e+02	-13.7996	-46.622862	0.000375	3.750647	1.270754	-0.000150
1352	1.3442e+02	-13.8253	-46.715716	0.000233	2.331483	0.789928	-0.000093
1353	1.3452e+02	-13.8606	-46.836830	0.000304	3.041065	1.030341	-0.000122
1354	1.3462e+02	-13.9151	-46.905462	0.000172	1.723270	0.583860	-0.000069
1355	1.3472e+02	-13.9408	-47.062910	0.000395	3.953385	1.339443	-0.000158
1356	1.3482e+02	-13.9825	-47.163838	0.000253	2.534221	0.858617	-0.000101
1357	1.3492e+02	-14.0210	-47.268804	0.000264	2.635590	0.892962	-0.000105
1358	1.3502e+02	-14.0691	-47.393955	0.000314	3.142434	1.064686	-0.000126
1359	1.3512e+02	-14.1060	-47.515069	0.000304	3.041065	1.030341	-0.000122
1360	1.3522e+02	-14.1477	-47.632146	0.000294	2.939697	0.995996	-0.000118
1361	1.3532e+02	-14.1862	-47.737112	0.000264	2.635590	0.892962	-0.000105
1362	1.3542e+02	-14.2247	-47.846114	0.000274	2.736959	0.927307	-0.000110
1363	1.3552e+02	-14.2697	-47.947043	0.000253	2.534221	0.858617	-0.000101
1364	1.3562e+02	-14.3114	-48.080268	0.000335	3.345172	1.133375	-0.000134
1365	1.3572e+02	-14.3434	-48.169085	0.000223	2.230115	0.755583	-0.000089
1366	1.3582e+02	-14.3964	-48.261939	0.000233	2.331483	0.789928	-0.000093
1367	1.3592e+02	-14.4333	-48.407276	0.000365	3.649279	1.236409	-0.000146
1368	1.3602e+02	-14.4638	-48.508204	0.000253	2.534221	0.858617	-0.000101
1369	1.3612e+02	-14.4991	-48.613170	0.000264	2.635590	0.892962	-0.000105
1370	1.3622e+02	-14.5472	-48.726210	0.000284	2.838328	0.961651	-0.000114
1371	1.3631e+02	-14.5809	-48.847324	0.000304	3.041065	1.030341	-0.000122
1372	1.3641e+02	-14.6210	-48.907881	0.000152	1.520533	0.515170	-0.000061
1373	1.3651e+02	-14.6627	-49.020921	0.000284	2.838328	0.961651	-0.000114
1374	1.3661e+02	-14.7076	-49.133960	0.000284	2.838328	0.961651	-0.000114
1375	1.3671e+02	-14.7445	-49.259112	0.000314	3.142434	1.064686	-0.000126
1376	1.3681e+02	-14.7814	-49.372152	0.000284	2.838328	0.961651	-0.000114
1377	1.3691e+02	-14.8247	-49.509414	0.000345	3.446541	1.167720	-0.000138
1378	1.3701e+02	-14.8584	-49.582083	0.000182	1.824639	0.618205	-0.000073
1379	1.3711e+02	-14.9033	-49.695122	0.000284	2.838328	0.961651	-0.000114
1380	1.3721e+02	-14.9514	-49.800088	0.000264	2.635590	0.892962	-0.000105
1381	1.3731e+02	-14.9867	-49.896979	0.000243	2.432852	0.824273	-0.000097
1382	1.3741e+02	-15.0204	-50.014056	0.000294	2.939697	0.995996	-0.000118
1383	1.3751e+02	-15.0605	-50.106910	0.000233	2.331483	0.789928	-0.000093
1384	1.3761e+02	-15.1022	-50.248210	0.000355	3.547910	1.202064	-0.000142
1385	1.3771e+02	-15.1311	-50.361250	0.000284	2.838328	0.961651	-0.000114
1386	1.3781e+02	-15.1809	-50.466215	0.000264	2.635590	0.892962	-0.000105
1387	1.3791e+02	-15.2258	-50.575218	0.000274	2.736959	0.927307	-0.000110
1388	1.3801e+02	-15.2659	-50.643849	0.000172	1.723270	0.583860	-0.000069
1389	1.3811e+02	-15.3108	-50.756889	0.000284	2.838328	0.961651	-0.000114
1390	1.3821e+02	-15.3445	-50.853780	0.000243	2.432852	0.824273	-0.000097
1391	1.3831e+02	-15.3814	-51.031414	0.000446	4.460229	1.511167	-0.000179
1392	1.3840e+02	-15.4263	-51.108120	0.000193	1.926008	0.652549	-0.000077
1393	1.3850e+02	-15.4648	-51.225197	0.000294	2.939697	0.995996	-0.000118
1394	1.3860e+02	-15.4985	-51.318051	0.000233	2.331483	0.789928	-0.000093
1395	1.3870e+02	-15.5434	-51.402831	0.000213	2.128746	0.721239	-0.000085
1396	1.3880e+02	-15.5835	-51.536056	0.000335	3.345172	1.133375	-0.000134
1397	1.3890e+02	-15.6172	-51.632948	0.000243	2.432852	0.824273	-0.000097
1398	1.3900e+02	-15.6573	-51.770210	0.000345	3.446541	1.167720	-0.000138
1399	1.3910e+02	-15.7054	-51.850953	0.000203	2.027377	0.686894	-0.000081
1400	1.3920e+02	-15.7407	-51.972067	0.000304	3.041065	1.030341	-0.000122
1401	1.3930e+02	-15.7712	-52.072995	0.000253	2.534221	0.858617	-0.000101
1402	1.3940e+02	-15.8113	-52.145664	0.000182	1.824639	0.618205	-0.000073
1403	1.3950e+02	-15.8610	-52.291001	0.000365	3.649279	1.236409	-0.000146
1404	1.3960e+02	-15.9028	-52.395966	0.000264	2.635590	0.892962	-0.000105
1405	1.3970e+02	-15.9397	-52.537266	0.000355	3.547910	1.202064	-0.000142
1406	1.3980e+02	-15.9766	-52.569563	0.000081	0.810951	0.274758	-0.000032
1407	1.3990e+02	-16.0215	-52.694714	0.000314	3.142434	1.064686	-0.000126
1408	1.4000e+02	-16.0664	-52.823903	0.000324	3.243803	1.099030	-0.000130
1409	1.4010e+02	-16.1049	-52.936942	0.000284	2.838328	0.961651	-0.000114
1410	1.4020e+02	-16.1338	-53.037871	0.000253	2.534221	0.858617	-0.000101
1411	1.4029e+02	-16.1819	-53.138799	0.000253	2.534221	0.858617	-0.000101
1412	1.4039e+02	-16.2236	-53.255876	0.000294	2.939697	0.995996	-0.000118
1413	1.4049e+02	-16.2653	-53.320470	0.000162	1.621902	0.549515	-0.000065
1414	1.4059e+02	-16.2942	-53.465807	0.000365	3.649279	1.236409	-0.000146
1415	1.4069e+02	-16.3391	-53.538476	0.000182	1.824639	0.618205	-0.000073
1416	1.4079e+02	-16.3824	-53.683812	0.000365	3.649279	1.236409	-0.000146
1417	1.4089e+02	-16.4177	-53.780704	0.000243	2.432852	0.824273	-0.000097
1418	1.4099e+02	-16.4626	-53.889706	0.000274	2.736959	0.927307	-0.000110
1419	1.4109e+02	-16.5027	-53.986598	0.000243	2.432852	0.824273	-0.000097
1420	1.4119e+02	-16.5412	-54.079452	0.000233	2.331483	0.789928	-0.000093
1421	1.4129e+02	-16.5685	-54.192492	0.000284	2.838328	0.961651	-0.000114
1422	1.4139e+02	-16.6215	-54.265160	0.000182	1.824639	0.618205	-0.000073
1423	1.4149e+02	-16.6600	-54.426645	0.000405	4.054754	1.373788	-0.000162
1424	1.4159e+02	-16.6953	-54.491240	0.000162	1.621902	0.549515	-0.000065
1425	1.4169e+02	-16.7338	-54.600242	0.000274	2.736959	0.927307	-0.000110
1426	1.4179e+02	-16.7706	-54.664836	0.000162	1.621902	0.549515	-0.000065
1427	1.4189e+02	-16.8204	-54.814210	0.000375	3.750647	1.270754	-0.000150
1428	1.4199e+02	-16.8477	-54.898990	0.000213	2.128746	0.721239	-0.000085
1429	1.4209e+02	-16.8942	-55.020104	0.000304	3.041065	1.030341	-0.000122
1430	1.4219e+02	-16.9375	-55.092773	0.000182	1.824639	0.618205	-0.000073
1431	1.4228e+02	-16.9792	-55.213887	0.000304	3.041065	1.030341	-0.000122
1432	1.4238e+02	-17.0049	-55.322890	0.000274	2.736959	0.927307	-0.000110
1433	1.4248e+02	-17.0562	-55.399595	0.000193	1.926008	0.652549	-0.000077
1434	1.4258e+02	-17.0963	-55.524746	0.000314	3.142434	1.064686	-0.000126
1435	1.4268e+02	-17.1412	-55.645860	0.000304	3.041065	1.030341	-0.000122
1436	1.4278e+02	-17.1765	-55.738715	0.000233	2.331483	0.789928	-0.000093
1437	1.4288e+02	-17.2102	-55.871940	0.000335	3.345172	1.133375	-0.000134
1438	1.4298e+02	-17.2567	-55.968831	0.000243	2.432852	0.824273	-0.000097
1439	1.4308e+02	-17.2952	-56.045537	0.000193	1.926008	0.652549	-0.000077
1440	1.4318e+02	-17.3289	-56.142428	0.000243	2.432852	0.824273	-0.000097
1441	1.4328e+02	-17.3722	-56.291802	0.000375	3.750647	1.270754	-0.000150
1442	1.4338e+02	-17.4107	-56.372545	0.000203	2.027377	0.686894	-0.000081
1443	1.4348e+02	-17.4573	-56.525956	0.000385	3.852016	1.305098	-0.000154
1444	1.4358e+02	-17.4926	-56.594587	0.000172	1.723270	0.583860	-0.000069
1445	1.4368e+02	-17.5230	-56.707627	0.000284	2.838328	0.961651	-0.000114
1446	1.4378e+02	-17.5744	-56.784333	0.000193	1.926008	0.652549	-0.000077
1447	1.4388e+02	-17.6097	-56.913521	0.000324	3.243803	1.099030	-0.000130
1448	1.4398e+02	-17.6562	-57.010412	0.000243	2.432852	0.824273	-0.000097
1449	1.4408e+02	-17.6899	-57.135564	0.000314	3.142434	1.064686	-0.000126
1450	1.4418e+02	-17.7252	-57.240529	0.000264	2.635590	0.892962	-0.000105
1451	1.4428e+02	-17.7765	-57.325309	0.000213	2.128746	0.721239	-0.000085
1452	1.4437e+02	-17.8150	-57.438349	0.000284	2.838328	0.961651	-0.000114
1453	1.4447e+02	-17.8487	-57.519091	0.000203	2.027377	0.686894	-0.000081
1454	1.4457e+02	-17.8824	-57.672503	0.000385	3.852016	1.305098	-0.000154
1455	1.4467e+02	-17.9321	-57.753245	0.000203	2.027377	0.686894	-0.000081
1456	1.4477e+02	-17.9802	-57.854174	0.000253	2.534221	0.858617	-0.000101
1457	1.4487e+02	-18.0139	-57.963176	0.000274	2.736959	0.927307	-0.000110
1458	1.4497e+02	-18.0492	-58.088328	0.000314	3.142434	1.064686	-0.000126
1459	1.4507e+02	-18.0893	-58.181182	0.000233	2.331483	0.789928	-0.000093
1460	1.4517e+02	-18.1278	-58.326519	0.000365	3.649279	1.236409	-0.000146
1461	1.4527e+02	-18.1808	-58.387076	0.000152	1.520533	0.515170	-0.000061
1462	1.4537e+02	-18.2145	-58.528375	0.000355	3.547910	1.202064	-0.000142
1463	1.4547e+02	-18.2514	-58.617192	0.000223	2.230115	0.755583	-0.000089
1464	1.4557e+02	-18.3011	-58.722158	0.000264	2.635590	0.892962	-0.000105
1465	1.4567e+02	-18.3332	-58.847309	0.000314	3.142434	1.064686	-0.000126
1466	1.4577e+02	-18.3701	-58.980535	0.000335	3.345172	1.133375	-0.000134
1467	1.4587e+02	-18.4070	-59.065314	0.000213	2.128746	0.721239	-0.000085
1468	1.4597e+02	-18.4455	-59.158169	0.000233	2.331483	0.789928	-0.000093
1469	1.4607e+02	-18.4872	-59.230837	0.000182	1.824639	0.618205	-0.000073
1470	1.4617e+02	-18.5241	-59.351951	0.000304	3.041065	1.030341	-0.000122
1471	1.4626e+02	-18.5626	-59.501325	0.000375	3.750647	1.270754	-0.000150
1472	1.4636e+02	-18.6027	-59.598216	0.000243	2.432852	0.824273	-0.000097
1473	1.4646e+02	-18.6556	-59.687033	0.000223	2.230115	0.755583	-0.000089
1474	1.4656e+02	-18.6925	-59.816222	0.000324	3.243803	1.099030	-0.000130
1475	1.4666e+02	-18.7246	-59.901002	0.000213	2.128746	0.721239	-0.000085
1476	1.4676e+02	-18.7679	-60.010004	0.000274	2.736959	0.927307	-0.000110
1477	1.4686e+02	-18.8016	-60.131118	0.000304	3.041065	1.030341	-0.000122
1478	1.4696e+02	-18.8562	-60.244158	0.000284	2.838328	0.961651	-0.000114
1479	1.4706e+02	-18.8930	-60.349124	0.000264	2.635590	0.892962	-0.000105
1480	1.4716e+02	-18.9316	-60.446015	0.000243	2.432852	0.824273	-0.000097
1481	1.4726e+02	-18.9765	-60.575203	0.000324	3.243803	1.099030	-0.000130
1482	1.4736e+02	-19.0086	-60.680169	0.000264	2.635590	0.892962	-0.000105
1483	1.4746e+02	-19.0503	-60.781097	0.000253	2.534221	0.858617	-0.000101
1484	1.4756e+02	-19.0872	-60.898174	0.000294	2.939697	0.995996	-0.000118
1485	1.4766e+02	-19.1273	-61.035437	0.000345	3.446541	1.167720	-0.000138
1486	1.4776e+02	-19.1658	-61.087919	0.000132	1.317795	0.446481	-0.000053
1487	1.4786e+02	-19.2139	-61.188848	0.000253	2.534221	0.858617	-0.000101
1488	1.4796e+02	-19.2508	-61.305925	0.000294	2.939697	0.995996	-0.000118
1489	1.4806e+02	-19.2813	-61.475484	0.000426	4.257492	1.442477	-0.000170
1490	1.4816e+02	-19.3278	-61.544116	0.000172	1.723270	0.583860	-0.000069
1491	1.4825e+02	-19.3695	-61.657156	0.000284	2.838328	0.961651	-0.000114
1492	1.4835e+02	-19.4080	-61.790381	0.000335	3.345172	1.133375	-0.000134
1493	1.4845e+02	-19.4417	-61.887272	0.000243	2.432852	0.824273	-0.000097
1494	1.4855e+02	-19.4866	-61.992238	0.000264	2.635590	0.892962	-0.000105
1495	1.4865e+02	-19.5267	-62.121426	0.000324	3.243803	1.099030	-0.000130
1496	1.4875e+02	-19.5572	-62.282912	0.000405	4.054754	1.373788	-0.000162
1497	1.4885e+02	-19.6037	-62.399989	0.000294	2.939697	0.995996	-0.000118
1498	1.4895e+02	-19.6454	-62.480731	0.000203	2.027377	0.686894	-0.000081
1499	1.4905e+02	-19.6871	-62.585697	0.000264	2.635590	0.892962	-0.000105
1500	1.4915e+02	-19.7192	-62.735071	0.000375	3.750647	1.270754	-0.000150
1501	1.4925e+02	-19.7674	-62.835999	0.000253	2.534221	0.858617	-0.000101
1502	1.4935e+02	-19.8043	-62.965188	0.000324	3.243803	1.099030	-0.000130
1503	1.4945e+02	-19.8428	-63.041893	0.000193	1.926008	0.652549	-0.000077
1504	1.4955e+02	-19.8845	-63.219527	0.000446	4.460229	1.511167	-0.000179
1505	1.4965e+02	-19.9182	-63.312381	0.000233	2.331483	0.789928	-0.000093
1506	1.4975e+02	-19.9647	-63.433495	0.000304	3.041065	1.030341	-0.000122
1507	1.4985e+02	-19.9984	-63.510201	0.000193	1.926008	0.652549	-0.000077
1508	1.4995e+02	-19.9615	-63.498089	0.000030	0.304107	0.103034	0.000012
1509	1.5005e+02	-19.9310	-63.413310	0.000213	2.128746	0.721239	0.000085
1510	1.5015e+02	-19.8845	-63.385050	0.000071	0.709582	0.240413	0.000028
1511	1.5025e+02	-19.8428	-63.328530	0.000142	1.419164	0.480826	0.000057
1512	1.5034e+02	-19.8010	-63.328530	0.000000	0.000000	0.000000	0.000000
1513	1.5044e+02	-19.7674	-63.255861	0.000182	1.824639	0.618205	0.000073
1514	1.5054e+02	-19.7192	-63.183193	0.000182	1.824639	0.618205	0.000073
1515	1.5064e+02	-19.6759	-63.138784	0.000112	1.115057	0.377792	0.000045
1516	1.5074e+02	-19.6358	-63.074190	0.000162	1.621902	0.549515	0.000065
1517	1.5084e+02	-19.6069	-62.993447	0.000203	2.027377	0.686894	0.000081
1518	1.5094e+02	-19.5620	-62.969225	0.000061	0.608213	0.206068	0.000024
1519	1.5104e+02	-19.5187	-62.892519	0.000193	1.926008	0.652549	0.000077
1520	1.5114e+02	-19.4834	-62.823888	0.000172	1.723270	0.583860	0.000069
1521	1.5124e+02	-19.4481	-62.739108	0.000213	2.128746	0.721239	0.000085
1522	1.5134e+02	-19.4048	-62.662402	0.000193	1.926008	0.652549	0.000077
1523	1.5144e+02	-19.3647	-62.658365	0.000010	0.101369	0.034345	0.000004
1524	1.5154e+02	-19.3278	-62.557437	0.000253	2.534221	0.858617	0.000101
1525	1.5164e+02	-19.2893	-62.468620	0.000223	2.230115	0.755583	0.000089
1526	1.5174e+02	-19.2444	-62.456508	0.000030	0.304107	0.103034	0.000012
1527	1.5184e+02	-19.2123	-62.371729	0.000213	2.128746	0.721239	0.000085
1528	1.5194e+02	-19.1722	-62.278874	0.000233	2.331483	0.789928	0.000093
1529	1.5204e+02	-19.1225	-62.218317	0.000152	1.520533	0.515170	0.000061
1530	1.5214e+02	-19.0872	-62.202169	0.000041	0.405475	0.137379	0.000016
1531	1.5224e+02	-19.0471	-62.077018	0.000314	3.142434	1.064686	0.000126
1532	1.5233e+02	-19.0021	-62.020498	0.000142	1.419164	0.480826	0.000057
1533	1.5243e+02	-18.9636	-61.939755	0.000203	2.027377	0.686894	0.000081
1534	1.5253e+02	-18.9428	-61.846901	0.000233	2.331483	0.789928	0.000093
1535	1.5263e+02	-18.8850	-61.822678	0.000061	0.608213	0.206068	0.000024
1536	1.5273e+02	-18.8497	-61.774232	0.000122	1.216426	0.412136	0.000049
1537	1.5283e+02	-18.8160	-61.649081	0.000314	3.142434	1.064686	0.000126
1538	1.5293e+02	-18.7615	-61.584487	0.000162	1.621902	0.549515	0.000065
1539	1.5303e+02	-18.7310	-61.536041	0.000122	1.216426	0.412136	0.000049
1540	1.5313e+02	-18.6845	-61.483559	0.000132	1.317795	0.446481	0.000053
1541	1.5323e+02	-18.6460	-61.350333	0.000335	3.345172	1.133375	0.000134
1542	1.5333e+02	-18.6059	-61.261516	0.000223	2.230115	0.755583	0.000089
1543	1.5343e+02	-18.5722	-61.225182	0.000091	0.912320	0.309102	0.000037
1544	1.5353e+02	-18.5305	-61.148476	0.000193	1.926008	0.652549	0.000077
1545	1.5363e+02	-18.4824	-61.059659	0.000223	2.230115	0.755583	0.000089
1546	1.5373e+02	-18.4615	-60.978917	0.000203	2.027377	0.686894	0.000081
1547	1.5383e+02	-18.4118	-60.898174	0.000203	2.027377	0.686894	0.000081
1548	1.5393e+02	-18.3749	-60.813394	0.000213	2.128746	0.721239	0.000085
1549	1.5403e+02	-18.3203	-60.748800	0.000162	1.621902	0.549515	0.000065
1550	1.5413e+02	-18.2947	-60.635760	0.000284	2.838328	0.961651	0.000114
1551	1.5422e+02	-18.2481	-60.603463	0.000081	0.810951	0.274758	0.000032
1552	1.5432e+02	-18.2177	-60.530795	0.000182	1.824639	0.618205	0.000073
1553	1.5442e+02	-18.1776	-60.401606	0.000324	3.243803	1.099030	0.000130
1554	1.5452e+02	-18.1342	-60.397569	0.000010	0.101369	0.034345	0.000004
1555	1.5462e+02	-18.0957	-60.296641	0.000253	2.534221	0.858617	0.000101
1556	1.5472e+02	-18.0556	-60.211861	0.000213	2.128746	0.721239	0.000085
1557	1.5482e+02	-18.0091	-60.151304	0.000152	1.520533	0.515170	0.000061
1558	1.5492e+02	-17.9770	-60.058450	0.000233	2.331483	0.789928	0.000093
1559	1.5502e+02	-17.9385	-59.989818	0.000172	1.723270	0.583860	0.000069
1560	1.5512e+02	-17.8904	-59.852556	0.000345	3.446541	1.167720	0.000138
1561	1.5522e+02	-17.8551	-59.791999	0.000152	1.520533	0.515170	0.000061
1562	1.5532e+02	-17.8134	-59.695108	0.000243	2.432852	0.824273	0.000097
1563	1.5542e+02	-17.7765	-59.630513	0.000162	1.621902	0.549515	0.000065
1564	1.5552e+02	-17.7316	-59.586105	0.000112	1.115057	0.377792	0.000045
1565	1.5562e+02	-17.6915	-59.493251	0.000233	2.331483	0.789928	0.000093
1566	1.5572e+02	-17.6562	-59.376174	0.000294	2.939697	0.995996	0.000118
1567	1.5582e+02	-17.6209	-59.315617	0.000152	1.520533	0.515170	0.000061
1568	1.5592e+02	-17.5792	-59.279283	0.000091	0.912320	0.309102	0.000037
1569	1.5602e+02	-17.5327	-59.133946	0.000365	3.649279	1.236409	0.000146
1570	1.5612e+02	-17.5022	-59.061277	0.000182	1.824639	0.618205	0.000073
1571	1.5622e+02	-17.4605	-59.000720	0.000152	1.520533	0.515170	0.000061
1572	1.5631e+02	-17.4172	-58.944200	0.000142	1.419164	0.480826	0.000057
1573	1.5641e+02	-17.3722	-58.855383	0.000223	2.230115	0.755583	0.000089
1574	1.5651e+02	-17.3353	-58.774641	0.000203	2.027377	0.686894	0.000081
1575	1.5661e+02	-17.2936	-58.677749	0.000243	2.432852	0.824273	0.000097
1576	1.5671e+02	-17.2583	-58.568747	0.000274	2.736959	0.927307	0.000110
1577	1.5681e+02	-17.2263	-58.504153	0.000162	1.621902	0.549515	0.000065
1578	1.5691e+02	-17.1749	-58.427447	0.000193	1.926008	0.652549	0.000077
1579	1.5701e+02	-17.1412	-58.334593	0.000233	2.331483	0.789928	0.000093
1580	1.5711e+02	-17.1011	-58.205405	0.000324	3.243803	1.099030	0.000130
1581	1.5721e+02	-17.0530	-58.169070	0.000091	0.912320	0.309102	0.000037
1582	1.5731e+02	-17.0097	-58.096402	0.000182	1.824639	0.618205	0.000073
1583	1.5741e+02	-16.9824	-57.951065	0.000365	3.649279	1.236409	0.000146
1584	1.5751e+02	-16.9423	-57.874359	0.000193	1.926008	0.652549	0.000077
1585	1.5761e+02	-16.8942	-57.793617	0.000203	2.027377	0.686894	0.000081
1586	1.5771e+02	-16.8525	-57.700763	0.000233	2.331483	0.789928	0.000093
1587	1.5781e+02	-16.8172	-57.672503	0.000071	0.709582	0.240413	0.000028
1588	1.5791e+02	-16.7755	-57.527166	0.000365	3.649279	1.236409	0.000146
1589	1.5801e+02	-16.7305	-57.434312	0.000233	2.331483	0.789928	0.000093
1590	1.5811e+02	-16.6985	-57.345495	0.000223	2.230115	0.755583	0.000089
1591	1.5821e+02	-16.6600	-57.252640	0.000233	2.331483	0.789928	0.000093
1592	1.5830e+02	-16.6199	-57.200158	0.000132	1.317795	0.446481	0.000053
1593	1.5840e+02	-16.5781	-57.083081	0.000294	2.939697	0.995996	0.000118
1594	1.5850e+02	-16.5428	-57.038672	0.000112	1.115057	0.377792	0.000045
1595	1.5860e+02	-16.4915	-56.913521	0.000314	3.142434	1.064686	0.000126
1596	1.5870e+02	-16.4658	-56.804518	0.000274	2.736959	0.927307	0.000110
1597	1.5880e+02	-16.4209	-56.707627	0.000243	2.432852	0.824273	0.000097
1598	1.5890e+02	-16.3904	-56.638996	0.000172	1.723270	0.583860	0.000069
1599	1.5900e+02	-16.3375	-56.534030	0.000264	2.635590	0.892962	0.000105
1600	1.5910e+02	-16.2958	-56.473473	0.000152	1.520533	0.515170	0.000061
1601	1.5920e+02	-16.2621	-56.392731	0.000203	2.027377	0.686894	0.000081
1602	1.5930e+02	-16.2236	-56.247394	0.000365	3.649279	1.236409	0.000146
1603	1.5940e+02	-16.1787	-56.231245	0.000041	0.405475	0.137379	0.000016
1604	1.5950e+02	-16.1386	-56.098020	0.000335	3.345172	1.133375	0.000134
1605	1.5960e+02	-16.1033	-56.029388	0.000172	1.723270	0.583860	0.000069
1606	1.5970e+02	-16.0520	-55.940571	0.000223	2.230115	0.755583	0.000089
1607	1.5980e+02	-16.0135	-55.871940	0.000172	1.723270	0.583860	0.000069
1608	1.5990e+02	-15.9846	-55.738715	0.000335	3.345172	1.133375	0.000134
1609	1.6000e+02	-15.9429	-55.645860	0.000233	2.331483	0.789928	0.000093
1610	1.6010e+02	-15.9028	-55.593378	0.000132	1.317795	0.446481	0.000053
1611	1.6019e+02	-15.8643	-55.516672	0.000193	1.926008	0.652549	0.000077
1612	1.6029e+02	-15.8242	-55.367298	0.000375	3.750647	1.270754	0.000150
1613	1.6039e+02	-15.7873	-55.294630	0.000182	1.824639	0.618205	0.000073
1614	1.6049e+02	-15.7439	-55.230035	0.000162	1.621902	0.549515	0.000065
1615	1.6059e+02	-15.7086	-55.121033	0.000274	2.736959	0.927307	0.000110
1616	1.6069e+02	-15.6589	-55.028179	0.000233	2.331483	0.789928	0.000093
1617	1.6079e+02	-15.6204	-54.907065	0.000304	3.041065	1.030341	0.000122
1618	1.6089e+02	-15.5771	-54.866693	0.000101	1.013688	0.343447	0.000041
1619	1.6099e+02	-15.5450	-54.741542	0.000314	3.142434	1.064686	0.000126
1620	1.6109e+02	-15.4985	-54.656762	0.000213	2.128746	0.721239	0.000085
1621	1.6119e+02	-15.4584	-54.559871	0.000243	2.432852	0.824273	0.000097
1622	1.6129e+02	-15.4247	-54.479128	0.000203	2.027377	0.686894	0.000081
1623	1.6139e+02	-15.3862	-54.414534	0.000162	1.621902	0.549515	0.000065
1624	1.6149e+02	-15.3477	-54.285346	0.000324	3.243803	1.099030	0.000130
1625	1.6159e+02	-15.3012	-54.164232	0.000304	3.041065	1.030341	0.000122
1626	1.6169e+02	-15.2579	-54.075415	0.000223	2.230115	0.755583	0.000089
1627	1.6179e+02	-15.2210	-53.990635	0.000213	2.128746	0.721239	0.000085
1628	1.6189e+02	-15.1857	-53.897781	0.000233	2.331483	0.789928	0.000093
1629	1.6199e+02	-15.1488	-53.845298	0.000132	1.317795	0.446481	0.000053
1630	1.6209e+02	-15.1039	-53.679775	0.000416	4.156123	1.408133	0.000166
1631	1.6219e+02	-15.0654	-53.623255	0.000142	1.419164	0.480826	0.000057
1632	1.6228e+02	-15.0236	-53.522327	0.000253	2.534221	0.858617	0.000101
1633	1.6238e+02	-14.9771	-53.385064	0.000345	3.446541	1.167720	0.000138
1634	1.6248e+02	-14.9370	-53.348730	0.000091	0.912320	0.309102	0.000037
1635	1.6258e+02	-14.9033	-53.251839	0.000243	2.432852	0.824273	0.000097
1636	1.6268e+02	-14.8568	-53.187245	0.000162	1.621902	0.549515	0.000065
1637	1.6278e+02	-14.8247	-53.086316	0.000253	2.534221	0.858617	0.000101
1638	1.6288e+02	-14.7814	-52.997499	0.000223	2.230115	0.755583	0.000089
1639	1.6298e+02	-14.7445	-52.848125	0.000375	3.750647	1.270754	0.000150
1640	1.6308e+02	-14.6916	-52.755271	0.000233	2.331483	0.789928	0.000093
1641	1.6318e+02	-14.6739	-52.686640	0.000172	1.723270	0.583860	0.000069
1642	1.6328e+02	-14.6194	-52.565526	0.000304	3.041065	1.030341	0.000122
1643	1.6338e+02	-14.5873	-52.509006	0.000142	1.419164	0.480826	0.000057
1644	1.6348e+02	-14.5360	-52.383855	0.000314	3.142434	1.064686	0.000126
1645	1.6358e+02	-14.5087	-52.282926	0.000253	2.534221	0.858617	0.000101
1646	1.6368e+02	-14.4670	-52.186035	0.000243	2.432852	0.824273	0.000097
1647	1.6378e+02	-14.4253	-52.085107	0.000253	2.534221	0.858617	0.000101
1648	1.6388e+02	-14.3884	-51.996290	0.000223	2.230115	0.755583	0.000089
1649	1.6398e+02	-14.3563	-51.915547	0.000203	2.027377	0.686894	0.000081
1650	1.6408e+02	-14.3033	-51.786359	0.000324	3.243803	1.099030	0.000130
1651	1.6418e+02	-14.2680	-51.709653	0.000193	1.926008	0.652549	0.000077
1652	1.6427e+02	-14.2263	-51.616799	0.000233	2.331483	0.789928	0.000093
1653	1.6437e+02	-14.1798	-51.540093	0.000193	1.926008	0.652549	0.000077
1654	1.6447e+02	-14.1509	-51.414942	0.000314	3.142434	1.064686	0.000126
1655	1.6457e+02	-14.1028	-51.330162	0.000213	2.128746	0.721239	0.000085
1656	1.6467e+02	-14.0659	-51.196937	0.000335	3.345172	1.133375	0.000134
1657	1.6477e+02	-14.0210	-51.096008	0.000253	2.534221	0.858617	0.000101
1658	1.6487e+02	-13.9857	-51.043526	0.000132	1.317795	0.446481	0.000053
1659	1.6497e+02	-13.9440	-50.946634	0.000243	2.432852	0.824273	0.000097
1660	1.6507e+02	-13.9039	-50.825520	0.000304	3.041065	1.030341	0.000122
1661	1.6517e+02	-13.8670	-50.736703	0.000223	2.230115	0.755583	0.000089
1662	1.6527e+02	-13.8237	-50.623664	0.000284	2.838328	0.961651	0.000114
1663	1.6537e+02	-13.7836	-50.555032	0.000172	1.723270	0.583860	0.000069
1664	1.6547e+02	-13.7499	-50.454104	0.000253	2.534221	0.858617	0.000101
1665	1.6557e+02	-13.7082	-50.369324	0.000213	2.128746	0.721239	0.000085
1666	1.6567e+02	-13.6600	-50.268396	0.000253	2.534221	0.858617	0.000101
1667	1.6577e+02	-13.6247	-50.175542	0.000233	2.331483	0.789928	0.000093
1668	1.6587e+02	-13.5846	-50.090762	0.000213	2.128746	0.721239	0.000085
1669	1.6597e+02	-13.5510	-49.945425	0.000365	3.649279	1.236409	0.000146
1670	1.6607e+02	-13.5092	-49.884868	0.000152	1.520533	0.515170	0.000061
1671	1.6616e+02	-13.4772	-49.767791	0.000294	2.939697	0.995996	0.000118
1672	1.6626e+02	-13.4290	-49.674937	0.000233	2.331483	0.789928	0.000093
1673	1.6636e+02	-13.3969	-49.590157	0.000213	2.128746	0.721239	0.000085
1674	1.6646e+02	-13.3344	-49.509414	0.000203	2.027377	0.686894	0.000081
1675	1.6656e+02	-13.3071	-49.444820	0.000162	1.621902	0.549515	0.000065
1676	1.6666e+02	-13.2702	-49.315632	0.000324	3.243803	1.099030	0.000130
1677	1.6676e+02	-13.2349	-49.234889	0.000203	2.027377	0.686894	0.000081
1678	1.6686e+02	-13.1788	-49.101663	0.000335	3.345172	1.133375	0.000134
1679	1.6696e+02	-13.1451	-48.960364	0.000355	3.547910	1.202064	0.000142
1680	1.6706e+02	-13.1066	-48.899807	0.000152	1.520533	0.515170	0.000061
1681	1.6716e+02	-13.0761	-48.815027	0.000213	2.128746	0.721239	0.000085
1682	1.6726e+02	-13.0248	-48.689876	0.000314	3.142434	1.064686	0.000126
1683	1.6736e+02	-12.9863	-48.613170	0.000193	1.926008	0.652549	0.000077
1684	1.6746e+02	-12.9510	-48.528390	0.000213	2.128746	0.721239	0.000085
1685	1.6756e+02	-12.9173	-48.451685	0.000193	1.926008	0.652549	0.000077
1686	1.6766e+02	-12.8740	-48.354793	0.000243	2.432852	0.824273	0.000097
1687	1.6776e+02	-12.8435	-48.197345	0.000395	3.953385	1.339443	0.000158
1688	1.6786e+02	-12.7954	-48.140825	0.000142	1.419164	0.480826	0.000057
1689	1.6796e+02	-12.7537	-48.003562	0.000345	3.446541	1.167720	0.000138
1690	1.6806e+02	-12.7151	-47.930894	0.000182	1.824639	0.618205	0.000073
1691	1.6816e+02	-12.6783	-47.793631	0.000345	3.446541	1.167720	0.000138
1692	1.6825e+02	-12.6269	-47.700777	0.000233	2.331483	0.789928	0.000093
1693	1.6835e+02	-12.5980	-47.591775	0.000274	2.736959	0.927307	0.000110
1694	1.6845e+02	-12.5499	-47.555440	0.000091	0.912320	0.309102	0.000037
1695	1.6855e+02	-12.5050	-47.406066	0.000375	3.750647	1.270754	0.000150
1696	1.6865e+02	-12.4729	-47.309175	0.000243	2.432852	0.824273	0.000097
1697	1.6875e+02	-12.4328	-47.204210	0.000264	2.635590	0.892962	0.000105
1698	1.6885e+02	-12.3911	-47.103281	0.000253	2.534221	0.858617	0.000101
1699	1.6895e+02	-12.3526	-47.046761	0.000142	1.419164	0.480826	0.000057
1700	1.6905e+02	-12.3125	-46.901424	0.000365	3.649279	1.236409	0.000146
1701	1.6915e+02	-12.2676	-46.804533	0.000243	2.432852	0.824273	0.000097
1702	1.6925e+02	-12.2307	-46.711679	0.000233	2.331483	0.789928	0.000093
1703	1.6935e+02	-12.1954	-46.594602	0.000294	2.939697	0.995996	0.000118
1704	1.6945e+02	-12.1617	-46.530008	0.000162	1.621902	0.549515	0.000065
1705	1.6955e+02	-12.1087	-46.384671	0.000365	3.649279	1.236409	0.000146
1706	1.6965e+02	-12.0783	-46.303928	0.000203	2.027377	0.686894	0.000081
1707	1.6975e+02	-12.0382	-46.182814	0.000304	3.041065	1.030341	0.000122
1708	1.6985e+02	-11.9868	-46.065737	0.000294	2.939697	0.995996	0.000118
1709	1.6995e+02	-11.9531	-45.936549	0.000324	3.243803	1.099030	0.000130
1710	1.7005e+02	-11.9211	-45.871955	0.000162	1.621902	0.549515	0.000065
1711	1.7015e+02	-11.8793	-45.750841	0.000304	3.041065	1.030341	0.000122
1712	1.7024e+02	-11.8280	-45.601467	0.000375	3.750647	1.270754	0.000150
1713	1.7034e+02	-11.7975	-45.544947	0.000142	1.419164	0.480826	0.000057
1714	1.7044e+02	-11.7558	-45.468241	0.000193	1.926008	0.652549	0.000077
1715	1.7054e+02	-11.7141	-45.351164	0.000294	2.939697	0.995996	0.000118
1716	1.7064e+02	-11.6740	-45.213902	0.000345	3.446541	1.167720	0.000138
1717	1.7074e+02	-11.6371	-45.112973	0.000253	2.534221	0.858617	0.000101
1718	1.7084e+02	-11.6018	-45.036268	0.000193	1.926008	0.652549	0.000077
1719	1.7094e+02	-11.5553	-44.935339	0.000253	2.534221	0.858617	0.000101
1720	1.7104e+02	-11.5152	-44.830374	0.000264	2.635590	0.892962	0.000105
1721	1.7114e+02	-11.4815	-44.717334	0.000284	2.838328	0.961651	0.000114
1722	1.7124e+02	-11.4302	-44.600257	0.000294	2.939697	0.995996	0.000118
1723	1.7134e+02	-11.3868	-44.503366	0.000243	2.432852	0.824273	0.000097
1724	1.7144e+02	-11.3612	-44.382252	0.000304	3.041065	1.030341	0.000122
1725	1.7154e+02	-11.3179	-44.289398	0.000233	2.331483	0.789928	0.000093
1726	1.7164e+02	-11.2874	-44.188469	0.000253	2.534221	0.858617	0.000101
1727	1.7174e+02	-11.2409	-44.071392	0.000294	2.939697	0.995996	0.000118
1728	1.7184e+02	-11.1943	-43.974501	0.000243	2.432852	0.824273	0.000097
1729	1.7194e+02	-11.1590	-43.837238	0.000345	3.446541	1.167720	0.000138
1730	1.7204e+02	-11.1141	-43.732273	0.000264	2.635590	0.892962	0.000105
1731	1.7213e+02	-11.0724	-43.655567	0.000193	1.926008	0.652549	0.000077
1732	1.7223e+02	-11.0371	-43.550602	0.000264	2.635590	0.892962	0.000105
1733	1.7233e+02	-11.0018	-43.457748	0.000233	2.331483	0.789928	0.000093
1734	1.7243e+02	-10.9601	-43.296262	0.000405	4.054754	1.373788	0.000162
1735	1.7253e+02	-10.9152	-43.219557	0.000193	1.926008	0.652549	0.000077
1736	1.7263e+02	-10.8831	-43.106517	0.000284	2.838328	0.961651	0.000114
1737	1.7273e+02	-10.8366	-42.969254	0.000345	3.446541	1.167720	0.000138
1738	1.7283e+02	-10.8077	-42.880437	0.000223	2.230115	0.755583	0.000089
1739	1.7293e+02	-10.7596	-42.763360	0.000294	2.939697	0.995996	0.000118
1740	1.7303e+02	-10.7211	-42.646283	0.000294	2.939697	0.995996	0.000118
1741	1.7313e+02	-10.6778	-42.561504	0.000213	2.128746	0.721239	0.000085
1742	1.7323e+02	-10.6441	-42.424241	0.000345	3.446541	1.167720	0.000138
1743	1.7333e+02	-10.5992	-42.339461	0.000213	2.128746	0.721239	0.000085
1744	1.7343e+02	-10.5687	-42.206236	0.000335	3.345172	1.133375	0.000134
1745	1.7353e+02	-10.5190	-42.093196	0.000284	2.838328	0.961651	0.000114
1746	1.7363e+02	-10.4740	-42.040713	0.000132	1.317795	0.446481	0.000053
1747	1.7373e+02	-10.4355	-41.879228	0.000405	4.054754	1.373788	0.000162
1748	1.7383e+02	-10.4067	-41.717742	0.000405	4.054754	1.373788	0.000162
1749	1.7393e+02	-10.3569	-41.669297	0.000122	1.216426	0.412136	0.000049
1750	1.7403e+02	-10.3264	-41.552220	0.000294	2.939697	0.995996	0.000118
1751	1.7413e+02	-10.2815	-41.455328	0.000243	2.432852	0.824273	0.000097
1752	1.7422e+02	-10.2478	-41.326140	0.000324	3.243803	1.099030	0.000130
1753	1.7432e+02	-10.2013	-41.221174	0.000264	2.635590	0.892962	0.000105
1754	1.7442e+02	-10.1660	-41.075838	0.000365	3.649279	1.236409	0.000146
1755	1.7452e+02	-10.1339	-41.011243	0.000162	1.621902	0.549515	0.000065
1756	1.7462e+02	-10.0794	-40.825535	0.000466	4.662967	1.579856	0.000187
1757	1.7472e+02	-10.0393	-40.760941	0.000162	1.621902	0.549515	0.000065
1758	1.7482e+02	-10.0056	-40.627715	0.000335	3.345172	1.133375	0.000134
1759	1.7492e+02	-9.9623	-40.498527	0.000324	3.243803	1.099030	0.000130
1760	1.7502e+02	-9.9254	-40.401636	0.000243	2.432852	0.824273	0.000097
1761	1.7512e+02	-9.8901	-40.280522	0.000304	3.041065	1.030341	0.000122
1762	1.7522e+02	-9.8436	-40.147296	0.000335	3.345172	1.133375	0.000134
1763	1.7532e+02	-9.8099	-39.993885	0.000385	3.852016	1.305098	0.000154
1764	1.7542e+02	-9.7698	-39.933328	0.000152	1.520533	0.515170	0.000061
1765	1.7552e+02	-9.7152	-39.800103	0.000335	3.345172	1.133375	0.000134
1766	1.7562e+02	-9.6848	-39.691100	0.000274	2.736959	0.927307	0.000110
1767	1.7572e+02	-9.6398	-39.578060	0.000284	2.838328	0.961651	0.000114
1768	1.7582e+02	-9.6013	-39.473095	0.000264	2.635590	0.892962	0.000105
1769	1.7592e+02	-9.5660	-39.347943	0.000314	3.142434	1.064686	0.000126
1770	1.7602e+02	-9.5227	-39.206644	0.000355	3.547910	1.202064	0.000142
1771	1.7612e+02	-9.4890	-39.129938	0.000193	1.926008	0.652549	0.000077
1772	1.7621e+02	-9.4505	-38.984601	0.000365	3.649279	1.236409	0.000146
1773	1.7631e+02	-9.4040	-38.851376	0.000335	3.345172	1.133375	0.000134
1774	1.7641e+02	-9.3591	-38.758522	0.000233	2.331483	0.789928	0.000093
1775	1.7651e+02	-9.3270	-38.645482	0.000284	2.838328	0.961651	0.000114
1776	1.7661e+02	-9.2933	-38.524368	0.000304	3.041065	1.030341	0.000122
1777	1.7671e+02	-9.2452	-38.403254	0.000304	3.041065	1.030341	0.000122
1778	1.7681e+02	-9.2163	-38.298288	0.000264	2.635590	0.892962	0.000105
1779	1.7691e+02	-9.1682	-38.161026	0.000345	3.446541	1.167720	0.000138
1780	1.7701e+02	-9.1313	-38.039911	0.000304	3.041065	1.030341	0.000122
1781	1.7711e+02	-9.0848	-37.963206	0.000193	1.926008	0.652549	0.000077
1782	1.7721e+02	-9.0511	-37.817869	0.000365	3.649279	1.236409	0.000146
1783	1.7731e+02	-9.0062	-37.704829	0.000284	2.838328	0.961651	0.000114
1784	1.7741e+02	-8.9645	-37.599864	0.000264	2.635590	0.892962	0.000105
1785	1.7751e+02	-8.9227	-37.470675	0.000324	3.243803	1.099030	0.000130
1786	1.7761e+02	-8.8874	-37.293041	0.000446	4.460229	1.511167	0.000179
1787	1.7771e+02	-8.8457	-37.224410	0.000172	1.723270	0.583860	0.000069
1788	1.7781e+02	-8.8040	-37.091185	0.000335	3.345172	1.133375	0.000134
1789	1.7791e+02	-8.7671	-36.974108	0.000294	2.939697	0.995996	0.000118
1790	1.7801e+02	-8.7367	-36.840882	0.000335	3.345172	1.133375	0.000134
1791	1.7810e+02	-8.6853	-36.752065	0.000223	2.230115	0.755583	0.000089
1792	1.7820e+02	-8.6468	-36.606728	0.000365	3.649279	1.236409	0.000146
1793	1.7830e+02	-8.6115	-36.489651	0.000294	2.939697	0.995996	0.000118
1794	1.7840e+02	-8.5682	-36.416983	0.000182	1.824639	0.618205	0.000073
1795	1.7850e+02	-8.5217	-36.259535	0.000395	3.953385	1.339443	0.000158
1796	1.7860e+02	-8.4880	-36.122272	0.000345	3.446541	1.167720	0.000138
1797	1.7870e+02	-8.4543	-36.029418	0.000233	2.331483	0.789928	0.000093
1798	1.7880e+02	-8.4126	-35.867932	0.000405	4.054754	1.373788	0.000162
1799	1.7890e+02	-8.3693	-35.803338	0.000162	1.621902	0.549515	0.000065
1800	1.7900e+02	-8.3356	-35.621667	0.000456	4.561598	1.545511	0.000183
1801	1.7910e+02	-8.2827	-35.553036	0.000172	1.723270	0.583860	0.000069
1802	1.7920e+02	-8.2442	-35.427885	0.000314	3.142434	1.064686	0.000126
1803	1.7930e+02	-8.2153	-35.254288	0.000436	4.358860	1.476822	0.000174
1804	1.7940e+02	-8.1688	-35.161434	0.000233	2.331483	0.789928	0.000093
1805	1.7950e+02	-8.1270	-35.080691	0.000203	2.027377	0.686894	0.000081
1806	1.7960e+02	-8.0934	-34.955540	0.000314	3.142434	1.064686	0.000126
1807	1.7970e+02	-8.0532	-34.785980	0.000426	4.257492	1.442477	0.000170
1808	1.7980e+02	-8.0147	-34.697163	0.000223	2.230115	0.755583	0.000089
1809	1.7990e+02	-7.9746	-34.563938	0.000335	3.345172	1.133375	0.000134
1810	1.8000e+02	-7.9281	-34.446861	0.000294	2.939697	0.995996	0.000118
1811	1.8009e+02	-7.8864	-34.293450	0.000385	3.852016	1.305098	0.000154
1812	1.8019e+02	-7.8463	-34.192521	0.000253	2.534221	0.858617	0.000101
1813	1.8029e+02	-7.8142	-34.035073	0.000395	3.953385	1.339443	0.000158
1814	1.8039e+02	-7.7661	-33.926070	0.000274	2.736959	0.927307	0.000110
1815	1.8049e+02	-7.7244	-33.821105	0.000264	2.635590	0.892962	0.000105
1816	1.8059e+02	-7.6939	-33.716139	0.000264	2.635590	0.892962	0.000105
1817	1.8069e+02	-7.6554	-33.522357	0.000487	4.865705	1.648545	0.000195
1818	1.8079e+02	-7.6185	-33.429502	0.000233	2.331483	0.789928	0.000093
1819	1.8089e+02	-7.5784	-33.288203	0.000355	3.547910	1.202064	0.000142
1820	1.8099e+02	-7.5271	-33.187274	0.000253	2.534221	0.858617	0.000101
1821	1.8109e+02	-7.4950	-33.041937	0.000365	3.649279	1.236409	0.000146
1822	1.8119e+02	-7.4581	-32.884489	0.000395	3.953385	1.339443	0.000158
1823	1.8129e+02	-7.4051	-32.767412	0.000294	2.939697	0.995996	0.000118
1824	1.8139e+02	-7.3747	-32.662447	0.000264	2.635590	0.892962	0.000105
1825	1.8149e+02	-7.3410	-32.557481	0.000264	2.635590	0.892962	0.000105
1826	1.8159e+02	-7.2944	-32.416181	0.000355	3.547910	1.202064	0.000142
1827	1.8169e+02	-7.2511	-32.282956	0.000335	3.345172	1.133375	0.000134
1828	1.8179e+02	-7.2158	-32.121470	0.000405	4.054754	1.373788	0.000162
1829	1.8189e+02	-7.1709	-32.024579	0.000243	2.432852	0.824273	0.000097
1830	1.8199e+02	-7.1276	-31.899428	0.000314	3.142434	1.064686	0.000126
1831	1.8209e+02	-7.0955	-31.778314	0.000304	3.041065	1.030341	0.000122
1832	1.8218e+02	-7.0570	-31.653163	0.000314	3.142434	1.064686	0.000126
1833	1.8228e+02	-7.0217	-31.528012	0.000314	3.142434	1.064686	0.000126
1834	1.8238e+02	-6.9832	-31.374600	0.000385	3.852016	1.305098	0.000154
1835	1.8248e+02	-6.9191	-31.285783	0.000223	2.230115	0.755583	0.000089
1836	1.8258e+02	-6.8854	-31.180818	0.000264	2.635590	0.892962	0.000105
1837	1.8268e+02	-6.8581	-31.011258	0.000426	4.257492	1.442477	0.000170
1838	1.8278e+02	-6.8212	-30.914367	0.000243	2.432852	0.824273	0.000097
1839	1.8288e+02	-6.7731	-30.756919	0.000395	3.953385	1.339443	0.000158
1840	1.8298e+02	-6.7362	-30.623693	0.000335	3.345172	1.133375	0.000134
1841	1.8308e+02	-6.6945	-30.490468	0.000335	3.345172	1.133375	0.000134
1842	1.8318e+02	-6.6511	-30.397614	0.000233	2.331483	0.789928	0.000093
1843	1.8328e+02	-6.6078	-30.244202	0.000385	3.852016	1.305098	0.000154
1844	1.8338e+02	-6.5758	-30.110977	0.000335	3.345172	1.133375	0.000134
1845	1.8348e+02	-6.5324	-29.977751	0.000335	3.345172	1.133375	0.000134
1846	1.8358e+02	-6.4923	-29.864712	0.000284	2.838328	0.961651	0.000114
1847	1.8368e+02	-6.4522	-29.747635	0.000294	2.939697	0.995996	0.000118
1848	1.8378e+02	-6.4153	-29.610372	0.000345	3.446541	1.167720	0.000138
1849	1.8388e+02	-6.3784	-29.493295	0.000294	2.939697	0.995996	0.000118
1850	1.8398e+02	-6.3479	-29.356033	0.000345	3.446541	1.167720	0.000138
1851	1.8407e+02	-6.3078	-29.210696	0.000365	3.649279	1.236409	0.000146
1852	1.8417e+02	-6.2565	-29.129953	0.000203	2.027377	0.686894	0.000081
1853	1.8427e+02	-6.2100	-28.988653	0.000355	3.547910	1.202064	0.000142
1854	1.8437e+02	-6.1779	-28.806982	0.000456	4.561598	1.545511	0.000183
1855	1.8447e+02	-6.1346	-28.669719	0.000345	3.446541	1.167720	0.000138
1856	1.8457e+02	-6.1025	-28.540531	0.000324	3.243803	1.099030	0.000130
1857	1.8467e+02	-6.0624	-28.451714	0.000223	2.230115	0.755583	0.000089
1858	1.8477e+02	-6.0095	-28.310414	0.000355	3.547910	1.202064	0.000142
1859	1.8487e+02	-5.9822	-28.181226	0.000324	3.243803	1.099030	0.000130
1860	1.8497e+02	-5.9421	-28.035889	0.000365	3.649279	1.236409	0.000146
1861	1.8507e+02	-5.8972	-27.910738	0.000314	3.142434	1.064686	0.000126
1862	1.8517e+02	-5.8619	-27.801735	0.000274	2.736959	0.927307	0.000110
1863	1.8527e+02	-5.8218	-27.660436	0.000355	3.547910	1.202064	0.000142
1864	1.8537e+02	-5.7801	-27.466653	0.000487	4.865705	1.648545	0.000195
1865	1.8547e+02	-5.7480	-27.365725	0.000253	2.534221	0.858617	0.000101
1866	1.8557e+02	-5.7030	-27.232499	0.000335	3.345172	1.133375	0.000134
1867	1.8567e+02	-5.6581	-27.099274	0.000335	3.345172	1.133375	0.000134
1868	1.8577e+02	-5.6228	-26.953937	0.000365	3.649279	1.236409	0.000146
1869	1.8587e+02	-5.5908	-26.812637	0.000355	3.547910	1.202064	0.000142
1870	1.8597e+02	-5.5394	-26.715746	0.000243	2.432852	0.824273	0.000097
1871	1.8606e+02	-5.5057	-26.550223	0.000416	4.156123	1.408133	0.000166
1872	1.8616e+02	-5.4608	-26.421035	0.000324	3.243803	1.099030	0.000130
1873	1.8626e+02	-5.4335	-26.259549	0.000405	4.054754	1.373788	0.000162
1874	1.8636e+02	-5.3854	-26.170732	0.000223	2.230115	0.755583	0.000089
1875	1.8646e+02	-5.3437	-26.005210	0.000416	4.156123	1.408133	0.000166
1876	1.8656e+02	-5.3068	-25.876022	0.000324	3.243803	1.099030	0.000130
1877	1.8666e+02	-5.2571	-25.730685	0.000365	3.649279	1.236409	0.000146
1878	1.8676e+02	-5.2250	-25.601496	0.000324	3.243803	1.099030	0.000130
1879	1.8686e+02	-5.1785	-25.440011	0.000405	4.054754	1.373788	0.000162
1880	1.8696e+02	-5.1448	-25.310823	0.000324	3.243803	1.099030	0.000130
1881	1.8706e+02	-5.0999	-25.173560	0.000345	3.446541	1.167720	0.000138
1882	1.8716e+02	-5.0598	-25.024186	0.000375	3.750647	1.270754	0.000150
1883	1.8726e+02	-5.0245	-24.878849	0.000365	3.649279	1.236409	0.000146
1884	1.8736e+02	-4.9844	-24.765809	0.000284	2.838328	0.961651	0.000114
1885	1.8746e+02	-4.9491	-24.608361	0.000395	3.953385	1.339443	0.000158
1886	1.8756e+02	-4.8977	-24.463024	0.000365	3.649279	1.236409	0.000146
1887	1.8766e+02	-4.8672	-24.370170	0.000233	2.331483	0.789928	0.000093
1888	1.8776e+02	-4.8207	-24.216759	0.000385	3.852016	1.305098	0.000154
1889	1.8786e+02	-4.7951	-24.063348	0.000385	3.852016	1.305098	0.000154
1890	1.8796e+02	-4.7389	-23.922048	0.000355	3.547910	1.202064	0.000142
1891	1.8806e+02	-4.7004	-23.756525	0.000416	4.156123	1.408133	0.000166
1892	1.8815e+02	-4.6667	-23.655597	0.000253	2.534221	0.858617	0.000101
1893	1.8825e+02	-4.6234	-23.510260	0.000365	3.649279	1.236409	0.000146
1894	1.8835e+02	-4.5785	-23.340700	0.000426	4.257492	1.442477	0.000170
1895	1.8845e+02	-4.5448	-23.235735	0.000264	2.635590	0.892962	0.000105
1896	1.8855e+02	-4.5063	-23.082324	0.000385	3.852016	1.305098	0.000154
1897	1.8865e+02	-4.4630	-22.949098	0.000335	3.345172	1.133375	0.000134
1898	1.8875e+02	-4.4213	-22.791650	0.000395	3.953385	1.339443	0.000158
1899	1.8885e+02	-4.3844	-22.638239	0.000385	3.852016	1.305098	0.000154
1900	1.8895e+02	-4.3555	-22.500976	0.000345	3.446541	1.167720	0.000138
1901	1.8905e+02	-4.3074	-22.375825	0.000314	3.142434	1.064686	0.000126
1902	1.8915e+02	-4.2624	-22.173968	0.000507	5.068442	1.717235	0.000203
1903	1.8925e+02	-4.2272	-22.077077	0.000243	2.432852	0.824273	0.000097
1904	1.8935e+02	-4.1887	-21.923666	0.000385	3.852016	1.305098	0.000154
1905	1.8945e+02	-4.1357	-21.782366	0.000355	3.547910	1.202064	0.000142
1906	1.8955e+02	-4.1133	-21.628955	0.000385	3.852016	1.305098	0.000154
1907	1.8965e+02	-4.0635	-21.491692	0.000345	3.446541	1.167720	0.000138
1908	1.8975e+02	-4.0202	-21.346355	0.000365	3.649279	1.236409	0.000146
1909	1.8985e+02	-3.9801	-21.184870	0.000405	4.054754	1.373788	0.000162
1910	1.8995e+02	-3.9416	-21.063756	0.000304	3.041065	1.030341	0.000122
1911	1.9004e+02	-3.9031	-20.878047	0.000466	4.662967	1.579856	0.000187
1912	1.9014e+02	-3.8534	-20.736748	0.000355	3.547910	1.202064	0.000142
1913	1.9024e+02	-3.8261	-20.623708	0.000284	2.838328	0.961651	0.000114
1914	1.9034e+02	-3.7844	-20.482408	0.000355	3.547910	1.202064	0.000142
1915	1.9044e+02	-3.7491	-20.324960	0.000395	3.953385	1.339443	0.000158
1916	1.9054e+02	-3.6945	-20.167512	0.000395	3.953385	1.339443	0.000158
1917	1.9064e+02	-3.6705	-20.001989	0.000416	4.156123	1.408133	0.000166
1918	1.9074e+02	-3.6352	-19.844541	0.000395	3.953385	1.339443	0.000158
1919	1.9084e+02	-3.5935	-19.719390	0.000314	3.142434	1.064686	0.000126
1920	1.9094e+02	-3.5389	-19.529644	0.000476	4.764336	1.614201	0.000191
1921	1.9104e+02	-3.5036	-19.408530	0.000304	3.041065	1.030341	0.000122
1922	1.9114e+02	-3.4732	-19.226859	0.000456	4.561598	1.545511	0.000183
1923	1.9124e+02	-3.4298	-19.105745	0.000304	3.041065	1.030341	0.000122
1924	1.9134e+02	-3.3849	-18.903888	0.000507	5.068442	1.717235	0.000203
1925	1.9144e+02	-3.3545	-18.794885	0.000274	2.736959	0.927307	0.000110
1926	1.9154e+02	-3.3095	-18.597066	0.000497	4.967074	1.682890	0.000199
1927	1.9164e+02	-3.2710	-18.439617	0.000395	3.953385	1.339443	0.000158
1928	1.9174e+02	-3.2261	-18.318503	0.000304	3.041065	1.030341	0.000122
1929	1.9184e+02	-3.1860	-18.112609	0.000517	5.169811	1.751579	0.000207
1930	1.9194e+02	-3.1507	-17.995533	0.000294	2.939697	0.995996	0.000118
1931	1.9203e+02	-3.1122	-17.854233	0.000355	3.547910	1.202064	0.000142
1932	1.9213e+02	-3.0721	-17.688710	0.000416	4.156123	1.408133	0.000166
1933	1.9223e+02	-3.0384	-17.531262	0.000395	3.953385	1.339443	0.000158
1934	1.9233e+02	-2.9903	-17.381888	0.000375	3.750647	1.270754	0.000150
1935	1.9243e+02	-2.9534	-17.240588	0.000355	3.547910	1.202064	0.000142
1936	1.9253e+02	-2.9053	-17.111400	0.000324	3.243803	1.099030	0.000130
1937	1.9263e+02	-2.8764	-16.889357	0.000558	5.575287	1.888958	0.000223
1938	1.9273e+02	-2.8395	-16.739983	0.000375	3.750647	1.270754	0.000150
1939	1.9283e+02	-2.7930	-16.622906	0.000294	2.939697	0.995996	0.000118
1940	1.9293e+02	-2.7513	-16.453347	0.000426	4.257492	1.442477	0.000170
1941	1.9303e+02	-2.7192	-16.271676	0.000456	4.561598	1.545511	0.000183
1942	1.9313e+02	-2.6743	-16.138450	0.000335	3.345172	1.133375	0.000134
1943	1.9323e+02	-2.6374	-15.981002	0.000395	3.953385	1.339443	0.000158
1944	1.9333e+02	-2.5940	-15.815479	0.000416	4.156123	1.408133	0.000166
1945	1.9343e+02	-2.5523	-15.662068	0.000385	3.852016	1.305098	0.000154
1946	1.9353e+02	-2.5170	-15.464248	0.000497	4.967074	1.682890	0.000199
1947	1.9363e+02	-2.4721	-15.343134	0.000304	3.041065	1.030341	0.000122
1948	1.9373e+02	-2.4336	-15.169538	0.000436	4.358860	1.476822	0.000174
1949	1.9383e+02	-2.3999	-15.036312	0.000335	3.345172	1.133375	0.000134
1950	1.9393e+02	-2.3534	-14.862715	0.000436	4.358860	1.476822	0.000174
1951	1.9403e+02	-2.3229	-14.701230	0.000405	4.054754	1.373788	0.000162
1952	1.9412e+02	-2.2700	-14.511484	0.000476	4.764336	1.614201	0.000191
1953	1.9422e+02	-2.2363	-14.386333	0.000314	3.142434	1.064686	0.000126
1954	1.9432e+02	-2.2010	-14.261182	0.000314	3.142434	1.064686	0.000126
1955	1.9442e+02	-2.1513	-14.071437	0.000476	4.764336	1.614201	0.000191
1956	1.9452e+02	-2.1128	-13.873617	0.000497	4.967074	1.682890	0.000199
1957	1.9462e+02	-2.0711	-13.724243	0.000375	3.750647	1.270754	0.000150
1958	1.9472e+02	-2.0374	-13.558720	0.000416	4.156123	1.408133	0.000166
1959	1.9482e+02	-1.9909	-13.397235	0.000405	4.054754	1.373788	0.000162
1960	1.9492e+02	-1.9588	-13.183267	0.000537	5.372549	1.820269	0.000215
1961	1.9502e+02	-1.9122	-13.074264	0.000274	2.736959	0.927307	0.000110
1962	1.9512e+02	-1.8721	-12.932964	0.000355	3.547910	1.202064	0.000142
1963	1.9522e+02	-1.8352	-12.775516	0.000395	3.953385	1.339443	0.000158
1964	1.9532e+02	-1.7951	-12.569622	0.000517	5.169811	1.751579	0.000207
1965	1.9542e+02	-1.7614	-12.444471	0.000314	3.142434	1.064686	0.000126
1966	1.9552e+02	-1.7149	-12.282985	0.000405	4.054754	1.373788	0.000162
1967	1.9562e+02	-1.6812	-12.117463	0.000416	4.156123	1.408133	0.000166
1968	1.9572e+02	-1.6331	-11.939829	0.000446	4.460229	1.511167	0.000179
1969	1.9582e+02	-1.5882	-11.754121	0.000466	4.662967	1.579856	0.000187
1970	1.9592e+02	-1.5529	-11.624932	0.000324	3.243803	1.099030	0.000130
1971	1.9601e+02	-1.5240	-11.479595	0.000365	3.649279	1.236409	0.000146
1972	1.9611e+02	-1.4791	-11.289850	0.000476	4.764336	1.614201	0.000191
1973	1.9621e+02	-1.4422	-11.136439	0.000385	3.852016	1.305098	0.000154
1974	1.9631e+02	-1.3941	-10.958805	0.000446	4.460229	1.511167	0.000179
1975	1.9641e+02	-1.3716	-10.793282	0.000416	4.156123	1.408133	0.000166
1976	1.9651e+02	-1.3171	-10.631797	0.000405	4.054754	1.373788	0.000162
1977	1.9661e+02	-1.2770	-10.446089	0.000466	4.662967	1.579856	0.000187
1978	1.9671e+02	-1.2369	-10.280566	0.000416	4.156123	1.408133	0.000166
1979	1.9681e+02	-1.2016	-10.123118	0.000395	3.953385	1.339443	0.000158
1980	1.9691e+02	-1.1502	-9.965670	0.000395	3.953385	1.339443	0.000158
1981	1.9701e+02	-1.1133	-9.771887	0.000487	4.865705	1.648545	0.000195
1982	1.9711e+02	-1.0700	-9.634624	0.000345	3.446541	1.167720	0.000138
1983	1.9721e+02	-1.0411	-9.481213	0.000385	3.852016	1.305098	0.000154
1984	1.9731e+02	-1.0010	-9.291468	0.000476	4.764336	1.614201	0.000191
1985	1.9741e+02	-0.9609	-9.150168	0.000355	3.547910	1.202064	0.000142
1986	1.9751e+02	-0.9128	-8.948311	0.000507	5.068442	1.717235	0.000203
1987	1.9761e+02	-0.8823	-8.758566	0.000476	4.764336	1.614201	0.000191
1988	1.9771e+02	-0.8390	-8.613229	0.000365	3.649279	1.236409	0.000146
1989	1.9781e+02	-0.7925	-8.431558	0.000456	4.561598	1.545511	0.000183
1990	1.9791e+02	-0.7684	-8.294295	0.000345	3.446541	1.167720	0.000138
1991	1.9800e+02	-0.7219	-8.104550	0.000476	4.764336	1.614201	0.000191
1992	1.9810e+02	-0.6898	-7.963250	0.000355	3.547910	1.202064	0.000142
1993	1.9820e+02	-0.6401	-7.781579	0.000456	4.561598	1.545511	0.000183
1994	1.9830e+02	-0.5968	-7.603945	0.000446	4.460229	1.511167	0.000179
1995	1.9840e+02	-0.5647	-7.426311	0.000446	4.460229	1.511167	0.000179
1996	1.9850e+02	-0.5230	-7.297123	0.000324	3.243803	1.099030	0.000130
1997	1.9860e+02	-0.4732	-7.147749	0.000375	3.750647	1.270754	0.000150
1998	1.9870e+02	-0.4347	-6.945892	0.000507	5.068442	1.717235	0.000203
1999	1.9880e+02	-0.4027	-6.796518	0.000375	3.750647	1.270754	0.000150
2000	1.9890e+02	-0.3610	-6.610810	0.000466	4.662967	1.579856	0.000187
2001	1.9900e+02	-0.3208	-6.437213	0.000436	4.358860	1.476822	0.000174
2002	1.9910e+02	-0.2888	-6.283802	0.000385	3.852016	1.305098	0.000154
2003	1.9920e+02	-0.2471	-6.114242	0.000426	4.257492	1.442477	0.000170
2004	1.9930e+02	-0.2005	-5.940645	0.000436	4.358860	1.476822	0.000174
2005	1.9940e+02	-0.1604	-5.791271	0.000375	3.750647	1.270754	0.000150
2006	1.9950e+02	-0.1187	-5.641897	0.000375	3.750647	1.270754	0.000150
2007	1.9960e+02	-0.0882	-5.440040	0.000507	5.068442	1.717235	0.000203
2008	1.9970e+02	-0.0401	-5.266444	0.000436	4.358860	1.476822	0.000174
2009	1.9980e+02	-0.0064	-5.113032	0.000436	4.358860	1.476822	0.000154

Center data before PMax,+/-Pr and +/-Vc Calc.

PMax (uC/cm2):	6.35e+01
Pr (uC/cm2):	2.32e+00
-Pr (uC/cm2):	-5.11e+00
PLoss (uC/cm2):	2.90e+00
Vc:	2.00e+00
-Vc:	-5.31e-01
C (Max-Eff) (nF):	3.18e-01
K (Eff):	1.08e+03
Vert. (+/-Pr) Shift (uC/cm2):	-1.39e+00
Horiz. Shift (+/-Vc):	7.36e-01
Offset (uC/cm2):	7.99e+00

A (Loop Area - uC/cm2·Volts):	-2.00e-01



Hysteresis Version: 5.48.1 - Radiant Technologies, Inc., 1999 - 9/12/24

