»»»»»»»»»»»»»»»»»»»»»»»»»»»»»»»»»»»» Hysteresis ««««««««««««««««««««««««««««««««««««
»»»  Executed Version:	5.48.1
»»»  Vision Version:	5.48.4 (R)
»»»  Vision Compiled:	9/18/24
»»»  Driver Version:	5.47.0
»»»  Windows Version:	Windows 8 or 8.1
»»»  Processor Information:	x86 (AMD or Intel) - 32 Processors
»»»  Tester Name:	PMF21124-494 (100V)
»»»  Tester S/N:	PMF21124-494
»»»  Internal Amp Type:	100V RevK 270k
»»»  Internal Amp S/N:	iAB2-596/K     
»»»  Execution Count:	1
»»»»»»»»»»»»»»»»»»»»»»»»»»»»»»»»»»»»»»»»»»««««««««««««««««««««««««««««««««««««««««««

Stored:	6/13/2025 - 16:20:35
Configured:	06/13/25 01:30:53 PM
Executed:	06/13/25 04:20:01 PM

»»»»»»»»»»»»»»»»»»»»»»»»»»»»»»»»»»» Sample Info ««««««««««««««««««««««««««««««««««««
Sample Name:	
Lot Name:	
Wafer Name:	
Die Row/Column:	0/0
Capacitor Number:	0
Sample Area (cm2):	1.00e-04
Sample Thickness (microns):	3.00e-01

Amplifier:	Internal

»»»»»»»»»»»»»»»»»»»»»»»»»»»»»»»»»»» Tester Info «««««««««««««««««««««««««««««««««««
Tester Name:	PMF21124-494 (100V)
Tester Serial Number:	PMF21124-494
Return Signal Amp. Level:	0.19 [Index: 3]

»»»»»»»»»»»»»»»»»»»»»»»»»»»»»»»» Hysteresis Info ««««««««««««««««««««««««««««««««««
Task Name:	Hyst-1922
Volts:	20.00
Field:	666.67 (kV/cm)
DCBias:	0.00
DCField:	0.00 (kV/cm)
Hysteresis Period (ms):	2.00e+02
Preset:	Enabled
Preset Delay (ms):	1.00e+03
Profile:	Standard Bipolar

»»»»»»»»»»»»»»»»»»»»»»»»»»»»»»»»»»»»»» Data «««««««««««««««««««««««««««««««««««««««
Points:	2009

Valid Data

Point	Time (ms)	Drive Voltage	Measured Polarization (uC/cm2)	Capacitance (uF)	Normalized Capacitance (uF/cm2)	Dielectric Constant	Instantaneous Current (mA)
   1	0.0000e+00	-0.0016	-3.833260	0.000061	0.608140	0.206043	0.000024
   2	9.9500e-02	0.0305	-3.809038	0.000061	0.608140	0.206043	0.000024
   3	1.9900e-01	0.0626	-3.784815	0.000061	0.608140	0.206043	0.000024
   4	2.9850e-01	0.1059	-3.712146	0.000182	1.824420	0.618130	0.000073
   5	3.9800e-01	0.1556	-3.591032	0.000304	3.040699	1.030217	0.000122
   6	4.9750e-01	0.1909	-3.486067	0.000264	2.635273	0.892855	0.000105
   7	5.9700e-01	0.2390	-3.352841	0.000334	3.344769	1.133239	0.000134
   8	6.9650e-01	0.2743	-3.239801	0.000284	2.837986	0.961536	0.000114
   9	7.9600e-01	0.3176	-3.074279	0.000416	4.155623	1.407963	0.000166
  10	8.9550e-01	0.3545	-2.941053	0.000334	3.344769	1.133239	0.000134
  11	9.9500e-01	0.3866	-2.783605	0.000395	3.952909	1.339282	0.000158
  12	1.0945e+00	0.4315	-2.589823	0.000487	4.865119	1.648347	0.000195
  13	1.1940e+00	0.4732	-2.416226	0.000436	4.358336	1.476644	0.000174
  14	1.2935e+00	0.5118	-2.214369	0.000507	5.067832	1.717028	0.000203
  15	1.3930e+00	0.5519	-2.024624	0.000476	4.763762	1.614006	0.000191
  16	1.4925e+00	0.5871	-1.822767	0.000507	5.067832	1.717028	0.000203
  17	1.5920e+00	0.6305	-1.628984	0.000487	4.865119	1.648347	0.000195
  18	1.6915e+00	0.6593	-1.415016	0.000537	5.371902	1.820050	0.000215
  19	1.7910e+00	0.7155	-1.225271	0.000476	4.763762	1.614006	0.000191
  20	1.8905e+00	0.7508	-1.007265	0.000547	5.473259	1.854390	0.000219
  21	1.9900e+00	0.7925	-0.785223	0.000557	5.574616	1.888731	0.000223
  22	2.0895e+00	0.8246	-0.627775	0.000395	3.952909	1.339282	0.000158
  23	2.1890e+00	0.8791	-0.381509	0.000618	6.182756	2.094774	0.000248
  24	2.2885e+00	0.9144	-0.203875	0.000446	4.459693	1.510985	0.000179
  25	2.3880e+00	0.9481	-0.038353	0.000416	4.155623	1.407963	0.000166
  26	2.4875e+00	0.9946	0.179653	0.000547	5.473259	1.854390	0.000219
  27	2.5870e+00	1.0331	0.345175	0.000416	4.155623	1.407963	0.000166
  28	2.6865e+00	1.0716	0.518772	0.000436	4.358336	1.476644	0.000174
  29	2.7860e+00	1.1069	0.761000	0.000608	6.081399	2.060434	0.000243
  30	2.8855e+00	1.1534	0.950745	0.000476	4.763762	1.614006	0.000191
  31	2.9850e+00	1.1887	1.184899	0.000588	5.878686	1.991753	0.000235
  32	3.0845e+00	1.2208	1.358496	0.000436	4.358336	1.476644	0.000174
  33	3.1840e+00	1.2722	1.596687	0.000598	5.980042	2.026093	0.000239
  34	3.2835e+00	1.3074	1.822767	0.000568	5.675972	1.923071	0.000227
  35	3.3830e+00	1.3508	2.069032	0.000618	6.182756	2.094774	0.000248
  36	3.4825e+00	1.3925	2.283000	0.000537	5.371902	1.820050	0.000215
  37	3.5820e+00	1.4294	2.521191	0.000598	5.980042	2.026093	0.000239
  38	3.6815e+00	1.4791	2.710937	0.000476	4.763762	1.614006	0.000191
  39	3.7810e+00	1.5160	2.924905	0.000537	5.371902	1.820050	0.000215
  40	3.8805e+00	1.5513	3.183282	0.000649	6.486825	2.197796	0.000260
  41	3.9800e+00	1.5850	3.373027	0.000476	4.763762	1.614006	0.000191
  42	4.0795e+00	1.6219	3.586995	0.000537	5.371902	1.820050	0.000215
  43	4.1790e+00	1.6732	3.740406	0.000385	3.851553	1.304941	0.000154
  44	4.2785e+00	1.7165	3.966486	0.000568	5.675972	1.923071	0.000227
  45	4.3780e+00	1.7486	4.172380	0.000517	5.169189	1.751369	0.000207
  46	4.4775e+00	1.7855	4.370199	0.000497	4.966476	1.682688	0.000199
  47	4.5770e+00	1.8256	4.551871	0.000456	4.561049	1.545325	0.000183
  48	4.6765e+00	1.8641	4.826396	0.000689	6.892252	2.335158	0.000276
  49	4.7760e+00	1.8994	5.016141	0.000476	4.763762	1.614006	0.000191
  50	4.8755e+00	1.9475	5.242221	0.000568	5.675972	1.923071	0.000227
  51	4.9750e+00	1.9828	5.460226	0.000547	5.473259	1.854390	0.000219
  52	5.0745e+00	2.0229	5.654009	0.000487	4.865119	1.648347	0.000195
  53	5.1740e+00	2.0791	5.892200	0.000598	5.980042	2.026093	0.000239
  54	5.2735e+00	2.1080	6.134428	0.000608	6.081399	2.060434	0.000243
  55	5.3730e+00	2.1433	6.360507	0.000568	5.675972	1.923071	0.000227
  56	5.4725e+00	2.1818	6.526030	0.000416	4.155623	1.407963	0.000166
  57	5.5720e+00	2.2187	6.707701	0.000456	4.561049	1.545325	0.000183
  58	5.6715e+00	2.2668	6.953966	0.000618	6.182756	2.094774	0.000248
  59	5.7710e+00	2.3037	7.127563	0.000436	4.358336	1.476644	0.000174
  60	5.8705e+00	2.3470	7.341531	0.000537	5.371902	1.820050	0.000215
  61	5.9700e+00	2.3887	7.511091	0.000426	4.256979	1.442304	0.000170
  62	6.0695e+00	2.4208	7.708911	0.000497	4.966476	1.682688	0.000199
  63	6.1690e+00	2.4705	7.906730	0.000497	4.966476	1.682688	0.000199
  64	6.2685e+00	2.5090	8.144921	0.000598	5.980042	2.026093	0.000239
  65	6.3680e+00	2.5491	8.334667	0.000476	4.763762	1.614006	0.000191
  66	6.4675e+00	2.5908	8.524412	0.000476	4.763762	1.614006	0.000191
  67	6.5670e+00	2.6277	8.714157	0.000476	4.763762	1.614006	0.000191
  68	6.6665e+00	2.6598	8.956386	0.000608	6.081399	2.060434	0.000243
  69	6.7660e+00	2.7031	9.158242	0.000507	5.067832	1.717028	0.000203
  70	6.8655e+00	2.7416	9.343951	0.000466	4.662406	1.579666	0.000187
  71	6.9650e+00	2.7753	9.614439	0.000679	6.790895	2.300818	0.000272
  72	7.0645e+00	2.8202	9.836481	0.000557	5.574616	1.888731	0.000223
  73	7.1640e+00	2.8636	10.022189	0.000466	4.662406	1.579666	0.000187
  74	7.2635e+00	2.8940	10.232121	0.000527	5.270546	1.785709	0.000211
  75	7.3630e+00	2.9390	10.442052	0.000527	5.270546	1.785709	0.000211
  76	7.4625e+00	2.9823	10.639871	0.000497	4.966476	1.682688	0.000199
  77	7.5620e+00	3.0272	10.845765	0.000517	5.169189	1.751369	0.000207
  78	7.6615e+00	3.0641	11.007251	0.000405	4.054266	1.373622	0.000162
  79	7.7610e+00	3.1074	11.209107	0.000507	5.067832	1.717028	0.000203
  80	7.8605e+00	3.1443	11.394816	0.000466	4.662406	1.579666	0.000187
  81	7.9600e+00	3.1844	11.536115	0.000355	3.547483	1.201920	0.000142
  82	8.0595e+00	3.2197	11.786418	0.000628	6.284112	2.129115	0.000252
  83	8.1590e+00	3.2630	11.992312	0.000517	5.169189	1.751369	0.000207
  84	8.2585e+00	3.3031	12.190131	0.000497	4.966476	1.682688	0.000199
  85	8.3580e+00	3.3400	12.383914	0.000487	4.865119	1.648347	0.000195
  86	8.4575e+00	3.3849	12.585771	0.000507	5.067832	1.717028	0.000203
  87	8.5570e+00	3.4298	12.807813	0.000557	5.574616	1.888731	0.000223
  88	8.6565e+00	3.4635	13.046004	0.000598	5.980042	2.026093	0.000239
  89	8.7560e+00	3.4988	13.272084	0.000568	5.675972	1.923071	0.000227
  90	8.8555e+00	3.5486	13.469903	0.000497	4.966476	1.682688	0.000199
  91	8.9550e+00	3.5823	13.671760	0.000507	5.067832	1.717028	0.000203
  92	9.0545e+00	3.6224	13.893803	0.000557	5.574616	1.888731	0.000223
  93	9.1540e+00	3.6512	14.091622	0.000497	4.966476	1.682688	0.000199
  94	9.2535e+00	3.6962	14.301553	0.000527	5.270546	1.785709	0.000211
  95	9.3530e+00	3.7459	14.499373	0.000497	4.966476	1.682688	0.000199
  96	9.4525e+00	3.7796	14.652784	0.000385	3.851553	1.304941	0.000154
  97	9.5520e+00	3.8133	14.806195	0.000385	3.851553	1.304941	0.000154
  98	9.6515e+00	3.8662	15.012089	0.000517	5.169189	1.751369	0.000207
  99	9.7510e+00	3.9031	15.201835	0.000476	4.763762	1.614006	0.000191
 100	9.8505e+00	3.9416	15.431951	0.000578	5.777329	1.957412	0.000231
 101	9.9500e+00	3.9849	15.609585	0.000446	4.459693	1.510985	0.000179
 102	1.0050e+01	4.0186	15.839702	0.000578	5.777329	1.957412	0.000231
 103	1.0149e+01	4.0571	16.061745	0.000557	5.574616	1.888731	0.000223
 104	1.0248e+01	4.1004	16.303973	0.000608	6.081399	2.060434	0.000243
 105	1.0348e+01	4.1373	16.509867	0.000517	5.169189	1.751369	0.000207
 106	1.0447e+01	4.1806	16.739983	0.000578	5.777329	1.957412	0.000231
 107	1.0547e+01	4.2207	16.933766	0.000487	4.865119	1.648347	0.000195
 108	1.0646e+01	4.2673	17.204254	0.000679	6.790895	2.300818	0.000272
 109	1.0746e+01	4.2945	17.503002	0.000750	7.500392	2.541202	0.000300
 110	1.0845e+01	4.3282	17.797713	0.000740	7.399035	2.506861	0.000296
 111	1.0945e+01	4.3667	18.052052	0.000639	6.385469	2.163455	0.000256
 112	1.1044e+01	4.4229	18.358875	0.000770	7.703105	2.609883	0.000308
 113	1.1144e+01	4.4598	18.556694	0.000497	4.966476	1.682688	0.000199
 114	1.1243e+01	4.5063	18.710106	0.000385	3.851553	1.304941	0.000154
 115	1.1343e+01	4.5400	18.895814	0.000466	4.662406	1.579666	0.000187
 116	1.1443e+01	4.5769	19.073448	0.000446	4.459693	1.510985	0.000179
 117	1.1542e+01	4.6234	19.166302	0.000233	2.331203	0.789833	0.000093
 118	1.1642e+01	4.6539	19.347973	0.000456	4.561049	1.545325	0.000183
 119	1.1741e+01	4.7020	19.469087	0.000304	3.040699	1.030217	0.000122
 120	1.1841e+01	4.7389	19.654795	0.000466	4.662406	1.579666	0.000187
 121	1.1940e+01	4.7710	19.699204	0.000111	1.114923	0.377746	0.000045
 122	1.2040e+01	4.8159	19.832429	0.000334	3.344769	1.133239	0.000134
 123	1.2139e+01	4.8592	19.909135	0.000193	1.925776	0.652471	0.000077
 124	1.2239e+01	4.9057	20.115029	0.000517	5.169189	1.751369	0.000207
 125	1.2338e+01	4.9362	20.341108	0.000568	5.675972	1.923071	0.000227
 126	1.2438e+01	4.9795	20.567188	0.000568	5.675972	1.923071	0.000227
 127	1.2537e+01	5.0180	20.765008	0.000497	4.966476	1.682688	0.000199
 128	1.2636e+01	5.0549	21.059719	0.000740	7.399035	2.506861	0.000296
 129	1.2736e+01	5.0918	21.188907	0.000324	3.243413	1.098898	0.000130
 130	1.2835e+01	5.1271	21.249464	0.000152	1.520350	0.515108	0.000061
 131	1.2935e+01	5.1785	21.233315	-0.000041	-0.405427	-0.137362	-0.000016
 132	1.3034e+01	5.2041	21.233315	0.000000	0.000000	0.000000	0.000000
 133	1.3134e+01	5.2683	21.233315	0.000000	0.000000	0.000000	0.000000
 134	1.3233e+01	5.2892	21.196981	-0.000091	-0.912210	-0.309065	-0.000037
 135	1.3333e+01	5.3405	21.225241	0.000071	0.709497	0.240384	0.000028
 136	1.3432e+01	5.3758	21.180833	-0.000111	-1.114923	-0.377746	-0.000045
 137	1.3532e+01	5.4111	21.180833	0.000000	0.000000	0.000000	0.000000
 138	1.3632e+01	5.4512	21.293872	0.000284	2.837986	0.961536	0.000114
 139	1.3731e+01	5.4945	21.318095	0.000061	0.608140	0.206043	0.000024
 140	1.3831e+01	5.5378	21.350392	0.000081	0.810853	0.274724	0.000032
 141	1.3930e+01	5.5795	21.374615	0.000061	0.608140	0.206043	0.000024
 142	1.4030e+01	5.6228	21.435172	0.000152	1.520350	0.515108	0.000061
 143	1.4129e+01	5.6549	21.580509	0.000365	3.648839	1.236260	0.000146
 144	1.4229e+01	5.6886	21.641066	0.000152	1.520350	0.515108	0.000061
 145	1.4328e+01	5.7319	21.766217	0.000314	3.142056	1.064557	0.000126
 146	1.4428e+01	5.7736	21.927703	0.000405	4.054266	1.373622	0.000162
 147	1.4527e+01	5.8169	22.052854	0.000314	3.142056	1.064557	0.000126
 148	1.4627e+01	5.8571	22.182042	0.000324	3.243413	1.098898	0.000130
 149	1.4726e+01	5.9004	22.359676	0.000446	4.459693	1.510985	0.000179
 150	1.4825e+01	5.9373	22.480790	0.000304	3.040699	1.030217	0.000122
 151	1.4925e+01	5.9726	22.622090	0.000355	3.547483	1.201920	0.000142
 152	1.5024e+01	6.0127	22.767427	0.000365	3.648839	1.236260	0.000146
 153	1.5124e+01	6.0464	22.904690	0.000345	3.446126	1.167579	0.000138
 154	1.5223e+01	6.0961	23.001581	0.000243	2.432560	0.824173	0.000097
 155	1.5323e+01	6.1314	23.171141	0.000426	4.256979	1.442304	0.000170
 156	1.5422e+01	6.1795	23.316477	0.000365	3.648839	1.236260	0.000146
 157	1.5522e+01	6.2132	23.425480	0.000274	2.736630	0.927195	0.000110
 158	1.5621e+01	6.2517	23.550631	0.000314	3.142056	1.064557	0.000126
 159	1.5721e+01	6.2966	23.659634	0.000274	2.736630	0.927195	0.000110
 160	1.5820e+01	6.3303	23.853417	0.000487	4.865119	1.648347	0.000195
 161	1.5920e+01	6.3736	24.002791	0.000375	3.750196	1.270601	0.000150
 162	1.6020e+01	6.4105	24.119867	0.000294	2.939343	0.995876	0.000118
 163	1.6119e+01	6.4522	24.281353	0.000405	4.054266	1.373622	0.000162
 164	1.6218e+01	6.4923	24.418616	0.000345	3.446126	1.167579	0.000138
 165	1.6318e+01	6.5228	24.491284	0.000182	1.824420	0.618130	0.000073
 166	1.6418e+01	6.5709	24.652769	0.000405	4.054266	1.373622	0.000162
 167	1.6517e+01	6.6062	24.798106	0.000365	3.648839	1.236260	0.000146
 168	1.6616e+01	6.6479	24.935369	0.000345	3.446126	1.167579	0.000138
 169	1.6716e+01	6.6880	24.999963	0.000162	1.621706	0.549449	0.000065
 170	1.6816e+01	6.7314	25.165486	0.000416	4.155623	1.407963	0.000166
 171	1.6915e+01	6.7667	25.250265	0.000213	2.128490	0.721152	0.000085
 172	1.7015e+01	6.8100	25.343120	0.000233	2.331203	0.789833	0.000093
 173	1.7114e+01	6.8453	25.476345	0.000334	3.344769	1.133239	0.000134
 174	1.7213e+01	6.8806	25.605533	0.000324	3.243413	1.098898	0.000130
 175	1.7313e+01	6.9175	25.690313	0.000213	2.128490	0.721152	0.000085
 176	1.7413e+01	6.9656	25.791242	0.000253	2.533916	0.858514	0.000101
 177	1.7512e+01	7.0201	25.944653	0.000385	3.851553	1.304941	0.000154
 178	1.7611e+01	7.0458	26.045581	0.000253	2.533916	0.858514	0.000101
 179	1.7711e+01	7.0827	26.162658	0.000294	2.939343	0.995876	0.000118
 180	1.7811e+01	7.1212	26.271661	0.000274	2.736630	0.927195	0.000110
 181	1.7910e+01	7.1565	26.384701	0.000284	2.837986	0.961536	0.000114
 182	1.8009e+01	7.1998	26.465443	0.000203	2.027133	0.686811	0.000081
 183	1.8109e+01	7.2479	26.582520	0.000294	2.939343	0.995876	0.000118
 184	1.8209e+01	7.2848	26.768229	0.000466	4.662406	1.579666	0.000187
 185	1.8308e+01	7.3346	27.171942	0.001014	10.135665	3.434056	0.000406
 186	1.8407e+01	7.3698	27.519136	0.000872	8.716672	2.953288	0.000349
 187	1.8507e+01	7.4019	27.846144	0.000821	8.209889	2.781586	0.000329
 188	1.8607e+01	7.4436	28.189300	0.000862	8.615315	2.918948	0.000345
 189	1.8706e+01	7.4982	28.423454	0.000588	5.878686	1.991753	0.000235
 190	1.8805e+01	7.5206	28.605125	0.000456	4.561049	1.545325	0.000183
 191	1.8905e+01	7.5640	28.859465	0.000639	6.385469	2.163455	0.000256
 192	1.9005e+01	7.6041	28.992690	0.000334	3.344769	1.133239	0.000134
 193	1.9104e+01	7.6522	29.178399	0.000466	4.662406	1.579666	0.000187
 194	1.9203e+01	7.6811	29.315661	0.000345	3.446126	1.167579	0.000138
 195	1.9303e+01	7.7244	29.473109	0.000395	3.952909	1.339282	0.000158
 196	1.9402e+01	7.7645	29.618446	0.000365	3.648839	1.236260	0.000146
 197	1.9502e+01	7.8046	29.832415	0.000537	5.371902	1.820050	0.000215
 198	1.9602e+01	7.8463	29.965640	0.000334	3.344769	1.133239	0.000134
 199	1.9701e+01	7.8848	30.135200	0.000426	4.256979	1.442304	0.000170
 200	1.9800e+01	7.9153	30.300722	0.000416	4.155623	1.407963	0.000166
 201	1.9900e+01	7.9570	30.442022	0.000355	3.547483	1.201920	0.000142
 202	2.0000e+01	8.0035	30.623693	0.000456	4.561049	1.545325	0.000183
 203	2.0099e+01	8.0468	30.805364	0.000456	4.561049	1.545325	0.000183
 204	2.0198e+01	8.0821	31.023370	0.000547	5.473259	1.854390	0.000219
 205	2.0298e+01	8.1190	31.221189	0.000497	4.966476	1.682688	0.000199
 206	2.0398e+01	8.1623	31.390749	0.000426	4.256979	1.442304	0.000170
 207	2.0497e+01	8.1976	31.592606	0.000507	5.067832	1.717028	0.000203
 208	2.0596e+01	8.2458	31.810611	0.000547	5.473259	1.854390	0.000219
 209	2.0696e+01	8.2762	31.964022	0.000385	3.851553	1.304941	0.000154
 210	2.0796e+01	8.3131	32.169916	0.000517	5.169189	1.751369	0.000207
 211	2.0895e+01	8.3629	32.375810	0.000517	5.169189	1.751369	0.000207
 212	2.0994e+01	8.4078	32.601890	0.000568	5.675972	1.923071	0.000227
 213	2.1094e+01	8.4383	32.799709	0.000497	4.966476	1.682688	0.000199
 214	2.1194e+01	8.4848	33.098457	0.000750	7.500392	2.541202	0.000300
 215	2.1293e+01	8.5233	33.280128	0.000456	4.561049	1.545325	0.000183
 216	2.1392e+01	8.5634	33.534468	0.000639	6.385469	2.163455	0.000256
 217	2.1492e+01	8.6051	33.720176	0.000466	4.662406	1.579666	0.000187
 218	2.1591e+01	8.6452	33.982590	0.000659	6.588182	2.232137	0.000264
 219	2.1691e+01	8.6757	34.168298	0.000466	4.662406	1.579666	0.000187
 220	2.1791e+01	8.7126	34.366118	0.000497	4.966476	1.682688	0.000199
 221	2.1890e+01	8.7623	34.620458	0.000639	6.385469	2.163455	0.000256
 222	2.1989e+01	8.7976	34.846537	0.000568	5.675972	1.923071	0.000227
 223	2.2089e+01	8.8329	35.044357	0.000497	4.966476	1.682688	0.000199
 224	2.2189e+01	8.8826	35.270436	0.000568	5.675972	1.923071	0.000227
 225	2.2288e+01	8.9147	35.464219	0.000487	4.865119	1.648347	0.000195
 226	2.2387e+01	8.9596	35.589370	0.000314	3.142056	1.064557	0.000126
 227	2.2487e+01	9.0046	35.742781	0.000385	3.851553	1.304941	0.000154
 228	2.2587e+01	9.0415	35.888118	0.000365	3.648839	1.236260	0.000146
 229	2.2686e+01	9.0864	36.005195	0.000294	2.939343	0.995876	0.000118
 230	2.2785e+01	9.1313	36.098049	0.000233	2.331203	0.789833	0.000093
 231	2.2885e+01	9.1666	36.251460	0.000385	3.851553	1.304941	0.000154
 232	2.2985e+01	9.2035	36.384686	0.000334	3.344769	1.133239	0.000134
 233	2.3084e+01	9.2292	36.493689	0.000274	2.736630	0.927195	0.000110
 234	2.3183e+01	9.2805	36.630951	0.000345	3.446126	1.167579	0.000138
 235	2.3283e+01	9.3254	36.752065	0.000304	3.040699	1.030217	0.000122
 236	2.3383e+01	9.3559	36.836845	0.000213	2.128490	0.721152	0.000085
 237	2.3482e+01	9.4008	36.941811	0.000264	2.635273	0.892855	0.000105
 238	2.3581e+01	9.4377	37.022553	0.000203	2.027133	0.686811	0.000081
 239	2.3681e+01	9.4826	37.151742	0.000324	3.243413	1.098898	0.000130
 240	2.3780e+01	9.5163	37.329376	0.000446	4.459693	1.510985	0.000179
 241	2.3880e+01	9.5484	37.563529	0.000588	5.878686	1.991753	0.000235
 242	2.3980e+01	9.5965	37.737126	0.000436	4.358336	1.476644	0.000174
 243	2.4079e+01	9.6430	37.930909	0.000487	4.865119	1.648347	0.000195
 244	2.4178e+01	9.6880	38.116617	0.000466	4.662406	1.579666	0.000187
 245	2.4278e+01	9.7200	38.245805	0.000324	3.243413	1.098898	0.000130
 246	2.4378e+01	9.7473	38.322511	0.000193	1.925776	0.652471	0.000077
 247	2.4477e+01	9.8051	38.463811	0.000355	3.547483	1.201920	0.000142
 248	2.4576e+01	9.8291	38.552628	0.000223	2.229846	0.755492	0.000089
 249	2.4676e+01	9.8741	38.689890	0.000345	3.446126	1.167579	0.000138
 250	2.4776e+01	9.9174	38.851376	0.000405	4.054266	1.373622	0.000162
 251	2.4875e+01	9.9511	39.029010	0.000446	4.459693	1.510985	0.000179
 252	2.4974e+01	10.0088	39.166272	0.000345	3.446126	1.167579	0.000138
 253	2.5074e+01	10.0297	39.372166	0.000517	5.169189	1.751369	0.000207
 254	2.5174e+01	10.0746	39.549800	0.000446	4.459693	1.510985	0.000179
 255	2.5273e+01	10.1163	39.880845	0.000831	8.311245	2.815926	0.000333
 256	2.5372e+01	10.1612	40.046368	0.000416	4.155623	1.407963	0.000166
 257	2.5472e+01	10.1949	40.106925	0.000152	1.520350	0.515108	0.000061
 258	2.5572e+01	10.2222	40.195742	0.000223	2.229846	0.755492	0.000089
 259	2.5671e+01	10.2719	40.333005	0.000345	3.446126	1.167579	0.000138
 260	2.5770e+01	10.3088	40.591381	0.000649	6.486825	2.197796	0.000260
 261	2.5870e+01	10.3393	40.781127	0.000476	4.763762	1.614006	0.000191
 262	2.5970e+01	10.3922	40.861869	0.000203	2.027133	0.686811	0.000081
 263	2.6069e+01	10.4339	40.934538	0.000182	1.824420	0.618130	0.000073
 264	2.6169e+01	10.4837	41.059689	0.000314	3.142056	1.064557	0.000126
 265	2.6268e+01	10.5222	41.200989	0.000355	3.547483	1.201920	0.000142
 266	2.6367e+01	10.5526	41.386697	0.000466	4.662406	1.579666	0.000187
 267	2.6467e+01	10.5911	41.641037	0.000639	6.385469	2.163455	0.000256
 268	2.6567e+01	10.6377	41.923636	0.000709	7.094965	2.403839	0.000284
 269	2.6666e+01	10.6810	42.093196	0.000426	4.256979	1.442304	0.000170
 270	2.6765e+01	10.7066	42.234496	0.000355	3.547483	1.201920	0.000142
 271	2.6865e+01	10.7548	42.299090	0.000162	1.621706	0.549449	0.000065
 272	2.6965e+01	10.7981	42.404055	0.000264	2.635273	0.892855	0.000105
 273	2.7064e+01	10.8254	42.634172	0.000578	5.777329	1.957412	0.000231
 274	2.7163e+01	10.8735	42.908697	0.000689	6.892252	2.335158	0.000276
 275	2.7263e+01	10.9040	43.530416	0.001561	15.608924	5.288447	0.000625
 276	2.7363e+01	10.9505	44.648703	0.002808	28.075792	9.512336	0.001124
 277	2.7462e+01	10.9906	45.726618	0.002706	27.062225	9.168930	0.001083
 278	2.7561e+01	11.0307	46.723790	0.002504	25.035092	8.482119	0.001002
 279	2.7661e+01	11.0756	47.418178	0.001743	17.433343	5.906577	0.000698
 280	2.7761e+01	11.1077	47.825929	0.001024	10.237021	3.468397	0.000410
 281	2.7860e+01	11.1526	48.023748	0.000497	4.966476	1.682688	0.000199
 282	2.7959e+01	11.1895	48.108528	0.000213	2.128490	0.721152	0.000085
 283	2.8059e+01	11.2280	48.209456	0.000253	2.533916	0.858514	0.000101
 284	2.8159e+01	11.2794	48.217531	0.000020	0.202713	0.068681	0.000008
 285	2.8258e+01	11.3114	48.233679	0.000041	0.405427	0.137362	0.000016
 286	2.8358e+01	11.3516	48.257902	0.000061	0.608140	0.206043	0.000024
 287	2.8457e+01	11.3981	48.346719	0.000223	2.229846	0.755492	0.000089
 288	2.8556e+01	11.4350	48.540502	0.000487	4.865119	1.648347	0.000195
 289	2.8656e+01	11.4655	48.580873	0.000101	1.013566	0.343406	0.000041
 290	2.8756e+01	11.5104	48.597021	0.000041	0.405427	0.137362	0.000016
 291	2.8855e+01	11.5601	48.657578	0.000152	1.520350	0.515108	0.000061
 292	2.8954e+01	11.5970	48.786767	0.000324	3.243413	1.098898	0.000130
 293	2.9054e+01	11.6323	49.125886	0.000851	8.513958	2.884607	0.000341
 294	2.9154e+01	11.6708	49.501340	0.000943	9.426168	3.193672	0.000377
 295	2.9253e+01	11.7093	49.804125	0.000760	7.601749	2.575542	0.000304
 296	2.9352e+01	11.7558	49.945425	0.000355	3.547483	1.201920	0.000142
 297	2.9452e+01	11.7847	50.094799	0.000375	3.750196	1.270601	0.000150
 298	2.9552e+01	11.8376	50.276470	0.000456	4.561049	1.545325	0.000183
 299	2.9651e+01	11.8697	50.369324	0.000233	2.331203	0.789833	0.000093
 300	2.9750e+01	11.9162	50.450067	0.000203	2.027133	0.686811	0.000081
 301	2.9850e+01	11.9515	50.542921	0.000233	2.331203	0.789833	0.000093
 302	2.9950e+01	11.9884	50.635775	0.000233	2.331203	0.789833	0.000093
 303	3.0049e+01	12.0269	50.809372	0.000436	4.358336	1.476644	0.000174
 304	3.0148e+01	12.0670	51.019303	0.000527	5.270546	1.785709	0.000211
 305	3.0248e+01	12.1120	51.172714	0.000385	3.851553	1.304941	0.000154
 306	3.0348e+01	12.1521	51.285754	0.000284	2.837986	0.961536	0.000114
 307	3.0447e+01	12.1825	51.435128	0.000375	3.750196	1.270601	0.000150
 308	3.0547e+01	12.2259	51.657170	0.000557	5.574616	1.888731	0.000223
 309	3.0646e+01	12.2692	51.907473	0.000628	6.284112	2.129115	0.000252
 310	3.0745e+01	12.3109	52.153738	0.000618	6.182756	2.094774	0.000248
 311	3.0845e+01	12.3526	52.408078	0.000639	6.385469	2.163455	0.000256
 312	3.0945e+01	12.3927	52.654343	0.000618	6.182756	2.094774	0.000248
 313	3.1044e+01	12.4248	52.888497	0.000588	5.878686	1.991753	0.000235
 314	3.1143e+01	12.4713	53.134762	0.000618	6.182756	2.094774	0.000248
 315	3.1243e+01	12.5114	53.352767	0.000547	5.473259	1.854390	0.000219
 316	3.1343e+01	12.5483	53.510216	0.000395	3.952909	1.339282	0.000158
 317	3.1442e+01	12.5852	53.635367	0.000314	3.142056	1.064557	0.000126
 318	3.1541e+01	12.6333	53.808964	0.000436	4.358336	1.476644	0.000174
 319	3.1641e+01	12.6622	53.958338	0.000375	3.750196	1.270601	0.000150
 320	3.1741e+01	12.7103	54.039080	0.000203	2.027133	0.686811	0.000081
 321	3.1840e+01	12.7424	54.220752	0.000456	4.561049	1.545325	0.000183
 322	3.1939e+01	12.7938	54.333791	0.000284	2.837986	0.961536	0.000114
 323	3.2039e+01	12.8242	54.479128	0.000365	3.648839	1.236260	0.000146
 324	3.2139e+01	12.8611	54.672911	0.000487	4.865119	1.648347	0.000195
 325	3.2238e+01	12.9012	54.834396	0.000405	4.054266	1.373622	0.000162
 326	3.2337e+01	12.9446	54.995882	0.000405	4.054266	1.373622	0.000162
 327	3.2437e+01	12.9815	55.112959	0.000294	2.939343	0.995876	0.000118
 328	3.2536e+01	13.0200	55.302704	0.000476	4.763762	1.614006	0.000191
 329	3.2636e+01	13.0665	55.395558	0.000233	2.331203	0.789833	0.000093
 330	3.2736e+01	13.0954	55.589341	0.000487	4.865119	1.648347	0.000195
 331	3.2835e+01	13.1371	55.714492	0.000314	3.142056	1.064557	0.000126
 332	3.2934e+01	13.1852	55.875977	0.000405	4.054266	1.373622	0.000162
 333	3.3034e+01	13.2205	56.013240	0.000345	3.446126	1.167579	0.000138
 334	3.3133e+01	13.2638	56.158577	0.000365	3.648839	1.236260	0.000146
 335	3.3233e+01	13.2975	56.344285	0.000466	4.662406	1.579666	0.000187
 336	3.3333e+01	13.3376	56.465399	0.000304	3.040699	1.030217	0.000122
 337	3.3432e+01	13.3937	56.550179	0.000213	2.128490	0.721152	0.000085
 338	3.3532e+01	13.4226	56.651107	0.000253	2.533916	0.858514	0.000101
 339	3.3631e+01	13.4643	56.828741	0.000446	4.459693	1.510985	0.000179
 340	3.3730e+01	13.5044	56.990227	0.000405	4.054266	1.373622	0.000162
 341	3.3830e+01	13.5397	57.123452	0.000334	3.344769	1.133239	0.000134
 342	3.3929e+01	13.5766	57.280900	0.000395	3.952909	1.339282	0.000158
 343	3.4029e+01	13.6167	57.454497	0.000436	4.358336	1.476644	0.000174
 344	3.4129e+01	13.6568	57.583686	0.000324	3.243413	1.098898	0.000130
 345	3.4228e+01	13.7001	57.712874	0.000324	3.243413	1.098898	0.000130
 346	3.4328e+01	13.7306	57.930879	0.000547	5.473259	1.854390	0.000219
 347	3.4427e+01	13.7836	58.003548	0.000182	1.824420	0.618130	0.000073
 348	3.4526e+01	13.8108	58.096402	0.000233	2.331203	0.789833	0.000093
 349	3.4626e+01	13.8542	58.274036	0.000446	4.459693	1.510985	0.000179
 350	3.4725e+01	13.8894	58.415336	0.000355	3.547483	1.201920	0.000142
 351	3.4825e+01	13.9424	58.588932	0.000436	4.358336	1.476644	0.000174
 352	3.4925e+01	13.9761	58.701972	0.000284	2.837986	0.961536	0.000114
 353	3.5024e+01	14.0162	58.871532	0.000426	4.256979	1.442304	0.000170
 354	3.5123e+01	14.0611	59.000720	0.000324	3.243413	1.098898	0.000130
 355	3.5223e+01	14.1172	59.174317	0.000436	4.358336	1.476644	0.000174
 356	3.5322e+01	14.1397	59.255060	0.000203	2.027133	0.686811	0.000081
 357	3.5422e+01	14.1846	59.408471	0.000385	3.851553	1.304941	0.000154
 358	3.5522e+01	14.2103	59.525548	0.000294	2.939343	0.995876	0.000118
 359	3.5621e+01	14.2568	59.662811	0.000345	3.446126	1.167579	0.000138
 360	3.5721e+01	14.2969	59.824296	0.000405	4.054266	1.373622	0.000162
 361	3.5820e+01	14.3322	60.001930	0.000446	4.459693	1.510985	0.000179
 362	3.5919e+01	14.3803	60.139193	0.000345	3.446126	1.167579	0.000138
 363	3.6019e+01	14.4092	60.316826	0.000446	4.459693	1.510985	0.000179
 364	3.6118e+01	14.4557	60.446015	0.000324	3.243413	1.098898	0.000130
 365	3.6218e+01	14.4878	60.595389	0.000375	3.750196	1.270601	0.000150
 366	3.6318e+01	14.5279	60.680169	0.000213	2.128490	0.721152	0.000085
 367	3.6417e+01	14.5777	60.829543	0.000375	3.750196	1.270601	0.000150
 368	3.6517e+01	14.6146	60.982954	0.000385	3.851553	1.304941	0.000154
 369	3.6616e+01	14.6579	61.095994	0.000284	2.837986	0.961536	0.000114
 370	3.6715e+01	14.6932	61.225182	0.000324	3.243413	1.098898	0.000130
 371	3.6815e+01	14.7333	61.386667	0.000405	4.054266	1.373622	0.000162
 372	3.6914e+01	14.7718	61.527967	0.000355	3.547483	1.201920	0.000142
 373	3.7014e+01	14.8103	61.636970	0.000274	2.736630	0.927195	0.000110
 374	3.7114e+01	14.8664	61.766158	0.000324	3.243413	1.098898	0.000130
 375	3.7213e+01	14.9065	61.871124	0.000264	2.635273	0.892855	0.000105
 376	3.7313e+01	14.9418	62.016461	0.000365	3.648839	1.236260	0.000146
 377	3.7412e+01	14.9755	62.137575	0.000304	3.040699	1.030217	0.000122
 378	3.7511e+01	15.0172	62.327320	0.000476	4.763762	1.614006	0.000191
 379	3.7611e+01	15.0493	62.452471	0.000314	3.142056	1.064557	0.000126
 380	3.7711e+01	15.0926	62.597808	0.000365	3.648839	1.236260	0.000146
 381	3.7810e+01	15.1424	62.747182	0.000375	3.750196	1.270601	0.000150
 382	3.7910e+01	15.1760	62.868296	0.000304	3.040699	1.030217	0.000122
 383	3.8009e+01	15.2129	62.985373	0.000294	2.939343	0.995876	0.000118
 384	3.8108e+01	15.2595	63.106487	0.000304	3.040699	1.030217	0.000122
 385	3.8208e+01	15.2932	63.272010	0.000416	4.155623	1.407963	0.000166
 386	3.8307e+01	15.3268	63.401198	0.000324	3.243413	1.098898	0.000130
 387	3.8407e+01	15.3734	63.562684	0.000405	4.054266	1.373622	0.000162
 388	3.8507e+01	15.4231	63.667649	0.000264	2.635273	0.892855	0.000105
 389	3.8606e+01	15.4472	63.784726	0.000294	2.939343	0.995876	0.000118
 390	3.8706e+01	15.5001	63.930063	0.000365	3.648839	1.236260	0.000146
 391	3.8805e+01	15.5338	64.075400	0.000365	3.648839	1.236260	0.000146
 392	3.8904e+01	15.5691	64.208625	0.000334	3.344769	1.133239	0.000134
 393	3.9004e+01	15.6108	64.313591	0.000264	2.635273	0.892855	0.000105
 394	3.9103e+01	15.6557	64.426631	0.000284	2.837986	0.961536	0.000114
 395	3.9203e+01	15.6894	64.535633	0.000274	2.736630	0.927195	0.000110
 396	3.9303e+01	15.7343	64.701156	0.000416	4.155623	1.407963	0.000166
 397	3.9402e+01	15.7680	64.830344	0.000324	3.243413	1.098898	0.000130
 398	3.9502e+01	15.8065	64.955495	0.000314	3.142056	1.064557	0.000126
 399	3.9601e+01	15.8546	65.116981	0.000405	4.054266	1.373622	0.000162
 400	3.9700e+01	15.8883	65.246169	0.000324	3.243413	1.098898	0.000130
 401	3.9800e+01	15.9236	65.427840	0.000456	4.561049	1.545325	0.000183
 402	3.9900e+01	15.9685	65.488397	0.000152	1.520350	0.515108	0.000061
 403	3.9999e+01	16.0151	65.625660	0.000345	3.446126	1.167579	0.000138
 404	4.0099e+01	16.0552	65.734663	0.000274	2.736630	0.927195	0.000110
 405	4.0198e+01	16.0905	65.908259	0.000436	4.358336	1.476644	0.000174
 406	4.0297e+01	16.1354	66.013225	0.000264	2.635273	0.892855	0.000105
 407	4.0397e+01	16.1771	66.138376	0.000314	3.142056	1.064557	0.000126
 408	4.0496e+01	16.2092	66.267565	0.000324	3.243413	1.098898	0.000130
 409	4.0596e+01	16.2396	66.380604	0.000284	2.837986	0.961536	0.000114
 410	4.0696e+01	16.2878	66.525941	0.000365	3.648839	1.236260	0.000146
 411	4.0795e+01	16.3311	66.663204	0.000345	3.446126	1.167579	0.000138
 412	4.0895e+01	16.3632	66.764132	0.000253	2.533916	0.858514	0.000101
 413	4.0994e+01	16.4177	66.856986	0.000233	2.331203	0.789833	0.000093
 414	4.1093e+01	16.4562	67.006360	0.000375	3.750196	1.270601	0.000150
 415	4.1193e+01	16.4867	67.135549	0.000324	3.243413	1.098898	0.000130
 416	4.1292e+01	16.5236	67.260700	0.000314	3.142056	1.064557	0.000126
 417	4.1392e+01	16.5669	67.402000	0.000355	3.547483	1.201920	0.000142
 418	4.1492e+01	16.6086	67.551374	0.000375	3.750196	1.270601	0.000150
 419	4.1591e+01	16.6535	67.660376	0.000274	2.736630	0.927195	0.000110
 420	4.1691e+01	16.6904	67.773416	0.000284	2.837986	0.961536	0.000114
 421	4.1790e+01	16.7225	67.898567	0.000314	3.142056	1.064557	0.000126
 422	4.1889e+01	16.7723	68.060053	0.000405	4.054266	1.373622	0.000162
 423	4.1989e+01	16.8108	68.140796	0.000203	2.027133	0.686811	0.000081
 424	4.2089e+01	16.8525	68.278058	0.000345	3.446126	1.167579	0.000138
 425	4.2188e+01	16.8813	68.427432	0.000375	3.750196	1.270601	0.000150
 426	4.2288e+01	16.9311	68.548546	0.000304	3.040699	1.030217	0.000122
 427	4.2387e+01	16.9632	68.649475	0.000253	2.533916	0.858514	0.000101
 428	4.2486e+01	17.0113	68.734255	0.000213	2.128490	0.721152	0.000085
 429	4.2586e+01	17.0498	68.911888	0.000446	4.459693	1.510985	0.000179
 430	4.2685e+01	17.0883	69.016854	0.000264	2.635273	0.892855	0.000105
 431	4.2785e+01	17.1300	69.133931	0.000294	2.939343	0.995876	0.000118
 432	4.2885e+01	17.1685	69.251008	0.000294	2.939343	0.995876	0.000118
 433	4.2984e+01	17.2038	69.384233	0.000334	3.344769	1.133239	0.000134
 434	4.3084e+01	17.2391	69.501310	0.000294	2.939343	0.995876	0.000118
 435	4.3183e+01	17.2840	69.602239	0.000253	2.533916	0.858514	0.000101
 436	4.3282e+01	17.3273	69.715278	0.000284	2.837986	0.961536	0.000114
 437	4.3382e+01	17.3498	69.860615	0.000365	3.648839	1.236260	0.000146
 438	4.3481e+01	17.4091	69.985767	0.000314	3.142056	1.064557	0.000126
 439	4.3581e+01	17.4492	70.118992	0.000334	3.344769	1.133239	0.000134
 440	4.3681e+01	17.4926	70.227995	0.000274	2.736630	0.927195	0.000110
 441	4.3780e+01	17.5246	70.345072	0.000294	2.939343	0.995876	0.000118
 442	4.3880e+01	17.5663	70.462149	0.000294	2.939343	0.995876	0.000118
 443	4.3979e+01	17.6065	70.595374	0.000334	3.344769	1.133239	0.000134
 444	4.4078e+01	17.6401	70.704377	0.000274	2.736630	0.927195	0.000110
 445	4.4178e+01	17.6931	70.865862	0.000405	4.054266	1.373622	0.000162
 446	4.4278e+01	17.7284	70.970828	0.000264	2.635273	0.892855	0.000105
 447	4.4377e+01	17.7637	71.104053	0.000334	3.344769	1.133239	0.000134
 448	4.4477e+01	17.8134	71.225167	0.000304	3.040699	1.030217	0.000122
 449	4.4576e+01	17.8535	71.334170	0.000274	2.736630	0.927195	0.000110
 450	4.4675e+01	17.8776	71.439135	0.000264	2.635273	0.892855	0.000105
 451	4.4775e+01	17.9241	71.556212	0.000294	2.939343	0.995876	0.000118
 452	4.4874e+01	17.9754	71.661178	0.000264	2.635273	0.892855	0.000105
 453	4.4974e+01	17.9979	71.774218	0.000284	2.837986	0.961536	0.000114
 454	4.5074e+01	18.0524	71.927629	0.000385	3.851553	1.304941	0.000154
 455	4.5173e+01	18.0861	72.032594	0.000264	2.635273	0.892855	0.000105
 456	4.5273e+01	18.1230	72.141597	0.000274	2.736630	0.927195	0.000110
 457	4.5372e+01	18.1647	72.278860	0.000345	3.446126	1.167579	0.000138
 458	4.5471e+01	18.2096	72.424197	0.000365	3.648839	1.236260	0.000146
 459	4.5571e+01	18.2417	72.488791	0.000162	1.621706	0.549449	0.000065
 460	4.5670e+01	18.2899	72.585682	0.000243	2.432560	0.824173	0.000097
 461	4.5770e+01	18.3284	72.735056	0.000375	3.750196	1.270601	0.000150
 462	4.5870e+01	18.3637	72.880393	0.000365	3.648839	1.236260	0.000146
 463	4.5969e+01	18.4102	73.005544	0.000314	3.142056	1.064557	0.000126
 464	4.6069e+01	18.4358	73.122621	0.000294	2.939343	0.995876	0.000118
 465	4.6168e+01	18.4808	73.211438	0.000223	2.229846	0.755492	0.000089
 466	4.6267e+01	18.5321	73.352738	0.000355	3.547483	1.201920	0.000142
 467	4.6367e+01	18.5658	73.453666	0.000253	2.533916	0.858514	0.000101
 468	4.6467e+01	18.6059	73.522297	0.000172	1.723063	0.583790	0.000069
 469	4.6566e+01	18.6412	73.599003	0.000193	1.925776	0.652471	0.000077
 470	4.6666e+01	18.6829	73.748377	0.000375	3.750196	1.270601	0.000150
 471	4.6765e+01	18.7166	73.889677	0.000355	3.547483	1.201920	0.000142
 472	4.6864e+01	18.7567	73.954271	0.000162	1.621706	0.549449	0.000065
 473	4.6964e+01	18.8096	74.022902	0.000172	1.723063	0.583790	0.000069
 474	4.7063e+01	18.8449	74.087496	0.000162	1.621706	0.549449	0.000065
 475	4.7163e+01	18.8770	74.156128	0.000172	1.723063	0.583790	0.000069
 476	4.7263e+01	18.9251	74.188425	0.000081	0.810853	0.274724	0.000032
 477	4.7362e+01	18.9460	74.575990	0.000973	9.730238	3.296694	0.000390
 478	4.7462e+01	18.9941	74.652695	0.000193	1.925776	0.652471	0.000077
 479	4.7561e+01	19.0422	74.733438	0.000203	2.027133	0.686811	0.000081
 480	4.7660e+01	19.0840	74.822255	0.000223	2.229846	0.755492	0.000089
 481	4.7760e+01	19.1192	74.834367	0.000030	0.304070	0.103022	0.000012
 482	4.7859e+01	19.1577	74.915109	0.000203	2.027133	0.686811	0.000081
 483	4.7959e+01	19.1866	74.979703	0.000162	1.621706	0.549449	0.000065
 484	4.8059e+01	19.2444	75.092743	0.000284	2.837986	0.961536	0.000114
 485	4.8158e+01	19.2845	75.149263	0.000142	1.418993	0.480768	0.000057
 486	4.8258e+01	19.3150	75.274414	0.000314	3.142056	1.064557	0.000126
 487	4.8357e+01	19.3647	75.524717	0.000628	6.284112	2.129115	0.000252
 488	4.8456e+01	19.4032	75.597385	0.000182	1.824420	0.618130	0.000073
 489	4.8556e+01	19.4305	75.637757	0.000101	1.013566	0.343406	0.000041
 490	4.8656e+01	19.4738	75.702351	0.000162	1.621706	0.549449	0.000065
 491	4.8755e+01	19.5155	75.920356	0.000547	5.473259	1.854390	0.000219
 492	4.8855e+01	19.5636	76.194881	0.000689	6.892252	2.335158	0.000276
 493	4.8954e+01	19.6037	76.396738	0.000507	5.067832	1.717028	0.000203
 494	4.9053e+01	19.6358	76.578409	0.000456	4.561049	1.545325	0.000183
 495	4.9153e+01	19.6807	76.667226	0.000223	2.229846	0.755492	0.000089
 496	4.9252e+01	19.7192	76.784303	0.000294	2.939343	0.995876	0.000118
 497	4.9352e+01	19.7513	76.893306	0.000274	2.736630	0.927195	0.000110
 498	4.9452e+01	19.8043	77.046717	0.000385	3.851553	1.304941	0.000154
 499	4.9551e+01	19.8235	77.119385	0.000182	1.824420	0.618130	0.000073
 500	4.9651e+01	19.8813	77.252611	0.000334	3.344769	1.133239	0.000134
 501	4.9750e+01	19.9198	77.357576	0.000264	2.635273	0.892855	0.000105
 502	4.9849e+01	19.9518	77.450431	0.000233	2.331203	0.789833	0.000093
 503	4.9949e+01	19.9936	77.510988	0.000152	1.520350	0.515108	0.000061
 504	5.0048e+01	19.9551	77.547322	-0.000091	-0.912210	-0.309065	0.000037
 505	5.0148e+01	19.9133	77.535210	0.000030	0.304070	0.103022	-0.000012
 506	5.0248e+01	19.8732	77.506950	0.000071	0.709497	0.240384	-0.000028
 507	5.0347e+01	19.8347	77.454468	0.000132	1.317636	0.446427	-0.000053
 508	5.0447e+01	19.8010	77.353539	0.000253	2.533916	0.858514	-0.000101
 509	5.0546e+01	19.7497	77.309131	0.000111	1.114923	0.377746	-0.000045
 510	5.0645e+01	19.7160	77.236462	0.000182	1.824420	0.618130	-0.000073
 511	5.0745e+01	19.6791	77.155720	0.000203	2.027133	0.686811	-0.000081
 512	5.0844e+01	19.6390	77.115348	0.000101	1.013566	0.343406	-0.000041
 513	5.0944e+01	19.6037	76.982123	0.000334	3.344769	1.133239	-0.000134
 514	5.1044e+01	19.5540	76.945789	0.000091	0.912210	0.309065	-0.000037
 515	5.1143e+01	19.5171	76.828712	0.000294	2.939343	0.995876	-0.000118
 516	5.1242e+01	19.4706	76.776229	0.000132	1.317636	0.446427	-0.000053
 517	5.1342e+01	19.4417	76.687412	0.000223	2.229846	0.755492	-0.000089
 518	5.1441e+01	19.3968	76.606669	0.000203	2.027133	0.686811	-0.000081
 519	5.1541e+01	19.3583	76.521889	0.000213	2.128490	0.721152	-0.000085
 520	5.1641e+01	19.3246	76.485555	0.000091	0.912210	0.309065	-0.000037
 521	5.1740e+01	19.2733	76.376552	0.000274	2.736630	0.927195	-0.000110
 522	5.1840e+01	19.2380	76.299847	0.000193	1.925776	0.652471	-0.000077
 523	5.1939e+01	19.2059	76.158547	0.000355	3.547483	1.201920	-0.000142
 524	5.2038e+01	19.1545	76.053582	0.000264	2.635273	0.892855	-0.000105
 525	5.2138e+01	19.1096	75.940542	0.000284	2.837986	0.961536	-0.000114
 526	5.2237e+01	19.0759	75.811353	0.000324	3.243413	1.098898	-0.000130
 527	5.2337e+01	19.0406	75.746759	0.000162	1.621706	0.549449	-0.000065
 528	5.2437e+01	18.9941	75.625645	0.000304	3.040699	1.030217	-0.000122
 529	5.2536e+01	18.9636	75.557014	0.000172	1.723063	0.583790	-0.000069
 530	5.2636e+01	18.9332	75.399566	0.000395	3.952909	1.339282	-0.000158
 531	5.2735e+01	18.8882	75.355157	0.000111	1.114923	0.377746	-0.000045
 532	5.2834e+01	18.8529	75.266340	0.000223	2.229846	0.755492	-0.000089
 533	5.2934e+01	18.7968	75.145226	0.000304	3.040699	1.030217	-0.000122
 534	5.3033e+01	18.7663	75.056409	0.000223	2.229846	0.755492	-0.000089
 535	5.3133e+01	18.7262	74.955481	0.000253	2.533916	0.858514	-0.000101
 536	5.3233e+01	18.6733	74.890887	0.000162	1.621706	0.549449	-0.000065
 537	5.3332e+01	18.6396	74.789958	0.000253	2.533916	0.858514	-0.000101
 538	5.3431e+01	18.5947	74.725364	0.000162	1.621706	0.549449	-0.000065
 539	5.3531e+01	18.5642	74.600213	0.000314	3.142056	1.064557	-0.000126
 540	5.3630e+01	18.5209	74.547730	0.000132	1.317636	0.446427	-0.000053
 541	5.3730e+01	18.4776	74.434690	0.000284	2.837986	0.961536	-0.000114
 542	5.3830e+01	18.4358	74.321650	0.000284	2.837986	0.961536	-0.000114
 543	5.3929e+01	18.4038	74.204573	0.000294	2.939343	0.995876	-0.000118
 544	5.4029e+01	18.3637	74.103645	0.000253	2.533916	0.858514	-0.000101
 545	5.4128e+01	18.3219	74.002717	0.000253	2.533916	0.858514	-0.000101
 546	5.4227e+01	18.2883	73.869491	0.000334	3.344769	1.133239	-0.000134
 547	5.4327e+01	18.2433	73.780674	0.000223	2.229846	0.755492	-0.000089
 548	5.4426e+01	18.2016	73.679746	0.000253	2.533916	0.858514	-0.000101
 549	5.4526e+01	18.1679	73.574780	0.000264	2.635273	0.892855	-0.000105
 550	5.4626e+01	18.1262	73.485963	0.000223	2.229846	0.755492	-0.000089
 551	5.4725e+01	18.0845	73.405221	0.000203	2.027133	0.686811	-0.000081
 552	5.4825e+01	18.0572	73.300255	0.000264	2.635273	0.892855	-0.000105
 553	5.4924e+01	17.9995	73.199327	0.000253	2.533916	0.858514	-0.000101
 554	5.5023e+01	17.9626	73.142807	0.000142	1.418993	0.480768	-0.000057
 555	5.5123e+01	17.9241	73.033804	0.000274	2.736630	0.927195	-0.000110
 556	5.5222e+01	17.8904	72.969210	0.000162	1.621706	0.549449	-0.000065
 557	5.5322e+01	17.8487	72.884430	0.000213	2.128490	0.721152	-0.000085
 558	5.5422e+01	17.8054	72.767353	0.000294	2.939343	0.995876	-0.000118
 559	5.5521e+01	17.7685	72.634128	0.000334	3.344769	1.133239	-0.000134
 560	5.5620e+01	17.7300	72.553385	0.000203	2.027133	0.686811	-0.000081
 561	5.5720e+01	17.6963	72.452457	0.000253	2.533916	0.858514	-0.000101
 562	5.5819e+01	17.6530	72.270785	0.000456	4.561049	1.545325	-0.000183
 563	5.5919e+01	17.6065	72.177931	0.000233	2.331203	0.789833	-0.000093
 564	5.6019e+01	17.5615	72.024520	0.000385	3.851553	1.304941	-0.000154
 565	5.6118e+01	17.5246	71.980112	0.000111	1.114923	0.377746	-0.000045
 566	5.6218e+01	17.4910	71.846886	0.000334	3.344769	1.133239	-0.000134
 567	5.6317e+01	17.4380	71.741921	0.000264	2.635273	0.892855	-0.000105
 568	5.6416e+01	17.4043	71.645029	0.000243	2.432560	0.824173	-0.000097
 569	5.6516e+01	17.3658	71.523915	0.000304	3.040699	1.030217	-0.000122
 570	5.6615e+01	17.3225	71.447210	0.000193	1.925776	0.652471	-0.000077
 571	5.6715e+01	17.2872	71.305910	0.000355	3.547483	1.201920	-0.000142
 572	5.6815e+01	17.2407	71.237279	0.000172	1.723063	0.583790	-0.000069
 573	5.6914e+01	17.2102	71.128276	0.000274	2.736630	0.927195	-0.000110
 574	5.7014e+01	17.1749	71.067719	0.000152	1.520350	0.515108	-0.000061
 575	5.7113e+01	17.1156	70.970828	0.000243	2.432560	0.824173	-0.000097
 576	5.7212e+01	17.0787	70.829528	0.000355	3.547483	1.201920	-0.000142
 577	5.7312e+01	17.0402	70.752822	0.000193	1.925776	0.652471	-0.000077
 578	5.7411e+01	17.0065	70.619597	0.000334	3.344769	1.133239	-0.000134
 579	5.7511e+01	16.9728	70.498483	0.000304	3.040699	1.030217	-0.000122
 580	5.7611e+01	16.9279	70.389480	0.000274	2.736630	0.927195	-0.000110
 581	5.7710e+01	16.8829	70.272403	0.000294	2.939343	0.995876	-0.000118
 582	5.7809e+01	16.8460	70.106881	0.000416	4.155623	1.407963	-0.000166
 583	5.7909e+01	16.8011	69.985767	0.000304	3.040699	1.030217	-0.000122
 584	5.8008e+01	16.7610	69.860615	0.000314	3.142056	1.064557	-0.000126
 585	5.8108e+01	16.7321	69.743538	0.000294	2.939343	0.995876	-0.000118
 586	5.8208e+01	16.6888	69.626462	0.000294	2.939343	0.995876	-0.000118
 587	5.8307e+01	16.6455	69.525533	0.000253	2.533916	0.858514	-0.000101
 588	5.8407e+01	16.6118	69.440753	0.000213	2.128490	0.721152	-0.000085
 589	5.8506e+01	16.5685	69.303491	0.000345	3.446126	1.167579	-0.000138
 590	5.8605e+01	16.5332	69.218711	0.000213	2.128490	0.721152	-0.000085
 591	5.8705e+01	16.4851	69.125857	0.000233	2.331203	0.789833	-0.000093
 592	5.8804e+01	16.4482	68.996668	0.000324	3.243413	1.098898	-0.000130
 593	5.8904e+01	16.4065	68.911888	0.000213	2.128490	0.721152	-0.000085
 594	5.9004e+01	16.3728	68.782700	0.000324	3.243413	1.098898	-0.000130
 595	5.9103e+01	16.3359	68.685809	0.000243	2.432560	0.824173	-0.000097
 596	5.9203e+01	16.2830	68.580843	0.000264	2.635273	0.892855	-0.000105
 597	5.9302e+01	16.2461	68.475878	0.000264	2.635273	0.892855	-0.000105
 598	5.9401e+01	16.2124	68.342652	0.000334	3.344769	1.133239	-0.000134
 599	5.9501e+01	16.1610	68.185204	0.000395	3.952909	1.339282	-0.000158
 600	5.9600e+01	16.1354	68.043904	0.000355	3.547483	1.201920	-0.000142
 601	5.9700e+01	16.0937	67.947013	0.000243	2.432560	0.824173	-0.000097
 602	5.9800e+01	16.0552	67.821862	0.000314	3.142056	1.064557	-0.000126
 603	5.9899e+01	16.0102	67.704785	0.000294	2.939343	0.995876	-0.000118
 604	5.9998e+01	15.9701	67.535225	0.000426	4.256979	1.442304	-0.000170
 605	6.0098e+01	15.9381	67.470631	0.000162	1.621706	0.549449	-0.000065
 606	6.0197e+01	15.8915	67.353554	0.000294	2.939343	0.995876	-0.000118
 607	6.0297e+01	15.8514	67.256663	0.000243	2.432560	0.824173	-0.000097
 608	6.0397e+01	15.8145	67.179957	0.000193	1.925776	0.652471	-0.000077
 609	6.0496e+01	15.7728	67.066917	0.000284	2.837986	0.961536	-0.000114
 610	6.0596e+01	15.7359	66.961952	0.000264	2.635273	0.892855	-0.000105
 611	6.0695e+01	15.6910	66.840838	0.000304	3.040699	1.030217	-0.000122
 612	6.0794e+01	15.6541	66.743947	0.000243	2.432560	0.824173	-0.000097
 613	6.0894e+01	15.6188	66.618795	0.000314	3.142056	1.064557	-0.000126
 614	6.0993e+01	15.5819	66.497681	0.000304	3.040699	1.030217	-0.000122
 615	6.1093e+01	15.5322	66.372530	0.000314	3.142056	1.064557	-0.000126
 616	6.1193e+01	15.4905	66.255453	0.000294	2.939343	0.995876	-0.000118
 617	6.1292e+01	15.4616	66.134339	0.000304	3.040699	1.030217	-0.000122
 618	6.1392e+01	15.4183	65.968817	0.000416	4.155623	1.407963	-0.000166
 619	6.1491e+01	15.3798	65.827517	0.000355	3.547483	1.201920	-0.000142
 620	6.1590e+01	15.3300	65.750811	0.000193	1.925776	0.652471	-0.000077
 621	6.1690e+01	15.2980	65.609511	0.000355	3.547483	1.201920	-0.000142
 622	6.1789e+01	15.2563	65.557029	0.000132	1.317636	0.446427	-0.000053
 623	6.1889e+01	15.2129	65.411692	0.000365	3.648839	1.236260	-0.000146
 624	6.1989e+01	15.1825	65.278466	0.000334	3.344769	1.133239	-0.000134
 625	6.2088e+01	15.1327	65.234058	0.000111	1.114923	0.377746	-0.000045
 626	6.2188e+01	15.1039	65.108907	0.000314	3.142056	1.064557	-0.000126
 627	6.2287e+01	15.0557	65.012015	0.000243	2.432560	0.824173	-0.000097
 628	6.2386e+01	15.0108	64.890901	0.000304	3.040699	1.030217	-0.000122
 629	6.2486e+01	14.9787	64.729416	0.000405	4.054266	1.373622	-0.000162
 630	6.2586e+01	14.9370	64.660785	0.000172	1.723063	0.583790	-0.000069
 631	6.2685e+01	14.9033	64.571968	0.000223	2.229846	0.755492	-0.000089
 632	6.2785e+01	14.8584	64.386259	0.000466	4.662406	1.579666	-0.000187
 633	6.2884e+01	14.8183	64.277257	0.000274	2.736630	0.927195	-0.000110
 634	6.2983e+01	14.7766	64.115771	0.000405	4.054266	1.373622	-0.000162
 635	6.3083e+01	14.7397	64.055214	0.000152	1.520350	0.515108	-0.000061
 636	6.3182e+01	14.6980	63.865469	0.000476	4.763762	1.614006	-0.000191
 637	6.3282e+01	14.6547	63.764540	0.000253	2.533916	0.858514	-0.000101
 638	6.3382e+01	14.6242	63.655538	0.000274	2.736630	0.927195	-0.000110
 639	6.3481e+01	14.5745	63.498089	0.000395	3.952909	1.339282	-0.000158
 640	6.3581e+01	14.5343	63.381013	0.000294	2.939343	0.995876	-0.000118
 641	6.3680e+01	14.4910	63.272010	0.000274	2.736630	0.927195	-0.000110
 642	6.3779e+01	14.4573	63.126673	0.000365	3.648839	1.236260	-0.000146
 643	6.3879e+01	14.4108	63.054005	0.000182	1.824420	0.618130	-0.000073
 644	6.3978e+01	14.3755	62.949039	0.000264	2.635273	0.892855	-0.000105
 645	6.4078e+01	14.3450	62.835999	0.000284	2.837986	0.961536	-0.000114
 646	6.4177e+01	14.2953	62.735071	0.000253	2.533916	0.858514	-0.000101
 647	6.4277e+01	14.2648	62.654328	0.000203	2.027133	0.686811	-0.000081
 648	6.4376e+01	14.2199	62.480731	0.000436	4.358336	1.476644	-0.000174
 649	6.4476e+01	14.1702	62.379803	0.000253	2.533916	0.858514	-0.000101
 650	6.4576e+01	14.1445	62.246577	0.000334	3.344769	1.133239	-0.000134
 651	6.4675e+01	14.0868	62.145649	0.000253	2.533916	0.858514	-0.000101
 652	6.4775e+01	14.0531	62.028572	0.000294	2.939343	0.995876	-0.000118
 653	6.4874e+01	14.0194	61.895347	0.000334	3.344769	1.133239	-0.000134
 654	6.4974e+01	13.9857	61.766158	0.000324	3.243413	1.098898	-0.000130
 655	6.5073e+01	13.9472	61.600636	0.000416	4.155623	1.407963	-0.000166
 656	6.5172e+01	13.8943	61.495670	0.000264	2.635273	0.892855	-0.000105
 657	6.5272e+01	13.8638	61.309962	0.000466	4.662406	1.579666	-0.000187
 658	6.5371e+01	13.8221	61.184811	0.000314	3.142056	1.064557	-0.000126
 659	6.5471e+01	13.7836	61.075808	0.000274	2.736630	0.927195	-0.000110
 660	6.5570e+01	13.7338	60.918360	0.000395	3.952909	1.339282	-0.000158
 661	6.5670e+01	13.6985	60.841654	0.000193	1.925776	0.652471	-0.000077
 662	6.5769e+01	13.6536	60.740726	0.000253	2.533916	0.858514	-0.000101
 663	6.5869e+01	13.6183	60.611537	0.000324	3.243413	1.098898	-0.000130
 664	6.5969e+01	13.5750	60.502535	0.000274	2.736630	0.927195	-0.000110
 665	6.6068e+01	13.5494	60.385458	0.000294	2.939343	0.995876	-0.000118
 666	6.6168e+01	13.5092	60.284529	0.000253	2.533916	0.858514	-0.000101
 667	6.6267e+01	13.4579	60.171490	0.000284	2.837986	0.961536	-0.000114
 668	6.6367e+01	13.4226	60.005967	0.000416	4.155623	1.407963	-0.000166
 669	6.6466e+01	13.3857	59.965596	0.000101	1.013566	0.343406	-0.000041
 670	6.6566e+01	13.3344	59.808147	0.000395	3.952909	1.339282	-0.000158
 671	6.6665e+01	13.2911	59.711256	0.000243	2.432560	0.824173	-0.000097
 672	6.6764e+01	13.2670	59.565919	0.000365	3.648839	1.236260	-0.000146
 673	6.6864e+01	13.2237	59.412508	0.000385	3.851553	1.304941	-0.000154
 674	6.6963e+01	13.1756	59.267171	0.000365	3.648839	1.236260	-0.000146
 675	6.7063e+01	13.1419	59.117797	0.000375	3.750196	1.270601	-0.000150
 676	6.7162e+01	13.1050	59.045129	0.000182	1.824420	0.618130	-0.000073
 677	6.7262e+01	13.0585	58.887680	0.000395	3.952909	1.339282	-0.000158
 678	6.7362e+01	13.0183	58.746381	0.000355	3.547483	1.201920	-0.000142
 679	6.7461e+01	12.9815	58.649489	0.000243	2.432560	0.824173	-0.000097
 680	6.7561e+01	12.9430	58.576821	0.000182	1.824420	0.618130	-0.000073
 681	6.7660e+01	12.9093	58.479930	0.000243	2.432560	0.824173	-0.000097
 682	6.7760e+01	12.8692	58.326519	0.000385	3.851553	1.304941	-0.000154
 683	6.7859e+01	12.8274	58.237702	0.000223	2.229846	0.755492	-0.000089
 684	6.7959e+01	12.7841	58.068142	0.000426	4.256979	1.442304	-0.000170
 685	6.8058e+01	12.7456	57.963176	0.000264	2.635273	0.892855	-0.000105
 686	6.8157e+01	12.7135	57.842062	0.000304	3.040699	1.030217	-0.000122
 687	6.8257e+01	12.6686	57.672503	0.000426	4.256979	1.442304	-0.000170
 688	6.8356e+01	12.6205	57.587723	0.000213	2.128490	0.721152	-0.000085
 689	6.8456e+01	12.5804	57.458534	0.000324	3.243413	1.098898	-0.000130
 690	6.8555e+01	12.5419	57.357606	0.000253	2.533916	0.858514	-0.000101
 691	6.8655e+01	12.5066	57.212269	0.000365	3.648839	1.236260	-0.000146
 692	6.8754e+01	12.4617	57.075006	0.000345	3.446126	1.167579	-0.000138
 693	6.8854e+01	12.4264	56.937744	0.000345	3.446126	1.167579	-0.000138
 694	6.8954e+01	12.3943	56.796444	0.000355	3.547483	1.201920	-0.000142
 695	6.9053e+01	12.3462	56.663219	0.000334	3.344769	1.133239	-0.000134
 696	6.9153e+01	12.3029	56.542105	0.000304	3.040699	1.030217	-0.000122
 697	6.9252e+01	12.2708	56.400805	0.000355	3.547483	1.201920	-0.000142
 698	6.9352e+01	12.2291	56.271616	0.000324	3.243413	1.098898	-0.000130
 699	6.9451e+01	12.1858	56.170688	0.000253	2.533916	0.858514	-0.000101
 700	6.9550e+01	12.1553	56.093983	0.000193	1.925776	0.652471	-0.000077
 701	6.9650e+01	12.1007	55.952683	0.000355	3.547483	1.201920	-0.000142
 702	6.9749e+01	12.0638	55.827532	0.000314	3.142056	1.064557	-0.000126
 703	6.9849e+01	12.0285	55.710455	0.000294	2.939343	0.995876	-0.000118
 704	6.9948e+01	11.9804	55.593378	0.000294	2.939343	0.995876	-0.000118
 705	7.0048e+01	11.9499	55.427855	0.000416	4.155623	1.407963	-0.000166
 706	7.0147e+01	11.9146	55.306741	0.000304	3.040699	1.030217	-0.000122
 707	7.0247e+01	11.8729	55.185627	0.000304	3.040699	1.030217	-0.000122
 708	7.0347e+01	11.8376	55.048364	0.000345	3.446126	1.167579	-0.000138
 709	7.0446e+01	11.7863	54.890916	0.000395	3.952909	1.339282	-0.000158
 710	7.0546e+01	11.7494	54.802099	0.000223	2.229846	0.755492	-0.000089
 711	7.0645e+01	11.7109	54.612354	0.000476	4.763762	1.614006	-0.000191
 712	7.0745e+01	11.6676	54.434720	0.000446	4.459693	1.510985	-0.000179
 713	7.0844e+01	11.6307	54.337828	0.000243	2.432560	0.824173	-0.000097
 714	7.0944e+01	11.5890	54.236900	0.000253	2.533916	0.858514	-0.000101
 715	7.1043e+01	11.5489	54.067340	0.000426	4.256979	1.442304	-0.000170
 716	7.1142e+01	11.5056	53.982561	0.000213	2.128490	0.721152	-0.000085
 717	7.1242e+01	11.4719	53.897781	0.000213	2.128490	0.721152	-0.000085
 718	7.1341e+01	11.4253	53.744370	0.000385	3.851553	1.304941	-0.000154
 719	7.1441e+01	11.3901	53.603070	0.000355	3.547483	1.201920	-0.000142
 720	7.1540e+01	11.3580	53.477919	0.000314	3.142056	1.064557	-0.000126
 721	7.1640e+01	11.3098	53.336619	0.000355	3.547483	1.201920	-0.000142
 722	7.1740e+01	11.2745	53.223579	0.000284	2.837986	0.961536	-0.000114
 723	7.1839e+01	11.2328	53.106502	0.000294	2.939343	0.995876	-0.000118
 724	7.1939e+01	11.1799	52.961165	0.000365	3.648839	1.236260	-0.000146
 725	7.2038e+01	11.1494	52.819865	0.000355	3.547483	1.201920	-0.000142
 726	7.2138e+01	11.1077	52.682603	0.000345	3.446126	1.167579	-0.000138
 727	7.2237e+01	11.0788	52.529192	0.000385	3.851553	1.304941	-0.000154
 728	7.2337e+01	11.0275	52.375780	0.000385	3.851553	1.304941	-0.000154
 729	7.2436e+01	10.9938	52.226406	0.000375	3.750196	1.270601	-0.000150
 730	7.2535e+01	10.9489	52.068958	0.000395	3.952909	1.339282	-0.000158
 731	7.2635e+01	10.9136	51.951881	0.000294	2.939343	0.995876	-0.000118
 732	7.2734e+01	10.8591	51.778284	0.000436	4.358336	1.476644	-0.000174
 733	7.2834e+01	10.8350	51.681393	0.000243	2.432560	0.824173	-0.000097
 734	7.2933e+01	10.7965	51.519908	0.000405	4.054266	1.373622	-0.000162
 735	7.3033e+01	10.7580	51.394757	0.000314	3.142056	1.064557	-0.000126
 736	7.3132e+01	10.7147	51.277680	0.000294	2.939343	0.995876	-0.000118
 737	7.3232e+01	10.6730	51.172714	0.000264	2.635273	0.892855	-0.000105
 738	7.3332e+01	10.6457	50.995080	0.000446	4.459693	1.510985	-0.000179
 739	7.3431e+01	10.5960	50.865892	0.000324	3.243413	1.098898	-0.000130
 740	7.3531e+01	10.5559	50.700369	0.000416	4.155623	1.407963	-0.000166
 741	7.3630e+01	10.5157	50.567144	0.000334	3.344769	1.133239	-0.000134
 742	7.3730e+01	10.4708	50.421807	0.000365	3.648839	1.236260	-0.000146
 743	7.3829e+01	10.4195	50.320878	0.000253	2.533916	0.858514	-0.000101
 744	7.3928e+01	10.3874	50.139207	0.000456	4.561049	1.545325	-0.000183
 745	7.4028e+01	10.3553	49.977722	0.000405	4.054266	1.373622	-0.000162
 746	7.4127e+01	10.3184	49.868719	0.000274	2.736630	0.927195	-0.000110
 747	7.4227e+01	10.2751	49.691085	0.000446	4.459693	1.510985	-0.000179
 748	7.4326e+01	10.2366	49.537674	0.000385	3.851553	1.304941	-0.000154
 749	7.4426e+01	10.1965	49.380226	0.000395	3.952909	1.339282	-0.000158
 750	7.4525e+01	10.1516	49.247000	0.000334	3.344769	1.133239	-0.000134
 751	7.4625e+01	10.1131	49.158183	0.000223	2.229846	0.755492	-0.000089
 752	7.4725e+01	10.0730	48.988624	0.000426	4.256979	1.442304	-0.000170
 753	7.4824e+01	10.0361	48.887695	0.000253	2.533916	0.858514	-0.000101
 754	7.4924e+01	9.9976	48.758507	0.000324	3.243413	1.098898	-0.000130
 755	7.5023e+01	9.9478	48.597021	0.000405	4.054266	1.373622	-0.000162
 756	7.5123e+01	9.9093	48.479945	0.000294	2.939343	0.995876	-0.000118
 757	7.5222e+01	9.8773	48.338645	0.000355	3.547483	1.201920	-0.000142
 758	7.5322e+01	9.8323	48.169085	0.000426	4.256979	1.442304	-0.000170
 759	7.5421e+01	9.7954	48.047971	0.000304	3.040699	1.030217	-0.000122
 760	7.5520e+01	9.7569	47.898597	0.000375	3.750196	1.270601	-0.000150
 761	7.5620e+01	9.7152	47.749223	0.000375	3.750196	1.270601	-0.000150
 762	7.5719e+01	9.6767	47.615997	0.000334	3.344769	1.133239	-0.000134
 763	7.5819e+01	9.6382	47.426252	0.000476	4.763762	1.614006	-0.000191
 764	7.5918e+01	9.6061	47.264767	0.000405	4.054266	1.373622	-0.000162
 765	7.6018e+01	9.5612	47.095207	0.000426	4.256979	1.442304	-0.000170
 766	7.6118e+01	9.5243	46.961981	0.000334	3.344769	1.133239	-0.000134
 767	7.6217e+01	9.4730	46.808570	0.000385	3.851553	1.304941	-0.000154
 768	7.6317e+01	9.4473	46.639011	0.000426	4.256979	1.442304	-0.000170
 769	7.6416e+01	9.3928	46.534045	0.000264	2.635273	0.892855	-0.000105
 770	7.6516e+01	9.3559	46.352374	0.000456	4.561049	1.545325	-0.000183
 771	7.6615e+01	9.3190	46.235297	0.000294	2.939343	0.995876	-0.000118
 772	7.6715e+01	9.2757	46.085923	0.000375	3.750196	1.270601	-0.000150
 773	7.6814e+01	9.2372	45.948660	0.000345	3.446126	1.167579	-0.000138
 774	7.6913e+01	9.1906	45.831583	0.000294	2.939343	0.995876	-0.000118
 775	7.7013e+01	9.1554	45.678172	0.000385	3.851553	1.304941	-0.000154
 776	7.7112e+01	9.1104	45.544947	0.000334	3.344769	1.133239	-0.000134
 777	7.7212e+01	9.0784	45.383461	0.000405	4.054266	1.373622	-0.000162
 778	7.7311e+01	9.0447	45.266384	0.000294	2.939343	0.995876	-0.000118
 779	7.7411e+01	9.0062	45.108936	0.000395	3.952909	1.339282	-0.000158
 780	7.7510e+01	8.9596	44.911117	0.000497	4.966476	1.682688	-0.000199
 781	7.7610e+01	8.9179	44.757705	0.000385	3.851553	1.304941	-0.000154
 782	7.7710e+01	8.8778	44.600257	0.000395	3.952909	1.339282	-0.000158
 783	7.7809e+01	8.8409	44.450883	0.000375	3.750196	1.270601	-0.000150
 784	7.7909e+01	8.7944	44.317658	0.000334	3.344769	1.133239	-0.000134
 785	7.8008e+01	8.7575	44.160209	0.000395	3.952909	1.339282	-0.000158
 786	7.8108e+01	8.7174	44.002761	0.000395	3.952909	1.339282	-0.000158
 787	7.8207e+01	8.6805	43.849350	0.000385	3.851553	1.304941	-0.000154
 788	7.8306e+01	8.6404	43.736310	0.000284	2.837986	0.961536	-0.000114
 789	7.8406e+01	8.5987	43.595010	0.000355	3.547483	1.201920	-0.000142
 790	7.8505e+01	8.5650	43.441599	0.000385	3.851553	1.304941	-0.000154
 791	7.8605e+01	8.5361	43.308374	0.000334	3.344769	1.133239	-0.000134
 792	7.8704e+01	8.4752	43.195334	0.000284	2.837986	0.961536	-0.000114
 793	7.8804e+01	8.4399	43.037886	0.000395	3.952909	1.339282	-0.000158
 794	7.8903e+01	8.4062	42.852177	0.000466	4.662406	1.579666	-0.000187
 795	7.9003e+01	8.3597	42.722989	0.000324	3.243413	1.098898	-0.000130
 796	7.9103e+01	8.3292	42.553429	0.000426	4.256979	1.442304	-0.000170
 797	7.9202e+01	8.2875	42.412129	0.000355	3.547483	1.201920	-0.000142
 798	7.9302e+01	8.2425	42.258718	0.000385	3.851553	1.304941	-0.000154
 799	7.9401e+01	8.2105	42.028602	0.000578	5.777329	1.957412	-0.000231
 800	7.9501e+01	8.1623	41.883265	0.000365	3.648839	1.236260	-0.000146
 801	7.9600e+01	8.1206	41.713705	0.000426	4.256979	1.442304	-0.000170
 802	7.9700e+01	8.0901	41.511848	0.000507	5.067832	1.717028	-0.000203
 803	7.9799e+01	8.0468	41.374586	0.000345	3.446126	1.167579	-0.000138
 804	7.9898e+01	8.0051	41.225212	0.000375	3.750196	1.270601	-0.000150
 805	7.9998e+01	7.9666	41.059689	0.000416	4.155623	1.407963	-0.000166
 806	8.0097e+01	7.9217	40.922426	0.000345	3.446126	1.167579	-0.000138
 807	8.0197e+01	7.8784	40.760941	0.000405	4.054266	1.373622	-0.000162
 808	8.0296e+01	7.8495	40.627715	0.000334	3.344769	1.133239	-0.000134
 809	8.0396e+01	7.8078	40.474304	0.000385	3.851553	1.304941	-0.000154
 810	8.0496e+01	7.7693	40.341079	0.000334	3.344769	1.133239	-0.000134
 811	8.0595e+01	7.7228	40.187668	0.000385	3.851553	1.304941	-0.000154
 812	8.0695e+01	7.6891	40.005997	0.000456	4.561049	1.545325	-0.000183
 813	8.0794e+01	7.6426	39.892957	0.000284	2.837986	0.961536	-0.000114
 814	8.0894e+01	7.6137	39.751657	0.000355	3.547483	1.201920	-0.000142
 815	8.0993e+01	7.5624	39.533652	0.000547	5.473259	1.854390	-0.000219
 816	8.1093e+01	7.5287	39.404463	0.000324	3.243413	1.098898	-0.000130
 817	8.1192e+01	7.4773	39.251052	0.000385	3.851553	1.304941	-0.000154
 818	8.1291e+01	7.4468	39.109752	0.000355	3.547483	1.201920	-0.000142
 819	8.1391e+01	7.4180	38.883673	0.000568	5.675972	1.923071	-0.000227
 820	8.1490e+01	7.3602	38.726225	0.000395	3.952909	1.339282	-0.000158
 821	8.1590e+01	7.3313	38.556665	0.000426	4.256979	1.442304	-0.000170
 822	8.1689e+01	7.2961	38.399217	0.000395	3.952909	1.339282	-0.000158
 823	8.1789e+01	7.2527	38.233694	0.000416	4.155623	1.407963	-0.000166
 824	8.1888e+01	7.1998	38.112580	0.000304	3.040699	1.030217	-0.000122
 825	8.1988e+01	7.1629	37.906686	0.000517	5.169189	1.751369	-0.000207
 826	8.2088e+01	7.1292	37.753275	0.000385	3.851553	1.304941	-0.000154
 827	8.2187e+01	7.0763	37.652346	0.000253	2.533916	0.858514	-0.000101
 828	8.2287e+01	7.0410	37.450490	0.000507	5.067832	1.717028	-0.000203
 829	8.2386e+01	7.0009	37.345524	0.000264	2.635273	0.892855	-0.000105
 830	8.2486e+01	6.9608	37.184039	0.000405	4.054266	1.373622	-0.000162
 831	8.2585e+01	6.9271	37.022553	0.000405	4.054266	1.373622	-0.000162
 832	8.2684e+01	6.8822	36.848956	0.000436	4.358336	1.476644	-0.000174
 833	8.2784e+01	6.8404	36.679397	0.000426	4.256979	1.442304	-0.000170
 834	8.2883e+01	6.8132	36.534060	0.000365	3.648839	1.236260	-0.000146
 835	8.2983e+01	6.7570	36.348352	0.000466	4.662406	1.579666	-0.000187
 836	8.3082e+01	6.7346	36.186866	0.000405	4.054266	1.373622	-0.000162
 837	8.3182e+01	6.6897	36.009232	0.000446	4.459693	1.510985	-0.000179
 838	8.3281e+01	6.6560	35.807375	0.000507	5.067832	1.717028	-0.000203
 839	8.3381e+01	6.6046	35.666076	0.000355	3.547483	1.201920	-0.000142
 840	8.3481e+01	6.5629	35.524776	0.000355	3.547483	1.201920	-0.000142
 841	8.3580e+01	6.5372	35.343105	0.000456	4.561049	1.545325	-0.000183
 842	8.3680e+01	6.4923	35.185657	0.000395	3.952909	1.339282	-0.000158
 843	8.3779e+01	6.4538	35.040320	0.000365	3.648839	1.236260	-0.000146
 844	8.3879e+01	6.4250	34.878834	0.000405	4.054266	1.373622	-0.000162
 845	8.3978e+01	6.3704	34.749646	0.000324	3.243413	1.098898	-0.000130
 846	8.4078e+01	6.3399	34.584123	0.000416	4.155623	1.407963	-0.000166
 847	8.4177e+01	6.2886	34.438786	0.000365	3.648839	1.236260	-0.000146
 848	8.4276e+01	6.2597	34.273264	0.000416	4.155623	1.407963	-0.000166
 849	8.4376e+01	6.2164	34.107741	0.000416	4.155623	1.407963	-0.000166
 850	8.4475e+01	6.1715	33.974516	0.000334	3.344769	1.133239	-0.000134
 851	8.4575e+01	6.1362	33.800919	0.000436	4.358336	1.476644	-0.000174
 852	8.4674e+01	6.0913	33.623285	0.000446	4.459693	1.510985	-0.000179
 853	8.4774e+01	6.0480	33.481985	0.000355	3.547483	1.201920	-0.000142
 854	8.4874e+01	6.0159	33.324537	0.000395	3.952909	1.339282	-0.000158
 855	8.4973e+01	5.9661	33.118643	0.000517	5.169189	1.751369	-0.000207
 856	8.5073e+01	5.9421	33.001566	0.000294	2.939343	0.995876	-0.000118
 857	8.5172e+01	5.8875	32.884489	0.000294	2.939343	0.995876	-0.000118
 858	8.5272e+01	5.8506	32.601890	0.000709	7.094965	2.403839	-0.000284
 859	8.5371e+01	5.8202	32.468664	0.000334	3.344769	1.133239	-0.000134
 860	8.5471e+01	5.7752	32.319290	0.000375	3.750196	1.270601	-0.000150
 861	8.5570e+01	5.7367	32.145693	0.000436	4.358336	1.476644	-0.000174
 862	8.5669e+01	5.6950	31.964022	0.000456	4.561049	1.545325	-0.000183
 863	8.5769e+01	5.6597	31.838871	0.000314	3.142056	1.064557	-0.000126
 864	8.5868e+01	5.6100	31.733905	0.000264	2.635273	0.892855	-0.000105
 865	8.5968e+01	5.5699	31.515900	0.000547	5.473259	1.854390	-0.000219
 866	8.6067e+01	5.5266	31.289821	0.000568	5.675972	1.923071	-0.000227
 867	8.6167e+01	5.4913	31.132372	0.000395	3.952909	1.339282	-0.000158
 868	8.6266e+01	5.4592	30.930515	0.000507	5.067832	1.717028	-0.000203
 869	8.6366e+01	5.4223	30.712510	0.000547	5.473259	1.854390	-0.000219
 870	8.6466e+01	5.3758	30.522765	0.000476	4.763762	1.614006	-0.000191
 871	8.6565e+01	5.3309	30.268425	0.000639	6.385469	2.163455	-0.000256
 872	8.6665e+01	5.2988	30.078680	0.000476	4.763762	1.614006	-0.000191
 873	8.6764e+01	5.2635	29.800117	0.000699	6.993609	2.369499	-0.000280
 874	8.6864e+01	5.2218	29.565964	0.000588	5.878686	1.991753	-0.000235
 875	8.6963e+01	5.1817	29.343921	0.000557	5.574616	1.888731	-0.000223
 876	8.7063e+01	5.1368	29.174361	0.000426	4.256979	1.442304	-0.000170
 877	8.7162e+01	5.0902	28.956356	0.000547	5.473259	1.854390	-0.000219
 878	8.7261e+01	5.0517	28.819093	0.000345	3.446126	1.167579	-0.000138
 879	8.7361e+01	5.0261	28.564754	0.000639	6.385469	2.163455	-0.000256
 880	8.7460e+01	4.9763	28.447677	0.000294	2.939343	0.995876	-0.000118
 881	8.7560e+01	4.9378	28.302340	0.000365	3.648839	1.236260	-0.000146
 882	8.7659e+01	4.8961	28.132780	0.000426	4.256979	1.442304	-0.000170
 883	8.7759e+01	4.8528	28.011666	0.000304	3.040699	1.030217	-0.000122
 884	8.7859e+01	4.8143	27.817884	0.000487	4.865119	1.648347	-0.000195
 885	8.7958e+01	4.7822	27.587767	0.000578	5.777329	1.957412	-0.000231
 886	8.8058e+01	4.7389	27.402059	0.000466	4.662406	1.579666	-0.000187
 887	8.8157e+01	4.6940	27.184053	0.000547	5.473259	1.854390	-0.000219
 888	8.8257e+01	4.6507	26.957974	0.000568	5.675972	1.923071	-0.000227
 889	8.8356e+01	4.6154	26.735931	0.000557	5.574616	1.888731	-0.000223
 890	8.8456e+01	4.5801	26.530038	0.000517	5.169189	1.751369	-0.000207
 891	8.8555e+01	4.5352	26.344329	0.000466	4.662406	1.579666	-0.000187
 892	8.8654e+01	4.4999	26.134398	0.000527	5.270546	1.785709	-0.000211
 893	8.8754e+01	4.4566	25.940616	0.000487	4.865119	1.648347	-0.000195
 894	8.8853e+01	4.4148	25.742796	0.000497	4.966476	1.682688	-0.000199
 895	8.8953e+01	4.3828	25.561125	0.000456	4.561049	1.545325	-0.000183
 896	8.9052e+01	4.3378	25.407714	0.000385	3.851553	1.304941	-0.000154
 897	8.9152e+01	4.2961	25.201820	0.000517	5.169189	1.751369	-0.000207
 898	8.9251e+01	4.2657	25.068594	0.000334	3.344769	1.133239	-0.000134
 899	8.9351e+01	4.2143	24.919220	0.000375	3.750196	1.270601	-0.000150
 900	8.9451e+01	4.1774	24.753698	0.000416	4.155623	1.407963	-0.000166
 901	8.9550e+01	4.1485	24.624509	0.000324	3.243413	1.098898	-0.000130
 902	8.9650e+01	4.0876	24.434764	0.000476	4.763762	1.614006	-0.000191
 903	8.9749e+01	4.0539	24.293464	0.000355	3.547483	1.201920	-0.000142
 904	8.9849e+01	4.0202	24.144090	0.000375	3.750196	1.270601	-0.000150
 905	8.9948e+01	3.9721	23.966456	0.000446	4.459693	1.510985	-0.000179
 906	9.0047e+01	3.9336	23.768637	0.000497	4.966476	1.682688	-0.000199
 907	9.0147e+01	3.9015	23.671745	0.000243	2.432560	0.824173	-0.000097
 908	9.0246e+01	3.8550	23.538520	0.000334	3.344769	1.133239	-0.000134
 909	9.0346e+01	3.8117	23.409332	0.000324	3.243413	1.098898	-0.000130
 910	9.0445e+01	3.7796	23.243809	0.000416	4.155623	1.407963	-0.000166
 911	9.0545e+01	3.7379	23.134806	0.000274	2.736630	0.927195	-0.000110
 912	9.0644e+01	3.7010	22.973321	0.000405	4.054266	1.373622	-0.000162
 913	9.0744e+01	3.6625	22.811835	0.000405	4.054266	1.373622	-0.000162
 914	9.0844e+01	3.6272	22.646313	0.000416	4.155623	1.407963	-0.000166
 915	9.0943e+01	3.5774	22.480790	0.000416	4.155623	1.407963	-0.000166
 916	9.1043e+01	3.5438	22.307194	0.000436	4.358336	1.476644	-0.000174
 917	9.1142e+01	3.4988	22.101300	0.000517	5.169189	1.751369	-0.000207
 918	9.1242e+01	3.4587	21.883294	0.000547	5.473259	1.854390	-0.000219
 919	9.1341e+01	3.4154	21.701623	0.000456	4.561049	1.545325	-0.000183
 920	9.1441e+01	3.3769	21.447284	0.000639	6.385469	2.163455	-0.000256
 921	9.1540e+01	3.3464	21.124313	0.000811	8.108532	2.747245	-0.000325
 922	9.1639e+01	3.3047	20.829602	0.000740	7.399035	2.506861	-0.000296
 923	9.1739e+01	3.2566	20.567188	0.000659	6.588182	2.232137	-0.000264
 924	9.1838e+01	3.2261	20.373406	0.000487	4.865119	1.648347	-0.000195
 925	9.1938e+01	3.1812	20.151363	0.000557	5.574616	1.888731	-0.000223
 926	9.2037e+01	3.1459	19.997952	0.000385	3.851553	1.304941	-0.000154
 927	9.2137e+01	3.0930	19.739575	0.000649	6.486825	2.197796	-0.000260
 928	9.2237e+01	3.0593	19.570015	0.000426	4.256979	1.442304	-0.000170
 929	9.2336e+01	3.0240	19.299527	0.000679	6.790895	2.300818	-0.000272
 930	9.2436e+01	2.9839	19.117856	0.000456	4.561049	1.545325	-0.000183
 931	9.2535e+01	2.9518	18.887740	0.000578	5.777329	1.957412	-0.000231
 932	9.2635e+01	2.9021	18.661660	0.000568	5.675972	1.923071	-0.000227
 933	9.2734e+01	2.8571	18.459803	0.000507	5.067832	1.717028	-0.000203
 934	9.2834e+01	2.8218	18.282169	0.000446	4.459693	1.510985	-0.000179
 935	9.2933e+01	2.7866	18.120684	0.000405	4.054266	1.373622	-0.000162
 936	9.3032e+01	2.7464	17.894604	0.000568	5.675972	1.923071	-0.000227
 937	9.3132e+01	2.6999	17.757342	0.000345	3.446126	1.167579	-0.000138
 938	9.3231e+01	2.6678	17.567596	0.000476	4.763762	1.614006	-0.000191
 939	9.3331e+01	2.6277	17.398036	0.000426	4.256979	1.442304	-0.000170
 940	9.3430e+01	2.5940	17.163883	0.000588	5.878686	1.991753	-0.000235
 941	9.3530e+01	2.5475	16.949914	0.000537	5.371902	1.820050	-0.000215
 942	9.3629e+01	2.5122	16.804578	0.000365	3.648839	1.236260	-0.000146
 943	9.3729e+01	2.4625	16.570424	0.000588	5.878686	1.991753	-0.000235
 944	9.3829e+01	2.4256	16.372604	0.000497	4.966476	1.682688	-0.000199
 945	9.3928e+01	2.3935	16.134413	0.000598	5.980042	2.026093	-0.000239
 946	9.4028e+01	2.3502	15.972928	0.000405	4.054266	1.373622	-0.000162
 947	9.4127e+01	2.3053	15.750885	0.000557	5.574616	1.888731	-0.000223
 948	9.4227e+01	2.2684	15.553065	0.000497	4.966476	1.682688	-0.000199
 949	9.4326e+01	2.2283	15.310837	0.000608	6.081399	2.060434	-0.000243
 950	9.4425e+01	2.1930	15.149352	0.000405	4.054266	1.373622	-0.000162
 951	9.4525e+01	2.1433	14.947495	0.000507	5.067832	1.717028	-0.000203
 952	9.4624e+01	2.1048	14.737564	0.000527	5.270546	1.785709	-0.000211
 953	9.4724e+01	2.0695	14.527633	0.000527	5.270546	1.785709	-0.000211
 954	9.4823e+01	2.0245	14.349999	0.000446	4.459693	1.510985	-0.000179
 955	9.4923e+01	1.9860	14.208699	0.000355	3.547483	1.201920	-0.000142
 956	9.5022e+01	1.9507	13.990694	0.000547	5.473259	1.854390	-0.000219
 957	9.5122e+01	1.9106	13.800949	0.000476	4.763762	1.614006	-0.000191
 958	9.5222e+01	1.8737	13.566795	0.000588	5.878686	1.991753	-0.000235
 959	9.5321e+01	1.8304	13.441643	0.000314	3.142056	1.064557	-0.000126
 960	9.5421e+01	1.7903	13.223638	0.000547	5.473259	1.854390	-0.000219
 961	9.5520e+01	1.7534	13.005633	0.000547	5.473259	1.854390	-0.000219
 962	9.5620e+01	1.7053	12.832036	0.000436	4.358336	1.476644	-0.000174
 963	9.5719e+01	1.6716	12.642291	0.000476	4.763762	1.614006	-0.000191
 964	9.5819e+01	1.6283	12.424285	0.000547	5.473259	1.854390	-0.000219
 965	9.5918e+01	1.5882	12.246651	0.000446	4.459693	1.510985	-0.000179
 966	9.6017e+01	1.5561	11.992312	0.000639	6.385469	2.163455	-0.000256
 967	9.6117e+01	1.5112	11.770269	0.000557	5.574616	1.888731	-0.000223
 968	9.6216e+01	1.4807	11.572450	0.000497	4.966476	1.682688	-0.000199
 969	9.6316e+01	1.4390	11.362519	0.000527	5.270546	1.785709	-0.000211
 970	9.6415e+01	1.3925	11.164699	0.000497	4.966476	1.682688	-0.000199
 971	9.6515e+01	1.3476	10.978991	0.000466	4.662406	1.579666	-0.000187
 972	9.6615e+01	1.3074	10.813468	0.000416	4.155623	1.407963	-0.000166
 973	9.6714e+01	1.2706	10.599500	0.000537	5.371902	1.820050	-0.000215
 974	9.6814e+01	1.2369	10.413792	0.000466	4.662406	1.579666	-0.000187
 975	9.6913e+01	1.1919	10.163489	0.000628	6.284112	2.129115	-0.000252
 976	9.7013e+01	1.1422	9.973744	0.000476	4.763762	1.614006	-0.000191
 977	9.7112e+01	1.1053	9.808221	0.000416	4.155623	1.407963	-0.000166
 978	9.7212e+01	1.0700	9.602327	0.000517	5.169189	1.751369	-0.000207
 979	9.7311e+01	1.0299	9.380285	0.000557	5.574616	1.888731	-0.000223
 980	9.7410e+01	0.9946	9.214762	0.000416	4.155623	1.407963	-0.000166
 981	9.7510e+01	0.9497	9.000794	0.000537	5.371902	1.820050	-0.000215
 982	9.7609e+01	0.9160	8.811049	0.000476	4.763762	1.614006	-0.000191
 983	9.7709e+01	0.8631	8.580932	0.000578	5.777329	1.957412	-0.000231
 984	9.7808e+01	0.8310	8.358890	0.000557	5.574616	1.888731	-0.000223
 985	9.7908e+01	0.7941	8.152996	0.000517	5.169189	1.751369	-0.000207
 986	9.8007e+01	0.7540	7.934990	0.000547	5.473259	1.854390	-0.000219
 987	9.8107e+01	0.7107	7.733134	0.000507	5.067832	1.717028	-0.000203
 988	9.8207e+01	0.6786	7.498980	0.000588	5.878686	1.991753	-0.000235
 989	9.8306e+01	0.6337	7.337494	0.000405	4.054266	1.373622	-0.000162
 990	9.8406e+01	0.5904	7.155823	0.000456	4.561049	1.545325	-0.000183
 991	9.8505e+01	0.5438	6.949929	0.000517	5.169189	1.751369	-0.000207
 992	9.8605e+01	0.5118	6.760184	0.000476	4.763762	1.614006	-0.000191
 993	9.8704e+01	0.4700	6.521993	0.000598	5.980042	2.026093	-0.000239
 994	9.8803e+01	0.4251	6.340322	0.000456	4.561049	1.545325	-0.000183
 995	9.8903e+01	0.3930	6.154613	0.000466	4.662406	1.579666	-0.000187
 996	9.9002e+01	0.3545	5.904311	0.000628	6.284112	2.129115	-0.000252
 997	9.9102e+01	0.3176	5.750900	0.000385	3.851553	1.304941	-0.000154
 998	9.9201e+01	0.2743	5.553080	0.000497	4.966476	1.682688	-0.000199
 999	9.9301e+01	0.2374	5.347186	0.000517	5.169189	1.751369	-0.000207
1000	9.9400e+01	0.1909	5.165515	0.000456	4.561049	1.545325	-0.000183
1001	9.9500e+01	0.1620	4.919250	0.000618	6.182756	2.094774	-0.000248
1002	9.9600e+01	0.1139	4.685096	0.000588	5.878686	1.991753	-0.000235
1003	9.9699e+01	0.0802	4.479202	0.000517	5.169189	1.751369	-0.000207
1004	9.9799e+01	0.0337	4.249085	0.000578	5.777329	1.957412	-0.000231
1005	9.9898e+01	0.0096	4.099711	0.000375	3.750196	1.270601	-0.000150
1006	9.9998e+01	-0.0321	3.893817	0.000517	5.169189	1.751369	-0.000207
1007	1.0010e+02	-0.0786	3.720221	0.000436	4.358336	1.476644	-0.000174
1008	1.0020e+02	-0.1187	3.498178	0.000557	5.574616	1.888731	-0.000223
1009	1.0030e+02	-0.1588	3.324581	0.000436	4.358336	1.476644	-0.000174
1010	1.0040e+02	-0.1957	3.163096	0.000405	4.054266	1.373622	-0.000162
1011	1.0050e+02	-0.2406	2.924905	0.000598	5.980042	2.026093	-0.000239
1012	1.0059e+02	-0.2775	2.719011	0.000517	5.169189	1.751369	-0.000207
1013	1.0069e+02	-0.3128	2.509080	0.000527	5.270546	1.785709	-0.000211
1014	1.0079e+02	-0.3626	2.351632	0.000395	3.952909	1.339282	-0.000158
1015	1.0089e+02	-0.3978	2.109403	0.000608	6.081399	2.060434	-0.000243
1016	1.0099e+02	-0.4396	1.830841	0.000699	6.993609	2.369499	-0.000280
1017	1.0109e+02	-0.4716	1.620910	0.000527	5.270546	1.785709	-0.000211
1018	1.0119e+02	-0.5150	1.374645	0.000618	6.182756	2.094774	-0.000248
1019	1.0129e+02	-0.5519	1.152602	0.000557	5.574616	1.888731	-0.000223
1020	1.0139e+02	-0.6048	0.910374	0.000608	6.081399	2.060434	-0.000243
1021	1.0149e+02	-0.6240	0.704480	0.000517	5.169189	1.751369	-0.000207
1022	1.0159e+02	-0.6674	0.502623	0.000507	5.067832	1.717028	-0.000203
1023	1.0169e+02	-0.7171	0.308841	0.000487	4.865119	1.648347	-0.000195
1024	1.0179e+02	-0.7556	0.119096	0.000476	4.763762	1.614006	-0.000191
1025	1.0189e+02	-0.7973	-0.111021	0.000578	5.777329	1.957412	-0.000231
1026	1.0199e+02	-0.8390	-0.284618	0.000436	4.358336	1.476644	-0.000174
1027	1.0209e+02	-0.8743	-0.490512	0.000517	5.169189	1.751369	-0.000207
1028	1.0219e+02	-0.9096	-0.716592	0.000568	5.675972	1.923071	-0.000227
1029	1.0229e+02	-0.9593	-0.902300	0.000466	4.662406	1.579666	-0.000187
1030	1.0239e+02	-0.9930	-1.140491	0.000598	5.980042	2.026093	-0.000239
1031	1.0248e+02	-1.0379	-1.338310	0.000497	4.966476	1.682688	-0.000199
1032	1.0258e+02	-1.0796	-1.560353	0.000557	5.574616	1.888731	-0.000223
1033	1.0268e+02	-1.1149	-1.762210	0.000507	5.067832	1.717028	-0.000203
1034	1.0278e+02	-1.1518	-1.972141	0.000527	5.270546	1.785709	-0.000211
1035	1.0288e+02	-1.1984	-2.157849	0.000466	4.662406	1.579666	-0.000187
1036	1.0298e+02	-1.2224	-2.363743	0.000517	5.169189	1.751369	-0.000207
1037	1.0308e+02	-1.2689	-2.593860	0.000578	5.777329	1.957412	-0.000231
1038	1.0318e+02	-1.3107	-2.815902	0.000557	5.574616	1.888731	-0.000223
1039	1.0328e+02	-1.3492	-3.021796	0.000517	5.169189	1.751369	-0.000207
1040	1.0338e+02	-1.3845	-3.251913	0.000578	5.777329	1.957412	-0.000231
1041	1.0348e+02	-1.4358	-3.477992	0.000568	5.675972	1.923071	-0.000227
1042	1.0358e+02	-1.4759	-3.623329	0.000365	3.648839	1.236260	-0.000146
1043	1.0368e+02	-1.5096	-3.865557	0.000608	6.081399	2.060434	-0.000243
1044	1.0378e+02	-1.5545	-4.063377	0.000497	4.966476	1.682688	-0.000199
1045	1.0388e+02	-1.5962	-4.208714	0.000365	3.648839	1.236260	-0.000146
1046	1.0398e+02	-1.6283	-4.422682	0.000537	5.371902	1.820050	-0.000215
1047	1.0408e+02	-1.6732	-4.632613	0.000527	5.270546	1.785709	-0.000211
1048	1.0418e+02	-1.7037	-4.818322	0.000466	4.662406	1.579666	-0.000187
1049	1.0428e+02	-1.7502	-5.040364	0.000557	5.574616	1.888731	-0.000223
1050	1.0438e+02	-1.7791	-5.217998	0.000446	4.459693	1.510985	-0.000179
1051	1.0447e+02	-1.8352	-5.480412	0.000659	6.588182	2.232137	-0.000264
1052	1.0457e+02	-1.8689	-5.637860	0.000395	3.952909	1.339282	-0.000158
1053	1.0467e+02	-1.9122	-5.872014	0.000588	5.878686	1.991753	-0.000235
1054	1.0477e+02	-1.9572	-6.102131	0.000578	5.777329	1.957412	-0.000231
1055	1.0487e+02	-1.9860	-6.308025	0.000517	5.169189	1.751369	-0.000207
1056	1.0497e+02	-2.0261	-6.517956	0.000527	5.270546	1.785709	-0.000211
1057	1.0507e+02	-2.0727	-6.756147	0.000598	5.980042	2.026093	-0.000239
1058	1.0517e+02	-2.1048	-6.962041	0.000517	5.169189	1.751369	-0.000207
1059	1.0527e+02	-2.1400	-7.127563	0.000416	4.155623	1.407963	-0.000166
1060	1.0537e+02	-2.1850	-7.357680	0.000578	5.777329	1.957412	-0.000231
1061	1.0547e+02	-2.2235	-7.559537	0.000507	5.067832	1.717028	-0.000203
1062	1.0557e+02	-2.2700	-7.741208	0.000456	4.561049	1.545325	-0.000183
1063	1.0567e+02	-2.3101	-7.943065	0.000507	5.067832	1.717028	-0.000203
1064	1.0577e+02	-2.3518	-8.161070	0.000547	5.473259	1.854390	-0.000219
1065	1.0587e+02	-2.3839	-8.375038	0.000537	5.371902	1.820050	-0.000215
1066	1.0597e+02	-2.4208	-8.580932	0.000517	5.169189	1.751369	-0.000207
1067	1.0607e+02	-2.4609	-8.827197	0.000618	6.182756	2.094774	-0.000248
1068	1.0617e+02	-2.5138	-8.992720	0.000416	4.155623	1.407963	-0.000166
1069	1.0627e+02	-2.5523	-9.259171	0.000669	6.689539	2.266477	-0.000268
1070	1.0637e+02	-2.5892	-9.408545	0.000375	3.750196	1.270601	-0.000150
1071	1.0647e+02	-2.6342	-9.670959	0.000659	6.588182	2.232137	-0.000264
1072	1.0656e+02	-2.6598	-9.852630	0.000456	4.561049	1.545325	-0.000183
1073	1.0666e+02	-2.6983	-10.078709	0.000568	5.675972	1.923071	-0.000227
1074	1.0676e+02	-2.7464	-10.349197	0.000679	6.790895	2.300818	-0.000272
1075	1.0686e+02	-2.7833	-10.518757	0.000426	4.256979	1.442304	-0.000170
1076	1.0696e+02	-2.8283	-10.732725	0.000537	5.371902	1.820050	-0.000215
1077	1.0706e+02	-2.8571	-10.934582	0.000507	5.067832	1.717028	-0.000203
1078	1.0716e+02	-2.9069	-11.120290	0.000466	4.662406	1.579666	-0.000187
1079	1.0726e+02	-2.9518	-11.326184	0.000517	5.169189	1.751369	-0.000207
1080	1.0736e+02	-2.9935	-11.471521	0.000365	3.648839	1.236260	-0.000146
1081	1.0746e+02	-3.0288	-11.685489	0.000537	5.371902	1.820050	-0.000215
1082	1.0756e+02	-3.0625	-11.931755	0.000618	6.182756	2.094774	-0.000248
1083	1.0766e+02	-3.1122	-12.125537	0.000487	4.865119	1.648347	-0.000195
1084	1.0776e+02	-3.1459	-12.351617	0.000568	5.675972	1.923071	-0.000227
1085	1.0786e+02	-3.1860	-12.517139	0.000416	4.155623	1.407963	-0.000166
1086	1.0796e+02	-3.2309	-12.763405	0.000618	6.182756	2.094774	-0.000248
1087	1.0806e+02	-3.2662	-12.932964	0.000426	4.256979	1.442304	-0.000170
1088	1.0816e+02	-3.2983	-13.187304	0.000639	6.385469	2.163455	-0.000256
1089	1.0826e+02	-3.3448	-13.393198	0.000517	5.169189	1.751369	-0.000207
1090	1.0836e+02	-3.3785	-13.627352	0.000588	5.878686	1.991753	-0.000235
1091	1.0845e+02	-3.4218	-13.821134	0.000487	4.865119	1.648347	-0.000195
1092	1.0855e+02	-3.4619	-14.043177	0.000557	5.574616	1.888731	-0.000223
1093	1.0865e+02	-3.5020	-14.208699	0.000416	4.155623	1.407963	-0.000166
1094	1.0875e+02	-3.5454	-14.410556	0.000507	5.067832	1.717028	-0.000203
1095	1.0885e+02	-3.5823	-14.580116	0.000426	4.256979	1.442304	-0.000170
1096	1.0895e+02	-3.6159	-14.786010	0.000517	5.169189	1.751369	-0.000207
1097	1.0905e+02	-3.6657	-14.967681	0.000456	4.561049	1.545325	-0.000183
1098	1.0915e+02	-3.7074	-15.209909	0.000608	6.081399	2.060434	-0.000243
1099	1.0925e+02	-3.7411	-15.423877	0.000537	5.371902	1.820050	-0.000215
1100	1.0935e+02	-3.7876	-15.617660	0.000487	4.865119	1.648347	-0.000195
1101	1.0945e+02	-3.8245	-15.851813	0.000588	5.878686	1.991753	-0.000235
1102	1.0955e+02	-3.8598	-16.033485	0.000456	4.561049	1.545325	-0.000183
1103	1.0965e+02	-3.9159	-16.263601	0.000578	5.777329	1.957412	-0.000231
1104	1.0975e+02	-3.9352	-16.445272	0.000456	4.561049	1.545325	-0.000183
1105	1.0985e+02	-3.9945	-16.667315	0.000557	5.574616	1.888731	-0.000223
1106	1.0995e+02	-4.0186	-16.881283	0.000537	5.371902	1.820050	-0.000215
1107	1.1005e+02	-4.0523	-17.062954	0.000456	4.561049	1.545325	-0.000183
1108	1.1015e+02	-4.1052	-17.289034	0.000568	5.675972	1.923071	-0.000227
1109	1.1025e+02	-4.1502	-17.494928	0.000517	5.169189	1.751369	-0.000207
1110	1.1035e+02	-4.1870	-17.700822	0.000517	5.169189	1.751369	-0.000207
1111	1.1044e+02	-4.2255	-17.902678	0.000507	5.067832	1.717028	-0.000203
1112	1.1054e+02	-4.2673	-18.088387	0.000466	4.662406	1.579666	-0.000187
1113	1.1064e+02	-4.3042	-18.266021	0.000446	4.459693	1.510985	-0.000179
1114	1.1074e+02	-4.3394	-18.504212	0.000598	5.980042	2.026093	-0.000239
1115	1.1084e+02	-4.3812	-18.681846	0.000446	4.459693	1.510985	-0.000179
1116	1.1094e+02	-4.4277	-18.863517	0.000456	4.561049	1.545325	-0.000183
1117	1.1104e+02	-4.4630	-19.057299	0.000487	4.865119	1.648347	-0.000195
1118	1.1114e+02	-4.4951	-19.251082	0.000487	4.865119	1.648347	-0.000195
1119	1.1124e+02	-4.5448	-19.420641	0.000426	4.256979	1.442304	-0.000170
1120	1.1134e+02	-4.5849	-19.679018	0.000649	6.486825	2.197796	-0.000260
1121	1.1144e+02	-4.6234	-19.836466	0.000395	3.952909	1.339282	-0.000158
1122	1.1154e+02	-4.6587	-20.058509	0.000557	5.574616	1.888731	-0.000223
1123	1.1164e+02	-4.7020	-20.268440	0.000527	5.270546	1.785709	-0.000211
1124	1.1174e+02	-4.7421	-20.474334	0.000517	5.169189	1.751369	-0.000207
1125	1.1184e+02	-4.7790	-20.684265	0.000527	5.270546	1.785709	-0.000211
1126	1.1194e+02	-4.8127	-20.902270	0.000547	5.473259	1.854390	-0.000219
1127	1.1204e+02	-4.8608	-21.096053	0.000487	4.865119	1.648347	-0.000195
1128	1.1214e+02	-4.9025	-21.253501	0.000395	3.952909	1.339282	-0.000158
1129	1.1224e+02	-4.9378	-21.431135	0.000446	4.459693	1.510985	-0.000179
1130	1.1234e+02	-4.9827	-21.632992	0.000507	5.067832	1.717028	-0.000203
1131	1.1244e+02	-5.0229	-21.859071	0.000568	5.675972	1.923071	-0.000227
1132	1.1253e+02	-5.0678	-21.996334	0.000345	3.446126	1.167579	-0.000138
1133	1.1263e+02	-5.1031	-22.178005	0.000456	4.561049	1.545325	-0.000183
1134	1.1273e+02	-5.1351	-22.391973	0.000537	5.371902	1.820050	-0.000215
1135	1.1283e+02	-5.1753	-22.553459	0.000405	4.054266	1.373622	-0.000162
1136	1.1293e+02	-5.2234	-22.779538	0.000568	5.675972	1.923071	-0.000227
1137	1.1303e+02	-5.2635	-22.973321	0.000487	4.865119	1.648347	-0.000195
1138	1.1313e+02	-5.2956	-23.106546	0.000334	3.344769	1.133239	-0.000134
1139	1.1323e+02	-5.3421	-23.296292	0.000476	4.763762	1.614006	-0.000191
1140	1.1333e+02	-5.3742	-23.538520	0.000608	6.081399	2.060434	-0.000243
1141	1.1343e+02	-5.4143	-23.720191	0.000456	4.561049	1.545325	-0.000183
1142	1.1353e+02	-5.4592	-23.909936	0.000476	4.763762	1.614006	-0.000191
1143	1.1363e+02	-5.4977	-24.103719	0.000487	4.865119	1.648347	-0.000195
1144	1.1373e+02	-5.5314	-24.289427	0.000466	4.662406	1.579666	-0.000187
1145	1.1383e+02	-5.5747	-24.479173	0.000476	4.763762	1.614006	-0.000191
1146	1.1393e+02	-5.6068	-24.640658	0.000405	4.054266	1.373622	-0.000162
1147	1.1403e+02	-5.6581	-24.874812	0.000588	5.878686	1.991753	-0.000235
1148	1.1413e+02	-5.6950	-25.036297	0.000405	4.054266	1.373622	-0.000162
1149	1.1423e+02	-5.7415	-25.185671	0.000375	3.750196	1.270601	-0.000150
1150	1.1433e+02	-5.7801	-25.427899	0.000608	6.081399	2.060434	-0.000243
1151	1.1442e+02	-5.8202	-25.544976	0.000294	2.939343	0.995876	-0.000118
1152	1.1452e+02	-5.8538	-25.722610	0.000446	4.459693	1.510985	-0.000179
1153	1.1462e+02	-5.9020	-25.928504	0.000517	5.169189	1.751369	-0.000207
1154	1.1472e+02	-5.9260	-26.102101	0.000436	4.358336	1.476644	-0.000174
1155	1.1482e+02	-5.9694	-26.275698	0.000436	4.358336	1.476644	-0.000174
1156	1.1492e+02	-6.0111	-26.485629	0.000527	5.270546	1.785709	-0.000211
1157	1.1502e+02	-6.0512	-26.675374	0.000476	4.763762	1.614006	-0.000191
1158	1.1512e+02	-6.0993	-26.840897	0.000416	4.155623	1.407963	-0.000166
1159	1.1522e+02	-6.1298	-27.038717	0.000497	4.966476	1.682688	-0.000199
1160	1.1532e+02	-6.1747	-27.188091	0.000375	3.750196	1.270601	-0.000150
1161	1.1542e+02	-6.2100	-27.406096	0.000547	5.473259	1.854390	-0.000219
1162	1.1552e+02	-6.2565	-27.595841	0.000476	4.763762	1.614006	-0.000191
1163	1.1562e+02	-6.3030	-27.757327	0.000405	4.054266	1.373622	-0.000162
1164	1.1572e+02	-6.3479	-27.967258	0.000527	5.270546	1.785709	-0.000211
1165	1.1582e+02	-6.3784	-28.120669	0.000385	3.851553	1.304941	-0.000154
1166	1.1592e+02	-6.4153	-28.286192	0.000416	4.155623	1.407963	-0.000166
1167	1.1602e+02	-6.4490	-28.463826	0.000446	4.459693	1.510985	-0.000179
1168	1.1612e+02	-6.4955	-28.609162	0.000365	3.648839	1.236260	-0.000146
1169	1.1622e+02	-6.5260	-28.778722	0.000426	4.256979	1.442304	-0.000170
1170	1.1632e+02	-6.5661	-28.940208	0.000405	4.054266	1.373622	-0.000162
1171	1.1642e+02	-6.6078	-29.133990	0.000487	4.865119	1.648347	-0.000195
1172	1.1651e+02	-6.6367	-29.307587	0.000436	4.358336	1.476644	-0.000174
1173	1.1661e+02	-6.6864	-29.469072	0.000405	4.054266	1.373622	-0.000162
1174	1.1671e+02	-6.7346	-29.634595	0.000416	4.155623	1.407963	-0.000166
1175	1.1681e+02	-6.7699	-29.848563	0.000537	5.371902	1.820050	-0.000215
1176	1.1691e+02	-6.8132	-30.022160	0.000436	4.358336	1.476644	-0.000174
1177	1.1701e+02	-6.8453	-30.159423	0.000345	3.446126	1.167579	-0.000138
1178	1.1711e+02	-6.8806	-30.389539	0.000578	5.777329	1.957412	-0.000231
1179	1.1721e+02	-6.9319	-30.567173	0.000446	4.459693	1.510985	-0.000179
1180	1.1731e+02	-6.9576	-30.744807	0.000446	4.459693	1.510985	-0.000179
1181	1.1741e+02	-7.0009	-30.922441	0.000446	4.459693	1.510985	-0.000179
1182	1.1751e+02	-7.0474	-31.055667	0.000334	3.344769	1.133239	-0.000134
1183	1.1761e+02	-7.0891	-31.209078	0.000385	3.851553	1.304941	-0.000154
1184	1.1771e+02	-7.1340	-31.358452	0.000375	3.750196	1.270601	-0.000150
1185	1.1781e+02	-7.1693	-31.532049	0.000436	4.358336	1.476644	-0.000174
1186	1.1791e+02	-7.1950	-31.725831	0.000487	4.865119	1.648347	-0.000195
1187	1.1801e+02	-7.2479	-31.899428	0.000436	4.358336	1.476644	-0.000174
1188	1.1811e+02	-7.2880	-32.032654	0.000334	3.344769	1.133239	-0.000134
1189	1.1821e+02	-7.3169	-32.258733	0.000568	5.675972	1.923071	-0.000227
1190	1.1831e+02	-7.3682	-32.391959	0.000334	3.344769	1.133239	-0.000134
1191	1.1841e+02	-7.4083	-32.529221	0.000345	3.446126	1.167579	-0.000138
1192	1.1850e+02	-7.4533	-32.731078	0.000507	5.067832	1.717028	-0.000203
1193	1.1860e+02	-7.4870	-32.888526	0.000395	3.952909	1.339282	-0.000158
1194	1.1870e+02	-7.5255	-33.037900	0.000375	3.750196	1.270601	-0.000150
1195	1.1880e+02	-7.5656	-33.211497	0.000436	4.358336	1.476644	-0.000174
1196	1.1890e+02	-7.6025	-33.397205	0.000466	4.662406	1.579666	-0.000187
1197	1.1900e+02	-7.6442	-33.574839	0.000446	4.459693	1.510985	-0.000179
1198	1.1910e+02	-7.6875	-33.788808	0.000537	5.371902	1.820050	-0.000215
1199	1.1920e+02	-7.7228	-33.905884	0.000294	2.939343	0.995876	-0.000118
1200	1.1930e+02	-7.7613	-34.067370	0.000405	4.054266	1.373622	-0.000162
1201	1.1940e+02	-7.8046	-34.212707	0.000365	3.648839	1.236260	-0.000146
1202	1.1950e+02	-7.8447	-34.329784	0.000294	2.939343	0.995876	-0.000118
1203	1.1960e+02	-7.8880	-34.523566	0.000487	4.865119	1.648347	-0.000195
1204	1.1970e+02	-7.9265	-34.705237	0.000456	4.561049	1.545325	-0.000183
1205	1.1980e+02	-7.9714	-34.850574	0.000365	3.648839	1.236260	-0.000146
1206	1.1990e+02	-8.0035	-35.020134	0.000426	4.256979	1.442304	-0.000170
1207	1.2000e+02	-8.0388	-35.177582	0.000395	3.952909	1.339282	-0.000158
1208	1.2010e+02	-8.0901	-35.322919	0.000365	3.648839	1.236260	-0.000146
1209	1.2020e+02	-8.1158	-35.512665	0.000476	4.763762	1.614006	-0.000191
1210	1.2030e+02	-8.1639	-35.686261	0.000436	4.358336	1.476644	-0.000174
1211	1.2039e+02	-8.2040	-35.847747	0.000405	4.054266	1.373622	-0.000162
1212	1.2049e+02	-8.2458	-35.993084	0.000365	3.648839	1.236260	-0.000146
1213	1.2059e+02	-8.2827	-36.203015	0.000527	5.270546	1.785709	-0.000211
1214	1.2069e+02	-8.3179	-36.328166	0.000314	3.142056	1.064557	-0.000126
1215	1.2079e+02	-8.3581	-36.525986	0.000497	4.966476	1.682688	-0.000199
1216	1.2089e+02	-8.3998	-36.711694	0.000466	4.662406	1.579666	-0.000187
1217	1.2099e+02	-8.4431	-36.832808	0.000304	3.040699	1.030217	-0.000122
1218	1.2109e+02	-8.4832	-37.006405	0.000436	4.358336	1.476644	-0.000174
1219	1.2119e+02	-8.5217	-37.107333	0.000253	2.533916	0.858514	-0.000101
1220	1.2129e+02	-8.5554	-37.268819	0.000405	4.054266	1.373622	-0.000162
1221	1.2139e+02	-8.6051	-37.450490	0.000456	4.561049	1.545325	-0.000183
1222	1.2149e+02	-8.6420	-37.595827	0.000365	3.648839	1.236260	-0.000146
1223	1.2159e+02	-8.6789	-37.769423	0.000436	4.358336	1.476644	-0.000174
1224	1.2169e+02	-8.7318	-37.930909	0.000405	4.054266	1.373622	-0.000162
1225	1.2179e+02	-8.7655	-38.047986	0.000294	2.939343	0.995876	-0.000118
1226	1.2189e+02	-8.8024	-38.225620	0.000446	4.459693	1.510985	-0.000179
1227	1.2199e+02	-8.8345	-38.342697	0.000294	2.939343	0.995876	-0.000118
1228	1.2209e+02	-8.8874	-38.532442	0.000476	4.763762	1.614006	-0.000191
1229	1.2219e+02	-8.9276	-38.702002	0.000426	4.256979	1.442304	-0.000170
1230	1.2229e+02	-8.9596	-38.823116	0.000304	3.040699	1.030217	-0.000122
1231	1.2239e+02	-8.9981	-39.037084	0.000537	5.371902	1.820050	-0.000215
1232	1.2248e+02	-9.0382	-39.174347	0.000345	3.446126	1.167579	-0.000138
1233	1.2258e+02	-9.0784	-39.384278	0.000527	5.270546	1.785709	-0.000211
1234	1.2268e+02	-9.1169	-39.549800	0.000416	4.155623	1.407963	-0.000166
1235	1.2278e+02	-9.1586	-39.674951	0.000314	3.142056	1.064557	-0.000126
1236	1.2288e+02	-9.1939	-39.771843	0.000243	2.432560	0.824173	-0.000097
1237	1.2298e+02	-9.2452	-39.961588	0.000476	4.763762	1.614006	-0.000191
1238	1.2308e+02	-9.2837	-40.110962	0.000375	3.750196	1.270601	-0.000150
1239	1.2318e+02	-9.3094	-40.268410	0.000395	3.952909	1.339282	-0.000158
1240	1.2328e+02	-9.3559	-40.421822	0.000385	3.851553	1.304941	-0.000154
1241	1.2338e+02	-9.4072	-40.599456	0.000446	4.459693	1.510985	-0.000179
1242	1.2348e+02	-9.4377	-40.700384	0.000253	2.533916	0.858514	-0.000101
1243	1.2358e+02	-9.4810	-40.890129	0.000476	4.763762	1.614006	-0.000191
1244	1.2368e+02	-9.5243	-41.015281	0.000314	3.142056	1.064557	-0.000126
1245	1.2378e+02	-9.5676	-41.192915	0.000446	4.459693	1.510985	-0.000179
1246	1.2388e+02	-9.6078	-41.326140	0.000334	3.344769	1.133239	-0.000134
1247	1.2398e+02	-9.6398	-41.495700	0.000426	4.256979	1.442304	-0.000170
1248	1.2408e+02	-9.6767	-41.636999	0.000355	3.547483	1.201920	-0.000142
1249	1.2418e+02	-9.7168	-41.790411	0.000385	3.851553	1.304941	-0.000154
1250	1.2428e+02	-9.7537	-41.968045	0.000446	4.459693	1.510985	-0.000179
1251	1.2438e+02	-9.7970	-42.141641	0.000436	4.358336	1.476644	-0.000174
1252	1.2447e+02	-9.8388	-42.319275	0.000446	4.459693	1.510985	-0.000179
1253	1.2457e+02	-9.8821	-42.460575	0.000355	3.547483	1.201920	-0.000142
1254	1.2467e+02	-9.9190	-42.565541	0.000264	2.635273	0.892855	-0.000105
1255	1.2477e+02	-9.9639	-42.722989	0.000395	3.952909	1.339282	-0.000158
1256	1.2487e+02	-9.9976	-42.827954	0.000264	2.635273	0.892855	-0.000105
1257	1.2497e+02	-10.0345	-43.025774	0.000497	4.966476	1.682688	-0.000199
1258	1.2507e+02	-10.0762	-43.187260	0.000405	4.054266	1.373622	-0.000162
1259	1.2517e+02	-10.1195	-43.288188	0.000253	2.533916	0.858514	-0.000101
1260	1.2527e+02	-10.1564	-43.494082	0.000517	5.169189	1.751369	-0.000207
1261	1.2537e+02	-10.1981	-43.663642	0.000426	4.256979	1.442304	-0.000170
1262	1.2547e+02	-10.2350	-43.800904	0.000345	3.446126	1.167579	-0.000138
1263	1.2557e+02	-10.2847	-43.934130	0.000334	3.344769	1.133239	-0.000134
1264	1.2567e+02	-10.3104	-44.091578	0.000395	3.952909	1.339282	-0.000158
1265	1.2577e+02	-10.3537	-44.228841	0.000345	3.446126	1.167579	-0.000138
1266	1.2587e+02	-10.3922	-44.402437	0.000436	4.358336	1.476644	-0.000174
1267	1.2597e+02	-10.4355	-44.539700	0.000345	3.446126	1.167579	-0.000138
1268	1.2607e+02	-10.4821	-44.725408	0.000466	4.662406	1.579666	-0.000187
1269	1.2617e+02	-10.5270	-44.862671	0.000345	3.446126	1.167579	-0.000138
1270	1.2627e+02	-10.5526	-45.036268	0.000436	4.358336	1.476644	-0.000174
1271	1.2636e+02	-10.5911	-45.181605	0.000365	3.648839	1.236260	-0.000146
1272	1.2646e+02	-10.6345	-45.367313	0.000466	4.662406	1.579666	-0.000187
1273	1.2656e+02	-10.6698	-45.423833	0.000142	1.418993	0.480768	-0.000057
1274	1.2666e+02	-10.7083	-45.645875	0.000557	5.574616	1.888731	-0.000223
1275	1.2676e+02	-10.7516	-45.754878	0.000274	2.736630	0.927195	-0.000110
1276	1.2686e+02	-10.7981	-45.932512	0.000446	4.459693	1.510985	-0.000179
1277	1.2696e+02	-10.8414	-46.029403	0.000243	2.432560	0.824173	-0.000097
1278	1.2706e+02	-10.8767	-46.170703	0.000355	3.547483	1.201920	-0.000142
1279	1.2716e+02	-10.9104	-46.336225	0.000416	4.155623	1.407963	-0.000166
1280	1.2726e+02	-10.9489	-46.521934	0.000466	4.662406	1.579666	-0.000187
1281	1.2736e+02	-10.9858	-46.622862	0.000253	2.533916	0.858514	-0.000101
1282	1.2746e+02	-11.0323	-46.828756	0.000517	5.169189	1.751369	-0.000207
1283	1.2756e+02	-11.0788	-46.970056	0.000355	3.547483	1.201920	-0.000142
1284	1.2766e+02	-11.1125	-47.066947	0.000243	2.432560	0.824173	-0.000097
1285	1.2776e+02	-11.1574	-47.272841	0.000517	5.169189	1.751369	-0.000207
1286	1.2786e+02	-11.1911	-47.414141	0.000355	3.547483	1.201920	-0.000142
1287	1.2796e+02	-11.2312	-47.591775	0.000446	4.459693	1.510985	-0.000179
1288	1.2806e+02	-11.2649	-47.765371	0.000436	4.358336	1.476644	-0.000174
1289	1.2816e+02	-11.3130	-47.817854	0.000132	1.317636	0.446427	-0.000053
1290	1.2826e+02	-11.3532	-48.019711	0.000507	5.067832	1.717028	-0.000203
1291	1.2835e+02	-11.3949	-48.152937	0.000334	3.344769	1.133239	-0.000134
1292	1.2845e+02	-11.4382	-48.286162	0.000334	3.344769	1.133239	-0.000134
1293	1.2855e+02	-11.4703	-48.399202	0.000284	2.837986	0.961536	-0.000114
1294	1.2865e+02	-11.5088	-48.524353	0.000314	3.142056	1.064557	-0.000126
1295	1.2875e+02	-11.5649	-48.710061	0.000466	4.662406	1.579666	-0.000187
1296	1.2885e+02	-11.5874	-48.815027	0.000264	2.635273	0.892855	-0.000105
1297	1.2895e+02	-11.6291	-48.964401	0.000375	3.750196	1.270601	-0.000150
1298	1.2905e+02	-11.6724	-49.085515	0.000304	3.040699	1.030217	-0.000122
1299	1.2915e+02	-11.7157	-49.251037	0.000416	4.155623	1.407963	-0.000166
1300	1.2925e+02	-11.7494	-49.368114	0.000294	2.939343	0.995876	-0.000118
1301	1.2935e+02	-11.7863	-49.525563	0.000395	3.952909	1.339282	-0.000158
1302	1.2945e+02	-11.8232	-49.723382	0.000497	4.966476	1.682688	-0.000199
1303	1.2955e+02	-11.8761	-49.856608	0.000334	3.344769	1.133239	-0.000134
1304	1.2965e+02	-11.9066	-49.993870	0.000345	3.446126	1.167579	-0.000138
1305	1.2975e+02	-11.9483	-50.199764	0.000517	5.169189	1.751369	-0.000207
1306	1.2985e+02	-11.9852	-50.316841	0.000294	2.939343	0.995876	-0.000118
1307	1.2995e+02	-12.0301	-50.466215	0.000375	3.750196	1.270601	-0.000150
1308	1.3005e+02	-12.0702	-50.591367	0.000314	3.142056	1.064557	-0.000126
1309	1.3015e+02	-12.1071	-50.700369	0.000274	2.736630	0.927195	-0.000110
1310	1.3025e+02	-12.1408	-50.853780	0.000385	3.851553	1.304941	-0.000154
1311	1.3034e+02	-12.1954	-50.982969	0.000324	3.243413	1.098898	-0.000130
1312	1.3044e+02	-12.2307	-51.140417	0.000395	3.952909	1.339282	-0.000158
1313	1.3054e+02	-12.2676	-51.221160	0.000203	2.027133	0.686811	-0.000081
1314	1.3064e+02	-12.3141	-51.338237	0.000294	2.939343	0.995876	-0.000118
1315	1.3074e+02	-12.3526	-51.487611	0.000375	3.750196	1.270601	-0.000150
1316	1.3084e+02	-12.3927	-51.628910	0.000355	3.547483	1.201920	-0.000142
1317	1.3094e+02	-12.4216	-51.806544	0.000446	4.459693	1.510985	-0.000179
1318	1.3104e+02	-12.4681	-51.931696	0.000314	3.142056	1.064557	-0.000126
1319	1.3114e+02	-12.5130	-52.081070	0.000375	3.750196	1.270601	-0.000150
1320	1.3124e+02	-12.5419	-52.198147	0.000294	2.939343	0.995876	-0.000118
1321	1.3134e+02	-12.5852	-52.343483	0.000365	3.648839	1.236260	-0.000146
1322	1.3144e+02	-12.6269	-52.488820	0.000365	3.648839	1.236260	-0.000146
1323	1.3154e+02	-12.6734	-52.670491	0.000456	4.561049	1.545325	-0.000183
1324	1.3164e+02	-12.7039	-52.815828	0.000365	3.648839	1.236260	-0.000146
1325	1.3174e+02	-12.7504	-52.957128	0.000355	3.547483	1.201920	-0.000142
1326	1.3184e+02	-12.7873	-53.102465	0.000365	3.648839	1.236260	-0.000146
1327	1.3194e+02	-12.8194	-53.195319	0.000233	2.331203	0.789833	-0.000093
1328	1.3204e+02	-12.8611	-53.332582	0.000345	3.446126	1.167579	-0.000138
1329	1.3214e+02	-12.9012	-53.421399	0.000223	2.229846	0.755492	-0.000089
1330	1.3224e+02	-12.9446	-53.590958	0.000426	4.256979	1.442304	-0.000170
1331	1.3234e+02	-12.9798	-53.691887	0.000253	2.533916	0.858514	-0.000101
1332	1.3243e+02	-13.0280	-53.808964	0.000294	2.939343	0.995876	-0.000118
1333	1.3253e+02	-13.0601	-53.974486	0.000416	4.155623	1.407963	-0.000166
1334	1.3263e+02	-13.0986	-54.099637	0.000314	3.142056	1.064557	-0.000126
1335	1.3273e+02	-13.1403	-54.240937	0.000355	3.547483	1.201920	-0.000142
1336	1.3283e+02	-13.1788	-54.362051	0.000304	3.040699	1.030217	-0.000122
1337	1.3293e+02	-13.2253	-54.519500	0.000395	3.952909	1.339282	-0.000158
1338	1.3303e+02	-13.2734	-54.676948	0.000395	3.952909	1.339282	-0.000158
1339	1.3313e+02	-13.3007	-54.798062	0.000304	3.040699	1.030217	-0.000122
1340	1.3323e+02	-13.3392	-54.995882	0.000497	4.966476	1.682688	-0.000199
1341	1.3333e+02	-13.3713	-55.125070	0.000324	3.243413	1.098898	-0.000130
1342	1.3343e+02	-13.4194	-55.278481	0.000385	3.851553	1.304941	-0.000154
1343	1.3353e+02	-13.4595	-55.375372	0.000243	2.432560	0.824173	-0.000097
1344	1.3363e+02	-13.4916	-55.528784	0.000385	3.851553	1.304941	-0.000154
1345	1.3373e+02	-13.5381	-55.653935	0.000314	3.142056	1.064557	-0.000126
1346	1.3383e+02	-13.5782	-55.807346	0.000385	3.851553	1.304941	-0.000154
1347	1.3393e+02	-13.6264	-55.900200	0.000233	2.331203	0.789833	-0.000093
1348	1.3403e+02	-13.6600	-56.017277	0.000294	2.939343	0.995876	-0.000118
1349	1.3413e+02	-13.7001	-56.150502	0.000334	3.344769	1.133239	-0.000134
1350	1.3423e+02	-13.7467	-56.235282	0.000213	2.128490	0.721152	-0.000085
1351	1.3432e+02	-13.7836	-56.368508	0.000334	3.344769	1.133239	-0.000134
1352	1.3442e+02	-13.8301	-56.529993	0.000405	4.054266	1.373622	-0.000162
1353	1.3452e+02	-13.8654	-56.667256	0.000345	3.446126	1.167579	-0.000138
1354	1.3462e+02	-13.9007	-56.747999	0.000203	2.027133	0.686811	-0.000081
1355	1.3472e+02	-13.9279	-56.877187	0.000324	3.243413	1.098898	-0.000130
1356	1.3482e+02	-13.9777	-57.046747	0.000426	4.256979	1.442304	-0.000170
1357	1.3492e+02	-14.0210	-57.220343	0.000436	4.358336	1.476644	-0.000174
1358	1.3502e+02	-14.0595	-57.349532	0.000324	3.243413	1.098898	-0.000130
1359	1.3512e+02	-14.0980	-57.430274	0.000203	2.027133	0.686811	-0.000081
1360	1.3522e+02	-14.1365	-57.583686	0.000385	3.851553	1.304941	-0.000154
1361	1.3532e+02	-14.1702	-57.700763	0.000294	2.939343	0.995876	-0.000118
1362	1.3542e+02	-14.2103	-57.870322	0.000426	4.256979	1.442304	-0.000170
1363	1.3552e+02	-14.2568	-57.947028	0.000193	1.925776	0.652471	-0.000077
1364	1.3562e+02	-14.3033	-58.160996	0.000537	5.371902	1.820050	-0.000215
1365	1.3572e+02	-14.3338	-58.225590	0.000162	1.621706	0.549449	-0.000065
1366	1.3582e+02	-14.3739	-58.387076	0.000405	4.054266	1.373622	-0.000162
1367	1.3592e+02	-14.4204	-58.528375	0.000355	3.547483	1.201920	-0.000142
1368	1.3602e+02	-14.4557	-58.609118	0.000203	2.027133	0.686811	-0.000081
1369	1.3612e+02	-14.4975	-58.726195	0.000294	2.939343	0.995876	-0.000118
1370	1.3622e+02	-14.5343	-58.859420	0.000334	3.344769	1.133239	-0.000134
1371	1.3631e+02	-14.5793	-58.968423	0.000274	2.736630	0.927195	-0.000110
1372	1.3641e+02	-14.6226	-59.089537	0.000304	3.040699	1.030217	-0.000122
1373	1.3651e+02	-14.6643	-59.238911	0.000375	3.750196	1.270601	-0.000150
1374	1.3661e+02	-14.6980	-59.408471	0.000426	4.256979	1.442304	-0.000170
1375	1.3671e+02	-14.7397	-59.561882	0.000385	3.851553	1.304941	-0.000154
1376	1.3681e+02	-14.7750	-59.678959	0.000294	2.939343	0.995876	-0.000118
1377	1.3691e+02	-14.8183	-59.800073	0.000304	3.040699	1.030217	-0.000122
1378	1.3701e+02	-14.8536	-59.925224	0.000314	3.142056	1.064557	-0.000126
1379	1.3711e+02	-14.8953	-60.046338	0.000304	3.040699	1.030217	-0.000122
1380	1.3721e+02	-14.9338	-60.155341	0.000274	2.736630	0.927195	-0.000110
1381	1.3731e+02	-14.9739	-60.320864	0.000416	4.155623	1.407963	-0.000166
1382	1.3741e+02	-15.0092	-60.494460	0.000436	4.358336	1.476644	-0.000174
1383	1.3751e+02	-15.0637	-60.571166	0.000193	1.925776	0.652471	-0.000077
1384	1.3761e+02	-15.1006	-60.659983	0.000223	2.229846	0.755492	-0.000089
1385	1.3771e+02	-15.1391	-60.777060	0.000294	2.939343	0.995876	-0.000118
1386	1.3781e+02	-15.1809	-60.894137	0.000294	2.939343	0.995876	-0.000118
1387	1.3791e+02	-15.2178	-61.027362	0.000334	3.344769	1.133239	-0.000134
1388	1.3801e+02	-15.2498	-61.156551	0.000324	3.243413	1.098898	-0.000130
1389	1.3811e+02	-15.3060	-61.313999	0.000395	3.952909	1.339282	-0.000158
1390	1.3821e+02	-15.3252	-61.431076	0.000294	2.939343	0.995876	-0.000118
1391	1.3831e+02	-15.3702	-61.572376	0.000355	3.547483	1.201920	-0.000142
1392	1.3840e+02	-15.4151	-61.741935	0.000426	4.256979	1.442304	-0.000170
1393	1.3850e+02	-15.4504	-61.830752	0.000223	2.229846	0.755492	-0.000089
1394	1.3860e+02	-15.4905	-61.988201	0.000395	3.952909	1.339282	-0.000158
1395	1.3870e+02	-15.5210	-62.109315	0.000304	3.040699	1.030217	-0.000122
1396	1.3880e+02	-15.5643	-62.218317	0.000274	2.736630	0.927195	-0.000110
1397	1.3890e+02	-15.6252	-62.387877	0.000426	4.256979	1.442304	-0.000170
1398	1.3900e+02	-15.6541	-62.500917	0.000284	2.837986	0.961536	-0.000114
1399	1.3910e+02	-15.6910	-62.605882	0.000264	2.635273	0.892855	-0.000105
1400	1.3920e+02	-15.7375	-62.763331	0.000395	3.952909	1.339282	-0.000158
1401	1.3930e+02	-15.7728	-62.896556	0.000334	3.344769	1.133239	-0.000134
1402	1.3940e+02	-15.8049	-62.940965	0.000111	1.114923	0.377746	-0.000045
1403	1.3950e+02	-15.8546	-63.054005	0.000284	2.837986	0.961536	-0.000114
1404	1.3960e+02	-15.8963	-63.207416	0.000385	3.851553	1.304941	-0.000154
1405	1.3970e+02	-15.9316	-63.344678	0.000345	3.446126	1.167579	-0.000138
1406	1.3980e+02	-15.9766	-63.477904	0.000334	3.344769	1.133239	-0.000134
1407	1.3990e+02	-16.0022	-63.611129	0.000334	3.344769	1.133239	-0.000134
1408	1.4000e+02	-16.0503	-63.764540	0.000385	3.851553	1.304941	-0.000154
1409	1.4010e+02	-16.0921	-63.881617	0.000294	2.939343	0.995876	-0.000118
1410	1.4020e+02	-16.1274	-64.043103	0.000405	4.054266	1.373622	-0.000162
1411	1.4029e+02	-16.1675	-64.168254	0.000314	3.142056	1.064557	-0.000126
1412	1.4039e+02	-16.2172	-64.329739	0.000405	4.054266	1.373622	-0.000162
1413	1.4049e+02	-16.2589	-64.442779	0.000284	2.837986	0.961536	-0.000114
1414	1.4059e+02	-16.2862	-64.576005	0.000334	3.344769	1.133239	-0.000134
1415	1.4069e+02	-16.3295	-64.685007	0.000274	2.736630	0.927195	-0.000110
1416	1.4079e+02	-16.3712	-64.806121	0.000304	3.040699	1.030217	-0.000122
1417	1.4089e+02	-16.4193	-64.963570	0.000395	3.952909	1.339282	-0.000158
1418	1.4099e+02	-16.4578	-65.096795	0.000334	3.344769	1.133239	-0.000134
1419	1.4109e+02	-16.4931	-65.230021	0.000334	3.344769	1.133239	-0.000134
1420	1.4119e+02	-16.5300	-65.339023	0.000274	2.736630	0.927195	-0.000110
1421	1.4129e+02	-16.5749	-65.439952	0.000253	2.533916	0.858514	-0.000101
1422	1.4139e+02	-16.6134	-65.593363	0.000385	3.851553	1.304941	-0.000154
1423	1.4149e+02	-16.6503	-65.726588	0.000334	3.344769	1.133239	-0.000134
1424	1.4159e+02	-16.6872	-65.823480	0.000243	2.432560	0.824173	-0.000097
1425	1.4169e+02	-16.7273	-65.976891	0.000385	3.851553	1.304941	-0.000154
1426	1.4179e+02	-16.7755	-66.126265	0.000375	3.750196	1.270601	-0.000150
1427	1.4189e+02	-16.8108	-66.275639	0.000375	3.750196	1.270601	-0.000150
1428	1.4199e+02	-16.8477	-66.380604	0.000264	2.635273	0.892855	-0.000105
1429	1.4209e+02	-16.8878	-66.546127	0.000416	4.155623	1.407963	-0.000166
1430	1.4219e+02	-16.9343	-66.671278	0.000314	3.142056	1.064557	-0.000126
1431	1.4228e+02	-16.9696	-66.808541	0.000345	3.446126	1.167579	-0.000138
1432	1.4238e+02	-17.0049	-66.990212	0.000456	4.561049	1.545325	-0.000183
1433	1.4248e+02	-17.0482	-67.083066	0.000233	2.331203	0.789833	-0.000093
1434	1.4258e+02	-17.0867	-67.216291	0.000334	3.344769	1.133239	-0.000134
1435	1.4268e+02	-17.1236	-67.381814	0.000416	4.155623	1.407963	-0.000166
1436	1.4278e+02	-17.1637	-67.482742	0.000253	2.533916	0.858514	-0.000101
1437	1.4288e+02	-17.2118	-67.603857	0.000304	3.040699	1.030217	-0.000122
1438	1.4298e+02	-17.2567	-67.749193	0.000365	3.648839	1.236260	-0.000146
1439	1.4308e+02	-17.3000	-67.829936	0.000203	2.027133	0.686811	-0.000081
1440	1.4318e+02	-17.3289	-67.959124	0.000324	3.243413	1.098898	-0.000130
1441	1.4328e+02	-17.3674	-68.112536	0.000385	3.851553	1.304941	-0.000154
1442	1.4338e+02	-17.4011	-68.282095	0.000426	4.256979	1.442304	-0.000170
1443	1.4348e+02	-17.4476	-68.427432	0.000365	3.648839	1.236260	-0.000146
1444	1.4358e+02	-17.4861	-68.596992	0.000426	4.256979	1.442304	-0.000170
1445	1.4368e+02	-17.5230	-68.714069	0.000294	2.939343	0.995876	-0.000118
1446	1.4378e+02	-17.5680	-68.863443	0.000375	3.750196	1.270601	-0.000150
1447	1.4388e+02	-17.6065	-68.976483	0.000284	2.837986	0.961536	-0.000114
1448	1.4398e+02	-17.6369	-69.125857	0.000375	3.750196	1.270601	-0.000150
1449	1.4408e+02	-17.6851	-69.251008	0.000314	3.142056	1.064557	-0.000126
1450	1.4418e+02	-17.7252	-69.368085	0.000294	2.939343	0.995876	-0.000118
1451	1.4428e+02	-17.7733	-69.505347	0.000345	3.446126	1.167579	-0.000138
1452	1.4437e+02	-17.8086	-69.630499	0.000314	3.142056	1.064557	-0.000126
1453	1.4447e+02	-17.8407	-69.771798	0.000355	3.547483	1.201920	-0.000142
1454	1.4457e+02	-17.8888	-69.913098	0.000355	3.547483	1.201920	-0.000142
1455	1.4467e+02	-17.9321	-70.005952	0.000233	2.331203	0.789833	-0.000093
1456	1.4477e+02	-17.9658	-70.191661	0.000466	4.662406	1.579666	-0.000187
1457	1.4487e+02	-18.0075	-70.328923	0.000345	3.446126	1.167579	-0.000138
1458	1.4497e+02	-18.0396	-70.409666	0.000203	2.027133	0.686811	-0.000081
1459	1.4507e+02	-18.0781	-70.607485	0.000497	4.966476	1.682688	-0.000199
1460	1.4517e+02	-18.1230	-70.748785	0.000355	3.547483	1.201920	-0.000142
1461	1.4527e+02	-18.1551	-70.910271	0.000405	4.054266	1.373622	-0.000162
1462	1.4537e+02	-18.1952	-71.063682	0.000385	3.851553	1.304941	-0.000154
1463	1.4547e+02	-18.2498	-71.176722	0.000284	2.837986	0.961536	-0.000114
1464	1.4557e+02	-18.2899	-71.257464	0.000203	2.027133	0.686811	-0.000081
1465	1.4567e+02	-18.3187	-71.414913	0.000395	3.952909	1.339282	-0.000158
1466	1.4577e+02	-18.3669	-71.463358	0.000122	1.216280	0.412087	-0.000049
1467	1.4587e+02	-18.3989	-71.523915	0.000152	1.520350	0.515108	-0.000061
1468	1.4597e+02	-18.4455	-71.596584	0.000182	1.824420	0.618130	-0.000073
1469	1.4607e+02	-18.4776	-71.608695	0.000030	0.304070	0.103022	-0.000012
1470	1.4617e+02	-18.5257	-71.612732	0.000010	0.101357	0.034341	-0.000004
1471	1.4626e+02	-18.5786	-71.705586	0.000233	2.331203	0.789833	-0.000093
1472	1.4636e+02	-18.6075	-71.689438	-0.000041	-0.405427	-0.137362	0.000016
1473	1.4646e+02	-18.6556	-71.741921	0.000132	1.317636	0.446427	-0.000053
1474	1.4656e+02	-18.6861	-71.818626	0.000193	1.925776	0.652471	-0.000077
1475	1.4666e+02	-18.7262	-71.891295	0.000182	1.824420	0.618130	-0.000073
1476	1.4676e+02	-18.7599	-71.988186	0.000243	2.432560	0.824173	-0.000097
1477	1.4686e+02	-18.7984	-72.141597	0.000385	3.851553	1.304941	-0.000154
1478	1.4696e+02	-18.8449	-72.242525	0.000253	2.533916	0.858514	-0.000101
1479	1.4706e+02	-18.8786	-72.823873	0.001460	14.595357	4.945041	-0.000584
1480	1.4716e+02	-18.9155	-72.993433	0.000426	4.256979	1.442304	-0.000170
1481	1.4726e+02	-18.9604	-73.195289	0.000507	5.067832	1.717028	-0.000203
1482	1.4736e+02	-19.0005	-73.796823	0.001510	15.102141	5.116744	-0.000605
1483	1.4746e+02	-19.0422	-73.958308	0.000405	4.054266	1.373622	-0.000162
1484	1.4756e+02	-19.0823	-74.067311	0.000274	2.736630	0.927195	-0.000110
1485	1.4766e+02	-19.1257	-74.220722	0.000385	3.851553	1.304941	-0.000154
1486	1.4776e+02	-19.1626	-74.357985	0.000345	3.446126	1.167579	-0.000138
1487	1.4786e+02	-19.2075	-74.523507	0.000416	4.155623	1.407963	-0.000166
1488	1.4796e+02	-19.2460	-74.709215	0.000466	4.662406	1.579666	-0.000187
1489	1.4806e+02	-19.2813	-74.777847	0.000172	1.723063	0.583790	-0.000069
1490	1.4816e+02	-19.3278	-74.955481	0.000446	4.459693	1.510985	-0.000179
1491	1.4825e+02	-19.3631	-75.121003	0.000416	4.155623	1.407963	-0.000166
1492	1.4835e+02	-19.3968	-75.209820	0.000223	2.229846	0.755492	-0.000089
1493	1.4845e+02	-19.4321	-75.395528	0.000466	4.662406	1.579666	-0.000187
1494	1.4855e+02	-19.4690	-75.508568	0.000284	2.837986	0.961536	-0.000114
1495	1.4865e+02	-19.5203	-75.678128	0.000426	4.256979	1.442304	-0.000170
1496	1.4875e+02	-19.5476	-75.827502	0.000375	3.750196	1.270601	-0.000150
1497	1.4885e+02	-19.5973	-76.005136	0.000446	4.459693	1.510985	-0.000179
1498	1.4895e+02	-19.6374	-76.126250	0.000304	3.040699	1.030217	-0.000122
1499	1.4905e+02	-19.6727	-76.303884	0.000446	4.459693	1.510985	-0.000179
1500	1.4915e+02	-19.7176	-76.477481	0.000436	4.358336	1.476644	-0.000174
1501	1.4925e+02	-19.7465	-76.618781	0.000355	3.547483	1.201920	-0.000142
1502	1.4935e+02	-19.7962	-76.800452	0.000456	4.561049	1.545325	-0.000183
1503	1.4945e+02	-19.8412	-76.917529	0.000294	2.939343	0.995876	-0.000118
1504	1.4955e+02	-19.8716	-77.042680	0.000314	3.142056	1.064557	-0.000126
1505	1.4965e+02	-19.9198	-77.208202	0.000416	4.155623	1.407963	-0.000166
1506	1.4975e+02	-19.9567	-77.426208	0.000547	5.473259	1.854390	-0.000219
1507	1.4985e+02	-19.9968	-77.547322	0.000304	3.040699	1.030217	-0.000122
1508	1.4995e+02	-19.9647	-77.506950	0.000101	1.013566	0.343406	0.000041
1509	1.5005e+02	-19.9182	-77.434282	0.000182	1.824420	0.618130	0.000073
1510	1.5015e+02	-19.8797	-77.426208	0.000020	0.202713	0.068681	0.000008
1511	1.5025e+02	-19.8395	-77.317205	0.000274	2.736630	0.927195	0.000110
1512	1.5034e+02	-19.8043	-77.268759	0.000122	1.216280	0.412087	0.000049
1513	1.5044e+02	-19.7690	-77.288945	-0.000051	-0.506783	-0.171703	-0.000020
1514	1.5054e+02	-19.7112	-77.264722	0.000061	0.608140	0.206043	0.000024
1515	1.5064e+02	-19.6823	-77.175905	0.000223	2.229846	0.755492	0.000089
1516	1.5074e+02	-19.6294	-77.159757	0.000041	0.405427	0.137362	0.000016
1517	1.5084e+02	-19.5941	-77.139571	0.000051	0.506783	0.171703	0.000020
1518	1.5094e+02	-19.5636	-77.038643	0.000253	2.533916	0.858514	0.000101
1519	1.5104e+02	-19.5187	-77.022494	0.000041	0.405427	0.137362	0.000016
1520	1.5114e+02	-19.4786	-76.965974	0.000142	1.418993	0.480768	0.000057
1521	1.5124e+02	-19.4369	-76.901380	0.000162	1.621706	0.549449	0.000065
1522	1.5134e+02	-19.4000	-76.852934	0.000122	1.216280	0.412087	0.000049
1523	1.5144e+02	-19.3631	-76.727783	0.000314	3.142056	1.064557	0.000126
1524	1.5154e+02	-19.3134	-76.711635	0.000041	0.405427	0.137362	0.000016
1525	1.5164e+02	-19.2797	-76.630892	0.000203	2.027133	0.686811	0.000081
1526	1.5174e+02	-19.2412	-76.570335	0.000152	1.520350	0.515108	0.000061
1527	1.5184e+02	-19.2091	-76.517852	0.000132	1.317636	0.446427	0.000053
1528	1.5194e+02	-19.1610	-76.388664	0.000324	3.243413	1.098898	0.000130
1529	1.5204e+02	-19.1241	-76.332144	0.000142	1.418993	0.480768	0.000057
1530	1.5214e+02	-19.0775	-76.247364	0.000213	2.128490	0.721152	0.000085
1531	1.5224e+02	-19.0310	-76.198918	0.000122	1.216280	0.412087	0.000049
1532	1.5233e+02	-18.9925	-76.198918	0.000000	0.000000	0.000000	0.000000
1533	1.5243e+02	-18.9636	-76.102027	0.000243	2.432560	0.824173	0.000097
1534	1.5253e+02	-18.9139	-76.017247	0.000213	2.128490	0.721152	0.000085
1535	1.5263e+02	-18.8834	-75.956690	0.000152	1.520350	0.515108	0.000061
1536	1.5273e+02	-18.8385	-75.896133	0.000152	1.520350	0.515108	0.000061
1537	1.5283e+02	-18.8064	-75.815391	0.000203	2.027133	0.686811	0.000081
1538	1.5293e+02	-18.7567	-75.770982	0.000111	1.114923	0.377746	0.000045
1539	1.5303e+02	-18.7182	-75.649868	0.000304	3.040699	1.030217	0.000122
1540	1.5313e+02	-18.6861	-75.561051	0.000223	2.229846	0.755492	0.000089
1541	1.5323e+02	-18.6428	-75.565088	-0.000010	-0.101357	-0.034341	-0.000004
1542	1.5333e+02	-18.6027	-75.460123	0.000264	2.635273	0.892855	0.000105
1543	1.5343e+02	-18.5690	-75.351120	0.000274	2.736630	0.927195	0.000110
1544	1.5353e+02	-18.5193	-75.286526	0.000162	1.621706	0.549449	0.000065
1545	1.5363e+02	-18.4792	-75.161375	0.000314	3.142056	1.064557	0.000126
1546	1.5373e+02	-18.4310	-75.072558	0.000223	2.229846	0.755492	0.000089
1547	1.5383e+02	-18.4006	-75.007963	0.000162	1.621706	0.549449	0.000065
1548	1.5393e+02	-18.3556	-74.939332	0.000172	1.723063	0.583790	0.000069
1549	1.5403e+02	-18.3219	-74.878775	0.000152	1.520350	0.515108	0.000061
1550	1.5413e+02	-18.2899	-74.781884	0.000243	2.432560	0.824173	0.000097
1551	1.5422e+02	-18.2385	-74.705178	0.000193	1.925776	0.652471	0.000077
1552	1.5432e+02	-18.2064	-74.652695	0.000132	1.317636	0.446427	0.000053
1553	1.5442e+02	-18.1663	-74.555804	0.000243	2.432560	0.824173	0.000097
1554	1.5452e+02	-18.1198	-74.446802	0.000274	2.736630	0.927195	0.000110
1555	1.5462e+02	-18.0749	-74.394319	0.000132	1.317636	0.446427	0.000053
1556	1.5472e+02	-18.0396	-74.313576	0.000203	2.027133	0.686811	0.000081
1557	1.5482e+02	-17.9995	-74.220722	0.000233	2.331203	0.789833	0.000093
1558	1.5492e+02	-17.9626	-74.135942	0.000213	2.128490	0.721152	0.000085
1559	1.5502e+02	-17.9193	-74.055199	0.000203	2.027133	0.686811	0.000081
1560	1.5512e+02	-17.8856	-73.966382	0.000223	2.229846	0.755492	0.000089
1561	1.5522e+02	-17.8471	-73.853343	0.000284	2.837986	0.961536	0.000114
1562	1.5532e+02	-17.8166	-73.772600	0.000203	2.027133	0.686811	0.000081
1563	1.5542e+02	-17.7669	-73.647449	0.000314	3.142056	1.064557	0.000126
1564	1.5552e+02	-17.7268	-73.574780	0.000182	1.824420	0.618130	0.000073
1565	1.5562e+02	-17.6867	-73.485963	0.000223	2.229846	0.755492	0.000089
1566	1.5572e+02	-17.6385	-73.405221	0.000203	2.027133	0.686811	0.000081
1567	1.5582e+02	-17.6065	-73.324478	0.000203	2.027133	0.686811	0.000081
1568	1.5592e+02	-17.5567	-73.288144	0.000091	0.912210	0.309065	0.000037
1569	1.5602e+02	-17.5198	-73.235661	0.000132	1.317636	0.446427	0.000053
1570	1.5612e+02	-17.4910	-73.049953	0.000466	4.662406	1.579666	0.000187
1571	1.5622e+02	-17.4524	-72.993433	0.000142	1.418993	0.480768	0.000057
1572	1.5631e+02	-17.4027	-72.904616	0.000223	2.229846	0.755492	0.000089
1573	1.5641e+02	-17.3594	-72.819836	0.000213	2.128490	0.721152	0.000085
1574	1.5651e+02	-17.3257	-72.735056	0.000213	2.128490	0.721152	0.000085
1575	1.5661e+02	-17.2920	-72.605868	0.000324	3.243413	1.098898	0.000130
1576	1.5671e+02	-17.2519	-72.545311	0.000152	1.520350	0.515108	0.000061
1577	1.5681e+02	-17.2102	-72.480716	0.000162	1.621706	0.549449	0.000065
1578	1.5691e+02	-17.1749	-72.379788	0.000253	2.533916	0.858514	0.000101
1579	1.5701e+02	-17.1332	-72.282897	0.000243	2.432560	0.824173	0.000097
1580	1.5711e+02	-17.0803	-72.161783	0.000304	3.040699	1.030217	0.000122
1581	1.5721e+02	-17.0530	-72.036632	0.000314	3.142056	1.064557	0.000126
1582	1.5731e+02	-17.0033	-71.976075	0.000152	1.520350	0.515108	0.000061
1583	1.5741e+02	-16.9664	-71.899369	0.000193	1.925776	0.652471	0.000077
1584	1.5751e+02	-16.9198	-71.818626	0.000203	2.027133	0.686811	0.000081
1585	1.5761e+02	-16.8813	-71.737883	0.000203	2.027133	0.686811	0.000081
1586	1.5771e+02	-16.8557	-71.636955	0.000253	2.533916	0.858514	0.000101
1587	1.5781e+02	-16.8059	-71.556212	0.000203	2.027133	0.686811	0.000081
1588	1.5791e+02	-16.7690	-71.414913	0.000355	3.547483	1.201920	0.000142
1589	1.5801e+02	-16.7273	-71.334170	0.000203	2.027133	0.686811	0.000081
1590	1.5811e+02	-16.6856	-71.249390	0.000213	2.128490	0.721152	0.000085
1591	1.5821e+02	-16.6503	-71.172684	0.000193	1.925776	0.652471	0.000077
1592	1.5830e+02	-16.6102	-71.079830	0.000233	2.331203	0.789833	0.000093
1593	1.5840e+02	-16.5717	-70.986976	0.000233	2.331203	0.789833	0.000093
1594	1.5850e+02	-16.5348	-70.926419	0.000152	1.520350	0.515108	0.000061
1595	1.5860e+02	-16.4915	-70.764934	0.000405	4.054266	1.373622	0.000162
1596	1.5870e+02	-16.4514	-70.692265	0.000182	1.824420	0.618130	0.000073
1597	1.5880e+02	-16.4129	-70.627671	0.000162	1.621706	0.549449	0.000065
1598	1.5890e+02	-16.3728	-70.486371	0.000355	3.547483	1.201920	0.000142
1599	1.5900e+02	-16.3375	-70.393517	0.000233	2.331203	0.789833	0.000093
1600	1.5910e+02	-16.2782	-70.320849	0.000182	1.824420	0.618130	0.000073
1601	1.5920e+02	-16.2509	-70.227995	0.000233	2.331203	0.789833	0.000093
1602	1.5930e+02	-16.2140	-70.106881	0.000304	3.040699	1.030217	0.000122
1603	1.5940e+02	-16.1707	-70.038249	0.000172	1.723063	0.583790	0.000069
1604	1.5950e+02	-16.1322	-69.929247	0.000274	2.736630	0.927195	0.000110
1605	1.5960e+02	-16.0872	-69.860615	0.000172	1.723063	0.583790	0.000069
1606	1.5970e+02	-16.0536	-69.763724	0.000243	2.432560	0.824173	0.000097
1607	1.5980e+02	-16.0086	-69.658759	0.000264	2.635273	0.892855	0.000105
1608	1.5990e+02	-15.9717	-69.521496	0.000345	3.446126	1.167579	0.000138
1609	1.6000e+02	-15.9364	-69.444790	0.000193	1.925776	0.652471	0.000077
1610	1.6010e+02	-15.8979	-69.388270	0.000142	1.418993	0.480768	0.000057
1611	1.6019e+02	-15.8594	-69.275231	0.000284	2.837986	0.961536	0.000114
1612	1.6029e+02	-15.8177	-69.158154	0.000294	2.939343	0.995876	0.000118
1613	1.6039e+02	-15.7760	-69.081448	0.000193	1.925776	0.652471	0.000077
1614	1.6049e+02	-15.7343	-69.008780	0.000182	1.824420	0.618130	0.000073
1615	1.6059e+02	-15.6926	-68.903814	0.000264	2.635273	0.892855	0.000105
1616	1.6069e+02	-15.6589	-68.855369	0.000122	1.216280	0.412087	0.000049
1617	1.6079e+02	-15.6044	-68.689846	0.000416	4.155623	1.407963	0.000166
1618	1.6089e+02	-15.5739	-68.665623	0.000061	0.608140	0.206043	0.000024
1619	1.6099e+02	-15.5338	-68.633326	0.000081	0.810853	0.274724	0.000032
1620	1.6109e+02	-15.4921	-68.568732	0.000162	1.621706	0.549449	0.000065
1621	1.6119e+02	-15.4504	-68.548546	0.000051	0.506783	0.171703	0.000020
1622	1.6129e+02	-15.4215	-68.358801	0.000476	4.763762	1.614006	0.000191
1623	1.6139e+02	-15.3766	-68.310355	0.000122	1.216280	0.412087	0.000049
1624	1.6149e+02	-15.3477	-68.233650	0.000193	1.925776	0.652471	0.000077
1625	1.6159e+02	-15.2803	-68.225575	0.000020	0.202713	0.068681	0.000008
1626	1.6169e+02	-15.2579	-68.209427	0.000041	0.405427	0.137362	0.000016
1627	1.6179e+02	-15.2145	-68.213464	-0.000010	-0.101357	-0.034341	-0.000004
1628	1.6189e+02	-15.1776	-68.193278	0.000051	0.506783	0.171703	0.000020
1629	1.6199e+02	-15.1343	-68.007570	0.000466	4.662406	1.579666	0.000187
1630	1.6209e+02	-15.0958	-67.785528	0.000557	5.574616	1.888731	0.000223
1631	1.6219e+02	-15.0557	-67.313183	0.001186	11.858728	4.017846	0.000475
1632	1.6228e+02	-15.0092	-67.200143	0.000284	2.837986	0.961536	0.000114
1633	1.6238e+02	-14.9787	-67.038657	0.000405	4.054266	1.373622	0.000162
1634	1.6248e+02	-14.9354	-66.965989	0.000182	1.824420	0.618130	0.000073
1635	1.6258e+02	-14.9001	-66.852949	0.000284	2.837986	0.961536	0.000114
1636	1.6268e+02	-14.8680	-66.764132	0.000223	2.229846	0.755492	0.000089
1637	1.6278e+02	-14.8087	-66.663204	0.000253	2.533916	0.858514	0.000101
1638	1.6288e+02	-14.7718	-66.534016	0.000324	3.243413	1.098898	0.000130
1639	1.6298e+02	-14.7349	-66.441161	0.000233	2.331203	0.789833	0.000093
1640	1.6308e+02	-14.6932	-66.360419	0.000203	2.027133	0.686811	0.000081
1641	1.6318e+02	-14.6579	-66.219119	0.000355	3.547483	1.201920	0.000142
1642	1.6328e+02	-14.6178	-66.093968	0.000314	3.142056	1.064557	0.000126
1643	1.6338e+02	-14.5729	-66.021299	0.000182	1.824420	0.618130	0.000073
1644	1.6348e+02	-14.5456	-65.924408	0.000243	2.432560	0.824173	0.000097
1645	1.6358e+02	-14.4975	-65.831554	0.000233	2.331203	0.789833	0.000093
1646	1.6368e+02	-14.4622	-65.710440	0.000304	3.040699	1.030217	0.000122
1647	1.6378e+02	-14.4204	-65.633734	0.000193	1.925776	0.652471	0.000077
1648	1.6388e+02	-14.3771	-65.516657	0.000294	2.939343	0.995876	0.000118
1649	1.6398e+02	-14.3354	-65.419766	0.000243	2.432560	0.824173	0.000097
1650	1.6408e+02	-14.3033	-65.310763	0.000274	2.736630	0.927195	0.000110
1651	1.6418e+02	-14.2584	-65.278466	0.000081	0.810853	0.274724	0.000032
1652	1.6427e+02	-14.2151	-65.169464	0.000274	2.736630	0.927195	0.000110
1653	1.6437e+02	-14.1814	-65.072572	0.000243	2.432560	0.824173	0.000097
1654	1.6447e+02	-14.1397	-64.939347	0.000334	3.344769	1.133239	0.000134
1655	1.6457e+02	-14.1044	-64.781899	0.000395	3.952909	1.339282	0.000158
1656	1.6467e+02	-14.0579	-64.697119	0.000213	2.128490	0.721152	0.000085
1657	1.6477e+02	-14.0194	-64.592153	0.000264	2.635273	0.892855	0.000105
1658	1.6487e+02	-13.9793	-64.567930	0.000061	0.608140	0.206043	0.000024
1659	1.6497e+02	-13.9440	-64.531596	0.000091	0.912210	0.309065	0.000037
1660	1.6507e+02	-13.8894	-64.467002	0.000162	1.621706	0.549449	0.000065
1661	1.6517e+02	-13.8638	-64.475076	-0.000020	-0.202713	-0.068681	-0.000008
1662	1.6527e+02	-13.8253	-64.471039	0.000010	0.101357	0.034341	0.000004
1663	1.6537e+02	-13.7772	-64.471039	0.000000	0.000000	0.000000	0.000000
1664	1.6547e+02	-13.7483	-64.471039	0.000000	0.000000	0.000000	0.000000
1665	1.6557e+02	-13.6969	-64.471039	0.000000	0.000000	0.000000	0.000000
1666	1.6567e+02	-13.6713	-64.446816	0.000061	0.608140	0.206043	0.000024
1667	1.6577e+02	-13.6247	-64.483151	-0.000091	-0.912210	-0.309065	-0.000037
1668	1.6587e+02	-13.5766	-64.479113	0.000010	0.101357	0.034341	0.000004
1669	1.6597e+02	-13.5333	-64.503336	-0.000061	-0.608140	-0.206043	-0.000024
1670	1.6607e+02	-13.4996	-64.467002	0.000091	0.912210	0.309065	0.000037
1671	1.6616e+02	-13.4643	-64.317628	0.000375	3.750196	1.270601	0.000150
1672	1.6626e+02	-13.4242	-64.055214	0.000659	6.588182	2.232137	0.000264
1673	1.6636e+02	-13.3857	-63.825097	0.000578	5.777329	1.957412	0.000231
1674	1.6646e+02	-13.3360	-63.243750	0.001460	14.595357	4.945041	0.000584
1675	1.6656e+02	-13.3023	-62.880408	0.000912	9.122098	3.090651	0.000365
1676	1.6666e+02	-13.2606	-62.674514	0.000517	5.169189	1.751369	0.000207
1677	1.6676e+02	-13.2205	-62.650291	0.000061	0.608140	0.206043	0.000024
1678	1.6686e+02	-13.1788	-62.444397	0.000517	5.169189	1.751369	0.000207
1679	1.6696e+02	-13.1467	-62.327320	0.000294	2.939343	0.995876	0.000118
1680	1.6706e+02	-13.1098	-62.250615	0.000193	1.925776	0.652471	0.000077
1681	1.6716e+02	-13.0601	-62.113352	0.000345	3.446126	1.167579	0.000138
1682	1.6726e+02	-13.0264	-62.012424	0.000253	2.533916	0.858514	0.000101
1683	1.6736e+02	-12.9766	-61.875161	0.000345	3.446126	1.167579	0.000138
1684	1.6746e+02	-12.9462	-61.790381	0.000213	2.128490	0.721152	0.000085
1685	1.6756e+02	-12.9028	-61.661193	0.000324	3.243413	1.098898	0.000130
1686	1.6766e+02	-12.8643	-61.632933	0.000071	0.709497	0.240384	0.000028
1687	1.6776e+02	-12.8194	-61.503744	0.000324	3.243413	1.098898	0.000130
1688	1.6786e+02	-12.7841	-61.386667	0.000294	2.939343	0.995876	0.000118
1689	1.6796e+02	-12.7392	-61.249405	0.000345	3.446126	1.167579	0.000138
1690	1.6806e+02	-12.7087	-61.152514	0.000243	2.432560	0.824173	0.000097
1691	1.6816e+02	-12.6686	-60.954694	0.000497	4.966476	1.682688	0.000199
1692	1.6825e+02	-12.6173	-60.861840	0.000233	2.331203	0.789833	0.000093
1693	1.6835e+02	-12.5916	-60.704392	0.000395	3.952909	1.339282	0.000158
1694	1.6845e+02	-12.5403	-60.627686	0.000193	1.925776	0.652471	0.000077
1695	1.6855e+02	-12.5034	-60.478312	0.000375	3.750196	1.270601	0.000150
1696	1.6865e+02	-12.4681	-60.361235	0.000294	2.939343	0.995876	0.000118
1697	1.6875e+02	-12.4232	-60.240121	0.000304	3.040699	1.030217	0.000122
1698	1.6885e+02	-12.3799	-60.102858	0.000345	3.446126	1.167579	0.000138
1699	1.6895e+02	-12.3574	-60.010004	0.000233	2.331203	0.789833	0.000093
1700	1.6905e+02	-12.3077	-59.888890	0.000304	3.040699	1.030217	0.000122
1701	1.6915e+02	-12.2628	-59.775850	0.000284	2.837986	0.961536	0.000114
1702	1.6925e+02	-12.2275	-59.670885	0.000264	2.635273	0.892855	0.000105
1703	1.6935e+02	-12.1858	-59.614365	0.000142	1.418993	0.480768	0.000057
1704	1.6945e+02	-12.1553	-59.533622	0.000203	2.027133	0.686811	0.000081
1705	1.6955e+02	-12.1104	-59.444805	0.000223	2.229846	0.755492	0.000089
1706	1.6965e+02	-12.0719	-59.392322	0.000132	1.317636	0.446427	0.000053
1707	1.6975e+02	-12.0237	-59.259097	0.000334	3.344769	1.133239	0.000134
1708	1.6985e+02	-11.9868	-59.113760	0.000365	3.648839	1.236260	0.000146
1709	1.6995e+02	-11.9499	-58.968423	0.000365	3.648839	1.236260	0.000146
1710	1.7005e+02	-11.9114	-58.883643	0.000213	2.128490	0.721152	0.000085
1711	1.7015e+02	-11.8681	-58.746381	0.000345	3.446126	1.167579	0.000138
1712	1.7024e+02	-11.8248	-58.597007	0.000375	3.750196	1.270601	0.000150
1713	1.7034e+02	-11.7911	-58.520301	0.000193	1.925776	0.652471	0.000077
1714	1.7044e+02	-11.7526	-58.374964	0.000365	3.648839	1.236260	0.000146
1715	1.7054e+02	-11.7237	-58.209442	0.000416	4.155623	1.407963	0.000166
1716	1.7064e+02	-11.6804	-58.136773	0.000182	1.824420	0.618130	0.000073
1717	1.7074e+02	-11.6307	-57.979325	0.000395	3.952909	1.339282	0.000158
1718	1.7084e+02	-11.5970	-57.829951	0.000375	3.750196	1.270601	0.000150
1719	1.7094e+02	-11.5489	-57.704800	0.000314	3.142056	1.064557	0.000126
1720	1.7104e+02	-11.5104	-57.595797	0.000274	2.736630	0.927195	0.000110
1721	1.7114e+02	-11.4783	-57.511017	0.000213	2.128490	0.721152	0.000085
1722	1.7124e+02	-11.4366	-57.393940	0.000294	2.939343	0.995876	0.000118
1723	1.7134e+02	-11.3917	-57.232455	0.000405	4.054266	1.373622	0.000162
1724	1.7144e+02	-11.3580	-57.135564	0.000243	2.432560	0.824173	0.000097
1725	1.7154e+02	-11.3098	-56.966004	0.000426	4.256979	1.442304	0.000170
1726	1.7164e+02	-11.2665	-56.832778	0.000334	3.344769	1.133239	0.000134
1727	1.7174e+02	-11.2248	-56.655144	0.000446	4.459693	1.510985	0.000179
1728	1.7184e+02	-11.1911	-56.570365	0.000213	2.128490	0.721152	0.000085
1729	1.7194e+02	-11.1510	-56.388693	0.000456	4.561049	1.545325	0.000183
1730	1.7204e+02	-11.1061	-56.219134	0.000426	4.256979	1.442304	0.000170
1731	1.7213e+02	-11.0772	-56.089945	0.000324	3.243413	1.098898	0.000130
1732	1.7223e+02	-11.0387	-55.944608	0.000365	3.648839	1.236260	0.000146
1733	1.7233e+02	-11.0002	-55.843680	0.000253	2.533916	0.858514	0.000101
1734	1.7243e+02	-10.9569	-55.722566	0.000304	3.040699	1.030217	0.000122
1735	1.7253e+02	-10.9184	-55.565118	0.000395	3.952909	1.339282	0.000158
1736	1.7263e+02	-10.8767	-55.435929	0.000324	3.243413	1.098898	0.000130
1737	1.7273e+02	-10.8350	-55.395558	0.000101	1.013566	0.343406	0.000041
1738	1.7283e+02	-10.7901	-55.230035	0.000416	4.155623	1.407963	0.000166
1739	1.7293e+02	-10.7548	-55.153330	0.000193	1.925776	0.652471	0.000077
1740	1.7303e+02	-10.7147	-55.032216	0.000304	3.040699	1.030217	0.000122
1741	1.7313e+02	-10.6810	-54.882842	0.000375	3.750196	1.270601	0.000150
1742	1.7323e+02	-10.6313	-54.769802	0.000284	2.837986	0.961536	0.000114
1743	1.7333e+02	-10.5960	-54.632539	0.000345	3.446126	1.167579	0.000138
1744	1.7343e+02	-10.5639	-54.495277	0.000345	3.446126	1.167579	0.000138
1745	1.7353e+02	-10.5125	-54.370126	0.000314	3.142056	1.064557	0.000126
1746	1.7363e+02	-10.4692	-54.220752	0.000375	3.750196	1.270601	0.000150
1747	1.7373e+02	-10.4339	-54.103675	0.000294	2.939343	0.995876	0.000118
1748	1.7383e+02	-10.3986	-53.978523	0.000314	3.142056	1.064557	0.000126
1749	1.7393e+02	-10.3633	-53.841261	0.000345	3.446126	1.167579	0.000138
1750	1.7403e+02	-10.3216	-53.716110	0.000314	3.142056	1.064557	0.000126
1751	1.7413e+02	-10.2767	-53.550587	0.000416	4.155623	1.407963	0.000166
1752	1.7422e+02	-10.2334	-53.481956	0.000172	1.723063	0.583790	0.000069
1753	1.7432e+02	-10.2045	-53.397176	0.000213	2.128490	0.721152	0.000085
1754	1.7442e+02	-10.1580	-53.255876	0.000355	3.547483	1.201920	0.000142
1755	1.7452e+02	-10.1067	-53.191282	0.000162	1.621706	0.549449	0.000065
1756	1.7462e+02	-10.0762	-53.082279	0.000274	2.736630	0.927195	0.000110
1757	1.7472e+02	-10.0216	-52.981351	0.000253	2.533916	0.858514	0.000101
1758	1.7482e+02	-10.0008	-52.827940	0.000385	3.851553	1.304941	0.000154
1759	1.7492e+02	-9.9655	-52.670491	0.000395	3.952909	1.339282	0.000158
1760	1.7502e+02	-9.9142	-52.553414	0.000294	2.939343	0.995876	0.000118
1761	1.7512e+02	-9.8741	-52.375780	0.000446	4.459693	1.510985	0.000179
1762	1.7522e+02	-9.8356	-52.307149	0.000172	1.723063	0.583790	0.000069
1763	1.7532e+02	-9.7954	-52.129515	0.000446	4.459693	1.510985	0.000179
1764	1.7542e+02	-9.7585	-52.081070	0.000122	1.216280	0.412087	0.000049
1765	1.7552e+02	-9.7249	-51.899398	0.000456	4.561049	1.545325	0.000183
1766	1.7562e+02	-9.6783	-51.790396	0.000274	2.736630	0.927195	0.000110
1767	1.7572e+02	-9.6446	-51.673319	0.000294	2.939343	0.995876	0.000118
1768	1.7582e+02	-9.5949	-51.592576	0.000203	2.027133	0.686811	0.000081
1769	1.7592e+02	-9.5564	-51.487611	0.000264	2.635273	0.892855	0.000105
1770	1.7602e+02	-9.5163	-51.386682	0.000253	2.533916	0.858514	0.000101
1771	1.7612e+02	-9.4810	-51.265568	0.000304	3.040699	1.030217	0.000122
1772	1.7621e+02	-9.4361	-51.148491	0.000294	2.939343	0.995876	0.000118
1773	1.7631e+02	-9.3976	-51.047563	0.000253	2.533916	0.858514	0.000101
1774	1.7641e+02	-9.3575	-50.930486	0.000294	2.939343	0.995876	0.000118
1775	1.7651e+02	-9.3222	-50.882040	0.000122	1.216280	0.412087	0.000049
1776	1.7661e+02	-9.2869	-50.764963	0.000294	2.939343	0.995876	0.000118
1777	1.7671e+02	-9.2388	-50.631738	0.000334	3.344769	1.133239	0.000134
1778	1.7681e+02	-9.1906	-50.474290	0.000395	3.952909	1.339282	0.000158
1779	1.7691e+02	-9.1505	-50.454104	0.000051	0.506783	0.171703	0.000020
1780	1.7701e+02	-9.1233	-50.324916	0.000324	3.243413	1.098898	0.000130
1781	1.7711e+02	-9.0751	-50.191690	0.000334	3.344769	1.133239	0.000134
1782	1.7721e+02	-9.0382	-50.058465	0.000334	3.344769	1.133239	0.000134
1783	1.7731e+02	-8.9997	-49.876793	0.000456	4.561049	1.545325	0.000183
1784	1.7741e+02	-8.9612	-49.707234	0.000426	4.256979	1.442304	0.000170
1785	1.7751e+02	-8.9195	-49.614380	0.000233	2.331203	0.789833	0.000093
1786	1.7761e+02	-8.8746	-49.456931	0.000395	3.952909	1.339282	0.000158
1787	1.7771e+02	-8.8377	-49.319669	0.000345	3.446126	1.167579	0.000138
1788	1.7781e+02	-8.8056	-49.182406	0.000345	3.446126	1.167579	0.000138
1789	1.7791e+02	-8.7639	-49.105701	0.000193	1.925776	0.652471	0.000077
1790	1.7801e+02	-8.7158	-48.940178	0.000416	4.155623	1.407963	0.000166
1791	1.7810e+02	-8.6837	-48.786767	0.000385	3.851553	1.304941	0.000154
1792	1.7820e+02	-8.6372	-48.689876	0.000243	2.432560	0.824173	0.000097
1793	1.7830e+02	-8.5923	-48.524353	0.000416	4.155623	1.407963	0.000166
1794	1.7840e+02	-8.5602	-48.399202	0.000314	3.142056	1.064557	0.000126
1795	1.7850e+02	-8.5137	-48.265976	0.000334	3.344769	1.133239	0.000134
1796	1.7860e+02	-8.4784	-48.161011	0.000264	2.635273	0.892855	0.000105
1797	1.7870e+02	-8.4383	-48.043934	0.000294	2.939343	0.995876	0.000118
1798	1.7880e+02	-8.4094	-47.943005	0.000253	2.533916	0.858514	0.000101
1799	1.7890e+02	-8.3597	-47.850151	0.000233	2.331203	0.789833	0.000093
1800	1.7900e+02	-8.3244	-47.777483	0.000182	1.824420	0.618130	0.000073
1801	1.7910e+02	-8.2810	-47.708852	0.000172	1.723063	0.583790	0.000069
1802	1.7920e+02	-8.2458	-47.599849	0.000274	2.736630	0.927195	0.000110
1803	1.7930e+02	-8.2137	-47.498921	0.000253	2.533916	0.858514	0.000101
1804	1.7940e+02	-8.1720	-47.402029	0.000243	2.432560	0.824173	0.000097
1805	1.7950e+02	-8.1303	-47.353584	0.000122	1.216280	0.412087	0.000049
1806	1.7960e+02	-8.0853	-47.309175	0.000111	1.114923	0.377746	0.000045
1807	1.7970e+02	-8.0436	-47.256692	0.000132	1.317636	0.446427	0.000053
1808	1.7980e+02	-8.0003	-47.192098	0.000162	1.621706	0.549449	0.000065
1809	1.7990e+02	-7.9666	-47.054836	0.000345	3.446126	1.167579	0.000138
1810	1.8000e+02	-7.9249	-46.905462	0.000375	3.750196	1.270601	0.000150
1811	1.8009e+02	-7.8832	-46.348337	0.001399	13.987217	4.738998	0.000560
1812	1.8019e+02	-7.8495	-45.448056	0.002260	22.602533	7.657945	0.000905
1813	1.8029e+02	-7.8030	-45.044342	0.001014	10.135665	3.434056	0.000406
1814	1.8039e+02	-7.7661	-44.846522	0.000497	4.966476	1.682688	0.000199
1815	1.8049e+02	-7.7212	-44.701185	0.000365	3.648839	1.236260	0.000146
1816	1.8059e+02	-7.6875	-44.588146	0.000284	2.837986	0.961536	0.000114
1817	1.8069e+02	-7.6426	-44.442809	0.000365	3.648839	1.236260	0.000146
1818	1.8079e+02	-7.6105	-44.277286	0.000416	4.155623	1.407963	0.000166
1819	1.8089e+02	-7.5688	-44.212692	0.000162	1.621706	0.549449	0.000065
1820	1.8099e+02	-7.5335	-44.099652	0.000284	2.837986	0.961536	0.000114
1821	1.8109e+02	-7.4934	-43.869535	0.000578	5.777329	1.957412	0.000231
1822	1.8119e+02	-7.4468	-43.752459	0.000294	2.939343	0.995876	0.000118
1823	1.8129e+02	-7.4180	-43.699976	0.000132	1.317636	0.446427	0.000053
1824	1.8139e+02	-7.3714	-43.695939	0.000010	0.101357	0.034341	0.000004
1825	1.8149e+02	-7.3265	-43.708050	-0.000030	-0.304070	-0.103022	-0.000012
1826	1.8159e+02	-7.2784	-43.699976	0.000020	0.202713	0.068681	0.000008
1827	1.8169e+02	-7.2447	-43.752459	-0.000132	-1.317636	-0.446427	-0.000053
1828	1.8179e+02	-7.2030	-43.699976	0.000132	1.317636	0.446427	0.000053
1829	1.8189e+02	-7.1645	-43.691902	0.000020	0.202713	0.068681	0.000008
1830	1.8199e+02	-7.1276	-43.712087	-0.000051	-0.506783	-0.171703	-0.000020
1831	1.8209e+02	-7.0923	-43.687864	0.000061	0.608140	0.206043	0.000024
1832	1.8218e+02	-7.0522	-43.590973	0.000243	2.432560	0.824173	0.000097
1833	1.8228e+02	-7.0041	-43.518305	0.000182	1.824420	0.618130	0.000073
1834	1.8238e+02	-6.9704	-43.146888	0.000932	9.324812	3.159332	0.000373
1835	1.8248e+02	-6.9303	-42.831992	0.000791	7.905819	2.678564	0.000316
1836	1.8258e+02	-6.8998	-42.525169	0.000770	7.703105	2.609883	0.000308
1837	1.8268e+02	-6.8533	-42.149716	0.000943	9.426168	3.193672	0.000377
1838	1.8278e+02	-6.8052	-41.487625	0.001662	16.622490	5.631852	0.000665
1839	1.8288e+02	-6.7618	-41.241360	0.000618	6.182756	2.094774	0.000248
1840	1.8298e+02	-6.7265	-40.970872	0.000679	6.790895	2.300818	0.000272
1841	1.8308e+02	-6.6880	-40.894166	0.000193	1.925776	0.652471	0.000077
1842	1.8318e+02	-6.6560	-40.615604	0.000699	6.993609	2.369499	0.000280
1843	1.8328e+02	-6.6126	-40.425859	0.000476	4.763762	1.614006	0.000191
1844	1.8338e+02	-6.5629	-40.312819	0.000284	2.837986	0.961536	0.000114
1845	1.8348e+02	-6.5276	-40.131148	0.000456	4.561049	1.545325	0.000183
1846	1.8358e+02	-6.4971	-39.973700	0.000395	3.952909	1.339282	0.000158
1847	1.8368e+02	-6.4506	-39.832400	0.000355	3.547483	1.201920	0.000142
1848	1.8378e+02	-6.4185	-39.691100	0.000355	3.547483	1.201920	0.000142
1849	1.8388e+02	-6.3736	-39.557875	0.000334	3.344769	1.133239	0.000134
1850	1.8398e+02	-6.3271	-39.343906	0.000537	5.371902	1.820050	0.000215
1851	1.8407e+02	-6.2854	-39.198569	0.000365	3.648839	1.236260	0.000146
1852	1.8417e+02	-6.2597	-39.049195	0.000375	3.750196	1.270601	0.000150
1853	1.8427e+02	-6.2148	-38.867524	0.000456	4.561049	1.545325	0.000183
1854	1.8437e+02	-6.1683	-38.714113	0.000385	3.851553	1.304941	0.000154
1855	1.8447e+02	-6.1266	-38.532442	0.000456	4.561049	1.545325	0.000183
1856	1.8457e+02	-6.0865	-38.334622	0.000497	4.966476	1.682688	0.000199
1857	1.8467e+02	-6.0480	-38.156988	0.000446	4.459693	1.510985	0.000179
1858	1.8477e+02	-6.0191	-38.023763	0.000334	3.344769	1.133239	0.000134
1859	1.8487e+02	-5.9790	-37.850166	0.000436	4.358336	1.476644	0.000174
1860	1.8497e+02	-5.9341	-37.737126	0.000284	2.837986	0.961536	0.000114
1861	1.8507e+02	-5.9020	-37.563529	0.000436	4.358336	1.476644	0.000174
1862	1.8517e+02	-5.8522	-37.406081	0.000395	3.952909	1.339282	0.000158
1863	1.8527e+02	-5.8218	-37.232484	0.000436	4.358336	1.476644	0.000174
1864	1.8537e+02	-5.7736	-37.087147	0.000365	3.648839	1.236260	0.000146
1865	1.8547e+02	-5.7319	-36.909513	0.000446	4.459693	1.510985	0.000179
1866	1.8557e+02	-5.6902	-36.752065	0.000395	3.952909	1.339282	0.000158
1867	1.8567e+02	-5.6597	-36.598654	0.000385	3.851553	1.304941	0.000154
1868	1.8577e+02	-5.6132	-36.396797	0.000507	5.067832	1.717028	0.000203
1869	1.8587e+02	-5.5731	-36.283757	0.000284	2.837986	0.961536	0.000114
1870	1.8597e+02	-5.5410	-36.089975	0.000487	4.865119	1.648347	0.000195
1871	1.8606e+02	-5.5009	-35.928490	0.000405	4.054266	1.373622	0.000162
1872	1.8616e+02	-5.4544	-35.787190	0.000355	3.547483	1.201920	0.000142
1873	1.8626e+02	-5.4175	-35.629741	0.000395	3.952909	1.339282	0.000158
1874	1.8636e+02	-5.3774	-35.448070	0.000456	4.561049	1.545325	0.000183
1875	1.8646e+02	-5.3357	-35.250251	0.000497	4.966476	1.682688	0.000199
1876	1.8656e+02	-5.3020	-35.076654	0.000436	4.358336	1.476644	0.000174
1877	1.8666e+02	-5.2731	-34.931317	0.000365	3.648839	1.236260	0.000146
1878	1.8676e+02	-5.2105	-34.769832	0.000405	4.054266	1.373622	0.000162
1879	1.8686e+02	-5.1801	-34.636606	0.000334	3.344769	1.133239	0.000134
1880	1.8696e+02	-5.1400	-34.471083	0.000416	4.155623	1.407963	0.000166
1881	1.8706e+02	-5.0950	-34.236930	0.000588	5.878686	1.991753	0.000235
1882	1.8716e+02	-5.0614	-34.087556	0.000375	3.750196	1.270601	0.000150
1883	1.8726e+02	-5.0100	-33.970479	0.000294	2.939343	0.995876	0.000118
1884	1.8736e+02	-4.9747	-33.780733	0.000476	4.763762	1.614006	0.000191
1885	1.8746e+02	-4.9346	-33.558691	0.000557	5.574616	1.888731	0.000223
1886	1.8756e+02	-4.9009	-33.429502	0.000324	3.243413	1.098898	0.000130
1887	1.8766e+02	-4.8656	-33.239757	0.000476	4.763762	1.614006	0.000191
1888	1.8776e+02	-4.8175	-33.094420	0.000365	3.648839	1.236260	0.000146
1889	1.8786e+02	-4.7726	-32.876415	0.000547	5.473259	1.854390	0.000219
1890	1.8796e+02	-4.7405	-32.650335	0.000568	5.675972	1.923071	0.000227
1891	1.8806e+02	-4.7100	-32.456553	0.000487	4.865119	1.648347	0.000195
1892	1.8815e+02	-4.6651	-32.307179	0.000375	3.750196	1.270601	0.000150
1893	1.8825e+02	-4.6266	-32.109359	0.000497	4.966476	1.682688	0.000199
1894	1.8835e+02	-4.5801	-31.919614	0.000476	4.763762	1.614006	0.000191
1895	1.8845e+02	-4.5384	-31.729868	0.000476	4.763762	1.614006	0.000191
1896	1.8855e+02	-4.5015	-31.604717	0.000314	3.142056	1.064557	0.000126
1897	1.8865e+02	-4.4550	-31.427083	0.000446	4.459693	1.510985	0.000179
1898	1.8875e+02	-4.4116	-31.293858	0.000334	3.344769	1.133239	0.000134
1899	1.8885e+02	-4.3683	-31.100075	0.000487	4.865119	1.648347	0.000195
1900	1.8895e+02	-4.3394	-30.878033	0.000557	5.574616	1.888731	0.000223
1901	1.8905e+02	-4.2961	-30.700399	0.000446	4.459693	1.510985	0.000179
1902	1.8915e+02	-4.2592	-30.563136	0.000345	3.446126	1.167579	0.000138
1903	1.8925e+02	-4.2223	-30.357242	0.000517	5.169189	1.751369	0.000207
1904	1.8935e+02	-4.1774	-30.183645	0.000436	4.358336	1.476644	0.000174
1905	1.8945e+02	-4.1389	-30.046383	0.000345	3.446126	1.167579	0.000138
1906	1.8955e+02	-4.0908	-29.860674	0.000466	4.662406	1.579666	0.000187
1907	1.8965e+02	-4.0651	-29.662855	0.000497	4.966476	1.682688	0.000199
1908	1.8975e+02	-4.0298	-29.497332	0.000416	4.155623	1.407963	0.000166
1909	1.8985e+02	-3.9897	-29.234918	0.000659	6.588182	2.232137	0.000264
1910	1.8995e+02	-3.9480	-29.093619	0.000355	3.547483	1.201920	0.000142
1911	1.9004e+02	-3.9031	-28.891762	0.000507	5.067832	1.717028	0.000203
1912	1.9014e+02	-3.8694	-28.718165	0.000436	4.358336	1.476644	0.000174
1913	1.9024e+02	-3.8229	-28.528420	0.000476	4.763762	1.614006	0.000191
1914	1.9034e+02	-3.7796	-28.370971	0.000395	3.952909	1.339282	0.000158
1915	1.9044e+02	-3.7363	-28.209486	0.000405	4.054266	1.373622	0.000162
1916	1.9054e+02	-3.7058	-27.999555	0.000527	5.270546	1.785709	0.000211
1917	1.9064e+02	-3.6609	-27.862292	0.000345	3.446126	1.167579	0.000138
1918	1.9074e+02	-3.6272	-27.656398	0.000517	5.169189	1.751369	0.000207
1919	1.9084e+02	-3.5774	-27.494913	0.000405	4.054266	1.373622	0.000162
1920	1.9094e+02	-3.5486	-27.301130	0.000487	4.865119	1.648347	0.000195
1921	1.9104e+02	-3.5085	-27.107348	0.000487	4.865119	1.648347	0.000195
1922	1.9114e+02	-3.4539	-26.901454	0.000517	5.169189	1.751369	0.000207
1923	1.9124e+02	-3.4282	-26.695560	0.000517	5.169189	1.751369	0.000207
1924	1.9134e+02	-3.3865	-26.493703	0.000507	5.067832	1.717028	0.000203
1925	1.9144e+02	-3.3512	-26.372589	0.000304	3.040699	1.030217	0.000122
1926	1.9154e+02	-3.3063	-26.178807	0.000487	4.865119	1.648347	0.000195
1927	1.9164e+02	-3.2710	-26.005210	0.000436	4.358336	1.476644	0.000174
1928	1.9174e+02	-3.2277	-25.742796	0.000659	6.588182	2.232137	0.000264
1929	1.9184e+02	-3.1876	-25.561125	0.000456	4.561049	1.545325	0.000183
1930	1.9194e+02	-3.1379	-25.399639	0.000405	4.054266	1.373622	0.000162
1931	1.9203e+02	-3.1090	-25.181634	0.000547	5.473259	1.854390	0.000219
1932	1.9213e+02	-3.0689	-24.979777	0.000507	5.067832	1.717028	0.000203
1933	1.9223e+02	-3.0256	-24.818292	0.000405	4.054266	1.373622	0.000162
1934	1.9233e+02	-2.9855	-24.685066	0.000334	3.344769	1.133239	0.000134
1935	1.9243e+02	-2.9518	-24.475135	0.000527	5.270546	1.785709	0.000211
1936	1.9253e+02	-2.9037	-24.309613	0.000416	4.155623	1.407963	0.000166
1937	1.9263e+02	-2.8684	-24.095645	0.000537	5.371902	1.820050	0.000215
1938	1.9273e+02	-2.8234	-23.881676	0.000537	5.371902	1.820050	0.000215
1939	1.9283e+02	-2.7882	-23.724228	0.000395	3.952909	1.339282	0.000158
1940	1.9293e+02	-2.7577	-23.522371	0.000507	5.067832	1.717028	0.000203
1941	1.9303e+02	-2.7015	-23.316477	0.000517	5.169189	1.751369	0.000207
1942	1.9313e+02	-2.6694	-23.122695	0.000487	4.865119	1.648347	0.000195
1943	1.9323e+02	-2.6358	-22.949098	0.000436	4.358336	1.476644	0.000174
1944	1.9333e+02	-2.5860	-22.747241	0.000507	5.067832	1.717028	0.000203
1945	1.9343e+02	-2.5523	-22.529236	0.000547	5.473259	1.854390	0.000219
1946	1.9353e+02	-2.5122	-22.335453	0.000487	4.865119	1.648347	0.000195
1947	1.9363e+02	-2.4625	-22.121485	0.000537	5.371902	1.820050	0.000215
1948	1.9373e+02	-2.4304	-21.927703	0.000487	4.865119	1.648347	0.000195
1949	1.9383e+02	-2.3871	-21.669326	0.000649	6.486825	2.197796	0.000260
1950	1.9393e+02	-2.3422	-21.507841	0.000405	4.054266	1.373622	0.000162
1951	1.9403e+02	-2.3117	-21.257538	0.000628	6.284112	2.129115	0.000252
1952	1.9412e+02	-2.2620	-21.124313	0.000334	3.344769	1.133239	0.000134
1953	1.9422e+02	-2.2331	-20.930530	0.000487	4.865119	1.648347	0.000195
1954	1.9432e+02	-2.1914	-20.732711	0.000497	4.966476	1.682688	0.000199
1955	1.9442e+02	-2.1545	-20.526817	0.000517	5.169189	1.751369	0.000207
1956	1.9452e+02	-2.1128	-20.328997	0.000497	4.966476	1.682688	0.000199
1957	1.9462e+02	-2.0711	-20.098880	0.000578	5.777329	1.957412	0.000231
1958	1.9472e+02	-2.0326	-19.925283	0.000436	4.358336	1.476644	0.000174
1959	1.9482e+02	-1.9860	-19.699204	0.000568	5.675972	1.923071	0.000227
1960	1.9492e+02	-1.9556	-19.473124	0.000568	5.675972	1.923071	0.000227
1961	1.9502e+02	-1.9106	-19.295490	0.000446	4.459693	1.510985	0.000179
1962	1.9512e+02	-1.8770	-19.101708	0.000487	4.865119	1.648347	0.000195
1963	1.9522e+02	-1.8288	-18.871591	0.000578	5.777329	1.957412	0.000231
1964	1.9532e+02	-1.7919	-18.637437	0.000588	5.878686	1.991753	0.000235
1965	1.9542e+02	-1.7502	-18.431543	0.000517	5.169189	1.751369	0.000207
1966	1.9552e+02	-1.7133	-18.261984	0.000426	4.256979	1.442304	0.000170
1967	1.9562e+02	-1.6700	-18.048015	0.000537	5.371902	1.820050	0.000215
1968	1.9572e+02	-1.6267	-17.785601	0.000659	6.588182	2.232137	0.000264
1969	1.9582e+02	-1.5930	-17.616042	0.000426	4.256979	1.442304	0.000170
1970	1.9592e+02	-1.5481	-17.402074	0.000537	5.371902	1.820050	0.000215
1971	1.9601e+02	-1.5112	-17.232514	0.000426	4.256979	1.442304	0.000170
1972	1.9611e+02	-1.4695	-17.054880	0.000446	4.459693	1.510985	0.000179
1973	1.9621e+02	-1.4246	-16.800540	0.000639	6.385469	2.163455	0.000256
1974	1.9631e+02	-1.3861	-16.622906	0.000446	4.459693	1.510985	0.000179
1975	1.9641e+02	-1.3604	-16.404901	0.000547	5.473259	1.854390	0.000219
1976	1.9651e+02	-1.3091	-16.199007	0.000517	5.169189	1.751369	0.000207
1977	1.9661e+02	-1.2689	-15.960816	0.000598	5.980042	2.026093	0.000239
1978	1.9671e+02	-1.2304	-15.758959	0.000507	5.067832	1.717028	0.000203
1979	1.9681e+02	-1.1935	-15.585363	0.000436	4.358336	1.476644	0.000174
1980	1.9691e+02	-1.1567	-15.351209	0.000588	5.878686	1.991753	0.000235
1981	1.9701e+02	-1.1133	-15.145315	0.000517	5.169189	1.751369	0.000207
1982	1.9711e+02	-1.0732	-14.935384	0.000527	5.270546	1.785709	0.000211
1983	1.9721e+02	-1.0363	-14.689118	0.000618	6.182756	2.094774	0.000248
1984	1.9731e+02	-0.9978	-14.491299	0.000497	4.966476	1.682688	0.000199
1985	1.9741e+02	-0.9577	-14.265219	0.000568	5.675972	1.923071	0.000227
1986	1.9751e+02	-0.9112	-14.055288	0.000527	5.270546	1.785709	0.000211
1987	1.9761e+02	-0.8775	-13.869580	0.000466	4.662406	1.579666	0.000187
1988	1.9771e+02	-0.8358	-13.663686	0.000517	5.169189	1.751369	0.000207
1989	1.9781e+02	-0.7909	-13.437606	0.000568	5.675972	1.923071	0.000227
1990	1.9791e+02	-0.7444	-13.159044	0.000699	6.993609	2.369499	0.000280
1991	1.9800e+02	-0.7123	-13.025818	0.000334	3.344769	1.133239	0.000134
1992	1.9810e+02	-0.6706	-12.807813	0.000547	5.473259	1.854390	0.000219
1993	1.9820e+02	-0.6417	-12.581734	0.000568	5.675972	1.923071	0.000227
1994	1.9830e+02	-0.5888	-12.379877	0.000507	5.067832	1.717028	0.000203
1995	1.9840e+02	-0.5551	-12.133611	0.000618	6.182756	2.094774	0.000248
1996	1.9850e+02	-0.5069	-11.968089	0.000416	4.155623	1.407963	0.000166
1997	1.9860e+02	-0.4829	-11.677415	0.000730	7.297679	2.472520	0.000292
1998	1.9870e+02	-0.4283	-11.507855	0.000426	4.256979	1.442304	0.000170
1999	1.9880e+02	-0.4011	-11.257553	0.000628	6.284112	2.129115	0.000252
2000	1.9890e+02	-0.3545	-11.047622	0.000527	5.270546	1.785709	0.000211
2001	1.9900e+02	-0.3208	-10.809431	0.000598	5.980042	2.026093	0.000239
2002	1.9910e+02	-0.2856	-10.583351	0.000568	5.675972	1.923071	0.000227
2003	1.9920e+02	-0.2342	-10.333049	0.000628	6.284112	2.129115	0.000252
2004	1.9930e+02	-0.2021	-10.127155	0.000517	5.169189	1.751369	0.000207
2005	1.9940e+02	-0.1572	-9.929335	0.000497	4.966476	1.682688	0.000199
2006	1.9950e+02	-0.1203	-9.743627	0.000466	4.662406	1.579666	0.000187
2007	1.9960e+02	-0.0674	-9.549845	0.000487	4.865119	1.648347	0.000195
2008	1.9970e+02	-0.0321	-9.347988	0.000507	5.067832	1.717028	0.000203
2009	1.9980e+02	-0.0016	-9.085574	0.000507	5.067832	1.717028	0.000264

Center data before PMax,+/-Pr and +/-Vc Calc.

PMax (uC/cm2):	7.75e+01
Pr (uC/cm2):	4.05e+00
-Pr (uC/cm2):	-9.09e+00
PLoss (uC/cm2):	-5.25e+00
Vc:	9.56e-01
-Vc:	-7.77e-01
C (Max-Eff) (nF):	3.88e-01
K (Eff):	1.31e+03
Vert. (+/-Pr) Shift (uC/cm2):	-2.52e+00
Horiz. Shift (+/-Vc):	8.96e-02
Offset (uC/cm2):	3.91e+00

A (Loop Area - uC/cm2·Volts):	2.39e-02



Hysteresis Version: 5.48.1 - Radiant Technologies, Inc., 1999 - 9/12/24

