»»»»»»»»»»»»»»»»»»»»»»»»»»»»»»»»»»»» Hysteresis ««««««««««««««««««««««««««««««««««««
»»»  Executed Version:	5.48.1
»»»  Vision Version:	5.48.4 (R)
»»»  Vision Compiled:	9/18/24
»»»  Driver Version:	5.47.0
»»»  Windows Version:	Windows 8 or 8.1
»»»  Processor Information:	x86 (AMD or Intel) - 32 Processors
»»»  Tester Name:	PMF21124-494 (100V)
»»»  Tester S/N:	PMF21124-494
»»»  Internal Amp Type:	100V RevK 270k
»»»  Internal Amp S/N:	iAB2-596/K     
»»»  Execution Count:	1
»»»»»»»»»»»»»»»»»»»»»»»»»»»»»»»»»»»»»»»»»»««««««««««««««««««««««««««««««««««««««««««

Stored:	6/13/2025 - 16:32:14
Configured:	06/13/25 01:30:53 PM
Executed:	06/13/25 04:31:10 PM

»»»»»»»»»»»»»»»»»»»»»»»»»»»»»»»»»»» Sample Info ««««««««««««««««««««««««««««««««««««
Sample Name:	
Lot Name:	
Wafer Name:	
Die Row/Column:	0/0
Capacitor Number:	0
Sample Area (cm2):	1.00e-04
Sample Thickness (microns):	3.00e-01

Amplifier:	Internal

»»»»»»»»»»»»»»»»»»»»»»»»»»»»»»»»»»» Tester Info «««««««««««««««««««««««««««««««««««
Tester Name:	PMF21124-494 (100V)
Tester Serial Number:	PMF21124-494
Return Signal Amp. Level:	0.19 [Index: 3]

»»»»»»»»»»»»»»»»»»»»»»»»»»»»»»»» Hysteresis Info ««««««««««««««««««««««««««««««««««
Task Name:	Hyst-1922
Volts:	20.00
Field:	666.67 (kV/cm)
DCBias:	0.00
DCField:	0.00 (kV/cm)
Hysteresis Period (ms):	2.00e+02
Preset:	Enabled
Preset Delay (ms):	1.00e+03
Profile:	Standard Bipolar

»»»»»»»»»»»»»»»»»»»»»»»»»»»»»»»»»»»»»» Data «««««««««««««««««««««««««««««««««««««««
Points:	2009

Valid Data

Point	Time (ms)	Drive Voltage	Measured Polarization (uC/cm2)	Capacitance (uF)	Normalized Capacitance (uF/cm2)	Dielectric Constant	Instantaneous Current (mA)
   1	0.0000e+00	0.0000	-3.007666	0.000324	3.244129	1.099140	0.000130
   2	9.9500e-02	0.0401	-2.878478	0.000324	3.244129	1.099140	0.000130
   3	1.9900e-01	0.0722	-2.708918	0.000426	4.257919	1.442622	0.000170
   4	2.9850e-01	0.1075	-2.527247	0.000456	4.562056	1.545666	0.000183
   5	3.9800e-01	0.1540	-2.361724	0.000416	4.156540	1.408274	0.000166
   6	4.9750e-01	0.1941	-2.180053	0.000456	4.562056	1.545666	0.000183
   7	5.9700e-01	0.2374	-2.022605	0.000395	3.953782	1.339577	0.000158
   8	6.9650e-01	0.2695	-1.816711	0.000517	5.170330	1.751755	0.000207
   9	7.9600e-01	0.3192	-1.667337	0.000375	3.751024	1.270881	0.000150
  10	8.9550e-01	0.3561	-1.421072	0.000618	6.184120	2.095237	0.000248
  11	9.9500e-01	0.3978	-1.320143	0.000253	2.534475	0.858704	0.000101
  12	1.0945e+00	0.4283	-1.146547	0.000436	4.359298	1.476970	0.000174
  13	1.1940e+00	0.4716	-0.948727	0.000497	4.967572	1.683059	0.000199
  14	1.2935e+00	0.5150	-0.787241	0.000406	4.055161	1.373926	0.000162
  15	1.3930e+00	0.5486	-0.581348	0.000517	5.170330	1.751755	0.000207
  16	1.4925e+00	0.5823	-0.391602	0.000476	4.764814	1.614363	0.000191
  17	1.5920e+00	0.6353	-0.193783	0.000497	4.967572	1.683059	0.000199
  18	1.6915e+00	0.6866	-0.048446	0.000365	3.649645	1.236533	0.000146
  19	1.7910e+00	0.7091	0.076706	0.000314	3.142749	1.064792	0.000126
  20	1.8905e+00	0.7524	0.286637	0.000527	5.271709	1.786103	0.000211
  21	1.9900e+00	0.7925	0.476382	0.000476	4.764814	1.614363	0.000191
  22	2.0895e+00	0.8438	0.637867	0.000406	4.055161	1.373926	0.000162
  23	2.1890e+00	0.8743	0.791279	0.000385	3.852403	1.305229	0.000154
  24	2.2885e+00	0.9176	1.029470	0.000598	5.981362	2.026540	0.000239
  25	2.3880e+00	0.9674	1.178844	0.000375	3.751024	1.270881	0.000150
  26	2.4875e+00	0.9882	1.412998	0.000588	5.879983	1.992192	0.000235
  27	2.5870e+00	1.0299	1.542186	0.000324	3.244129	1.099140	0.000130
  28	2.6865e+00	1.0652	1.711746	0.000426	4.257919	1.442622	0.000170
  29	2.7860e+00	1.1053	1.905528	0.000487	4.866193	1.648711	0.000195
  30	2.8855e+00	1.1518	2.079125	0.000436	4.359298	1.476970	0.000174
  31	2.9850e+00	1.1984	2.244647	0.000416	4.156540	1.408274	0.000166
  32	3.0845e+00	1.2288	2.434393	0.000476	4.764814	1.614363	0.000191
  33	3.1840e+00	1.2706	2.672584	0.000598	5.981362	2.026540	0.000239
  34	3.2835e+00	1.3139	2.870404	0.000497	4.967572	1.683059	0.000199
  35	3.3830e+00	1.3540	3.027852	0.000395	3.953782	1.339577	0.000158
  36	3.4825e+00	1.3925	3.177226	0.000375	3.751024	1.270881	0.000150
  37	3.5820e+00	1.4390	3.318526	0.000355	3.548266	1.202185	0.000142
  38	3.6815e+00	1.4679	3.480011	0.000406	4.055161	1.373926	0.000162
  39	3.7810e+00	1.5208	3.693979	0.000537	5.373088	1.820451	0.000215
  40	3.8805e+00	1.5401	3.863539	0.000426	4.257919	1.442622	0.000170
  41	3.9800e+00	1.5882	4.049247	0.000466	4.663435	1.580014	0.000187
  42	4.0795e+00	1.6251	4.230918	0.000456	4.562056	1.545666	0.000183
  43	4.1790e+00	1.6668	4.420664	0.000476	4.764814	1.614363	0.000191
  44	4.2785e+00	1.7053	4.618483	0.000497	4.967572	1.683059	0.000199
  45	4.3780e+00	1.7454	4.763820	0.000365	3.649645	1.236533	0.000146
  46	4.4775e+00	1.7791	4.941454	0.000446	4.460677	1.511318	0.000179
  47	4.5770e+00	1.8176	5.131200	0.000476	4.764814	1.614363	0.000191
  48	4.6765e+00	1.8593	5.333056	0.000507	5.068951	1.717407	0.000203
  49	4.7760e+00	1.9042	5.514727	0.000456	4.562056	1.545666	0.000183
  50	4.8755e+00	1.9556	5.708510	0.000487	4.866193	1.648711	0.000195
  51	4.9750e+00	1.9860	5.898255	0.000476	4.764814	1.614363	0.000191
  52	5.0745e+00	2.0310	6.100112	0.000507	5.068951	1.717407	0.000203
  53	5.1740e+00	2.0711	6.322155	0.000558	5.575846	1.889148	0.000223
  54	5.2735e+00	2.1096	6.467491	0.000365	3.649645	1.236533	0.000146
  55	5.3730e+00	2.1417	6.608791	0.000355	3.548266	1.202185	0.000142
  56	5.4725e+00	2.1946	6.798537	0.000476	4.764814	1.614363	0.000191
  57	5.5720e+00	2.2267	6.996356	0.000497	4.967572	1.683059	0.000199
  58	5.6715e+00	2.2636	7.186102	0.000476	4.764814	1.614363	0.000191
  59	5.7710e+00	2.3165	7.359698	0.000436	4.359298	1.476970	0.000174
  60	5.8705e+00	2.3582	7.529258	0.000426	4.257919	1.442622	0.000170
  61	5.9700e+00	2.3823	7.727078	0.000497	4.967572	1.683059	0.000199
  62	6.0695e+00	2.4336	7.924897	0.000497	4.967572	1.683059	0.000199
  63	6.1690e+00	2.4641	8.114643	0.000476	4.764814	1.614363	0.000191
  64	6.2685e+00	2.5074	8.276128	0.000406	4.055161	1.373926	0.000162
  65	6.3680e+00	2.5411	8.449725	0.000436	4.359298	1.476970	0.000174
  66	6.4675e+00	2.5828	8.647545	0.000497	4.967572	1.683059	0.000199
  67	6.5670e+00	2.6309	8.829216	0.000456	4.562056	1.545666	0.000183
  68	6.6665e+00	2.6678	8.998776	0.000426	4.257919	1.442622	0.000170
  69	6.7660e+00	2.7047	9.208707	0.000527	5.271709	1.786103	0.000211
  70	6.8655e+00	2.7481	9.418638	0.000527	5.271709	1.786103	0.000211
  71	6.9650e+00	2.7914	9.612420	0.000487	4.866193	1.648711	0.000195
  72	7.0645e+00	2.8234	9.757757	0.000365	3.649645	1.236533	0.000146
  73	7.1640e+00	2.8620	9.943465	0.000466	4.663435	1.580014	0.000187
  74	7.2635e+00	2.8972	10.121099	0.000446	4.460677	1.511318	0.000179
  75	7.3630e+00	2.9454	10.331030	0.000527	5.271709	1.786103	0.000211
  76	7.4625e+00	2.9935	10.516739	0.000466	4.663435	1.580014	0.000187
  77	7.5620e+00	3.0192	10.670150	0.000385	3.852403	1.305229	0.000154
  78	7.6615e+00	3.0577	10.843747	0.000436	4.359298	1.476970	0.000174
  79	7.7610e+00	3.1074	11.041566	0.000497	4.967572	1.683059	0.000199
  80	7.8605e+00	3.1459	11.287832	0.000618	6.184120	2.095237	0.000248
  81	7.9600e+00	3.1828	11.465465	0.000446	4.460677	1.511318	0.000179
  82	8.0595e+00	3.2165	11.635025	0.000426	4.257919	1.442622	0.000170
  83	8.1590e+00	3.2678	11.808622	0.000436	4.359298	1.476970	0.000174
  84	8.2585e+00	3.3047	11.990293	0.000456	4.562056	1.545666	0.000183
  85	8.3580e+00	3.3432	12.188113	0.000497	4.967572	1.683059	0.000199
  86	8.4575e+00	3.3849	12.345561	0.000395	3.953782	1.339577	0.000158
  87	8.5570e+00	3.4250	12.571641	0.000568	5.677225	1.923496	0.000227
  88	8.6565e+00	3.4619	12.733126	0.000406	4.055161	1.373926	0.000162
  89	8.7560e+00	3.5020	12.991503	0.000649	6.488257	2.198281	0.000260
  90	8.8555e+00	3.5341	13.132803	0.000355	3.548266	1.202185	0.000142
  91	8.9550e+00	3.5871	13.290251	0.000395	3.953782	1.339577	0.000158
  92	9.0545e+00	3.6224	13.479996	0.000476	4.764814	1.614363	0.000191
  93	9.1540e+00	3.6673	13.693964	0.000537	5.373088	1.820451	0.000215
  94	9.2535e+00	3.6962	13.843338	0.000375	3.751024	1.270881	0.000150
  95	9.3530e+00	3.7379	14.012898	0.000426	4.257919	1.442622	0.000170
  96	9.4525e+00	3.7796	14.194569	0.000456	4.562056	1.545666	0.000183
  97	9.5520e+00	3.8245	14.396426	0.000507	5.068951	1.717407	0.000203
  98	9.6515e+00	3.8566	14.578097	0.000456	4.562056	1.545666	0.000183
  99	9.7510e+00	3.9015	14.751694	0.000436	4.359298	1.476970	0.000174
 100	9.8505e+00	3.9448	14.961625	0.000527	5.271709	1.786103	0.000211
 101	9.9500e+00	3.9769	15.135222	0.000436	4.359298	1.476970	0.000174
 102	1.0050e+01	4.0250	15.288633	0.000385	3.852403	1.305229	0.000154
 103	1.0149e+01	4.0587	15.486453	0.000497	4.967572	1.683059	0.000199
 104	1.0248e+01	4.0940	15.688309	0.000507	5.068951	1.717407	0.000203
 105	1.0348e+01	4.1389	15.849795	0.000406	4.055161	1.373926	0.000162
 106	1.0447e+01	4.1887	16.043577	0.000487	4.866193	1.648711	0.000195
 107	1.0547e+01	4.2239	16.237360	0.000487	4.866193	1.648711	0.000195
 108	1.0646e+01	4.2705	16.439217	0.000507	5.068951	1.717407	0.000203
 109	1.0746e+01	4.3042	16.612814	0.000436	4.359298	1.476970	0.000174
 110	1.0845e+01	4.3443	16.762188	0.000375	3.751024	1.270881	0.000150
 111	1.0945e+01	4.3763	16.931747	0.000426	4.257919	1.442622	0.000170
 112	1.1044e+01	4.4197	17.129567	0.000497	4.967572	1.683059	0.000199
 113	1.1144e+01	4.4598	17.303164	0.000436	4.359298	1.476970	0.000174
 114	1.1243e+01	4.4999	17.464649	0.000406	4.055161	1.373926	0.000162
 115	1.1343e+01	4.5384	17.690729	0.000568	5.677225	1.923496	0.000227
 116	1.1443e+01	4.5817	17.840103	0.000375	3.751024	1.270881	0.000150
 117	1.1542e+01	4.6234	18.013700	0.000436	4.359298	1.476970	0.000174
 118	1.1642e+01	4.6555	18.199408	0.000466	4.663435	1.580014	0.000187
 119	1.1741e+01	4.6940	18.377042	0.000446	4.460677	1.511318	0.000179
 120	1.1841e+01	4.7229	18.538527	0.000406	4.055161	1.373926	0.000162
 121	1.1940e+01	4.7790	18.740384	0.000507	5.068951	1.717407	0.000203
 122	1.2040e+01	4.8223	18.926092	0.000466	4.663435	1.580014	0.000187
 123	1.2139e+01	4.8512	19.119875	0.000487	4.866193	1.648711	0.000195
 124	1.2239e+01	4.8961	19.273286	0.000385	3.852403	1.305229	0.000154
 125	1.2338e+01	4.9314	19.454957	0.000456	4.562056	1.545666	0.000183
 126	1.2438e+01	4.9699	19.713334	0.000649	6.488257	2.198281	0.000260
 127	1.2537e+01	5.0148	19.886931	0.000436	4.359298	1.476970	0.000174
 128	1.2636e+01	5.0533	20.024193	0.000345	3.446887	1.167837	0.000138
 129	1.2736e+01	5.0983	20.177604	0.000385	3.852403	1.305229	0.000154
 130	1.2835e+01	5.1464	20.347164	0.000426	4.257919	1.442622	0.000170
 131	1.2935e+01	5.1865	20.536909	0.000476	4.764814	1.614363	0.000191
 132	1.3034e+01	5.2138	20.690321	0.000385	3.852403	1.305229	0.000154
 133	1.3134e+01	5.2490	20.859880	0.000426	4.257919	1.442622	0.000170
 134	1.3233e+01	5.2956	21.053663	0.000487	4.866193	1.648711	0.000195
 135	1.3333e+01	5.3437	21.251483	0.000497	4.967572	1.683059	0.000199
 136	1.3432e+01	5.3758	21.408931	0.000395	3.953782	1.339577	0.000158
 137	1.3532e+01	5.4207	21.582528	0.000436	4.359298	1.476970	0.000174
 138	1.3632e+01	5.4592	21.752087	0.000426	4.257919	1.442622	0.000170
 139	1.3731e+01	5.4945	21.929721	0.000446	4.460677	1.511318	0.000179
 140	1.3831e+01	5.5298	22.107355	0.000446	4.460677	1.511318	0.000179
 141	1.3930e+01	5.5827	22.264804	0.000395	3.953782	1.339577	0.000158
 142	1.4030e+01	5.6196	22.490883	0.000568	5.677225	1.923496	0.000227
 143	1.4129e+01	5.6597	22.648331	0.000395	3.953782	1.339577	0.000158
 144	1.4229e+01	5.6950	22.834040	0.000466	4.663435	1.580014	0.000187
 145	1.4328e+01	5.7432	23.027822	0.000487	4.866193	1.648711	0.000195
 146	1.4428e+01	5.7768	23.193345	0.000416	4.156540	1.408274	0.000166
 147	1.4527e+01	5.8057	23.350793	0.000395	3.953782	1.339577	0.000158
 148	1.4627e+01	5.8603	23.484019	0.000335	3.345508	1.133489	0.000134
 149	1.4726e+01	5.8907	23.661653	0.000446	4.460677	1.511318	0.000179
 150	1.4825e+01	5.9389	23.867546	0.000517	5.170330	1.751755	0.000207
 151	1.4925e+01	5.9694	24.016921	0.000375	3.751024	1.270881	0.000150
 152	1.5024e+01	6.0095	24.166295	0.000375	3.751024	1.270881	0.000150
 153	1.5124e+01	6.0544	24.315669	0.000375	3.751024	1.270881	0.000150
 154	1.5223e+01	6.0945	24.529637	0.000537	5.373088	1.820451	0.000215
 155	1.5323e+01	6.1410	24.707271	0.000446	4.460677	1.511318	0.000179
 156	1.5422e+01	6.1683	24.876830	0.000426	4.257919	1.442622	0.000170
 157	1.5522e+01	6.2132	25.026204	0.000375	3.751024	1.270881	0.000150
 158	1.5621e+01	6.2565	25.159430	0.000335	3.345508	1.133489	0.000134
 159	1.5721e+01	6.2934	25.365324	0.000517	5.170330	1.751755	0.000207
 160	1.5820e+01	6.3303	25.526809	0.000406	4.055161	1.373926	0.000162
 161	1.5920e+01	6.3736	25.712518	0.000466	4.663435	1.580014	0.000187
 162	1.6020e+01	6.4121	25.918411	0.000517	5.170330	1.751755	0.000207
 163	1.6119e+01	6.4570	26.092008	0.000436	4.359298	1.476970	0.000174
 164	1.6218e+01	6.4955	26.261568	0.000426	4.257919	1.442622	0.000170
 165	1.6318e+01	6.5276	26.394793	0.000335	3.345508	1.133489	0.000134
 166	1.6418e+01	6.5870	26.519945	0.000314	3.142749	1.064792	0.000126
 167	1.6517e+01	6.5982	26.689504	0.000426	4.257919	1.442622	0.000170
 168	1.6616e+01	6.6592	26.855027	0.000416	4.156540	1.408274	0.000166
 169	1.6716e+01	6.6880	27.020549	0.000416	4.156540	1.408274	0.000166
 170	1.6816e+01	6.7330	27.190109	0.000426	4.257919	1.442622	0.000170
 171	1.6915e+01	6.7699	27.383892	0.000487	4.866193	1.648711	0.000195
 172	1.7015e+01	6.8052	27.500969	0.000294	2.939991	0.996096	0.000118
 173	1.7114e+01	6.8581	27.674565	0.000436	4.359298	1.476970	0.000174
 174	1.7213e+01	6.8838	27.856237	0.000456	4.562056	1.545666	0.000183
 175	1.7313e+01	6.9239	28.009648	0.000385	3.852403	1.305229	0.000154
 176	1.7413e+01	6.9736	28.211505	0.000507	5.068951	1.717407	0.000203
 177	1.7512e+01	7.0105	28.368953	0.000395	3.953782	1.339577	0.000158
 178	1.7611e+01	7.0458	28.498141	0.000324	3.244129	1.099140	0.000130
 179	1.7711e+01	7.0827	28.659627	0.000406	4.055161	1.373926	0.000162
 180	1.7811e+01	7.1260	28.849372	0.000476	4.764814	1.614363	0.000191
 181	1.7910e+01	7.1661	29.027006	0.000446	4.460677	1.511318	0.000179
 182	1.8009e+01	7.2062	29.188491	0.000406	4.055161	1.373926	0.000162
 183	1.8109e+01	7.2511	29.374200	0.000466	4.663435	1.580014	0.000187
 184	1.8209e+01	7.2816	29.515499	0.000355	3.548266	1.202185	0.000142
 185	1.8308e+01	7.3233	29.701208	0.000466	4.663435	1.580014	0.000187
 186	1.8407e+01	7.3682	29.842507	0.000355	3.548266	1.202185	0.000142
 187	1.8507e+01	7.4100	30.024178	0.000456	4.562056	1.545666	0.000183
 188	1.8607e+01	7.4501	30.169515	0.000365	3.649645	1.236533	0.000146
 189	1.8706e+01	7.4982	30.318889	0.000375	3.751024	1.270881	0.000150
 190	1.8805e+01	7.5206	30.500561	0.000456	4.562056	1.545666	0.000183
 191	1.8905e+01	7.5704	30.694343	0.000487	4.866193	1.648711	0.000195
 192	1.9005e+01	7.6009	30.799309	0.000264	2.635854	0.893052	0.000105
 193	1.9104e+01	7.6458	30.956757	0.000395	3.953782	1.339577	0.000158
 194	1.9203e+01	7.6843	31.126317	0.000426	4.257919	1.442622	0.000170
 195	1.9303e+01	7.7308	31.307988	0.000456	4.562056	1.545666	0.000183
 196	1.9402e+01	7.7581	31.412953	0.000264	2.635854	0.893052	0.000105
 197	1.9502e+01	7.8046	31.618847	0.000517	5.170330	1.751755	0.000207
 198	1.9602e+01	7.8463	31.768221	0.000375	3.751024	1.270881	0.000150
 199	1.9701e+01	7.8880	31.966041	0.000497	4.967572	1.683059	0.000199
 200	1.9800e+01	7.9233	32.143675	0.000446	4.460677	1.511318	0.000179
 201	1.9900e+01	7.9618	32.309197	0.000416	4.156540	1.408274	0.000166
 202	2.0000e+01	8.0019	32.426274	0.000294	2.939991	0.996096	0.000118
 203	2.0099e+01	8.0500	32.587760	0.000406	4.055161	1.373926	0.000162
 204	2.0198e+01	8.0821	32.761357	0.000436	4.359298	1.476970	0.000174
 205	2.0298e+01	8.1190	32.934953	0.000436	4.359298	1.476970	0.000174
 206	2.0398e+01	8.1704	33.084327	0.000375	3.751024	1.270881	0.000150
 207	2.0497e+01	8.2073	33.209479	0.000314	3.142749	1.064792	0.000126
 208	2.0596e+01	8.2458	33.342704	0.000335	3.345508	1.133489	0.000134
 209	2.0696e+01	8.2827	33.524375	0.000456	4.562056	1.545666	0.000183
 210	2.0796e+01	8.3147	33.669712	0.000365	3.649645	1.236533	0.000146
 211	2.0895e+01	8.3709	33.887717	0.000547	5.474467	1.854800	0.000219
 212	2.0994e+01	8.3950	34.008831	0.000304	3.041370	1.030444	0.000122
 213	2.1094e+01	8.4367	34.142057	0.000335	3.345508	1.133489	0.000134
 214	2.1194e+01	8.4880	34.347951	0.000517	5.170330	1.751755	0.000207
 215	2.1293e+01	8.5137	34.493288	0.000365	3.649645	1.236533	0.000146
 216	2.1392e+01	8.5570	34.658810	0.000416	4.156540	1.408274	0.000166
 217	2.1492e+01	8.6019	34.820296	0.000406	4.055161	1.373926	0.000162
 218	2.1591e+01	8.6356	34.949484	0.000324	3.244129	1.099140	0.000130
 219	2.1691e+01	8.6933	35.119044	0.000426	4.257919	1.442622	0.000170
 220	2.1791e+01	8.7254	35.304752	0.000466	4.663435	1.580014	0.000187
 221	2.1890e+01	8.7623	35.405680	0.000253	2.534475	0.858704	0.000101
 222	2.1989e+01	8.8056	35.583314	0.000446	4.460677	1.511318	0.000179
 223	2.2089e+01	8.8441	35.736726	0.000385	3.852403	1.305229	0.000154
 224	2.2189e+01	8.8826	35.878025	0.000355	3.548266	1.202185	0.000142
 225	2.2288e+01	8.9243	36.067771	0.000476	4.764814	1.614363	0.000191
 226	2.2387e+01	8.9596	36.229256	0.000406	4.055161	1.373926	0.000162
 227	2.2487e+01	8.9981	36.354407	0.000314	3.142749	1.064792	0.000126
 228	2.2587e+01	9.0479	36.528004	0.000436	4.359298	1.476970	0.000174
 229	2.2686e+01	9.0832	36.649118	0.000304	3.041370	1.030444	0.000122
 230	2.2785e+01	9.1249	36.826752	0.000446	4.460677	1.511318	0.000179
 231	2.2885e+01	9.1602	36.972089	0.000365	3.649645	1.236533	0.000146
 232	2.2985e+01	9.2003	37.145686	0.000436	4.359298	1.476970	0.000174
 233	2.3084e+01	9.2356	37.327357	0.000456	4.562056	1.545666	0.000183
 234	2.3183e+01	9.2773	37.456545	0.000324	3.244129	1.099140	0.000130
 235	2.3283e+01	9.3126	37.634179	0.000446	4.460677	1.511318	0.000179
 236	2.3383e+01	9.3735	37.787591	0.000385	3.852403	1.305229	0.000154
 237	2.3482e+01	9.4040	37.985410	0.000497	4.967572	1.683059	0.000199
 238	2.3581e+01	9.4425	38.130747	0.000365	3.649645	1.236533	0.000146
 239	2.3681e+01	9.4810	38.243787	0.000284	2.838612	0.961748	0.000114
 240	2.3780e+01	9.5211	38.417384	0.000436	4.359298	1.476970	0.000174
 241	2.3880e+01	9.5644	38.570795	0.000385	3.852403	1.305229	0.000154
 242	2.3980e+01	9.5965	38.687872	0.000294	2.939991	0.996096	0.000118
 243	2.4079e+01	9.6479	38.865506	0.000446	4.460677	1.511318	0.000179
 244	2.4178e+01	9.6767	39.026991	0.000406	4.055161	1.373926	0.000162
 245	2.4278e+01	9.7168	39.160217	0.000335	3.345508	1.133489	0.000134
 246	2.4378e+01	9.7602	39.297479	0.000345	3.446887	1.167837	0.000138
 247	2.4477e+01	9.7970	39.446853	0.000375	3.751024	1.270881	0.000150
 248	2.4576e+01	9.8420	39.624487	0.000446	4.460677	1.511318	0.000179
 249	2.4676e+01	9.8805	39.785973	0.000406	4.055161	1.373926	0.000162
 250	2.4776e+01	9.9206	39.943421	0.000395	3.953782	1.339577	0.000158
 251	2.4875e+01	9.9591	40.080684	0.000345	3.446887	1.167837	0.000138
 252	2.4974e+01	10.0040	40.213909	0.000335	3.345508	1.133489	0.000134
 253	2.5074e+01	10.0377	40.415766	0.000507	5.068951	1.717407	0.000203
 254	2.5174e+01	10.0762	40.540917	0.000314	3.142749	1.064792	0.000126
 255	2.5273e+01	10.1243	40.734700	0.000487	4.866193	1.648711	0.000195
 256	2.5372e+01	10.1564	40.900222	0.000416	4.156540	1.408274	0.000166
 257	2.5472e+01	10.1981	41.005188	0.000264	2.635854	0.893052	0.000105
 258	2.5572e+01	10.2366	41.150525	0.000365	3.649645	1.236533	0.000146
 259	2.5671e+01	10.2799	41.287787	0.000345	3.446887	1.167837	0.000138
 260	2.5770e+01	10.3248	41.469458	0.000456	4.562056	1.545666	0.000183
 261	2.5870e+01	10.3537	41.598647	0.000324	3.244129	1.099140	0.000130
 262	2.5970e+01	10.3970	41.748021	0.000375	3.751024	1.270881	0.000150
 263	2.6069e+01	10.4339	41.909506	0.000406	4.055161	1.373926	0.000162
 264	2.6169e+01	10.4772	42.050806	0.000355	3.548266	1.202185	0.000142
 265	2.6268e+01	10.5125	42.204217	0.000385	3.852403	1.305229	0.000154
 266	2.6367e+01	10.5526	42.329368	0.000314	3.142749	1.064792	0.000126
 267	2.6467e+01	10.5831	42.494891	0.000416	4.156540	1.408274	0.000166
 268	2.6567e+01	10.6280	42.644265	0.000375	3.751024	1.270881	0.000150
 269	2.6666e+01	10.6762	42.801713	0.000395	3.953782	1.339577	0.000158
 270	2.6765e+01	10.7131	42.947050	0.000365	3.649645	1.236533	0.000146
 271	2.6865e+01	10.7580	43.084313	0.000345	3.446887	1.167837	0.000138
 272	2.6965e+01	10.7965	43.249835	0.000416	4.156540	1.408274	0.000166
 273	2.7064e+01	10.8286	43.439581	0.000476	4.764814	1.614363	0.000191
 274	2.7163e+01	10.8751	43.576843	0.000345	3.446887	1.167837	0.000138
 275	2.7263e+01	10.9120	43.685846	0.000274	2.737233	0.927400	0.000110
 276	2.7363e+01	10.9601	43.835220	0.000375	3.751024	1.270881	0.000150
 277	2.7462e+01	10.9938	43.952297	0.000294	2.939991	0.996096	0.000118
 278	2.7561e+01	11.0323	44.125894	0.000436	4.359298	1.476970	0.000174
 279	2.7661e+01	11.0756	44.255082	0.000324	3.244129	1.099140	0.000130
 280	2.7761e+01	11.1173	44.380233	0.000314	3.142749	1.064792	0.000126
 281	2.7860e+01	11.1430	44.557867	0.000446	4.460677	1.511318	0.000179
 282	2.7959e+01	11.1991	44.703204	0.000365	3.649645	1.236533	0.000146
 283	2.8059e+01	11.2280	44.812207	0.000274	2.737233	0.927400	0.000110
 284	2.8159e+01	11.2649	45.014063	0.000507	5.068951	1.717407	0.000203
 285	2.8258e+01	11.3163	45.135178	0.000304	3.041370	1.030444	0.000122
 286	2.8358e+01	11.3467	45.256292	0.000304	3.041370	1.030444	0.000122
 287	2.8457e+01	11.3981	45.409703	0.000385	3.852403	1.305229	0.000154
 288	2.8556e+01	11.4334	45.538891	0.000324	3.244129	1.099140	0.000130
 289	2.8656e+01	11.4671	45.728637	0.000476	4.764814	1.614363	0.000191
 290	2.8756e+01	11.5040	45.886085	0.000395	3.953782	1.339577	0.000158
 291	2.8855e+01	11.5537	46.027385	0.000355	3.548266	1.202185	0.000142
 292	2.8954e+01	11.5858	46.180796	0.000385	3.852403	1.305229	0.000154
 293	2.9054e+01	11.6259	46.342281	0.000406	4.055161	1.373926	0.000162
 294	2.9154e+01	11.6708	46.471469	0.000324	3.244129	1.099140	0.000130
 295	2.9253e+01	11.7189	46.584509	0.000284	2.838612	0.961748	0.000114
 296	2.9352e+01	11.7558	46.713698	0.000324	3.244129	1.099140	0.000130
 297	2.9452e+01	11.7911	46.850960	0.000345	3.446887	1.167837	0.000138
 298	2.9552e+01	11.8376	46.988223	0.000345	3.446887	1.167837	0.000138
 299	2.9651e+01	11.8826	47.125485	0.000345	3.446887	1.167837	0.000138
 300	2.9750e+01	11.9066	47.226414	0.000253	2.534475	0.858704	0.000101
 301	2.9850e+01	11.9515	47.416159	0.000476	4.764814	1.614363	0.000191
 302	2.9950e+01	11.9932	47.509013	0.000233	2.331717	0.790007	0.000093
 303	3.0049e+01	12.0317	47.702796	0.000487	4.866193	1.648711	0.000195
 304	3.0148e+01	12.0686	47.799687	0.000243	2.433096	0.824355	0.000097
 305	3.0248e+01	12.1200	47.981358	0.000456	4.562056	1.545666	0.000183
 306	3.0348e+01	12.1537	48.110547	0.000324	3.244129	1.099140	0.000130
 307	3.0447e+01	12.1809	48.284143	0.000436	4.359298	1.476970	0.000174
 308	3.0547e+01	12.2275	48.481963	0.000497	4.967572	1.683059	0.000199
 309	3.0646e+01	12.2676	48.566743	0.000213	2.128959	0.721311	0.000085
 310	3.0745e+01	12.3093	48.712080	0.000365	3.649645	1.236533	0.000146
 311	3.0845e+01	12.3542	48.857417	0.000365	3.649645	1.236533	0.000146
 312	3.0945e+01	12.3927	48.962382	0.000264	2.635854	0.893052	0.000105
 313	3.1044e+01	12.4296	49.095608	0.000335	3.345508	1.133489	0.000134
 314	3.1143e+01	12.4665	49.240945	0.000365	3.649645	1.236533	0.000146
 315	3.1243e+01	12.5098	49.333799	0.000233	2.331717	0.790007	0.000093
 316	3.1343e+01	12.5435	49.450876	0.000294	2.939991	0.996096	0.000118
 317	3.1442e+01	12.5852	49.612361	0.000406	4.055161	1.373926	0.000162
 318	3.1541e+01	12.6333	49.745587	0.000335	3.345508	1.133489	0.000134
 319	3.1641e+01	12.6686	49.874775	0.000324	3.244129	1.099140	0.000130
 320	3.1741e+01	12.7055	50.012038	0.000345	3.446887	1.167837	0.000138
 321	3.1840e+01	12.7440	50.133152	0.000304	3.041370	1.030444	0.000122
 322	3.1939e+01	12.7873	50.298674	0.000416	4.156540	1.408274	0.000166
 323	3.2039e+01	12.8258	50.407677	0.000274	2.737233	0.927400	0.000110
 324	3.2139e+01	12.8692	50.585311	0.000446	4.460677	1.511318	0.000179
 325	3.2238e+01	12.9077	50.722573	0.000345	3.446887	1.167837	0.000138
 326	3.2337e+01	12.9413	50.920393	0.000497	4.967572	1.683059	0.000199
 327	3.2437e+01	12.9718	51.017284	0.000243	2.433096	0.824355	0.000097
 328	3.2536e+01	13.0183	51.154547	0.000345	3.446887	1.167837	0.000138
 329	3.2636e+01	13.0536	51.263550	0.000274	2.737233	0.927400	0.000110
 330	3.2736e+01	13.1018	51.412924	0.000375	3.751024	1.270881	0.000150
 331	3.2835e+01	13.1515	51.546149	0.000335	3.345508	1.133489	0.000134
 332	3.2934e+01	13.1836	51.626892	0.000203	2.027580	0.686963	0.000081
 333	3.3034e+01	13.2205	51.739932	0.000284	2.838612	0.961748	0.000114
 334	3.3133e+01	13.2702	51.873157	0.000335	3.345508	1.133489	0.000134
 335	3.3233e+01	13.3103	52.030605	0.000395	3.953782	1.339577	0.000158
 336	3.3333e+01	13.3472	52.119422	0.000223	2.230338	0.755659	0.000089
 337	3.3432e+01	13.3793	52.256685	0.000345	3.446887	1.167837	0.000138
 338	3.3532e+01	13.4178	52.426245	0.000426	4.257919	1.442622	0.000170
 339	3.3631e+01	13.4579	52.531210	0.000264	2.635854	0.893052	0.000105
 340	3.3730e+01	13.4948	52.632139	0.000253	2.534475	0.858704	0.000101
 341	3.3830e+01	13.5510	52.781513	0.000375	3.751024	1.270881	0.000150
 342	3.3929e+01	13.5766	52.902627	0.000304	3.041370	1.030444	0.000122
 343	3.4029e+01	13.6280	53.128706	0.000568	5.677225	1.923496	0.000227
 344	3.4129e+01	13.6649	53.225598	0.000243	2.433096	0.824355	0.000097
 345	3.4228e+01	13.6937	53.366897	0.000355	3.548266	1.202185	0.000142
 346	3.4328e+01	13.7403	53.500123	0.000335	3.345508	1.133489	0.000134
 347	3.4427e+01	13.7804	53.657571	0.000395	3.953782	1.339577	0.000158
 348	3.4526e+01	13.8221	53.758499	0.000253	2.534475	0.858704	0.000101
 349	3.4626e+01	13.8590	53.911911	0.000385	3.852403	1.305229	0.000154
 350	3.4725e+01	13.8991	53.988616	0.000193	1.926201	0.652615	0.000077
 351	3.4825e+01	13.9440	54.113767	0.000314	3.142749	1.064792	0.000126
 352	3.4925e+01	13.9889	54.238919	0.000314	3.142749	1.064792	0.000126
 353	3.5024e+01	14.0178	54.372144	0.000335	3.345508	1.133489	0.000134
 354	3.5123e+01	14.0547	54.485184	0.000284	2.838612	0.961748	0.000114
 355	3.5223e+01	14.1076	54.614372	0.000324	3.244129	1.099140	0.000130
 356	3.5322e+01	14.1333	54.755672	0.000355	3.548266	1.202185	0.000142
 357	3.5422e+01	14.1718	54.888897	0.000335	3.345508	1.133489	0.000134
 358	3.5522e+01	14.2311	55.026160	0.000345	3.446887	1.167837	0.000138
 359	3.5621e+01	14.2632	55.147274	0.000304	3.041370	1.030444	0.000122
 360	3.5721e+01	14.2969	55.280500	0.000335	3.345508	1.133489	0.000134
 361	3.5820e+01	14.3434	55.393539	0.000284	2.838612	0.961748	0.000114
 362	3.5919e+01	14.3739	55.559062	0.000416	4.156540	1.408274	0.000166
 363	3.6019e+01	14.4108	55.740733	0.000456	4.562056	1.545666	0.000183
 364	3.6118e+01	14.4573	55.882033	0.000355	3.548266	1.202185	0.000142
 365	3.6218e+01	14.4975	55.978924	0.000243	2.433096	0.824355	0.000097
 366	3.6318e+01	14.5360	56.128298	0.000375	3.751024	1.270881	0.000150
 367	3.6417e+01	14.5793	56.241338	0.000284	2.838612	0.961748	0.000114
 368	3.6517e+01	14.6162	56.338229	0.000243	2.433096	0.824355	0.000097
 369	3.6616e+01	14.6659	56.410898	0.000182	1.824822	0.618267	0.000073
 370	3.6715e+01	14.6996	56.580457	0.000426	4.257919	1.442622	0.000170
 371	3.6815e+01	14.7397	56.657163	0.000193	1.926201	0.652615	0.000077
 372	3.6914e+01	14.7718	56.806537	0.000375	3.751024	1.270881	0.000150
 373	3.7014e+01	14.8183	56.911502	0.000264	2.635854	0.893052	0.000105
 374	3.7114e+01	14.8552	57.060877	0.000375	3.751024	1.270881	0.000150
 375	3.7213e+01	14.8873	57.181991	0.000304	3.041370	1.030444	0.000122
 376	3.7313e+01	14.9338	57.299068	0.000294	2.939991	0.996096	0.000118
 377	3.7412e+01	14.9803	57.395959	0.000243	2.433096	0.824355	0.000097
 378	3.7511e+01	15.0204	57.557444	0.000406	4.055161	1.373926	0.000162
 379	3.7611e+01	15.0573	57.706818	0.000375	3.751024	1.270881	0.000150
 380	3.7711e+01	15.1006	57.827932	0.000304	3.041370	1.030444	0.000122
 381	3.7810e+01	15.1327	57.965195	0.000345	3.446887	1.167837	0.000138
 382	3.7910e+01	15.1696	58.126680	0.000406	4.055161	1.373926	0.000162
 383	3.8009e+01	15.2161	58.267980	0.000355	3.548266	1.202185	0.000142
 384	3.8108e+01	15.2514	58.381020	0.000284	2.838612	0.961748	0.000114
 385	3.8208e+01	15.2980	58.469837	0.000223	2.230338	0.755659	0.000089
 386	3.8307e+01	15.3252	58.599025	0.000324	3.244129	1.099140	0.000130
 387	3.8407e+01	15.3798	58.724176	0.000314	3.142749	1.064792	0.000126
 388	3.8507e+01	15.4151	58.792808	0.000172	1.723443	0.583918	0.000069
 389	3.8606e+01	15.4488	58.950256	0.000395	3.953782	1.339577	0.000158
 390	3.8706e+01	15.4921	59.051184	0.000253	2.534475	0.858704	0.000101
 391	3.8805e+01	15.5338	59.192484	0.000355	3.548266	1.202185	0.000142
 392	3.8904e+01	15.5707	59.333784	0.000355	3.548266	1.202185	0.000142
 393	3.9004e+01	15.6092	59.434712	0.000253	2.534475	0.858704	0.000101
 394	3.9103e+01	15.6525	59.604272	0.000426	4.257919	1.442622	0.000170
 395	3.9203e+01	15.6830	59.693089	0.000223	2.230338	0.755659	0.000089
 396	3.9303e+01	15.7359	59.842463	0.000375	3.751024	1.270881	0.000150
 397	3.9402e+01	15.7728	59.951466	0.000274	2.737233	0.927400	0.000110
 398	3.9502e+01	15.8033	60.060468	0.000274	2.737233	0.927400	0.000110
 399	3.9601e+01	15.8530	60.242139	0.000456	4.562056	1.545666	0.000183
 400	3.9700e+01	15.8883	60.379402	0.000345	3.446887	1.167837	0.000138
 401	3.9800e+01	15.9316	60.504553	0.000314	3.142749	1.064792	0.000126
 402	3.9900e+01	15.9653	60.621630	0.000294	2.939991	0.996096	0.000118
 403	3.9999e+01	16.0151	60.758893	0.000345	3.446887	1.167837	0.000138
 404	4.0099e+01	16.0520	60.896155	0.000345	3.446887	1.167837	0.000138
 405	4.0198e+01	16.0985	60.968824	0.000182	1.824822	0.618267	0.000073
 406	4.0297e+01	16.1338	61.089938	0.000304	3.041370	1.030444	0.000122
 407	4.0397e+01	16.1803	61.190866	0.000253	2.534475	0.858704	0.000101
 408	4.0496e+01	16.2156	61.324092	0.000335	3.345508	1.133489	0.000134
 409	4.0596e+01	16.2509	61.437132	0.000284	2.838612	0.961748	0.000114
 410	4.0696e+01	16.2990	61.546134	0.000274	2.737233	0.927400	0.000110
 411	4.0795e+01	16.3311	61.671286	0.000314	3.142749	1.064792	0.000126
 412	4.0895e+01	16.3792	61.820660	0.000375	3.751024	1.270881	0.000150
 413	4.0994e+01	16.4177	61.949848	0.000324	3.244129	1.099140	0.000130
 414	4.1093e+01	16.4546	62.042702	0.000233	2.331717	0.790007	0.000093
 415	4.1193e+01	16.4883	62.188039	0.000365	3.649645	1.236533	0.000146
 416	4.1292e+01	16.5236	62.301079	0.000284	2.838612	0.961748	0.000114
 417	4.1392e+01	16.5621	62.446416	0.000365	3.649645	1.236533	0.000146
 418	4.1492e+01	16.6054	62.607901	0.000406	4.055161	1.373926	0.000162
 419	4.1591e+01	16.6455	62.745164	0.000345	3.446887	1.167837	0.000138
 420	4.1691e+01	16.6888	62.842055	0.000243	2.433096	0.824355	0.000097
 421	4.1790e+01	16.7209	63.011615	0.000426	4.257919	1.442622	0.000170
 422	4.1889e+01	16.7658	63.136766	0.000314	3.142749	1.064792	0.000126
 423	4.1989e+01	16.8092	63.241731	0.000264	2.635854	0.893052	0.000105
 424	4.2089e+01	16.8637	63.395142	0.000385	3.852403	1.305229	0.000154
 425	4.2188e+01	16.8926	63.431477	0.000091	0.912411	0.309133	0.000037
 426	4.2288e+01	16.9311	63.564702	0.000335	3.345508	1.133489	0.000134
 427	4.2387e+01	16.9712	63.637371	0.000182	1.824822	0.618267	0.000073
 428	4.2486e+01	17.0113	63.782708	0.000365	3.649645	1.236533	0.000146
 429	4.2586e+01	17.0498	63.879599	0.000243	2.433096	0.824355	0.000097
 430	4.2685e+01	17.0899	64.008787	0.000324	3.244129	1.099140	0.000130
 431	4.2785e+01	17.1284	64.133938	0.000314	3.142749	1.064792	0.000126
 432	4.2885e+01	17.1685	64.271201	0.000345	3.446887	1.167837	0.000138
 433	4.2984e+01	17.1958	64.380204	0.000274	2.737233	0.927400	0.000110
 434	4.3084e+01	17.2471	64.525541	0.000365	3.649645	1.236533	0.000146
 435	4.3183e+01	17.2792	64.646655	0.000304	3.041370	1.030444	0.000122
 436	4.3282e+01	17.3225	64.747583	0.000253	2.534475	0.858704	0.000101
 437	4.3382e+01	17.3706	64.909068	0.000406	4.055161	1.373926	0.000162
 438	4.3481e+01	17.4075	65.058442	0.000375	3.751024	1.270881	0.000150
 439	4.3581e+01	17.4428	65.211854	0.000385	3.852403	1.305229	0.000154
 440	4.3681e+01	17.4845	65.304708	0.000233	2.331717	0.790007	0.000093
 441	4.3780e+01	17.5230	65.413710	0.000274	2.737233	0.927400	0.000110
 442	4.3880e+01	17.5647	65.538862	0.000314	3.142749	1.064792	0.000126
 443	4.3979e+01	17.6081	65.635753	0.000243	2.433096	0.824355	0.000097
 444	4.4078e+01	17.6498	65.736681	0.000253	2.534475	0.858704	0.000101
 445	4.4178e+01	17.6899	65.837610	0.000253	2.534475	0.858704	0.000101
 446	4.4278e+01	17.7204	65.914315	0.000193	1.926201	0.652615	0.000077
 447	4.4377e+01	17.7605	66.047541	0.000335	3.345508	1.133489	0.000134
 448	4.4477e+01	17.8006	66.172692	0.000314	3.142749	1.064792	0.000126
 449	4.4576e+01	17.8455	66.293806	0.000304	3.041370	1.030444	0.000122
 450	4.4675e+01	17.8808	66.402809	0.000274	2.737233	0.927400	0.000110
 451	4.4775e+01	17.9289	66.507774	0.000264	2.635854	0.893052	0.000105
 452	4.4874e+01	17.9706	66.628888	0.000304	3.041370	1.030444	0.000122
 453	4.4974e+01	17.9979	66.766151	0.000345	3.446887	1.167837	0.000138
 454	4.5074e+01	18.0380	66.923599	0.000395	3.953782	1.339577	0.000158
 455	4.5173e+01	18.0781	67.012416	0.000223	2.230338	0.755659	0.000089
 456	4.5273e+01	18.1262	67.161790	0.000375	3.751024	1.270881	0.000150
 457	4.5372e+01	18.1599	67.290978	0.000324	3.244129	1.099140	0.000130
 458	4.5471e+01	18.2080	67.428241	0.000345	3.446887	1.167837	0.000138
 459	4.5571e+01	18.2514	67.553392	0.000314	3.142749	1.064792	0.000126
 460	4.5670e+01	18.2866	67.678544	0.000314	3.142749	1.064792	0.000126
 461	4.5770e+01	18.3235	67.755249	0.000193	1.926201	0.652615	0.000077
 462	4.5870e+01	18.3637	67.868289	0.000284	2.838612	0.961748	0.000114
 463	4.5969e+01	18.4022	67.920772	0.000132	1.317927	0.446526	0.000053
 464	4.6069e+01	18.4423	68.045923	0.000314	3.142749	1.064792	0.000126
 465	4.6168e+01	18.4840	68.183185	0.000345	3.446887	1.167837	0.000138
 466	4.6267e+01	18.5193	68.259891	0.000193	1.926201	0.652615	0.000077
 467	4.6367e+01	18.5626	68.401191	0.000355	3.548266	1.202185	0.000142
 468	4.6467e+01	18.6123	68.498082	0.000243	2.433096	0.824355	0.000097
 469	4.6566e+01	18.6476	68.570751	0.000182	1.824822	0.618267	0.000073
 470	4.6666e+01	18.6829	68.744347	0.000436	4.359298	1.476970	0.000174
 471	4.6765e+01	18.7214	68.897759	0.000385	3.852403	1.305229	0.000154
 472	4.6864e+01	18.7599	68.942167	0.000112	1.115169	0.377830	0.000045
 473	4.6964e+01	18.8032	69.063281	0.000304	3.041370	1.030444	0.000122
 474	4.7063e+01	18.8465	69.208618	0.000365	3.649645	1.236533	0.000146
 475	4.7163e+01	18.8786	69.345881	0.000345	3.446887	1.167837	0.000138
 476	4.7263e+01	18.9235	69.511403	0.000416	4.156540	1.408274	0.000166
 477	4.7362e+01	18.9604	69.612332	0.000253	2.534475	0.858704	0.000101
 478	4.7462e+01	19.0086	69.668851	0.000142	1.419306	0.480874	0.000057
 479	4.7561e+01	19.0406	69.826300	0.000395	3.953782	1.339577	0.000158
 480	4.7660e+01	19.0791	69.935302	0.000274	2.737233	0.927400	0.000110
 481	4.7760e+01	19.1160	70.007971	0.000182	1.824822	0.618267	0.000073
 482	4.7859e+01	19.1626	70.112936	0.000264	2.635854	0.893052	0.000105
 483	4.7959e+01	19.1979	70.165419	0.000132	1.317927	0.446526	0.000053
 484	4.8059e+01	19.2444	70.310756	0.000365	3.649645	1.236533	0.000146
 485	4.8158e+01	19.2861	70.411684	0.000253	2.534475	0.858704	0.000101
 486	4.8258e+01	19.3278	70.500501	0.000223	2.230338	0.755659	0.000089
 487	4.8357e+01	19.3695	70.621615	0.000304	3.041370	1.030444	0.000122
 488	4.8456e+01	19.4048	70.722544	0.000253	2.534475	0.858704	0.000101
 489	4.8556e+01	19.4449	70.831547	0.000274	2.737233	0.927400	0.000110
 490	4.8656e+01	19.4770	71.013218	0.000456	4.562056	1.545666	0.000183
 491	4.8755e+01	19.5155	71.057626	0.000112	1.115169	0.377830	0.000045
 492	4.8855e+01	19.5604	71.190852	0.000335	3.345508	1.133489	0.000134
 493	4.8954e+01	19.6037	71.307929	0.000294	2.939991	0.996096	0.000118
 494	4.9053e+01	19.6406	71.437117	0.000324	3.244129	1.099140	0.000130
 495	4.9153e+01	19.6855	71.570342	0.000335	3.345508	1.133489	0.000134
 496	4.9252e+01	19.7208	71.667234	0.000243	2.433096	0.824355	0.000097
 497	4.9352e+01	19.7577	71.808533	0.000355	3.548266	1.202185	0.000142
 498	4.9452e+01	19.8139	71.909462	0.000253	2.534475	0.858704	0.000101
 499	4.9551e+01	19.8267	71.974056	0.000162	1.622064	0.549570	0.000065
 500	4.9651e+01	19.8716	72.058836	0.000213	2.128959	0.721311	0.000085
 501	4.9750e+01	19.9101	72.179950	0.000304	3.041370	1.030444	0.000122
 502	4.9849e+01	19.9615	72.244544	0.000162	1.622064	0.549570	0.000065
 503	4.9949e+01	19.9887	72.385844	0.000355	3.548266	1.202185	0.000142
 504	5.0048e+01	19.9567	72.297027	0.000223	2.230338	0.755659	-0.000089
 505	5.0148e+01	19.9182	72.192061	0.000264	2.635854	0.893052	-0.000105
 506	5.0248e+01	19.8829	72.099207	0.000233	2.331717	0.790007	-0.000093
 507	5.0347e+01	19.8315	71.994242	0.000264	2.635854	0.893052	-0.000105
 508	5.0447e+01	19.7946	71.909462	0.000213	2.128959	0.721311	-0.000085
 509	5.0546e+01	19.7545	71.840830	0.000172	1.723443	0.583918	-0.000069
 510	5.0645e+01	19.7224	71.764125	0.000193	1.926201	0.652615	-0.000077
 511	5.0745e+01	19.6727	71.643011	0.000304	3.041370	1.030444	-0.000122
 512	5.0844e+01	19.6438	71.570342	0.000182	1.824822	0.618267	-0.000073
 513	5.0944e+01	19.6021	71.517860	0.000132	1.317927	0.446526	-0.000053
 514	5.1044e+01	19.5572	71.400783	0.000294	2.939991	0.996096	-0.000118
 515	5.1143e+01	19.5187	71.311966	0.000223	2.230338	0.755659	-0.000089
 516	5.1242e+01	19.4593	71.215074	0.000243	2.433096	0.824355	-0.000097
 517	5.1342e+01	19.4433	71.138369	0.000193	1.926201	0.652615	-0.000077
 518	5.1441e+01	19.4032	71.029366	0.000274	2.737233	0.927400	-0.000110
 519	5.1541e+01	19.3551	70.916326	0.000284	2.838612	0.961748	-0.000114
 520	5.1641e+01	19.3198	70.799249	0.000294	2.939991	0.996096	-0.000118
 521	5.1740e+01	19.2781	70.698321	0.000253	2.534475	0.858704	-0.000101
 522	5.1840e+01	19.2508	70.609504	0.000223	2.230338	0.755659	-0.000089
 523	5.1939e+01	19.2043	70.520687	0.000223	2.230338	0.755659	-0.000089
 524	5.2038e+01	19.1610	70.456093	0.000162	1.622064	0.549570	-0.000065
 525	5.2138e+01	19.1128	70.330942	0.000314	3.142749	1.064792	-0.000126
 526	5.2237e+01	19.0823	70.209828	0.000304	3.041370	1.030444	-0.000122
 527	5.2337e+01	19.0358	70.129085	0.000203	2.027580	0.686963	-0.000081
 528	5.2437e+01	19.0005	70.044305	0.000213	2.128959	0.721311	-0.000085
 529	5.2536e+01	18.9652	69.947414	0.000243	2.433096	0.824355	-0.000097
 530	5.2636e+01	18.9203	69.898968	0.000122	1.216548	0.412178	-0.000049
 531	5.2735e+01	18.8834	69.781891	0.000294	2.939991	0.996096	-0.000118
 532	5.2834e+01	18.8369	69.697111	0.000213	2.128959	0.721311	-0.000085
 533	5.2934e+01	18.7968	69.632517	0.000162	1.622064	0.549570	-0.000065
 534	5.3033e+01	18.7615	69.491217	0.000355	3.548266	1.202185	-0.000142
 535	5.3133e+01	18.7278	69.386252	0.000264	2.635854	0.893052	-0.000105
 536	5.3233e+01	18.6765	69.313583	0.000182	1.824822	0.618267	-0.000073
 537	5.3332e+01	18.6444	69.127875	0.000466	4.663435	1.580014	-0.000187
 538	5.3431e+01	18.5963	69.010798	0.000294	2.939991	0.996096	-0.000118
 539	5.3531e+01	18.5610	68.917944	0.000233	2.331717	0.790007	-0.000093
 540	5.3630e+01	18.5257	68.817016	0.000253	2.534475	0.858704	-0.000101
 541	5.3730e+01	18.4888	68.724162	0.000233	2.331717	0.790007	-0.000093
 542	5.3830e+01	18.4374	68.619196	0.000264	2.635854	0.893052	-0.000105
 543	5.3929e+01	18.4086	68.518268	0.000253	2.534475	0.858704	-0.000101
 544	5.4029e+01	18.3653	68.429451	0.000223	2.230338	0.755659	-0.000089
 545	5.4128e+01	18.3171	68.316411	0.000284	2.838612	0.961748	-0.000114
 546	5.4227e+01	18.2754	68.195297	0.000304	3.041370	1.030444	-0.000122
 547	5.4327e+01	18.2353	68.130703	0.000162	1.622064	0.549570	-0.000065
 548	5.4426e+01	18.1984	68.074183	0.000142	1.419306	0.480874	-0.000057
 549	5.4526e+01	18.1663	67.989403	0.000213	2.128959	0.721311	-0.000085
 550	5.4626e+01	18.1182	67.884437	0.000264	2.635854	0.893052	-0.000105
 551	5.4725e+01	18.0797	67.771398	0.000284	2.838612	0.961748	-0.000114
 552	5.4825e+01	18.0428	67.662395	0.000274	2.737233	0.927400	-0.000110
 553	5.4924e+01	18.0171	67.537244	0.000314	3.142749	1.064792	-0.000126
 554	5.5023e+01	17.9722	67.448427	0.000223	2.230338	0.755659	-0.000089
 555	5.5123e+01	17.9369	67.319238	0.000324	3.244129	1.099140	-0.000130
 556	5.5222e+01	17.8968	67.194087	0.000314	3.142749	1.064792	-0.000126
 557	5.5322e+01	17.8375	67.048750	0.000365	3.649645	1.236533	-0.000146
 558	5.5422e+01	17.8070	66.984156	0.000162	1.622064	0.549570	-0.000065
 559	5.5521e+01	17.7701	66.875154	0.000274	2.737233	0.927400	-0.000110
 560	5.5620e+01	17.7204	66.798448	0.000193	1.926201	0.652615	-0.000077
 561	5.5720e+01	17.6915	66.669260	0.000324	3.244129	1.099140	-0.000130
 562	5.5819e+01	17.6530	66.580443	0.000223	2.230338	0.755659	-0.000089
 563	5.5919e+01	17.5984	66.479514	0.000253	2.534475	0.858704	-0.000101
 564	5.6019e+01	17.5728	66.350326	0.000324	3.244129	1.099140	-0.000130
 565	5.6118e+01	17.5262	66.273620	0.000193	1.926201	0.652615	-0.000077
 566	5.6218e+01	17.4829	66.176729	0.000243	2.433096	0.824355	-0.000097
 567	5.6317e+01	17.4573	66.104061	0.000182	1.824822	0.618267	-0.000073
 568	5.6416e+01	17.4107	65.962761	0.000355	3.548266	1.202185	-0.000142
 569	5.6516e+01	17.3658	65.946612	0.000041	0.405516	0.137393	-0.000016
 570	5.6615e+01	17.3145	65.801275	0.000365	3.649645	1.236533	-0.000146
 571	5.6715e+01	17.2792	65.704384	0.000243	2.433096	0.824355	-0.000097
 572	5.6815e+01	17.2503	65.611530	0.000233	2.331717	0.790007	-0.000093
 573	5.6914e+01	17.2166	65.526750	0.000213	2.128959	0.721311	-0.000085
 574	5.7014e+01	17.1717	65.381413	0.000365	3.649645	1.236533	-0.000146
 575	5.7113e+01	17.1348	65.284522	0.000243	2.433096	0.824355	-0.000097
 576	5.7212e+01	17.0915	65.163408	0.000304	3.041370	1.030444	-0.000122
 577	5.7312e+01	17.0466	65.009997	0.000385	3.852403	1.305229	-0.000154
 578	5.7411e+01	17.0001	64.933291	0.000193	1.926201	0.652615	-0.000077
 579	5.7511e+01	16.9696	64.816214	0.000294	2.939991	0.996096	-0.000118
 580	5.7611e+01	16.9231	64.715286	0.000253	2.534475	0.858704	-0.000101
 581	5.7710e+01	16.8878	64.614357	0.000253	2.534475	0.858704	-0.000101
 582	5.7809e+01	16.8525	64.501318	0.000284	2.838612	0.961748	-0.000114
 583	5.7909e+01	16.8059	64.396352	0.000264	2.635854	0.893052	-0.000105
 584	5.8008e+01	16.7594	64.295424	0.000253	2.534475	0.858704	-0.000101
 585	5.8108e+01	16.7289	64.206607	0.000223	2.230338	0.755659	-0.000089
 586	5.8208e+01	16.6969	64.109716	0.000243	2.433096	0.824355	-0.000097
 587	5.8307e+01	16.6487	64.049158	0.000152	1.520685	0.515222	-0.000061
 588	5.8407e+01	16.6134	63.924007	0.000314	3.142749	1.064792	-0.000126
 589	5.8506e+01	16.5685	63.823079	0.000253	2.534475	0.858704	-0.000101
 590	5.8605e+01	16.5300	63.738299	0.000213	2.128959	0.721311	-0.000085
 591	5.8705e+01	16.4867	63.697928	0.000101	1.013790	0.343481	-0.000041
 592	5.8804e+01	16.4450	63.520294	0.000446	4.460677	1.511318	-0.000179
 593	5.8904e+01	16.4129	63.415328	0.000264	2.635854	0.893052	-0.000105
 594	5.9004e+01	16.3728	63.306326	0.000274	2.737233	0.927400	-0.000110
 595	5.9103e+01	16.3279	63.152914	0.000385	3.852403	1.305229	-0.000154
 596	5.9203e+01	16.2958	63.027763	0.000314	3.142749	1.064792	-0.000126
 597	5.9302e+01	16.2541	62.930872	0.000243	2.433096	0.824355	-0.000097
 598	5.9401e+01	16.2044	62.813795	0.000294	2.939991	0.996096	-0.000118
 599	5.9501e+01	16.1787	62.716904	0.000243	2.433096	0.824355	-0.000097
 600	5.9600e+01	16.1290	62.595790	0.000304	3.041370	1.030444	-0.000122
 601	5.9700e+01	16.0872	62.478713	0.000294	2.939991	0.996096	-0.000118
 602	5.9800e+01	16.0536	62.373747	0.000264	2.635854	0.893052	-0.000105
 603	5.9899e+01	16.0167	62.288967	0.000213	2.128959	0.721311	-0.000085
 604	5.9998e+01	15.9717	62.204187	0.000213	2.128959	0.721311	-0.000085
 605	6.0098e+01	15.9461	62.115370	0.000223	2.230338	0.755659	-0.000089
 606	6.0197e+01	15.8947	62.058851	0.000142	1.419306	0.480874	-0.000057
 607	6.0297e+01	15.8562	61.921588	0.000345	3.446887	1.167837	-0.000138
 608	6.0397e+01	15.8161	61.804511	0.000294	2.939991	0.996096	-0.000118
 609	6.0496e+01	15.7744	61.647063	0.000395	3.953782	1.339577	-0.000158
 610	6.0596e+01	15.7263	61.566320	0.000203	2.027580	0.686963	-0.000081
 611	6.0695e+01	15.6958	61.481540	0.000213	2.128959	0.721311	-0.000085
 612	6.0794e+01	15.6573	61.344278	0.000345	3.446887	1.167837	-0.000138
 613	6.0894e+01	15.6172	61.255461	0.000223	2.230338	0.755659	-0.000089
 614	6.0993e+01	15.5739	61.110124	0.000365	3.649645	1.236533	-0.000146
 615	6.1093e+01	15.5338	60.960750	0.000375	3.751024	1.270881	-0.000150
 616	6.1193e+01	15.4953	60.799264	0.000406	4.055161	1.373926	-0.000162
 617	6.1292e+01	15.4504	60.730633	0.000172	1.723443	0.583918	-0.000069
 618	6.1392e+01	15.4199	60.617593	0.000284	2.838612	0.961748	-0.000114
 619	6.1491e+01	15.3750	60.500516	0.000294	2.939991	0.996096	-0.000118
 620	6.1590e+01	15.3445	60.395551	0.000264	2.635854	0.893052	-0.000105
 621	6.1690e+01	15.3012	60.286548	0.000274	2.737233	0.927400	-0.000110
 622	6.1789e+01	15.2530	60.173508	0.000284	2.838612	0.961748	-0.000114
 623	6.1889e+01	15.2097	60.104877	0.000172	1.723443	0.583918	-0.000069
 624	6.1989e+01	15.1776	60.032208	0.000182	1.824822	0.618267	-0.000073
 625	6.2088e+01	15.1295	59.898983	0.000335	3.345508	1.133489	-0.000134
 626	6.2188e+01	15.0958	59.806129	0.000233	2.331717	0.790007	-0.000093
 627	6.2287e+01	15.0509	59.721349	0.000213	2.128959	0.721311	-0.000085
 628	6.2386e+01	15.0156	59.584086	0.000345	3.446887	1.167837	-0.000138
 629	6.2486e+01	14.9707	59.467009	0.000294	2.939991	0.996096	-0.000118
 630	6.2586e+01	14.9322	59.366081	0.000253	2.534475	0.858704	-0.000101
 631	6.2685e+01	14.8969	59.244967	0.000304	3.041370	1.030444	-0.000122
 632	6.2785e+01	14.8584	59.107704	0.000345	3.446887	1.167837	-0.000138
 633	6.2884e+01	14.8183	58.978516	0.000324	3.244129	1.099140	-0.000130
 634	6.2983e+01	14.7718	58.857402	0.000304	3.041370	1.030444	-0.000122
 635	6.3083e+01	14.7349	58.691879	0.000416	4.156540	1.408274	-0.000166
 636	6.3182e+01	14.7060	58.651508	0.000101	1.013790	0.343481	-0.000041
 637	6.3282e+01	14.6547	58.510208	0.000355	3.548266	1.202185	-0.000142
 638	6.3382e+01	14.6210	58.348723	0.000406	4.055161	1.373926	-0.000162
 639	6.3481e+01	14.5696	58.267980	0.000203	2.027580	0.686963	-0.000081
 640	6.3581e+01	14.5456	58.171089	0.000243	2.433096	0.824355	-0.000097
 641	6.3680e+01	14.4991	58.078235	0.000233	2.331717	0.790007	-0.000093
 642	6.3779e+01	14.4686	57.989418	0.000223	2.230338	0.755659	-0.000089
 643	6.3879e+01	14.4172	57.827932	0.000406	4.055161	1.373926	-0.000162
 644	6.3978e+01	14.3787	57.739115	0.000223	2.230338	0.755659	-0.000089
 645	6.4078e+01	14.3434	57.601853	0.000345	3.446887	1.167837	-0.000138
 646	6.4177e+01	14.3017	57.525147	0.000193	1.926201	0.652615	-0.000077
 647	6.4277e+01	14.2568	57.395959	0.000324	3.244129	1.099140	-0.000130
 648	6.4376e+01	14.2199	57.307142	0.000223	2.230338	0.755659	-0.000089
 649	6.4476e+01	14.1878	57.169879	0.000345	3.446887	1.167837	-0.000138
 650	6.4576e+01	14.1285	57.056839	0.000284	2.838612	0.961748	-0.000114
 651	6.4675e+01	14.1012	56.923614	0.000335	3.345508	1.133489	-0.000134
 652	6.4775e+01	14.0659	56.766166	0.000395	3.953782	1.339577	-0.000158
 653	6.4874e+01	14.0194	56.649089	0.000294	2.939991	0.996096	-0.000118
 654	6.4974e+01	13.9841	56.503752	0.000365	3.649645	1.236533	-0.000146
 655	6.5073e+01	13.9360	56.378601	0.000314	3.142749	1.064792	-0.000126
 656	6.5172e+01	13.9023	56.281709	0.000243	2.433096	0.824355	-0.000097
 657	6.5272e+01	13.8670	56.168670	0.000284	2.838612	0.961748	-0.000114
 658	6.5371e+01	13.8253	56.051593	0.000294	2.939991	0.996096	-0.000118
 659	6.5471e+01	13.7739	55.934516	0.000294	2.939991	0.996096	-0.000118
 660	6.5570e+01	13.7451	55.817439	0.000294	2.939991	0.996096	-0.000118
 661	6.5670e+01	13.7082	55.700362	0.000294	2.939991	0.996096	-0.000118
 662	6.5769e+01	13.6745	55.603471	0.000243	2.433096	0.824355	-0.000097
 663	6.5869e+01	13.6199	55.490431	0.000284	2.838612	0.961748	-0.000114
 664	6.5969e+01	13.5782	55.381428	0.000274	2.737233	0.927400	-0.000110
 665	6.6068e+01	13.5510	55.223980	0.000395	3.953782	1.339577	-0.000158
 666	6.6168e+01	13.4980	55.106903	0.000294	2.939991	0.996096	-0.000118
 667	6.6267e+01	13.4707	55.014049	0.000233	2.331717	0.790007	-0.000093
 668	6.6367e+01	13.4306	54.901009	0.000284	2.838612	0.961748	-0.000114
 669	6.6466e+01	13.3857	54.739523	0.000406	4.055161	1.373926	-0.000162
 670	6.6566e+01	13.3472	54.574001	0.000416	4.156540	1.408274	-0.000166
 671	6.6665e+01	13.2895	54.440775	0.000335	3.345508	1.133489	-0.000134
 672	6.6764e+01	13.2590	54.303513	0.000345	3.446887	1.167837	-0.000138
 673	6.6864e+01	13.2285	54.186436	0.000294	2.939991	0.996096	-0.000118
 674	6.6963e+01	13.1868	54.061285	0.000314	3.142749	1.064792	-0.000126
 675	6.7063e+01	13.1403	53.907874	0.000385	3.852403	1.305229	-0.000154
 676	6.7162e+01	13.1002	53.827131	0.000203	2.027580	0.686963	-0.000081
 677	6.7262e+01	13.0649	53.706017	0.000304	3.041370	1.030444	-0.000122
 678	6.7362e+01	13.0264	53.548568	0.000395	3.953782	1.339577	-0.000158
 679	6.7461e+01	12.9782	53.451677	0.000243	2.433096	0.824355	-0.000097
 680	6.7561e+01	12.9397	53.358823	0.000233	2.331717	0.790007	-0.000093
 681	6.7660e+01	12.8964	53.278080	0.000203	2.027580	0.686963	-0.000081
 682	6.7760e+01	12.8692	53.140818	0.000345	3.446887	1.167837	-0.000138
 683	6.7859e+01	12.8162	52.991444	0.000375	3.751024	1.270881	-0.000150
 684	6.7959e+01	12.7873	52.914738	0.000193	1.926201	0.652615	-0.000077
 685	6.8058e+01	12.7520	52.761327	0.000385	3.852403	1.305229	-0.000154
 686	6.8157e+01	12.7168	52.672510	0.000223	2.230338	0.755659	-0.000089
 687	6.8257e+01	12.6718	52.506987	0.000416	4.156540	1.408274	-0.000166
 688	6.8356e+01	12.6157	52.389910	0.000294	2.939991	0.996096	-0.000118
 689	6.8456e+01	12.5836	52.248611	0.000355	3.548266	1.202185	-0.000142
 690	6.8555e+01	12.5579	52.083088	0.000416	4.156540	1.408274	-0.000166
 691	6.8655e+01	12.5130	51.986197	0.000243	2.433096	0.824355	-0.000097
 692	6.8754e+01	12.4777	51.808563	0.000446	4.460677	1.511318	-0.000179
 693	6.8854e+01	12.4360	51.679375	0.000324	3.244129	1.099140	-0.000130
 694	6.8954e+01	12.3863	51.578446	0.000253	2.534475	0.858704	-0.000101
 695	6.9053e+01	12.3494	51.433109	0.000365	3.649645	1.236533	-0.000146
 696	6.9153e+01	12.3093	51.324107	0.000274	2.737233	0.927400	-0.000110
 697	6.9252e+01	12.2708	51.194918	0.000324	3.244129	1.099140	-0.000130
 698	6.9352e+01	12.2259	51.122250	0.000182	1.824822	0.618267	-0.000073
 699	6.9451e+01	12.1809	50.968839	0.000385	3.852403	1.305229	-0.000154
 700	6.9550e+01	12.1424	50.871947	0.000243	2.433096	0.824355	-0.000097
 701	6.9650e+01	12.1055	50.762945	0.000274	2.737233	0.927400	-0.000110
 702	6.9749e+01	12.0767	50.621645	0.000355	3.548266	1.202185	-0.000142
 703	6.9849e+01	12.0285	50.480345	0.000355	3.548266	1.202185	-0.000142
 704	6.9948e+01	11.9965	50.355194	0.000314	3.142749	1.064792	-0.000126
 705	7.0048e+01	11.9371	50.197746	0.000395	3.953782	1.339577	-0.000158
 706	7.0147e+01	11.9146	50.104892	0.000233	2.331717	0.790007	-0.000093
 707	7.0247e+01	11.8713	49.951480	0.000385	3.852403	1.305229	-0.000154
 708	7.0347e+01	11.8296	49.810181	0.000355	3.548266	1.202185	-0.000142
 709	7.0446e+01	11.8007	49.680992	0.000324	3.244129	1.099140	-0.000130
 710	7.0546e+01	11.7494	49.523544	0.000395	3.953782	1.339577	-0.000158
 711	7.0645e+01	11.7221	49.370133	0.000385	3.852403	1.305229	-0.000154
 712	7.0745e+01	11.6724	49.232870	0.000345	3.446887	1.167837	-0.000138
 713	7.0844e+01	11.6307	49.107719	0.000314	3.142749	1.064792	-0.000126
 714	7.0944e+01	11.5906	48.994679	0.000284	2.838612	0.961748	-0.000114
 715	7.1043e+01	11.5505	48.857417	0.000345	3.446887	1.167837	-0.000138
 716	7.1142e+01	11.5184	48.736303	0.000304	3.041370	1.030444	-0.000122
 717	7.1242e+01	11.4655	48.671708	0.000162	1.622064	0.549570	-0.000065
 718	7.1341e+01	11.4318	48.538483	0.000335	3.345508	1.133489	-0.000134
 719	7.1441e+01	11.3933	48.409295	0.000324	3.244129	1.099140	-0.000130
 720	7.1540e+01	11.3548	48.267995	0.000355	3.548266	1.202185	-0.000142
 721	7.1640e+01	11.3163	48.138807	0.000324	3.244129	1.099140	-0.000130
 722	7.1740e+01	11.2665	47.997507	0.000355	3.548266	1.202185	-0.000142
 723	7.1839e+01	11.2344	47.896578	0.000253	2.534475	0.858704	-0.000101
 724	7.1939e+01	11.1943	47.767390	0.000324	3.244129	1.099140	-0.000130
 725	7.2038e+01	11.1623	47.638202	0.000324	3.244129	1.099140	-0.000130
 726	7.2138e+01	11.1141	47.460568	0.000446	4.460677	1.511318	-0.000179
 727	7.2237e+01	11.0788	47.363676	0.000243	2.433096	0.824355	-0.000097
 728	7.2337e+01	11.0323	47.194117	0.000426	4.257919	1.442622	-0.000170
 729	7.2436e+01	10.9970	47.077040	0.000294	2.939991	0.996096	-0.000118
 730	7.2535e+01	10.9441	46.891332	0.000466	4.663435	1.580014	-0.000187
 731	7.2635e+01	10.9120	46.762143	0.000324	3.244129	1.099140	-0.000130
 732	7.2734e+01	10.8815	46.653141	0.000274	2.737233	0.927400	-0.000110
 733	7.2834e+01	10.8334	46.532027	0.000304	3.041370	1.030444	-0.000122
 734	7.2933e+01	10.7965	46.362467	0.000426	4.257919	1.442622	-0.000170
 735	7.3033e+01	10.7580	46.245390	0.000294	2.939991	0.996096	-0.000118
 736	7.3132e+01	10.7099	46.140424	0.000264	2.635854	0.893052	-0.000105
 737	7.3232e+01	10.6778	46.023347	0.000294	2.939991	0.996096	-0.000118
 738	7.3332e+01	10.6313	45.890122	0.000335	3.345508	1.133489	-0.000134
 739	7.3431e+01	10.5895	45.773045	0.000294	2.939991	0.996096	-0.000118
 740	7.3531e+01	10.5591	45.651931	0.000304	3.041370	1.030444	-0.000122
 741	7.3630e+01	10.5061	45.518705	0.000335	3.345508	1.133489	-0.000134
 742	7.3730e+01	10.4676	45.397591	0.000304	3.041370	1.030444	-0.000122
 743	7.3829e+01	10.4403	45.244180	0.000385	3.852403	1.305229	-0.000154
 744	7.3928e+01	10.3906	45.139215	0.000264	2.635854	0.893052	-0.000105
 745	7.4028e+01	10.3585	45.001952	0.000345	3.446887	1.167837	-0.000138
 746	7.4127e+01	10.3072	44.828355	0.000436	4.359298	1.476970	-0.000174
 747	7.4227e+01	10.2879	44.715315	0.000284	2.838612	0.961748	-0.000114
 748	7.4326e+01	10.2414	44.497310	0.000547	5.474467	1.854800	-0.000219
 749	7.4426e+01	10.2029	44.372159	0.000314	3.142749	1.064792	-0.000126
 750	7.4525e+01	10.1564	44.242971	0.000324	3.244129	1.099140	-0.000130
 751	7.4625e+01	10.1195	44.121856	0.000304	3.041370	1.030444	-0.000122
 752	7.4725e+01	10.0746	43.984594	0.000345	3.446887	1.167837	-0.000138
 753	7.4824e+01	10.0393	43.867517	0.000294	2.939991	0.996096	-0.000118
 754	7.4924e+01	9.9944	43.734291	0.000335	3.345508	1.133489	-0.000134
 755	7.5023e+01	9.9591	43.621252	0.000284	2.838612	0.961748	-0.000114
 756	7.5123e+01	9.9158	43.467840	0.000385	3.852403	1.305229	-0.000154
 757	7.5222e+01	9.8821	43.399209	0.000172	1.723443	0.583918	-0.000069
 758	7.5322e+01	9.8307	43.229649	0.000426	4.257919	1.442622	-0.000170
 759	7.5421e+01	9.7970	43.108535	0.000304	3.041370	1.030444	-0.000122
 760	7.5520e+01	9.7521	42.983384	0.000314	3.142749	1.064792	-0.000126
 761	7.5620e+01	9.7217	42.834010	0.000375	3.751024	1.270881	-0.000150
 762	7.5719e+01	9.6880	42.708859	0.000314	3.142749	1.064792	-0.000126
 763	7.5819e+01	9.6398	42.587745	0.000304	3.041370	1.030444	-0.000122
 764	7.5918e+01	9.6029	42.418185	0.000426	4.257919	1.442622	-0.000170
 765	7.6018e+01	9.5532	42.276885	0.000355	3.548266	1.202185	-0.000142
 766	7.6118e+01	9.5243	42.147697	0.000324	3.244129	1.099140	-0.000130
 767	7.6217e+01	9.4858	41.974100	0.000436	4.359298	1.476970	-0.000174
 768	7.6317e+01	9.4393	41.816652	0.000395	3.953782	1.339577	-0.000158
 769	7.6416e+01	9.3960	41.695538	0.000304	3.041370	1.030444	-0.000122
 770	7.6516e+01	9.3591	41.542127	0.000385	3.852403	1.305229	-0.000154
 771	7.6615e+01	9.3206	41.396790	0.000365	3.649645	1.236533	-0.000146
 772	7.6715e+01	9.2853	41.251453	0.000365	3.649645	1.236533	-0.000146
 773	7.6814e+01	9.2388	41.114190	0.000345	3.446887	1.167837	-0.000138
 774	7.6913e+01	9.2019	40.948668	0.000416	4.156540	1.408274	-0.000166
 775	7.7013e+01	9.1586	40.859851	0.000223	2.230338	0.755659	-0.000089
 776	7.7112e+01	9.1265	40.742774	0.000294	2.939991	0.996096	-0.000118
 777	7.7212e+01	9.0784	40.601474	0.000355	3.548266	1.202185	-0.000142
 778	7.7311e+01	9.0447	40.492471	0.000274	2.737233	0.927400	-0.000110
 779	7.7411e+01	9.0030	40.326949	0.000416	4.156540	1.408274	-0.000166
 780	7.7510e+01	8.9612	40.193723	0.000335	3.345508	1.133489	-0.000134
 781	7.7610e+01	8.9147	40.080684	0.000284	2.838612	0.961748	-0.000114
 782	7.7710e+01	8.8810	39.911124	0.000426	4.257919	1.442622	-0.000170
 783	7.7809e+01	8.8361	39.761750	0.000375	3.751024	1.270881	-0.000150
 784	7.7909e+01	8.8040	39.628524	0.000335	3.345508	1.133489	-0.000134
 785	7.8008e+01	8.7655	39.458965	0.000426	4.257919	1.442622	-0.000170
 786	7.8108e+01	8.7174	39.321702	0.000345	3.446887	1.167837	-0.000138
 787	7.8207e+01	8.6789	39.156180	0.000416	4.156540	1.408274	-0.000166
 788	7.8306e+01	8.6516	39.022954	0.000335	3.345508	1.133489	-0.000134
 789	7.8406e+01	8.6067	38.857431	0.000416	4.156540	1.408274	-0.000166
 790	7.8505e+01	8.5618	38.704020	0.000385	3.852403	1.305229	-0.000154
 791	7.8605e+01	8.5072	38.566758	0.000345	3.446887	1.167837	-0.000138
 792	7.8704e+01	8.4848	38.397198	0.000426	4.257919	1.442622	-0.000170
 793	7.8804e+01	8.4463	38.263973	0.000335	3.345508	1.133489	-0.000134
 794	7.8903e+01	8.4030	38.171118	0.000233	2.331717	0.790007	-0.000093
 795	7.9003e+01	8.3613	38.001559	0.000426	4.257919	1.442622	-0.000170
 796	7.9103e+01	8.3292	37.932927	0.000172	1.723443	0.583918	-0.000069
 797	7.9202e+01	8.2746	37.735108	0.000497	4.967572	1.683059	-0.000199
 798	7.9302e+01	8.2490	37.634179	0.000253	2.534475	0.858704	-0.000101
 799	7.9401e+01	8.2057	37.460583	0.000436	4.359298	1.476970	-0.000174
 800	7.9501e+01	8.1639	37.339468	0.000304	3.041370	1.030444	-0.000122
 801	7.9600e+01	8.1222	37.173946	0.000416	4.156540	1.408274	-0.000166
 802	7.9700e+01	8.0821	37.012460	0.000406	4.055161	1.373926	-0.000162
 803	7.9799e+01	8.0372	36.879235	0.000335	3.345508	1.133489	-0.000134
 804	7.9898e+01	8.0067	36.737935	0.000355	3.548266	1.202185	-0.000142
 805	7.9998e+01	7.9634	36.560301	0.000446	4.460677	1.511318	-0.000179
 806	8.0097e+01	7.9233	36.390742	0.000426	4.257919	1.442622	-0.000170
 807	8.0197e+01	7.8832	36.229256	0.000406	4.055161	1.373926	-0.000162
 808	8.0296e+01	7.8479	36.087956	0.000355	3.548266	1.202185	-0.000142
 809	8.0396e+01	7.8110	35.966842	0.000304	3.041370	1.030444	-0.000122
 810	8.0496e+01	7.7565	35.777097	0.000476	4.764814	1.614363	-0.000191
 811	8.0595e+01	7.7228	35.583314	0.000487	4.866193	1.648711	-0.000195
 812	8.0695e+01	7.6859	35.518720	0.000162	1.622064	0.549570	-0.000065
 813	8.0794e+01	7.6378	35.361272	0.000395	3.953782	1.339577	-0.000158
 814	8.0894e+01	7.6073	35.219972	0.000355	3.548266	1.202185	-0.000142
 815	8.0993e+01	7.5624	35.102895	0.000294	2.939991	0.996096	-0.000118
 816	8.1093e+01	7.5206	34.961595	0.000355	3.548266	1.202185	-0.000142
 817	8.1192e+01	7.4886	34.840481	0.000304	3.041370	1.030444	-0.000122
 818	8.1291e+01	7.4533	34.662847	0.000446	4.460677	1.511318	-0.000179
 819	8.1391e+01	7.4019	34.501362	0.000406	4.055161	1.373926	-0.000162
 820	8.1490e+01	7.3666	34.307580	0.000487	4.866193	1.648711	-0.000195
 821	8.1590e+01	7.3249	34.174354	0.000335	3.345508	1.133489	-0.000134
 822	8.1689e+01	7.2848	34.024980	0.000375	3.751024	1.270881	-0.000150
 823	8.1789e+01	7.2463	33.871569	0.000385	3.852403	1.305229	-0.000154
 824	8.1888e+01	7.2030	33.693935	0.000446	4.460677	1.511318	-0.000179
 825	8.1988e+01	7.1677	33.520338	0.000436	4.359298	1.476970	-0.000174
 826	8.2088e+01	7.1244	33.338667	0.000456	4.562056	1.545666	-0.000183
 827	8.2187e+01	7.0859	33.169107	0.000426	4.257919	1.442622	-0.000170
 828	8.2287e+01	7.0618	33.080290	0.000223	2.230338	0.755659	-0.000089
 829	8.2386e+01	7.0089	32.886508	0.000487	4.866193	1.648711	-0.000195
 830	8.2486e+01	6.9704	32.729059	0.000395	3.953782	1.339577	-0.000158
 831	8.2585e+01	6.9175	32.567574	0.000406	4.055161	1.373926	-0.000162
 832	8.2684e+01	6.8822	32.454534	0.000284	2.838612	0.961748	-0.000114
 833	8.2784e+01	6.8421	32.264789	0.000476	4.764814	1.614363	-0.000191
 834	8.2883e+01	6.8132	32.131563	0.000335	3.345508	1.133489	-0.000134
 835	8.2983e+01	6.7650	31.966041	0.000416	4.156540	1.408274	-0.000166
 836	8.3082e+01	6.7298	31.844927	0.000304	3.041370	1.030444	-0.000122
 837	8.3182e+01	6.6800	31.703627	0.000355	3.548266	1.202185	-0.000142
 838	8.3281e+01	6.6511	31.509844	0.000487	4.866193	1.648711	-0.000195
 839	8.3381e+01	6.6062	31.364508	0.000365	3.649645	1.236533	-0.000146
 840	8.3481e+01	6.5693	31.235319	0.000324	3.244129	1.099140	-0.000130
 841	8.3580e+01	6.5308	31.053648	0.000456	4.562056	1.545666	-0.000183
 842	8.3680e+01	6.4955	30.884088	0.000426	4.257919	1.442622	-0.000170
 843	8.3779e+01	6.4538	30.698380	0.000466	4.663435	1.580014	-0.000187
 844	8.3879e+01	6.4217	30.524783	0.000436	4.359298	1.476970	-0.000174
 845	8.3978e+01	6.3768	30.331001	0.000487	4.866193	1.648711	-0.000195
 846	8.4078e+01	6.3287	30.201812	0.000324	3.244129	1.099140	-0.000130
 847	8.4177e+01	6.2918	30.028216	0.000436	4.359298	1.476970	-0.000174
 848	8.4276e+01	6.2533	29.899027	0.000324	3.244129	1.099140	-0.000130
 849	8.4376e+01	6.2148	29.749653	0.000375	3.751024	1.270881	-0.000150
 850	8.4475e+01	6.1715	29.584131	0.000416	4.156540	1.408274	-0.000166
 851	8.4575e+01	6.1394	29.434757	0.000375	3.751024	1.270881	-0.000150
 852	8.4674e+01	6.0865	29.301531	0.000335	3.345508	1.133489	-0.000134
 853	8.4774e+01	6.0480	29.140046	0.000406	4.055161	1.373926	-0.000162
 854	8.4874e+01	6.0111	28.950300	0.000476	4.764814	1.614363	-0.000191
 855	8.4973e+01	5.9726	28.829186	0.000304	3.041370	1.030444	-0.000122
 856	8.5073e+01	5.9260	28.643478	0.000466	4.663435	1.580014	-0.000187
 857	8.5172e+01	5.8988	28.518327	0.000314	3.142749	1.064792	-0.000126
 858	8.5272e+01	5.8554	28.348767	0.000426	4.257919	1.442622	-0.000170
 859	8.5371e+01	5.8121	28.163059	0.000466	4.663435	1.580014	-0.000187
 860	8.5471e+01	5.7752	28.009648	0.000385	3.852403	1.305229	-0.000154
 861	8.5570e+01	5.7415	27.811828	0.000497	4.967572	1.683059	-0.000199
 862	8.5669e+01	5.7063	27.634194	0.000446	4.460677	1.511318	-0.000179
 863	8.5769e+01	5.6662	27.428300	0.000517	5.170330	1.751755	-0.000207
 864	8.5868e+01	5.6180	27.278926	0.000375	3.751024	1.270881	-0.000150
 865	8.5968e+01	5.5731	27.133589	0.000365	3.649645	1.236533	-0.000146
 866	8.6067e+01	5.5426	27.000364	0.000335	3.345508	1.133489	-0.000134
 867	8.6167e+01	5.4945	26.855027	0.000365	3.649645	1.236533	-0.000146
 868	8.6266e+01	5.4544	26.685467	0.000426	4.257919	1.442622	-0.000170
 869	8.6366e+01	5.4159	26.540130	0.000365	3.649645	1.236533	-0.000146
 870	8.6466e+01	5.3806	26.350385	0.000476	4.764814	1.614363	-0.000191
 871	8.6565e+01	5.3373	26.168714	0.000456	4.562056	1.545666	-0.000183
 872	8.6665e+01	5.2908	26.023377	0.000365	3.649645	1.236533	-0.000146
 873	8.6764e+01	5.2667	25.869966	0.000385	3.852403	1.305229	-0.000154
 874	8.6864e+01	5.2170	25.700406	0.000426	4.257919	1.442622	-0.000170
 875	8.6963e+01	5.1785	25.530846	0.000426	4.257919	1.442622	-0.000170
 876	8.7063e+01	5.1400	25.369361	0.000406	4.055161	1.373926	-0.000162
 877	8.7162e+01	5.0950	25.211913	0.000395	3.953782	1.339577	-0.000158
 878	8.7261e+01	5.0598	25.046390	0.000416	4.156540	1.408274	-0.000166
 879	8.7361e+01	5.0164	24.868756	0.000446	4.460677	1.511318	-0.000179
 880	8.7460e+01	4.9731	24.670936	0.000497	4.967572	1.683059	-0.000199
 881	8.7560e+01	4.9426	24.513488	0.000395	3.953782	1.339577	-0.000158
 882	8.7659e+01	4.8929	24.323743	0.000476	4.764814	1.614363	-0.000191
 883	8.7759e+01	4.8640	24.133997	0.000476	4.764814	1.614363	-0.000191
 884	8.7859e+01	4.8111	24.000772	0.000335	3.345508	1.133489	-0.000134
 885	8.7958e+01	4.7742	23.855435	0.000365	3.649645	1.236533	-0.000146
 886	8.8058e+01	4.7341	23.685875	0.000426	4.257919	1.442622	-0.000170
 887	8.8157e+01	4.6972	23.544576	0.000355	3.548266	1.202185	-0.000142
 888	8.8257e+01	4.6571	23.379053	0.000416	4.156540	1.408274	-0.000166
 889	8.8356e+01	4.6202	23.221605	0.000395	3.953782	1.339577	-0.000158
 890	8.8456e+01	4.5673	23.015711	0.000517	5.170330	1.751755	-0.000207
 891	8.8555e+01	4.5496	22.858263	0.000395	3.953782	1.339577	-0.000158
 892	8.8654e+01	4.4983	22.712926	0.000365	3.649645	1.236533	-0.000146
 893	8.8754e+01	4.4598	22.515106	0.000497	4.967572	1.683059	-0.000199
 894	8.8853e+01	4.4197	22.381881	0.000335	3.345508	1.133489	-0.000134
 895	8.8953e+01	4.3892	22.228469	0.000385	3.852403	1.305229	-0.000154
 896	8.9052e+01	4.3427	22.075058	0.000385	3.852403	1.305229	-0.000154
 897	8.9152e+01	4.3026	21.865127	0.000527	5.271709	1.786103	-0.000211
 898	8.9251e+01	4.2592	21.699605	0.000416	4.156540	1.408274	-0.000166
 899	8.9351e+01	4.2272	21.501785	0.000497	4.967572	1.683059	-0.000199
 900	8.9451e+01	4.1854	21.291854	0.000527	5.271709	1.786103	-0.000211
 901	8.9550e+01	4.1437	21.114220	0.000446	4.460677	1.511318	-0.000179
 902	8.9650e+01	4.1068	20.952734	0.000406	4.055161	1.373926	-0.000162
 903	8.9749e+01	4.0683	20.815472	0.000345	3.446887	1.167837	-0.000138
 904	8.9849e+01	4.0250	20.690321	0.000314	3.142749	1.064792	-0.000126
 905	8.9948e+01	3.9817	20.500575	0.000476	4.764814	1.614363	-0.000191
 906	9.0047e+01	3.9448	20.322941	0.000446	4.460677	1.511318	-0.000179
 907	9.0147e+01	3.8983	20.181642	0.000355	3.548266	1.202185	-0.000142
 908	9.0246e+01	3.8598	19.967673	0.000537	5.373088	1.820451	-0.000215
 909	9.0346e+01	3.8245	19.798114	0.000426	4.257919	1.442622	-0.000170
 910	9.0445e+01	3.7748	19.632591	0.000416	4.156540	1.408274	-0.000166
 911	9.0545e+01	3.7363	19.499366	0.000335	3.345508	1.133489	-0.000134
 912	9.0644e+01	3.7074	19.305583	0.000487	4.866193	1.648711	-0.000195
 913	9.0744e+01	3.6673	19.136023	0.000426	4.257919	1.442622	-0.000170
 914	9.0844e+01	3.6111	18.974538	0.000406	4.055161	1.373926	-0.000162
 915	9.0943e+01	3.5742	18.792867	0.000456	4.562056	1.545666	-0.000183
 916	9.1043e+01	3.5421	18.619270	0.000436	4.359298	1.476970	-0.000174
 917	9.1142e+01	3.5052	18.421450	0.000497	4.967572	1.683059	-0.000199
 918	9.1242e+01	3.4619	18.223631	0.000497	4.967572	1.683059	-0.000199
 919	9.1341e+01	3.4234	18.074257	0.000375	3.751024	1.270881	-0.000150
 920	9.1441e+01	3.3930	17.932957	0.000355	3.548266	1.202185	-0.000142
 921	9.1540e+01	3.3400	17.779546	0.000385	3.852403	1.305229	-0.000154
 922	9.1639e+01	3.3015	17.609986	0.000426	4.257919	1.442622	-0.000170
 923	9.1739e+01	3.2614	17.408129	0.000507	5.068951	1.717407	-0.000203
 924	9.1838e+01	3.2229	17.266830	0.000355	3.548266	1.202185	-0.000142
 925	9.1938e+01	3.1780	17.097270	0.000426	4.257919	1.442622	-0.000170
 926	9.2037e+01	3.1379	16.895413	0.000507	5.068951	1.717407	-0.000203
 927	9.2137e+01	3.1090	16.713742	0.000456	4.562056	1.545666	-0.000183
 928	9.2237e+01	3.0657	16.552257	0.000406	4.055161	1.373926	-0.000162
 929	9.2336e+01	3.0208	16.382697	0.000426	4.257919	1.442622	-0.000170
 930	9.2436e+01	2.9935	16.209100	0.000436	4.359298	1.476970	-0.000174
 931	9.2535e+01	2.9374	16.003206	0.000517	5.170330	1.751755	-0.000207
 932	9.2635e+01	2.9069	15.865943	0.000345	3.446887	1.167837	-0.000138
 933	9.2734e+01	2.8652	15.688309	0.000446	4.460677	1.511318	-0.000179
 934	9.2834e+01	2.8234	15.486453	0.000507	5.068951	1.717407	-0.000203
 935	9.2933e+01	2.7914	15.345153	0.000355	3.548266	1.202185	-0.000142
 936	9.3032e+01	2.7464	15.147333	0.000497	4.967572	1.683059	-0.000199
 937	9.3132e+01	2.7031	14.884919	0.000659	6.589636	2.232629	-0.000264
 938	9.3231e+01	2.6743	14.755731	0.000324	3.244129	1.099140	-0.000130
 939	9.3331e+01	2.6309	14.570023	0.000466	4.663435	1.580014	-0.000187
 940	9.3430e+01	2.5908	14.424686	0.000365	3.649645	1.236533	-0.000146
 941	9.3530e+01	2.5395	14.291461	0.000335	3.345508	1.133489	-0.000134
 942	9.3629e+01	2.5042	14.089604	0.000507	5.068951	1.717407	-0.000203
 943	9.3729e+01	2.4737	13.887747	0.000507	5.068951	1.717407	-0.000203
 944	9.3829e+01	2.4352	13.750484	0.000345	3.446887	1.167837	-0.000138
 945	9.3928e+01	2.3903	13.524405	0.000568	5.677225	1.923496	-0.000227
 946	9.4028e+01	2.3454	13.375031	0.000375	3.751024	1.270881	-0.000150
 947	9.4127e+01	2.3021	13.181248	0.000487	4.866193	1.648711	-0.000195
 948	9.4227e+01	2.2716	13.039948	0.000355	3.548266	1.202185	-0.000142
 949	9.4326e+01	2.2251	12.854240	0.000466	4.663435	1.580014	-0.000187
 950	9.4425e+01	2.1898	12.656421	0.000497	4.967572	1.683059	-0.000199
 951	9.4525e+01	2.1465	12.470712	0.000466	4.663435	1.580014	-0.000187
 952	9.4624e+01	2.0919	12.297115	0.000436	4.359298	1.476970	-0.000174
 953	9.4724e+01	2.0630	12.143704	0.000385	3.852403	1.305229	-0.000154
 954	9.4823e+01	2.0326	11.941848	0.000507	5.068951	1.717407	-0.000203
 955	9.4923e+01	1.9876	11.719805	0.000558	5.575846	1.889148	-0.000223
 956	9.5022e+01	1.9491	11.513911	0.000517	5.170330	1.751755	-0.000207
 957	9.5122e+01	1.9042	11.360500	0.000385	3.852403	1.305229	-0.000154
 958	9.5222e+01	1.8657	11.194977	0.000416	4.156540	1.408274	-0.000166
 959	9.5321e+01	1.8240	11.033492	0.000406	4.055161	1.373926	-0.000162
 960	9.5421e+01	1.7951	10.847784	0.000466	4.663435	1.580014	-0.000187
 961	9.5520e+01	1.7534	10.666113	0.000456	4.562056	1.545666	-0.000183
 962	9.5620e+01	1.7149	10.488479	0.000446	4.460677	1.511318	-0.000179
 963	9.5719e+01	1.6732	10.310845	0.000446	4.460677	1.511318	-0.000179
 964	9.5819e+01	1.6267	10.104951	0.000517	5.170330	1.751755	-0.000207
 965	9.5918e+01	1.5882	9.959614	0.000365	3.649645	1.236533	-0.000146
 966	9.6017e+01	1.5449	9.737571	0.000558	5.575846	1.889148	-0.000223
 967	9.6117e+01	1.5160	9.600309	0.000345	3.446887	1.167837	-0.000138
 968	9.6216e+01	1.4647	9.398452	0.000507	5.068951	1.717407	-0.000203
 969	9.6316e+01	1.4278	9.216781	0.000456	4.562056	1.545666	-0.000183
 970	9.6415e+01	1.3925	9.027036	0.000476	4.764814	1.614363	-0.000191
 971	9.6515e+01	1.3508	8.857476	0.000426	4.257919	1.442622	-0.000170
 972	9.6615e+01	1.3139	8.635433	0.000558	5.575846	1.889148	-0.000223
 973	9.6714e+01	1.2786	8.445688	0.000476	4.764814	1.614363	-0.000191
 974	9.6814e+01	1.2401	8.296314	0.000375	3.751024	1.270881	-0.000150
 975	9.6913e+01	1.1887	8.086383	0.000527	5.271709	1.786103	-0.000211
 976	9.7013e+01	1.1470	7.965269	0.000304	3.041370	1.030444	-0.000122
 977	9.7112e+01	1.1005	7.723041	0.000608	6.082741	2.060888	-0.000243
 978	9.7212e+01	1.0716	7.553481	0.000426	4.257919	1.442622	-0.000170
 979	9.7311e+01	1.0251	7.379884	0.000436	4.359298	1.476970	-0.000174
 980	9.7410e+01	0.9914	7.153805	0.000568	5.677225	1.923496	-0.000227
 981	9.7510e+01	0.9609	6.976171	0.000446	4.460677	1.511318	-0.000179
 982	9.7609e+01	0.9096	6.766239	0.000527	5.271709	1.786103	-0.000211
 983	9.7709e+01	0.8759	6.624940	0.000355	3.548266	1.202185	-0.000142
 984	9.7808e+01	0.8342	6.455380	0.000426	4.257919	1.442622	-0.000170
 985	9.7908e+01	0.7957	6.241412	0.000537	5.373088	1.820451	-0.000215
 986	9.8007e+01	0.7604	6.015332	0.000568	5.677225	1.923496	-0.000227
 987	9.8107e+01	0.7091	5.829624	0.000466	4.663435	1.580014	-0.000187
 988	9.8207e+01	0.6738	5.651990	0.000446	4.460677	1.511318	-0.000179
 989	9.8306e+01	0.6208	5.490505	0.000406	4.055161	1.373926	-0.000162
 990	9.8406e+01	0.5952	5.300759	0.000476	4.764814	1.614363	-0.000191
 991	9.8505e+01	0.5454	5.098902	0.000507	5.068951	1.717407	-0.000203
 992	9.8605e+01	0.5150	4.884934	0.000537	5.373088	1.820451	-0.000215
 993	9.8704e+01	0.4765	4.731523	0.000385	3.852403	1.305229	-0.000154
 994	9.8803e+01	0.4444	4.557926	0.000436	4.359298	1.476970	-0.000174
 995	9.8903e+01	0.3882	4.339921	0.000547	5.474467	1.854800	-0.000219
 996	9.9002e+01	0.3513	4.158250	0.000456	4.562056	1.545666	-0.000183
 997	9.9102e+01	0.3144	3.996764	0.000406	4.055161	1.373926	-0.000162
 998	9.9201e+01	0.2743	3.794908	0.000507	5.068951	1.717407	-0.000203
 999	9.9301e+01	0.2374	3.601125	0.000487	4.866193	1.648711	-0.000195
1000	9.9400e+01	0.1989	3.395231	0.000517	5.170330	1.751755	-0.000207
1001	9.9500e+01	0.1524	3.193374	0.000507	5.068951	1.717407	-0.000203
1002	9.9600e+01	0.1107	3.007666	0.000466	4.663435	1.580014	-0.000187
1003	9.9699e+01	0.0754	2.842144	0.000416	4.156540	1.408274	-0.000166
1004	9.9799e+01	0.0337	2.640287	0.000507	5.068951	1.717407	-0.000203
1005	9.9898e+01	0.0128	2.462653	0.000446	4.460677	1.511318	-0.000179
1006	9.9998e+01	-0.0353	2.329427	0.000335	3.345508	1.133489	-0.000134
1007	1.0010e+02	-0.0834	2.111422	0.000547	5.474467	1.854800	-0.000219
1008	1.0020e+02	-0.1171	1.885342	0.000568	5.677225	1.923496	-0.000227
1009	1.0030e+02	-0.1556	1.679448	0.000517	5.170330	1.751755	-0.000207
1010	1.0040e+02	-0.1957	1.481629	0.000497	4.967572	1.683059	-0.000199
1011	1.0050e+02	-0.2374	1.312069	0.000426	4.257919	1.442622	-0.000170
1012	1.0059e+02	-0.2743	1.098101	0.000537	5.373088	1.820451	-0.000215
1013	1.0069e+02	-0.3176	0.912393	0.000466	4.663435	1.580014	-0.000187
1014	1.0079e+02	-0.3513	0.746870	0.000416	4.156540	1.408274	-0.000166
1015	1.0089e+02	-0.3930	0.532902	0.000537	5.373088	1.820451	-0.000215
1016	1.0099e+02	-0.4347	0.363342	0.000426	4.257919	1.442622	-0.000170
1017	1.0109e+02	-0.4732	0.161485	0.000507	5.068951	1.717407	-0.000203
1018	1.0119e+02	-0.5134	-0.024223	0.000466	4.663435	1.580014	-0.000187
1019	1.0129e+02	-0.5583	-0.213968	0.000476	4.764814	1.614363	-0.000191
1020	1.0139e+02	-0.5952	-0.431974	0.000547	5.474467	1.854800	-0.000219
1021	1.0149e+02	-0.6433	-0.589422	0.000395	3.953782	1.339577	-0.000158
1022	1.0159e+02	-0.6738	-0.758982	0.000426	4.257919	1.442622	-0.000170
1023	1.0169e+02	-0.7091	-0.968913	0.000527	5.271709	1.786103	-0.000211
1024	1.0179e+02	-0.7572	-1.194992	0.000568	5.677225	1.923496	-0.000227
1025	1.0189e+02	-0.8053	-1.328218	0.000335	3.345508	1.133489	-0.000134
1026	1.0199e+02	-0.8326	-1.562372	0.000588	5.879983	1.992192	-0.000235
1027	1.0209e+02	-0.8615	-1.735968	0.000436	4.359298	1.476970	-0.000174
1028	1.0219e+02	-0.9048	-1.937825	0.000507	5.068951	1.717407	-0.000203
1029	1.0229e+02	-0.9577	-2.167942	0.000578	5.778604	1.957844	-0.000231
1030	1.0239e+02	-0.9898	-2.349613	0.000456	4.562056	1.545666	-0.000183
1031	1.0248e+02	-1.0411	-2.523210	0.000436	4.359298	1.476970	-0.000174
1032	1.0258e+02	-1.0652	-2.704881	0.000456	4.562056	1.545666	-0.000183
1033	1.0268e+02	-1.1149	-2.898663	0.000487	4.866193	1.648711	-0.000195
1034	1.0278e+02	-1.1599	-3.080335	0.000456	4.562056	1.545666	-0.000183
1035	1.0288e+02	-1.1839	-3.249894	0.000426	4.257919	1.442622	-0.000170
1036	1.0298e+02	-1.2385	-3.496160	0.000618	6.184120	2.095237	-0.000248
1037	1.0308e+02	-1.2673	-3.649571	0.000385	3.852403	1.305229	-0.000154
1038	1.0318e+02	-1.3058	-3.847390	0.000497	4.967572	1.683059	-0.000199
1039	1.0328e+02	-1.3540	-4.045210	0.000497	4.967572	1.683059	-0.000199
1040	1.0338e+02	-1.3909	-4.222844	0.000446	4.460677	1.511318	-0.000179
1041	1.0348e+02	-1.4358	-4.432775	0.000527	5.271709	1.786103	-0.000211
1042	1.0358e+02	-1.4759	-4.590223	0.000395	3.953782	1.339577	-0.000158
1043	1.0368e+02	-1.5208	-4.816303	0.000568	5.677225	1.923496	-0.000227
1044	1.0378e+02	-1.5513	-5.026234	0.000527	5.271709	1.786103	-0.000211
1045	1.0388e+02	-1.5930	-5.207905	0.000456	4.562056	1.545666	-0.000183
1046	1.0398e+02	-1.6251	-5.385539	0.000446	4.460677	1.511318	-0.000179
1047	1.0408e+02	-1.6700	-5.579322	0.000487	4.866193	1.648711	-0.000195
1048	1.0418e+02	-1.7069	-5.793290	0.000537	5.373088	1.820451	-0.000215
1049	1.0428e+02	-1.7470	-5.942664	0.000375	3.751024	1.270881	-0.000150
1050	1.0438e+02	-1.7951	-6.120298	0.000446	4.460677	1.511318	-0.000179
1051	1.0447e+02	-1.8320	-6.330229	0.000527	5.271709	1.786103	-0.000211
1052	1.0457e+02	-1.8657	-6.536123	0.000517	5.170330	1.751755	-0.000207
1053	1.0467e+02	-1.9090	-6.725868	0.000476	4.764814	1.614363	-0.000191
1054	1.0477e+02	-1.9459	-6.915614	0.000476	4.764814	1.614363	-0.000191
1055	1.0487e+02	-1.9925	-7.093247	0.000446	4.460677	1.511318	-0.000179
1056	1.0497e+02	-2.0294	-7.266844	0.000436	4.359298	1.476970	-0.000174
1057	1.0507e+02	-2.0695	-7.484850	0.000547	5.474467	1.854800	-0.000219
1058	1.0517e+02	-2.1064	-7.670558	0.000466	4.663435	1.580014	-0.000187
1059	1.0527e+02	-2.1561	-7.819932	0.000375	3.751024	1.270881	-0.000150
1060	1.0537e+02	-2.1946	-8.029863	0.000527	5.271709	1.786103	-0.000211
1061	1.0547e+02	-2.2251	-8.207497	0.000446	4.460677	1.511318	-0.000179
1062	1.0557e+02	-2.2700	-8.397242	0.000476	4.764814	1.614363	-0.000191
1063	1.0567e+02	-2.3069	-8.603136	0.000517	5.170330	1.751755	-0.000207
1064	1.0577e+02	-2.3390	-8.833253	0.000578	5.778604	1.957844	-0.000231
1065	1.0587e+02	-2.3855	-8.974553	0.000355	3.548266	1.202185	-0.000142
1066	1.0597e+02	-2.4304	-9.216781	0.000608	6.082741	2.060888	-0.000243
1067	1.0607e+02	-2.4721	-9.350006	0.000335	3.345508	1.133489	-0.000134
1068	1.0617e+02	-2.5074	-9.511492	0.000406	4.055161	1.373926	-0.000162
1069	1.0627e+02	-2.5411	-9.685089	0.000436	4.359298	1.476970	-0.000174
1070	1.0637e+02	-2.5924	-9.939428	0.000639	6.386878	2.163933	-0.000256
1071	1.0647e+02	-2.6309	-10.076691	0.000345	3.446887	1.167837	-0.000138
1072	1.0656e+02	-2.6630	-10.258362	0.000456	4.562056	1.545666	-0.000183
1073	1.0666e+02	-2.7015	-10.472330	0.000537	5.373088	1.820451	-0.000215
1074	1.0676e+02	-2.7432	-10.605556	0.000335	3.345508	1.133489	-0.000134
1075	1.0686e+02	-2.7898	-10.827598	0.000558	5.575846	1.889148	-0.000223
1076	1.0696e+02	-2.8267	-10.997158	0.000426	4.257919	1.442622	-0.000170
1077	1.0706e+02	-2.8652	-11.194977	0.000497	4.967572	1.683059	-0.000199
1078	1.0716e+02	-2.9085	-11.392797	0.000497	4.967572	1.683059	-0.000199
1079	1.0726e+02	-2.9534	-11.630988	0.000598	5.981362	2.026540	-0.000239
1080	1.0736e+02	-2.9791	-11.752102	0.000304	3.041370	1.030444	-0.000122
1081	1.0746e+02	-3.0256	-11.998367	0.000618	6.184120	2.095237	-0.000248
1082	1.0756e+02	-3.0609	-12.200224	0.000507	5.068951	1.717407	-0.000203
1083	1.0766e+02	-3.0978	-12.369784	0.000426	4.257919	1.442622	-0.000170
1084	1.0776e+02	-3.1411	-12.519158	0.000375	3.751024	1.270881	-0.000150
1085	1.0786e+02	-3.1908	-12.656421	0.000345	3.446887	1.167837	-0.000138
1086	1.0796e+02	-3.2293	-12.850203	0.000487	4.866193	1.648711	-0.000195
1087	1.0806e+02	-3.2662	-13.031874	0.000456	4.562056	1.545666	-0.000183
1088	1.0816e+02	-3.3063	-13.185285	0.000385	3.852403	1.305229	-0.000154
1089	1.0826e+02	-3.3464	-13.338696	0.000385	3.852403	1.305229	-0.000154
1090	1.0836e+02	-3.3833	-13.520368	0.000456	4.562056	1.545666	-0.000183
1091	1.0845e+02	-3.4266	-13.702039	0.000456	4.562056	1.545666	-0.000183
1092	1.0855e+02	-3.4603	-13.903895	0.000507	5.068951	1.717407	-0.000203
1093	1.0865e+02	-3.5052	-14.045195	0.000355	3.548266	1.202185	-0.000142
1094	1.0875e+02	-3.5438	-14.275312	0.000578	5.778604	1.957844	-0.000231
1095	1.0885e+02	-3.5887	-14.461020	0.000466	4.663435	1.580014	-0.000187
1096	1.0895e+02	-3.6272	-14.630580	0.000426	4.257919	1.442622	-0.000170
1097	1.0905e+02	-3.6673	-14.804177	0.000436	4.359298	1.476970	-0.000174
1098	1.0915e+02	-3.6962	-15.018145	0.000537	5.373088	1.820451	-0.000215
1099	1.0925e+02	-3.7330	-15.183668	0.000416	4.156540	1.408274	-0.000166
1100	1.0935e+02	-3.7764	-15.377450	0.000487	4.866193	1.648711	-0.000195
1101	1.0945e+02	-3.8197	-15.567195	0.000476	4.764814	1.614363	-0.000191
1102	1.0955e+02	-3.8566	-15.752904	0.000466	4.663435	1.580014	-0.000187
1103	1.0965e+02	-3.9031	-15.918426	0.000416	4.156540	1.408274	-0.000166
1104	1.0975e+02	-3.9336	-16.051652	0.000335	3.345508	1.133489	-0.000134
1105	1.0985e+02	-3.9817	-16.237360	0.000466	4.663435	1.580014	-0.000187
1106	1.0995e+02	-4.0202	-16.419031	0.000456	4.562056	1.545666	-0.000183
1107	1.1005e+02	-4.0555	-16.560331	0.000355	3.548266	1.202185	-0.000142
1108	1.1015e+02	-4.1068	-16.782373	0.000558	5.575846	1.889148	-0.000223
1109	1.1025e+02	-4.1453	-16.955970	0.000436	4.359298	1.476970	-0.000174
1110	1.1035e+02	-4.1870	-17.109381	0.000385	3.852403	1.305229	-0.000154
1111	1.1044e+02	-4.2320	-17.303164	0.000487	4.866193	1.648711	-0.000195
1112	1.1054e+02	-4.2624	-17.476761	0.000436	4.359298	1.476970	-0.000174
1113	1.1064e+02	-4.3009	-17.654395	0.000446	4.460677	1.511318	-0.000179
1114	1.1074e+02	-4.3346	-17.807806	0.000385	3.852403	1.305229	-0.000154
1115	1.1084e+02	-4.3796	-18.001588	0.000487	4.866193	1.648711	-0.000195
1116	1.1094e+02	-4.4165	-18.203445	0.000507	5.068951	1.717407	-0.000203
1117	1.1104e+02	-4.4469	-18.381079	0.000446	4.460677	1.511318	-0.000179
1118	1.1114e+02	-4.4967	-18.619270	0.000598	5.981362	2.026540	-0.000239
1119	1.1124e+02	-4.5400	-18.736347	0.000294	2.939991	0.996096	-0.000118
1120	1.1134e+02	-4.5721	-18.930129	0.000487	4.866193	1.648711	-0.000195
1121	1.1144e+02	-4.6170	-19.051244	0.000304	3.041370	1.030444	-0.000122
1122	1.1154e+02	-4.6491	-19.261175	0.000527	5.271709	1.786103	-0.000211
1123	1.1164e+02	-4.7020	-19.382289	0.000304	3.041370	1.030444	-0.000122
1124	1.1174e+02	-4.7309	-19.507440	0.000314	3.142749	1.064792	-0.000126
1125	1.1184e+02	-4.7742	-19.721408	0.000537	5.373088	1.820451	-0.000215
1126	1.1194e+02	-4.8239	-19.935376	0.000537	5.373088	1.820451	-0.000215
1127	1.1204e+02	-4.8608	-20.040342	0.000264	2.635854	0.893052	-0.000105
1128	1.1214e+02	-4.9009	-20.254310	0.000537	5.373088	1.820451	-0.000215
1129	1.1224e+02	-4.9394	-20.403684	0.000375	3.751024	1.270881	-0.000150
1130	1.1234e+02	-4.9844	-20.565169	0.000406	4.055161	1.373926	-0.000162
1131	1.1244e+02	-5.0196	-20.734729	0.000426	4.257919	1.442622	-0.000170
1132	1.1253e+02	-5.0598	-20.936586	0.000507	5.068951	1.717407	-0.000203
1133	1.1263e+02	-5.0934	-21.089997	0.000385	3.852403	1.305229	-0.000154
1134	1.1273e+02	-5.1384	-21.255520	0.000416	4.156540	1.408274	-0.000166
1135	1.1283e+02	-5.1865	-21.457376	0.000507	5.068951	1.717407	-0.000203
1136	1.1293e+02	-5.2218	-21.679419	0.000558	5.575846	1.889148	-0.000223
1137	1.1303e+02	-5.2555	-21.853016	0.000436	4.359298	1.476970	-0.000174
1138	1.1313e+02	-5.2972	-22.002390	0.000375	3.751024	1.270881	-0.000150
1139	1.1323e+02	-5.3389	-22.184061	0.000456	4.562056	1.545666	-0.000183
1140	1.1333e+02	-5.3758	-22.309212	0.000314	3.142749	1.064792	-0.000126
1141	1.1343e+02	-5.4159	-22.442438	0.000335	3.345508	1.133489	-0.000134
1142	1.1353e+02	-5.4528	-22.607960	0.000416	4.156540	1.408274	-0.000166
1143	1.1363e+02	-5.5041	-22.821928	0.000537	5.373088	1.820451	-0.000215
1144	1.1373e+02	-5.5378	-22.955154	0.000335	3.345508	1.133489	-0.000134
1145	1.1383e+02	-5.5811	-23.128751	0.000436	4.359298	1.476970	-0.000174
1146	1.1393e+02	-5.6196	-23.245828	0.000294	2.939991	0.996096	-0.000118
1147	1.1403e+02	-5.6581	-23.463833	0.000547	5.474467	1.854800	-0.000219
1148	1.1413e+02	-5.6998	-23.633393	0.000426	4.257919	1.442622	-0.000170
1149	1.1423e+02	-5.7367	-23.794878	0.000406	4.055161	1.373926	-0.000162
1150	1.1433e+02	-5.7736	-23.956363	0.000406	4.055161	1.373926	-0.000162
1151	1.1442e+02	-5.8218	-24.125923	0.000426	4.257919	1.442622	-0.000170
1152	1.1452e+02	-5.8635	-24.267223	0.000355	3.548266	1.202185	-0.000142
1153	1.1462e+02	-5.8940	-24.465043	0.000497	4.967572	1.683059	-0.000199
1154	1.1472e+02	-5.9260	-24.711308	0.000618	6.184120	2.095237	-0.000248
1155	1.1482e+02	-5.9710	-24.832422	0.000304	3.041370	1.030444	-0.000122
1156	1.1492e+02	-6.0223	-24.985833	0.000385	3.852403	1.305229	-0.000154
1157	1.1502e+02	-6.0560	-25.119059	0.000335	3.345508	1.133489	-0.000134
1158	1.1512e+02	-6.1025	-25.361287	0.000608	6.082741	2.060888	-0.000243
1159	1.1522e+02	-6.1394	-25.498549	0.000345	3.446887	1.167837	-0.000138
1160	1.1532e+02	-6.1731	-25.639849	0.000355	3.548266	1.202185	-0.000142
1161	1.1542e+02	-6.2116	-25.760963	0.000304	3.041370	1.030444	-0.000122
1162	1.1552e+02	-6.2565	-25.946671	0.000466	4.663435	1.580014	-0.000187
1163	1.1562e+02	-6.2918	-26.104120	0.000395	3.953782	1.339577	-0.000158
1164	1.1572e+02	-6.3335	-26.257531	0.000385	3.852403	1.305229	-0.000154
1165	1.1582e+02	-6.3688	-26.455350	0.000497	4.967572	1.683059	-0.000199
1166	1.1592e+02	-6.4185	-26.600687	0.000365	3.649645	1.236533	-0.000146
1167	1.1602e+02	-6.4458	-26.790433	0.000476	4.764814	1.614363	-0.000191
1168	1.1612e+02	-6.4811	-26.939807	0.000375	3.751024	1.270881	-0.000150
1169	1.1622e+02	-6.5228	-27.077069	0.000345	3.446887	1.167837	-0.000138
1170	1.1632e+02	-6.5661	-27.230481	0.000385	3.852403	1.305229	-0.000154
1171	1.1642e+02	-6.6094	-27.416189	0.000466	4.663435	1.580014	-0.000187
1172	1.1651e+02	-6.6495	-27.585748	0.000426	4.257919	1.442622	-0.000170
1173	1.1661e+02	-6.6864	-27.799717	0.000537	5.373088	1.820451	-0.000215
1174	1.1671e+02	-6.7201	-27.924868	0.000314	3.142749	1.064792	-0.000126
1175	1.1681e+02	-6.7779	-28.102502	0.000446	4.460677	1.511318	-0.000179
1176	1.1691e+02	-6.7939	-28.219579	0.000294	2.939991	0.996096	-0.000118
1177	1.1701e+02	-6.8485	-28.372990	0.000385	3.852403	1.305229	-0.000154
1178	1.1711e+02	-6.8838	-28.570810	0.000497	4.967572	1.683059	-0.000199
1179	1.1721e+02	-6.9335	-28.699998	0.000324	3.244129	1.099140	-0.000130
1180	1.1731e+02	-6.9768	-28.905892	0.000517	5.170330	1.751755	-0.000207
1181	1.1741e+02	-6.9993	-28.986635	0.000203	2.027580	0.686963	-0.000081
1182	1.1751e+02	-7.0490	-29.164269	0.000446	4.460677	1.511318	-0.000179
1183	1.1761e+02	-7.0923	-29.329791	0.000416	4.156540	1.408274	-0.000166
1184	1.1771e+02	-7.1356	-29.515499	0.000466	4.663435	1.580014	-0.000187
1185	1.1781e+02	-7.1773	-29.636613	0.000304	3.041370	1.030444	-0.000122
1186	1.1791e+02	-7.2062	-29.798099	0.000406	4.055161	1.373926	-0.000162
1187	1.1801e+02	-7.2559	-29.979770	0.000456	4.562056	1.545666	-0.000183
1188	1.1811e+02	-7.2896	-30.161441	0.000456	4.562056	1.545666	-0.000183
1189	1.1821e+02	-7.3281	-30.310815	0.000375	3.751024	1.270881	-0.000150
1190	1.1831e+02	-7.3570	-30.407706	0.000243	2.433096	0.824355	-0.000097
1191	1.1841e+02	-7.4019	-30.641860	0.000588	5.879983	1.992192	-0.000235
1192	1.1850e+02	-7.4340	-30.819494	0.000446	4.460677	1.511318	-0.000179
1193	1.1860e+02	-7.4886	-30.936571	0.000294	2.939991	0.996096	-0.000118
1194	1.1870e+02	-7.5206	-31.089982	0.000385	3.852403	1.305229	-0.000154
1195	1.1880e+02	-7.5656	-31.231282	0.000355	3.548266	1.202185	-0.000142
1196	1.1890e+02	-7.6121	-31.384693	0.000385	3.852403	1.305229	-0.000154
1197	1.1900e+02	-7.6442	-31.513882	0.000324	3.244129	1.099140	-0.000130
1198	1.1910e+02	-7.6907	-31.671330	0.000395	3.953782	1.339577	-0.000158
1199	1.1920e+02	-7.7276	-31.800518	0.000324	3.244129	1.099140	-0.000130
1200	1.1930e+02	-7.7581	-31.998338	0.000497	4.967572	1.683059	-0.000199
1201	1.1940e+02	-7.7998	-32.103303	0.000264	2.635854	0.893052	-0.000105
1202	1.1950e+02	-7.8415	-32.264789	0.000406	4.055161	1.373926	-0.000162
1203	1.1960e+02	-7.8816	-32.418200	0.000385	3.852403	1.305229	-0.000154
1204	1.1970e+02	-7.9233	-32.611982	0.000487	4.866193	1.648711	-0.000195
1205	1.1980e+02	-7.9714	-32.769431	0.000395	3.953782	1.339577	-0.000158
1206	1.1990e+02	-8.0019	-32.898619	0.000324	3.244129	1.099140	-0.000130
1207	1.2000e+02	-8.0452	-33.060105	0.000406	4.055161	1.373926	-0.000162
1208	1.2010e+02	-8.0709	-33.229664	0.000426	4.257919	1.442622	-0.000170
1209	1.2020e+02	-8.1222	-33.370964	0.000355	3.548266	1.202185	-0.000142
1210	1.2030e+02	-8.1543	-33.552635	0.000456	4.562056	1.545666	-0.000183
1211	1.2039e+02	-8.1976	-33.738343	0.000466	4.663435	1.580014	-0.000187
1212	1.2049e+02	-8.2377	-33.847346	0.000274	2.737233	0.927400	-0.000110
1213	1.2059e+02	-8.2794	-33.972497	0.000314	3.142749	1.064792	-0.000126
1214	1.2069e+02	-8.3115	-34.133983	0.000406	4.055161	1.373926	-0.000162
1215	1.2079e+02	-8.3581	-34.275282	0.000355	3.548266	1.202185	-0.000142
1216	1.2089e+02	-8.3917	-34.396396	0.000304	3.041370	1.030444	-0.000122
1217	1.2099e+02	-8.4463	-34.569993	0.000436	4.359298	1.476970	-0.000174
1218	1.2109e+02	-8.4752	-34.723404	0.000385	3.852403	1.305229	-0.000154
1219	1.2119e+02	-8.5185	-34.864704	0.000355	3.548266	1.202185	-0.000142
1220	1.2129e+02	-8.5650	-34.993893	0.000324	3.244129	1.099140	-0.000130
1221	1.2139e+02	-8.6051	-35.159415	0.000416	4.156540	1.408274	-0.000166
1222	1.2149e+02	-8.6468	-35.292641	0.000335	3.345508	1.133489	-0.000134
1223	1.2159e+02	-8.6853	-35.421829	0.000324	3.244129	1.099140	-0.000130
1224	1.2169e+02	-8.7302	-35.587352	0.000416	4.156540	1.408274	-0.000166
1225	1.2179e+02	-8.7671	-35.720577	0.000335	3.345508	1.133489	-0.000134
1226	1.2189e+02	-8.7976	-35.873988	0.000385	3.852403	1.305229	-0.000154
1227	1.2199e+02	-8.8281	-36.067771	0.000487	4.866193	1.648711	-0.000195
1228	1.2209e+02	-8.8730	-36.225219	0.000395	3.953782	1.339577	-0.000158
1229	1.2219e+02	-8.9179	-36.350370	0.000314	3.142749	1.064792	-0.000126
1230	1.2229e+02	-8.9645	-36.515893	0.000416	4.156540	1.408274	-0.000166
1231	1.2239e+02	-9.0030	-36.669304	0.000385	3.852403	1.305229	-0.000154
1232	1.2248e+02	-9.0366	-36.741972	0.000182	1.824822	0.618267	-0.000073
1233	1.2258e+02	-9.0832	-36.899421	0.000395	3.953782	1.339577	-0.000158
1234	1.2268e+02	-9.1201	-37.000349	0.000253	2.534475	0.858704	-0.000101
1235	1.2278e+02	-9.1473	-37.194132	0.000487	4.866193	1.648711	-0.000195
1236	1.2288e+02	-9.2099	-37.311208	0.000294	2.939991	0.996096	-0.000118
1237	1.2298e+02	-9.2404	-37.480768	0.000426	4.257919	1.442622	-0.000170
1238	1.2308e+02	-9.2869	-37.573622	0.000233	2.331717	0.790007	-0.000093
1239	1.2318e+02	-9.3126	-37.739145	0.000416	4.156540	1.408274	-0.000166
1240	1.2328e+02	-9.3591	-37.896593	0.000395	3.953782	1.339577	-0.000158
1241	1.2338e+02	-9.4008	-38.058079	0.000406	4.055161	1.373926	-0.000162
1242	1.2348e+02	-9.4377	-38.183230	0.000314	3.142749	1.064792	-0.000126
1243	1.2358e+02	-9.4794	-38.328567	0.000365	3.649645	1.236533	-0.000146
1244	1.2368e+02	-9.5131	-38.461792	0.000335	3.345508	1.133489	-0.000134
1245	1.2378e+02	-9.5628	-38.570795	0.000274	2.737233	0.927400	-0.000110
1246	1.2388e+02	-9.5917	-38.776689	0.000517	5.170330	1.751755	-0.000207
1247	1.2398e+02	-9.6382	-38.909914	0.000335	3.345508	1.133489	-0.000134
1248	1.2408e+02	-9.6767	-39.063325	0.000385	3.852403	1.305229	-0.000154
1249	1.2418e+02	-9.7200	-39.180402	0.000294	2.939991	0.996096	-0.000118
1250	1.2428e+02	-9.7505	-39.297479	0.000294	2.939991	0.996096	-0.000118
1251	1.2438e+02	-9.7938	-39.430705	0.000335	3.345508	1.133489	-0.000134
1252	1.2447e+02	-9.8339	-39.559893	0.000324	3.244129	1.099140	-0.000130
1253	1.2457e+02	-9.8708	-39.713304	0.000385	3.852403	1.305229	-0.000154
1254	1.2467e+02	-9.9286	-39.842493	0.000324	3.244129	1.099140	-0.000130
1255	1.2477e+02	-9.9543	-39.947458	0.000264	2.635854	0.893052	-0.000105
1256	1.2487e+02	-9.9960	-40.096832	0.000375	3.751024	1.270881	-0.000150
1257	1.2497e+02	-10.0361	-40.270429	0.000436	4.359298	1.476970	-0.000174
1258	1.2507e+02	-10.0746	-40.367320	0.000243	2.433096	0.824355	-0.000097
1259	1.2517e+02	-10.1067	-40.500546	0.000335	3.345508	1.133489	-0.000134
1260	1.2527e+02	-10.1612	-40.637808	0.000345	3.446887	1.167837	-0.000138
1261	1.2537e+02	-10.1981	-40.775071	0.000345	3.446887	1.167837	-0.000138
1262	1.2547e+02	-10.2334	-40.928482	0.000385	3.852403	1.305229	-0.000154
1263	1.2557e+02	-10.2751	-41.057670	0.000324	3.244129	1.099140	-0.000130
1264	1.2567e+02	-10.3104	-41.207044	0.000375	3.751024	1.270881	-0.000150
1265	1.2577e+02	-10.3505	-41.376604	0.000426	4.257919	1.442622	-0.000170
1266	1.2587e+02	-10.3954	-41.509830	0.000335	3.345508	1.133489	-0.000134
1267	1.2597e+02	-10.4339	-41.618832	0.000274	2.737233	0.927400	-0.000110
1268	1.2607e+02	-10.4805	-41.743984	0.000314	3.142749	1.064792	-0.000126
1269	1.2617e+02	-10.5061	-41.865098	0.000304	3.041370	1.030444	-0.000122
1270	1.2627e+02	-10.5575	-42.042732	0.000446	4.460677	1.511318	-0.000179
1271	1.2636e+02	-10.5895	-42.119437	0.000193	1.926201	0.652615	-0.000077
1272	1.2646e+02	-10.6393	-42.284960	0.000416	4.156540	1.408274	-0.000166
1273	1.2656e+02	-10.6794	-42.410111	0.000314	3.142749	1.064792	-0.000126
1274	1.2666e+02	-10.7179	-42.531225	0.000304	3.041370	1.030444	-0.000122
1275	1.2676e+02	-10.7660	-42.644265	0.000284	2.838612	0.961748	-0.000114
1276	1.2686e+02	-10.7901	-42.785565	0.000355	3.548266	1.202185	-0.000142
1277	1.2696e+02	-10.8302	-42.959161	0.000436	4.359298	1.476970	-0.000174
1278	1.2706e+02	-10.8815	-43.068164	0.000274	2.737233	0.927400	-0.000110
1279	1.2716e+02	-10.9168	-43.225612	0.000395	3.953782	1.339577	-0.000158
1280	1.2726e+02	-10.9537	-43.338652	0.000284	2.838612	0.961748	-0.000114
1281	1.2736e+02	-10.9842	-43.463803	0.000314	3.142749	1.064792	-0.000126
1282	1.2746e+02	-11.0259	-43.625289	0.000406	4.055161	1.373926	-0.000162
1283	1.2756e+02	-11.0756	-43.774663	0.000375	3.751024	1.270881	-0.000150
1284	1.2766e+02	-11.1077	-43.936148	0.000406	4.055161	1.373926	-0.000162
1285	1.2776e+02	-11.1510	-44.081485	0.000365	3.649645	1.236533	-0.000146
1286	1.2786e+02	-11.1959	-44.186451	0.000264	2.635854	0.893052	-0.000105
1287	1.2796e+02	-11.2296	-44.327750	0.000355	3.548266	1.202185	-0.000142
1288	1.2806e+02	-11.2665	-44.400419	0.000182	1.824822	0.618267	-0.000073
1289	1.2816e+02	-11.3066	-44.541719	0.000355	3.548266	1.202185	-0.000142
1290	1.2826e+02	-11.3532	-44.646684	0.000264	2.635854	0.893052	-0.000105
1291	1.2835e+02	-11.3933	-44.800095	0.000385	3.852403	1.305229	-0.000154
1292	1.2845e+02	-11.4270	-44.929284	0.000324	3.244129	1.099140	-0.000130
1293	1.2855e+02	-11.4671	-45.038286	0.000274	2.737233	0.927400	-0.000110
1294	1.2865e+02	-11.5168	-45.139215	0.000253	2.534475	0.858704	-0.000101
1295	1.2875e+02	-11.5521	-45.353183	0.000537	5.373088	1.820451	-0.000215
1296	1.2885e+02	-11.5938	-45.429888	0.000193	1.926201	0.652615	-0.000077
1297	1.2895e+02	-11.6339	-45.567151	0.000345	3.446887	1.167837	-0.000138
1298	1.2905e+02	-11.6724	-45.752859	0.000466	4.663435	1.580014	-0.000187
1299	1.2915e+02	-11.7077	-45.853788	0.000253	2.534475	0.858704	-0.000101
1300	1.2925e+02	-11.7414	-45.962790	0.000274	2.737233	0.927400	-0.000110
1301	1.2935e+02	-11.7927	-46.136387	0.000436	4.359298	1.476970	-0.000174
1302	1.2945e+02	-11.8328	-46.265576	0.000324	3.244129	1.099140	-0.000130
1303	1.2955e+02	-11.8633	-46.394764	0.000324	3.244129	1.099140	-0.000130
1304	1.2965e+02	-11.9114	-46.519915	0.000314	3.142749	1.064792	-0.000126
1305	1.2975e+02	-11.9483	-46.612769	0.000233	2.331717	0.790007	-0.000093
1306	1.2985e+02	-11.9788	-46.733883	0.000304	3.041370	1.030444	-0.000122
1307	1.2995e+02	-12.0317	-46.903443	0.000426	4.257919	1.442622	-0.000170
1308	1.3005e+02	-12.0670	-46.988223	0.000213	2.128959	0.721311	-0.000085
1309	1.3015e+02	-12.1120	-47.125485	0.000345	3.446887	1.167837	-0.000138
1310	1.3025e+02	-12.1617	-47.242562	0.000294	2.939991	0.996096	-0.000118
1311	1.3034e+02	-12.1938	-47.387899	0.000365	3.649645	1.236533	-0.000146
1312	1.3044e+02	-12.2130	-47.500939	0.000284	2.838612	0.961748	-0.000114
1313	1.3054e+02	-12.2708	-47.630127	0.000324	3.244129	1.099140	-0.000130
1314	1.3064e+02	-12.3125	-47.759316	0.000324	3.244129	1.099140	-0.000130
1315	1.3074e+02	-12.3414	-47.888504	0.000324	3.244129	1.099140	-0.000130
1316	1.3084e+02	-12.3863	-48.037878	0.000375	3.751024	1.270881	-0.000150
1317	1.3094e+02	-12.4296	-48.134769	0.000243	2.433096	0.824355	-0.000097
1318	1.3104e+02	-12.4633	-48.340663	0.000517	5.170330	1.751755	-0.000207
1319	1.3114e+02	-12.4970	-48.490037	0.000375	3.751024	1.270881	-0.000150
1320	1.3124e+02	-12.5563	-48.566743	0.000193	1.926201	0.652615	-0.000077
1321	1.3134e+02	-12.5804	-48.720154	0.000385	3.852403	1.305229	-0.000154
1322	1.3144e+02	-12.6253	-48.873565	0.000385	3.852403	1.305229	-0.000154
1323	1.3154e+02	-12.6686	-48.962382	0.000223	2.230338	0.755659	-0.000089
1324	1.3164e+02	-12.7119	-49.051199	0.000223	2.230338	0.755659	-0.000089
1325	1.3174e+02	-12.7472	-49.212685	0.000406	4.055161	1.373926	-0.000162
1326	1.3184e+02	-12.7873	-49.321687	0.000274	2.737233	0.927400	-0.000110
1327	1.3194e+02	-12.8290	-49.422616	0.000253	2.534475	0.858704	-0.000101
1328	1.3204e+02	-12.8724	-49.571990	0.000375	3.751024	1.270881	-0.000150
1329	1.3214e+02	-12.9061	-49.709252	0.000345	3.446887	1.167837	-0.000138
1330	1.3224e+02	-12.9381	-49.806144	0.000243	2.433096	0.824355	-0.000097
1331	1.3234e+02	-12.9766	-49.971666	0.000416	4.156540	1.408274	-0.000166
1332	1.3243e+02	-13.0280	-50.072595	0.000253	2.534475	0.858704	-0.000101
1333	1.3253e+02	-13.0585	-50.205820	0.000335	3.345508	1.133489	-0.000134
1334	1.3263e+02	-13.1098	-50.351157	0.000365	3.649645	1.236533	-0.000146
1335	1.3273e+02	-13.1483	-50.456122	0.000264	2.635854	0.893052	-0.000105
1336	1.3283e+02	-13.1772	-50.625682	0.000426	4.257919	1.442622	-0.000170
1337	1.3293e+02	-13.2205	-50.762945	0.000345	3.446887	1.167837	-0.000138
1338	1.3303e+02	-13.2638	-50.924430	0.000406	4.055161	1.373926	-0.000162
1339	1.3313e+02	-13.3007	-51.021321	0.000243	2.433096	0.824355	-0.000097
1340	1.3323e+02	-13.3440	-51.162621	0.000355	3.548266	1.202185	-0.000142
1341	1.3333e+02	-13.3729	-51.259512	0.000243	2.433096	0.824355	-0.000097
1342	1.3343e+02	-13.4290	-51.360441	0.000253	2.534475	0.858704	-0.000101
1343	1.3353e+02	-13.4627	-51.505778	0.000365	3.649645	1.236533	-0.000146
1344	1.3363e+02	-13.5060	-51.594595	0.000223	2.230338	0.755659	-0.000089
1345	1.3373e+02	-13.5381	-51.756080	0.000406	4.055161	1.373926	-0.000162
1346	1.3383e+02	-13.5862	-51.861046	0.000264	2.635854	0.893052	-0.000105
1347	1.3393e+02	-13.6231	-51.990234	0.000324	3.244129	1.099140	-0.000130
1348	1.3403e+02	-13.6697	-52.119422	0.000324	3.244129	1.099140	-0.000130
1349	1.3413e+02	-13.7050	-52.248611	0.000324	3.244129	1.099140	-0.000130
1350	1.3423e+02	-13.7499	-52.397985	0.000375	3.751024	1.270881	-0.000150
1351	1.3432e+02	-13.7900	-52.519099	0.000304	3.041370	1.030444	-0.000122
1352	1.3442e+02	-13.8317	-52.607916	0.000223	2.230338	0.755659	-0.000089
1353	1.3452e+02	-13.8574	-52.765364	0.000395	3.953782	1.339577	-0.000158
1354	1.3462e+02	-13.9071	-52.850144	0.000213	2.128959	0.721311	-0.000085
1355	1.3472e+02	-13.9376	-53.047964	0.000497	4.967572	1.683059	-0.000199
1356	1.3482e+02	-13.9793	-53.189263	0.000355	3.548266	1.202185	-0.000142
1357	1.3492e+02	-14.0162	-53.282117	0.000233	2.331717	0.790007	-0.000093
1358	1.3502e+02	-14.0595	-53.415343	0.000335	3.345508	1.133489	-0.000134
1359	1.3512e+02	-14.0980	-53.500123	0.000213	2.128959	0.721311	-0.000085
1360	1.3522e+02	-14.1397	-53.653534	0.000385	3.852403	1.305229	-0.000154
1361	1.3532e+02	-14.1798	-53.778685	0.000314	3.142749	1.064792	-0.000126
1362	1.3542e+02	-14.2071	-53.871539	0.000233	2.331717	0.790007	-0.000093
1363	1.3552e+02	-14.2616	-54.012839	0.000355	3.548266	1.202185	-0.000142
1364	1.3562e+02	-14.3049	-54.125879	0.000284	2.838612	0.961748	-0.000114
1365	1.3572e+02	-14.3402	-54.267179	0.000355	3.548266	1.202185	-0.000142
1366	1.3582e+02	-14.3852	-54.364070	0.000243	2.433096	0.824355	-0.000097
1367	1.3592e+02	-14.4140	-54.485184	0.000304	3.041370	1.030444	-0.000122
1368	1.3602e+02	-14.4525	-54.630521	0.000365	3.649645	1.236533	-0.000146
1369	1.3612e+02	-14.5007	-54.755672	0.000314	3.142749	1.064792	-0.000126
1370	1.3622e+02	-14.5424	-54.856600	0.000253	2.534475	0.858704	-0.000101
1371	1.3631e+02	-14.5745	-55.014049	0.000395	3.953782	1.339577	-0.000158
1372	1.3641e+02	-14.6194	-55.147274	0.000335	3.345508	1.133489	-0.000134
1373	1.3651e+02	-14.6531	-55.272425	0.000314	3.142749	1.064792	-0.000126
1374	1.3661e+02	-14.6964	-55.389502	0.000294	2.939991	0.996096	-0.000118
1375	1.3671e+02	-14.7301	-55.538876	0.000375	3.751024	1.270881	-0.000150
1376	1.3681e+02	-14.7718	-55.664028	0.000314	3.142749	1.064792	-0.000126
1377	1.3691e+02	-14.8215	-55.809364	0.000365	3.649645	1.236533	-0.000146
1378	1.3701e+02	-14.8616	-55.841662	0.000081	0.811032	0.274785	-0.000032
1379	1.3711e+02	-14.8905	-56.023333	0.000456	4.562056	1.545666	-0.000183
1380	1.3721e+02	-14.9306	-56.096001	0.000182	1.824822	0.618267	-0.000073
1381	1.3731e+02	-14.9755	-56.249412	0.000385	3.852403	1.305229	-0.000154
1382	1.3741e+02	-15.0060	-56.362452	0.000284	2.838612	0.961748	-0.000114
1383	1.3751e+02	-15.0557	-56.503752	0.000355	3.548266	1.202185	-0.000142
1384	1.3761e+02	-15.0958	-56.604680	0.000253	2.534475	0.858704	-0.000101
1385	1.3771e+02	-15.1520	-56.762128	0.000395	3.953782	1.339577	-0.000158
1386	1.3781e+02	-15.1793	-56.842871	0.000203	2.027580	0.686963	-0.000081
1387	1.3791e+02	-15.2178	-56.980134	0.000345	3.446887	1.167837	-0.000138
1388	1.3801e+02	-15.2611	-57.125471	0.000365	3.649645	1.236533	-0.000146
1389	1.3811e+02	-15.2964	-57.254659	0.000324	3.244129	1.099140	-0.000130
1390	1.3821e+02	-15.3381	-57.355587	0.000253	2.534475	0.858704	-0.000101
1391	1.3831e+02	-15.3734	-57.488813	0.000335	3.345508	1.133489	-0.000134
1392	1.3840e+02	-15.4183	-57.638187	0.000375	3.751024	1.270881	-0.000150
1393	1.3850e+02	-15.4568	-57.775450	0.000345	3.446887	1.167837	-0.000138
1394	1.3860e+02	-15.4937	-57.872341	0.000243	2.433096	0.824355	-0.000097
1395	1.3870e+02	-15.5274	-58.005566	0.000335	3.345508	1.133489	-0.000134
1396	1.3880e+02	-15.5675	-58.078235	0.000182	1.824822	0.618267	-0.000073
1397	1.3890e+02	-15.6140	-58.211460	0.000335	3.345508	1.133489	-0.000134
1398	1.3900e+02	-15.6493	-58.300277	0.000223	2.230338	0.755659	-0.000089
1399	1.3910e+02	-15.6926	-58.437540	0.000345	3.446887	1.167837	-0.000138
1400	1.3920e+02	-15.7295	-58.562691	0.000314	3.142749	1.064792	-0.000126
1401	1.3930e+02	-15.7728	-58.687842	0.000314	3.142749	1.064792	-0.000126
1402	1.3940e+02	-15.8177	-58.776659	0.000223	2.230338	0.755659	-0.000089
1403	1.3950e+02	-15.8578	-58.921996	0.000365	3.649645	1.236533	-0.000146
1404	1.3960e+02	-15.8963	-59.051184	0.000324	3.244129	1.099140	-0.000130
1405	1.3970e+02	-15.9445	-59.160187	0.000274	2.737233	0.927400	-0.000110
1406	1.3980e+02	-15.9669	-59.281301	0.000304	3.041370	1.030444	-0.000122
1407	1.3990e+02	-16.0167	-59.426638	0.000365	3.649645	1.236533	-0.000146
1408	1.4000e+02	-16.0471	-59.571975	0.000365	3.649645	1.236533	-0.000146
1409	1.4010e+02	-16.0905	-59.676940	0.000264	2.635854	0.893052	-0.000105
1410	1.4020e+02	-16.1257	-59.830352	0.000385	3.852403	1.305229	-0.000154
1411	1.4029e+02	-16.1610	-59.923206	0.000233	2.331717	0.790007	-0.000093
1412	1.4039e+02	-16.2092	-60.064506	0.000355	3.548266	1.202185	-0.000142
1413	1.4049e+02	-16.2413	-60.177545	0.000284	2.838612	0.961748	-0.000114
1414	1.4059e+02	-16.2910	-60.278474	0.000253	2.534475	0.858704	-0.000101
1415	1.4069e+02	-16.3359	-60.375365	0.000243	2.433096	0.824355	-0.000097
1416	1.4079e+02	-16.3664	-60.496479	0.000304	3.041370	1.030444	-0.000122
1417	1.4089e+02	-16.4097	-60.625667	0.000324	3.244129	1.099140	-0.000130
1418	1.4099e+02	-16.4482	-60.706410	0.000203	2.027580	0.686963	-0.000081
1419	1.4109e+02	-16.4899	-60.843673	0.000345	3.446887	1.167837	-0.000138
1420	1.4119e+02	-16.5252	-60.968824	0.000314	3.142749	1.064792	-0.000126
1421	1.4129e+02	-16.5653	-61.085901	0.000294	2.939991	0.996096	-0.000118
1422	1.4139e+02	-16.6215	-61.247386	0.000406	4.055161	1.373926	-0.000162
1423	1.4149e+02	-16.6503	-61.316018	0.000172	1.723443	0.583918	-0.000069
1424	1.4159e+02	-16.6840	-61.473466	0.000395	3.953782	1.339577	-0.000158
1425	1.4169e+02	-16.7257	-61.614766	0.000355	3.548266	1.202185	-0.000142
1426	1.4179e+02	-16.7787	-61.743954	0.000324	3.244129	1.099140	-0.000130
1427	1.4189e+02	-16.8108	-61.856994	0.000284	2.838612	0.961748	-0.000114
1428	1.4199e+02	-16.8477	-61.986182	0.000324	3.244129	1.099140	-0.000130
1429	1.4209e+02	-16.8813	-62.099222	0.000284	2.838612	0.961748	-0.000114
1430	1.4219e+02	-16.9247	-62.256670	0.000395	3.953782	1.339577	-0.000158
1431	1.4228e+02	-16.9696	-62.325302	0.000172	1.723443	0.583918	-0.000069
1432	1.4238e+02	-17.0017	-62.486787	0.000406	4.055161	1.373926	-0.000162
1433	1.4248e+02	-17.0514	-62.535233	0.000122	1.216548	0.412178	-0.000049
1434	1.4258e+02	-17.0963	-62.656347	0.000304	3.041370	1.030444	-0.000122
1435	1.4268e+02	-17.1348	-62.809758	0.000385	3.852403	1.305229	-0.000154
1436	1.4278e+02	-17.1685	-62.878389	0.000172	1.723443	0.583918	-0.000069
1437	1.4288e+02	-17.2038	-63.060060	0.000456	4.562056	1.545666	-0.000183
1438	1.4298e+02	-17.2551	-63.140803	0.000203	2.027580	0.686963	-0.000081
1439	1.4308e+02	-17.2888	-63.306326	0.000416	4.156540	1.408274	-0.000166
1440	1.4318e+02	-17.3369	-63.419365	0.000284	2.838612	0.961748	-0.000114
1441	1.4328e+02	-17.3642	-63.544517	0.000314	3.142749	1.064792	-0.000126
1442	1.4338e+02	-17.4027	-63.665631	0.000304	3.041370	1.030444	-0.000122
1443	1.4348e+02	-17.4460	-63.774633	0.000274	2.737233	0.927400	-0.000110
1444	1.4358e+02	-17.4893	-63.932082	0.000395	3.953782	1.339577	-0.000158
1445	1.4368e+02	-17.5246	-64.061270	0.000324	3.244129	1.099140	-0.000130
1446	1.4378e+02	-17.5631	-64.186421	0.000314	3.142749	1.064792	-0.000126
1447	1.4388e+02	-17.6000	-64.319647	0.000335	3.345508	1.133489	-0.000134
1448	1.4398e+02	-17.6369	-64.452872	0.000335	3.345508	1.133489	-0.000134
1449	1.4408e+02	-17.6770	-64.590135	0.000345	3.446887	1.167837	-0.000138
1450	1.4418e+02	-17.7220	-64.707212	0.000294	2.939991	0.996096	-0.000118
1451	1.4428e+02	-17.7605	-64.787954	0.000203	2.027580	0.686963	-0.000081
1452	1.4437e+02	-17.8102	-64.913106	0.000314	3.142749	1.064792	-0.000126
1453	1.4447e+02	-17.8439	-65.046331	0.000335	3.345508	1.133489	-0.000134
1454	1.4457e+02	-17.8808	-65.159371	0.000284	2.838612	0.961748	-0.000114
1455	1.4467e+02	-17.9369	-65.264336	0.000264	2.635854	0.893052	-0.000105
1456	1.4477e+02	-17.9706	-65.365265	0.000253	2.534475	0.858704	-0.000101
1457	1.4487e+02	-18.0107	-65.534824	0.000426	4.257919	1.442622	-0.000170
1458	1.4497e+02	-18.0444	-65.643827	0.000274	2.737233	0.927400	-0.000110
1459	1.4507e+02	-18.0941	-65.829535	0.000466	4.663435	1.580014	-0.000187
1460	1.4517e+02	-18.1246	-65.894130	0.000162	1.622064	0.549570	-0.000065
1461	1.4527e+02	-18.1567	-66.043504	0.000375	3.751024	1.270881	-0.000150
1462	1.4537e+02	-18.2000	-66.217100	0.000436	4.359298	1.476970	-0.000174
1463	1.4547e+02	-18.2449	-66.318029	0.000253	2.534475	0.858704	-0.000101
1464	1.4557e+02	-18.2754	-66.499700	0.000456	4.562056	1.545666	-0.000183
1465	1.4567e+02	-18.3203	-66.616777	0.000294	2.939991	0.996096	-0.000118
1466	1.4577e+02	-18.3604	-66.762114	0.000365	3.649645	1.236533	-0.000146
1467	1.4587e+02	-18.3989	-66.814596	0.000132	1.317927	0.446526	-0.000053
1468	1.4597e+02	-18.4391	-66.984156	0.000426	4.257919	1.442622	-0.000170
1469	1.4607e+02	-18.4808	-67.040676	0.000142	1.419306	0.480874	-0.000057
1470	1.4617e+02	-18.5193	-67.194087	0.000385	3.852403	1.305229	-0.000154
1471	1.4626e+02	-18.5722	-67.327313	0.000335	3.345508	1.133489	-0.000134
1472	1.4636e+02	-18.5915	-67.464575	0.000345	3.446887	1.167837	-0.000138
1473	1.4646e+02	-18.6300	-67.585689	0.000304	3.041370	1.030444	-0.000122
1474	1.4656e+02	-18.6829	-67.710841	0.000314	3.142749	1.064792	-0.000126
1475	1.4666e+02	-18.7198	-67.827918	0.000294	2.939991	0.996096	-0.000118
1476	1.4676e+02	-18.7615	-67.981329	0.000385	3.852403	1.305229	-0.000154
1477	1.4686e+02	-18.8048	-68.090331	0.000274	2.737233	0.927400	-0.000110
1478	1.4696e+02	-18.8353	-68.231631	0.000355	3.548266	1.202185	-0.000142
1479	1.4706e+02	-18.8850	-68.417339	0.000466	4.663435	1.580014	-0.000187
1480	1.4716e+02	-18.9123	-68.534416	0.000294	2.939991	0.996096	-0.000118
1481	1.4726e+02	-18.9588	-68.699939	0.000416	4.156540	1.408274	-0.000166
1482	1.4736e+02	-19.0021	-68.853350	0.000385	3.852403	1.305229	-0.000154
1483	1.4746e+02	-19.0487	-69.022910	0.000426	4.257919	1.442622	-0.000170
1484	1.4756e+02	-19.0791	-69.180358	0.000395	3.953782	1.339577	-0.000158
1485	1.4766e+02	-19.1241	-69.277249	0.000243	2.433096	0.824355	-0.000097
1486	1.4776e+02	-19.1594	-69.386252	0.000274	2.737233	0.927400	-0.000110
1487	1.4786e+02	-19.2043	-69.531589	0.000365	3.649645	1.236533	-0.000146
1488	1.4796e+02	-19.2492	-69.604257	0.000182	1.824822	0.618267	-0.000073
1489	1.4806e+02	-19.2813	-69.733446	0.000324	3.244129	1.099140	-0.000130
1490	1.4816e+02	-19.3134	-69.911080	0.000446	4.460677	1.511318	-0.000179
1491	1.4825e+02	-19.3583	-70.048342	0.000345	3.446887	1.167837	-0.000138
1492	1.4835e+02	-19.4016	-70.173493	0.000314	3.142749	1.064792	-0.000126
1493	1.4845e+02	-19.4433	-70.286533	0.000284	2.838612	0.961748	-0.000114
1494	1.4855e+02	-19.4802	-70.472241	0.000466	4.663435	1.580014	-0.000187
1495	1.4865e+02	-19.5187	-70.561058	0.000223	2.230338	0.755659	-0.000089
1496	1.4875e+02	-19.5524	-70.742730	0.000456	4.562056	1.545666	-0.000183
1497	1.4885e+02	-19.6005	-70.892104	0.000375	3.751024	1.270881	-0.000150
1498	1.4895e+02	-19.6342	-71.073775	0.000456	4.562056	1.545666	-0.000183
1499	1.4905e+02	-19.6791	-71.207000	0.000335	3.345508	1.133489	-0.000134
1500	1.4915e+02	-19.7112	-71.364448	0.000395	3.953782	1.339577	-0.000158
1501	1.4925e+02	-19.7561	-71.513822	0.000375	3.751024	1.270881	-0.000150
1502	1.4935e+02	-19.7930	-71.679345	0.000416	4.156540	1.408274	-0.000166
1503	1.4945e+02	-19.8395	-71.840830	0.000406	4.055161	1.373926	-0.000162
1504	1.4955e+02	-19.8732	-71.957907	0.000294	2.939991	0.996096	-0.000118
1505	1.4965e+02	-19.9246	-72.079021	0.000304	3.041370	1.030444	-0.000122
1506	1.4975e+02	-19.9599	-72.175913	0.000243	2.433096	0.824355	-0.000097
1507	1.4985e+02	-19.9936	-72.385844	0.000527	5.271709	1.786103	-0.000211
1508	1.4995e+02	-19.9551	-72.333361	0.000132	1.317927	0.446526	0.000053
1509	1.5005e+02	-19.9166	-72.284915	0.000122	1.216548	0.412178	0.000049
1510	1.5015e+02	-19.8716	-72.232433	0.000132	1.317927	0.446526	0.000053
1511	1.5025e+02	-19.8428	-72.228395	0.000010	0.101379	0.034348	0.000004
1512	1.5034e+02	-19.7930	-72.135541	0.000233	2.331717	0.790007	0.000093
1513	1.5044e+02	-19.7593	-72.103244	0.000081	0.811032	0.274785	0.000032
1514	1.5054e+02	-19.7144	-72.079021	0.000061	0.608274	0.206089	0.000024
1515	1.5064e+02	-19.6759	-72.058836	0.000051	0.506895	0.171741	0.000020
1516	1.5074e+02	-19.6374	-72.042687	0.000041	0.405516	0.137393	0.000016
1517	1.5084e+02	-19.5861	-71.957907	0.000213	2.128959	0.721311	0.000085
1518	1.5094e+02	-19.5460	-71.909462	0.000122	1.216548	0.412178	0.000049
1519	1.5104e+02	-19.5139	-71.869090	0.000101	1.013790	0.343481	0.000041
1520	1.5114e+02	-19.4770	-71.840830	0.000071	0.709653	0.240437	0.000028
1521	1.5124e+02	-19.4369	-71.772199	0.000172	1.723443	0.583918	0.000069
1522	1.5134e+02	-19.3936	-71.699531	0.000182	1.824822	0.618267	0.000073
1523	1.5144e+02	-19.3679	-71.602639	0.000243	2.433096	0.824355	0.000097
1524	1.5154e+02	-19.3182	-71.529971	0.000182	1.824822	0.618267	0.000073
1525	1.5164e+02	-19.2749	-71.489600	0.000101	1.013790	0.343481	0.000041
1526	1.5174e+02	-19.2364	-71.412894	0.000193	1.926201	0.652615	0.000077
1527	1.5184e+02	-19.2011	-71.356374	0.000142	1.419306	0.480874	0.000057
1528	1.5194e+02	-19.1626	-71.223149	0.000335	3.345508	1.133489	0.000134
1529	1.5204e+02	-19.1241	-71.194889	0.000071	0.709653	0.240437	0.000028
1530	1.5214e+02	-19.0807	-71.102035	0.000233	2.331717	0.790007	0.000093
1531	1.5224e+02	-19.0422	-71.049552	0.000132	1.317927	0.446526	0.000053
1532	1.5233e+02	-19.0037	-71.045515	0.000010	0.101379	0.034348	0.000004
1533	1.5243e+02	-18.9636	-70.960735	0.000213	2.128959	0.721311	0.000085
1534	1.5253e+02	-18.9219	-70.920364	0.000101	1.013790	0.343481	0.000041
1535	1.5263e+02	-18.8802	-70.815398	0.000264	2.635854	0.893052	0.000105
1536	1.5273e+02	-18.8353	-70.754841	0.000152	1.520685	0.515222	0.000061
1537	1.5283e+02	-18.8016	-70.678135	0.000193	1.926201	0.652615	0.000077
1538	1.5293e+02	-18.7615	-70.593356	0.000213	2.128959	0.721311	0.000085
1539	1.5303e+02	-18.7198	-70.544910	0.000122	1.216548	0.412178	0.000049
1540	1.5313e+02	-18.6829	-70.456093	0.000223	2.230338	0.755659	0.000089
1541	1.5323e+02	-18.6316	-70.403610	0.000132	1.317927	0.446526	0.000053
1542	1.5333e+02	-18.6123	-70.310756	0.000233	2.331717	0.790007	0.000093
1543	1.5343e+02	-18.5626	-70.189642	0.000304	3.041370	1.030444	0.000122
1544	1.5353e+02	-18.5273	-70.100825	0.000223	2.230338	0.755659	0.000089
1545	1.5363e+02	-18.4856	-70.048342	0.000132	1.317927	0.446526	0.000053
1546	1.5373e+02	-18.4374	-69.979711	0.000172	1.723443	0.583918	0.000069
1547	1.5383e+02	-18.3973	-69.882820	0.000243	2.433096	0.824355	0.000097
1548	1.5393e+02	-18.3588	-69.838411	0.000112	1.115169	0.377830	0.000045
1549	1.5403e+02	-18.3219	-69.737483	0.000253	2.534475	0.858704	0.000101
1550	1.5413e+02	-18.2818	-69.705186	0.000081	0.811032	0.274785	0.000032
1551	1.5422e+02	-18.2481	-69.632517	0.000182	1.824822	0.618267	0.000073
1552	1.5432e+02	-18.2113	-69.571960	0.000152	1.520685	0.515222	0.000061
1553	1.5442e+02	-18.1695	-69.475069	0.000243	2.433096	0.824355	0.000097
1554	1.5452e+02	-18.1214	-69.406438	0.000172	1.723443	0.583918	0.000069
1555	1.5462e+02	-18.0877	-69.305509	0.000253	2.534475	0.858704	0.000101
1556	1.5472e+02	-18.0524	-69.188432	0.000294	2.939991	0.996096	0.000118
1557	1.5482e+02	-18.0075	-69.152098	0.000091	0.912411	0.309133	0.000037
1558	1.5492e+02	-17.9594	-69.030984	0.000304	3.041370	1.030444	0.000122
1559	1.5502e+02	-17.9209	-68.942167	0.000223	2.230338	0.755659	0.000089
1560	1.5512e+02	-17.8920	-68.877573	0.000162	1.622064	0.549570	0.000065
1561	1.5522e+02	-17.8439	-68.784719	0.000233	2.331717	0.790007	0.000093
1562	1.5532e+02	-17.8086	-68.699939	0.000213	2.128959	0.721311	0.000085
1563	1.5542e+02	-17.7605	-68.607085	0.000233	2.331717	0.790007	0.000093
1564	1.5552e+02	-17.7252	-68.502119	0.000264	2.635854	0.893052	0.000105
1565	1.5562e+02	-17.6899	-68.393117	0.000274	2.737233	0.927400	0.000110
1566	1.5572e+02	-17.6482	-68.352745	0.000101	1.013790	0.343481	0.000041
1567	1.5582e+02	-17.5984	-68.267965	0.000213	2.128959	0.721311	0.000085
1568	1.5592e+02	-17.5631	-68.179148	0.000223	2.230338	0.755659	0.000089
1569	1.5602e+02	-17.5262	-68.090331	0.000223	2.230338	0.755659	0.000089
1570	1.5612e+02	-17.4893	-68.017663	0.000182	1.824822	0.618267	0.000073
1571	1.5622e+02	-17.4460	-67.957106	0.000152	1.520685	0.515222	0.000061
1572	1.5631e+02	-17.3995	-67.831955	0.000314	3.142749	1.064792	0.000126
1573	1.5641e+02	-17.3722	-67.763323	0.000172	1.723443	0.583918	0.000069
1574	1.5651e+02	-17.3257	-67.670469	0.000233	2.331717	0.790007	0.000093
1575	1.5661e+02	-17.2824	-67.557429	0.000284	2.838612	0.961748	0.000114
1576	1.5671e+02	-17.2487	-67.521095	0.000091	0.912411	0.309133	0.000037
1577	1.5681e+02	-17.2150	-67.399981	0.000304	3.041370	1.030444	0.000122
1578	1.5691e+02	-17.1749	-67.311164	0.000223	2.230338	0.755659	0.000089
1579	1.5701e+02	-17.1300	-67.222347	0.000223	2.230338	0.755659	0.000089
1580	1.5711e+02	-17.0851	-67.129493	0.000233	2.331717	0.790007	0.000093
1581	1.5721e+02	-17.0450	-66.963970	0.000416	4.156540	1.408274	0.000166
1582	1.5731e+02	-17.0049	-66.927636	0.000091	0.912411	0.309133	0.000037
1583	1.5741e+02	-16.9632	-66.786337	0.000355	3.548266	1.202185	0.000142
1584	1.5751e+02	-16.9231	-66.762114	0.000061	0.608274	0.206089	0.000024
1585	1.5761e+02	-16.8846	-66.628888	0.000335	3.345508	1.133489	0.000134
1586	1.5771e+02	-16.8460	-66.588517	0.000101	1.013790	0.343481	0.000041
1587	1.5781e+02	-16.8124	-66.479514	0.000274	2.737233	0.927400	0.000110
1588	1.5791e+02	-16.7755	-66.410883	0.000172	1.723443	0.583918	0.000069
1589	1.5801e+02	-16.7273	-66.297843	0.000284	2.838612	0.961748	0.000114
1590	1.5811e+02	-16.6888	-66.221138	0.000193	1.926201	0.652615	0.000077
1591	1.5821e+02	-16.6471	-66.124246	0.000243	2.433096	0.824355	0.000097
1592	1.5830e+02	-16.6070	-66.051578	0.000182	1.824822	0.618267	0.000073
1593	1.5840e+02	-16.5685	-65.934501	0.000294	2.939991	0.996096	0.000118
1594	1.5850e+02	-16.5332	-65.821461	0.000284	2.838612	0.961748	0.000114
1595	1.5860e+02	-16.4963	-65.748793	0.000182	1.824822	0.618267	0.000073
1596	1.5870e+02	-16.4466	-65.631716	0.000294	2.939991	0.996096	0.000118
1597	1.5880e+02	-16.4161	-65.482342	0.000375	3.751024	1.270881	0.000150
1598	1.5890e+02	-16.3696	-65.437933	0.000112	1.115169	0.377830	0.000045
1599	1.5900e+02	-16.3263	-65.272411	0.000416	4.156540	1.408274	0.000166
1600	1.5910e+02	-16.3022	-65.215891	0.000142	1.419306	0.480874	0.000057
1601	1.5920e+02	-16.2493	-65.090740	0.000314	3.142749	1.064792	0.000126
1602	1.5930e+02	-16.2060	-65.001923	0.000223	2.230338	0.755659	0.000089
1603	1.5940e+02	-16.1723	-64.965588	0.000091	0.912411	0.309133	0.000037
1604	1.5950e+02	-16.1257	-64.836400	0.000324	3.244129	1.099140	0.000130
1605	1.5960e+02	-16.0856	-64.763732	0.000182	1.824822	0.618267	0.000073
1606	1.5970e+02	-16.0471	-64.666840	0.000243	2.433096	0.824355	0.000097
1607	1.5980e+02	-16.0151	-64.586098	0.000203	2.027580	0.686963	0.000081
1608	1.5990e+02	-15.9733	-64.473058	0.000284	2.838612	0.961748	0.000114
1609	1.6000e+02	-15.9268	-64.408464	0.000162	1.622064	0.549570	0.000065
1610	1.6010e+02	-15.8963	-64.299461	0.000274	2.737233	0.927400	0.000110
1611	1.6019e+02	-15.8594	-64.198533	0.000253	2.534475	0.858704	0.000101
1612	1.6029e+02	-15.8097	-64.081456	0.000294	2.939991	0.996096	0.000118
1613	1.6039e+02	-15.7728	-63.972453	0.000274	2.737233	0.927400	0.000110
1614	1.6049e+02	-15.7359	-63.915933	0.000142	1.419306	0.480874	0.000057
1615	1.6059e+02	-15.6942	-63.778670	0.000345	3.446887	1.167837	0.000138
1616	1.6069e+02	-15.6605	-63.673705	0.000264	2.635854	0.893052	0.000105
1617	1.6079e+02	-15.6076	-63.572776	0.000253	2.534475	0.858704	0.000101
1618	1.6089e+02	-15.5755	-63.463774	0.000274	2.737233	0.927400	0.000110
1619	1.6099e+02	-15.5306	-63.330548	0.000335	3.345508	1.133489	0.000134
1620	1.6109e+02	-15.4873	-63.237694	0.000233	2.331717	0.790007	0.000093
1621	1.6119e+02	-15.4520	-63.156951	0.000203	2.027580	0.686963	0.000081
1622	1.6129e+02	-15.4151	-63.088320	0.000172	1.723443	0.583918	0.000069
1623	1.6139e+02	-15.3782	-62.983355	0.000264	2.635854	0.893052	0.000105
1624	1.6149e+02	-15.3381	-62.934909	0.000122	1.216548	0.412178	0.000049
1625	1.6159e+02	-15.2948	-62.801684	0.000335	3.345508	1.133489	0.000134
1626	1.6169e+02	-15.2546	-62.724978	0.000193	1.926201	0.652615	0.000077
1627	1.6179e+02	-15.2113	-62.636161	0.000223	2.230338	0.755659	0.000089
1628	1.6189e+02	-15.1744	-62.506973	0.000324	3.244129	1.099140	0.000130
1629	1.6199e+02	-15.1391	-62.406044	0.000253	2.534475	0.858704	0.000101
1630	1.6209e+02	-15.1006	-62.276856	0.000324	3.244129	1.099140	0.000130
1631	1.6219e+02	-15.0573	-62.204187	0.000182	1.824822	0.618267	0.000073
1632	1.6228e+02	-15.0220	-62.074999	0.000324	3.244129	1.099140	0.000130
1633	1.6238e+02	-14.9755	-62.010405	0.000162	1.622064	0.549570	0.000065
1634	1.6248e+02	-14.9338	-61.873142	0.000345	3.446887	1.167837	0.000138
1635	1.6258e+02	-14.8985	-61.739917	0.000335	3.345508	1.133489	0.000134
1636	1.6268e+02	-14.8568	-61.622840	0.000294	2.939991	0.996096	0.000118
1637	1.6278e+02	-14.8199	-61.529986	0.000233	2.331717	0.790007	0.000093
1638	1.6288e+02	-14.7782	-61.441169	0.000223	2.230338	0.755659	0.000089
1639	1.6298e+02	-14.7365	-61.320055	0.000304	3.041370	1.030444	0.000122
1640	1.6308e+02	-14.6916	-61.263535	0.000142	1.419306	0.480874	0.000057
1641	1.6318e+02	-14.6595	-61.138384	0.000314	3.142749	1.064792	0.000126
1642	1.6328e+02	-14.6178	-61.037455	0.000253	2.534475	0.858704	0.000101
1643	1.6338e+02	-14.5729	-60.956713	0.000203	2.027580	0.686963	0.000081
1644	1.6348e+02	-14.5343	-60.855784	0.000253	2.534475	0.858704	0.000101
1645	1.6358e+02	-14.5007	-60.787153	0.000172	1.723443	0.583918	0.000069
1646	1.6368e+02	-14.4557	-60.670076	0.000294	2.939991	0.996096	0.000118
1647	1.6378e+02	-14.4221	-60.589333	0.000203	2.027580	0.686963	0.000081
1648	1.6388e+02	-14.3836	-60.488405	0.000253	2.534475	0.858704	0.000101
1649	1.6398e+02	-14.3418	-60.359216	0.000324	3.244129	1.099140	0.000130
1650	1.6408e+02	-14.2921	-60.242139	0.000294	2.939991	0.996096	0.000118
1651	1.6418e+02	-14.2616	-60.153322	0.000223	2.230338	0.755659	0.000089
1652	1.6427e+02	-14.2183	-60.052394	0.000253	2.534475	0.858704	0.000101
1653	1.6437e+02	-14.1814	-59.943391	0.000274	2.737233	0.927400	0.000110
1654	1.6447e+02	-14.1397	-59.794017	0.000375	3.751024	1.270881	0.000150
1655	1.6457e+02	-14.1076	-59.672903	0.000304	3.041370	1.030444	0.000122
1656	1.6467e+02	-14.0627	-59.576012	0.000243	2.433096	0.824355	0.000097
1657	1.6477e+02	-14.0130	-59.491232	0.000213	2.128959	0.721311	0.000085
1658	1.6487e+02	-13.9681	-59.406452	0.000213	2.128959	0.721311	0.000085
1659	1.6497e+02	-13.9440	-59.301487	0.000264	2.635854	0.893052	0.000105
1660	1.6507e+02	-13.8959	-59.208633	0.000233	2.331717	0.790007	0.000093
1661	1.6517e+02	-13.8606	-59.123853	0.000213	2.128959	0.721311	0.000085
1662	1.6527e+02	-13.8189	-58.990627	0.000335	3.345508	1.133489	0.000134
1663	1.6537e+02	-13.7788	-58.901810	0.000223	2.230338	0.755659	0.000089
1664	1.6547e+02	-13.7370	-58.776659	0.000314	3.142749	1.064792	0.000126
1665	1.6557e+02	-13.6905	-58.691879	0.000213	2.128959	0.721311	0.000085
1666	1.6567e+02	-13.6633	-58.562691	0.000324	3.244129	1.099140	0.000130
1667	1.6577e+02	-13.6199	-58.502134	0.000152	1.520685	0.515222	0.000061
1668	1.6587e+02	-13.5814	-58.389094	0.000284	2.838612	0.961748	0.000114
1669	1.6597e+02	-13.5413	-58.296240	0.000233	2.331717	0.790007	0.000093
1670	1.6607e+02	-13.5060	-58.203386	0.000233	2.331717	0.790007	0.000093
1671	1.6616e+02	-13.4643	-58.066123	0.000345	3.446887	1.167837	0.000138
1672	1.6626e+02	-13.4210	-57.896564	0.000426	4.257919	1.442622	0.000170
1673	1.6636e+02	-13.3937	-57.795635	0.000253	2.534475	0.858704	0.000101
1674	1.6646e+02	-13.3376	-57.698744	0.000243	2.433096	0.824355	0.000097
1675	1.6656e+02	-13.2991	-57.601853	0.000243	2.433096	0.824355	0.000097
1676	1.6666e+02	-13.2526	-57.496887	0.000264	2.635854	0.893052	0.000105
1677	1.6676e+02	-13.2141	-57.464590	0.000081	0.811032	0.274785	0.000032
1678	1.6686e+02	-13.1836	-57.363662	0.000253	2.534475	0.858704	0.000101
1679	1.6696e+02	-13.1387	-57.242548	0.000304	3.041370	1.030444	0.000122
1680	1.6706e+02	-13.1066	-57.145656	0.000243	2.433096	0.824355	0.000097
1681	1.6716e+02	-13.0601	-57.064914	0.000203	2.027580	0.686963	0.000081
1682	1.6726e+02	-13.0248	-56.907465	0.000395	3.953782	1.339577	0.000158
1683	1.6736e+02	-12.9943	-56.802500	0.000264	2.635854	0.893052	0.000105
1684	1.6746e+02	-12.9349	-56.721757	0.000203	2.027580	0.686963	0.000081
1685	1.6756e+02	-12.8996	-56.612754	0.000274	2.737233	0.927400	0.000110
1686	1.6766e+02	-12.8659	-56.463380	0.000375	3.751024	1.270881	0.000150
1687	1.6776e+02	-12.8226	-56.374563	0.000223	2.230338	0.755659	0.000089
1688	1.6786e+02	-12.7857	-56.277672	0.000243	2.433096	0.824355	0.000097
1689	1.6796e+02	-12.7376	-56.132335	0.000365	3.649645	1.236533	0.000146
1690	1.6806e+02	-12.7007	-56.047555	0.000213	2.128959	0.721311	0.000085
1691	1.6816e+02	-12.6606	-55.914330	0.000335	3.345508	1.133489	0.000134
1692	1.6825e+02	-12.6205	-55.764956	0.000375	3.751024	1.270881	0.000150
1693	1.6835e+02	-12.5852	-55.672102	0.000233	2.331717	0.790007	0.000093
1694	1.6845e+02	-12.5451	-55.607508	0.000162	1.622064	0.549570	0.000065
1695	1.6855e+02	-12.5082	-55.526765	0.000203	2.027580	0.686963	0.000081
1696	1.6865e+02	-12.4681	-55.393539	0.000335	3.345508	1.133489	0.000134
1697	1.6875e+02	-12.4376	-55.304722	0.000223	2.230338	0.755659	0.000089
1698	1.6885e+02	-12.3895	-55.159386	0.000365	3.649645	1.236533	0.000146
1699	1.6895e+02	-12.3430	-55.046346	0.000284	2.838612	0.961748	0.000114
1700	1.6905e+02	-12.3045	-54.949455	0.000243	2.433096	0.824355	0.000097
1701	1.6915e+02	-12.2756	-54.864675	0.000213	2.128959	0.721311	0.000085
1702	1.6925e+02	-12.2178	-54.731449	0.000335	3.345508	1.133489	0.000134
1703	1.6935e+02	-12.1890	-54.594187	0.000345	3.446887	1.167837	0.000138
1704	1.6945e+02	-12.1505	-54.481147	0.000284	2.838612	0.961748	0.000114
1705	1.6955e+02	-12.1087	-54.380218	0.000253	2.534475	0.858704	0.000101
1706	1.6965e+02	-12.0815	-54.275253	0.000264	2.635854	0.893052	0.000105
1707	1.6975e+02	-12.0285	-54.150102	0.000314	3.142749	1.064792	0.000126
1708	1.6985e+02	-11.9965	-53.996690	0.000385	3.852403	1.305229	0.000154
1709	1.6995e+02	-11.9580	-53.863465	0.000335	3.345508	1.133489	0.000134
1710	1.7005e+02	-11.9082	-53.758499	0.000264	2.635854	0.893052	0.000105
1711	1.7015e+02	-11.8665	-53.697942	0.000152	1.520685	0.515222	0.000061
1712	1.7024e+02	-11.8216	-53.568754	0.000324	3.244129	1.099140	0.000130
1713	1.7034e+02	-11.7879	-53.475900	0.000233	2.331717	0.790007	0.000093
1714	1.7044e+02	-11.7510	-53.358823	0.000294	2.939991	0.996096	0.000118
1715	1.7054e+02	-11.7093	-53.294229	0.000162	1.622064	0.549570	0.000065
1716	1.7064e+02	-11.6660	-53.120632	0.000436	4.359298	1.476970	0.000174
1717	1.7074e+02	-11.6291	-53.056038	0.000162	1.622064	0.549570	0.000065
1718	1.7084e+02	-11.5826	-52.910701	0.000365	3.649645	1.236533	0.000146
1719	1.7094e+02	-11.5457	-52.805735	0.000264	2.635854	0.893052	0.000105
1720	1.7104e+02	-11.5136	-52.688659	0.000294	2.939991	0.996096	0.000118
1721	1.7114e+02	-11.4815	-52.567544	0.000304	3.041370	1.030444	0.000122
1722	1.7124e+02	-11.4366	-52.490839	0.000193	1.926201	0.652615	0.000077
1723	1.7134e+02	-11.3933	-52.333391	0.000395	3.953782	1.339577	0.000158
1724	1.7144e+02	-11.3435	-52.216314	0.000294	2.939991	0.996096	0.000118
1725	1.7154e+02	-11.3098	-52.095200	0.000304	3.041370	1.030444	0.000122
1726	1.7164e+02	-11.2745	-51.978123	0.000294	2.939991	0.996096	0.000118
1727	1.7174e+02	-11.2296	-51.808563	0.000426	4.257919	1.442622	0.000170
1728	1.7184e+02	-11.1879	-51.739932	0.000172	1.723443	0.583918	0.000069
1729	1.7194e+02	-11.1478	-51.610743	0.000324	3.244129	1.099140	0.000130
1730	1.7204e+02	-11.1093	-51.497703	0.000284	2.838612	0.961748	0.000114
1731	1.7213e+02	-11.0708	-51.372552	0.000314	3.142749	1.064792	0.000126
1732	1.7223e+02	-11.0211	-51.299884	0.000182	1.824822	0.618267	0.000073
1733	1.7233e+02	-10.9954	-51.170695	0.000324	3.244129	1.099140	0.000130
1734	1.7243e+02	-10.9521	-51.065730	0.000264	2.635854	0.893052	0.000105
1735	1.7253e+02	-10.9232	-50.912319	0.000385	3.852403	1.305229	0.000154
1736	1.7263e+02	-10.8735	-50.831576	0.000203	2.027580	0.686963	0.000081
1737	1.7273e+02	-10.8286	-50.670091	0.000406	4.055161	1.373926	0.000162
1738	1.7283e+02	-10.7933	-50.565125	0.000264	2.635854	0.893052	0.000105
1739	1.7293e+02	-10.7532	-50.444011	0.000304	3.041370	1.030444	0.000122
1740	1.7303e+02	-10.7115	-50.314823	0.000324	3.244129	1.099140	0.000130
1741	1.7313e+02	-10.6794	-50.226006	0.000223	2.230338	0.755659	0.000089
1742	1.7323e+02	-10.6393	-50.052409	0.000436	4.359298	1.476970	0.000174
1743	1.7333e+02	-10.5960	-49.967629	0.000213	2.128959	0.721311	0.000085
1744	1.7343e+02	-10.5575	-49.826329	0.000355	3.548266	1.202185	0.000142
1745	1.7353e+02	-10.5077	-49.636584	0.000476	4.764814	1.614363	0.000191
1746	1.7363e+02	-10.4740	-49.555841	0.000203	2.027580	0.686963	0.000081
1747	1.7373e+02	-10.4275	-49.487210	0.000172	1.723443	0.583918	0.000069
1748	1.7383e+02	-10.3922	-49.325724	0.000406	4.055161	1.373926	0.000162
1749	1.7393e+02	-10.3505	-49.208648	0.000294	2.939991	0.996096	0.000118
1750	1.7403e+02	-10.3088	-49.051199	0.000395	3.953782	1.339577	0.000158
1751	1.7413e+02	-10.2783	-48.950271	0.000253	2.534475	0.858704	0.000101
1752	1.7422e+02	-10.2414	-48.865491	0.000213	2.128959	0.721311	0.000085
1753	1.7432e+02	-10.1869	-48.720154	0.000365	3.649645	1.236533	0.000146
1754	1.7442e+02	-10.1516	-48.582891	0.000345	3.446887	1.167837	0.000138
1755	1.7452e+02	-10.1163	-48.453703	0.000324	3.244129	1.099140	0.000130
1756	1.7462e+02	-10.0714	-48.332589	0.000304	3.041370	1.030444	0.000122
1757	1.7472e+02	-10.0345	-48.207438	0.000314	3.142749	1.064792	0.000126
1758	1.7482e+02	-9.9976	-48.102472	0.000264	2.635854	0.893052	0.000105
1759	1.7492e+02	-9.9575	-47.904653	0.000497	4.967572	1.683059	0.000199
1760	1.7502e+02	-9.9270	-47.844096	0.000152	1.520685	0.515222	0.000061
1761	1.7512e+02	-9.8805	-47.682610	0.000406	4.055161	1.373926	0.000162
1762	1.7522e+02	-9.8388	-47.561496	0.000304	3.041370	1.030444	0.000122
1763	1.7532e+02	-9.7987	-47.428271	0.000335	3.345508	1.133489	0.000134
1764	1.7542e+02	-9.7505	-47.270822	0.000395	3.953782	1.339577	0.000158
1765	1.7552e+02	-9.7120	-47.202191	0.000172	1.723443	0.583918	0.000069
1766	1.7562e+02	-9.6767	-47.081077	0.000304	3.041370	1.030444	0.000122
1767	1.7572e+02	-9.6366	-46.903443	0.000446	4.460677	1.511318	0.000179
1768	1.7582e+02	-9.5965	-46.818663	0.000213	2.128959	0.721311	0.000085
1769	1.7592e+02	-9.5564	-46.636992	0.000456	4.562056	1.545666	0.000183
1770	1.7602e+02	-9.5147	-46.511841	0.000314	3.142749	1.064792	0.000126
1771	1.7612e+02	-9.4778	-46.414950	0.000243	2.433096	0.824355	0.000097
1772	1.7621e+02	-9.4457	-46.285761	0.000324	3.244129	1.099140	0.000130
1773	1.7631e+02	-9.3912	-46.192907	0.000233	2.331717	0.790007	0.000093
1774	1.7641e+02	-9.3511	-46.055644	0.000345	3.446887	1.167837	0.000138
1775	1.7651e+02	-9.3238	-45.886085	0.000426	4.257919	1.442622	0.000170
1776	1.7661e+02	-9.2837	-45.769008	0.000294	2.939991	0.996096	0.000118
1777	1.7671e+02	-9.2388	-45.635782	0.000335	3.345508	1.133489	0.000134
1778	1.7681e+02	-9.2035	-45.506594	0.000324	3.244129	1.099140	0.000130
1779	1.7691e+02	-9.1554	-45.417777	0.000223	2.230338	0.755659	0.000089
1780	1.7701e+02	-9.1169	-45.264366	0.000385	3.852403	1.305229	0.000154
1781	1.7711e+02	-9.0751	-45.102880	0.000406	4.055161	1.373926	0.000162
1782	1.7721e+02	-9.0479	-45.001952	0.000253	2.534475	0.858704	0.000101
1783	1.7731e+02	-9.0030	-44.852578	0.000375	3.751024	1.270881	0.000150
1784	1.7741e+02	-8.9516	-44.699167	0.000385	3.852403	1.305229	0.000154
1785	1.7751e+02	-8.9179	-44.582090	0.000294	2.939991	0.996096	0.000118
1786	1.7761e+02	-8.8778	-44.477124	0.000264	2.635854	0.893052	0.000105
1787	1.7771e+02	-8.8409	-44.291416	0.000466	4.663435	1.580014	0.000187
1788	1.7781e+02	-8.7944	-44.182414	0.000274	2.737233	0.927400	0.000110
1789	1.7791e+02	-8.7543	-44.061299	0.000304	3.041370	1.030444	0.000122
1790	1.7801e+02	-8.7222	-43.956334	0.000264	2.635854	0.893052	0.000105
1791	1.7810e+02	-8.6821	-43.815034	0.000355	3.548266	1.202185	0.000142
1792	1.7820e+02	-8.6404	-43.710069	0.000264	2.635854	0.893052	0.000105
1793	1.7830e+02	-8.6019	-43.544546	0.000416	4.156540	1.408274	0.000166
1794	1.7840e+02	-8.5682	-43.399209	0.000365	3.649645	1.236533	0.000146
1795	1.7850e+02	-8.5297	-43.257909	0.000355	3.548266	1.202185	0.000142
1796	1.7860e+02	-8.4816	-43.185241	0.000182	1.824822	0.618267	0.000073
1797	1.7870e+02	-8.4415	-43.003570	0.000456	4.562056	1.545666	0.000183
1798	1.7880e+02	-8.4062	-42.910716	0.000233	2.331717	0.790007	0.000093
1799	1.7890e+02	-8.3581	-42.688673	0.000558	5.575846	1.889148	0.000223
1800	1.7900e+02	-8.3163	-42.587745	0.000253	2.534475	0.858704	0.000101
1801	1.7910e+02	-8.2843	-42.470668	0.000294	2.939991	0.996096	0.000118
1802	1.7920e+02	-8.2409	-42.325331	0.000365	3.649645	1.236533	0.000146
1803	1.7930e+02	-8.1960	-42.196143	0.000324	3.244129	1.099140	0.000130
1804	1.7940e+02	-8.1575	-42.107326	0.000223	2.230338	0.755659	0.000089
1805	1.7950e+02	-8.1222	-41.905469	0.000507	5.068951	1.717407	0.000203
1806	1.7960e+02	-8.0805	-41.816652	0.000223	2.230338	0.755659	0.000089
1807	1.7970e+02	-8.0388	-41.651129	0.000416	4.156540	1.408274	0.000166
1808	1.7980e+02	-8.0003	-41.505793	0.000365	3.649645	1.236533	0.000146
1809	1.7990e+02	-7.9602	-41.364493	0.000355	3.548266	1.202185	0.000142
1810	1.8000e+02	-7.9249	-41.247416	0.000294	2.939991	0.996096	0.000118
1811	1.8009e+02	-7.8800	-41.094005	0.000385	3.852403	1.305229	0.000154
1812	1.8019e+02	-7.8559	-40.916371	0.000446	4.460677	1.511318	0.000179
1813	1.8029e+02	-7.8062	-40.831591	0.000213	2.128959	0.721311	0.000085
1814	1.8039e+02	-7.7693	-40.698365	0.000335	3.345508	1.133489	0.000134
1815	1.8049e+02	-7.7372	-40.524769	0.000436	4.359298	1.476970	0.000174
1816	1.8059e+02	-7.6987	-40.383469	0.000355	3.548266	1.202185	0.000142
1817	1.8069e+02	-7.6490	-40.274466	0.000274	2.737233	0.927400	0.000110
1818	1.8079e+02	-7.5993	-40.108944	0.000416	4.156540	1.408274	0.000166
1819	1.8089e+02	-7.5591	-39.991867	0.000294	2.939991	0.996096	0.000118
1820	1.8099e+02	-7.5287	-39.874790	0.000294	2.939991	0.996096	0.000118
1821	1.8109e+02	-7.4805	-39.757713	0.000294	2.939991	0.996096	0.000118
1822	1.8119e+02	-7.4420	-39.584116	0.000436	4.359298	1.476970	0.000174
1823	1.8129e+02	-7.4132	-39.475113	0.000274	2.737233	0.927400	0.000110
1824	1.8139e+02	-7.3666	-39.325739	0.000375	3.751024	1.270881	0.000150
1825	1.8149e+02	-7.3217	-39.160217	0.000416	4.156540	1.408274	0.000166
1826	1.8159e+02	-7.2864	-39.039103	0.000304	3.041370	1.030444	0.000122
1827	1.8169e+02	-7.2399	-38.885691	0.000385	3.852403	1.305229	0.000154
1828	1.8179e+02	-7.1950	-38.780726	0.000264	2.635854	0.893052	0.000105
1829	1.8189e+02	-7.1677	-38.603092	0.000446	4.460677	1.511318	0.000179
1830	1.8199e+02	-7.1244	-38.506201	0.000243	2.433096	0.824355	0.000097
1831	1.8209e+02	-7.0875	-38.328567	0.000446	4.460677	1.511318	0.000179
1832	1.8218e+02	-7.0458	-38.191304	0.000345	3.446887	1.167837	0.000138
1833	1.8228e+02	-7.0089	-38.029819	0.000406	4.055161	1.373926	0.000162
1834	1.8238e+02	-6.9624	-37.920816	0.000274	2.737233	0.927400	0.000110
1835	1.8248e+02	-6.9255	-37.807776	0.000284	2.838612	0.961748	0.000114
1836	1.8258e+02	-6.8854	-37.658402	0.000375	3.751024	1.270881	0.000150
1837	1.8268e+02	-6.8437	-37.496917	0.000406	4.055161	1.373926	0.000162
1838	1.8278e+02	-6.8052	-37.351580	0.000365	3.649645	1.236533	0.000146
1839	1.8288e+02	-6.7667	-37.202206	0.000375	3.751024	1.270881	0.000150
1840	1.8298e+02	-6.7249	-37.073017	0.000324	3.244129	1.099140	0.000130
1841	1.8308e+02	-6.6816	-36.939792	0.000335	3.345508	1.133489	0.000134
1842	1.8318e+02	-6.6463	-36.794455	0.000365	3.649645	1.236533	0.000146
1843	1.8328e+02	-6.6126	-36.685452	0.000274	2.737233	0.927400	0.000110
1844	1.8338e+02	-6.5725	-36.495707	0.000476	4.764814	1.614363	0.000191
1845	1.8348e+02	-6.5276	-36.366519	0.000324	3.244129	1.099140	0.000130
1846	1.8358e+02	-6.4859	-36.245405	0.000304	3.041370	1.030444	0.000122
1847	1.8368e+02	-6.4522	-36.096031	0.000375	3.751024	1.270881	0.000150
1848	1.8378e+02	-6.4169	-35.930508	0.000416	4.156540	1.408274	0.000166
1849	1.8388e+02	-6.3800	-35.801320	0.000324	3.244129	1.099140	0.000130
1850	1.8398e+02	-6.3431	-35.651946	0.000375	3.751024	1.270881	0.000150
1851	1.8407e+02	-6.3046	-35.494497	0.000395	3.953782	1.339577	0.000158
1852	1.8417e+02	-6.2597	-35.373383	0.000304	3.041370	1.030444	0.000122
1853	1.8427e+02	-6.2164	-35.224009	0.000375	3.751024	1.270881	0.000150
1854	1.8437e+02	-6.1747	-35.094821	0.000324	3.244129	1.099140	0.000130
1855	1.8447e+02	-6.1410	-34.917187	0.000446	4.460677	1.511318	0.000179
1856	1.8457e+02	-6.0993	-34.759739	0.000395	3.953782	1.339577	0.000158
1857	1.8467e+02	-6.0512	-34.614402	0.000365	3.649645	1.236533	0.000146
1858	1.8477e+02	-6.0143	-34.477139	0.000345	3.446887	1.167837	0.000138
1859	1.8487e+02	-5.9758	-34.331802	0.000365	3.649645	1.236533	0.000146
1860	1.8497e+02	-5.9308	-34.162243	0.000426	4.257919	1.442622	0.000170
1861	1.8507e+02	-5.8907	-34.029017	0.000335	3.345508	1.133489	0.000134
1862	1.8517e+02	-5.8458	-33.891755	0.000345	3.446887	1.167837	0.000138
1863	1.8527e+02	-5.8218	-33.738343	0.000385	3.852403	1.305229	0.000154
1864	1.8537e+02	-5.7656	-33.609155	0.000324	3.244129	1.099140	0.000130
1865	1.8547e+02	-5.7319	-33.415373	0.000487	4.866193	1.648711	0.000195
1866	1.8557e+02	-5.6918	-33.286184	0.000324	3.244129	1.099140	0.000130
1867	1.8567e+02	-5.6662	-33.144884	0.000355	3.548266	1.202185	0.000142
1868	1.8577e+02	-5.6116	-32.983399	0.000406	4.055161	1.373926	0.000162
1869	1.8587e+02	-5.5795	-32.821914	0.000406	4.055161	1.373926	0.000162
1870	1.8597e+02	-5.5346	-32.712911	0.000274	2.737233	0.927400	0.000110
1871	1.8606e+02	-5.4881	-32.527203	0.000466	4.663435	1.580014	0.000187
1872	1.8616e+02	-5.4544	-32.381866	0.000365	3.649645	1.236533	0.000146
1873	1.8626e+02	-5.4143	-32.252677	0.000324	3.244129	1.099140	0.000130
1874	1.8636e+02	-5.3710	-32.103303	0.000375	3.751024	1.270881	0.000150
1875	1.8646e+02	-5.3325	-31.917595	0.000466	4.663435	1.580014	0.000187
1876	1.8656e+02	-5.2940	-31.752073	0.000416	4.156540	1.408274	0.000166
1877	1.8666e+02	-5.2571	-31.618847	0.000335	3.345508	1.133489	0.000134
1878	1.8676e+02	-5.2250	-31.469473	0.000375	3.751024	1.270881	0.000150
1879	1.8686e+02	-5.1801	-31.328173	0.000355	3.548266	1.202185	0.000142
1880	1.8696e+02	-5.1384	-31.146502	0.000456	4.562056	1.545666	0.000183
1881	1.8706e+02	-5.0983	-31.009240	0.000345	3.446887	1.167837	0.000138
1882	1.8716e+02	-5.0678	-30.851791	0.000395	3.953782	1.339577	0.000158
1883	1.8726e+02	-5.0164	-30.674157	0.000446	4.460677	1.511318	0.000179
1884	1.8736e+02	-4.9811	-30.553043	0.000304	3.041370	1.030444	0.000122
1885	1.8746e+02	-4.9491	-30.371372	0.000456	4.562056	1.545666	0.000183
1886	1.8756e+02	-4.9025	-30.258332	0.000284	2.838612	0.961748	0.000114
1887	1.8766e+02	-4.8576	-30.056476	0.000507	5.068951	1.717407	0.000203
1888	1.8776e+02	-4.8175	-29.915176	0.000355	3.548266	1.202185	0.000142
1889	1.8786e+02	-4.7758	-29.773876	0.000355	3.548266	1.202185	0.000142
1890	1.8796e+02	-4.7389	-29.620465	0.000385	3.852403	1.305229	0.000154
1891	1.8806e+02	-4.7036	-29.467054	0.000385	3.852403	1.305229	0.000154
1892	1.8815e+02	-4.6507	-29.301531	0.000416	4.156540	1.408274	0.000166
1893	1.8825e+02	-4.6186	-29.131971	0.000426	4.257919	1.442622	0.000170
1894	1.8835e+02	-4.5833	-28.962412	0.000426	4.257919	1.442622	0.000170
1895	1.8845e+02	-4.5384	-28.788815	0.000436	4.359298	1.476970	0.000174
1896	1.8855e+02	-4.4919	-28.639441	0.000375	3.751024	1.270881	0.000150
1897	1.8865e+02	-4.4582	-28.449696	0.000476	4.764814	1.614363	0.000191
1898	1.8875e+02	-4.4245	-28.316470	0.000335	3.345508	1.133489	0.000134
1899	1.8885e+02	-4.3747	-28.146910	0.000426	4.257919	1.442622	0.000170
1900	1.8895e+02	-4.3346	-28.001573	0.000365	3.649645	1.236533	0.000146
1901	1.8905e+02	-4.3009	-27.823940	0.000446	4.460677	1.511318	0.000179
1902	1.8915e+02	-4.2560	-27.630157	0.000487	4.866193	1.648711	0.000195
1903	1.8925e+02	-4.2111	-27.472709	0.000395	3.953782	1.339577	0.000158
1904	1.8935e+02	-4.1822	-27.323335	0.000375	3.751024	1.270881	0.000150
1905	1.8945e+02	-4.1373	-27.214332	0.000274	2.737233	0.927400	0.000110
1906	1.8955e+02	-4.1068	-26.988252	0.000568	5.677225	1.923496	0.000227
1907	1.8965e+02	-4.0571	-26.850990	0.000345	3.446887	1.167837	0.000138
1908	1.8975e+02	-4.0250	-26.733913	0.000294	2.939991	0.996096	0.000118
1909	1.8985e+02	-3.9897	-26.560316	0.000436	4.359298	1.476970	0.000174
1910	1.8995e+02	-3.9288	-26.398831	0.000406	4.055161	1.373926	0.000162
1911	1.9004e+02	-3.8983	-26.180825	0.000547	5.474467	1.854800	0.000219
1912	1.9014e+02	-3.8598	-26.003191	0.000446	4.460677	1.511318	0.000179
1913	1.9024e+02	-3.8261	-25.813446	0.000476	4.764814	1.614363	0.000191
1914	1.9034e+02	-3.7892	-25.664072	0.000375	3.751024	1.270881	0.000150
1915	1.9044e+02	-3.7475	-25.466252	0.000497	4.967572	1.683059	0.000199
1916	1.9054e+02	-3.6945	-25.292655	0.000436	4.359298	1.476970	0.000174
1917	1.9064e+02	-3.6673	-25.131170	0.000406	4.055161	1.373926	0.000162
1918	1.9074e+02	-3.6288	-24.961610	0.000426	4.257919	1.442622	0.000170
1919	1.9084e+02	-3.5806	-24.796088	0.000416	4.156540	1.408274	0.000166
1920	1.9094e+02	-3.5421	-24.618454	0.000446	4.460677	1.511318	0.000179
1921	1.9104e+02	-3.5069	-24.448894	0.000426	4.257919	1.442622	0.000170
1922	1.9114e+02	-3.4619	-24.315669	0.000335	3.345508	1.133489	0.000134
1923	1.9124e+02	-3.4218	-24.133997	0.000456	4.562056	1.545666	0.000183
1924	1.9134e+02	-3.3753	-23.952326	0.000456	4.562056	1.545666	0.000183
1925	1.9144e+02	-3.3432	-23.790841	0.000406	4.055161	1.373926	0.000162
1926	1.9154e+02	-3.3063	-23.653578	0.000345	3.446887	1.167837	0.000138
1927	1.9164e+02	-3.2678	-23.467870	0.000466	4.663435	1.580014	0.000187
1928	1.9174e+02	-3.2213	-23.310422	0.000395	3.953782	1.339577	0.000158
1929	1.9184e+02	-3.1860	-23.076268	0.000588	5.879983	1.992192	0.000235
1930	1.9194e+02	-3.1491	-22.894597	0.000456	4.562056	1.545666	0.000183
1931	1.9203e+02	-3.1122	-22.704851	0.000476	4.764814	1.614363	0.000191
1932	1.9213e+02	-3.0609	-22.515106	0.000476	4.764814	1.614363	0.000191
1933	1.9223e+02	-3.0272	-22.402066	0.000284	2.838612	0.961748	0.000114
1934	1.9233e+02	-2.9807	-22.184061	0.000547	5.474467	1.854800	0.000219
1935	1.9243e+02	-2.9486	-22.062947	0.000304	3.041370	1.030444	0.000122
1936	1.9253e+02	-2.9165	-21.861090	0.000507	5.068951	1.717407	0.000203
1937	1.9263e+02	-2.8620	-21.643085	0.000547	5.474467	1.854800	0.000219
1938	1.9273e+02	-2.8299	-21.497748	0.000365	3.649645	1.236533	0.000146
1939	1.9283e+02	-2.7882	-21.336262	0.000406	4.055161	1.373926	0.000162
1940	1.9293e+02	-2.7497	-21.162666	0.000436	4.359298	1.476970	0.000174
1941	1.9303e+02	-2.7015	-20.976957	0.000466	4.663435	1.580014	0.000187
1942	1.9313e+02	-2.6678	-20.783175	0.000487	4.866193	1.648711	0.000195
1943	1.9323e+02	-2.6293	-20.678209	0.000264	2.635854	0.893052	0.000105
1944	1.9333e+02	-2.5876	-20.464241	0.000537	5.373088	1.820451	0.000215
1945	1.9343e+02	-2.5443	-20.310830	0.000385	3.852403	1.305229	0.000154
1946	1.9353e+02	-2.5090	-20.141270	0.000426	4.257919	1.442622	0.000170
1947	1.9363e+02	-2.4657	-19.947488	0.000487	4.866193	1.648711	0.000195
1948	1.9373e+02	-2.4304	-19.749668	0.000497	4.967572	1.683059	0.000199
1949	1.9383e+02	-2.3887	-19.523588	0.000568	5.677225	1.923496	0.000227
1950	1.9393e+02	-2.3566	-19.358066	0.000416	4.156540	1.408274	0.000166
1951	1.9403e+02	-2.3037	-19.164283	0.000487	4.866193	1.648711	0.000195
1952	1.9412e+02	-2.2636	-19.014909	0.000375	3.751024	1.270881	0.000150
1953	1.9422e+02	-2.2235	-18.804978	0.000527	5.271709	1.786103	0.000211
1954	1.9432e+02	-2.1882	-18.647530	0.000395	3.953782	1.339577	0.000158
1955	1.9442e+02	-2.1513	-18.469896	0.000446	4.460677	1.511318	0.000179
1956	1.9452e+02	-2.1048	-18.288225	0.000456	4.562056	1.545666	0.000183
1957	1.9462e+02	-2.0711	-18.098480	0.000476	4.764814	1.614363	0.000191
1958	1.9472e+02	-2.0310	-17.896623	0.000507	5.068951	1.717407	0.000203
1959	1.9482e+02	-1.9892	-17.759360	0.000345	3.446887	1.167837	0.000138
1960	1.9492e+02	-1.9475	-17.573652	0.000466	4.663435	1.580014	0.000187
1961	1.9502e+02	-1.9090	-17.412166	0.000406	4.055161	1.373926	0.000162
1962	1.9512e+02	-1.8641	-17.250681	0.000406	4.055161	1.373926	0.000162
1963	1.9522e+02	-1.8385	-17.089196	0.000406	4.055161	1.373926	0.000162
1964	1.9532e+02	-1.7919	-16.838893	0.000629	6.285499	2.129585	0.000252
1965	1.9542e+02	-1.7470	-16.685482	0.000385	3.852403	1.305229	0.000154
1966	1.9552e+02	-1.7165	-16.471514	0.000537	5.373088	1.820451	0.000215
1967	1.9562e+02	-1.6764	-16.221211	0.000629	6.285499	2.129585	0.000252
1968	1.9572e+02	-1.6315	-16.019355	0.000507	5.068951	1.717407	0.000203
1969	1.9582e+02	-1.5834	-15.878055	0.000355	3.548266	1.202185	0.000142
1970	1.9592e+02	-1.5369	-15.688309	0.000476	4.764814	1.614363	0.000191
1971	1.9601e+02	-1.5144	-15.534898	0.000385	3.852403	1.305229	0.000154
1972	1.9611e+02	-1.4711	-15.308819	0.000568	5.677225	1.923496	0.000227
1973	1.9621e+02	-1.4294	-15.127148	0.000456	4.562056	1.545666	0.000183
1974	1.9631e+02	-1.3909	-14.953551	0.000436	4.359298	1.476970	0.000174
1975	1.9641e+02	-1.3540	-14.755731	0.000497	4.967572	1.683059	0.000199
1976	1.9651e+02	-1.3171	-14.586171	0.000426	4.257919	1.442622	0.000170
1977	1.9661e+02	-1.2802	-14.392389	0.000487	4.866193	1.648711	0.000195
1978	1.9671e+02	-1.2401	-14.210718	0.000456	4.562056	1.545666	0.000183
1979	1.9681e+02	-1.1823	-14.012898	0.000497	4.967572	1.683059	0.000199
1980	1.9691e+02	-1.1550	-13.891784	0.000304	3.041370	1.030444	0.000122
1981	1.9701e+02	-1.1101	-13.730299	0.000406	4.055161	1.373926	0.000162
1982	1.9711e+02	-1.0604	-13.492108	0.000598	5.981362	2.026540	0.000239
1983	1.9721e+02	-1.0379	-13.334659	0.000395	3.953782	1.339577	0.000158
1984	1.9731e+02	-0.9962	-13.124728	0.000527	5.271709	1.786103	0.000211
1985	1.9741e+02	-0.9577	-12.951131	0.000436	4.359298	1.476970	0.000174
1986	1.9751e+02	-0.9112	-12.688718	0.000659	6.589636	2.232629	0.000264
1987	1.9761e+02	-0.8647	-12.527232	0.000406	4.055161	1.373926	0.000162
1988	1.9771e+02	-0.8358	-12.373821	0.000385	3.852403	1.305229	0.000154
1989	1.9781e+02	-0.8005	-12.151779	0.000558	5.575846	1.889148	0.000223
1990	1.9791e+02	-0.7508	-12.010479	0.000355	3.548266	1.202185	0.000142
1991	1.9800e+02	-0.7027	-11.780362	0.000578	5.778604	1.957844	0.000231
1992	1.9810e+02	-0.6786	-11.570431	0.000527	5.271709	1.786103	0.000211
1993	1.9820e+02	-0.6353	-11.376649	0.000487	4.866193	1.648711	0.000195
1994	1.9830e+02	-0.5952	-11.255534	0.000304	3.041370	1.030444	0.000122
1995	1.9840e+02	-0.5551	-11.025418	0.000578	5.778604	1.957844	0.000231
1996	1.9850e+02	-0.5150	-10.839709	0.000466	4.663435	1.580014	0.000187
1997	1.9860e+02	-0.4781	-10.662075	0.000446	4.460677	1.511318	0.000179
1998	1.9870e+02	-0.4412	-10.496553	0.000416	4.156540	1.408274	0.000166
1999	1.9880e+02	-0.3962	-10.326993	0.000426	4.257919	1.442622	0.000170
2000	1.9890e+02	-0.3561	-10.145322	0.000456	4.562056	1.545666	0.000183
2001	1.9900e+02	-0.3144	-9.931354	0.000537	5.373088	1.820451	0.000215
2002	1.9910e+02	-0.2695	-9.729497	0.000507	5.068951	1.717407	0.000203
2003	1.9920e+02	-0.2294	-9.543789	0.000466	4.663435	1.580014	0.000187
2004	1.9930e+02	-0.1957	-9.362118	0.000456	4.562056	1.545666	0.000183
2005	1.9940e+02	-0.1524	-9.168335	0.000487	4.866193	1.648711	0.000195
2006	1.9950e+02	-0.1155	-8.986664	0.000456	4.562056	1.545666	0.000183
2007	1.9960e+02	-0.0658	-8.792882	0.000487	4.866193	1.648711	0.000195
2008	1.9970e+02	-0.0337	-8.582951	0.000527	5.271709	1.786103	0.000211
2009	1.9980e+02	-0.0016	-8.421465	0.000527	5.271709	1.786103	0.000162

Center data before PMax,+/-Pr and +/-Vc Calc.

PMax (uC/cm2):	7.24e+01
Pr (uC/cm2):	2.43e+00
-Pr (uC/cm2):	-8.42e+00
PLoss (uC/cm2):	-5.41e+00
Vc:	6.95e-01
-Vc:	-5.08e-01
C (Max-Eff) (nF):	3.62e-01
K (Eff):	1.23e+03
Vert. (+/-Pr) Shift (uC/cm2):	-3.00e+00
Horiz. Shift (+/-Vc):	9.36e-02
Offset (uC/cm2):	2.97e+00

A (Loop Area - uC/cm2·Volts):	-1.16e-02



Hysteresis Version: 5.48.1 - Radiant Technologies, Inc., 1999 - 9/12/24

