»»»»»»»»»»»»»»»»»»»»»»»»»»»»»»»»»»»» Hysteresis ««««««««««««««««««««««««««««««««««««
»»»  Executed Version:	5.48.1
»»»  Vision Version:	5.48.4 (R)
»»»  Vision Compiled:	9/18/24
»»»  Driver Version:	5.47.0
»»»  Windows Version:	Windows 8 or 8.1
»»»  Processor Information:	x86 (AMD or Intel) - 32 Processors
»»»  Tester Name:	PMF21124-494 (100V)
»»»  Tester S/N:	PMF21124-494
»»»  Internal Amp Type:	100V RevK 270k
»»»  Internal Amp S/N:	iAB2-596/K     
»»»  Execution Count:	1
»»»»»»»»»»»»»»»»»»»»»»»»»»»»»»»»»»»»»»»»»»««««««««««««««««««««««««««««««««««««««««««

Stored:	6/13/2025 - 17:25:13
Configured:	06/13/25 05:21:47 PM
Executed:	06/13/25 05:24:43 PM

»»»»»»»»»»»»»»»»»»»»»»»»»»»»»»»»»»» Sample Info ««««««««««««««««««««««««««««««««««««
Sample Name:	
Lot Name:	
Wafer Name:	
Die Row/Column:	0/0
Capacitor Number:	0
Sample Area (cm2):	1.00e-04
Sample Thickness (microns):	3.00e-01

Amplifier:	Internal

»»»»»»»»»»»»»»»»»»»»»»»»»»»»»»»»»»» Tester Info «««««««««««««««««««««««««««««««««««
Tester Name:	PMF21124-494 (100V)
Tester Serial Number:	PMF21124-494
Return Signal Amp. Level:	0.19 [Index: 3]

»»»»»»»»»»»»»»»»»»»»»»»»»»»»»»»» Hysteresis Info ««««««««««««««««««««««««««««««««««
Task Name:	Hyst-2150
Volts:	20.00
Field:	666.67 (kV/cm)
DCBias:	0.00
DCField:	0.00 (kV/cm)
Hysteresis Period (ms):	2.00e+02
Preset:	Enabled
Preset Delay (ms):	1.00e+03
Profile:	Standard Bipolar

»»»»»»»»»»»»»»»»»»»»»»»»»»»»»»»»»»»»»» Data «««««««««««««««««««««««««««««««««««««««
Points:	2009

Valid Data

Point	Time (ms)	Drive Voltage	Measured Polarization (uC/cm2)	Capacitance (uF)	Normalized Capacitance (uF/cm2)	Dielectric Constant	Instantaneous Current (mA)
   1	0.0000e+00	-0.0209	-2.450541	0.000324	3.244389	1.099229	0.000130
   2	9.9500e-02	0.0048	-2.321353	0.000324	3.244389	1.099229	0.000130
   3	1.9900e-01	0.0481	-2.171979	0.000375	3.751325	1.270983	0.000150
   4	2.9850e-01	0.0914	-1.978197	0.000487	4.866583	1.648843	0.000195
   5	3.9800e-01	0.1299	-1.861120	0.000294	2.940227	0.996176	0.000118
   6	4.9750e-01	0.1700	-1.631003	0.000578	5.779068	1.958001	0.000231
   7	5.9700e-01	0.2102	-1.473555	0.000395	3.954099	1.339685	0.000158
   8	6.9650e-01	0.2471	-1.340329	0.000335	3.345776	1.133580	0.000134
   9	7.9600e-01	0.2839	-1.166732	0.000436	4.359648	1.477089	0.000174
  10	8.9550e-01	0.3225	-0.989098	0.000446	4.461035	1.511439	0.000179
  11	9.9500e-01	0.3722	-0.819539	0.000426	4.258260	1.442738	0.000170
  12	1.0945e+00	0.4075	-0.662090	0.000395	3.954099	1.339685	0.000158
  13	1.1940e+00	0.4572	-0.484456	0.000446	4.461035	1.511439	0.000179
  14	1.2935e+00	0.4813	-0.351231	0.000335	3.345776	1.133580	0.000134
  15	1.3930e+00	0.5310	-0.177634	0.000436	4.359648	1.477089	0.000174
  16	1.4925e+00	0.5743	0.012111	0.000477	4.765196	1.614492	0.000191
  17	1.5920e+00	0.6016	0.193783	0.000456	4.562422	1.545790	0.000183
  18	1.6915e+00	0.6481	0.327008	0.000335	3.345776	1.133580	0.000134
  19	1.7910e+00	0.6914	0.516753	0.000477	4.765196	1.614492	0.000191
  20	1.8905e+00	0.7299	0.730722	0.000537	5.373519	1.820598	0.000215
  21	1.9900e+00	0.7748	0.908356	0.000446	4.461035	1.511439	0.000179
  22	2.0895e+00	0.8053	1.081952	0.000436	4.359648	1.477089	0.000174
  23	2.1890e+00	0.8390	1.263623	0.000456	4.562422	1.545790	0.000183
  24	2.2885e+00	0.8855	1.396849	0.000335	3.345776	1.133580	0.000134
  25	2.3880e+00	0.9289	1.598706	0.000507	5.069358	1.717545	0.000203
  26	2.4875e+00	0.9674	1.776340	0.000446	4.461035	1.511439	0.000179
  27	2.5870e+00	1.0059	1.929751	0.000385	3.852712	1.305334	0.000154
  28	2.6865e+00	1.0492	2.119496	0.000477	4.765196	1.614492	0.000191
  29	2.7860e+00	1.0780	2.293093	0.000436	4.359648	1.477089	0.000174
  30	2.8855e+00	1.1278	2.466690	0.000436	4.359648	1.477089	0.000174
  31	2.9850e+00	1.1647	2.656435	0.000477	4.765196	1.614492	0.000191
  32	3.0845e+00	1.2016	2.797735	0.000355	3.548550	1.202281	0.000142
  33	3.1840e+00	1.2561	2.999592	0.000507	5.069358	1.717545	0.000203
  34	3.2835e+00	1.2882	3.169152	0.000426	4.258260	1.442738	0.000170
  35	3.3830e+00	1.3219	3.358897	0.000477	4.765196	1.614492	0.000191
  36	3.4825e+00	1.3668	3.552679	0.000487	4.866583	1.648843	0.000195
  37	3.5820e+00	1.4005	3.714165	0.000406	4.055486	1.374036	0.000162
  38	3.6815e+00	1.4454	3.875650	0.000406	4.055486	1.374036	0.000162
  39	3.7810e+00	1.4903	4.053284	0.000446	4.461035	1.511439	0.000179
  40	3.8805e+00	1.5256	4.206695	0.000385	3.852712	1.305334	0.000154
  41	3.9800e+00	1.5721	4.368181	0.000406	4.055486	1.374036	0.000162
  42	4.0795e+00	1.6042	4.590223	0.000558	5.576293	1.889299	0.000223
  43	4.1790e+00	1.6427	4.796117	0.000517	5.170745	1.751896	0.000207
  44	4.2785e+00	1.6844	4.957603	0.000406	4.055486	1.374036	0.000162
  45	4.3780e+00	1.7294	5.127162	0.000426	4.258260	1.442738	0.000170
  46	4.4775e+00	1.7614	5.256351	0.000324	3.244389	1.099229	0.000130
  47	4.5770e+00	1.8048	5.466282	0.000527	5.272132	1.786247	0.000211
  48	4.6765e+00	1.8449	5.651990	0.000466	4.663809	1.580141	0.000187
  49	4.7760e+00	1.8866	5.845773	0.000487	4.866583	1.648843	0.000195
  50	4.8755e+00	1.9187	6.023407	0.000446	4.461035	1.511439	0.000179
  51	4.9750e+00	1.9652	6.152595	0.000324	3.244389	1.099229	0.000130
  52	5.0745e+00	2.0037	6.342340	0.000477	4.765196	1.614492	0.000191
  53	5.1740e+00	2.0486	6.540160	0.000497	4.967970	1.683194	0.000199
  54	5.2735e+00	2.0759	6.677423	0.000345	3.447163	1.167930	0.000138
  55	5.3730e+00	2.1208	6.871205	0.000487	4.866583	1.648843	0.000195
  56	5.4725e+00	2.1593	7.101322	0.000578	5.779068	1.958001	0.000231
  57	5.5720e+00	2.1962	7.238584	0.000345	3.447163	1.167930	0.000138
  58	5.6715e+00	2.2491	7.464664	0.000568	5.677681	1.923650	0.000227
  59	5.7710e+00	2.2620	7.614038	0.000375	3.751325	1.270983	0.000150
  60	5.8705e+00	2.3181	7.759375	0.000365	3.649937	1.236632	0.000146
  61	5.9700e+00	2.3598	7.949120	0.000477	4.765196	1.614492	0.000191
  62	6.0695e+00	2.3999	8.102531	0.000385	3.852712	1.305334	0.000154
  63	6.1690e+00	2.4352	8.316500	0.000537	5.373519	1.820598	0.000215
  64	6.2685e+00	2.4834	8.514319	0.000497	4.967970	1.683194	0.000199
  65	6.3680e+00	2.5122	8.651582	0.000345	3.447163	1.167930	0.000138
  66	6.4675e+00	2.5636	8.857476	0.000517	5.170745	1.751896	0.000207
  67	6.5670e+00	2.5973	9.018961	0.000406	4.055486	1.374036	0.000162
  68	6.6665e+00	2.6486	9.265227	0.000618	6.184616	2.095405	0.000248
  69	6.7660e+00	2.6855	9.422675	0.000395	3.954099	1.339685	0.000158
  70	6.8655e+00	2.7176	9.584160	0.000406	4.055486	1.374036	0.000162
  71	6.9650e+00	2.7545	9.757757	0.000436	4.359648	1.477089	0.000174
  72	7.0645e+00	2.8010	9.951540	0.000487	4.866583	1.648843	0.000195
  73	7.1640e+00	2.8347	10.108988	0.000395	3.954099	1.339685	0.000158
  74	7.2635e+00	2.8796	10.318919	0.000527	5.272132	1.786247	0.000211
  75	7.3630e+00	2.9245	10.492516	0.000436	4.359648	1.477089	0.000174
  76	7.4625e+00	2.9454	10.678224	0.000466	4.663809	1.580141	0.000187
  77	7.5620e+00	3.0015	10.839709	0.000406	4.055486	1.374036	0.000162
  78	7.6615e+00	3.0448	11.045603	0.000517	5.170745	1.751896	0.000207
  79	7.7610e+00	3.0817	11.223237	0.000446	4.461035	1.511439	0.000179
  80	7.8605e+00	3.1202	11.376649	0.000385	3.852712	1.305334	0.000154
  81	7.9600e+00	3.1635	11.578505	0.000507	5.069358	1.717545	0.000203
  82	8.0595e+00	3.1988	11.760176	0.000456	4.562422	1.545790	0.000183
  83	8.1590e+00	3.2389	11.917625	0.000395	3.954099	1.339685	0.000158
  84	8.2585e+00	3.2774	12.119481	0.000507	5.069358	1.717545	0.000203
  85	8.3580e+00	3.3256	12.248670	0.000324	3.244389	1.099229	0.000130
  86	8.4575e+00	3.3448	12.458601	0.000527	5.272132	1.786247	0.000211
  87	8.5570e+00	3.4026	12.672569	0.000537	5.373519	1.820598	0.000215
  88	8.6565e+00	3.4427	12.813869	0.000355	3.548550	1.202281	0.000142
  89	8.7560e+00	3.4732	13.043986	0.000578	5.779068	1.958001	0.000231
  90	8.8555e+00	3.5085	13.193360	0.000375	3.751325	1.270983	0.000150
  91	8.9550e+00	3.5518	13.375031	0.000456	4.562422	1.545790	0.000183
  92	9.0545e+00	3.6031	13.568813	0.000487	4.866583	1.648843	0.000195
  93	9.1540e+00	3.6368	13.738373	0.000426	4.258260	1.442738	0.000170
  94	9.2535e+00	3.6753	13.920044	0.000456	4.562422	1.545790	0.000183
  95	9.3530e+00	3.7138	14.125938	0.000517	5.170745	1.751896	0.000207
  96	9.4525e+00	3.7523	14.295498	0.000426	4.258260	1.442738	0.000170
  97	9.5520e+00	3.7940	14.440835	0.000365	3.649937	1.236632	0.000146
  98	9.6515e+00	3.8373	14.642691	0.000507	5.069358	1.717545	0.000203
  99	9.7510e+00	3.8646	14.836474	0.000487	4.866583	1.648843	0.000195
 100	9.8505e+00	3.9143	15.014108	0.000446	4.461035	1.511439	0.000179
 101	9.9500e+00	3.9560	15.175593	0.000406	4.055486	1.374036	0.000162
 102	1.0050e+01	3.9961	15.353227	0.000446	4.461035	1.511439	0.000179
 103	1.0149e+01	4.0427	15.551047	0.000497	4.967970	1.683194	0.000199
 104	1.0248e+01	4.0731	15.720607	0.000426	4.258260	1.442738	0.000170
 105	1.0348e+01	4.1149	15.942649	0.000558	5.576293	1.889299	0.000223
 106	1.0447e+01	4.1566	16.100097	0.000395	3.954099	1.339685	0.000158
 107	1.0547e+01	4.1983	16.273694	0.000436	4.359648	1.477089	0.000174
 108	1.0646e+01	4.2432	16.483625	0.000527	5.272132	1.786247	0.000211
 109	1.0746e+01	4.2737	16.596665	0.000284	2.838840	0.961825	0.000114
 110	1.0845e+01	4.3202	16.778336	0.000456	4.562422	1.545790	0.000183
 111	1.0945e+01	4.3491	17.004416	0.000568	5.677681	1.923650	0.000227
 112	1.1044e+01	4.3844	17.194161	0.000477	4.765196	1.614492	0.000191
 113	1.1144e+01	4.4373	17.367758	0.000436	4.359648	1.477089	0.000174
 114	1.1243e+01	4.4726	17.517132	0.000375	3.751325	1.270983	0.000150
 115	1.1343e+01	4.5143	17.694766	0.000446	4.461035	1.511439	0.000179
 116	1.1443e+01	4.5544	17.832029	0.000345	3.447163	1.167930	0.000138
 117	1.1542e+01	4.5961	18.029848	0.000497	4.967970	1.683194	0.000199
 118	1.1642e+01	4.6282	18.227668	0.000497	4.967970	1.683194	0.000199
 119	1.1741e+01	4.6715	18.413376	0.000466	4.663809	1.580141	0.000187
 120	1.1841e+01	4.7213	18.582936	0.000426	4.258260	1.442738	0.000170
 121	1.1940e+01	4.7533	18.772681	0.000477	4.765196	1.614492	0.000191
 122	1.2040e+01	4.7983	18.934167	0.000406	4.055486	1.374036	0.000162
 123	1.2139e+01	4.8239	19.091615	0.000395	3.954099	1.339685	0.000158
 124	1.2239e+01	4.8817	19.289435	0.000497	4.967970	1.683194	0.000199
 125	1.2338e+01	4.9138	19.471106	0.000456	4.562422	1.545790	0.000183
 126	1.2438e+01	4.9507	19.600294	0.000324	3.244389	1.099229	0.000130
 127	1.2537e+01	4.9892	19.826374	0.000568	5.677681	1.923650	0.000227
 128	1.2636e+01	5.0341	19.971710	0.000365	3.649937	1.236632	0.000146
 129	1.2736e+01	5.0710	20.133196	0.000406	4.055486	1.374036	0.000162
 130	1.2835e+01	5.1111	20.343127	0.000527	5.272132	1.786247	0.000211
 131	1.2935e+01	5.1576	20.492501	0.000375	3.751325	1.270983	0.000150
 132	1.3034e+01	5.1849	20.698395	0.000517	5.170745	1.751896	0.000207
 133	1.3134e+01	5.2394	20.871992	0.000436	4.359648	1.477089	0.000174
 134	1.3233e+01	5.2763	21.065774	0.000487	4.866583	1.648843	0.000195
 135	1.3333e+01	5.3148	21.243408	0.000446	4.461035	1.511439	0.000179
 136	1.3432e+01	5.3549	21.368559	0.000314	3.143002	1.064878	0.000126
 137	1.3532e+01	5.3822	21.570416	0.000507	5.069358	1.717545	0.000203
 138	1.3632e+01	5.4255	21.739976	0.000426	4.258260	1.442738	0.000170
 139	1.3731e+01	5.4769	21.885313	0.000365	3.649937	1.236632	0.000146
 140	1.3831e+01	5.5089	22.107355	0.000558	5.576293	1.889299	0.000223
 141	1.3930e+01	5.5555	22.244618	0.000345	3.447163	1.167930	0.000138
 142	1.4030e+01	5.5875	22.430326	0.000466	4.663809	1.580141	0.000187
 143	1.4129e+01	5.6260	22.624109	0.000487	4.866583	1.648843	0.000195
 144	1.4229e+01	5.6774	22.809817	0.000466	4.663809	1.580141	0.000187
 145	1.4328e+01	5.7079	22.967265	0.000395	3.954099	1.339685	0.000158
 146	1.4428e+01	5.7576	23.148936	0.000456	4.562422	1.545790	0.000183
 147	1.4527e+01	5.7817	23.294273	0.000365	3.649937	1.236632	0.000146
 148	1.4627e+01	5.8314	23.484019	0.000477	4.765196	1.614492	0.000191
 149	1.4726e+01	5.8731	23.625318	0.000355	3.548550	1.202281	0.000142
 150	1.4825e+01	5.9196	23.827175	0.000507	5.069358	1.717545	0.000203
 151	1.4925e+01	5.9453	23.988661	0.000406	4.055486	1.374036	0.000162
 152	1.5024e+01	5.9838	24.125923	0.000345	3.447163	1.167930	0.000138
 153	1.5124e+01	6.0223	24.303557	0.000446	4.461035	1.511439	0.000179
 154	1.5223e+01	6.0656	24.485228	0.000456	4.562422	1.545790	0.000183
 155	1.5323e+01	6.1153	24.666899	0.000456	4.562422	1.545790	0.000183
 156	1.5422e+01	6.1426	24.832422	0.000416	4.156873	1.408387	0.000166
 157	1.5522e+01	6.1827	25.038316	0.000517	5.170745	1.751896	0.000207
 158	1.5621e+01	6.2373	25.179616	0.000355	3.548550	1.202281	0.000142
 159	1.5721e+01	6.2726	25.389547	0.000527	5.272132	1.786247	0.000211
 160	1.5820e+01	6.3111	25.526809	0.000345	3.447163	1.167930	0.000138
 161	1.5920e+01	6.3415	25.672146	0.000365	3.649937	1.236632	0.000146
 162	1.6020e+01	6.3881	25.861892	0.000477	4.765196	1.614492	0.000191
 163	1.6119e+01	6.4250	26.031451	0.000426	4.258260	1.442738	0.000170
 164	1.6218e+01	6.4635	26.172751	0.000355	3.548550	1.202281	0.000142
 165	1.6318e+01	6.5068	26.374608	0.000507	5.069358	1.717545	0.000203
 166	1.6418e+01	6.5421	26.499759	0.000314	3.143002	1.064878	0.000126
 167	1.6517e+01	6.5806	26.685467	0.000466	4.663809	1.580141	0.000187
 168	1.6616e+01	6.6287	26.842916	0.000395	3.954099	1.339685	0.000158
 169	1.6716e+01	6.6576	27.012475	0.000426	4.258260	1.442738	0.000170
 170	1.6816e+01	6.7105	27.169924	0.000395	3.954099	1.339685	0.000158
 171	1.6915e+01	6.7410	27.323335	0.000385	3.852712	1.305334	0.000154
 172	1.7015e+01	6.7891	27.517117	0.000487	4.866583	1.648843	0.000195
 173	1.7114e+01	6.8308	27.654380	0.000345	3.447163	1.167930	0.000138
 174	1.7213e+01	6.8613	27.852199	0.000497	4.967970	1.683194	0.000199
 175	1.7313e+01	6.9110	28.001573	0.000375	3.751325	1.270983	0.000150
 176	1.7413e+01	6.9463	28.187282	0.000466	4.663809	1.580141	0.000187
 177	1.7512e+01	6.9736	28.328581	0.000355	3.548550	1.202281	0.000142
 178	1.7611e+01	7.0153	28.477955	0.000375	3.751325	1.270983	0.000150
 179	1.7711e+01	7.0618	28.671738	0.000487	4.866583	1.648843	0.000195
 180	1.7811e+01	7.0971	28.800926	0.000324	3.244389	1.099229	0.000130
 181	1.7910e+01	7.1324	28.958375	0.000395	3.954099	1.339685	0.000158
 182	1.8009e+01	7.1805	29.131971	0.000436	4.359648	1.477089	0.000174
 183	1.8109e+01	7.2271	29.269234	0.000345	3.447163	1.167930	0.000138
 184	1.8209e+01	7.2543	29.479165	0.000527	5.272132	1.786247	0.000211
 185	1.8308e+01	7.3041	29.612391	0.000335	3.345776	1.133580	0.000134
 186	1.8407e+01	7.3329	29.777913	0.000416	4.156873	1.408387	0.000166
 187	1.8507e+01	7.3811	29.919213	0.000355	3.548550	1.202281	0.000142
 188	1.8607e+01	7.4180	30.121070	0.000507	5.069358	1.717545	0.000203
 189	1.8706e+01	7.4613	30.298704	0.000446	4.461035	1.511439	0.000179
 190	1.8805e+01	7.5062	30.472301	0.000436	4.359648	1.477089	0.000174
 191	1.8905e+01	7.5399	30.585340	0.000284	2.838840	0.961825	0.000114
 192	1.9005e+01	7.5736	30.742789	0.000395	3.954099	1.339685	0.000158
 193	1.9104e+01	7.6217	30.932534	0.000477	4.765196	1.614492	0.000191
 194	1.9203e+01	7.6554	31.069797	0.000345	3.447163	1.167930	0.000138
 195	1.9303e+01	7.7019	31.227245	0.000395	3.954099	1.339685	0.000158
 196	1.9402e+01	7.7308	31.360470	0.000335	3.345776	1.133580	0.000134
 197	1.9502e+01	7.7757	31.566364	0.000517	5.170745	1.751896	0.000207
 198	1.9602e+01	7.8174	31.731887	0.000416	4.156873	1.408387	0.000166
 199	1.9701e+01	7.8656	31.897409	0.000416	4.156873	1.408387	0.000166
 200	1.9800e+01	7.8976	32.046783	0.000375	3.751325	1.270983	0.000150
 201	1.9900e+01	7.9377	32.208269	0.000406	4.055486	1.374036	0.000162
 202	2.0000e+01	7.9827	32.389940	0.000456	4.562422	1.545790	0.000183
 203	2.0099e+01	8.0292	32.519128	0.000324	3.244389	1.099229	0.000130
 204	2.0198e+01	8.0565	32.692725	0.000436	4.359648	1.477089	0.000174
 205	2.0298e+01	8.0934	32.846136	0.000385	3.852712	1.305334	0.000154
 206	2.0398e+01	8.1431	33.027807	0.000456	4.562422	1.545790	0.000183
 207	2.0497e+01	8.1800	33.181219	0.000385	3.852712	1.305334	0.000154
 208	2.0596e+01	8.2153	33.330593	0.000375	3.751325	1.270983	0.000150
 209	2.0696e+01	8.2602	33.475930	0.000365	3.649937	1.236632	0.000146
 210	2.0796e+01	8.2939	33.641452	0.000416	4.156873	1.408387	0.000166
 211	2.0895e+01	8.3372	33.766603	0.000314	3.143002	1.064878	0.000126
 212	2.0994e+01	8.3869	33.948274	0.000456	4.562422	1.545790	0.000183
 213	2.1094e+01	8.4110	34.069388	0.000304	3.041615	1.030527	0.000122
 214	2.1194e+01	8.4639	34.267208	0.000497	4.967970	1.683194	0.000199
 215	2.1293e+01	8.5024	34.428694	0.000406	4.055486	1.374036	0.000162
 216	2.1392e+01	8.5345	34.602290	0.000436	4.359648	1.477089	0.000174
 217	2.1492e+01	8.5634	34.699182	0.000243	2.433292	0.824422	0.000097
 218	2.1591e+01	8.6163	34.844519	0.000365	3.649937	1.236632	0.000146
 219	2.1691e+01	8.6548	35.026190	0.000456	4.562422	1.545790	0.000183
 220	2.1791e+01	8.6965	35.183638	0.000395	3.954099	1.339685	0.000158
 221	2.1890e+01	8.7383	35.369346	0.000466	4.663809	1.580141	0.000187
 222	2.1989e+01	8.7752	35.514683	0.000365	3.649937	1.236632	0.000146
 223	2.2089e+01	8.8137	35.655983	0.000355	3.548550	1.202281	0.000142
 224	2.2189e+01	8.8538	35.809394	0.000385	3.852712	1.305334	0.000154
 225	2.2288e+01	8.8971	35.982991	0.000436	4.359648	1.477089	0.000174
 226	2.2387e+01	8.9340	36.096031	0.000284	2.838840	0.961825	0.000114
 227	2.2487e+01	8.9789	36.273665	0.000446	4.461035	1.511439	0.000179
 228	2.2587e+01	9.0238	36.447261	0.000436	4.359648	1.477089	0.000174
 229	2.2686e+01	9.0479	36.560301	0.000284	2.838840	0.961825	0.000114
 230	2.2785e+01	9.1024	36.762158	0.000507	5.069358	1.717545	0.000203
 231	2.2885e+01	9.1377	36.943829	0.000456	4.562422	1.545790	0.000183
 232	2.2985e+01	9.1778	37.048795	0.000264	2.636066	0.893123	0.000105
 233	2.3084e+01	9.2163	37.210280	0.000406	4.055486	1.374036	0.000162
 234	2.3183e+01	9.2564	37.355617	0.000365	3.649937	1.236632	0.000146
 235	2.3283e+01	9.2901	37.545362	0.000477	4.765196	1.614492	0.000191
 236	2.3383e+01	9.3334	37.694736	0.000375	3.751325	1.270983	0.000150
 237	2.3482e+01	9.3751	37.856222	0.000406	4.055486	1.374036	0.000162
 238	2.3581e+01	9.4185	37.997522	0.000355	3.548550	1.202281	0.000142
 239	2.3681e+01	9.4473	38.122673	0.000314	3.143002	1.064878	0.000126
 240	2.3780e+01	9.4826	38.280121	0.000395	3.954099	1.339685	0.000158
 241	2.3880e+01	9.5340	38.457755	0.000446	4.461035	1.511439	0.000179
 242	2.3980e+01	9.5725	38.599055	0.000355	3.548550	1.202281	0.000142
 243	2.4079e+01	9.6222	38.764577	0.000416	4.156873	1.408387	0.000166
 244	2.4178e+01	9.6543	38.897803	0.000335	3.345776	1.133580	0.000134
 245	2.4278e+01	9.6928	39.035065	0.000345	3.447163	1.167930	0.000138
 246	2.4378e+01	9.7281	39.196551	0.000406	4.055486	1.374036	0.000162
 247	2.4477e+01	9.7778	39.305554	0.000274	2.737453	0.927474	0.000110
 248	2.4576e+01	9.8083	39.479150	0.000436	4.359648	1.477089	0.000174
 249	2.4676e+01	9.8452	39.660821	0.000456	4.562422	1.545790	0.000183
 250	2.4776e+01	9.8981	39.814233	0.000385	3.852712	1.305334	0.000154
 251	2.4875e+01	9.9334	39.951495	0.000345	3.447163	1.167930	0.000138
 252	2.4974e+01	9.9719	40.096832	0.000365	3.649937	1.236632	0.000146
 253	2.5074e+01	10.0040	40.274466	0.000446	4.461035	1.511439	0.000179
 254	2.5174e+01	10.0569	40.444026	0.000426	4.258260	1.442738	0.000170
 255	2.5273e+01	10.0874	40.577251	0.000335	3.345776	1.133580	0.000134
 256	2.5372e+01	10.1275	40.714514	0.000345	3.447163	1.167930	0.000138
 257	2.5472e+01	10.1724	40.855814	0.000355	3.548550	1.202281	0.000142
 258	2.5572e+01	10.2093	41.017299	0.000406	4.055486	1.374036	0.000162
 259	2.5671e+01	10.2494	41.166673	0.000375	3.751325	1.270983	0.000150
 260	2.5770e+01	10.2863	41.299899	0.000335	3.345776	1.133580	0.000134
 261	2.5870e+01	10.3248	41.493681	0.000487	4.866583	1.648843	0.000195
 262	2.5970e+01	10.3762	41.606721	0.000284	2.838840	0.961825	0.000114
 263	2.6069e+01	10.4051	41.804541	0.000497	4.967970	1.683194	0.000199
 264	2.6169e+01	10.4468	41.917580	0.000284	2.838840	0.961825	0.000114
 265	2.6268e+01	10.4901	42.091177	0.000436	4.359648	1.477089	0.000174
 266	2.6367e+01	10.5366	42.236514	0.000365	3.649937	1.236632	0.000146
 267	2.6467e+01	10.5719	42.377814	0.000355	3.548550	1.202281	0.000142
 268	2.6567e+01	10.6104	42.531225	0.000385	3.852712	1.305334	0.000154
 269	2.6666e+01	10.6553	42.720970	0.000477	4.765196	1.614492	0.000191
 270	2.6765e+01	10.6906	42.842084	0.000304	3.041615	1.030527	0.000122
 271	2.6865e+01	10.7227	42.995496	0.000385	3.852712	1.305334	0.000154
 272	2.6965e+01	10.7692	43.120647	0.000314	3.143002	1.064878	0.000126
 273	2.7064e+01	10.8029	43.298281	0.000446	4.461035	1.511439	0.000179
 274	2.7163e+01	10.8462	43.455729	0.000395	3.954099	1.339685	0.000158
 275	2.7263e+01	10.8863	43.556657	0.000253	2.534679	0.858772	0.000101
 276	2.7363e+01	10.9248	43.750440	0.000487	4.866583	1.648843	0.000195
 277	2.7462e+01	10.9633	43.891740	0.000355	3.548550	1.202281	0.000142
 278	2.7561e+01	11.0082	44.024965	0.000335	3.345776	1.133580	0.000134
 279	2.7661e+01	11.0419	44.138005	0.000284	2.838840	0.961825	0.000114
 280	2.7761e+01	11.0885	44.303528	0.000416	4.156873	1.408387	0.000166
 281	2.7860e+01	11.1238	44.428679	0.000314	3.143002	1.064878	0.000126
 282	2.7959e+01	11.1719	44.549793	0.000304	3.041615	1.030527	0.000122
 283	2.8059e+01	11.2088	44.695130	0.000365	3.649937	1.236632	0.000146
 284	2.8159e+01	11.2409	44.884875	0.000477	4.765196	1.614492	0.000191
 285	2.8258e+01	11.2858	45.018101	0.000335	3.345776	1.133580	0.000134
 286	2.8358e+01	11.3291	45.175549	0.000395	3.954099	1.339685	0.000158
 287	2.8457e+01	11.3660	45.284552	0.000274	2.737453	0.927474	0.000110
 288	2.8556e+01	11.4013	45.490445	0.000517	5.170745	1.751896	0.000207
 289	2.8656e+01	11.4430	45.603485	0.000284	2.838840	0.961825	0.000114
 290	2.8756e+01	11.4751	45.777082	0.000436	4.359648	1.477089	0.000174
 291	2.8855e+01	11.5248	45.894159	0.000294	2.940227	0.996176	0.000118
 292	2.8954e+01	11.5601	46.027385	0.000335	3.345776	1.133580	0.000134
 293	2.9054e+01	11.6066	46.172721	0.000365	3.649937	1.236632	0.000146
 294	2.9154e+01	11.6403	46.334207	0.000406	4.055486	1.374036	0.000162
 295	2.9253e+01	11.6916	46.459358	0.000314	3.143002	1.064878	0.000126
 296	2.9352e+01	11.7302	46.612769	0.000385	3.852712	1.305334	0.000154
 297	2.9452e+01	11.7670	46.745995	0.000335	3.345776	1.133580	0.000134
 298	2.9552e+01	11.8055	46.911517	0.000416	4.156873	1.408387	0.000166
 299	2.9651e+01	11.8521	47.040706	0.000324	3.244389	1.099229	0.000130
 300	2.9750e+01	11.8890	47.157783	0.000294	2.940227	0.996176	0.000118
 301	2.9850e+01	11.9259	47.335417	0.000446	4.461035	1.511439	0.000179
 302	2.9950e+01	11.9596	47.452493	0.000294	2.940227	0.996176	0.000118
 303	3.0049e+01	12.0077	47.609942	0.000395	3.954099	1.339685	0.000158
 304	3.0148e+01	12.0398	47.751242	0.000355	3.548550	1.202281	0.000142
 305	3.0248e+01	12.0863	47.872356	0.000304	3.041615	1.030527	0.000122
 306	3.0348e+01	12.1216	48.037878	0.000416	4.156873	1.408387	0.000166
 307	3.0447e+01	12.1601	48.154955	0.000294	2.940227	0.996176	0.000118
 308	3.0547e+01	12.2050	48.324515	0.000426	4.258260	1.442738	0.000170
 309	3.0646e+01	12.2419	48.437555	0.000284	2.838840	0.961825	0.000114
 310	3.0745e+01	12.2788	48.586929	0.000375	3.751325	1.270983	0.000150
 311	3.0845e+01	12.3237	48.740340	0.000385	3.852712	1.305334	0.000154
 312	3.0945e+01	12.3542	48.897788	0.000395	3.954099	1.339685	0.000158
 313	3.1044e+01	12.4039	48.990642	0.000233	2.331904	0.790071	0.000093
 314	3.1143e+01	12.4392	49.152128	0.000406	4.055486	1.374036	0.000162
 315	3.1243e+01	12.4729	49.273242	0.000304	3.041615	1.030527	0.000122
 316	3.1343e+01	12.5355	49.430690	0.000395	3.954099	1.339685	0.000158
 317	3.1442e+01	12.5692	49.571990	0.000355	3.548550	1.202281	0.000142
 318	3.1541e+01	12.6012	49.701178	0.000324	3.244389	1.099229	0.000130
 319	3.1641e+01	12.6462	49.834404	0.000335	3.345776	1.133580	0.000134
 320	3.1741e+01	12.6863	50.012038	0.000446	4.461035	1.511439	0.000179
 321	3.1840e+01	12.7232	50.104892	0.000233	2.331904	0.790071	0.000093
 322	3.1939e+01	12.7617	50.217931	0.000284	2.838840	0.961825	0.000114
 323	3.2039e+01	12.8050	50.379417	0.000406	4.055486	1.374036	0.000162
 324	3.2139e+01	12.8419	50.520717	0.000355	3.548550	1.202281	0.000142
 325	3.2238e+01	12.8772	50.690276	0.000426	4.258260	1.442738	0.000170
 326	3.2337e+01	12.9093	50.771019	0.000203	2.027743	0.687018	0.000081
 327	3.2437e+01	12.9494	50.908282	0.000345	3.447163	1.167930	0.000138
 328	3.2536e+01	12.9959	51.041507	0.000335	3.345776	1.133580	0.000134
 329	3.2636e+01	13.0360	51.182807	0.000355	3.548550	1.202281	0.000142
 330	3.2736e+01	13.0825	51.307958	0.000314	3.143002	1.064878	0.000126
 331	3.2835e+01	13.1130	51.453295	0.000365	3.649937	1.236632	0.000146
 332	3.2934e+01	13.1563	51.582483	0.000324	3.244389	1.099229	0.000130
 333	3.3034e+01	13.1964	51.727820	0.000365	3.649937	1.236632	0.000146
 334	3.3133e+01	13.2413	51.844897	0.000294	2.940227	0.996176	0.000118
 335	3.3233e+01	13.2734	51.994271	0.000375	3.751325	1.270983	0.000150
 336	3.3333e+01	13.3199	52.111348	0.000294	2.940227	0.996176	0.000118
 337	3.3432e+01	13.3568	52.252648	0.000355	3.548550	1.202281	0.000142
 338	3.3532e+01	13.3921	52.389910	0.000345	3.447163	1.167930	0.000138
 339	3.3631e+01	13.4306	52.506987	0.000294	2.940227	0.996176	0.000118
 340	3.3730e+01	13.4723	52.652324	0.000365	3.649937	1.236632	0.000146
 341	3.3830e+01	13.5189	52.793624	0.000355	3.548550	1.202281	0.000142
 342	3.3929e+01	13.5542	52.934924	0.000355	3.548550	1.202281	0.000142
 343	3.4029e+01	13.5911	53.047964	0.000284	2.838840	0.961825	0.000114
 344	3.4129e+01	13.6344	53.169078	0.000304	3.041615	1.030527	0.000122
 345	3.4228e+01	13.6681	53.322489	0.000385	3.852712	1.305334	0.000154
 346	3.4328e+01	13.7242	53.407269	0.000213	2.129130	0.721369	0.000085
 347	3.4427e+01	13.7627	53.572791	0.000416	4.156873	1.408387	0.000166
 348	3.4526e+01	13.7900	53.669683	0.000243	2.433292	0.824422	0.000097
 349	3.4626e+01	13.8285	53.823094	0.000385	3.852712	1.305334	0.000154
 350	3.4725e+01	13.8750	53.915948	0.000233	2.331904	0.790071	0.000093
 351	3.4825e+01	13.9167	54.049173	0.000335	3.345776	1.133580	0.000134
 352	3.4925e+01	13.9440	54.190473	0.000355	3.548550	1.202281	0.000142
 353	3.5024e+01	13.9969	54.347921	0.000395	3.954099	1.339685	0.000158
 354	3.5123e+01	14.0370	54.460961	0.000284	2.838840	0.961825	0.000114
 355	3.5223e+01	14.0771	54.602261	0.000355	3.548550	1.202281	0.000142
 356	3.5322e+01	14.1189	54.723375	0.000304	3.041615	1.030527	0.000122
 357	3.5422e+01	14.1509	54.840452	0.000294	2.940227	0.996176	0.000118
 358	3.5522e+01	14.1926	54.993863	0.000385	3.852712	1.305334	0.000154
 359	3.5621e+01	14.2344	55.135163	0.000355	3.548550	1.202281	0.000142
 360	3.5721e+01	14.2761	55.232054	0.000243	2.433292	0.824422	0.000097
 361	3.5820e+01	14.3130	55.381428	0.000375	3.751325	1.270983	0.000150
 362	3.5919e+01	14.3515	55.490431	0.000274	2.737453	0.927474	0.000110
 363	3.6019e+01	14.3916	55.611545	0.000304	3.041615	1.030527	0.000122
 364	3.6118e+01	14.4301	55.748807	0.000345	3.447163	1.167930	0.000138
 365	3.6218e+01	14.4734	55.894144	0.000365	3.649937	1.236632	0.000146
 366	3.6318e+01	14.5167	56.023333	0.000324	3.244389	1.099229	0.000130
 367	3.6417e+01	14.5536	56.120224	0.000243	2.433292	0.824422	0.000097
 368	3.6517e+01	14.5905	56.273635	0.000385	3.852712	1.305334	0.000154
 369	3.6616e+01	14.6370	56.406861	0.000335	3.345776	1.133580	0.000134
 370	3.6715e+01	14.6739	56.519900	0.000284	2.838840	0.961825	0.000114
 371	3.6815e+01	14.7108	56.649089	0.000324	3.244389	1.099229	0.000130
 372	3.6914e+01	14.7589	56.810574	0.000406	4.055486	1.374036	0.000162
 373	3.7014e+01	14.7910	56.911502	0.000253	2.534679	0.858772	0.000101
 374	3.7114e+01	14.8311	57.056839	0.000365	3.649937	1.236632	0.000146
 375	3.7213e+01	14.8728	57.181991	0.000314	3.143002	1.064878	0.000126
 376	3.7313e+01	14.9081	57.311179	0.000324	3.244389	1.099229	0.000130
 377	3.7412e+01	14.9482	57.456516	0.000365	3.649937	1.236632	0.000146
 378	3.7511e+01	14.9916	57.529184	0.000182	1.824969	0.618316	0.000073
 379	3.7611e+01	15.0204	57.670484	0.000355	3.548550	1.202281	0.000142
 380	3.7711e+01	15.0734	57.807747	0.000345	3.447163	1.167930	0.000138
 381	3.7810e+01	15.0974	57.949046	0.000355	3.548550	1.202281	0.000142
 382	3.7910e+01	15.1520	58.058049	0.000274	2.737453	0.927474	0.000110
 383	3.8009e+01	15.1841	58.183200	0.000314	3.143002	1.064878	0.000126
 384	3.8108e+01	15.2274	58.300277	0.000294	2.940227	0.996176	0.000118
 385	3.8208e+01	15.2675	58.429466	0.000324	3.244389	1.099229	0.000130
 386	3.8307e+01	15.3108	58.566728	0.000345	3.447163	1.167930	0.000138
 387	3.8407e+01	15.3557	58.708028	0.000355	3.548550	1.202281	0.000142
 388	3.8507e+01	15.3878	58.837216	0.000324	3.244389	1.099229	0.000130
 389	3.8606e+01	15.4231	58.865476	0.000071	0.709710	0.240456	0.000028
 390	3.8706e+01	15.4760	59.026962	0.000406	4.055486	1.374036	0.000162
 391	3.8805e+01	15.5145	59.216707	0.000477	4.765196	1.614492	0.000191
 392	3.8904e+01	15.5498	59.309561	0.000233	2.331904	0.790071	0.000093
 393	3.9004e+01	15.5899	59.418564	0.000274	2.737453	0.927474	0.000110
 394	3.9103e+01	15.6252	59.547752	0.000324	3.244389	1.099229	0.000130
 395	3.9203e+01	15.6637	59.680978	0.000335	3.345776	1.133580	0.000134
 396	3.9303e+01	15.7070	59.777869	0.000243	2.433292	0.824422	0.000097
 397	3.9402e+01	15.7504	59.911094	0.000335	3.345776	1.133580	0.000134
 398	3.9502e+01	15.7840	60.036246	0.000314	3.143002	1.064878	0.000126
 399	3.9601e+01	15.8274	60.181582	0.000365	3.649937	1.236632	0.000146
 400	3.9700e+01	15.8723	60.294622	0.000284	2.838840	0.961825	0.000114
 401	3.9800e+01	15.9060	60.411699	0.000294	2.940227	0.996176	0.000118
 402	3.9900e+01	15.9493	60.532813	0.000304	3.041615	1.030527	0.000122
 403	3.9999e+01	15.9798	60.690262	0.000395	3.954099	1.339685	0.000158
 404	4.0099e+01	16.0279	60.762930	0.000182	1.824969	0.618316	0.000073
 405	4.0198e+01	16.0664	60.916341	0.000385	3.852712	1.305334	0.000154
 406	4.0297e+01	16.1081	61.017270	0.000253	2.534679	0.858772	0.000101
 407	4.0397e+01	16.1482	61.150495	0.000335	3.345776	1.133580	0.000134
 408	4.0496e+01	16.1755	61.295832	0.000365	3.649937	1.236632	0.000146
 409	4.0596e+01	16.2284	61.420983	0.000314	3.143002	1.064878	0.000126
 410	4.0696e+01	16.2733	61.546134	0.000314	3.143002	1.064878	0.000126
 411	4.0795e+01	16.3054	61.667248	0.000304	3.041615	1.030527	0.000122
 412	4.0895e+01	16.3455	61.780288	0.000284	2.838840	0.961825	0.000114
 413	4.0994e+01	16.3776	61.881217	0.000253	2.534679	0.858772	0.000101
 414	4.1093e+01	16.4225	62.034628	0.000385	3.852712	1.305334	0.000154
 415	4.1193e+01	16.4610	62.179965	0.000365	3.649937	1.236632	0.000146
 416	4.1292e+01	16.5092	62.288967	0.000274	2.737453	0.927474	0.000110
 417	4.1392e+01	16.5380	62.402007	0.000284	2.838840	0.961825	0.000114
 418	4.1492e+01	16.5862	62.539270	0.000345	3.447163	1.167930	0.000138
 419	4.1591e+01	16.6263	62.615975	0.000193	1.926356	0.652667	0.000077
 420	4.1691e+01	16.6648	62.773424	0.000395	3.954099	1.339685	0.000158
 421	4.1790e+01	16.7097	62.886463	0.000284	2.838840	0.961825	0.000114
 422	4.1889e+01	16.7482	63.023726	0.000345	3.447163	1.167930	0.000138
 423	4.1989e+01	16.7819	63.136766	0.000284	2.838840	0.961825	0.000114
 424	4.2089e+01	16.8300	63.269991	0.000335	3.345776	1.133580	0.000134
 425	4.2188e+01	16.8541	63.378994	0.000274	2.737453	0.927474	0.000110
 426	4.2288e+01	16.9038	63.536442	0.000395	3.954099	1.339685	0.000158
 427	4.2387e+01	16.9439	63.673705	0.000345	3.447163	1.167930	0.000138
 428	4.2486e+01	16.9840	63.770596	0.000243	2.433292	0.824422	0.000097
 429	4.2586e+01	17.0370	63.911896	0.000355	3.548550	1.202281	0.000142
 430	4.2685e+01	17.0562	63.996676	0.000213	2.129130	0.721369	0.000085
 431	4.2785e+01	17.0947	64.113753	0.000294	2.940227	0.996176	0.000118
 432	4.2885e+01	17.1428	64.251015	0.000345	3.447163	1.167930	0.000138
 433	4.2984e+01	17.1797	64.388278	0.000345	3.447163	1.167930	0.000138
 434	4.3084e+01	17.2279	64.493243	0.000264	2.636066	0.893123	0.000105
 435	4.3183e+01	17.2583	64.622432	0.000324	3.244389	1.099229	0.000130
 436	4.3282e+01	17.3049	64.767769	0.000365	3.649937	1.236632	0.000146
 437	4.3382e+01	17.3321	64.896957	0.000324	3.244389	1.099229	0.000130
 438	4.3481e+01	17.3803	64.977700	0.000203	2.027743	0.687018	0.000081
 439	4.3581e+01	17.4220	65.127074	0.000375	3.751325	1.270983	0.000150
 440	4.3681e+01	17.4637	65.244151	0.000294	2.940227	0.996176	0.000118
 441	4.3780e+01	17.4958	65.341042	0.000243	2.433292	0.824422	0.000097
 442	4.3880e+01	17.5359	65.441970	0.000253	2.534679	0.858772	0.000101
 443	4.3979e+01	17.5856	65.603456	0.000406	4.055486	1.374036	0.000162
 444	4.4078e+01	17.6193	65.700347	0.000243	2.433292	0.824422	0.000097
 445	4.4178e+01	17.6562	65.849721	0.000375	3.751325	1.270983	0.000150
 446	4.4278e+01	17.6947	65.958724	0.000274	2.737453	0.927474	0.000110
 447	4.4377e+01	17.7444	66.051578	0.000233	2.331904	0.790071	0.000093
 448	4.4477e+01	17.7813	66.156543	0.000264	2.636066	0.893123	0.000105
 449	4.4576e+01	17.8198	66.285732	0.000324	3.244389	1.099229	0.000130
 450	4.4675e+01	17.8631	66.414920	0.000324	3.244389	1.099229	0.000130
 451	4.4775e+01	17.9000	66.568331	0.000385	3.852712	1.305334	0.000154
 452	4.4874e+01	17.9449	66.649074	0.000203	2.027743	0.687018	0.000081
 453	4.4974e+01	17.9867	66.745965	0.000243	2.433292	0.824422	0.000097
 454	4.5074e+01	18.0236	66.899376	0.000385	3.852712	1.305334	0.000154
 455	4.5173e+01	18.0669	67.004342	0.000264	2.636066	0.893123	0.000105
 456	4.5273e+01	18.0861	67.129493	0.000314	3.143002	1.064878	0.000126
 457	4.5372e+01	18.1326	67.246570	0.000294	2.940227	0.996176	0.000118
 458	4.5471e+01	18.1792	67.359610	0.000284	2.838840	0.961825	0.000114
 459	4.5571e+01	18.2161	67.464575	0.000264	2.636066	0.893123	0.000105
 460	4.5670e+01	18.2546	67.569541	0.000264	2.636066	0.893123	0.000105
 461	4.5770e+01	18.2899	67.702766	0.000335	3.345776	1.133580	0.000134
 462	4.5870e+01	18.3476	67.827918	0.000314	3.143002	1.064878	0.000126
 463	4.5969e+01	18.3765	67.908660	0.000203	2.027743	0.687018	0.000081
 464	4.6069e+01	18.4166	68.053997	0.000365	3.649937	1.236632	0.000146
 465	4.6168e+01	18.4567	68.199334	0.000365	3.649937	1.236632	0.000146
 466	4.6267e+01	18.4952	68.312374	0.000284	2.838840	0.961825	0.000114
 467	4.6367e+01	18.5369	68.465785	0.000385	3.852712	1.305334	0.000154
 468	4.6467e+01	18.5834	68.530379	0.000162	1.622194	0.549614	0.000065
 469	4.6566e+01	18.6155	68.655530	0.000314	3.143002	1.064878	0.000126
 470	4.6666e+01	18.6524	68.756459	0.000253	2.534679	0.858772	0.000101
 471	4.6765e+01	18.6973	68.889684	0.000335	3.345776	1.133580	0.000134
 472	4.6864e+01	18.7326	68.990613	0.000253	2.534679	0.858772	0.000101
 473	4.6964e+01	18.7727	69.099615	0.000274	2.737453	0.927474	0.000110
 474	4.7063e+01	18.8144	69.240915	0.000355	3.548550	1.202281	0.000142
 475	4.7163e+01	18.8529	69.341843	0.000253	2.534679	0.858772	0.000101
 476	4.7263e+01	18.8995	69.438735	0.000243	2.433292	0.824422	0.000097
 477	4.7362e+01	18.9283	69.592146	0.000385	3.852712	1.305334	0.000154
 478	4.7462e+01	18.9733	69.709223	0.000294	2.940227	0.996176	0.000118
 479	4.7561e+01	19.0134	69.818225	0.000274	2.737453	0.927474	0.000110
 480	4.7660e+01	19.0583	69.935302	0.000294	2.940227	0.996176	0.000118
 481	4.7760e+01	19.1000	70.007971	0.000182	1.824969	0.618316	0.000073
 482	4.7859e+01	19.1369	70.177531	0.000426	4.258260	1.442738	0.000170
 483	4.7959e+01	19.1738	70.250199	0.000182	1.824969	0.618316	0.000073
 484	4.8059e+01	19.2235	70.363239	0.000284	2.838840	0.961825	0.000114
 485	4.8158e+01	19.2556	70.480316	0.000294	2.940227	0.996176	0.000118
 486	4.8258e+01	19.2989	70.601430	0.000304	3.041615	1.030527	0.000122
 487	4.8357e+01	19.3294	70.690247	0.000223	2.230517	0.755720	0.000089
 488	4.8456e+01	19.3711	70.835584	0.000365	3.649937	1.236632	0.000146
 489	4.8556e+01	19.4144	70.964772	0.000324	3.244389	1.099229	0.000130
 490	4.8656e+01	19.4465	71.045515	0.000203	2.027743	0.687018	0.000081
 491	4.8755e+01	19.4898	71.150480	0.000264	2.636066	0.893123	0.000105
 492	4.8855e+01	19.5283	71.275631	0.000314	3.143002	1.064878	0.000126
 493	4.8954e+01	19.5765	71.396746	0.000304	3.041615	1.030527	0.000122
 494	4.9053e+01	19.6085	71.505748	0.000274	2.737453	0.927474	0.000110
 495	4.9153e+01	19.6519	71.614751	0.000274	2.737453	0.927474	0.000110
 496	4.9252e+01	19.6936	71.719716	0.000264	2.636066	0.893123	0.000105
 497	4.9352e+01	19.7192	71.824682	0.000264	2.636066	0.893123	0.000105
 498	4.9452e+01	19.7818	71.933685	0.000274	2.737453	0.927474	0.000110
 499	4.9551e+01	19.8219	72.030576	0.000243	2.433292	0.824422	0.000097
 500	4.9651e+01	19.8476	72.171876	0.000355	3.548550	1.202281	0.000142
 501	4.9750e+01	19.8909	72.297027	0.000314	3.143002	1.064878	0.000126
 502	4.9849e+01	19.9374	72.385844	0.000223	2.230517	0.755720	0.000089
 503	4.9949e+01	19.9615	72.486772	0.000253	2.534679	0.858772	0.000101
 504	5.0048e+01	19.9262	72.393918	0.000233	2.331904	0.790071	-0.000093
 505	5.0148e+01	19.8909	72.305101	0.000223	2.230517	0.755720	-0.000089
 506	5.0248e+01	19.8492	72.200136	0.000264	2.636066	0.893123	-0.000105
 507	5.0347e+01	19.8107	72.115356	0.000213	2.129130	0.721369	-0.000085
 508	5.0447e+01	19.7738	72.038650	0.000193	1.926356	0.652667	-0.000077
 509	5.0546e+01	19.7353	71.941759	0.000243	2.433292	0.824422	-0.000097
 510	5.0645e+01	19.6920	71.844868	0.000243	2.433292	0.824422	-0.000097
 511	5.0745e+01	19.6519	71.768162	0.000193	1.926356	0.652667	-0.000077
 512	5.0844e+01	19.6053	71.647048	0.000304	3.041615	1.030527	-0.000122
 513	5.0944e+01	19.5652	71.578417	0.000172	1.723582	0.583965	-0.000069
 514	5.1044e+01	19.5396	71.469414	0.000274	2.737453	0.927474	-0.000110
 515	5.1143e+01	19.4930	71.360411	0.000274	2.737453	0.927474	-0.000110
 516	5.1242e+01	19.4465	71.271594	0.000223	2.230517	0.755720	-0.000089
 517	5.1342e+01	19.4128	71.174703	0.000243	2.433292	0.824422	-0.000097
 518	5.1441e+01	19.3711	71.081849	0.000233	2.331904	0.790071	-0.000093
 519	5.1541e+01	19.3310	70.984958	0.000243	2.433292	0.824422	-0.000097
 520	5.1641e+01	19.2957	70.859806	0.000314	3.143002	1.064878	-0.000126
 521	5.1740e+01	19.2540	70.811361	0.000122	1.216646	0.412211	-0.000049
 522	5.1840e+01	19.2091	70.682173	0.000324	3.244389	1.099229	-0.000130
 523	5.1939e+01	19.1802	70.621615	0.000152	1.520807	0.515263	-0.000061
 524	5.2038e+01	19.1289	70.508576	0.000284	2.838840	0.961825	-0.000114
 525	5.2138e+01	19.0840	70.411684	0.000243	2.433292	0.824422	-0.000097
 526	5.2237e+01	19.0551	70.294607	0.000294	2.940227	0.996176	-0.000118
 527	5.2337e+01	19.0118	70.181568	0.000284	2.838840	0.961825	-0.000114
 528	5.2437e+01	18.9813	70.121011	0.000152	1.520807	0.515263	-0.000061
 529	5.2536e+01	18.9428	69.967599	0.000385	3.852712	1.305334	-0.000154
 530	5.2636e+01	18.8898	69.894931	0.000182	1.824969	0.618316	-0.000073
 531	5.2735e+01	18.8545	69.806114	0.000223	2.230517	0.755720	-0.000089
 532	5.2834e+01	18.8144	69.689037	0.000294	2.940227	0.996176	-0.000118
 533	5.2934e+01	18.7791	69.600220	0.000223	2.230517	0.755720	-0.000089
 534	5.3033e+01	18.7358	69.539663	0.000152	1.520807	0.515263	-0.000061
 535	5.3133e+01	18.6909	69.366066	0.000436	4.359648	1.477089	-0.000174
 536	5.3233e+01	18.6604	69.257064	0.000274	2.737453	0.927474	-0.000110
 537	5.3332e+01	18.6219	69.200544	0.000142	1.419420	0.480913	-0.000057
 538	5.3431e+01	18.5818	69.087504	0.000284	2.838840	0.961825	-0.000114
 539	5.3531e+01	18.5465	69.014835	0.000182	1.824969	0.618316	-0.000073
 540	5.3630e+01	18.5000	68.893721	0.000304	3.041615	1.030527	-0.000122
 541	5.3730e+01	18.4503	68.796830	0.000243	2.433292	0.824422	-0.000097
 542	5.3830e+01	18.4182	68.675716	0.000304	3.041615	1.030527	-0.000122
 543	5.3929e+01	18.3797	68.594973	0.000203	2.027743	0.687018	-0.000081
 544	5.4029e+01	18.3364	68.477896	0.000294	2.940227	0.996176	-0.000118
 545	5.4128e+01	18.2915	68.389079	0.000223	2.230517	0.755720	-0.000089
 546	5.4227e+01	18.2626	68.308337	0.000203	2.027743	0.687018	-0.000081
 547	5.4327e+01	18.2209	68.183185	0.000314	3.143002	1.064878	-0.000126
 548	5.4426e+01	18.1856	68.070146	0.000284	2.838840	0.961825	-0.000114
 549	5.4526e+01	18.1471	67.993440	0.000193	1.926356	0.652667	-0.000077
 550	5.4626e+01	18.0893	67.888475	0.000264	2.636066	0.893123	-0.000105
 551	5.4725e+01	18.0733	67.743138	0.000365	3.649937	1.236632	-0.000146
 552	5.4825e+01	18.0155	67.686618	0.000142	1.419420	0.480913	-0.000057
 553	5.4924e+01	17.9834	67.541281	0.000365	3.649937	1.236632	-0.000146
 554	5.5023e+01	17.9385	67.456501	0.000213	2.129130	0.721369	-0.000085
 555	5.5123e+01	17.8936	67.347498	0.000274	2.737453	0.927474	-0.000110
 556	5.5222e+01	17.8567	67.234459	0.000284	2.838840	0.961825	-0.000114
 557	5.5322e+01	17.8182	67.141604	0.000233	2.331904	0.790071	-0.000093
 558	5.5422e+01	17.7749	67.024528	0.000294	2.940227	0.996176	-0.000118
 559	5.5521e+01	17.7476	66.935711	0.000223	2.230517	0.755720	-0.000089
 560	5.5620e+01	17.6867	66.794411	0.000355	3.548550	1.202281	-0.000142
 561	5.5720e+01	17.6594	66.729817	0.000162	1.622194	0.549614	-0.000065
 562	5.5819e+01	17.6289	66.600628	0.000324	3.244389	1.099229	-0.000130
 563	5.5919e+01	17.5712	66.527960	0.000182	1.824969	0.618316	-0.000073
 564	5.6019e+01	17.5343	66.390697	0.000345	3.447163	1.167930	-0.000138
 565	5.6118e+01	17.5022	66.330140	0.000152	1.520807	0.515263	-0.000061
 566	5.6218e+01	17.4701	66.196915	0.000335	3.345776	1.133580	-0.000134
 567	5.6317e+01	17.4204	66.079838	0.000294	2.940227	0.996176	-0.000118
 568	5.6416e+01	17.3819	65.978909	0.000253	2.534679	0.858772	-0.000101
 569	5.6516e+01	17.3402	65.861832	0.000294	2.940227	0.996176	-0.000118
 570	5.6615e+01	17.3033	65.768978	0.000233	2.331904	0.790071	-0.000093
 571	5.6715e+01	17.2631	65.684198	0.000213	2.129130	0.721369	-0.000085
 572	5.6815e+01	17.2279	65.518676	0.000416	4.156873	1.408387	-0.000166
 573	5.6914e+01	17.1685	65.454082	0.000162	1.622194	0.549614	-0.000065
 574	5.7014e+01	17.1396	65.337005	0.000294	2.940227	0.996176	-0.000118
 575	5.7113e+01	17.0995	65.260299	0.000193	1.926356	0.652667	-0.000077
 576	5.7212e+01	17.0578	65.151297	0.000274	2.737453	0.927474	-0.000110
 577	5.7312e+01	17.0273	65.030182	0.000304	3.041615	1.030527	-0.000122
 578	5.7411e+01	16.9808	64.953477	0.000193	1.926356	0.652667	-0.000077
 579	5.7511e+01	16.9423	64.791991	0.000406	4.055486	1.374036	-0.000162
 580	5.7611e+01	16.8942	64.691063	0.000253	2.534679	0.858772	-0.000101
 581	5.7710e+01	16.8589	64.622432	0.000172	1.723582	0.583965	-0.000069
 582	5.7809e+01	16.8236	64.489206	0.000335	3.345776	1.133580	-0.000134
 583	5.7909e+01	16.7803	64.388278	0.000253	2.534679	0.858772	-0.000101
 584	5.8008e+01	16.7418	64.283312	0.000264	2.636066	0.893123	-0.000105
 585	5.8108e+01	16.7033	64.146050	0.000345	3.447163	1.167930	-0.000138
 586	5.8208e+01	16.6712	64.065307	0.000203	2.027743	0.687018	-0.000081
 587	5.8307e+01	16.6199	63.968416	0.000243	2.433292	0.824422	-0.000097
 588	5.8407e+01	16.5926	63.875562	0.000233	2.331904	0.790071	-0.000093
 589	5.8506e+01	16.5428	63.766559	0.000274	2.737453	0.927474	-0.000110
 590	5.8605e+01	16.5092	63.637371	0.000324	3.244389	1.099229	-0.000130
 591	5.8705e+01	16.4578	63.520294	0.000294	2.940227	0.996176	-0.000118
 592	5.8804e+01	16.4193	63.451662	0.000172	1.723582	0.583965	-0.000069
 593	5.8904e+01	16.3808	63.374957	0.000193	1.926356	0.652667	-0.000077
 594	5.9004e+01	16.3487	63.225583	0.000375	3.751325	1.270983	-0.000150
 595	5.9103e+01	16.2990	63.128692	0.000243	2.433292	0.824422	-0.000097
 596	5.9203e+01	16.2717	63.007577	0.000304	3.041615	1.030527	-0.000122
 597	5.9302e+01	16.2188	62.910686	0.000243	2.433292	0.824422	-0.000097
 598	5.9401e+01	16.1819	62.801684	0.000274	2.737453	0.927474	-0.000110
 599	5.9501e+01	16.1386	62.684607	0.000294	2.940227	0.996176	-0.000118
 600	5.9600e+01	16.1017	62.599827	0.000213	2.129130	0.721369	-0.000085
 601	5.9700e+01	16.0744	62.474676	0.000314	3.143002	1.064878	-0.000126
 602	5.9800e+01	16.0327	62.357599	0.000294	2.940227	0.996176	-0.000118
 603	5.9899e+01	15.9878	62.284930	0.000182	1.824969	0.618316	-0.000073
 604	5.9998e+01	15.9525	62.175928	0.000274	2.737453	0.927474	-0.000110
 605	6.0098e+01	15.9028	62.058851	0.000294	2.940227	0.996176	-0.000118
 606	6.0197e+01	15.8578	61.909477	0.000375	3.751325	1.270983	-0.000150
 607	6.0297e+01	15.8242	61.844882	0.000162	1.622194	0.549614	-0.000065
 608	6.0397e+01	15.7873	61.747991	0.000243	2.433292	0.824422	-0.000097
 609	6.0496e+01	15.7488	61.638988	0.000274	2.737453	0.927474	-0.000110
 610	6.0596e+01	15.7086	61.513837	0.000314	3.143002	1.064878	-0.000126
 611	6.0695e+01	15.6653	61.404835	0.000274	2.737453	0.927474	-0.000110
 612	6.0794e+01	15.6236	61.267572	0.000345	3.447163	1.167930	-0.000138
 613	6.0894e+01	15.5964	61.178755	0.000223	2.230517	0.755720	-0.000089
 614	6.0993e+01	15.5562	61.057641	0.000304	3.041615	1.030527	-0.000122
 615	6.1093e+01	15.5097	60.936527	0.000304	3.041615	1.030527	-0.000122
 616	6.1193e+01	15.4744	60.823487	0.000284	2.838840	0.961825	-0.000114
 617	6.1292e+01	15.4311	60.738707	0.000213	2.129130	0.721369	-0.000085
 618	6.1392e+01	15.3942	60.621630	0.000294	2.940227	0.996176	-0.000118
 619	6.1491e+01	15.3493	60.480330	0.000355	3.548550	1.202281	-0.000142
 620	6.1590e+01	15.3044	60.383439	0.000243	2.433292	0.824422	-0.000097
 621	6.1690e+01	15.2659	60.250214	0.000335	3.345776	1.133580	-0.000134
 622	6.1789e+01	15.2274	60.125063	0.000314	3.143002	1.064878	-0.000126
 623	6.1889e+01	15.1905	60.040283	0.000213	2.129130	0.721369	-0.000085
 624	6.1989e+01	15.1456	59.907057	0.000335	3.345776	1.133580	-0.000134
 625	6.2088e+01	15.1151	59.826315	0.000203	2.027743	0.687018	-0.000081
 626	6.2188e+01	15.0718	59.737498	0.000223	2.230517	0.755720	-0.000089
 627	6.2287e+01	15.0252	59.604272	0.000335	3.345776	1.133580	-0.000134
 628	6.2386e+01	14.9964	59.458935	0.000365	3.649937	1.236632	-0.000146
 629	6.2486e+01	14.9482	59.398378	0.000152	1.520807	0.515263	-0.000061
 630	6.2586e+01	14.9129	59.289375	0.000274	2.737453	0.927474	-0.000110
 631	6.2685e+01	14.8696	59.180373	0.000274	2.737453	0.927474	-0.000110
 632	6.2785e+01	14.8408	59.022924	0.000395	3.954099	1.339685	-0.000158
 633	6.2884e+01	14.7846	58.913922	0.000274	2.737453	0.927474	-0.000110
 634	6.2983e+01	14.7413	58.796845	0.000294	2.940227	0.996176	-0.000118
 635	6.3083e+01	14.7140	58.716102	0.000203	2.027743	0.687018	-0.000081
 636	6.3182e+01	14.6723	58.594988	0.000304	3.041615	1.030527	-0.000122
 637	6.3282e+01	14.6306	58.473874	0.000304	3.041615	1.030527	-0.000122
 638	6.3382e+01	14.5937	58.336611	0.000345	3.447163	1.167930	-0.000138
 639	6.3481e+01	14.5536	58.227609	0.000274	2.737453	0.927474	-0.000110
 640	6.3581e+01	14.5215	58.126680	0.000253	2.534679	0.858772	-0.000101
 641	6.3680e+01	14.4654	58.009603	0.000294	2.940227	0.996176	-0.000118
 642	6.3779e+01	14.4365	57.916749	0.000233	2.331904	0.790071	-0.000093
 643	6.3879e+01	14.4076	57.779487	0.000345	3.447163	1.167930	-0.000138
 644	6.3978e+01	14.3547	57.638187	0.000355	3.548550	1.202281	-0.000142
 645	6.4078e+01	14.3162	57.504961	0.000335	3.345776	1.133580	-0.000134
 646	6.4177e+01	14.2713	57.416144	0.000223	2.230517	0.755720	-0.000089
 647	6.4277e+01	14.2344	57.319253	0.000243	2.433292	0.824422	-0.000097
 648	6.4376e+01	14.1943	57.194102	0.000314	3.143002	1.064878	-0.000126
 649	6.4476e+01	14.1606	57.068951	0.000314	3.143002	1.064878	-0.000126
 650	6.4576e+01	14.1060	56.923614	0.000365	3.649937	1.236632	-0.000146
 651	6.4675e+01	14.0739	56.798463	0.000314	3.143002	1.064878	-0.000126
 652	6.4775e+01	14.0258	56.697534	0.000253	2.534679	0.858772	-0.000101
 653	6.4874e+01	14.0033	56.612754	0.000213	2.129130	0.721369	-0.000085
 654	6.4974e+01	13.9584	56.439158	0.000436	4.359648	1.477089	-0.000174
 655	6.5073e+01	13.9039	56.301895	0.000345	3.447163	1.167930	-0.000138
 656	6.5172e+01	13.8734	56.245375	0.000142	1.419420	0.480913	-0.000057
 657	6.5272e+01	13.8317	56.128298	0.000294	2.940227	0.996176	-0.000118
 658	6.5371e+01	13.7932	56.007184	0.000304	3.041615	1.030527	-0.000122
 659	6.5471e+01	13.7547	55.873959	0.000335	3.345776	1.133580	-0.000134
 660	6.5570e+01	13.7178	55.773030	0.000253	2.534679	0.858772	-0.000101
 661	6.5670e+01	13.6633	55.655953	0.000294	2.940227	0.996176	-0.000118
 662	6.5769e+01	13.6344	55.518691	0.000345	3.447163	1.167930	-0.000138
 663	6.5869e+01	13.5975	55.389502	0.000324	3.244389	1.099229	-0.000130
 664	6.5969e+01	13.5526	55.284537	0.000264	2.636066	0.893123	-0.000105
 665	6.6068e+01	13.5125	55.167460	0.000294	2.940227	0.996176	-0.000118
 666	6.6168e+01	13.4804	55.034234	0.000335	3.345776	1.133580	-0.000134
 667	6.6267e+01	13.4387	54.949455	0.000213	2.129130	0.721369	-0.000085
 668	6.6367e+01	13.3937	54.792006	0.000395	3.954099	1.339685	-0.000158
 669	6.6466e+01	13.3488	54.638595	0.000385	3.852712	1.305334	-0.000154
 670	6.6566e+01	13.3215	54.545741	0.000233	2.331904	0.790071	-0.000093
 671	6.6665e+01	13.2766	54.420590	0.000314	3.143002	1.064878	-0.000126
 672	6.6764e+01	13.2349	54.295439	0.000314	3.143002	1.064878	-0.000126
 673	6.6864e+01	13.1996	54.158176	0.000345	3.447163	1.167930	-0.000138
 674	6.6963e+01	13.1659	54.057248	0.000253	2.534679	0.858772	-0.000101
 675	6.7063e+01	13.1082	53.944208	0.000284	2.838840	0.961825	-0.000114
 676	6.7162e+01	13.0841	53.819057	0.000314	3.143002	1.064878	-0.000126
 677	6.7262e+01	13.0392	53.645460	0.000436	4.359648	1.477089	-0.000174
 678	6.7362e+01	12.9943	53.524346	0.000304	3.041615	1.030527	-0.000122
 679	6.7461e+01	12.9574	53.395157	0.000324	3.244389	1.099229	-0.000130
 680	6.7561e+01	12.9141	53.290192	0.000264	2.636066	0.893123	-0.000105
 681	6.7660e+01	12.8804	53.169078	0.000304	3.041615	1.030527	-0.000122
 682	6.7760e+01	12.8419	53.052001	0.000294	2.940227	0.996176	-0.000118
 683	6.7859e+01	12.7970	52.934924	0.000294	2.940227	0.996176	-0.000118
 684	6.7959e+01	12.7649	52.789587	0.000365	3.649937	1.236632	-0.000146
 685	6.8058e+01	12.7296	52.680584	0.000274	2.737453	0.927474	-0.000110
 686	6.8157e+01	12.6831	52.531210	0.000375	3.751325	1.270983	-0.000150
 687	6.8257e+01	12.6494	52.389910	0.000355	3.548550	1.202281	-0.000142
 688	6.8356e+01	12.5996	52.268796	0.000304	3.041615	1.030527	-0.000122
 689	6.8456e+01	12.5595	52.159794	0.000274	2.737453	0.927474	-0.000110
 690	6.8555e+01	12.5258	52.058865	0.000253	2.534679	0.858772	-0.000101
 691	6.8655e+01	12.4857	51.929677	0.000324	3.244389	1.099229	-0.000130
 692	6.8754e+01	12.4488	51.764154	0.000416	4.156873	1.408387	-0.000166
 693	6.8854e+01	12.4023	51.639003	0.000314	3.143002	1.064878	-0.000126
 694	6.8954e+01	12.3590	51.513852	0.000314	3.143002	1.064878	-0.000126
 695	6.9053e+01	12.3205	51.400812	0.000284	2.838840	0.961825	-0.000114
 696	6.9153e+01	12.2772	51.287772	0.000284	2.838840	0.961825	-0.000114
 697	6.9252e+01	12.2419	51.114176	0.000436	4.359648	1.477089	-0.000174
 698	6.9352e+01	12.1986	51.033433	0.000203	2.027743	0.687018	-0.000081
 699	6.9451e+01	12.1649	50.912319	0.000304	3.041615	1.030527	-0.000122
 700	6.9550e+01	12.1296	50.730648	0.000456	4.562422	1.545790	-0.000183
 701	6.9650e+01	12.0767	50.629719	0.000253	2.534679	0.858772	-0.000101
 702	6.9749e+01	12.0478	50.488420	0.000355	3.548550	1.202281	-0.000142
 703	6.9849e+01	12.0173	50.359231	0.000324	3.244389	1.099229	-0.000130
 704	6.9948e+01	11.9676	50.238117	0.000304	3.041615	1.030527	-0.000122
 705	7.0048e+01	11.9194	50.129114	0.000274	2.737453	0.927474	-0.000110
 706	7.0147e+01	11.8874	49.967629	0.000406	4.055486	1.374036	-0.000162
 707	7.0247e+01	11.8392	49.858626	0.000274	2.737453	0.927474	-0.000110
 708	7.0347e+01	11.8088	49.733475	0.000314	3.143002	1.064878	-0.000126
 709	7.0446e+01	11.7622	49.616398	0.000294	2.940227	0.996176	-0.000118
 710	7.0546e+01	11.7302	49.499321	0.000294	2.940227	0.996176	-0.000118
 711	7.0645e+01	11.6916	49.333799	0.000416	4.156873	1.408387	-0.000166
 712	7.0745e+01	11.6355	49.184425	0.000375	3.751325	1.270983	-0.000150
 713	7.0844e+01	11.5970	49.047162	0.000345	3.447163	1.167930	-0.000138
 714	7.0944e+01	11.5745	48.938159	0.000274	2.737453	0.927474	-0.000110
 715	7.1043e+01	11.5216	48.788785	0.000375	3.751325	1.270983	-0.000150
 716	7.1142e+01	11.4815	48.695931	0.000233	2.331904	0.790071	-0.000093
 717	7.1242e+01	11.4430	48.534446	0.000406	4.055486	1.374036	-0.000162
 718	7.1341e+01	11.4045	48.421406	0.000284	2.838840	0.961825	-0.000114
 719	7.1441e+01	11.3644	48.320478	0.000253	2.534679	0.858772	-0.000101
 720	7.1540e+01	11.3355	48.163029	0.000395	3.954099	1.339685	-0.000158
 721	7.1640e+01	11.2826	48.054027	0.000274	2.737453	0.927474	-0.000110
 722	7.1740e+01	11.2409	47.880430	0.000436	4.359648	1.477089	-0.000174
 723	7.1839e+01	11.2008	47.747204	0.000335	3.345776	1.133580	-0.000134
 724	7.1939e+01	11.1687	47.654350	0.000233	2.331904	0.790071	-0.000093
 725	7.2038e+01	11.1270	47.480753	0.000436	4.359648	1.477089	-0.000174
 726	7.2138e+01	11.0852	47.375788	0.000264	2.636066	0.893123	-0.000105
 727	7.2237e+01	11.0500	47.242562	0.000335	3.345776	1.133580	-0.000134
 728	7.2337e+01	11.0131	47.121448	0.000304	3.041615	1.030527	-0.000122
 729	7.2436e+01	10.9633	46.943814	0.000446	4.461035	1.511439	-0.000179
 730	7.2535e+01	10.9377	46.826737	0.000294	2.940227	0.996176	-0.000118
 731	7.2635e+01	10.8847	46.681401	0.000365	3.649937	1.236632	-0.000146
 732	7.2734e+01	10.8478	46.544138	0.000345	3.447163	1.167930	-0.000138
 733	7.2834e+01	10.8157	46.467432	0.000193	1.926356	0.652667	-0.000077
 734	7.2933e+01	10.7612	46.293836	0.000436	4.359648	1.477089	-0.000174
 735	7.3033e+01	10.7307	46.152536	0.000355	3.548550	1.202281	-0.000142
 736	7.3132e+01	10.6874	46.047570	0.000264	2.636066	0.893123	-0.000105
 737	7.3232e+01	10.6489	45.902233	0.000365	3.649937	1.236632	-0.000146
 738	7.3332e+01	10.6200	45.728637	0.000436	4.359648	1.477089	-0.000174
 739	7.3431e+01	10.5703	45.623671	0.000264	2.636066	0.893123	-0.000105
 740	7.3531e+01	10.5222	45.478334	0.000365	3.649937	1.236632	-0.000146
 741	7.3630e+01	10.4949	45.373369	0.000264	2.636066	0.893123	-0.000105
 742	7.3730e+01	10.4532	45.211883	0.000406	4.055486	1.374036	-0.000162
 743	7.3829e+01	10.4115	45.086732	0.000314	3.143002	1.064878	-0.000126
 744	7.3928e+01	10.3682	44.953506	0.000335	3.345776	1.133580	-0.000134
 745	7.4028e+01	10.3281	44.816244	0.000345	3.447163	1.167930	-0.000138
 746	7.4127e+01	10.2879	44.674944	0.000355	3.548550	1.202281	-0.000142
 747	7.4227e+01	10.2478	44.557867	0.000294	2.940227	0.996176	-0.000118
 748	7.4326e+01	10.2045	44.424642	0.000335	3.345776	1.133580	-0.000134
 749	7.4426e+01	10.1740	44.299490	0.000314	3.143002	1.064878	-0.000126
 750	7.4525e+01	10.1227	44.129931	0.000426	4.258260	1.442738	-0.000170
 751	7.4625e+01	10.0938	44.000742	0.000324	3.244389	1.099229	-0.000130
 752	7.4725e+01	10.0489	43.847331	0.000385	3.852712	1.305334	-0.000154
 753	7.4824e+01	10.0136	43.742366	0.000264	2.636066	0.893123	-0.000105
 754	7.4924e+01	9.9735	43.605103	0.000345	3.447163	1.167930	-0.000138
 755	7.5023e+01	9.9254	43.451692	0.000385	3.852712	1.305334	-0.000154
 756	7.5123e+01	9.8917	43.314429	0.000345	3.447163	1.167930	-0.000138
 757	7.5222e+01	9.8532	43.225612	0.000223	2.230517	0.755720	-0.000089
 758	7.5322e+01	9.8195	43.056053	0.000426	4.258260	1.442738	-0.000170
 759	7.5421e+01	9.7746	42.918790	0.000345	3.447163	1.167930	-0.000138
 760	7.5520e+01	9.7377	42.785565	0.000335	3.345776	1.133580	-0.000134
 761	7.5620e+01	9.7024	42.676562	0.000274	2.737453	0.927474	-0.000110
 762	7.5719e+01	9.6511	42.519114	0.000395	3.954099	1.339685	-0.000158
 763	7.5819e+01	9.6222	42.393962	0.000314	3.143002	1.064878	-0.000126
 764	7.5918e+01	9.5757	42.252663	0.000355	3.548550	1.202281	-0.000142
 765	7.6018e+01	9.5388	42.111363	0.000355	3.548550	1.202281	-0.000142
 766	7.6118e+01	9.4874	41.986212	0.000314	3.143002	1.064878	-0.000126
 767	7.6217e+01	9.4505	41.832801	0.000385	3.852712	1.305334	-0.000154
 768	7.6317e+01	9.4024	41.707649	0.000314	3.143002	1.064878	-0.000126
 769	7.6416e+01	9.3719	41.554238	0.000385	3.852712	1.305334	-0.000154
 770	7.6516e+01	9.3286	41.433124	0.000304	3.041615	1.030527	-0.000122
 771	7.6615e+01	9.2981	41.271639	0.000406	4.055486	1.374036	-0.000162
 772	7.6715e+01	9.2548	41.158599	0.000284	2.838840	0.961825	-0.000114
 773	7.6814e+01	9.2211	41.037485	0.000304	3.041615	1.030527	-0.000122
 774	7.6913e+01	9.1794	40.880036	0.000395	3.954099	1.339685	-0.000158
 775	7.7013e+01	9.1393	40.706440	0.000436	4.359648	1.477089	-0.000174
 776	7.7112e+01	9.0944	40.581288	0.000314	3.143002	1.064878	-0.000126
 777	7.7212e+01	9.0527	40.423840	0.000395	3.954099	1.339685	-0.000158
 778	7.7311e+01	9.0206	40.310800	0.000284	2.838840	0.961825	-0.000114
 779	7.7411e+01	8.9789	40.181612	0.000324	3.244389	1.099229	-0.000130
 780	7.7510e+01	8.9340	39.991867	0.000477	4.765196	1.614492	-0.000191
 781	7.7610e+01	8.8955	39.886901	0.000264	2.636066	0.893123	-0.000105
 782	7.7710e+01	8.8602	39.749638	0.000345	3.447163	1.167930	-0.000138
 783	7.7809e+01	8.8169	39.608339	0.000355	3.548550	1.202281	-0.000142
 784	7.7909e+01	8.7816	39.487225	0.000304	3.041615	1.030527	-0.000122
 785	7.8008e+01	8.7318	39.317665	0.000426	4.258260	1.442738	-0.000170
 786	7.8108e+01	8.7046	39.188477	0.000324	3.244389	1.099229	-0.000130
 787	7.8207e+01	8.6500	39.051214	0.000345	3.447163	1.167930	-0.000138
 788	7.8306e+01	8.6163	38.897803	0.000385	3.852712	1.305334	-0.000154
 789	7.8406e+01	8.5730	38.720169	0.000446	4.461035	1.511439	-0.000179
 790	7.8505e+01	8.5313	38.554646	0.000416	4.156873	1.408387	-0.000166
 791	7.8605e+01	8.4928	38.441606	0.000284	2.838840	0.961825	-0.000114
 792	7.8704e+01	8.4591	38.300307	0.000355	3.548550	1.202281	-0.000142
 793	7.8804e+01	8.4142	38.150933	0.000375	3.751325	1.270983	-0.000150
 794	7.8903e+01	8.3789	38.009633	0.000355	3.548550	1.202281	-0.000142
 795	7.9003e+01	8.3452	37.884482	0.000314	3.143002	1.064878	-0.000126
 796	7.9103e+01	8.3003	37.739145	0.000365	3.649937	1.236632	-0.000146
 797	7.9202e+01	8.2554	37.545362	0.000487	4.866583	1.648843	-0.000195
 798	7.9302e+01	8.2201	37.448471	0.000243	2.433292	0.824422	-0.000097
 799	7.9401e+01	8.1736	37.307171	0.000355	3.548550	1.202281	-0.000142
 800	7.9501e+01	8.1399	37.157797	0.000375	3.751325	1.270983	-0.000150
 801	7.9600e+01	8.0950	36.996312	0.000406	4.055486	1.374036	-0.000162
 802	7.9700e+01	8.0613	36.838864	0.000395	3.954099	1.339685	-0.000158
 803	7.9799e+01	8.0147	36.705638	0.000335	3.345776	1.133580	-0.000134
 804	7.9898e+01	7.9827	36.572413	0.000335	3.345776	1.133580	-0.000134
 805	7.9998e+01	7.9361	36.427076	0.000365	3.649937	1.236632	-0.000146
 806	8.0097e+01	7.9073	36.261553	0.000416	4.156873	1.408387	-0.000166
 807	8.0197e+01	7.8559	36.140439	0.000304	3.041615	1.030527	-0.000122
 808	8.0296e+01	7.8158	35.982991	0.000395	3.954099	1.339685	-0.000158
 809	8.0396e+01	7.7757	35.829580	0.000385	3.852712	1.305334	-0.000154
 810	8.0496e+01	7.7468	35.708466	0.000304	3.041615	1.030527	-0.000122
 811	8.0595e+01	7.6971	35.522757	0.000466	4.663809	1.580141	-0.000187
 812	8.0695e+01	7.6650	35.381458	0.000355	3.548550	1.202281	-0.000142
 813	8.0794e+01	7.6265	35.219972	0.000406	4.055486	1.374036	-0.000162
 814	8.0894e+01	7.5864	35.115007	0.000264	2.636066	0.893123	-0.000105
 815	8.0993e+01	7.5431	34.941410	0.000436	4.359648	1.477089	-0.000174
 816	8.1093e+01	7.4966	34.775887	0.000416	4.156873	1.408387	-0.000166
 817	8.1192e+01	7.4597	34.650736	0.000314	3.143002	1.064878	-0.000126
 818	8.1291e+01	7.4180	34.465028	0.000466	4.663809	1.580141	-0.000187
 819	8.1391e+01	7.3843	34.339877	0.000314	3.143002	1.064878	-0.000126
 820	8.1490e+01	7.3458	34.206651	0.000335	3.345776	1.133580	-0.000134
 821	8.1590e+01	7.3057	34.020943	0.000466	4.663809	1.580141	-0.000187
 822	8.1689e+01	7.2624	33.891755	0.000324	3.244389	1.099229	-0.000130
 823	8.1789e+01	7.2174	33.754492	0.000345	3.447163	1.167930	-0.000138
 824	8.1888e+01	7.1870	33.528412	0.000568	5.677681	1.923650	-0.000227
 825	8.1988e+01	7.1340	33.431521	0.000243	2.433292	0.824422	-0.000097
 826	8.2088e+01	7.1051	33.237739	0.000487	4.866583	1.648843	-0.000195
 827	8.2187e+01	7.0570	33.100476	0.000345	3.447163	1.167930	-0.000138
 828	8.2287e+01	7.0249	32.930916	0.000426	4.258260	1.442738	-0.000170
 829	8.2386e+01	6.9752	32.813839	0.000294	2.940227	0.996176	-0.000118
 830	8.2486e+01	6.9447	32.640242	0.000436	4.359648	1.477089	-0.000174
 831	8.2585e+01	6.9046	32.527203	0.000284	2.838840	0.961825	-0.000114
 832	8.2684e+01	6.8661	32.341494	0.000466	4.663809	1.580141	-0.000187
 833	8.2784e+01	6.8196	32.143675	0.000497	4.967970	1.683194	-0.000199
 834	8.2883e+01	6.7939	32.046783	0.000243	2.433292	0.824422	-0.000097
 835	8.2983e+01	6.7394	31.853001	0.000487	4.866583	1.648843	-0.000195
 836	8.3082e+01	6.7041	31.695553	0.000395	3.954099	1.339685	-0.000158
 837	8.3182e+01	6.6544	31.574439	0.000304	3.041615	1.030527	-0.000122
 838	8.3281e+01	6.6287	31.392767	0.000456	4.562422	1.545790	-0.000183
 839	8.3381e+01	6.5741	31.255505	0.000345	3.447163	1.167930	-0.000138
 840	8.3481e+01	6.5437	31.094019	0.000406	4.055486	1.374036	-0.000162
 841	8.3580e+01	6.5036	30.924460	0.000426	4.258260	1.442738	-0.000170
 842	8.3680e+01	6.4699	30.787197	0.000345	3.447163	1.167930	-0.000138
 843	8.3779e+01	6.4266	30.585340	0.000507	5.069358	1.717545	-0.000203
 844	8.3879e+01	6.3881	30.488449	0.000243	2.433292	0.824422	-0.000097
 845	8.3978e+01	6.3463	30.298704	0.000477	4.765196	1.614492	-0.000191
 846	8.4078e+01	6.2966	30.133181	0.000416	4.156873	1.408387	-0.000166
 847	8.4177e+01	6.2677	29.995919	0.000345	3.447163	1.167930	-0.000138
 848	8.4276e+01	6.2244	29.810210	0.000466	4.663809	1.580141	-0.000187
 849	8.4376e+01	6.1891	29.636613	0.000436	4.359648	1.477089	-0.000174
 850	8.4475e+01	6.1442	29.463017	0.000436	4.359648	1.477089	-0.000174
 851	8.4575e+01	6.1057	29.398422	0.000162	1.622194	0.549614	-0.000065
 852	8.4674e+01	6.0752	29.168306	0.000578	5.779068	1.958001	-0.000231
 853	8.4774e+01	6.0319	28.970486	0.000497	4.967970	1.683194	-0.000199
 854	8.4874e+01	5.9966	28.845335	0.000314	3.143002	1.064878	-0.000126
 855	8.4973e+01	5.9437	28.671738	0.000436	4.359648	1.477089	-0.000174
 856	8.5073e+01	5.9052	28.481993	0.000477	4.765196	1.614492	-0.000191
 857	8.5172e+01	5.8699	28.372990	0.000274	2.737453	0.927474	-0.000110
 858	8.5272e+01	5.8266	28.159022	0.000537	5.373519	1.820598	-0.000215
 859	8.5371e+01	5.7897	28.041945	0.000294	2.940227	0.996176	-0.000118
 860	8.5471e+01	5.7512	27.852199	0.000477	4.765196	1.614492	-0.000191
 861	8.5570e+01	5.7095	27.767420	0.000213	2.129130	0.721369	-0.000085
 862	8.5669e+01	5.6758	27.569600	0.000497	4.967970	1.683194	-0.000199
 863	8.5769e+01	5.6260	27.408115	0.000406	4.055486	1.374036	-0.000162
 864	8.5868e+01	5.5811	27.214332	0.000487	4.866583	1.648843	-0.000195
 865	8.5968e+01	5.5474	27.081107	0.000335	3.345776	1.133580	-0.000134
 866	8.6067e+01	5.5105	26.895398	0.000466	4.663809	1.580141	-0.000187
 867	8.6167e+01	5.4720	26.770247	0.000314	3.143002	1.064878	-0.000126
 868	8.6266e+01	5.4432	26.556279	0.000537	5.373519	1.820598	-0.000215
 869	8.6366e+01	5.3854	26.410942	0.000365	3.649937	1.236632	-0.000146
 870	8.6466e+01	5.3549	26.281754	0.000324	3.244389	1.099229	-0.000130
 871	8.6565e+01	5.3100	26.087971	0.000487	4.866583	1.648843	-0.000195
 872	8.6665e+01	5.2747	25.942634	0.000365	3.649937	1.236632	-0.000146
 873	8.6764e+01	5.2282	25.756926	0.000466	4.663809	1.580141	-0.000187
 874	8.6864e+01	5.1897	25.603515	0.000385	3.852712	1.305334	-0.000154
 875	8.6963e+01	5.1544	25.421844	0.000456	4.562422	1.545790	-0.000183
 876	8.7063e+01	5.1063	25.264395	0.000395	3.954099	1.339685	-0.000158
 877	8.7162e+01	5.0726	25.119059	0.000365	3.649937	1.236632	-0.000146
 878	8.7261e+01	5.0405	24.933350	0.000466	4.663809	1.580141	-0.000187
 879	8.7361e+01	4.9956	24.783976	0.000375	3.751325	1.270983	-0.000150
 880	8.7460e+01	4.9523	24.594231	0.000477	4.765196	1.614492	-0.000191
 881	8.7560e+01	4.9218	24.444857	0.000375	3.751325	1.270983	-0.000150
 882	8.7659e+01	4.8688	24.279334	0.000416	4.156873	1.408387	-0.000166
 883	8.7759e+01	4.8319	24.085552	0.000487	4.866583	1.648843	-0.000195
 884	8.7859e+01	4.7951	23.952326	0.000335	3.345776	1.133580	-0.000134
 885	8.7958e+01	4.7517	23.750470	0.000507	5.069358	1.717545	-0.000203
 886	8.8058e+01	4.7084	23.593021	0.000395	3.954099	1.339685	-0.000158
 887	8.8157e+01	4.6779	23.431536	0.000406	4.055486	1.374036	-0.000162
 888	8.8257e+01	4.6410	23.298310	0.000335	3.345776	1.133580	-0.000134
 889	8.8356e+01	4.5961	23.124714	0.000436	4.359648	1.477089	-0.000174
 890	8.8456e+01	4.5512	22.918820	0.000517	5.170745	1.751896	-0.000207
 891	8.8555e+01	4.5079	22.753297	0.000416	4.156873	1.408387	-0.000166
 892	8.8654e+01	4.4726	22.583737	0.000426	4.258260	1.442738	-0.000170
 893	8.8754e+01	4.4389	22.450512	0.000335	3.345776	1.133580	-0.000134
 894	8.8853e+01	4.3956	22.256729	0.000487	4.866583	1.648843	-0.000195
 895	8.8953e+01	4.3475	22.147727	0.000274	2.737453	0.927474	-0.000110
 896	8.9052e+01	4.3218	21.901461	0.000618	6.184616	2.095405	-0.000248
 897	8.9152e+01	4.2801	21.752087	0.000375	3.751325	1.270983	-0.000150
 898	8.9251e+01	4.2352	21.606750	0.000365	3.649937	1.236632	-0.000146
 899	8.9351e+01	4.1999	21.408931	0.000497	4.967970	1.683194	-0.000199
 900	8.9451e+01	4.1598	21.235334	0.000436	4.359648	1.477089	-0.000174
 901	8.9550e+01	4.1165	21.065774	0.000426	4.258260	1.442738	-0.000170
 902	8.9650e+01	4.0715	20.936586	0.000324	3.244389	1.099229	-0.000130
 903	8.9749e+01	4.0395	20.754915	0.000456	4.562422	1.545790	-0.000183
 904	8.9849e+01	3.9897	20.601504	0.000385	3.852712	1.305334	-0.000154
 905	8.9948e+01	3.9560	20.379461	0.000558	5.576293	1.889299	-0.000223
 906	9.0047e+01	3.9111	20.242199	0.000345	3.447163	1.167930	-0.000138
 907	9.0147e+01	3.8790	20.056490	0.000466	4.663809	1.580141	-0.000187
 908	9.0246e+01	3.8325	19.862708	0.000487	4.866583	1.648843	-0.000195
 909	9.0346e+01	3.7956	19.713334	0.000375	3.751325	1.270983	-0.000150
 910	9.0445e+01	3.7539	19.547811	0.000416	4.156873	1.408387	-0.000166
 911	9.0545e+01	3.7202	19.378252	0.000426	4.258260	1.442738	-0.000170
 912	9.0644e+01	3.6833	19.192543	0.000466	4.663809	1.580141	-0.000187
 913	9.0744e+01	3.6368	19.006835	0.000466	4.663809	1.580141	-0.000187
 914	9.0844e+01	3.5951	18.881684	0.000314	3.143002	1.064878	-0.000126
 915	9.0943e+01	3.5550	18.679827	0.000507	5.069358	1.717545	-0.000203
 916	9.1043e+01	3.5133	18.534490	0.000365	3.649937	1.236632	-0.000146
 917	9.1142e+01	3.4844	18.348782	0.000466	4.663809	1.580141	-0.000187
 918	9.1242e+01	3.4363	18.183259	0.000416	4.156873	1.408387	-0.000166
 919	9.1341e+01	3.3962	18.001588	0.000456	4.562422	1.545790	-0.000183
 920	9.1441e+01	3.3609	17.799731	0.000507	5.069358	1.717545	-0.000203
 921	9.1540e+01	3.3208	17.658432	0.000355	3.548550	1.202281	-0.000142
 922	9.1639e+01	3.2791	17.472723	0.000466	4.663809	1.580141	-0.000187
 923	9.1739e+01	3.2277	17.327387	0.000365	3.649937	1.236632	-0.000146
 924	9.1838e+01	3.2069	17.178013	0.000375	3.751325	1.270983	-0.000150
 925	9.1938e+01	3.1635	16.976156	0.000507	5.069358	1.717545	-0.000203
 926	9.2037e+01	3.1186	16.778336	0.000497	4.967970	1.683194	-0.000199
 927	9.2137e+01	3.0785	16.624925	0.000385	3.852712	1.305334	-0.000154
 928	9.2237e+01	3.0304	16.475551	0.000375	3.751325	1.270983	-0.000150
 929	9.2336e+01	2.9999	16.273694	0.000507	5.069358	1.717545	-0.000203
 930	9.2436e+01	2.9710	16.136432	0.000345	3.447163	1.167930	-0.000138
 931	9.2535e+01	2.9197	15.987058	0.000375	3.751325	1.270983	-0.000150
 932	9.2635e+01	2.8748	15.793275	0.000487	4.866583	1.648843	-0.000195
 933	9.2734e+01	2.8459	15.599492	0.000487	4.866583	1.648843	-0.000195
 934	9.2834e+01	2.8026	15.438007	0.000406	4.055486	1.374036	-0.000162
 935	9.2933e+01	2.7545	15.203853	0.000588	5.880455	1.992352	-0.000235
 936	9.3032e+01	2.7128	15.078702	0.000314	3.143002	1.064878	-0.000126
 937	9.3132e+01	2.6807	14.917217	0.000406	4.055486	1.374036	-0.000162
 938	9.3231e+01	2.6358	14.731508	0.000466	4.663809	1.580141	-0.000187
 939	9.3331e+01	2.5956	14.570023	0.000406	4.055486	1.374036	-0.000162
 940	9.3430e+01	2.5555	14.392389	0.000446	4.461035	1.511439	-0.000179
 941	9.3530e+01	2.5299	14.206681	0.000466	4.663809	1.580141	-0.000187
 942	9.3629e+01	2.4817	14.020972	0.000466	4.663809	1.580141	-0.000187
 943	9.3729e+01	2.4384	13.823153	0.000497	4.967970	1.683194	-0.000199
 944	9.3829e+01	2.4047	13.689927	0.000335	3.345776	1.133580	-0.000134
 945	9.3928e+01	2.3614	13.504219	0.000466	4.663809	1.580141	-0.000187
 946	9.4028e+01	2.3277	13.354845	0.000375	3.751325	1.270983	-0.000150
 947	9.4127e+01	2.2732	13.140877	0.000537	5.373519	1.820598	-0.000215
 948	9.4227e+01	2.2363	12.995540	0.000365	3.649937	1.236632	-0.000146
 949	9.4326e+01	2.1994	12.801757	0.000487	4.866583	1.648843	-0.000195
 950	9.4425e+01	2.1577	12.636235	0.000416	4.156873	1.408387	-0.000166
 951	9.4525e+01	2.1288	12.426304	0.000527	5.272132	1.786247	-0.000211
 952	9.4624e+01	2.0775	12.260781	0.000416	4.156873	1.408387	-0.000166
 953	9.4724e+01	2.0422	12.079110	0.000456	4.562422	1.545790	-0.000183
 954	9.4823e+01	1.9989	11.861105	0.000547	5.474906	1.854948	-0.000219
 955	9.4923e+01	1.9588	11.744028	0.000294	2.940227	0.996176	-0.000118
 956	9.5022e+01	1.9187	11.505837	0.000598	5.981842	2.026703	-0.000239
 957	9.5122e+01	1.8866	11.388760	0.000294	2.940227	0.996176	-0.000118
 958	9.5222e+01	1.8352	11.170755	0.000547	5.474906	1.854948	-0.000219
 959	9.5321e+01	1.8064	11.001195	0.000426	4.258260	1.442738	-0.000170
 960	9.5421e+01	1.7566	10.843747	0.000395	3.954099	1.339685	-0.000158
 961	9.5520e+01	1.7213	10.658038	0.000466	4.663809	1.580141	-0.000187
 962	9.5620e+01	1.6780	10.448107	0.000527	5.272132	1.786247	-0.000211
 963	9.5719e+01	1.6459	10.282585	0.000416	4.156873	1.408387	-0.000166
 964	9.5819e+01	1.6026	10.072654	0.000527	5.272132	1.786247	-0.000211
 965	9.5918e+01	1.5689	9.927317	0.000365	3.649937	1.236632	-0.000146
 966	9.6017e+01	1.5272	9.781980	0.000365	3.649937	1.236632	-0.000146
 967	9.6117e+01	1.4823	9.576086	0.000517	5.170745	1.751896	-0.000207
 968	9.6216e+01	1.4422	9.398452	0.000446	4.461035	1.511439	-0.000179
 969	9.6316e+01	1.4069	9.204669	0.000487	4.866583	1.648843	-0.000195
 970	9.6415e+01	1.3716	9.039147	0.000416	4.156873	1.408387	-0.000166
 971	9.6515e+01	1.3187	8.861513	0.000446	4.461035	1.511439	-0.000179
 972	9.6615e+01	1.2818	8.659656	0.000507	5.069358	1.717545	-0.000203
 973	9.6714e+01	1.2465	8.482022	0.000446	4.461035	1.511439	-0.000179
 974	9.6814e+01	1.2016	8.344760	0.000345	3.447163	1.167930	-0.000138
 975	9.6913e+01	1.1583	8.122717	0.000558	5.576293	1.889299	-0.000223
 976	9.7013e+01	1.1214	7.932972	0.000477	4.765196	1.614492	-0.000191
 977	9.7112e+01	1.0861	7.759375	0.000436	4.359648	1.477089	-0.000174
 978	9.7212e+01	1.0347	7.610001	0.000375	3.751325	1.270983	-0.000150
 979	9.7311e+01	1.0059	7.375847	0.000588	5.880455	1.992352	-0.000235
 980	9.7410e+01	0.9674	7.226473	0.000375	3.751325	1.270983	-0.000150
 981	9.7510e+01	0.9208	7.032690	0.000487	4.866583	1.648843	-0.000195
 982	9.7609e+01	0.8759	6.842945	0.000477	4.765196	1.614492	-0.000191
 983	9.7709e+01	0.8502	6.661274	0.000456	4.562422	1.545790	-0.000183
 984	9.7808e+01	0.8101	6.491714	0.000426	4.258260	1.442738	-0.000170
 985	9.7908e+01	0.7668	6.269672	0.000558	5.576293	1.889299	-0.000223
 986	9.8007e+01	0.7315	6.144521	0.000314	3.143002	1.064878	-0.000126
 987	9.8107e+01	0.6786	5.954775	0.000477	4.765196	1.614492	-0.000191
 988	9.8207e+01	0.6481	5.732733	0.000558	5.576293	1.889299	-0.000223
 989	9.8306e+01	0.6112	5.555099	0.000446	4.461035	1.511439	-0.000179
 990	9.8406e+01	0.5615	5.349205	0.000517	5.170745	1.751896	-0.000207
 991	9.8505e+01	0.5294	5.143311	0.000517	5.170745	1.751896	-0.000207
 992	9.8605e+01	0.4893	5.014123	0.000324	3.244389	1.099229	-0.000130
 993	9.8704e+01	0.4476	4.779969	0.000588	5.880455	1.992352	-0.000235
 994	9.8803e+01	0.4027	4.638669	0.000355	3.548550	1.202281	-0.000142
 995	9.8903e+01	0.3658	4.469109	0.000426	4.258260	1.442738	-0.000170
 996	9.9002e+01	0.3257	4.279364	0.000477	4.765196	1.614492	-0.000191
 997	9.9102e+01	0.2936	4.101730	0.000446	4.461035	1.511439	-0.000179
 998	9.9201e+01	0.2535	3.895836	0.000517	5.170745	1.751896	-0.000207
 999	9.9301e+01	0.2086	3.706091	0.000477	4.765196	1.614492	-0.000191
1000	9.9400e+01	0.1717	3.516345	0.000477	4.765196	1.614492	-0.000191
1001	9.9500e+01	0.1283	3.383120	0.000335	3.345776	1.133580	-0.000134
1002	9.9600e+01	0.0898	3.132817	0.000629	6.286003	2.129756	-0.000252
1003	9.9699e+01	0.0433	2.951146	0.000456	4.562422	1.545790	-0.000183
1004	9.9799e+01	0.0144	2.789661	0.000406	4.055486	1.374036	-0.000162
1005	9.9898e+01	-0.0209	2.644324	0.000365	3.649937	1.236632	-0.000146
1006	9.9998e+01	-0.0626	2.434393	0.000527	5.272132	1.786247	-0.000211
1007	1.0010e+02	-0.1043	2.252722	0.000456	4.562422	1.545790	-0.000183
1008	1.0020e+02	-0.1508	2.046828	0.000517	5.170745	1.751896	-0.000207
1009	1.0030e+02	-0.1781	1.873231	0.000436	4.359648	1.477089	-0.000174
1010	1.0040e+02	-0.2246	1.675411	0.000497	4.967970	1.683194	-0.000199
1011	1.0050e+02	-0.2711	1.469517	0.000517	5.170745	1.751896	-0.000207
1012	1.0059e+02	-0.3032	1.320143	0.000375	3.751325	1.270983	-0.000150
1013	1.0069e+02	-0.3433	1.110212	0.000527	5.272132	1.786247	-0.000211
1014	1.0079e+02	-0.3834	0.924504	0.000466	4.663809	1.580141	-0.000187
1015	1.0089e+02	-0.4171	0.763019	0.000406	4.055486	1.374036	-0.000162
1016	1.0099e+02	-0.4668	0.557125	0.000517	5.170745	1.751896	-0.000207
1017	1.0109e+02	-0.5085	0.351231	0.000517	5.170745	1.751896	-0.000207
1018	1.0119e+02	-0.5406	0.153411	0.000497	4.967970	1.683194	-0.000199
1019	1.0129e+02	-0.5727	-0.028260	0.000456	4.562422	1.545790	-0.000183
1020	1.0139e+02	-0.6224	-0.201857	0.000436	4.359648	1.477089	-0.000174
1021	1.0149e+02	-0.6545	-0.375454	0.000436	4.359648	1.477089	-0.000174
1022	1.0159e+02	-0.6962	-0.605570	0.000578	5.779068	1.958001	-0.000231
1023	1.0169e+02	-0.7363	-0.791279	0.000466	4.663809	1.580141	-0.000187
1024	1.0179e+02	-0.7813	-0.960838	0.000426	4.258260	1.442738	-0.000170
1025	1.0189e+02	-0.8150	-1.138472	0.000446	4.461035	1.511439	-0.000179
1026	1.0199e+02	-0.8599	-1.332255	0.000487	4.866583	1.648843	-0.000195
1027	1.0209e+02	-0.8968	-1.530074	0.000497	4.967970	1.683194	-0.000199
1028	1.0219e+02	-0.9385	-1.707708	0.000446	4.461035	1.511439	-0.000179
1029	1.0229e+02	-0.9802	-1.873231	0.000416	4.156873	1.408387	-0.000166
1030	1.0239e+02	-1.0171	-2.091236	0.000547	5.474906	1.854948	-0.000219
1031	1.0248e+02	-1.0668	-2.272907	0.000456	4.562422	1.545790	-0.000183
1032	1.0258e+02	-1.0989	-2.466690	0.000487	4.866583	1.648843	-0.000195
1033	1.0268e+02	-1.1470	-2.648361	0.000456	4.562422	1.545790	-0.000183
1034	1.0278e+02	-1.1775	-2.817921	0.000426	4.258260	1.442738	-0.000170
1035	1.0288e+02	-1.2176	-3.027852	0.000527	5.272132	1.786247	-0.000211
1036	1.0298e+02	-1.2577	-3.205486	0.000446	4.461035	1.511439	-0.000179
1037	1.0308e+02	-1.3026	-3.447714	0.000608	6.083229	2.061054	-0.000243
1038	1.0318e+02	-1.3331	-3.589014	0.000355	3.548550	1.202281	-0.000142
1039	1.0328e+02	-1.3845	-3.802982	0.000537	5.373519	1.820598	-0.000215
1040	1.0338e+02	-1.4246	-3.996764	0.000487	4.866583	1.648843	-0.000195
1041	1.0348e+02	-1.4518	-4.166324	0.000426	4.258260	1.442738	-0.000170
1042	1.0358e+02	-1.4887	-4.315698	0.000375	3.751325	1.270983	-0.000150
1043	1.0368e+02	-1.5449	-4.529666	0.000537	5.373519	1.820598	-0.000215
1044	1.0378e+02	-1.5721	-4.739597	0.000527	5.272132	1.786247	-0.000211
1045	1.0388e+02	-1.6171	-4.897046	0.000395	3.954099	1.339685	-0.000158
1046	1.0398e+02	-1.6572	-5.094865	0.000497	4.967970	1.683194	-0.000199
1047	1.0408e+02	-1.6909	-5.316908	0.000558	5.576293	1.889299	-0.000223
1048	1.0418e+02	-1.7358	-5.425910	0.000274	2.737453	0.927474	-0.000110
1049	1.0428e+02	-1.7823	-5.643916	0.000547	5.474906	1.854948	-0.000219
1050	1.0438e+02	-1.8208	-5.837698	0.000487	4.866583	1.648843	-0.000195
1051	1.0447e+02	-1.8497	-5.991109	0.000385	3.852712	1.305334	-0.000154
1052	1.0457e+02	-1.9010	-6.257560	0.000669	6.691552	2.267159	-0.000268
1053	1.0467e+02	-1.9379	-6.427120	0.000426	4.258260	1.442738	-0.000170
1054	1.0477e+02	-1.9780	-6.612828	0.000466	4.663809	1.580141	-0.000187
1055	1.0487e+02	-2.0165	-6.778351	0.000416	4.156873	1.408387	-0.000166
1056	1.0497e+02	-2.0566	-6.960022	0.000456	4.562422	1.545790	-0.000183
1057	1.0507e+02	-2.0903	-7.117470	0.000395	3.954099	1.339685	-0.000158
1058	1.0517e+02	-2.1352	-7.347587	0.000578	5.779068	1.958001	-0.000231
1059	1.0527e+02	-2.1657	-7.496961	0.000375	3.751325	1.270983	-0.000150
1060	1.0537e+02	-2.2074	-7.710929	0.000537	5.373519	1.820598	-0.000215
1061	1.0547e+02	-2.2523	-7.932972	0.000558	5.576293	1.889299	-0.000223
1062	1.0557e+02	-2.2957	-8.086383	0.000385	3.852712	1.305334	-0.000154
1063	1.0567e+02	-2.3293	-8.243831	0.000395	3.954099	1.339685	-0.000158
1064	1.0577e+02	-2.3775	-8.425502	0.000456	4.562422	1.545790	-0.000183
1065	1.0587e+02	-2.4128	-8.639470	0.000537	5.373519	1.820598	-0.000215
1066	1.0597e+02	-2.4465	-8.853439	0.000537	5.373519	1.820598	-0.000215
1067	1.0607e+02	-2.4850	-8.966478	0.000284	2.838840	0.961825	-0.000114
1068	1.0617e+02	-2.5363	-9.152187	0.000466	4.663809	1.580141	-0.000187
1069	1.0627e+02	-2.5748	-9.382303	0.000578	5.779068	1.958001	-0.000231
1070	1.0637e+02	-2.6133	-9.559937	0.000446	4.461035	1.511439	-0.000179
1071	1.0647e+02	-2.6550	-9.745646	0.000466	4.663809	1.580141	-0.000187
1072	1.0656e+02	-2.6999	-9.935391	0.000477	4.765196	1.614492	-0.000191
1073	1.0666e+02	-2.7304	-10.104951	0.000426	4.258260	1.442738	-0.000170
1074	1.0676e+02	-2.7801	-10.286622	0.000456	4.562422	1.545790	-0.000183
1075	1.0686e+02	-2.8186	-10.435996	0.000375	3.751325	1.270983	-0.000150
1076	1.0696e+02	-2.8571	-10.670150	0.000588	5.880455	1.992352	-0.000235
1077	1.0706e+02	-2.8956	-10.823561	0.000385	3.852712	1.305334	-0.000154
1078	1.0716e+02	-2.9341	-10.997158	0.000436	4.359648	1.477089	-0.000174
1079	1.0726e+02	-2.9807	-11.154606	0.000395	3.954099	1.339685	-0.000158
1080	1.0736e+02	-3.0127	-11.384723	0.000578	5.779068	1.958001	-0.000231
1081	1.0746e+02	-3.0496	-11.582542	0.000497	4.967970	1.683194	-0.000199
1082	1.0756e+02	-3.0930	-11.711731	0.000324	3.244389	1.099229	-0.000130
1083	1.0766e+02	-3.1331	-11.917625	0.000517	5.170745	1.751896	-0.000207
1084	1.0776e+02	-3.1812	-12.099296	0.000456	4.562422	1.545790	-0.000183
1085	1.0786e+02	-3.2165	-12.256744	0.000395	3.954099	1.339685	-0.000158
1086	1.0796e+02	-3.2534	-12.478787	0.000558	5.576293	1.889299	-0.000223
1087	1.0806e+02	-3.2935	-12.620086	0.000355	3.548550	1.202281	-0.000142
1088	1.0816e+02	-3.3240	-12.789646	0.000426	4.258260	1.442738	-0.000170
1089	1.0826e+02	-3.3721	-12.955169	0.000416	4.156873	1.408387	-0.000166
1090	1.0836e+02	-3.4090	-13.128765	0.000436	4.359648	1.477089	-0.000174
1091	1.0845e+02	-3.4411	-13.326585	0.000497	4.967970	1.683194	-0.000199
1092	1.0855e+02	-3.4892	-13.504219	0.000446	4.461035	1.511439	-0.000179
1093	1.0865e+02	-3.5277	-13.685890	0.000456	4.562422	1.545790	-0.000183
1094	1.0875e+02	-3.5630	-13.847376	0.000406	4.055486	1.374036	-0.000162
1095	1.0885e+02	-3.6031	-14.020972	0.000436	4.359648	1.477089	-0.000174
1096	1.0895e+02	-3.6577	-14.214755	0.000487	4.866583	1.648843	-0.000195
1097	1.0905e+02	-3.6945	-14.392389	0.000446	4.461035	1.511439	-0.000179
1098	1.0915e+02	-3.7266	-14.537726	0.000365	3.649937	1.236632	-0.000146
1099	1.0925e+02	-3.7619	-14.727471	0.000477	4.765196	1.614492	-0.000191
1100	1.0935e+02	-3.8084	-14.901068	0.000436	4.359648	1.477089	-0.000174
1101	1.0945e+02	-3.8421	-15.106962	0.000517	5.170745	1.751896	-0.000207
1102	1.0955e+02	-3.8838	-15.260373	0.000385	3.852712	1.305334	-0.000154
1103	1.0965e+02	-3.9352	-15.401673	0.000355	3.548550	1.202281	-0.000142
1104	1.0975e+02	-3.9641	-15.603530	0.000507	5.069358	1.717545	-0.000203
1105	1.0985e+02	-4.0122	-15.748867	0.000365	3.649937	1.236632	-0.000146
1106	1.0995e+02	-4.0507	-15.958798	0.000527	5.272132	1.786247	-0.000211
1107	1.1005e+02	-4.0940	-16.108172	0.000375	3.751325	1.270983	-0.000150
1108	1.1015e+02	-4.1373	-16.281768	0.000436	4.359648	1.477089	-0.000174
1109	1.1025e+02	-4.1646	-16.455365	0.000436	4.359648	1.477089	-0.000174
1110	1.1035e+02	-4.1999	-16.637036	0.000456	4.562422	1.545790	-0.000183
1111	1.1044e+02	-4.2512	-16.766225	0.000324	3.244389	1.099229	-0.000130
1112	1.1054e+02	-4.2929	-16.972119	0.000517	5.170745	1.751896	-0.000207
1113	1.1064e+02	-4.3202	-17.153790	0.000456	4.562422	1.545790	-0.000183
1114	1.1074e+02	-4.3699	-17.315275	0.000406	4.055486	1.374036	-0.000162
1115	1.1084e+02	-4.4020	-17.492909	0.000446	4.461035	1.511439	-0.000179
1116	1.1094e+02	-4.4421	-17.674580	0.000456	4.562422	1.545790	-0.000183
1117	1.1104e+02	-4.4854	-17.823954	0.000375	3.751325	1.270983	-0.000150
1118	1.1114e+02	-4.5287	-18.009663	0.000466	4.663809	1.580141	-0.000187
1119	1.1124e+02	-4.5689	-18.187296	0.000446	4.461035	1.511439	-0.000179
1120	1.1134e+02	-4.6025	-18.344745	0.000395	3.954099	1.339685	-0.000158
1121	1.1144e+02	-4.6378	-18.534490	0.000477	4.765196	1.614492	-0.000191
1122	1.1154e+02	-4.6892	-18.712124	0.000446	4.461035	1.511439	-0.000179
1123	1.1164e+02	-4.7229	-18.845350	0.000335	3.345776	1.133580	-0.000134
1124	1.1174e+02	-4.7598	-19.031058	0.000466	4.663809	1.580141	-0.000187
1125	1.1184e+02	-4.7999	-19.172358	0.000355	3.548550	1.202281	-0.000142
1126	1.1194e+02	-4.8464	-19.354029	0.000456	4.562422	1.545790	-0.000183
1127	1.1204e+02	-4.8785	-19.523588	0.000426	4.258260	1.442738	-0.000170
1128	1.1214e+02	-4.9250	-19.713334	0.000477	4.765196	1.614492	-0.000191
1129	1.1224e+02	-4.9619	-19.834448	0.000304	3.041615	1.030527	-0.000122
1130	1.1234e+02	-5.0132	-19.999970	0.000416	4.156873	1.408387	-0.000166
1131	1.1244e+02	-5.0485	-20.217976	0.000547	5.474906	1.854948	-0.000219
1132	1.1253e+02	-5.0886	-20.339090	0.000304	3.041615	1.030527	-0.000122
1133	1.1263e+02	-5.1287	-20.544984	0.000517	5.170745	1.751896	-0.000207
1134	1.1273e+02	-5.1544	-20.686284	0.000355	3.548550	1.202281	-0.000142
1135	1.1283e+02	-5.2041	-20.884103	0.000497	4.967970	1.683194	-0.000199
1136	1.1293e+02	-5.2490	-21.017329	0.000335	3.345776	1.133580	-0.000134
1137	1.1303e+02	-5.2715	-21.190925	0.000436	4.359648	1.477089	-0.000174
1138	1.1313e+02	-5.3116	-21.372597	0.000456	4.562422	1.545790	-0.000183
1139	1.1323e+02	-5.3710	-21.542156	0.000426	4.258260	1.442738	-0.000170
1140	1.1333e+02	-5.4015	-21.699605	0.000395	3.954099	1.339685	-0.000158
1141	1.1343e+02	-5.4448	-21.840904	0.000355	3.548550	1.202281	-0.000142
1142	1.1353e+02	-5.4881	-22.022575	0.000456	4.562422	1.545790	-0.000183
1143	1.1363e+02	-5.5314	-22.224432	0.000507	5.069358	1.717545	-0.000203
1144	1.1373e+02	-5.5635	-22.357658	0.000335	3.345776	1.133580	-0.000134
1145	1.1383e+02	-5.6036	-22.494920	0.000345	3.447163	1.167930	-0.000138
1146	1.1393e+02	-5.6357	-22.696777	0.000507	5.069358	1.717545	-0.000203
1147	1.1403e+02	-5.6934	-22.862300	0.000416	4.156873	1.408387	-0.000166
1148	1.1413e+02	-5.7223	-22.991488	0.000324	3.244389	1.099229	-0.000130
1149	1.1423e+02	-5.7656	-23.157011	0.000416	4.156873	1.408387	-0.000166
1150	1.1433e+02	-5.8153	-23.318496	0.000406	4.055486	1.374036	-0.000162
1151	1.1442e+02	-5.8474	-23.504204	0.000466	4.663809	1.580141	-0.000187
1152	1.1452e+02	-5.8683	-23.689913	0.000466	4.663809	1.580141	-0.000187
1153	1.1462e+02	-5.9196	-23.798915	0.000274	2.737453	0.927474	-0.000110
1154	1.1472e+02	-5.9581	-23.996735	0.000497	4.967970	1.683194	-0.000199
1155	1.1482e+02	-6.0014	-24.150146	0.000385	3.852712	1.305334	-0.000154
1156	1.1492e+02	-6.0415	-24.307594	0.000395	3.954099	1.339685	-0.000158
1157	1.1502e+02	-6.0833	-24.456968	0.000375	3.751325	1.270983	-0.000150
1158	1.1512e+02	-6.1185	-24.630565	0.000436	4.359648	1.477089	-0.000174
1159	1.1522e+02	-6.1570	-24.771865	0.000355	3.548550	1.202281	-0.000142
1160	1.1532e+02	-6.2020	-24.961610	0.000477	4.765196	1.614492	-0.000191
1161	1.1542e+02	-6.2340	-25.106947	0.000365	3.649937	1.236632	-0.000146
1162	1.1552e+02	-6.2854	-25.292655	0.000466	4.663809	1.580141	-0.000187
1163	1.1562e+02	-6.3207	-25.450104	0.000395	3.954099	1.339685	-0.000158
1164	1.1572e+02	-6.3688	-25.599478	0.000375	3.751325	1.270983	-0.000150
1165	1.1582e+02	-6.3945	-25.756926	0.000395	3.954099	1.339685	-0.000158
1166	1.1592e+02	-6.4346	-25.914374	0.000395	3.954099	1.339685	-0.000158
1167	1.1602e+02	-6.4795	-26.067785	0.000385	3.852712	1.305334	-0.000154
1168	1.1612e+02	-6.5148	-26.241382	0.000436	4.359648	1.477089	-0.000174
1169	1.1622e+02	-6.5533	-26.398831	0.000395	3.954099	1.339685	-0.000158
1170	1.1632e+02	-6.5886	-26.568390	0.000426	4.258260	1.442738	-0.000170
1171	1.1642e+02	-6.6255	-26.733913	0.000416	4.156873	1.408387	-0.000166
1172	1.1651e+02	-6.6848	-26.899435	0.000416	4.156873	1.408387	-0.000166
1173	1.1661e+02	-6.7153	-27.024587	0.000314	3.143002	1.064878	-0.000126
1174	1.1671e+02	-6.7474	-27.190109	0.000416	4.156873	1.408387	-0.000166
1175	1.1681e+02	-6.7987	-27.343520	0.000385	3.852712	1.305334	-0.000154
1176	1.1691e+02	-6.8388	-27.529229	0.000466	4.663809	1.580141	-0.000187
1177	1.1701e+02	-6.8709	-27.662454	0.000335	3.345776	1.133580	-0.000134
1178	1.1711e+02	-6.9110	-27.848162	0.000466	4.663809	1.580141	-0.000187
1179	1.1721e+02	-6.9560	-27.985425	0.000345	3.447163	1.167930	-0.000138
1180	1.1731e+02	-7.0009	-28.114613	0.000324	3.244389	1.099229	-0.000130
1181	1.1741e+02	-7.0314	-28.304359	0.000477	4.765196	1.614492	-0.000191
1182	1.1751e+02	-7.0811	-28.473918	0.000426	4.258260	1.442738	-0.000170
1183	1.1761e+02	-7.1276	-28.623292	0.000375	3.751325	1.270983	-0.000150
1184	1.1771e+02	-7.1388	-28.772666	0.000375	3.751325	1.270983	-0.000150
1185	1.1781e+02	-7.2014	-28.958375	0.000466	4.663809	1.580141	-0.000187
1186	1.1791e+02	-7.2303	-29.099674	0.000355	3.548550	1.202281	-0.000142
1187	1.1801e+02	-7.2640	-29.257123	0.000395	3.954099	1.339685	-0.000158
1188	1.1811e+02	-7.3089	-29.414571	0.000395	3.954099	1.339685	-0.000158
1189	1.1821e+02	-7.3602	-29.592205	0.000446	4.461035	1.511439	-0.000179
1190	1.1831e+02	-7.3907	-29.713319	0.000304	3.041615	1.030527	-0.000122
1191	1.1841e+02	-7.4308	-29.886916	0.000436	4.359648	1.477089	-0.000174
1192	1.1850e+02	-7.4693	-30.028216	0.000355	3.548550	1.202281	-0.000142
1193	1.1860e+02	-7.5094	-30.161441	0.000335	3.345776	1.133580	-0.000134
1194	1.1870e+02	-7.5495	-30.367335	0.000517	5.170745	1.751896	-0.000207
1195	1.1880e+02	-7.5832	-30.496523	0.000324	3.244389	1.099229	-0.000130
1196	1.1890e+02	-7.6217	-30.621675	0.000314	3.143002	1.064878	-0.000126
1197	1.1900e+02	-7.6698	-30.839680	0.000547	5.474906	1.854948	-0.000219
1198	1.1910e+02	-7.7132	-30.960794	0.000304	3.041615	1.030527	-0.000122
1199	1.1920e+02	-7.7420	-31.085945	0.000314	3.143002	1.064878	-0.000126
1200	1.1930e+02	-7.7934	-31.271653	0.000466	4.663809	1.580141	-0.000187
1201	1.1940e+02	-7.8335	-31.396805	0.000314	3.143002	1.064878	-0.000126
1202	1.1950e+02	-7.8607	-31.546179	0.000375	3.751325	1.270983	-0.000150
1203	1.1960e+02	-7.9121	-31.731887	0.000466	4.663809	1.580141	-0.000187
1204	1.1970e+02	-7.9458	-31.848964	0.000294	2.940227	0.996176	-0.000118
1205	1.1980e+02	-7.9843	-32.026598	0.000446	4.461035	1.511439	-0.000179
1206	1.1990e+02	-8.0292	-32.143675	0.000294	2.940227	0.996176	-0.000118
1207	1.2000e+02	-8.0725	-32.333420	0.000477	4.765196	1.614492	-0.000191
1208	1.2010e+02	-8.1158	-32.450497	0.000294	2.940227	0.996176	-0.000118
1209	1.2020e+02	-8.1511	-32.624094	0.000436	4.359648	1.477089	-0.000174
1210	1.2030e+02	-8.1896	-32.761357	0.000345	3.447163	1.167930	-0.000138
1211	1.2039e+02	-8.2249	-32.882471	0.000304	3.041615	1.030527	-0.000122
1212	1.2049e+02	-8.2698	-33.076253	0.000487	4.866583	1.648843	-0.000195
1213	1.2059e+02	-8.3067	-33.201404	0.000314	3.143002	1.064878	-0.000126
1214	1.2069e+02	-8.3516	-33.342704	0.000355	3.548550	1.202281	-0.000142
1215	1.2079e+02	-8.3837	-33.500152	0.000395	3.954099	1.339685	-0.000158
1216	1.2089e+02	-8.4302	-33.649526	0.000375	3.751325	1.270983	-0.000150
1217	1.2099e+02	-8.4703	-33.798900	0.000375	3.751325	1.270983	-0.000150
1218	1.2109e+02	-8.5137	-33.960386	0.000406	4.055486	1.374036	-0.000162
1219	1.2119e+02	-8.5490	-34.113797	0.000385	3.852712	1.305334	-0.000154
1220	1.2129e+02	-8.5891	-34.255097	0.000355	3.548550	1.202281	-0.000142
1221	1.2139e+02	-8.6356	-34.380248	0.000314	3.143002	1.064878	-0.000126
1222	1.2149e+02	-8.6661	-34.521548	0.000355	3.548550	1.202281	-0.000142
1223	1.2159e+02	-8.7046	-34.695145	0.000436	4.359648	1.477089	-0.000174
1224	1.2169e+02	-8.7415	-34.848556	0.000385	3.852712	1.305334	-0.000154
1225	1.2179e+02	-8.7864	-34.957558	0.000274	2.737453	0.927474	-0.000110
1226	1.2189e+02	-8.8201	-35.098858	0.000355	3.548550	1.202281	-0.000142
1227	1.2199e+02	-8.8746	-35.284566	0.000466	4.663809	1.580141	-0.000187
1228	1.2209e+02	-8.9051	-35.429903	0.000365	3.649937	1.236632	-0.000146
1229	1.2219e+02	-8.9468	-35.530832	0.000253	2.534679	0.858772	-0.000101
1230	1.2229e+02	-8.9901	-35.728651	0.000497	4.967970	1.683194	-0.000199
1231	1.2239e+02	-9.0302	-35.882062	0.000385	3.852712	1.305334	-0.000154
1232	1.2248e+02	-9.0639	-36.007214	0.000314	3.143002	1.064878	-0.000126
1233	1.2258e+02	-9.1072	-36.140439	0.000335	3.345776	1.133580	-0.000134
1234	1.2268e+02	-9.1554	-36.277702	0.000345	3.447163	1.167930	-0.000138
1235	1.2278e+02	-9.1826	-36.423039	0.000365	3.649937	1.236632	-0.000146
1236	1.2288e+02	-9.2227	-36.556264	0.000335	3.345776	1.133580	-0.000134
1237	1.2298e+02	-9.2644	-36.737935	0.000456	4.562422	1.545790	-0.000183
1238	1.2308e+02	-9.3078	-36.871161	0.000335	3.345776	1.133580	-0.000134
1239	1.2318e+02	-9.3447	-37.008423	0.000345	3.447163	1.167930	-0.000138
1240	1.2328e+02	-9.3816	-37.129537	0.000304	3.041615	1.030527	-0.000122
1241	1.2338e+02	-9.4377	-37.242577	0.000284	2.838840	0.961825	-0.000114
1242	1.2348e+02	-9.4666	-37.428285	0.000466	4.663809	1.580141	-0.000187
1243	1.2358e+02	-9.5083	-37.581697	0.000385	3.852712	1.305334	-0.000154
1244	1.2368e+02	-9.5484	-37.690699	0.000274	2.737453	0.927474	-0.000110
1245	1.2378e+02	-9.5773	-37.868333	0.000446	4.461035	1.511439	-0.000179
1246	1.2388e+02	-9.6222	-37.961187	0.000233	2.331904	0.790071	-0.000093
1247	1.2398e+02	-9.6687	-38.122673	0.000406	4.055486	1.374036	-0.000162
1248	1.2408e+02	-9.7024	-38.255898	0.000335	3.345776	1.133580	-0.000134
1249	1.2418e+02	-9.7393	-38.368938	0.000284	2.838840	0.961825	-0.000114
1250	1.2428e+02	-9.7810	-38.574832	0.000517	5.170745	1.751896	-0.000207
1251	1.2438e+02	-9.8243	-38.699983	0.000314	3.143002	1.064878	-0.000126
1252	1.2447e+02	-9.8660	-38.817060	0.000294	2.940227	0.996176	-0.000118
1253	1.2457e+02	-9.9126	-38.934137	0.000294	2.940227	0.996176	-0.000118
1254	1.2467e+02	-9.9350	-39.083511	0.000375	3.751325	1.270983	-0.000150
1255	1.2477e+02	-9.9799	-39.204625	0.000304	3.041615	1.030527	-0.000122
1256	1.2487e+02	-10.0216	-39.333813	0.000324	3.244389	1.099229	-0.000130
1257	1.2497e+02	-10.0553	-39.463002	0.000324	3.244389	1.099229	-0.000130
1258	1.2507e+02	-10.1019	-39.620450	0.000395	3.954099	1.339685	-0.000158
1259	1.2517e+02	-10.1388	-39.769824	0.000375	3.751325	1.270983	-0.000150
1260	1.2527e+02	-10.1869	-39.886901	0.000294	2.940227	0.996176	-0.000118
1261	1.2537e+02	-10.2174	-40.056461	0.000426	4.258260	1.442738	-0.000170
1262	1.2547e+02	-10.2559	-40.181612	0.000314	3.143002	1.064878	-0.000126
1263	1.2557e+02	-10.3040	-40.294652	0.000284	2.838840	0.961825	-0.000114
1264	1.2567e+02	-10.3409	-40.452100	0.000395	3.954099	1.339685	-0.000158
1265	1.2577e+02	-10.3778	-40.569177	0.000294	2.940227	0.996176	-0.000118
1266	1.2587e+02	-10.4259	-40.714514	0.000365	3.649937	1.236632	-0.000146
1267	1.2597e+02	-10.4612	-40.847739	0.000335	3.345776	1.133580	-0.000134
1268	1.2607e+02	-10.4997	-40.960779	0.000284	2.838840	0.961825	-0.000114
1269	1.2617e+02	-10.5414	-41.118227	0.000395	3.954099	1.339685	-0.000158
1270	1.2627e+02	-10.5847	-41.251453	0.000335	3.345776	1.133580	-0.000134
1271	1.2636e+02	-10.6120	-41.384678	0.000335	3.345776	1.133580	-0.000134
1272	1.2646e+02	-10.6665	-41.489644	0.000264	2.636066	0.893123	-0.000105
1273	1.2656e+02	-10.7002	-41.655167	0.000416	4.156873	1.408387	-0.000166
1274	1.2666e+02	-10.7468	-41.788392	0.000335	3.345776	1.133580	-0.000134
1275	1.2676e+02	-10.7917	-41.897395	0.000274	2.737453	0.927474	-0.000110
1276	1.2686e+02	-10.8189	-42.026583	0.000324	3.244389	1.099229	-0.000130
1277	1.2696e+02	-10.8542	-42.188068	0.000406	4.055486	1.374036	-0.000162
1278	1.2706e+02	-10.8911	-42.317257	0.000324	3.244389	1.099229	-0.000130
1279	1.2716e+02	-10.9521	-42.430297	0.000284	2.838840	0.961825	-0.000114
1280	1.2726e+02	-10.9874	-42.543336	0.000284	2.838840	0.961825	-0.000114
1281	1.2736e+02	-11.0179	-42.716933	0.000436	4.359648	1.477089	-0.000174
1282	1.2746e+02	-11.0596	-42.829973	0.000284	2.838840	0.961825	-0.000114
1283	1.2756e+02	-11.1045	-43.015681	0.000466	4.663809	1.580141	-0.000187
1284	1.2766e+02	-11.1382	-43.140832	0.000314	3.143002	1.064878	-0.000126
1285	1.2776e+02	-11.1831	-43.241761	0.000253	2.534679	0.858772	-0.000101
1286	1.2786e+02	-11.2120	-43.362875	0.000304	3.041615	1.030527	-0.000122
1287	1.2796e+02	-11.2649	-43.504175	0.000355	3.548550	1.202281	-0.000142
1288	1.2806e+02	-11.2938	-43.621252	0.000294	2.940227	0.996176	-0.000118
1289	1.2816e+02	-11.3451	-43.754477	0.000335	3.345776	1.133580	-0.000134
1290	1.2826e+02	-11.3756	-43.907888	0.000385	3.852712	1.305334	-0.000154
1291	1.2835e+02	-11.4205	-44.008817	0.000253	2.534679	0.858772	-0.000101
1292	1.2845e+02	-11.4687	-44.174339	0.000416	4.156873	1.408387	-0.000166
1293	1.2855e+02	-11.4943	-44.283342	0.000274	2.737453	0.927474	-0.000110
1294	1.2865e+02	-11.5409	-44.412530	0.000324	3.244389	1.099229	-0.000130
1295	1.2875e+02	-11.5745	-44.574016	0.000406	4.055486	1.374036	-0.000162
1296	1.2885e+02	-11.6195	-44.703204	0.000324	3.244389	1.099229	-0.000130
1297	1.2895e+02	-11.6564	-44.820281	0.000294	2.940227	0.996176	-0.000118
1298	1.2905e+02	-11.7029	-44.937358	0.000294	2.940227	0.996176	-0.000118
1299	1.2915e+02	-11.7462	-45.066546	0.000324	3.244389	1.099229	-0.000130
1300	1.2925e+02	-11.7703	-45.195735	0.000324	3.244389	1.099229	-0.000130
1301	1.2935e+02	-11.8120	-45.337034	0.000355	3.548550	1.202281	-0.000142
1302	1.2945e+02	-11.8473	-45.437963	0.000253	2.534679	0.858772	-0.000101
1303	1.2955e+02	-11.8986	-45.595411	0.000395	3.954099	1.339685	-0.000158
1304	1.2965e+02	-11.9339	-45.708451	0.000284	2.838840	0.961825	-0.000114
1305	1.2975e+02	-11.9756	-45.829565	0.000304	3.041615	1.030527	-0.000122
1306	1.2985e+02	-12.0173	-45.991050	0.000406	4.055486	1.374036	-0.000162
1307	1.2995e+02	-12.0590	-46.120239	0.000324	3.244389	1.099229	-0.000130
1308	1.3005e+02	-12.0943	-46.233278	0.000284	2.838840	0.961825	-0.000114
1309	1.3015e+02	-12.1360	-46.346318	0.000284	2.838840	0.961825	-0.000114
1310	1.3025e+02	-12.1697	-46.487618	0.000355	3.548550	1.202281	-0.000142
1311	1.3034e+02	-12.2146	-46.620844	0.000335	3.345776	1.133580	-0.000134
1312	1.3044e+02	-12.2579	-46.741958	0.000304	3.041615	1.030527	-0.000122
1313	1.3054e+02	-12.2948	-46.863072	0.000304	3.041615	1.030527	-0.000122
1314	1.3064e+02	-12.3333	-46.972074	0.000274	2.737453	0.927474	-0.000110
1315	1.3074e+02	-12.3783	-47.121448	0.000375	3.751325	1.270983	-0.000150
1316	1.3084e+02	-12.4200	-47.278897	0.000395	3.954099	1.339685	-0.000158
1317	1.3094e+02	-12.4488	-47.408085	0.000324	3.244389	1.099229	-0.000130
1318	1.3104e+02	-12.4906	-47.529199	0.000304	3.041615	1.030527	-0.000122
1319	1.3114e+02	-12.5323	-47.605905	0.000193	1.926356	0.652667	-0.000077
1320	1.3124e+02	-12.5692	-47.771427	0.000416	4.156873	1.408387	-0.000166
1321	1.3134e+02	-12.6109	-47.876393	0.000264	2.636066	0.893123	-0.000105
1322	1.3144e+02	-12.6542	-48.025767	0.000375	3.751325	1.270983	-0.000150
1323	1.3154e+02	-12.6927	-48.167066	0.000355	3.548550	1.202281	-0.000142
1324	1.3164e+02	-12.7264	-48.296255	0.000324	3.244389	1.099229	-0.000130
1325	1.3174e+02	-12.7649	-48.421406	0.000314	3.143002	1.064878	-0.000126
1326	1.3184e+02	-12.8178	-48.530409	0.000274	2.737453	0.927474	-0.000110
1327	1.3194e+02	-12.8483	-48.635374	0.000264	2.636066	0.893123	-0.000105
1328	1.3204e+02	-12.8884	-48.817045	0.000456	4.562422	1.545790	-0.000183
1329	1.3214e+02	-12.9173	-48.905862	0.000223	2.230517	0.755720	-0.000089
1330	1.3224e+02	-12.9654	-49.047162	0.000355	3.548550	1.202281	-0.000142
1331	1.3234e+02	-13.0055	-49.216722	0.000426	4.258260	1.442738	-0.000170
1332	1.3243e+02	-13.0408	-49.281316	0.000162	1.622194	0.549614	-0.000065
1333	1.3253e+02	-13.1050	-49.438764	0.000395	3.954099	1.339685	-0.000158
1334	1.3263e+02	-13.1371	-49.567953	0.000324	3.244389	1.099229	-0.000130
1335	1.3273e+02	-13.1740	-49.648695	0.000203	2.027743	0.687018	-0.000081
1336	1.3283e+02	-13.2060	-49.826329	0.000446	4.461035	1.511439	-0.000179
1337	1.3293e+02	-13.2510	-49.939369	0.000284	2.838840	0.961825	-0.000114
1338	1.3303e+02	-13.2895	-50.064520	0.000314	3.143002	1.064878	-0.000126
1339	1.3313e+02	-13.3264	-50.169486	0.000264	2.636066	0.893123	-0.000105
1340	1.3323e+02	-13.3665	-50.314823	0.000365	3.649937	1.236632	-0.000146
1341	1.3333e+02	-13.4050	-50.419788	0.000264	2.636066	0.893123	-0.000105
1342	1.3343e+02	-13.4451	-50.577237	0.000395	3.954099	1.339685	-0.000158
1343	1.3353e+02	-13.4900	-50.714499	0.000345	3.447163	1.167930	-0.000138
1344	1.3363e+02	-13.5253	-50.863873	0.000375	3.751325	1.270983	-0.000150
1345	1.3373e+02	-13.5686	-50.989024	0.000314	3.143002	1.064878	-0.000126
1346	1.3383e+02	-13.6167	-51.085916	0.000243	2.433292	0.824422	-0.000097
1347	1.3393e+02	-13.6456	-51.231253	0.000365	3.649937	1.236632	-0.000146
1348	1.3403e+02	-13.6889	-51.348329	0.000294	2.940227	0.996176	-0.000118
1349	1.3413e+02	-13.7242	-51.509815	0.000406	4.055486	1.374036	-0.000162
1350	1.3423e+02	-13.7627	-51.598632	0.000223	2.230517	0.755720	-0.000089
1351	1.3432e+02	-13.8108	-51.784340	0.000466	4.663809	1.580141	-0.000187
1352	1.3442e+02	-13.8558	-51.832786	0.000122	1.216646	0.412211	-0.000049
1353	1.3452e+02	-13.8943	-52.014457	0.000456	4.562422	1.545790	-0.000183
1354	1.3462e+02	-13.9215	-52.159794	0.000365	3.649937	1.236632	-0.000146
1355	1.3472e+02	-13.9600	-52.301093	0.000355	3.548550	1.202281	-0.000142
1356	1.3482e+02	-14.0050	-52.385873	0.000213	2.129130	0.721369	-0.000085
1357	1.3492e+02	-14.0418	-52.535247	0.000375	3.751325	1.270983	-0.000150
1358	1.3502e+02	-14.0868	-52.636176	0.000253	2.534679	0.858772	-0.000101
1359	1.3512e+02	-14.1269	-52.781513	0.000365	3.649937	1.236632	-0.000146
1360	1.3522e+02	-14.1686	-52.918775	0.000345	3.447163	1.167930	-0.000138
1361	1.3532e+02	-14.2087	-53.043926	0.000314	3.143002	1.064878	-0.000126
1362	1.3542e+02	-14.2472	-53.165041	0.000304	3.041615	1.030527	-0.000122
1363	1.3552e+02	-14.2937	-53.270006	0.000264	2.636066	0.893123	-0.000105
1364	1.3562e+02	-14.3306	-53.415343	0.000365	3.649937	1.236632	-0.000146
1365	1.3572e+02	-14.3611	-53.516271	0.000253	2.534679	0.858772	-0.000101
1366	1.3582e+02	-14.4028	-53.681794	0.000416	4.156873	1.408387	-0.000166
1367	1.3592e+02	-14.4429	-53.798871	0.000294	2.940227	0.996176	-0.000118
1368	1.3602e+02	-14.4798	-53.932096	0.000335	3.345776	1.133580	-0.000134
1369	1.3612e+02	-14.5279	-53.996690	0.000162	1.622194	0.549614	-0.000065
1370	1.3622e+02	-14.5664	-54.202584	0.000517	5.170745	1.751896	-0.000207
1371	1.3631e+02	-14.6049	-54.271216	0.000172	1.723582	0.583965	-0.000069
1372	1.3641e+02	-14.6450	-54.396367	0.000314	3.143002	1.064878	-0.000126
1373	1.3651e+02	-14.6739	-54.529592	0.000335	3.345776	1.133580	-0.000134
1374	1.3661e+02	-14.7301	-54.666855	0.000345	3.447163	1.167930	-0.000138
1375	1.3671e+02	-14.7605	-54.796043	0.000324	3.244389	1.099229	-0.000130
1376	1.3681e+02	-14.7974	-54.925232	0.000324	3.244389	1.099229	-0.000130
1377	1.3691e+02	-14.8456	-55.042309	0.000294	2.940227	0.996176	-0.000118
1378	1.3701e+02	-14.8921	-55.183608	0.000355	3.548550	1.202281	-0.000142
1379	1.3711e+02	-14.9081	-55.284537	0.000253	2.534679	0.858772	-0.000101
1380	1.3721e+02	-14.9579	-55.377391	0.000233	2.331904	0.790071	-0.000093
1381	1.3731e+02	-15.0076	-55.546951	0.000426	4.258260	1.442738	-0.000170
1382	1.3741e+02	-15.0445	-55.688250	0.000355	3.548550	1.202281	-0.000142
1383	1.3751e+02	-15.0910	-55.805327	0.000294	2.940227	0.996176	-0.000118
1384	1.3761e+02	-15.1183	-55.934516	0.000324	3.244389	1.099229	-0.000130
1385	1.3771e+02	-15.1536	-56.067741	0.000335	3.345776	1.133580	-0.000134
1386	1.3781e+02	-15.2049	-56.164632	0.000243	2.433292	0.824422	-0.000097
1387	1.3791e+02	-15.2418	-56.301895	0.000345	3.447163	1.167930	-0.000138
1388	1.3801e+02	-15.2771	-56.414935	0.000284	2.838840	0.961825	-0.000114
1389	1.3811e+02	-15.3236	-56.560272	0.000365	3.649937	1.236632	-0.000146
1390	1.3821e+02	-15.3541	-56.677349	0.000294	2.940227	0.996176	-0.000118
1391	1.3831e+02	-15.4006	-56.830760	0.000385	3.852712	1.305334	-0.000154
1392	1.3840e+02	-15.4407	-56.963985	0.000335	3.345776	1.133580	-0.000134
1393	1.3850e+02	-15.4921	-57.085099	0.000304	3.041615	1.030527	-0.000122
1394	1.3860e+02	-15.5210	-57.198139	0.000284	2.838840	0.961825	-0.000114
1395	1.3870e+02	-15.5707	-57.331365	0.000335	3.345776	1.133580	-0.000134
1396	1.3880e+02	-15.5915	-57.428256	0.000243	2.433292	0.824422	-0.000097
1397	1.3890e+02	-15.6413	-57.565518	0.000345	3.447163	1.167930	-0.000138
1398	1.3900e+02	-15.6862	-57.698744	0.000335	3.345776	1.133580	-0.000134
1399	1.3910e+02	-15.7279	-57.836007	0.000345	3.447163	1.167930	-0.000138
1400	1.3920e+02	-15.7536	-57.977306	0.000355	3.548550	1.202281	-0.000142
1401	1.3930e+02	-15.7969	-58.102458	0.000314	3.143002	1.064878	-0.000126
1402	1.3940e+02	-15.8322	-58.223572	0.000304	3.041615	1.030527	-0.000122
1403	1.3950e+02	-15.8707	-58.312389	0.000223	2.230517	0.755720	-0.000089
1404	1.3960e+02	-15.9236	-58.453688	0.000355	3.548550	1.202281	-0.000142
1405	1.3970e+02	-15.9605	-58.570765	0.000294	2.940227	0.996176	-0.000118
1406	1.3980e+02	-15.9974	-58.732251	0.000406	4.055486	1.374036	-0.000162
1407	1.3990e+02	-16.0391	-58.833179	0.000253	2.534679	0.858772	-0.000101
1408	1.4000e+02	-16.0808	-58.974479	0.000355	3.548550	1.202281	-0.000142
1409	1.4010e+02	-16.1161	-59.079444	0.000264	2.636066	0.893123	-0.000105
1410	1.4020e+02	-16.1642	-59.216707	0.000345	3.447163	1.167930	-0.000138
1411	1.4029e+02	-16.1947	-59.362044	0.000365	3.649937	1.236632	-0.000146
1412	1.4039e+02	-16.2332	-59.458935	0.000243	2.433292	0.824422	-0.000097
1413	1.4049e+02	-16.2814	-59.584086	0.000314	3.143002	1.064878	-0.000126
1414	1.4059e+02	-16.3167	-59.713275	0.000324	3.244389	1.099229	-0.000130
1415	1.4069e+02	-16.3632	-59.826315	0.000284	2.838840	0.961825	-0.000114
1416	1.4079e+02	-16.4065	-59.967614	0.000355	3.548550	1.202281	-0.000142
1417	1.4089e+02	-16.4402	-60.100840	0.000335	3.345776	1.133580	-0.000134
1418	1.4099e+02	-16.4771	-60.246177	0.000365	3.649937	1.236632	-0.000146
1419	1.4109e+02	-16.5204	-60.339031	0.000233	2.331904	0.790071	-0.000093
1420	1.4119e+02	-16.5557	-60.488405	0.000375	3.751325	1.270983	-0.000150
1421	1.4129e+02	-16.5894	-60.609519	0.000304	3.041615	1.030527	-0.000122
1422	1.4139e+02	-16.6327	-60.738707	0.000324	3.244389	1.099229	-0.000130
1423	1.4149e+02	-16.6744	-60.851747	0.000284	2.838840	0.961825	-0.000114
1424	1.4159e+02	-16.7145	-60.976898	0.000314	3.143002	1.064878	-0.000126
1425	1.4169e+02	-16.7498	-61.110124	0.000335	3.345776	1.133580	-0.000134
1426	1.4179e+02	-16.8011	-61.247386	0.000345	3.447163	1.167930	-0.000138
1427	1.4189e+02	-16.8380	-61.372537	0.000314	3.143002	1.064878	-0.000126
1428	1.4199e+02	-16.8781	-61.513837	0.000355	3.548550	1.202281	-0.000142
1429	1.4209e+02	-16.9263	-61.634951	0.000304	3.041615	1.030527	-0.000122
1430	1.4219e+02	-16.9519	-61.739917	0.000264	2.636066	0.893123	-0.000105
1431	1.4228e+02	-16.9888	-61.869105	0.000324	3.244389	1.099229	-0.000130
1432	1.4238e+02	-17.0353	-61.998294	0.000324	3.244389	1.099229	-0.000130
1433	1.4248e+02	-17.0658	-62.091148	0.000233	2.331904	0.790071	-0.000093
1434	1.4258e+02	-17.1059	-62.264744	0.000436	4.359648	1.477089	-0.000174
1435	1.4268e+02	-17.1557	-62.381821	0.000294	2.940227	0.996176	-0.000118
1436	1.4278e+02	-17.2054	-62.502935	0.000304	3.041615	1.030527	-0.000122
1437	1.4288e+02	-17.2230	-62.632124	0.000324	3.244389	1.099229	-0.000130
1438	1.4298e+02	-17.2760	-62.741127	0.000274	2.737453	0.927474	-0.000110
1439	1.4308e+02	-17.3225	-62.898575	0.000395	3.954099	1.339685	-0.000158
1440	1.4318e+02	-17.3530	-63.023726	0.000314	3.143002	1.064878	-0.000126
1441	1.4328e+02	-17.3915	-63.144840	0.000304	3.041615	1.030527	-0.000122
1442	1.4338e+02	-17.4380	-63.261917	0.000294	2.940227	0.996176	-0.000118
1443	1.4348e+02	-17.4717	-63.419365	0.000395	3.954099	1.339685	-0.000158
1444	1.4358e+02	-17.5102	-63.524331	0.000264	2.636066	0.893123	-0.000105
1445	1.4368e+02	-17.5503	-63.645445	0.000304	3.041615	1.030527	-0.000122
1446	1.4378e+02	-17.5888	-63.762522	0.000294	2.940227	0.996176	-0.000118
1447	1.4388e+02	-17.6305	-63.924007	0.000406	4.055486	1.374036	-0.000162
1448	1.4398e+02	-17.6706	-64.037047	0.000284	2.838840	0.961825	-0.000114
1449	1.4408e+02	-17.7171	-64.198533	0.000406	4.055486	1.374036	-0.000162
1450	1.4418e+02	-17.7556	-64.327721	0.000324	3.244389	1.099229	-0.000130
1451	1.4428e+02	-17.7958	-64.448835	0.000304	3.041615	1.030527	-0.000122
1452	1.4437e+02	-17.8278	-64.537652	0.000223	2.230517	0.755720	-0.000089
1453	1.4447e+02	-17.8760	-64.711249	0.000436	4.359648	1.477089	-0.000174
1454	1.4457e+02	-17.9097	-64.840437	0.000324	3.244389	1.099229	-0.000130
1455	1.4467e+02	-17.9514	-65.005960	0.000416	4.156873	1.408387	-0.000166
1456	1.4477e+02	-17.9899	-65.090740	0.000213	2.129130	0.721369	-0.000085
1457	1.4487e+02	-18.0268	-65.260299	0.000426	4.258260	1.442738	-0.000170
1458	1.4497e+02	-18.0685	-65.377376	0.000294	2.940227	0.996176	-0.000118
1459	1.4507e+02	-18.1134	-65.514639	0.000345	3.447163	1.167930	-0.000138
1460	1.4517e+02	-18.1519	-65.680161	0.000416	4.156873	1.408387	-0.000166
1461	1.4527e+02	-18.1920	-65.801275	0.000304	3.041615	1.030527	-0.000122
1462	1.4537e+02	-18.2289	-65.934501	0.000335	3.345776	1.133580	-0.000134
1463	1.4547e+02	-18.2754	-66.063689	0.000324	3.244389	1.099229	-0.000130
1464	1.4557e+02	-18.3091	-66.172692	0.000274	2.737453	0.927474	-0.000110
1465	1.4567e+02	-18.3428	-66.301880	0.000324	3.244389	1.099229	-0.000130
1466	1.4577e+02	-18.3829	-66.467403	0.000416	4.156873	1.408387	-0.000166
1467	1.4587e+02	-18.4374	-66.641000	0.000436	4.359648	1.477089	-0.000174
1468	1.4597e+02	-18.4759	-66.754039	0.000284	2.838840	0.961825	-0.000114
1469	1.4607e+02	-18.5032	-66.871116	0.000294	2.940227	0.996176	-0.000118
1470	1.4617e+02	-18.5481	-67.032602	0.000406	4.055486	1.374036	-0.000162
1471	1.4626e+02	-18.5995	-67.145642	0.000284	2.838840	0.961825	-0.000114
1472	1.4636e+02	-18.6364	-67.311164	0.000416	4.156873	1.408387	-0.000166
1473	1.4646e+02	-18.6781	-67.428241	0.000294	2.940227	0.996176	-0.000118
1474	1.4656e+02	-18.7102	-67.585689	0.000395	3.954099	1.339685	-0.000158
1475	1.4666e+02	-18.7503	-67.735063	0.000375	3.751325	1.270983	-0.000150
1476	1.4676e+02	-18.7904	-67.864252	0.000324	3.244389	1.099229	-0.000130
1477	1.4686e+02	-18.8273	-68.013626	0.000375	3.751325	1.270983	-0.000150
1478	1.4696e+02	-18.8658	-68.175111	0.000406	4.055486	1.374036	-0.000162
1479	1.4706e+02	-18.9027	-68.288151	0.000284	2.838840	0.961825	-0.000114
1480	1.4716e+02	-18.9428	-68.421376	0.000335	3.345776	1.133580	-0.000134
1481	1.4726e+02	-18.9989	-68.582862	0.000406	4.055486	1.374036	-0.000162
1482	1.4736e+02	-19.0342	-68.756459	0.000436	4.359648	1.477089	-0.000174
1483	1.4746e+02	-19.0663	-68.821053	0.000162	1.622194	0.549614	-0.000065
1484	1.4756e+02	-19.1048	-68.970427	0.000375	3.751325	1.270983	-0.000150
1485	1.4766e+02	-19.1545	-69.111727	0.000355	3.548550	1.202281	-0.000142
1486	1.4776e+02	-19.1882	-69.297435	0.000466	4.663809	1.580141	-0.000187
1487	1.4786e+02	-19.2267	-69.458920	0.000406	4.055486	1.374036	-0.000162
1488	1.4796e+02	-19.2604	-69.620406	0.000406	4.055486	1.374036	-0.000162
1489	1.4806e+02	-19.3069	-69.745557	0.000314	3.143002	1.064878	-0.000126
1490	1.4816e+02	-19.3454	-69.882820	0.000345	3.447163	1.167930	-0.000138
1491	1.4825e+02	-19.3936	-70.020082	0.000345	3.447163	1.167930	-0.000138
1492	1.4835e+02	-19.4224	-70.157345	0.000345	3.447163	1.167930	-0.000138
1493	1.4845e+02	-19.4593	-70.339016	0.000456	4.562422	1.545790	-0.000183
1494	1.4855e+02	-19.4978	-70.452056	0.000284	2.838840	0.961825	-0.000114
1495	1.4865e+02	-19.5460	-70.621615	0.000426	4.258260	1.442738	-0.000170
1496	1.4875e+02	-19.5845	-70.746767	0.000314	3.143002	1.064878	-0.000126
1497	1.4885e+02	-19.6198	-70.936512	0.000477	4.765196	1.614492	-0.000191
1498	1.4895e+02	-19.6631	-71.077812	0.000355	3.548550	1.202281	-0.000142
1499	1.4905e+02	-19.7064	-71.239297	0.000406	4.055486	1.374036	-0.000162
1500	1.4915e+02	-19.7337	-71.356374	0.000294	2.940227	0.996176	-0.000118
1501	1.4925e+02	-19.7834	-71.554194	0.000497	4.967970	1.683194	-0.000199
1502	1.4935e+02	-19.8331	-71.675308	0.000304	3.041615	1.030527	-0.000122
1503	1.4945e+02	-19.8652	-71.840830	0.000416	4.156873	1.408387	-0.000166
1504	1.4955e+02	-19.9085	-72.042687	0.000507	5.069358	1.717545	-0.000203
1505	1.4965e+02	-19.9470	-72.171876	0.000324	3.244389	1.099229	-0.000130
1506	1.4975e+02	-19.9807	-72.333361	0.000406	4.055486	1.374036	-0.000162
1507	1.4985e+02	-20.0192	-72.486772	0.000385	3.852712	1.305334	-0.000154
1508	1.4995e+02	-19.9855	-72.466586	0.000051	0.506936	0.171754	0.000020
1509	1.5005e+02	-19.9374	-72.430252	0.000091	0.912484	0.309158	0.000037
1510	1.5015e+02	-19.9053	-72.422178	0.000020	0.202774	0.068702	0.000008
1511	1.5025e+02	-19.8604	-72.418141	0.000010	0.101387	0.034351	0.000004
1512	1.5034e+02	-19.8235	-72.341435	0.000193	1.926356	0.652667	0.000077
1513	1.5044e+02	-19.7802	-72.301064	0.000101	1.013872	0.343509	0.000041
1514	1.5054e+02	-19.7433	-72.232433	0.000172	1.723582	0.583965	0.000069
1515	1.5064e+02	-19.6984	-72.240507	-0.000020	-0.202774	-0.068702	-0.000008
1516	1.5074e+02	-19.6695	-72.159764	0.000203	2.027743	0.687018	0.000081
1517	1.5084e+02	-19.6310	-72.131504	0.000071	0.709710	0.240456	0.000028
1518	1.5094e+02	-19.5748	-72.046724	0.000213	2.129130	0.721369	0.000085
1519	1.5104e+02	-19.5363	-72.038650	0.000020	0.202774	0.068702	0.000008
1520	1.5114e+02	-19.4930	-71.937722	0.000253	2.534679	0.858772	0.000101
1521	1.5124e+02	-19.4658	-71.953870	-0.000041	-0.405549	-0.137404	-0.000016
1522	1.5134e+02	-19.4273	-71.836793	0.000294	2.940227	0.996176	0.000118
1523	1.5144e+02	-19.3872	-71.812571	0.000061	0.608323	0.206105	0.000024
1524	1.5154e+02	-19.3406	-71.772199	0.000101	1.013872	0.343509	0.000041
1525	1.5164e+02	-19.3150	-71.727791	0.000112	1.115259	0.377860	0.000045
1526	1.5174e+02	-19.2636	-71.663196	0.000162	1.622194	0.549614	0.000065
1527	1.5184e+02	-19.2364	-71.610714	0.000132	1.318033	0.446562	0.000053
1528	1.5194e+02	-19.1786	-71.497674	0.000284	2.838840	0.961825	0.000114
1529	1.5204e+02	-19.1385	-71.429043	0.000172	1.723582	0.583965	0.000069
1530	1.5214e+02	-19.1064	-71.380597	0.000122	1.216646	0.412211	0.000049
1531	1.5224e+02	-19.0807	-71.307929	0.000182	1.824969	0.618316	0.000073
1532	1.5233e+02	-19.0214	-71.271594	0.000091	0.912484	0.309158	0.000037
1533	1.5243e+02	-18.9829	-71.202963	0.000172	1.723582	0.583965	0.000069
1534	1.5253e+02	-18.9492	-71.085886	0.000294	2.940227	0.996176	0.000118
1535	1.5263e+02	-18.9075	-71.065700	0.000051	0.506936	0.171754	0.000020
1536	1.5273e+02	-18.8690	-71.037440	0.000071	0.709710	0.240456	0.000028
1537	1.5283e+02	-18.8401	-70.936512	0.000253	2.534679	0.858772	0.000101
1538	1.5293e+02	-18.7888	-70.851732	0.000213	2.129130	0.721369	0.000085
1539	1.5303e+02	-18.7423	-70.799249	0.000132	1.318033	0.446562	0.000053
1540	1.5313e+02	-18.7134	-70.698321	0.000253	2.534679	0.858772	0.000101
1541	1.5323e+02	-18.6669	-70.670061	0.000071	0.709710	0.240456	0.000028
1542	1.5333e+02	-18.6284	-70.536836	0.000335	3.345776	1.133580	0.000134
1543	1.5343e+02	-18.5915	-70.496464	0.000101	1.013872	0.343509	0.000041
1544	1.5353e+02	-18.5562	-70.431870	0.000162	1.622194	0.549614	0.000065
1545	1.5363e+02	-18.5193	-70.343053	0.000223	2.230517	0.755720	0.000089
1546	1.5373e+02	-18.4759	-70.270385	0.000182	1.824969	0.618316	0.000073
1547	1.5383e+02	-18.4358	-70.213865	0.000142	1.419420	0.480913	0.000057
1548	1.5393e+02	-18.3909	-70.149271	0.000162	1.622194	0.549614	0.000065
1549	1.5403e+02	-18.3508	-70.020082	0.000324	3.244389	1.099229	0.000130
1550	1.5413e+02	-18.3075	-69.991822	0.000071	0.709710	0.240456	0.000028
1551	1.5422e+02	-18.2674	-69.874745	0.000294	2.940227	0.996176	0.000118
1552	1.5432e+02	-18.2289	-69.798040	0.000193	1.926356	0.652667	0.000077
1553	1.5442e+02	-18.1968	-69.725371	0.000182	1.824969	0.618316	0.000073
1554	1.5452e+02	-18.1503	-69.685000	0.000101	1.013872	0.343509	0.000041
1555	1.5462e+02	-18.1166	-69.571960	0.000284	2.838840	0.961825	0.000114
1556	1.5472e+02	-18.0717	-69.503329	0.000172	1.723582	0.583965	0.000069
1557	1.5482e+02	-18.0203	-69.402400	0.000253	2.534679	0.858772	0.000101
1558	1.5492e+02	-17.9947	-69.321658	0.000203	2.027743	0.687018	0.000081
1559	1.5502e+02	-17.9482	-69.277249	0.000112	1.115259	0.377860	0.000045
1560	1.5512e+02	-17.9113	-69.164209	0.000284	2.838840	0.961825	0.000114
1561	1.5522e+02	-17.8647	-69.103652	0.000152	1.520807	0.515263	0.000061
1562	1.5532e+02	-17.8262	-69.055207	0.000122	1.216646	0.412211	0.000049
1563	1.5542e+02	-17.7942	-68.942167	0.000284	2.838840	0.961825	0.000114
1564	1.5552e+02	-17.7508	-68.849313	0.000233	2.331904	0.790071	0.000093
1565	1.5562e+02	-17.7123	-68.744347	0.000264	2.636066	0.893123	0.000105
1566	1.5572e+02	-17.6690	-68.695902	0.000122	1.216646	0.412211	0.000049
1567	1.5582e+02	-17.6305	-68.574788	0.000304	3.041615	1.030527	0.000122
1568	1.5592e+02	-17.5904	-68.477896	0.000243	2.433292	0.824422	0.000097
1569	1.5602e+02	-17.5567	-68.425414	0.000132	1.318033	0.446562	0.000053
1570	1.5612e+02	-17.5182	-68.348708	0.000193	1.926356	0.652667	0.000077
1571	1.5622e+02	-17.4701	-68.239705	0.000274	2.737453	0.927474	0.000110
1572	1.5631e+02	-17.4396	-68.150888	0.000223	2.230517	0.755720	0.000089
1573	1.5641e+02	-17.3995	-68.078220	0.000182	1.824969	0.618316	0.000073
1574	1.5651e+02	-17.3546	-68.009589	0.000172	1.723582	0.583965	0.000069
1575	1.5661e+02	-17.3081	-67.888475	0.000304	3.041615	1.030527	0.000122
1576	1.5671e+02	-17.2792	-67.791583	0.000243	2.433292	0.824422	0.000097
1577	1.5681e+02	-17.2343	-67.698729	0.000233	2.331904	0.790071	0.000093
1578	1.5691e+02	-17.1974	-67.622024	0.000193	1.926356	0.652667	0.000077
1579	1.5701e+02	-17.1525	-67.561467	0.000152	1.520807	0.515263	0.000061
1580	1.5711e+02	-17.1059	-67.460538	0.000253	2.534679	0.858772	0.000101
1581	1.5721e+02	-17.0706	-67.347498	0.000284	2.838840	0.961825	0.000114
1582	1.5731e+02	-17.0241	-67.266756	0.000203	2.027743	0.687018	0.000081
1583	1.5741e+02	-17.0001	-67.177939	0.000223	2.230517	0.755720	0.000089
1584	1.5751e+02	-16.9583	-67.085085	0.000233	2.331904	0.790071	0.000093
1585	1.5761e+02	-16.9231	-67.004342	0.000203	2.027743	0.687018	0.000081
1586	1.5771e+02	-16.8653	-66.915525	0.000223	2.230517	0.755720	0.000089
1587	1.5781e+02	-16.8364	-66.766151	0.000375	3.751325	1.270983	0.000150
1588	1.5791e+02	-16.7947	-66.705594	0.000152	1.520807	0.515263	0.000061
1589	1.5801e+02	-16.7546	-66.649074	0.000142	1.419420	0.480913	0.000057
1590	1.5811e+02	-16.7145	-66.519886	0.000324	3.244389	1.099229	0.000130
1591	1.5821e+02	-16.6808	-66.455291	0.000162	1.622194	0.549614	0.000065
1592	1.5830e+02	-16.6343	-66.346289	0.000274	2.737453	0.927474	0.000110
1593	1.5840e+02	-16.6022	-66.269583	0.000193	1.926356	0.652667	0.000077
1594	1.5850e+02	-16.5669	-66.168655	0.000253	2.534679	0.858772	0.000101
1595	1.5860e+02	-16.5188	-66.095986	0.000182	1.824969	0.618316	0.000073
1596	1.5870e+02	-16.4707	-65.926427	0.000426	4.258260	1.442738	0.000170
1597	1.5880e+02	-16.4289	-65.869907	0.000142	1.419420	0.480913	0.000057
1598	1.5890e+02	-16.3953	-65.748793	0.000304	3.041615	1.030527	0.000122
1599	1.5900e+02	-16.3568	-65.692273	0.000142	1.419420	0.480913	0.000057
1600	1.5910e+02	-16.3102	-65.587307	0.000264	2.636066	0.893123	0.000105
1601	1.5920e+02	-16.2701	-65.486379	0.000253	2.534679	0.858772	0.000101
1602	1.5930e+02	-16.2380	-65.385450	0.000253	2.534679	0.858772	0.000101
1603	1.5940e+02	-16.1883	-65.292596	0.000233	2.331904	0.790071	0.000093
1604	1.5950e+02	-16.1578	-65.207816	0.000213	2.129130	0.721369	0.000085
1605	1.5960e+02	-16.1177	-65.102851	0.000264	2.636066	0.893123	0.000105
1606	1.5970e+02	-16.0760	-64.997885	0.000264	2.636066	0.893123	0.000105
1607	1.5980e+02	-16.0439	-64.896957	0.000253	2.534679	0.858772	0.000101
1608	1.5990e+02	-16.0102	-64.812177	0.000213	2.129130	0.721369	0.000085
1609	1.6000e+02	-15.9557	-64.727397	0.000213	2.129130	0.721369	0.000085
1610	1.6010e+02	-15.9188	-64.614357	0.000284	2.838840	0.961825	0.000114
1611	1.6019e+02	-15.8819	-64.525541	0.000223	2.230517	0.755720	0.000089
1612	1.6029e+02	-15.8386	-64.396352	0.000324	3.244389	1.099229	0.000130
1613	1.6039e+02	-15.8033	-64.303498	0.000233	2.331904	0.790071	0.000093
1614	1.6049e+02	-15.7632	-64.186421	0.000294	2.940227	0.996176	0.000118
1615	1.6059e+02	-15.7263	-64.162198	0.000061	0.608323	0.206105	0.000024
1616	1.6069e+02	-15.6846	-64.028973	0.000335	3.345776	1.133580	0.000134
1617	1.6079e+02	-15.6445	-63.940156	0.000223	2.230517	0.755720	0.000089
1618	1.6089e+02	-15.6012	-63.802893	0.000345	3.447163	1.167930	0.000138
1619	1.6099e+02	-15.5611	-63.730225	0.000182	1.824969	0.618316	0.000073
1620	1.6109e+02	-15.5210	-63.661593	0.000172	1.723582	0.583965	0.000069
1621	1.6119e+02	-15.4889	-63.540479	0.000304	3.041615	1.030527	0.000122
1622	1.6129e+02	-15.4456	-63.439551	0.000253	2.534679	0.858772	0.000101
1623	1.6139e+02	-15.3958	-63.310363	0.000324	3.244389	1.099229	0.000130
1624	1.6149e+02	-15.3621	-63.233657	0.000193	1.926356	0.652667	0.000077
1625	1.6159e+02	-15.3236	-63.104469	0.000324	3.244389	1.099229	0.000130
1626	1.6169e+02	-15.2899	-63.043912	0.000152	1.520807	0.515263	0.000061
1627	1.6179e+02	-15.2482	-62.947020	0.000243	2.433292	0.824422	0.000097
1628	1.6189e+02	-15.2001	-62.833981	0.000284	2.838840	0.961825	0.000114
1629	1.6199e+02	-15.1616	-62.720941	0.000284	2.838840	0.961825	0.000114
1630	1.6209e+02	-15.1231	-62.615975	0.000264	2.636066	0.893123	0.000105
1631	1.6219e+02	-15.0782	-62.519084	0.000243	2.433292	0.824422	0.000097
1632	1.6228e+02	-15.0461	-62.426230	0.000233	2.331904	0.790071	0.000093
1633	1.6238e+02	-15.0012	-62.317227	0.000274	2.737453	0.927474	0.000110
1634	1.6248e+02	-14.9627	-62.244559	0.000182	1.824969	0.618316	0.000073
1635	1.6258e+02	-14.9306	-62.079036	0.000416	4.156873	1.408387	0.000166
1636	1.6268e+02	-14.8841	-61.961959	0.000294	2.940227	0.996176	0.000118
1637	1.6278e+02	-14.8504	-61.941774	0.000051	0.506936	0.171754	0.000020
1638	1.6288e+02	-14.8055	-61.808548	0.000335	3.345776	1.133580	0.000134
1639	1.6298e+02	-14.7605	-61.731843	0.000193	1.926356	0.652667	0.000077
1640	1.6308e+02	-14.7188	-61.614766	0.000294	2.940227	0.996176	0.000118
1641	1.6318e+02	-14.6884	-61.497689	0.000294	2.940227	0.996176	0.000118
1642	1.6328e+02	-14.6450	-61.412909	0.000213	2.129130	0.721369	0.000085
1643	1.6338e+02	-14.6001	-61.263535	0.000375	3.751325	1.270983	0.000150
1644	1.6348e+02	-14.5648	-61.186829	0.000193	1.926356	0.652667	0.000077
1645	1.6358e+02	-14.5327	-61.098012	0.000223	2.230517	0.755720	0.000089
1646	1.6368e+02	-14.4766	-61.001121	0.000243	2.433292	0.824422	0.000097
1647	1.6378e+02	-14.4477	-60.863858	0.000345	3.447163	1.167930	0.000138
1648	1.6388e+02	-14.4044	-60.799264	0.000162	1.622194	0.549614	0.000065
1649	1.6398e+02	-14.3691	-60.678150	0.000304	3.041615	1.030527	0.000122
1650	1.6408e+02	-14.3210	-60.581259	0.000243	2.433292	0.824422	0.000097
1651	1.6418e+02	-14.2777	-60.508590	0.000182	1.824969	0.618316	0.000073
1652	1.6427e+02	-14.2536	-60.334994	0.000436	4.359648	1.477089	0.000174
1653	1.6437e+02	-14.2199	-60.254251	0.000203	2.027743	0.687018	0.000081
1654	1.6447e+02	-14.1814	-60.157360	0.000243	2.433292	0.824422	0.000097
1655	1.6457e+02	-14.1253	-60.056431	0.000253	2.534679	0.858772	0.000101
1656	1.6467e+02	-14.0820	-59.923206	0.000335	3.345776	1.133580	0.000134
1657	1.6477e+02	-14.0354	-59.834389	0.000223	2.230517	0.755720	0.000089
1658	1.6487e+02	-14.0017	-59.741535	0.000233	2.331904	0.790071	0.000093
1659	1.6497e+02	-13.9713	-59.616383	0.000314	3.143002	1.064878	0.000126
1660	1.6507e+02	-13.9312	-59.519492	0.000243	2.433292	0.824422	0.000097
1661	1.6517e+02	-13.8830	-59.406452	0.000284	2.838840	0.961825	0.000114
1662	1.6527e+02	-13.8526	-59.301487	0.000264	2.636066	0.893123	0.000105
1663	1.6537e+02	-13.8108	-59.208633	0.000233	2.331904	0.790071	0.000093
1664	1.6547e+02	-13.7675	-59.107704	0.000253	2.534679	0.858772	0.000101
1665	1.6557e+02	-13.7242	-58.982553	0.000314	3.143002	1.064878	0.000126
1666	1.6567e+02	-13.6889	-58.881625	0.000253	2.534679	0.858772	0.000101
1667	1.6577e+02	-13.6440	-58.792808	0.000223	2.230517	0.755720	0.000089
1668	1.6587e+02	-13.6071	-58.651508	0.000355	3.548550	1.202281	0.000142
1669	1.6597e+02	-13.5622	-58.582877	0.000172	1.723582	0.583965	0.000069
1670	1.6607e+02	-13.5269	-58.502134	0.000203	2.027743	0.687018	0.000081
1671	1.6616e+02	-13.4964	-58.324500	0.000446	4.461035	1.511439	0.000179
1672	1.6626e+02	-13.4371	-58.251832	0.000182	1.824969	0.618316	0.000073
1673	1.6636e+02	-13.4066	-58.175126	0.000193	1.926356	0.652667	0.000077
1674	1.6646e+02	-13.3681	-58.054012	0.000304	3.041615	1.030527	0.000122
1675	1.6656e+02	-13.3296	-57.920786	0.000335	3.345776	1.133580	0.000134
1676	1.6666e+02	-13.2830	-57.836007	0.000213	2.129130	0.721369	0.000085
1677	1.6676e+02	-13.2542	-57.739115	0.000243	2.433292	0.824422	0.000097
1678	1.6686e+02	-13.2076	-57.605890	0.000335	3.345776	1.133580	0.000134
1679	1.6696e+02	-13.1691	-57.517073	0.000223	2.230517	0.755720	0.000089
1680	1.6706e+02	-13.1258	-57.416144	0.000253	2.534679	0.858772	0.000101
1681	1.6716e+02	-13.0954	-57.311179	0.000264	2.636066	0.893123	0.000105
1682	1.6726e+02	-13.0569	-57.194102	0.000294	2.940227	0.996176	0.000118
1683	1.6736e+02	-13.0087	-57.060877	0.000335	3.345776	1.133580	0.000134
1684	1.6746e+02	-12.9670	-56.943800	0.000294	2.940227	0.996176	0.000118
1685	1.6756e+02	-12.9285	-56.871131	0.000182	1.824969	0.618316	0.000073
1686	1.6766e+02	-12.8868	-56.770203	0.000253	2.534679	0.858772	0.000101
1687	1.6776e+02	-12.8547	-56.653126	0.000294	2.940227	0.996176	0.000118
1688	1.6786e+02	-12.8130	-56.564309	0.000223	2.230517	0.755720	0.000089
1689	1.6796e+02	-12.7713	-56.463380	0.000253	2.534679	0.858772	0.000101
1690	1.6806e+02	-12.7264	-56.330155	0.000335	3.345776	1.133580	0.000134
1691	1.6816e+02	-12.6943	-56.217115	0.000284	2.838840	0.961825	0.000114
1692	1.6825e+02	-12.6462	-56.108112	0.000274	2.737453	0.927474	0.000110
1693	1.6835e+02	-12.6141	-56.007184	0.000253	2.534679	0.858772	0.000101
1694	1.6845e+02	-12.5692	-55.906256	0.000253	2.534679	0.858772	0.000101
1695	1.6855e+02	-12.5307	-55.829550	0.000193	1.926356	0.652667	0.000077
1696	1.6865e+02	-12.4857	-55.680176	0.000375	3.751325	1.270983	0.000150
1697	1.6875e+02	-12.4505	-55.559062	0.000304	3.041615	1.030527	0.000122
1698	1.6885e+02	-12.4184	-55.437948	0.000304	3.041615	1.030527	0.000122
1699	1.6895e+02	-12.3734	-55.312797	0.000314	3.143002	1.064878	0.000126
1700	1.6905e+02	-12.3349	-55.256277	0.000142	1.419420	0.480913	0.000057
1701	1.6915e+02	-12.2948	-55.106903	0.000375	3.751325	1.270983	0.000150
1702	1.6925e+02	-12.2579	-55.018086	0.000223	2.230517	0.755720	0.000089
1703	1.6935e+02	-12.2114	-54.929269	0.000223	2.230517	0.755720	0.000089
1704	1.6945e+02	-12.1729	-54.763746	0.000416	4.156873	1.408387	0.000166
1705	1.6955e+02	-12.1456	-54.674929	0.000223	2.230517	0.755720	0.000089
1706	1.6965e+02	-12.0895	-54.549778	0.000314	3.143002	1.064878	0.000126
1707	1.6975e+02	-12.0526	-54.456924	0.000233	2.331904	0.790071	0.000093
1708	1.6985e+02	-12.0269	-54.343884	0.000284	2.838840	0.961825	0.000114
1709	1.6995e+02	-11.9740	-54.226807	0.000294	2.940227	0.996176	0.000118
1710	1.7005e+02	-11.9387	-54.093582	0.000335	3.345776	1.133580	0.000134
1711	1.7015e+02	-11.8954	-53.972468	0.000304	3.041615	1.030527	0.000122
1712	1.7024e+02	-11.8585	-53.932096	0.000101	1.013872	0.343509	0.000041
1713	1.7034e+02	-11.8184	-53.782722	0.000375	3.751325	1.270983	0.000150
1714	1.7044e+02	-11.7783	-53.665645	0.000294	2.940227	0.996176	0.000118
1715	1.7054e+02	-11.7430	-53.536457	0.000324	3.244389	1.099229	0.000130
1716	1.7064e+02	-11.6997	-53.411306	0.000314	3.143002	1.064878	0.000126
1717	1.7074e+02	-11.6644	-53.330563	0.000203	2.027743	0.687018	0.000081
1718	1.7084e+02	-11.6162	-53.148892	0.000456	4.562422	1.545790	0.000183
1719	1.7094e+02	-11.5745	-53.084298	0.000162	1.622194	0.549614	0.000065
1720	1.7104e+02	-11.5328	-52.995481	0.000223	2.230517	0.755720	0.000089
1721	1.7114e+02	-11.4991	-52.850144	0.000365	3.649937	1.236632	0.000146
1722	1.7124e+02	-11.4510	-52.753253	0.000243	2.433292	0.824422	0.000097
1723	1.7134e+02	-11.4125	-52.620027	0.000335	3.345776	1.133580	0.000134
1724	1.7144e+02	-11.3788	-52.519099	0.000253	2.534679	0.858772	0.000101
1725	1.7154e+02	-11.3499	-52.397985	0.000304	3.041615	1.030527	0.000122
1726	1.7164e+02	-11.2970	-52.325316	0.000182	1.824969	0.618316	0.000073
1727	1.7174e+02	-11.2473	-52.175942	0.000375	3.751325	1.270983	0.000150
1728	1.7184e+02	-11.2184	-52.070977	0.000264	2.636066	0.893123	0.000105
1729	1.7194e+02	-11.1751	-51.929677	0.000355	3.548550	1.202281	0.000142
1730	1.7204e+02	-11.1318	-51.832786	0.000243	2.433292	0.824422	0.000097
1731	1.7213e+02	-11.0997	-51.711672	0.000304	3.041615	1.030527	0.000122
1732	1.7223e+02	-11.0580	-51.578446	0.000335	3.345776	1.133580	0.000134
1733	1.7233e+02	-11.0131	-51.425035	0.000385	3.852712	1.305334	0.000154
1734	1.7243e+02	-10.9778	-51.344292	0.000203	2.027743	0.687018	0.000081
1735	1.7253e+02	-10.9425	-51.239327	0.000264	2.636066	0.893123	0.000105
1736	1.7263e+02	-10.8959	-51.126287	0.000284	2.838840	0.961825	0.000114
1737	1.7273e+02	-10.8623	-50.984987	0.000355	3.548550	1.202281	0.000142
1738	1.7283e+02	-10.8173	-50.908282	0.000193	1.926356	0.652667	0.000077
1739	1.7293e+02	-10.7724	-50.742759	0.000416	4.156873	1.408387	0.000166
1740	1.7303e+02	-10.7323	-50.593385	0.000375	3.751325	1.270983	0.000150
1741	1.7313e+02	-10.7066	-50.484382	0.000274	2.737453	0.927474	0.000110
1742	1.7323e+02	-10.6569	-50.363268	0.000304	3.041615	1.030527	0.000122
1743	1.7333e+02	-10.6200	-50.258303	0.000264	2.636066	0.893123	0.000105
1744	1.7343e+02	-10.5783	-50.157374	0.000253	2.534679	0.858772	0.000101
1745	1.7353e+02	-10.5478	-50.060483	0.000243	2.433292	0.824422	0.000097
1746	1.7363e+02	-10.4981	-49.907072	0.000385	3.852712	1.305334	0.000154
1747	1.7373e+02	-10.4628	-49.798069	0.000274	2.737453	0.927474	0.000110
1748	1.7383e+02	-10.4227	-49.648695	0.000375	3.751325	1.270983	0.000150
1749	1.7393e+02	-10.3730	-49.531618	0.000294	2.940227	0.996176	0.000118
1750	1.7403e+02	-10.3473	-49.418579	0.000284	2.838840	0.961825	0.000114
1751	1.7413e+02	-10.3072	-49.313613	0.000264	2.636066	0.893123	0.000105
1752	1.7422e+02	-10.2623	-49.172313	0.000355	3.548550	1.202281	0.000142
1753	1.7432e+02	-10.2206	-49.067348	0.000264	2.636066	0.893123	0.000105
1754	1.7442e+02	-10.1837	-48.950271	0.000294	2.940227	0.996176	0.000118
1755	1.7452e+02	-10.1388	-48.772637	0.000446	4.461035	1.511439	0.000179
1756	1.7462e+02	-10.1019	-48.647486	0.000314	3.143002	1.064878	0.000126
1757	1.7472e+02	-10.0617	-48.550594	0.000243	2.433292	0.824422	0.000097
1758	1.7482e+02	-10.0216	-48.437555	0.000284	2.838840	0.961825	0.000114
1759	1.7492e+02	-9.9896	-48.292218	0.000365	3.649937	1.236632	0.000146
1760	1.7502e+02	-9.9446	-48.187252	0.000264	2.636066	0.893123	0.000105
1761	1.7512e+02	-9.8997	-48.037878	0.000375	3.751325	1.270983	0.000150
1762	1.7522e+02	-9.8596	-47.940987	0.000243	2.433292	0.824422	0.000097
1763	1.7532e+02	-9.8307	-47.759316	0.000456	4.562422	1.545790	0.000183
1764	1.7542e+02	-9.7810	-47.650313	0.000274	2.737453	0.927474	0.000110
1765	1.7552e+02	-9.7345	-47.521125	0.000324	3.244389	1.099229	0.000130
1766	1.7562e+02	-9.7072	-47.387899	0.000335	3.345776	1.133580	0.000134
1767	1.7572e+02	-9.6607	-47.270822	0.000294	2.940227	0.996176	0.000118
1768	1.7582e+02	-9.6206	-47.133560	0.000345	3.447163	1.167930	0.000138
1769	1.7592e+02	-9.5901	-47.016483	0.000294	2.940227	0.996176	0.000118
1770	1.7602e+02	-9.5340	-46.887294	0.000324	3.244389	1.099229	0.000130
1771	1.7612e+02	-9.5051	-46.741958	0.000365	3.649937	1.236632	0.000146
1772	1.7621e+02	-9.4634	-46.608732	0.000335	3.345776	1.133580	0.000134
1773	1.7631e+02	-9.4297	-46.523952	0.000213	2.129130	0.721369	0.000085
1774	1.7641e+02	-9.3783	-46.366504	0.000395	3.954099	1.339685	0.000158
1775	1.7651e+02	-9.3414	-46.245390	0.000304	3.041615	1.030527	0.000122
1776	1.7661e+02	-9.2981	-46.108127	0.000345	3.447163	1.167930	0.000138
1777	1.7671e+02	-9.2741	-45.978939	0.000324	3.244389	1.099229	0.000130
1778	1.7681e+02	-9.2275	-45.845713	0.000335	3.345776	1.133580	0.000134
1779	1.7691e+02	-9.1842	-45.752859	0.000233	2.331904	0.790071	0.000093
1780	1.7701e+02	-9.1457	-45.579262	0.000436	4.359648	1.477089	0.000174
1781	1.7711e+02	-9.1136	-45.433926	0.000365	3.649937	1.236632	0.000146
1782	1.7721e+02	-9.0735	-45.349146	0.000213	2.129130	0.721369	0.000085
1783	1.7731e+02	-9.0302	-45.159400	0.000477	4.765196	1.614492	0.000191
1784	1.7741e+02	-8.9837	-45.042323	0.000294	2.940227	0.996176	0.000118
1785	1.7751e+02	-8.9420	-44.945432	0.000243	2.433292	0.824422	0.000097
1786	1.7761e+02	-8.9083	-44.792021	0.000385	3.852712	1.305334	0.000154
1787	1.7771e+02	-8.8714	-44.683018	0.000274	2.737453	0.927474	0.000110
1788	1.7781e+02	-8.8137	-44.569979	0.000284	2.838840	0.961825	0.000114
1789	1.7791e+02	-8.7896	-44.416567	0.000385	3.852712	1.305334	0.000154
1790	1.7801e+02	-8.7463	-44.251045	0.000416	4.156873	1.408387	0.000166
1791	1.7810e+02	-8.7062	-44.125894	0.000314	3.143002	1.064878	0.000126
1792	1.7820e+02	-8.6629	-44.012854	0.000284	2.838840	0.961825	0.000114
1793	1.7830e+02	-8.6276	-43.895777	0.000294	2.940227	0.996176	0.000118
1794	1.7840e+02	-8.5859	-43.758514	0.000345	3.447163	1.167930	0.000138
1795	1.7850e+02	-8.5425	-43.609140	0.000375	3.751325	1.270983	0.000150
1796	1.7860e+02	-8.5040	-43.483989	0.000314	3.143002	1.064878	0.000126
1797	1.7870e+02	-8.4591	-43.338652	0.000365	3.649937	1.236632	0.000146
1798	1.7880e+02	-8.4254	-43.189278	0.000375	3.751325	1.270983	0.000150
1799	1.7890e+02	-8.3917	-43.072201	0.000294	2.940227	0.996176	0.000118
1800	1.7900e+02	-8.3436	-42.918790	0.000385	3.852712	1.305334	0.000154
1801	1.7910e+02	-8.3067	-42.781527	0.000345	3.447163	1.167930	0.000138
1802	1.7920e+02	-8.2698	-42.668488	0.000284	2.838840	0.961825	0.000114
1803	1.7930e+02	-8.2377	-42.579671	0.000223	2.230517	0.755720	0.000089
1804	1.7940e+02	-8.1896	-42.410111	0.000426	4.258260	1.442738	0.000170
1805	1.7950e+02	-8.1479	-42.260737	0.000375	3.751325	1.270983	0.000150
1806	1.7960e+02	-8.1030	-42.159809	0.000253	2.534679	0.858772	0.000101
1807	1.7970e+02	-8.0757	-42.010434	0.000375	3.751325	1.270983	0.000150
1808	1.7980e+02	-8.0356	-41.848949	0.000406	4.055486	1.374036	0.000162
1809	1.7990e+02	-7.9987	-41.699575	0.000375	3.751325	1.270983	0.000150
1810	1.8000e+02	-7.9602	-41.558275	0.000355	3.548550	1.202281	0.000142
1811	1.8009e+02	-7.9137	-41.457347	0.000253	2.534679	0.858772	0.000101
1812	1.8019e+02	-7.8656	-41.332196	0.000314	3.143002	1.064878	0.000126
1813	1.8029e+02	-7.8254	-41.203007	0.000324	3.244389	1.099229	0.000130
1814	1.8039e+02	-7.7789	-41.041522	0.000406	4.055486	1.374036	0.000162
1815	1.8049e+02	-7.7468	-40.940594	0.000253	2.534679	0.858772	0.000101
1816	1.8059e+02	-7.7115	-40.762960	0.000446	4.461035	1.511439	0.000179
1817	1.8069e+02	-7.6763	-40.617623	0.000365	3.649937	1.236632	0.000146
1818	1.8079e+02	-7.6233	-40.460174	0.000395	3.954099	1.339685	0.000158
1819	1.8089e+02	-7.5832	-40.343097	0.000294	2.940227	0.996176	0.000118
1820	1.8099e+02	-7.5559	-40.234095	0.000274	2.737453	0.927474	0.000110
1821	1.8109e+02	-7.5062	-40.064535	0.000426	4.258260	1.442738	0.000170
1822	1.8119e+02	-7.4757	-39.935347	0.000324	3.244389	1.099229	0.000130
1823	1.8129e+02	-7.4356	-39.777898	0.000395	3.954099	1.339685	0.000158
1824	1.8139e+02	-7.3939	-39.604302	0.000436	4.359648	1.477089	0.000174
1825	1.8149e+02	-7.3506	-39.503373	0.000253	2.534679	0.858772	0.000101
1826	1.8159e+02	-7.3041	-39.386296	0.000294	2.940227	0.996176	0.000118
1827	1.8169e+02	-7.2720	-39.240959	0.000365	3.649937	1.236632	0.000146
1828	1.8179e+02	-7.2303	-39.079474	0.000406	4.055486	1.374036	0.000162
1829	1.8189e+02	-7.2030	-38.958360	0.000304	3.041615	1.030527	0.000122
1830	1.8199e+02	-7.1485	-38.808986	0.000375	3.751325	1.270983	0.000150
1831	1.8209e+02	-7.1244	-38.691909	0.000294	2.940227	0.996176	0.000118
1832	1.8218e+02	-7.0634	-38.506201	0.000466	4.663809	1.580141	0.000187
1833	1.8228e+02	-7.0297	-38.421421	0.000213	2.129130	0.721369	0.000085
1834	1.8238e+02	-6.9945	-38.223601	0.000497	4.967970	1.683194	0.000199
1835	1.8248e+02	-6.9527	-38.110561	0.000284	2.838840	0.961825	0.000114
1836	1.8258e+02	-6.9110	-37.985410	0.000314	3.143002	1.064878	0.000126
1837	1.8268e+02	-6.8677	-37.819888	0.000416	4.156873	1.408387	0.000166
1838	1.8278e+02	-6.8324	-37.714922	0.000264	2.636066	0.893123	0.000105
1839	1.8288e+02	-6.7971	-37.569585	0.000365	3.649937	1.236632	0.000146
1840	1.8298e+02	-6.7570	-37.404063	0.000416	4.156873	1.408387	0.000166
1841	1.8308e+02	-6.7185	-37.266800	0.000345	3.447163	1.167930	0.000138
1842	1.8318e+02	-6.6672	-37.101277	0.000416	4.156873	1.408387	0.000166
1843	1.8328e+02	-6.6399	-36.976126	0.000314	3.143002	1.064878	0.000126
1844	1.8338e+02	-6.5950	-36.879235	0.000243	2.433292	0.824422	0.000097
1845	1.8348e+02	-6.5677	-36.705638	0.000436	4.359648	1.477089	0.000174
1846	1.8358e+02	-6.5020	-36.584524	0.000304	3.041615	1.030527	0.000122
1847	1.8368e+02	-6.4795	-36.410927	0.000436	4.359648	1.477089	0.000174
1848	1.8378e+02	-6.4362	-36.301925	0.000274	2.737453	0.927474	0.000110
1849	1.8388e+02	-6.3977	-36.168699	0.000335	3.345776	1.133580	0.000134
1850	1.8398e+02	-6.3528	-36.003177	0.000416	4.156873	1.408387	0.000166
1851	1.8407e+02	-6.3159	-35.865914	0.000345	3.447163	1.167930	0.000138
1852	1.8417e+02	-6.2758	-35.704428	0.000406	4.055486	1.374036	0.000162
1853	1.8427e+02	-6.2405	-35.567166	0.000345	3.447163	1.167930	0.000138
1854	1.8437e+02	-6.2020	-35.462200	0.000264	2.636066	0.893123	0.000105
1855	1.8447e+02	-6.1683	-35.288603	0.000436	4.359648	1.477089	0.000174
1856	1.8457e+02	-6.1201	-35.179601	0.000274	2.737453	0.927474	0.000110
1857	1.8467e+02	-6.0784	-35.010041	0.000426	4.258260	1.442738	0.000170
1858	1.8477e+02	-6.0464	-34.872779	0.000345	3.447163	1.167930	0.000138
1859	1.8487e+02	-5.9998	-34.719367	0.000385	3.852712	1.305334	0.000154
1860	1.8497e+02	-5.9742	-34.569993	0.000375	3.751325	1.270983	0.000150
1861	1.8507e+02	-5.9196	-34.424656	0.000365	3.649937	1.236632	0.000146
1862	1.8517e+02	-5.8667	-34.287394	0.000345	3.447163	1.167930	0.000138
1863	1.8527e+02	-5.8426	-34.125908	0.000406	4.055486	1.374036	0.000162
1864	1.8537e+02	-5.8041	-33.972497	0.000385	3.852712	1.305334	0.000154
1865	1.8547e+02	-5.7592	-33.851383	0.000304	3.041615	1.030527	0.000122
1866	1.8557e+02	-5.7159	-33.673749	0.000446	4.461035	1.511439	0.000179
1867	1.8567e+02	-5.6742	-33.528412	0.000365	3.649937	1.236632	0.000146
1868	1.8577e+02	-5.6437	-33.366927	0.000406	4.055486	1.374036	0.000162
1869	1.8587e+02	-5.5972	-33.209479	0.000395	3.954099	1.339685	0.000158
1870	1.8597e+02	-5.5667	-33.080290	0.000324	3.244389	1.099229	0.000130
1871	1.8606e+02	-5.5170	-32.922842	0.000395	3.954099	1.339685	0.000158
1872	1.8616e+02	-5.4801	-32.793654	0.000324	3.244389	1.099229	0.000130
1873	1.8626e+02	-5.4432	-32.611982	0.000456	4.562422	1.545790	0.000183
1874	1.8636e+02	-5.4127	-32.494906	0.000294	2.940227	0.996176	0.000118
1875	1.8646e+02	-5.3581	-32.309197	0.000466	4.663809	1.580141	0.000187
1876	1.8656e+02	-5.3373	-32.159823	0.000375	3.751325	1.270983	0.000150
1877	1.8666e+02	-5.2827	-32.030635	0.000324	3.244389	1.099229	0.000130
1878	1.8676e+02	-5.2507	-31.877224	0.000385	3.852712	1.305334	0.000154
1879	1.8686e+02	-5.2089	-31.735924	0.000355	3.548550	1.202281	0.000142
1880	1.8696e+02	-5.1688	-31.570401	0.000416	4.156873	1.408387	0.000166
1881	1.8706e+02	-5.1255	-31.404879	0.000416	4.156873	1.408387	0.000166
1882	1.8716e+02	-5.0886	-31.299913	0.000264	2.636066	0.893123	0.000105
1883	1.8726e+02	-5.0485	-31.134391	0.000416	4.156873	1.408387	0.000166
1884	1.8736e+02	-5.0020	-30.948683	0.000466	4.663809	1.580141	0.000187
1885	1.8746e+02	-4.9603	-30.787197	0.000406	4.055486	1.374036	0.000162
1886	1.8756e+02	-4.9298	-30.653972	0.000335	3.345776	1.133580	0.000134
1887	1.8766e+02	-4.8865	-30.504598	0.000375	3.751325	1.270983	0.000150
1888	1.8776e+02	-4.8464	-30.363298	0.000355	3.548550	1.202281	0.000142
1889	1.8786e+02	-4.8095	-30.201812	0.000406	4.055486	1.374036	0.000162
1890	1.8796e+02	-4.7646	-30.024178	0.000446	4.461035	1.511439	0.000179
1891	1.8806e+02	-4.7277	-29.882879	0.000355	3.548550	1.202281	0.000142
1892	1.8815e+02	-4.6940	-29.733505	0.000375	3.751325	1.270983	0.000150
1893	1.8825e+02	-4.6426	-29.559908	0.000436	4.359648	1.477089	0.000174
1894	1.8835e+02	-4.6025	-29.422645	0.000345	3.447163	1.167930	0.000138
1895	1.8845e+02	-4.5737	-29.253086	0.000426	4.258260	1.442738	0.000170
1896	1.8855e+02	-4.5287	-29.095637	0.000395	3.954099	1.339685	0.000158
1897	1.8865e+02	-4.4854	-28.958375	0.000345	3.447163	1.167930	0.000138
1898	1.8875e+02	-4.4501	-28.772666	0.000466	4.663809	1.580141	0.000187
1899	1.8885e+02	-4.4020	-28.599070	0.000436	4.359648	1.477089	0.000174
1900	1.8895e+02	-4.3651	-28.473918	0.000314	3.143002	1.064878	0.000126
1901	1.8905e+02	-4.3266	-28.284173	0.000477	4.765196	1.614492	0.000191
1902	1.8915e+02	-4.2849	-28.167096	0.000294	2.940227	0.996176	0.000118
1903	1.8925e+02	-4.2496	-27.997536	0.000426	4.258260	1.442738	0.000170
1904	1.8935e+02	-4.2079	-27.848162	0.000375	3.751325	1.270983	0.000150
1905	1.8945e+02	-4.1694	-27.698788	0.000375	3.751325	1.270983	0.000150
1906	1.8955e+02	-4.1293	-27.505006	0.000487	4.866583	1.648843	0.000195
1907	1.8965e+02	-4.0940	-27.359669	0.000365	3.649937	1.236632	0.000146
1908	1.8975e+02	-4.0523	-27.206258	0.000385	3.852712	1.305334	0.000154
1909	1.8985e+02	-4.0122	-27.032661	0.000436	4.359648	1.477089	0.000174
1910	1.8995e+02	-3.9673	-26.863101	0.000426	4.258260	1.442738	0.000170
1911	1.9004e+02	-3.9272	-26.673356	0.000477	4.765196	1.614492	0.000191
1912	1.9014e+02	-3.8871	-26.503796	0.000426	4.258260	1.442738	0.000170
1913	1.9024e+02	-3.8502	-26.398831	0.000264	2.636066	0.893123	0.000105
1914	1.9034e+02	-3.8068	-26.209085	0.000477	4.765196	1.614492	0.000191
1915	1.9044e+02	-3.7667	-26.035488	0.000436	4.359648	1.477089	0.000174
1916	1.9054e+02	-3.7314	-25.878040	0.000395	3.954099	1.339685	0.000158
1917	1.9064e+02	-3.6929	-25.708480	0.000426	4.258260	1.442738	0.000170
1918	1.9074e+02	-3.6496	-25.546995	0.000406	4.055486	1.374036	0.000162
1919	1.9084e+02	-3.6127	-25.409732	0.000345	3.447163	1.167930	0.000138
1920	1.9094e+02	-3.5726	-25.203838	0.000517	5.170745	1.751896	0.000207
1921	1.9104e+02	-3.5309	-25.054464	0.000375	3.751325	1.270983	0.000150
1922	1.9114e+02	-3.4876	-24.880868	0.000436	4.359648	1.477089	0.000174
1923	1.9124e+02	-3.4459	-24.735531	0.000365	3.649937	1.236632	0.000146
1924	1.9134e+02	-3.4042	-24.541748	0.000487	4.866583	1.648843	0.000195
1925	1.9144e+02	-3.3593	-24.380263	0.000406	4.055486	1.374036	0.000162
1926	1.9154e+02	-3.3384	-24.218777	0.000406	4.055486	1.374036	0.000162
1927	1.9164e+02	-3.2951	-24.057292	0.000406	4.055486	1.374036	0.000162
1928	1.9174e+02	-3.2470	-23.883695	0.000436	4.359648	1.477089	0.000174
1929	1.9184e+02	-3.2165	-23.689913	0.000487	4.866583	1.648843	0.000195
1930	1.9194e+02	-3.1716	-23.564761	0.000314	3.143002	1.064878	0.000126
1931	1.9203e+02	-3.1331	-23.407313	0.000395	3.954099	1.339685	0.000158
1932	1.9213e+02	-3.0881	-23.197382	0.000527	5.272132	1.786247	0.000211
1933	1.9223e+02	-3.0496	-23.043971	0.000385	3.852712	1.305334	0.000154
1934	1.9233e+02	-3.0047	-22.862300	0.000456	4.562422	1.545790	0.000183
1935	1.9243e+02	-2.9742	-22.640257	0.000558	5.576293	1.889299	0.000223
1936	1.9253e+02	-2.9293	-22.482809	0.000395	3.954099	1.339685	0.000158
1937	1.9263e+02	-2.8956	-22.317286	0.000416	4.156873	1.408387	0.000166
1938	1.9273e+02	-2.8523	-22.143690	0.000436	4.359648	1.477089	0.000174
1939	1.9283e+02	-2.8154	-21.990278	0.000385	3.852712	1.305334	0.000154
1940	1.9293e+02	-2.7785	-21.788422	0.000507	5.069358	1.717545	0.000203
1941	1.9303e+02	-2.7320	-21.671345	0.000294	2.940227	0.996176	0.000118
1942	1.9313e+02	-2.6839	-21.457376	0.000537	5.373519	1.820598	0.000215
1943	1.9323e+02	-2.6470	-21.251483	0.000517	5.170745	1.751896	0.000207
1944	1.9333e+02	-2.6165	-21.110183	0.000355	3.548550	1.202281	0.000142
1945	1.9343e+02	-2.5764	-20.924475	0.000466	4.663809	1.580141	0.000187
1946	1.9353e+02	-2.5363	-20.775101	0.000375	3.751325	1.270983	0.000150
1947	1.9363e+02	-2.4930	-20.585355	0.000477	4.765196	1.614492	0.000191
1948	1.9373e+02	-2.4577	-20.435981	0.000375	3.751325	1.270983	0.000150
1949	1.9383e+02	-2.4160	-20.250273	0.000466	4.663809	1.580141	0.000187
1950	1.9393e+02	-2.3678	-20.064565	0.000466	4.663809	1.580141	0.000187
1951	1.9403e+02	-2.3293	-19.895005	0.000426	4.258260	1.442738	0.000170
1952	1.9412e+02	-2.2989	-19.745631	0.000375	3.751325	1.270983	0.000150
1953	1.9422e+02	-2.2491	-19.559923	0.000466	4.663809	1.580141	0.000187
1954	1.9432e+02	-2.2122	-19.345954	0.000537	5.373519	1.820598	0.000215
1955	1.9442e+02	-2.1737	-19.172358	0.000436	4.359648	1.477089	0.000174
1956	1.9452e+02	-2.1304	-19.043169	0.000324	3.244389	1.099229	0.000130
1957	1.9462e+02	-2.0871	-18.813053	0.000578	5.779068	1.958001	0.000231
1958	1.9472e+02	-2.0582	-18.651567	0.000406	4.055486	1.374036	0.000162
1959	1.9482e+02	-2.0213	-18.469896	0.000456	4.562422	1.545790	0.000183
1960	1.9492e+02	-1.9764	-18.296299	0.000436	4.359648	1.477089	0.000174
1961	1.9502e+02	-1.9315	-18.134814	0.000406	4.055486	1.374036	0.000162
1962	1.9512e+02	-1.9010	-17.936994	0.000497	4.967970	1.683194	0.000199
1963	1.9522e+02	-1.8561	-17.775509	0.000406	4.055486	1.374036	0.000162
1964	1.9532e+02	-1.8176	-17.593838	0.000456	4.562422	1.545790	0.000183
1965	1.9542e+02	-1.7631	-17.412166	0.000456	4.562422	1.545790	0.000183
1966	1.9552e+02	-1.7454	-17.254718	0.000395	3.954099	1.339685	0.000158
1967	1.9562e+02	-1.6989	-17.016527	0.000598	5.981842	2.026703	0.000239
1968	1.9572e+02	-1.6636	-16.846967	0.000426	4.258260	1.442738	0.000170
1969	1.9582e+02	-1.6235	-16.701631	0.000365	3.649937	1.236632	0.000146
1970	1.9592e+02	-1.5786	-16.491699	0.000527	5.272132	1.786247	0.000211
1971	1.9601e+02	-1.5417	-16.318103	0.000436	4.359648	1.477089	0.000174
1972	1.9611e+02	-1.4855	-16.148543	0.000426	4.258260	1.442738	0.000170
1973	1.9621e+02	-1.4599	-15.983020	0.000416	4.156873	1.408387	0.000166
1974	1.9631e+02	-1.4197	-15.805386	0.000446	4.461035	1.511439	0.000179
1975	1.9641e+02	-1.3812	-15.656012	0.000375	3.751325	1.270983	0.000150
1976	1.9651e+02	-1.3492	-15.425896	0.000578	5.779068	1.958001	0.000231
1977	1.9661e+02	-1.3026	-15.244225	0.000456	4.562422	1.545790	0.000183
1978	1.9671e+02	-1.2545	-15.070628	0.000436	4.359648	1.477089	0.000174
1979	1.9681e+02	-1.2176	-14.897031	0.000436	4.359648	1.477089	0.000174
1980	1.9691e+02	-1.1807	-14.695174	0.000507	5.069358	1.717545	0.000203
1981	1.9701e+02	-1.1358	-14.497354	0.000497	4.967970	1.683194	0.000199
1982	1.9711e+02	-1.0989	-14.331832	0.000416	4.156873	1.408387	0.000166
1983	1.9721e+02	-1.0508	-14.150161	0.000456	4.562422	1.545790	0.000183
1984	1.9731e+02	-1.0203	-13.956378	0.000487	4.866583	1.648843	0.000195
1985	1.9741e+02	-0.9802	-13.802967	0.000385	3.852712	1.305334	0.000154
1986	1.9751e+02	-0.9321	-13.597073	0.000517	5.170745	1.751896	0.000207
1987	1.9761e+02	-0.8936	-13.407328	0.000477	4.765196	1.614492	0.000191
1988	1.9771e+02	-0.8422	-13.225657	0.000456	4.562422	1.545790	0.000183
1989	1.9781e+02	-0.8214	-13.072246	0.000385	3.852712	1.305334	0.000154
1990	1.9791e+02	-0.7797	-12.886537	0.000466	4.663809	1.580141	0.000187
1991	1.9800e+02	-0.7460	-12.676606	0.000527	5.272132	1.786247	0.000211
1992	1.9810e+02	-0.6978	-12.490898	0.000466	4.663809	1.580141	0.000187
1993	1.9820e+02	-0.6577	-12.293078	0.000497	4.967970	1.683194	0.000199
1994	1.9830e+02	-0.6224	-12.123519	0.000426	4.258260	1.442738	0.000170
1995	1.9840e+02	-0.5791	-11.925699	0.000497	4.967970	1.683194	0.000199
1996	1.9850e+02	-0.5310	-11.800548	0.000314	3.143002	1.064878	0.000126
1997	1.9860e+02	-0.5021	-11.562357	0.000598	5.981842	2.026703	0.000239
1998	1.9870e+02	-0.4620	-11.392797	0.000426	4.258260	1.442738	0.000170
1999	1.9880e+02	-0.4139	-11.231312	0.000406	4.055486	1.374036	0.000162
2000	1.9890e+02	-0.3802	-11.005232	0.000568	5.677681	1.923650	0.000227
2001	1.9900e+02	-0.3401	-10.859895	0.000365	3.649937	1.236632	0.000146
2002	1.9910e+02	-0.2984	-10.674187	0.000466	4.663809	1.580141	0.000187
2003	1.9920e+02	-0.2647	-10.484442	0.000477	4.765196	1.614492	0.000191
2004	1.9930e+02	-0.2166	-10.290659	0.000487	4.866583	1.648843	0.000195
2005	1.9940e+02	-0.1861	-10.117062	0.000436	4.359648	1.477089	0.000174
2006	1.9950e+02	-0.1444	-9.939428	0.000446	4.461035	1.511439	0.000179
2007	1.9960e+02	-0.1059	-9.765831	0.000436	4.359648	1.477089	0.000174
2008	1.9970e+02	-0.0674	-9.543789	0.000558	5.576293	1.889299	0.000223
2009	1.9980e+02	-0.0257	-9.382303	0.000558	5.576293	1.889299	0.000162

Center data before PMax,+/-Pr and +/-Vc Calc.

PMax (uC/cm2):	7.25e+01
Pr (uC/cm2):	2.73e+00
-Pr (uC/cm2):	-9.38e+00
PLoss (uC/cm2):	-6.93e+00
Vc:	5.72e-01
-Vc:	-5.68e-01
C (Max-Eff) (nF):	3.63e-01
K (Eff):	1.23e+03
Vert. (+/-Pr) Shift (uC/cm2):	-3.33e+00
Horiz. Shift (+/-Vc):	1.92e-03
Offset (uC/cm2):	2.44e+00

A (Loop Area - uC/cm2·Volts):	6.35e-02



Hysteresis Version: 5.48.1 - Radiant Technologies, Inc., 1999 - 9/12/24

