»»»»»»»»»»»»»»»»»»»»»»»»»»»»»»»»»»»» Hysteresis ««««««««««««««««««««««««««««««««««««
»»»  Executed Version:	5.48.1
»»»  Vision Version:	5.48.4 (R)
»»»  Vision Compiled:	9/18/24
»»»  Driver Version:	5.47.0
»»»  Windows Version:	Windows 8 or 8.1
»»»  Processor Information:	x86 (AMD or Intel) - 32 Processors
»»»  Tester Name:	PMF21124-494 (100V)
»»»  Tester S/N:	PMF21124-494
»»»  Internal Amp Type:	100V RevK 270k
»»»  Internal Amp S/N:	iAB2-596/K     
»»»  Execution Count:	1
»»»»»»»»»»»»»»»»»»»»»»»»»»»»»»»»»»»»»»»»»»««««««««««««««««««««««««««««««««««««««««««

Stored:	6/13/2025 - 17:39:12
Configured:	06/13/25 05:21:47 PM
Executed:	06/13/25 05:38:12 PM

»»»»»»»»»»»»»»»»»»»»»»»»»»»»»»»»»»» Sample Info ««««««««««««««««««««««««««««««««««««
Sample Name:	
Lot Name:	
Wafer Name:	
Die Row/Column:	0/0
Capacitor Number:	0
Sample Area (cm2):	1.00e-04
Sample Thickness (microns):	3.00e-01

Amplifier:	Internal

»»»»»»»»»»»»»»»»»»»»»»»»»»»»»»»»»»» Tester Info «««««««««««««««««««««««««««««««««««
Tester Name:	PMF21124-494 (100V)
Tester Serial Number:	PMF21124-494
Return Signal Amp. Level:	0.19 [Index: 3]

»»»»»»»»»»»»»»»»»»»»»»»»»»»»»»»» Hysteresis Info ««««««««««««««««««««««««««««««««««
Task Name:	Hyst-2150
Volts:	20.00
Field:	666.67 (kV/cm)
DCBias:	0.00
DCField:	0.00 (kV/cm)
Hysteresis Period (ms):	2.00e+02
Preset:	Enabled
Preset Delay (ms):	1.00e+03
Profile:	Standard Bipolar

»»»»»»»»»»»»»»»»»»»»»»»»»»»»»»»»»»»»»» Data «««««««««««««««««««««««««««««««««««««««
Points:	2009

Valid Data

Point	Time (ms)	Drive Voltage	Measured Polarization (uC/cm2)	Capacitance (uF)	Normalized Capacitance (uF/cm2)	Dielectric Constant	Instantaneous Current (mA)
   1	0.0000e+00	-0.0048	-5.296722	0.000345	3.446817	1.167813	0.000138
   2	9.9500e-02	0.0241	-5.159459	0.000345	3.446817	1.167813	0.000138
   3	1.9900e-01	0.0706	-5.014123	0.000365	3.649571	1.236508	0.000146
   4	2.9850e-01	0.1043	-4.836489	0.000446	4.460587	1.511288	0.000179
   5	3.9800e-01	0.1460	-4.675003	0.000406	4.055079	1.373898	0.000162
   6	4.9750e-01	0.1973	-4.481221	0.000487	4.866095	1.648678	0.000195
   7	5.9700e-01	0.2326	-4.343958	0.000345	3.446817	1.167813	0.000138
   8	6.9650e-01	0.2663	-4.178435	0.000416	4.156456	1.408246	0.000166
   9	7.9600e-01	0.2952	-4.012913	0.000416	4.156456	1.408246	0.000166
  10	8.9550e-01	0.3449	-3.847390	0.000416	4.156456	1.408246	0.000166
  11	9.9500e-01	0.3882	-3.677831	0.000426	4.257833	1.442593	0.000170
  12	1.0945e+00	0.4315	-3.492122	0.000466	4.663341	1.579983	0.000187
  13	1.1940e+00	0.4636	-3.322563	0.000426	4.257833	1.442593	0.000170
  14	1.2935e+00	0.5069	-3.124743	0.000497	4.967472	1.683025	0.000199
  15	1.3930e+00	0.5422	-3.039963	0.000213	2.128917	0.721296	0.000085
  16	1.4925e+00	0.5807	-2.825995	0.000537	5.372980	1.820415	0.000215
  17	1.5920e+00	0.6240	-2.652398	0.000436	4.359210	1.476940	0.000174
  18	1.6915e+00	0.6674	-2.478801	0.000436	4.359210	1.476940	0.000174
  19	1.7910e+00	0.7059	-2.329427	0.000375	3.750948	1.270856	0.000150
  20	1.8905e+00	0.7428	-2.131608	0.000497	4.967472	1.683025	0.000199
  21	1.9900e+00	0.7845	-1.970122	0.000406	4.055079	1.373898	0.000162
  22	2.0895e+00	0.8246	-1.808637	0.000406	4.055079	1.373898	0.000162
  23	2.1890e+00	0.8663	-1.651189	0.000395	3.953702	1.339551	0.000158
  24	2.2885e+00	0.9048	-1.509889	0.000355	3.548194	1.202161	0.000142
  25	2.3880e+00	0.9385	-1.299958	0.000527	5.271603	1.786067	0.000211
  26	2.4875e+00	0.9802	-1.114249	0.000466	4.663341	1.579983	0.000187
  27	2.5870e+00	1.0219	-0.976987	0.000345	3.446817	1.167813	0.000138
  28	2.6865e+00	1.0540	-0.823576	0.000385	3.852325	1.305203	0.000154
  29	2.7860e+00	1.0957	-0.613645	0.000527	5.271603	1.786067	0.000211
  30	2.8855e+00	1.1470	-0.492531	0.000304	3.041309	1.030424	0.000122
  31	2.9850e+00	1.1823	-0.282600	0.000527	5.271603	1.786067	0.000211
  32	3.0845e+00	1.2160	-0.165523	0.000294	2.939932	0.996076	0.000118
  33	3.1840e+00	1.2673	0.036334	0.000507	5.068849	1.717373	0.000203
  34	3.2835e+00	1.2962	0.246265	0.000527	5.271603	1.786067	0.000211
  35	3.3830e+00	1.3379	0.371416	0.000314	3.142686	1.064771	0.000126
  36	3.4825e+00	1.3909	0.557125	0.000466	4.663341	1.579983	0.000187
  37	3.5820e+00	1.4197	0.738796	0.000456	4.561964	1.545635	0.000183
  38	3.6815e+00	1.4695	0.916430	0.000446	4.460587	1.511288	0.000179
  39	3.7810e+00	1.5032	1.069841	0.000385	3.852325	1.305203	0.000154
  40	3.8805e+00	1.5449	1.235364	0.000416	4.156456	1.408246	0.000166
  41	3.9800e+00	1.5802	1.429146	0.000487	4.866095	1.648678	0.000195
  42	4.0795e+00	1.6155	1.538149	0.000274	2.737179	0.927381	0.000110
  43	4.1790e+00	1.6620	1.711746	0.000436	4.359210	1.476940	0.000174
  44	4.2785e+00	1.7037	1.929751	0.000547	5.474357	1.854762	0.000219
  45	4.3780e+00	1.7422	2.099311	0.000426	4.257833	1.442593	0.000170
  46	4.4775e+00	1.7807	2.244647	0.000365	3.649571	1.236508	0.000146
  47	4.5770e+00	1.8288	2.426319	0.000456	4.561964	1.545635	0.000183
  48	4.6765e+00	1.8705	2.595878	0.000426	4.257833	1.442593	0.000170
  49	4.7760e+00	1.8946	2.789661	0.000487	4.866095	1.648678	0.000195
  50	4.8755e+00	1.9363	2.922886	0.000335	3.345440	1.133466	0.000134
  51	4.9750e+00	1.9764	3.116669	0.000487	4.866095	1.648678	0.000195
  52	5.0745e+00	2.0133	3.257969	0.000355	3.548194	1.202161	0.000142
  53	5.1740e+00	2.0550	3.459825	0.000507	5.068849	1.717373	0.000203
  54	5.2735e+00	2.0951	3.593051	0.000335	3.345440	1.133466	0.000134
  55	5.3730e+00	2.1433	3.774722	0.000456	4.561964	1.545635	0.000183
  56	5.4725e+00	2.1850	3.960430	0.000466	4.663341	1.579983	0.000187
  57	5.5720e+00	2.2203	4.117878	0.000395	3.953702	1.339551	0.000158
  58	5.6715e+00	2.2588	4.295512	0.000446	4.460587	1.511288	0.000179
  59	5.7710e+00	2.2973	4.461035	0.000416	4.156456	1.408246	0.000166
  60	5.8705e+00	2.3390	4.646743	0.000466	4.663341	1.579983	0.000187
  61	5.9700e+00	2.3630	4.800154	0.000385	3.852325	1.305203	0.000154
  62	6.0695e+00	2.4224	4.989900	0.000476	4.764718	1.614330	0.000191
  63	6.1690e+00	2.4481	5.139274	0.000375	3.750948	1.270856	0.000150
  64	6.2685e+00	2.5010	5.337093	0.000497	4.967472	1.683025	0.000199
  65	6.3680e+00	2.5267	5.490505	0.000385	3.852325	1.305203	0.000154
  66	6.4675e+00	2.5860	5.680250	0.000476	4.764718	1.614330	0.000191
  67	6.5670e+00	2.6213	5.825587	0.000365	3.649571	1.236508	0.000146
  68	6.6665e+00	2.6598	6.019369	0.000487	4.866095	1.648678	0.000195
  69	6.7660e+00	2.7047	6.132409	0.000284	2.838555	0.961729	0.000114
  70	6.8655e+00	2.7384	6.334266	0.000507	5.068849	1.717373	0.000203
  71	6.9650e+00	2.7657	6.491714	0.000395	3.953702	1.339551	0.000158
  72	7.0645e+00	2.8234	6.665311	0.000436	4.359210	1.476940	0.000174
  73	7.1640e+00	2.8539	6.863131	0.000497	4.967472	1.683025	0.000199
  74	7.2635e+00	2.9021	7.004431	0.000355	3.548194	1.202161	0.000142
  75	7.3630e+00	2.9309	7.182064	0.000446	4.460587	1.511288	0.000179
  76	7.4625e+00	2.9726	7.335476	0.000385	3.852325	1.305203	0.000154
  77	7.5620e+00	3.0224	7.529258	0.000487	4.866095	1.648678	0.000195
  78	7.6615e+00	3.0577	7.694781	0.000416	4.156456	1.408246	0.000166
  79	7.7610e+00	3.0978	7.864340	0.000426	4.257833	1.442593	0.000170
  80	7.8605e+00	3.1315	8.025826	0.000406	4.055079	1.373898	0.000162
  81	7.9600e+00	3.1700	8.167126	0.000355	3.548194	1.202161	0.000142
  82	8.0595e+00	3.2133	8.409354	0.000608	6.082619	2.060847	0.000243
  83	8.1590e+00	3.2662	8.534505	0.000314	3.142686	1.064771	0.000126
  84	8.2585e+00	3.2967	8.679842	0.000365	3.649571	1.236508	0.000146
  85	8.3580e+00	3.3352	8.893810	0.000537	5.372980	1.820415	0.000215
  86	8.4575e+00	3.3721	9.063370	0.000426	4.257833	1.442593	0.000170
  87	8.5570e+00	3.4122	9.188521	0.000314	3.142686	1.064771	0.000126
  88	8.6565e+00	3.4523	9.378266	0.000476	4.764718	1.614330	0.000191
  89	8.7560e+00	3.4972	9.559937	0.000456	4.561964	1.545635	0.000183
  90	8.8555e+00	3.5261	9.737571	0.000446	4.460587	1.511288	0.000179
  91	8.9550e+00	3.5742	9.878871	0.000355	3.548194	1.202161	0.000142
  92	9.0545e+00	3.6208	10.068617	0.000476	4.764718	1.614330	0.000191
  93	9.1540e+00	3.6496	10.258362	0.000476	4.764718	1.614330	0.000191
  94	9.2535e+00	3.6945	10.395625	0.000345	3.446817	1.167813	0.000138
  95	9.3530e+00	3.7314	10.569221	0.000436	4.359210	1.476940	0.000174
  96	9.4525e+00	3.7780	10.722633	0.000385	3.852325	1.305203	0.000154
  97	9.5520e+00	3.8020	10.900266	0.000446	4.460587	1.511288	0.000179
  98	9.6515e+00	3.8534	11.053678	0.000385	3.852325	1.305203	0.000154
  99	9.7510e+00	3.8935	11.215163	0.000406	4.055079	1.373898	0.000162
 100	9.8505e+00	3.9368	11.384723	0.000426	4.257833	1.442593	0.000170
 101	9.9500e+00	3.9769	11.570431	0.000466	4.663341	1.579983	0.000187
 102	1.0050e+01	4.0122	11.748065	0.000446	4.460587	1.511288	0.000179
 103	1.0149e+01	4.0555	11.897439	0.000375	3.750948	1.270856	0.000150
 104	1.0248e+01	4.0876	12.050850	0.000385	3.852325	1.305203	0.000154
 105	1.0348e+01	4.1229	12.224447	0.000436	4.359210	1.476940	0.000174
 106	1.0447e+01	4.1694	12.410155	0.000466	4.663341	1.579983	0.000187
 107	1.0547e+01	4.2143	12.563566	0.000385	3.852325	1.305203	0.000154
 108	1.0646e+01	4.2480	12.785609	0.000558	5.575734	1.889110	0.000223
 109	1.0746e+01	4.2833	12.939020	0.000385	3.852325	1.305203	0.000154
 110	1.0845e+01	4.3394	13.092431	0.000385	3.852325	1.305203	0.000154
 111	1.0945e+01	4.3715	13.274102	0.000456	4.561964	1.545635	0.000183
 112	1.1044e+01	4.4148	13.475959	0.000507	5.068849	1.717373	0.000203
 113	1.1144e+01	4.4614	13.637445	0.000406	4.055079	1.373898	0.000162
 114	1.1243e+01	4.4870	13.802967	0.000416	4.156456	1.408246	0.000166
 115	1.1343e+01	4.5336	13.956378	0.000385	3.852325	1.305203	0.000154
 116	1.1443e+01	4.5656	14.097678	0.000355	3.548194	1.202161	0.000142
 117	1.1542e+01	4.6122	14.259163	0.000406	4.055079	1.373898	0.000162
 118	1.1642e+01	4.6491	14.456983	0.000497	4.967472	1.683025	0.000199
 119	1.1741e+01	4.6924	14.622506	0.000416	4.156456	1.408246	0.000166
 120	1.1841e+01	4.7277	14.767843	0.000365	3.649571	1.236508	0.000146
 121	1.1940e+01	4.7774	14.933365	0.000416	4.156456	1.408246	0.000166
 122	1.2040e+01	4.8095	15.123110	0.000476	4.764718	1.614330	0.000191
 123	1.2139e+01	4.8480	15.264410	0.000355	3.548194	1.202161	0.000142
 124	1.2239e+01	4.8977	15.433970	0.000426	4.257833	1.442593	0.000170
 125	1.2338e+01	4.9298	15.631790	0.000497	4.967472	1.683025	0.000199
 126	1.2438e+01	4.9715	15.789238	0.000395	3.953702	1.339551	0.000158
 127	1.2537e+01	5.0004	15.942649	0.000385	3.852325	1.305203	0.000154
 128	1.2636e+01	5.0469	16.148543	0.000517	5.170226	1.751720	0.000207
 129	1.2736e+01	5.0886	16.330214	0.000456	4.561964	1.545635	0.000183
 130	1.2835e+01	5.1223	16.463440	0.000335	3.345440	1.133466	0.000134
 131	1.2935e+01	5.1737	16.637036	0.000436	4.359210	1.476940	0.000174
 132	1.3034e+01	5.2089	16.814670	0.000446	4.460587	1.511288	0.000179
 133	1.3134e+01	5.2490	17.000379	0.000466	4.663341	1.579983	0.000187
 134	1.3233e+01	5.2827	17.149753	0.000375	3.750948	1.270856	0.000150
 135	1.3333e+01	5.3309	17.339498	0.000476	4.764718	1.614330	0.000191
 136	1.3432e+01	5.3710	17.484835	0.000365	3.649571	1.236508	0.000146
 137	1.3532e+01	5.4127	17.662469	0.000446	4.460587	1.511288	0.000179
 138	1.3632e+01	5.4480	17.827991	0.000416	4.156456	1.408246	0.000166
 139	1.3731e+01	5.4817	17.993514	0.000416	4.156456	1.408246	0.000166
 140	1.3831e+01	5.5314	18.183259	0.000476	4.764718	1.614330	0.000191
 141	1.3930e+01	5.5683	18.296299	0.000284	2.838555	0.961729	0.000114
 142	1.4030e+01	5.6068	18.490082	0.000487	4.866095	1.648678	0.000195
 143	1.4129e+01	5.6485	18.675790	0.000466	4.663341	1.579983	0.000187
 144	1.4229e+01	5.6870	18.845350	0.000426	4.257833	1.442593	0.000170
 145	1.4328e+01	5.7255	19.014909	0.000426	4.257833	1.442593	0.000170
 146	1.4428e+01	5.7736	19.188506	0.000436	4.359210	1.476940	0.000174
 147	1.4527e+01	5.8041	19.354029	0.000416	4.156456	1.408246	0.000166
 148	1.4627e+01	5.8538	19.511477	0.000395	3.953702	1.339551	0.000158
 149	1.4726e+01	5.8875	19.644703	0.000335	3.345440	1.133466	0.000134
 150	1.4825e+01	5.9180	19.822336	0.000446	4.460587	1.511288	0.000179
 151	1.4925e+01	5.9677	20.008045	0.000466	4.663341	1.579983	0.000187
 152	1.5024e+01	6.0143	20.153382	0.000365	3.649571	1.236508	0.000146
 153	1.5124e+01	6.0480	20.290644	0.000345	3.446817	1.167813	0.000138
 154	1.5223e+01	6.0800	20.480390	0.000476	4.764718	1.614330	0.000191
 155	1.5323e+01	6.1282	20.649949	0.000426	4.257833	1.442593	0.000170
 156	1.5422e+01	6.1667	20.771063	0.000304	3.041309	1.030424	0.000122
 157	1.5522e+01	6.2020	20.948697	0.000446	4.460587	1.511288	0.000179
 158	1.5621e+01	6.2469	21.142480	0.000487	4.866095	1.648678	0.000195
 159	1.5721e+01	6.2886	21.316077	0.000436	4.359210	1.476940	0.000174
 160	1.5820e+01	6.3255	21.481599	0.000416	4.156456	1.408246	0.000166
 161	1.5920e+01	6.3608	21.614825	0.000335	3.345440	1.133466	0.000134
 162	1.6020e+01	6.4105	21.812644	0.000497	4.967472	1.683025	0.000199
 163	1.6119e+01	6.4410	22.002390	0.000476	4.764718	1.614330	0.000191
 164	1.6218e+01	6.4747	22.139652	0.000345	3.446817	1.167813	0.000138
 165	1.6318e+01	6.5244	22.341509	0.000507	5.068849	1.717373	0.000203
 166	1.6418e+01	6.5645	22.482809	0.000355	3.548194	1.202161	0.000142
 167	1.6517e+01	6.6030	22.628146	0.000365	3.649571	1.236508	0.000146
 168	1.6616e+01	6.6447	22.781557	0.000385	3.852325	1.305203	0.000154
 169	1.6716e+01	6.6768	23.007637	0.000568	5.677111	1.923457	0.000227
 170	1.6816e+01	6.7201	23.096454	0.000223	2.230294	0.755644	0.000089
 171	1.6915e+01	6.7634	23.290236	0.000487	4.866095	1.648678	0.000195
 172	1.7015e+01	6.8019	23.479981	0.000476	4.764718	1.614330	0.000191
 173	1.7114e+01	6.8340	23.601096	0.000304	3.041309	1.030424	0.000122
 174	1.7213e+01	6.8822	23.794878	0.000487	4.866095	1.648678	0.000195
 175	1.7313e+01	6.9223	23.940215	0.000365	3.649571	1.236508	0.000146
 176	1.7413e+01	6.9608	24.113812	0.000436	4.359210	1.476940	0.000174
 177	1.7512e+01	6.9961	24.299520	0.000466	4.663341	1.579983	0.000187
 178	1.7611e+01	7.0426	24.461005	0.000406	4.055079	1.373898	0.000162
 179	1.7711e+01	7.0763	24.614417	0.000385	3.852325	1.305203	0.000154
 180	1.7811e+01	7.1148	24.779939	0.000416	4.156456	1.408246	0.000166
 181	1.7910e+01	7.1613	24.913165	0.000335	3.345440	1.133466	0.000134
 182	1.8009e+01	7.2030	25.106947	0.000487	4.866095	1.648678	0.000195
 183	1.8109e+01	7.2319	25.236135	0.000324	3.244063	1.099118	0.000130
 184	1.8209e+01	7.2784	25.450104	0.000537	5.372980	1.820415	0.000215
 185	1.8308e+01	7.3233	25.571218	0.000304	3.041309	1.030424	0.000122
 186	1.8407e+01	7.3618	25.740777	0.000426	4.257833	1.442593	0.000170
 187	1.8507e+01	7.4035	25.918411	0.000446	4.460587	1.511288	0.000179
 188	1.8607e+01	7.4356	26.087971	0.000426	4.257833	1.442593	0.000170
 189	1.8706e+01	7.4837	26.221197	0.000335	3.345440	1.133466	0.000134
 190	1.8805e+01	7.5222	26.414979	0.000487	4.866095	1.648678	0.000195
 191	1.8905e+01	7.5527	26.548205	0.000335	3.345440	1.133466	0.000134
 192	1.9005e+01	7.6041	26.733913	0.000466	4.663341	1.579983	0.000187
 193	1.9104e+01	7.6394	26.879250	0.000365	3.649571	1.236508	0.000146
 194	1.9203e+01	7.6779	27.020549	0.000355	3.548194	1.202161	0.000142
 195	1.9303e+01	7.7244	27.169924	0.000375	3.750948	1.270856	0.000150
 196	1.9402e+01	7.7581	27.347557	0.000446	4.460587	1.511288	0.000179
 197	1.9502e+01	7.8046	27.509043	0.000406	4.055079	1.373898	0.000162
 198	1.9602e+01	7.8351	27.658417	0.000375	3.750948	1.270856	0.000150
 199	1.9701e+01	7.8864	27.799717	0.000355	3.548194	1.202161	0.000142
 200	1.9800e+01	7.9169	27.949091	0.000375	3.750948	1.270856	0.000150
 201	1.9900e+01	7.9506	28.142873	0.000487	4.866095	1.648678	0.000195
 202	2.0000e+01	7.9987	28.280136	0.000345	3.446817	1.167813	0.000138
 203	2.0099e+01	8.0340	28.457770	0.000446	4.460587	1.511288	0.000179
 204	2.0198e+01	8.0693	28.574847	0.000294	2.939932	0.996076	0.000118
 205	2.0298e+01	8.1142	28.752481	0.000446	4.460587	1.511288	0.000179
 206	2.0398e+01	8.1479	28.893780	0.000355	3.548194	1.202161	0.000142
 207	2.0497e+01	8.1912	29.047192	0.000385	3.852325	1.305203	0.000154
 208	2.0596e+01	8.2393	29.216751	0.000426	4.257833	1.442593	0.000170
 209	2.0696e+01	8.2730	29.370162	0.000385	3.852325	1.305203	0.000154
 210	2.0796e+01	8.3179	29.539722	0.000426	4.257833	1.442593	0.000170
 211	2.0895e+01	8.3597	29.689096	0.000375	3.750948	1.270856	0.000150
 212	2.0994e+01	8.3933	29.822322	0.000335	3.345440	1.133466	0.000134
 213	2.1094e+01	8.4367	29.955547	0.000335	3.345440	1.133466	0.000134
 214	2.1194e+01	8.4736	30.117033	0.000406	4.055079	1.373898	0.000162
 215	2.1293e+01	8.5153	30.274481	0.000395	3.953702	1.339551	0.000158
 216	2.1392e+01	8.5554	30.431929	0.000395	3.953702	1.339551	0.000158
 217	2.1492e+01	8.5891	30.593415	0.000406	4.055079	1.373898	0.000162
 218	2.1591e+01	8.6292	30.710492	0.000294	2.939932	0.996076	0.000118
 219	2.1691e+01	8.6789	30.843717	0.000335	3.345440	1.133466	0.000134
 220	2.1791e+01	8.7158	31.061722	0.000547	5.474357	1.854762	0.000219
 221	2.1890e+01	8.7527	31.186874	0.000314	3.142686	1.064771	0.000126
 222	2.1989e+01	8.7976	31.299913	0.000284	2.838555	0.961729	0.000114
 223	2.2089e+01	8.8361	31.485622	0.000466	4.663341	1.579983	0.000187
 224	2.2189e+01	8.8858	31.663256	0.000446	4.460587	1.511288	0.000179
 225	2.2288e+01	8.9051	31.780333	0.000294	2.939932	0.996076	0.000118
 226	2.2387e+01	8.9516	31.957967	0.000446	4.460587	1.511288	0.000179
 227	2.2487e+01	8.9933	32.087155	0.000324	3.244063	1.099118	0.000130
 228	2.2587e+01	9.0286	32.232492	0.000365	3.649571	1.236508	0.000146
 229	2.2686e+01	9.0703	32.389940	0.000395	3.953702	1.339551	0.000158
 230	2.2785e+01	9.1120	32.543351	0.000385	3.852325	1.305203	0.000154
 231	2.2885e+01	9.1538	32.696762	0.000385	3.852325	1.305203	0.000154
 232	2.2985e+01	9.2019	32.829988	0.000335	3.345440	1.133466	0.000134
 233	2.3084e+01	9.2340	32.975325	0.000365	3.649571	1.236508	0.000146
 234	2.3183e+01	9.2709	33.128736	0.000385	3.852325	1.305203	0.000154
 235	2.3283e+01	9.3142	33.302333	0.000436	4.359210	1.476940	0.000174
 236	2.3383e+01	9.3511	33.415373	0.000284	2.838555	0.961729	0.000114
 237	2.3482e+01	9.3896	33.588969	0.000436	4.359210	1.476940	0.000174
 238	2.3581e+01	9.4377	33.689898	0.000253	2.534425	0.858686	0.000101
 239	2.3681e+01	9.4794	33.859457	0.000426	4.257833	1.442593	0.000170
 240	2.3780e+01	9.5083	34.000757	0.000355	3.548194	1.202161	0.000142
 241	2.3880e+01	9.5532	34.174354	0.000436	4.359210	1.476940	0.000174
 242	2.3980e+01	9.5997	34.315654	0.000355	3.548194	1.202161	0.000142
 243	2.4079e+01	9.6286	34.448879	0.000335	3.345440	1.133466	0.000134
 244	2.4178e+01	9.6671	34.610365	0.000406	4.055079	1.373898	0.000162
 245	2.4278e+01	9.7088	34.755702	0.000365	3.649571	1.236508	0.000146
 246	2.4378e+01	9.7473	34.844519	0.000223	2.230294	0.755644	0.000089
 247	2.4477e+01	9.7922	35.022153	0.000446	4.460587	1.511288	0.000179
 248	2.4576e+01	9.8323	35.135192	0.000284	2.838555	0.961729	0.000114
 249	2.4676e+01	9.8660	35.272455	0.000345	3.446817	1.167813	0.000138
 250	2.4776e+01	9.9077	35.413755	0.000355	3.548194	1.202161	0.000142
 251	2.4875e+01	9.9478	35.615611	0.000507	5.068849	1.717373	0.000203
 252	2.4974e+01	9.9928	35.732688	0.000294	2.939932	0.996076	0.000118
 253	2.5074e+01	10.0265	35.890137	0.000395	3.953702	1.339551	0.000158
 254	2.5174e+01	10.0650	36.003177	0.000284	2.838555	0.961729	0.000114
 255	2.5273e+01	10.1099	36.164662	0.000406	4.055079	1.373898	0.000162
 256	2.5372e+01	10.1612	36.297887	0.000335	3.345440	1.133466	0.000134
 257	2.5472e+01	10.1901	36.410927	0.000284	2.838555	0.961729	0.000114
 258	2.5572e+01	10.2142	36.616821	0.000517	5.170226	1.751720	0.000207
 259	2.5671e+01	10.2687	36.750047	0.000335	3.345440	1.133466	0.000134
 260	2.5770e+01	10.3136	36.863086	0.000284	2.838555	0.961729	0.000114
 261	2.5870e+01	10.3409	37.000349	0.000345	3.446817	1.167813	0.000138
 262	2.5970e+01	10.3874	37.149723	0.000375	3.750948	1.270856	0.000150
 263	2.6069e+01	10.4323	37.286986	0.000345	3.446817	1.167813	0.000138
 264	2.6169e+01	10.4708	37.444434	0.000395	3.953702	1.339551	0.000158
 265	2.6268e+01	10.5109	37.561511	0.000294	2.939932	0.996076	0.000118
 266	2.6367e+01	10.5510	37.706848	0.000365	3.649571	1.236508	0.000146
 267	2.6467e+01	10.5863	37.815850	0.000274	2.737179	0.927381	0.000110
 268	2.6567e+01	10.6296	37.969262	0.000385	3.852325	1.305203	0.000154
 269	2.6666e+01	10.6730	38.134784	0.000416	4.156456	1.408246	0.000166
 270	2.6765e+01	10.7066	38.284158	0.000375	3.750948	1.270856	0.000150
 271	2.6865e+01	10.7516	38.372975	0.000223	2.230294	0.755644	0.000089
 272	2.6965e+01	10.7837	38.550609	0.000446	4.460587	1.511288	0.000179
 273	2.7064e+01	10.8206	38.663649	0.000284	2.838555	0.961729	0.000114
 274	2.7163e+01	10.8591	38.821097	0.000395	3.953702	1.339551	0.000158
 275	2.7263e+01	10.9120	38.950286	0.000324	3.244063	1.099118	0.000130
 276	2.7363e+01	10.9409	39.071400	0.000304	3.041309	1.030424	0.000122
 277	2.7462e+01	10.9778	39.208662	0.000345	3.446817	1.167813	0.000138
 278	2.7561e+01	11.0211	39.353999	0.000365	3.649571	1.236508	0.000146
 279	2.7661e+01	11.0516	39.527596	0.000436	4.359210	1.476940	0.000174
 280	2.7761e+01	11.1109	39.652747	0.000314	3.142686	1.064771	0.000126
 281	2.7860e+01	11.1414	39.785973	0.000335	3.345440	1.133466	0.000134
 282	2.7959e+01	11.1879	39.923235	0.000345	3.446817	1.167813	0.000138
 283	2.8059e+01	11.2280	40.048387	0.000314	3.142686	1.064771	0.000126
 284	2.8159e+01	11.2617	40.177575	0.000324	3.244063	1.099118	0.000130
 285	2.8258e+01	11.3130	40.347135	0.000426	4.257833	1.442593	0.000170
 286	2.8358e+01	11.3403	40.460174	0.000284	2.838555	0.961729	0.000114
 287	2.8457e+01	11.3901	40.633771	0.000436	4.359210	1.476940	0.000174
 288	2.8556e+01	11.4173	40.734700	0.000253	2.534425	0.858686	0.000101
 289	2.8656e+01	11.4767	40.884074	0.000375	3.750948	1.270856	0.000150
 290	2.8756e+01	11.5007	41.049596	0.000416	4.156456	1.408246	0.000166
 291	2.8855e+01	11.5473	41.190896	0.000355	3.548194	1.202161	0.000142
 292	2.8954e+01	11.5842	41.291824	0.000253	2.534425	0.858686	0.000101
 293	2.9054e+01	11.6243	41.429087	0.000345	3.446817	1.167813	0.000138
 294	2.9154e+01	11.6676	41.574424	0.000365	3.649571	1.236508	0.000146
 295	2.9253e+01	11.7061	41.739946	0.000416	4.156456	1.408246	0.000166
 296	2.9352e+01	11.7430	41.865098	0.000314	3.142686	1.064771	0.000126
 297	2.9452e+01	11.7799	42.014472	0.000375	3.750948	1.270856	0.000150
 298	2.9552e+01	11.8216	42.147697	0.000335	3.345440	1.133466	0.000134
 299	2.9651e+01	11.8569	42.284960	0.000345	3.446817	1.167813	0.000138
 300	2.9750e+01	11.9050	42.418185	0.000335	3.345440	1.133466	0.000134
 301	2.9850e+01	11.9387	42.543336	0.000314	3.142686	1.064771	0.000126
 302	2.9950e+01	11.9868	42.680599	0.000345	3.446817	1.167813	0.000138
 303	3.0049e+01	12.0189	42.825936	0.000365	3.649571	1.236508	0.000146
 304	3.0148e+01	12.0526	42.955124	0.000324	3.244063	1.099118	0.000130
 305	3.0248e+01	12.1055	43.108535	0.000385	3.852325	1.305203	0.000154
 306	3.0348e+01	12.1456	43.225612	0.000294	2.939932	0.996076	0.000118
 307	3.0447e+01	12.1777	43.342689	0.000294	2.939932	0.996076	0.000118
 308	3.0547e+01	12.2243	43.496100	0.000385	3.852325	1.305203	0.000154
 309	3.0646e+01	12.2676	43.657586	0.000406	4.055079	1.373898	0.000162
 310	3.0745e+01	12.3045	43.786774	0.000324	3.244063	1.099118	0.000130
 311	3.0845e+01	12.3349	43.887703	0.000253	2.534425	0.858686	0.000101
 312	3.0945e+01	12.3831	44.041114	0.000385	3.852325	1.305203	0.000154
 313	3.1044e+01	12.4248	44.174339	0.000335	3.345440	1.133466	0.000134
 314	3.1143e+01	12.4601	44.303528	0.000324	3.244063	1.099118	0.000130
 315	3.1243e+01	12.5002	44.456939	0.000385	3.852325	1.305203	0.000154
 316	3.1343e+01	12.5451	44.598238	0.000355	3.548194	1.202161	0.000142
 317	3.1442e+01	12.5900	44.707241	0.000274	2.737179	0.927381	0.000110
 318	3.1541e+01	12.6077	44.844504	0.000345	3.446817	1.167813	0.000138
 319	3.1641e+01	12.6654	45.005989	0.000406	4.055079	1.373898	0.000162
 320	3.1741e+01	12.7023	45.114992	0.000274	2.737179	0.927381	0.000110
 321	3.1840e+01	12.7360	45.248217	0.000335	3.345440	1.133466	0.000134
 322	3.1939e+01	12.7777	45.373369	0.000314	3.142686	1.064771	0.000126
 323	3.2039e+01	12.8114	45.538891	0.000416	4.156456	1.408246	0.000166
 324	3.2139e+01	12.8531	45.680191	0.000355	3.548194	1.202161	0.000142
 325	3.2238e+01	12.8948	45.833602	0.000385	3.852325	1.305203	0.000154
 326	3.2337e+01	12.9365	45.938568	0.000264	2.635802	0.893034	0.000105
 327	3.2437e+01	12.9718	46.063719	0.000314	3.142686	1.064771	0.000126
 328	3.2536e+01	13.0119	46.217130	0.000385	3.852325	1.305203	0.000154
 329	3.2636e+01	13.0569	46.338244	0.000304	3.041309	1.030424	0.000122
 330	3.2736e+01	13.0970	46.475507	0.000345	3.446817	1.167813	0.000138
 331	3.2835e+01	13.1290	46.592584	0.000294	2.939932	0.996076	0.000118
 332	3.2934e+01	13.1868	46.741958	0.000375	3.750948	1.270856	0.000150
 333	3.3034e+01	13.2125	46.875183	0.000335	3.345440	1.133466	0.000134
 334	3.3133e+01	13.2590	47.004371	0.000324	3.244063	1.099118	0.000130
 335	3.3233e+01	13.2847	47.161820	0.000395	3.953702	1.339551	0.000158
 336	3.3333e+01	13.3424	47.282934	0.000304	3.041309	1.030424	0.000122
 337	3.3432e+01	13.3793	47.444419	0.000406	4.055079	1.373898	0.000162
 338	3.3532e+01	13.4130	47.537273	0.000233	2.331671	0.789991	0.000093
 339	3.3631e+01	13.4499	47.646276	0.000274	2.737179	0.927381	0.000110
 340	3.3730e+01	13.4900	47.783539	0.000345	3.446817	1.167813	0.000138
 341	3.3830e+01	13.5317	47.936950	0.000385	3.852325	1.305203	0.000154
 342	3.3929e+01	13.5814	48.090361	0.000385	3.852325	1.305203	0.000154
 343	3.4029e+01	13.6071	48.195326	0.000264	2.635802	0.893034	0.000105
 344	3.4129e+01	13.6520	48.336626	0.000355	3.548194	1.202161	0.000142
 345	3.4228e+01	13.6889	48.469852	0.000335	3.345440	1.133466	0.000134
 346	3.4328e+01	13.7370	48.603077	0.000335	3.345440	1.133466	0.000134
 347	3.4427e+01	13.7723	48.728228	0.000314	3.142686	1.064771	0.000126
 348	3.4526e+01	13.8108	48.877602	0.000375	3.750948	1.270856	0.000150
 349	3.4626e+01	13.8558	48.978531	0.000253	2.534425	0.858686	0.000101
 350	3.4725e+01	13.8878	49.103682	0.000314	3.142686	1.064771	0.000126
 351	3.4825e+01	13.9376	49.273242	0.000426	4.257833	1.442593	0.000170
 352	3.4925e+01	13.9729	49.414541	0.000355	3.548194	1.202161	0.000142
 353	3.5024e+01	14.0082	49.539693	0.000314	3.142686	1.064771	0.000126
 354	3.5123e+01	14.0370	49.680992	0.000355	3.548194	1.202161	0.000142
 355	3.5223e+01	14.0932	49.777884	0.000243	2.433048	0.824339	0.000097
 356	3.5322e+01	14.1349	49.931295	0.000385	3.852325	1.305203	0.000154
 357	3.5422e+01	14.1718	50.068557	0.000345	3.446817	1.167813	0.000138
 358	3.5522e+01	14.2167	50.169486	0.000253	2.534425	0.858686	0.000101
 359	3.5621e+01	14.2520	50.282526	0.000284	2.838555	0.961729	0.000114
 360	3.5721e+01	14.2873	50.448048	0.000416	4.156456	1.408246	0.000166
 361	3.5820e+01	14.3242	50.565125	0.000294	2.939932	0.996076	0.000118
 362	3.5919e+01	14.3739	50.670091	0.000264	2.635802	0.893034	0.000105
 363	3.6019e+01	14.4124	50.851762	0.000456	4.561964	1.545635	0.000183
 364	3.6118e+01	14.4461	50.928467	0.000193	1.926163	0.652602	0.000077
 365	3.6218e+01	14.4862	51.077841	0.000375	3.750948	1.270856	0.000150
 366	3.6318e+01	14.5343	51.243364	0.000416	4.156456	1.408246	0.000166
 367	3.6417e+01	14.5696	51.340255	0.000243	2.433048	0.824339	0.000097
 368	3.6517e+01	14.6146	51.461369	0.000304	3.041309	1.030424	0.000122
 369	3.6616e+01	14.6402	51.586520	0.000314	3.142686	1.064771	0.000126
 370	3.6715e+01	14.6868	51.735894	0.000375	3.750948	1.270856	0.000150
 371	3.6815e+01	14.7317	51.836823	0.000253	2.534425	0.858686	0.000101
 372	3.6914e+01	14.7702	51.974085	0.000345	3.446817	1.167813	0.000138
 373	3.7014e+01	14.8135	52.087125	0.000284	2.838555	0.961729	0.000114
 374	3.7114e+01	14.8552	52.240536	0.000385	3.852325	1.305203	0.000154
 375	3.7213e+01	14.8921	52.365688	0.000314	3.142686	1.064771	0.000126
 376	3.7313e+01	14.9258	52.474690	0.000274	2.737179	0.927381	0.000110
 377	3.7412e+01	14.9739	52.567544	0.000233	2.331671	0.789991	0.000093
 378	3.7511e+01	15.0108	52.688659	0.000304	3.041309	1.030424	0.000122
 379	3.7611e+01	15.0493	52.842070	0.000385	3.852325	1.305203	0.000154
 380	3.7711e+01	15.0846	52.991444	0.000375	3.750948	1.270856	0.000150
 381	3.7810e+01	15.1263	53.072186	0.000203	2.027540	0.686949	0.000081
 382	3.7910e+01	15.1648	53.225598	0.000385	3.852325	1.305203	0.000154
 383	3.8009e+01	15.2017	53.342675	0.000294	2.939932	0.996076	0.000118
 384	3.8108e+01	15.2498	53.483974	0.000355	3.548194	1.202161	0.000142
 385	3.8208e+01	15.2835	53.621237	0.000345	3.446817	1.167813	0.000138
 386	3.8307e+01	15.3397	53.726202	0.000264	2.635802	0.893034	0.000105
 387	3.8407e+01	15.3669	53.851354	0.000314	3.142686	1.064771	0.000126
 388	3.8507e+01	15.4071	53.944208	0.000233	2.331671	0.789991	0.000093
 389	3.8606e+01	15.4504	54.093582	0.000375	3.750948	1.270856	0.000150
 390	3.8706e+01	15.4873	54.210659	0.000294	2.939932	0.996076	0.000118
 391	3.8805e+01	15.5193	54.331773	0.000304	3.041309	1.030424	0.000122
 392	3.8904e+01	15.5707	54.452887	0.000304	3.041309	1.030424	0.000122
 393	3.9004e+01	15.6028	54.598224	0.000365	3.649571	1.236508	0.000146
 394	3.9103e+01	15.6445	54.731449	0.000335	3.345440	1.133466	0.000134
 395	3.9203e+01	15.6814	54.844489	0.000284	2.838555	0.961729	0.000114
 396	3.9303e+01	15.7327	54.957529	0.000284	2.838555	0.961729	0.000114
 397	3.9402e+01	15.7696	55.119014	0.000406	4.055079	1.373898	0.000162
 398	3.9502e+01	15.8081	55.199757	0.000203	2.027540	0.686949	0.000081
 399	3.9601e+01	15.8418	55.308760	0.000274	2.737179	0.927381	0.000110
 400	3.9700e+01	15.8867	55.454096	0.000365	3.649571	1.236508	0.000146
 401	3.9800e+01	15.9284	55.546951	0.000233	2.331671	0.789991	0.000093
 402	3.9900e+01	15.9637	55.696325	0.000375	3.750948	1.270856	0.000150
 403	3.9999e+01	16.0086	55.813402	0.000294	2.939932	0.996076	0.000118
 404	4.0099e+01	16.0455	55.934516	0.000304	3.041309	1.030424	0.000122
 405	4.0198e+01	16.0808	56.043518	0.000274	2.737179	0.927381	0.000110
 406	4.0297e+01	16.1241	56.196929	0.000385	3.852325	1.305203	0.000154
 407	4.0397e+01	16.1626	56.309969	0.000284	2.838555	0.961729	0.000114
 408	4.0496e+01	16.2044	56.402823	0.000233	2.331671	0.789991	0.000093
 409	4.0596e+01	16.2493	56.544123	0.000355	3.548194	1.202161	0.000142
 410	4.0696e+01	16.2830	56.653126	0.000274	2.737179	0.927381	0.000110
 411	4.0795e+01	16.3231	56.798463	0.000365	3.649571	1.236508	0.000146
 412	4.0895e+01	16.3648	56.927651	0.000324	3.244063	1.099118	0.000130
 413	4.0994e+01	16.4017	57.016468	0.000223	2.230294	0.755644	0.000089
 414	4.1093e+01	16.4482	57.145656	0.000324	3.244063	1.099118	0.000130
 415	4.1193e+01	16.4819	57.274845	0.000324	3.244063	1.099118	0.000130
 416	4.1292e+01	16.5300	57.387885	0.000284	2.838555	0.961729	0.000114
 417	4.1392e+01	16.5621	57.529184	0.000355	3.548194	1.202161	0.000142
 418	4.1492e+01	16.6022	57.613964	0.000213	2.128917	0.721296	0.000085
 419	4.1591e+01	16.6391	57.767375	0.000385	3.852325	1.305203	0.000154
 420	4.1691e+01	16.6872	57.908675	0.000355	3.548194	1.202161	0.000142
 421	4.1790e+01	16.7161	57.965195	0.000142	1.419278	0.480864	0.000057
 422	4.1889e+01	16.7658	58.098420	0.000335	3.345440	1.133466	0.000134
 423	4.1989e+01	16.7995	58.215497	0.000294	2.939932	0.996076	0.000118
 424	4.2089e+01	16.8525	58.381020	0.000416	4.156456	1.408246	0.000166
 425	4.2188e+01	16.8846	58.445614	0.000162	1.622032	0.549559	0.000065
 426	4.2288e+01	16.9118	58.582877	0.000345	3.446817	1.167813	0.000138
 427	4.2387e+01	16.9567	58.748399	0.000416	4.156456	1.408246	0.000166
 428	4.2486e+01	17.0033	58.821068	0.000182	1.824786	0.618254	0.000073
 429	4.2586e+01	17.0353	58.942182	0.000304	3.041309	1.030424	0.000122
 430	4.2685e+01	17.0787	59.055222	0.000284	2.838555	0.961729	0.000114
 431	4.2785e+01	17.1252	59.192484	0.000345	3.446817	1.167813	0.000138
 432	4.2885e+01	17.1701	59.293413	0.000253	2.534425	0.858686	0.000101
 433	4.2984e+01	17.2038	59.438749	0.000365	3.649571	1.236508	0.000146
 434	4.3084e+01	17.2551	59.523529	0.000213	2.128917	0.721296	0.000085
 435	4.3183e+01	17.2792	59.648681	0.000314	3.142686	1.064771	0.000126
 436	4.3282e+01	17.3145	59.769795	0.000304	3.041309	1.030424	0.000122
 437	4.3382e+01	17.3546	59.886872	0.000294	2.939932	0.996076	0.000118
 438	4.3481e+01	17.4027	60.003948	0.000294	2.939932	0.996076	0.000118
 439	4.3581e+01	17.4444	60.137174	0.000335	3.345440	1.133466	0.000134
 440	4.3681e+01	17.4845	60.221954	0.000213	2.128917	0.721296	0.000085
 441	4.3780e+01	17.5230	60.371328	0.000375	3.750948	1.270856	0.000150
 442	4.3880e+01	17.5599	60.528776	0.000395	3.953702	1.339551	0.000158
 443	4.3979e+01	17.5936	60.605482	0.000193	1.926163	0.652602	0.000077
 444	4.4078e+01	17.6369	60.754856	0.000375	3.750948	1.270856	0.000150
 445	4.4178e+01	17.6819	60.859821	0.000264	2.635802	0.893034	0.000105
 446	4.4278e+01	17.7171	61.001121	0.000355	3.548194	1.202161	0.000142
 447	4.4377e+01	17.7540	61.138384	0.000345	3.446817	1.167813	0.000138
 448	4.4477e+01	17.7861	61.194904	0.000142	1.419278	0.480864	0.000057
 449	4.4576e+01	17.8375	61.311980	0.000294	2.939932	0.996076	0.000118
 450	4.4675e+01	17.8744	61.449243	0.000345	3.446817	1.167813	0.000138
 451	4.4775e+01	17.9129	61.606691	0.000395	3.953702	1.339551	0.000158
 452	4.4874e+01	17.9562	61.695508	0.000223	2.230294	0.755644	0.000089
 453	4.4974e+01	17.9995	61.816622	0.000304	3.041309	1.030424	0.000122
 454	4.5074e+01	18.0396	61.986182	0.000426	4.257833	1.442593	0.000170
 455	4.5173e+01	18.0781	62.070962	0.000213	2.128917	0.721296	0.000085
 456	4.5273e+01	18.1214	62.240522	0.000426	4.257833	1.442593	0.000170
 457	4.5372e+01	18.1519	62.288967	0.000122	1.216524	0.412169	0.000049
 458	4.5471e+01	18.1904	62.438341	0.000375	3.750948	1.270856	0.000150
 459	4.5571e+01	18.2321	62.599827	0.000406	4.055079	1.373898	0.000162
 460	4.5670e+01	18.2802	62.680569	0.000203	2.027540	0.686949	0.000081
 461	4.5770e+01	18.3219	62.825906	0.000365	3.649571	1.236508	0.000146
 462	4.5870e+01	18.3653	62.914723	0.000223	2.230294	0.755644	0.000089
 463	4.5969e+01	18.3957	63.064097	0.000375	3.750948	1.270856	0.000150
 464	4.6069e+01	18.4407	63.189249	0.000314	3.142686	1.064771	0.000126
 465	4.6168e+01	18.4711	63.322474	0.000335	3.345440	1.133466	0.000134
 466	4.6267e+01	18.5161	63.443588	0.000304	3.041309	1.030424	0.000122
 467	4.6367e+01	18.5578	63.596999	0.000385	3.852325	1.305203	0.000154
 468	4.6467e+01	18.5995	63.673705	0.000193	1.926163	0.652602	0.000077
 469	4.6566e+01	18.6396	63.847302	0.000436	4.359210	1.476940	0.000174
 470	4.6666e+01	18.6701	63.936119	0.000223	2.230294	0.755644	0.000089
 471	4.6765e+01	18.7166	64.069344	0.000335	3.345440	1.133466	0.000134
 472	4.6864e+01	18.7567	64.210644	0.000355	3.548194	1.202161	0.000142
 473	4.6964e+01	18.7920	64.315609	0.000264	2.635802	0.893034	0.000105
 474	4.7063e+01	18.8273	64.456909	0.000355	3.548194	1.202161	0.000142
 475	4.7163e+01	18.8690	64.578023	0.000304	3.041309	1.030424	0.000122
 476	4.7263e+01	18.9139	64.691063	0.000284	2.838555	0.961729	0.000114
 477	4.7362e+01	18.9492	64.804103	0.000284	2.838555	0.961729	0.000114
 478	4.7462e+01	18.9957	64.945403	0.000355	3.548194	1.202161	0.000142
 479	4.7561e+01	19.0358	65.090740	0.000365	3.649571	1.236508	0.000146
 480	4.7660e+01	19.0775	65.195705	0.000264	2.635802	0.893034	0.000105
 481	4.7760e+01	19.1080	65.296633	0.000253	2.534425	0.858686	0.000101
 482	4.7859e+01	19.1529	65.441970	0.000365	3.649571	1.236508	0.000146
 483	4.7959e+01	19.1995	65.563084	0.000304	3.041309	1.030424	0.000122
 484	4.8059e+01	19.2315	65.688236	0.000314	3.142686	1.064771	0.000126
 485	4.8158e+01	19.2765	65.825498	0.000345	3.446817	1.167813	0.000138
 486	4.8258e+01	19.3118	65.970835	0.000365	3.649571	1.236508	0.000146
 487	4.8357e+01	19.3422	66.079838	0.000274	2.737179	0.927381	0.000110
 488	4.8456e+01	19.3872	66.204989	0.000314	3.142686	1.064771	0.000126
 489	4.8556e+01	19.4208	66.338214	0.000335	3.345440	1.133466	0.000134
 490	4.8656e+01	19.4690	66.495663	0.000395	3.953702	1.339551	0.000158
 491	4.8755e+01	19.5107	66.584480	0.000223	2.230294	0.755644	0.000089
 492	4.8855e+01	19.5444	66.745965	0.000406	4.055079	1.373898	0.000162
 493	4.8954e+01	19.6005	66.879191	0.000335	3.345440	1.133466	0.000134
 494	4.9053e+01	19.6246	66.963970	0.000213	2.128917	0.721296	0.000085
 495	4.9153e+01	19.6759	67.137567	0.000436	4.359210	1.476940	0.000174
 496	4.9252e+01	19.7192	67.278867	0.000355	3.548194	1.202161	0.000142
 497	4.9352e+01	19.7497	67.428241	0.000375	3.750948	1.270856	0.000150
 498	4.9452e+01	19.7946	67.561467	0.000335	3.345440	1.133466	0.000134
 499	4.9551e+01	19.8235	67.650284	0.000223	2.230294	0.755644	0.000089
 500	4.9651e+01	19.8700	67.787546	0.000345	3.446817	1.167813	0.000138
 501	4.9750e+01	19.9069	67.969217	0.000456	4.561964	1.545635	0.000183
 502	4.9849e+01	19.9502	68.049960	0.000203	2.027540	0.686949	0.000081
 503	4.9949e+01	19.9791	68.211445	0.000406	4.055079	1.373898	0.000162
 504	5.0048e+01	19.9567	68.122628	0.000223	2.230294	0.755644	-0.000089
 505	5.0148e+01	19.9101	68.130703	-0.000020	-0.202754	-0.068695	0.000008
 506	5.0248e+01	19.8732	68.041886	0.000223	2.230294	0.755644	-0.000089
 507	5.0347e+01	19.8235	67.981329	0.000152	1.520655	0.515212	-0.000061
 508	5.0447e+01	19.7786	67.908660	0.000182	1.824786	0.618254	-0.000073
 509	5.0546e+01	19.7513	67.852140	0.000142	1.419278	0.480864	-0.000057
 510	5.0645e+01	19.7032	67.807732	0.000112	1.115147	0.377822	-0.000045
 511	5.0745e+01	19.6663	67.771398	0.000091	0.912393	0.309127	-0.000037
 512	5.0844e+01	19.6326	67.694692	0.000193	1.926163	0.652602	-0.000077
 513	5.0944e+01	19.5877	67.646246	0.000122	1.216524	0.412169	-0.000049
 514	5.1044e+01	19.5508	67.561467	0.000213	2.128917	0.721296	-0.000085
 515	5.1143e+01	19.5075	67.513021	0.000122	1.216524	0.412169	-0.000049
 516	5.1242e+01	19.4690	67.464575	0.000122	1.216524	0.412169	-0.000049
 517	5.1342e+01	19.4273	67.391907	0.000182	1.824786	0.618254	-0.000073
 518	5.1441e+01	19.3920	67.339424	0.000132	1.317901	0.446517	-0.000053
 519	5.1541e+01	19.3470	67.250607	0.000223	2.230294	0.755644	-0.000089
 520	5.1641e+01	19.3182	67.194087	0.000142	1.419278	0.480864	-0.000057
 521	5.1740e+01	19.2716	67.125456	0.000172	1.723409	0.583907	-0.000069
 522	5.1840e+01	19.2283	67.032602	0.000233	2.331671	0.789991	-0.000093
 523	5.1939e+01	19.1882	66.968008	0.000162	1.622032	0.549559	-0.000065
 524	5.2038e+01	19.1513	66.943785	0.000061	0.608262	0.206085	-0.000024
 525	5.2138e+01	19.1160	66.822671	0.000304	3.041309	1.030424	-0.000122
 526	5.2237e+01	19.0775	66.774225	0.000122	1.216524	0.412169	-0.000049
 527	5.2337e+01	19.0278	66.705594	0.000172	1.723409	0.583907	-0.000069
 528	5.2437e+01	18.9989	66.669260	0.000091	0.912393	0.309127	-0.000037
 529	5.2536e+01	18.9540	66.548146	0.000304	3.041309	1.030424	-0.000122
 530	5.2636e+01	18.9059	66.499700	0.000122	1.216524	0.412169	-0.000049
 531	5.2735e+01	18.8850	66.431069	0.000172	1.723409	0.583907	-0.000069
 532	5.2834e+01	18.8369	66.338214	0.000233	2.331671	0.789991	-0.000093
 533	5.2934e+01	18.8000	66.273620	0.000162	1.622032	0.549559	-0.000065
 534	5.3033e+01	18.7503	66.204989	0.000172	1.723409	0.583907	-0.000069
 535	5.3133e+01	18.7166	66.128283	0.000193	1.926163	0.652602	-0.000077
 536	5.3233e+01	18.6717	66.031392	0.000243	2.433048	0.824339	-0.000097
 537	5.3332e+01	18.6332	65.974872	0.000142	1.419278	0.480864	-0.000057
 538	5.3431e+01	18.5931	65.922389	0.000132	1.317901	0.446517	-0.000053
 539	5.3531e+01	18.5546	65.853758	0.000172	1.723409	0.583907	-0.000069
 540	5.3630e+01	18.5161	65.748793	0.000264	2.635802	0.893034	-0.000105
 541	5.3730e+01	18.4727	65.672087	0.000193	1.926163	0.652602	-0.000077
 542	5.3830e+01	18.4423	65.591344	0.000203	2.027540	0.686949	-0.000081
 543	5.3929e+01	18.3941	65.506564	0.000213	2.128917	0.721296	-0.000085
 544	5.4029e+01	18.3637	65.429859	0.000193	1.926163	0.652602	-0.000077
 545	5.4128e+01	18.3139	65.328931	0.000253	2.534425	0.858686	-0.000101
 546	5.4227e+01	18.2738	65.256262	0.000182	1.824786	0.618254	-0.000073
 547	5.4327e+01	18.2321	65.215891	0.000101	1.013770	0.343475	-0.000041
 548	5.4426e+01	18.2000	65.127074	0.000223	2.230294	0.755644	-0.000089
 549	5.4526e+01	18.1535	65.034220	0.000233	2.331671	0.789991	-0.000093
 550	5.4626e+01	18.1102	64.941365	0.000233	2.331671	0.789991	-0.000093
 551	5.4725e+01	18.0813	64.888883	0.000132	1.317901	0.446517	-0.000053
 552	5.4825e+01	18.0380	64.791991	0.000243	2.433048	0.824339	-0.000097
 553	5.4924e+01	17.9931	64.642617	0.000375	3.750948	1.270856	-0.000150
 554	5.5023e+01	17.9546	64.610320	0.000081	0.811016	0.274780	-0.000032
 555	5.5123e+01	17.9113	64.513429	0.000243	2.433048	0.824339	-0.000097
 556	5.5222e+01	17.8808	64.416538	0.000243	2.433048	0.824339	-0.000097
 557	5.5322e+01	17.8391	64.355981	0.000152	1.520655	0.515212	-0.000061
 558	5.5422e+01	17.7974	64.251015	0.000264	2.635802	0.893034	-0.000105
 559	5.5521e+01	17.7669	64.158161	0.000233	2.331671	0.789991	-0.000093
 560	5.5620e+01	17.7220	64.073381	0.000213	2.128917	0.721296	-0.000085
 561	5.5720e+01	17.6819	64.000713	0.000182	1.824786	0.618254	-0.000073
 562	5.5819e+01	17.6450	63.875562	0.000314	3.142686	1.064771	-0.000126
 563	5.5919e+01	17.5968	63.815005	0.000152	1.520655	0.515212	-0.000061
 564	5.6019e+01	17.5583	63.750410	0.000162	1.622032	0.549559	-0.000065
 565	5.6118e+01	17.5311	63.625259	0.000314	3.142686	1.064771	-0.000126
 566	5.6218e+01	17.4893	63.544517	0.000203	2.027540	0.686949	-0.000081
 567	5.6317e+01	17.4428	63.459737	0.000213	2.128917	0.721296	-0.000085
 568	5.6416e+01	17.4043	63.354771	0.000264	2.635802	0.893034	-0.000105
 569	5.6516e+01	17.3642	63.302288	0.000132	1.317901	0.446517	-0.000053
 570	5.6615e+01	17.3145	63.201360	0.000253	2.534425	0.858686	-0.000101
 571	5.6715e+01	17.2840	63.088320	0.000284	2.838555	0.961729	-0.000114
 572	5.6815e+01	17.2359	63.015652	0.000182	1.824786	0.618254	-0.000073
 573	5.6914e+01	17.1910	62.902612	0.000284	2.838555	0.961729	-0.000114
 574	5.7014e+01	17.1717	62.801684	0.000253	2.534425	0.858686	-0.000101
 575	5.7113e+01	17.1204	62.712867	0.000223	2.230294	0.755644	-0.000089
 576	5.7212e+01	17.0787	62.664421	0.000122	1.216524	0.412169	-0.000049
 577	5.7312e+01	17.0386	62.511010	0.000385	3.852325	1.305203	-0.000154
 578	5.7411e+01	16.9968	62.474676	0.000091	0.912393	0.309127	-0.000037
 579	5.7511e+01	16.9583	62.349524	0.000314	3.142686	1.064771	-0.000126
 580	5.7611e+01	16.9247	62.252633	0.000243	2.433048	0.824339	-0.000097
 581	5.7710e+01	16.8942	62.188039	0.000162	1.622032	0.549559	-0.000065
 582	5.7809e+01	16.8460	62.042702	0.000365	3.649571	1.236508	-0.000146
 583	5.7909e+01	16.8043	61.970034	0.000182	1.824786	0.618254	-0.000073
 584	5.8008e+01	16.7658	61.885254	0.000213	2.128917	0.721296	-0.000085
 585	5.8108e+01	16.7129	61.768177	0.000294	2.939932	0.996076	-0.000118
 586	5.8208e+01	16.6712	61.659174	0.000274	2.737179	0.927381	-0.000110
 587	5.8307e+01	16.6391	61.570357	0.000223	2.230294	0.755644	-0.000089
 588	5.8407e+01	16.6022	61.481540	0.000223	2.230294	0.755644	-0.000089
 589	5.8506e+01	16.5573	61.368500	0.000284	2.838555	0.961729	-0.000114
 590	5.8605e+01	16.5236	61.303906	0.000162	1.622032	0.549559	-0.000065
 591	5.8705e+01	16.4851	61.174718	0.000324	3.244063	1.099118	-0.000130
 592	5.8804e+01	16.4482	61.098012	0.000193	1.926163	0.652602	-0.000077
 593	5.8904e+01	16.4065	60.997084	0.000253	2.534425	0.858686	-0.000101
 594	5.9004e+01	16.3616	60.851747	0.000365	3.649571	1.236508	-0.000146
 595	5.9103e+01	16.3263	60.766967	0.000213	2.128917	0.721296	-0.000085
 596	5.9203e+01	16.2798	60.702373	0.000162	1.622032	0.549559	-0.000065
 597	5.9302e+01	16.2413	60.577222	0.000314	3.142686	1.064771	-0.000126
 598	5.9401e+01	16.2092	60.516665	0.000152	1.520655	0.515212	-0.000061
 599	5.9501e+01	16.1642	60.395551	0.000304	3.041309	1.030424	-0.000122
 600	5.9600e+01	16.1306	60.258288	0.000345	3.446817	1.167813	-0.000138
 601	5.9700e+01	16.0856	60.153322	0.000264	2.635802	0.893034	-0.000105
 602	5.9800e+01	16.0407	60.096803	0.000142	1.419278	0.480864	-0.000057
 603	5.9899e+01	16.0038	59.967614	0.000324	3.244063	1.099118	-0.000130
 604	5.9998e+01	15.9605	59.830352	0.000345	3.446817	1.167813	-0.000138
 605	6.0098e+01	15.9236	59.753646	0.000193	1.926163	0.652602	-0.000077
 606	6.0197e+01	15.8883	59.648681	0.000264	2.635802	0.893034	-0.000105
 607	6.0297e+01	15.8498	59.571975	0.000193	1.926163	0.652602	-0.000077
 608	6.0397e+01	15.8129	59.442787	0.000324	3.244063	1.099118	-0.000130
 609	6.0496e+01	15.7584	59.301487	0.000355	3.548194	1.202161	-0.000142
 610	6.0596e+01	15.7343	59.244967	0.000142	1.419278	0.480864	-0.000057
 611	6.0695e+01	15.6798	59.172299	0.000182	1.824786	0.618254	-0.000073
 612	6.0794e+01	15.6445	59.018887	0.000385	3.852325	1.305203	-0.000154
 613	6.0894e+01	15.6156	58.950256	0.000172	1.723409	0.583907	-0.000069
 614	6.0993e+01	15.5643	58.804919	0.000365	3.649571	1.236508	-0.000146
 615	6.1093e+01	15.5242	58.724176	0.000203	2.027540	0.686949	-0.000081
 616	6.1193e+01	15.4873	58.611137	0.000284	2.838555	0.961729	-0.000114
 617	6.1292e+01	15.4488	58.522320	0.000223	2.230294	0.755644	-0.000089
 618	6.1392e+01	15.4151	58.401206	0.000304	3.041309	1.030424	-0.000122
 619	6.1491e+01	15.3653	58.308351	0.000233	2.331671	0.789991	-0.000093
 620	6.1590e+01	15.3284	58.211460	0.000243	2.433048	0.824339	-0.000097
 621	6.1690e+01	15.2899	58.082272	0.000324	3.244063	1.099118	-0.000130
 622	6.1789e+01	15.2434	57.981343	0.000253	2.534425	0.858686	-0.000101
 623	6.1889e+01	15.2049	57.888489	0.000233	2.331671	0.789991	-0.000093
 624	6.1989e+01	15.1632	57.779487	0.000274	2.737179	0.927381	-0.000110
 625	6.2088e+01	15.1183	57.662410	0.000294	2.939932	0.996076	-0.000118
 626	6.2188e+01	15.0878	57.585704	0.000193	1.926163	0.652602	-0.000077
 627	6.2287e+01	15.0557	57.476702	0.000274	2.737179	0.927381	-0.000110
 628	6.2386e+01	15.0124	57.351550	0.000314	3.142686	1.064771	-0.000126
 629	6.2486e+01	14.9643	57.242548	0.000274	2.737179	0.927381	-0.000110
 630	6.2586e+01	14.9354	57.121434	0.000304	3.041309	1.030424	-0.000122
 631	6.2685e+01	14.8953	57.020505	0.000253	2.534425	0.858686	-0.000101
 632	6.2785e+01	14.8568	56.899391	0.000304	3.041309	1.030424	-0.000122
 633	6.2884e+01	14.8103	56.846908	0.000132	1.317901	0.446517	-0.000053
 634	6.2983e+01	14.7686	56.681386	0.000416	4.156456	1.408246	-0.000166
 635	6.3083e+01	14.7317	56.657163	0.000061	0.608262	0.206085	-0.000024
 636	6.3182e+01	14.6900	56.511826	0.000365	3.649571	1.236508	-0.000146
 637	6.3282e+01	14.6499	56.414935	0.000243	2.433048	0.824339	-0.000097
 638	6.3382e+01	14.6049	56.285746	0.000324	3.244063	1.099118	-0.000130
 639	6.3481e+01	14.5696	56.172707	0.000284	2.838555	0.961729	-0.000114
 640	6.3581e+01	14.5327	56.104075	0.000172	1.723409	0.583907	-0.000069
 641	6.3680e+01	14.4878	55.995073	0.000274	2.737179	0.927381	-0.000110
 642	6.3779e+01	14.4461	55.845699	0.000375	3.750948	1.270856	-0.000150
 643	6.3879e+01	14.4092	55.760919	0.000213	2.128917	0.721296	-0.000085
 644	6.3978e+01	14.3755	55.655953	0.000264	2.635802	0.893034	-0.000105
 645	6.4078e+01	14.3322	55.546951	0.000274	2.737179	0.927381	-0.000110
 646	6.4177e+01	14.2921	55.429874	0.000294	2.939932	0.996076	-0.000118
 647	6.4277e+01	14.2520	55.341057	0.000223	2.230294	0.755644	-0.000089
 648	6.4376e+01	14.2119	55.207831	0.000335	3.345440	1.133466	-0.000134
 649	6.4476e+01	14.1670	55.119014	0.000223	2.230294	0.755644	-0.000089
 650	6.4576e+01	14.1349	54.985789	0.000335	3.345440	1.133466	-0.000134
 651	6.4675e+01	14.0948	54.901009	0.000213	2.128917	0.721296	-0.000085
 652	6.4775e+01	14.0531	54.779895	0.000304	3.041309	1.030424	-0.000122
 653	6.4874e+01	14.0098	54.662818	0.000294	2.939932	0.996076	-0.000118
 654	6.4974e+01	13.9729	54.574001	0.000223	2.230294	0.755644	-0.000089
 655	6.5073e+01	13.9263	54.408478	0.000416	4.156456	1.408246	-0.000166
 656	6.5172e+01	13.8943	54.339847	0.000172	1.723409	0.583907	-0.000069
 657	6.5272e+01	13.8509	54.214696	0.000314	3.142686	1.064771	-0.000126
 658	6.5371e+01	13.8157	54.121842	0.000233	2.331671	0.789991	-0.000093
 659	6.5471e+01	13.7755	53.992653	0.000324	3.244063	1.099118	-0.000130
 660	6.5570e+01	13.7354	53.875576	0.000294	2.939932	0.996076	-0.000118
 661	6.5670e+01	13.6969	53.786759	0.000223	2.230294	0.755644	-0.000089
 662	6.5769e+01	13.6520	53.685831	0.000253	2.534425	0.858686	-0.000101
 663	6.5869e+01	13.6183	53.580866	0.000264	2.635802	0.893034	-0.000105
 664	6.5969e+01	13.5782	53.459751	0.000304	3.041309	1.030424	-0.000122
 665	6.6068e+01	13.5365	53.338637	0.000304	3.041309	1.030424	-0.000122
 666	6.6168e+01	13.4868	53.205412	0.000335	3.345440	1.133466	-0.000134
 667	6.6267e+01	13.4483	53.128706	0.000193	1.926163	0.652602	-0.000077
 668	6.6367e+01	13.4178	52.979332	0.000375	3.750948	1.270856	-0.000150
 669	6.6466e+01	13.3777	52.886478	0.000233	2.331671	0.789991	-0.000093
 670	6.6566e+01	13.3296	52.777476	0.000274	2.737179	0.927381	-0.000110
 671	6.6665e+01	13.2895	52.672510	0.000264	2.635802	0.893034	-0.000105
 672	6.6764e+01	13.2574	52.567544	0.000264	2.635802	0.893034	-0.000105
 673	6.6864e+01	13.2173	52.446430	0.000304	3.041309	1.030424	-0.000122
 674	6.6963e+01	13.1691	52.341465	0.000264	2.635802	0.893034	-0.000105
 675	6.7063e+01	13.1371	52.228425	0.000284	2.838555	0.961729	-0.000114
 676	6.7162e+01	13.0889	52.123460	0.000264	2.635802	0.893034	-0.000105
 677	6.7262e+01	13.0617	51.978123	0.000365	3.649571	1.236508	-0.000146
 678	6.7362e+01	13.0119	51.909491	0.000172	1.723409	0.583907	-0.000069
 679	6.7461e+01	12.9766	51.752043	0.000395	3.953702	1.339551	-0.000158
 680	6.7561e+01	12.9397	51.711672	0.000101	1.013770	0.343475	-0.000041
 681	6.7660e+01	12.9077	51.550186	0.000406	4.055079	1.373898	-0.000162
 682	6.7760e+01	12.8676	51.465406	0.000213	2.128917	0.721296	-0.000085
 683	6.7859e+01	12.8130	51.328144	0.000345	3.446817	1.167813	-0.000138
 684	6.7959e+01	12.7777	51.239327	0.000223	2.230294	0.755644	-0.000089
 685	6.8058e+01	12.7360	51.085916	0.000385	3.852325	1.305203	-0.000154
 686	6.8157e+01	12.6927	50.976913	0.000274	2.737179	0.927381	-0.000110
 687	6.8257e+01	12.6574	50.892133	0.000213	2.128917	0.721296	-0.000085
 688	6.8356e+01	12.6205	50.762945	0.000324	3.244063	1.099118	-0.000130
 689	6.8456e+01	12.5852	50.637794	0.000314	3.142686	1.064771	-0.000126
 690	6.8555e+01	12.5435	50.512642	0.000314	3.142686	1.064771	-0.000126
 691	6.8655e+01	12.4986	50.415751	0.000243	2.433048	0.824339	-0.000097
 692	6.8754e+01	12.4697	50.274451	0.000355	3.548194	1.202161	-0.000142
 693	6.8854e+01	12.4248	50.169486	0.000264	2.635802	0.893034	-0.000105
 694	6.8954e+01	12.3879	50.040297	0.000324	3.244063	1.099118	-0.000130
 695	6.9053e+01	12.3382	49.931295	0.000274	2.737179	0.927381	-0.000110
 696	6.9153e+01	12.3077	49.830366	0.000253	2.534425	0.858686	-0.000101
 697	6.9252e+01	12.2708	49.709252	0.000304	3.041309	1.030424	-0.000122
 698	6.9352e+01	12.2210	49.551804	0.000395	3.953702	1.339551	-0.000158
 699	6.9451e+01	12.1809	49.462987	0.000223	2.230294	0.755644	-0.000089
 700	6.9550e+01	12.1440	49.325724	0.000345	3.446817	1.167813	-0.000138
 701	6.9650e+01	12.0895	49.188462	0.000345	3.446817	1.167813	-0.000138
 702	6.9749e+01	12.0590	49.107719	0.000203	2.027540	0.686949	-0.000081
 703	6.9849e+01	12.0414	48.962382	0.000365	3.649571	1.236508	-0.000146
 704	6.9948e+01	11.9868	48.849342	0.000284	2.838555	0.961729	-0.000114
 705	7.0048e+01	11.9403	48.716117	0.000335	3.345440	1.133466	-0.000134
 706	7.0147e+01	11.9034	48.619226	0.000243	2.433048	0.824339	-0.000097
 707	7.0247e+01	11.8601	48.465815	0.000385	3.852325	1.305203	-0.000154
 708	7.0347e+01	11.8248	48.344700	0.000304	3.041309	1.030424	-0.000122
 709	7.0446e+01	11.7767	48.247809	0.000243	2.433048	0.824339	-0.000097
 710	7.0546e+01	11.7430	48.098435	0.000375	3.750948	1.270856	-0.000150
 711	7.0645e+01	11.7045	47.997507	0.000253	2.534425	0.858686	-0.000101
 712	7.0745e+01	11.6531	47.880430	0.000294	2.939932	0.996076	-0.000118
 713	7.0844e+01	11.6291	47.771427	0.000274	2.737179	0.927381	-0.000110
 714	7.0944e+01	11.5922	47.581682	0.000476	4.764718	1.614330	-0.000191
 715	7.1043e+01	11.5505	47.492865	0.000223	2.230294	0.755644	-0.000089
 716	7.1142e+01	11.5056	47.367714	0.000314	3.142686	1.064771	-0.000126
 717	7.1242e+01	11.4606	47.230451	0.000345	3.446817	1.167813	-0.000138
 718	7.1341e+01	11.4157	47.109337	0.000304	3.041309	1.030424	-0.000122
 719	7.1441e+01	11.3884	46.996297	0.000284	2.838555	0.961729	-0.000114
 720	7.1540e+01	11.3435	46.850960	0.000365	3.649571	1.236508	-0.000146
 721	7.1640e+01	11.3034	46.745995	0.000264	2.635802	0.893034	-0.000105
 722	7.1740e+01	11.2585	46.612769	0.000335	3.345440	1.133466	-0.000134
 723	7.1839e+01	11.2280	46.479544	0.000335	3.345440	1.133466	-0.000134
 724	7.1939e+01	11.1831	46.362467	0.000294	2.939932	0.996076	-0.000118
 725	7.2038e+01	11.1462	46.217130	0.000365	3.649571	1.236508	-0.000146
 726	7.2138e+01	11.1061	46.104090	0.000284	2.838555	0.961729	-0.000114
 727	7.2237e+01	11.0596	45.966828	0.000345	3.446817	1.167813	-0.000138
 728	7.2337e+01	11.0259	45.853788	0.000284	2.838555	0.961729	-0.000114
 729	7.2436e+01	10.9810	45.712488	0.000355	3.548194	1.202161	-0.000142
 730	7.2535e+01	10.9441	45.583300	0.000324	3.244063	1.099118	-0.000130
 731	7.2635e+01	10.9056	45.462186	0.000304	3.041309	1.030424	-0.000122
 732	7.2734e+01	10.8623	45.316849	0.000365	3.649571	1.236508	-0.000146
 733	7.2834e+01	10.8222	45.211883	0.000264	2.635802	0.893034	-0.000105
 734	7.2933e+01	10.7981	45.046361	0.000416	4.156456	1.408246	-0.000166
 735	7.3033e+01	10.7516	44.941395	0.000264	2.635802	0.893034	-0.000105
 736	7.3132e+01	10.7131	44.787984	0.000385	3.852325	1.305203	-0.000154
 737	7.3232e+01	10.6698	44.695130	0.000233	2.331671	0.789991	-0.000093
 738	7.3332e+01	10.6296	44.529607	0.000416	4.156456	1.408246	-0.000166
 739	7.3431e+01	10.5863	44.416567	0.000284	2.838555	0.961729	-0.000114
 740	7.3531e+01	10.5462	44.263156	0.000385	3.852325	1.305203	-0.000154
 741	7.3630e+01	10.5125	44.170302	0.000233	2.331671	0.789991	-0.000093
 742	7.3730e+01	10.4676	44.029002	0.000355	3.548194	1.202161	-0.000142
 743	7.3829e+01	10.4275	43.911925	0.000294	2.939932	0.996076	-0.000118
 744	7.3928e+01	10.3874	43.738329	0.000436	4.359210	1.476940	-0.000174
 745	7.4028e+01	10.3521	43.609140	0.000324	3.244063	1.099118	-0.000130
 746	7.4127e+01	10.3136	43.475915	0.000335	3.345440	1.133466	-0.000134
 747	7.4227e+01	10.2671	43.330578	0.000365	3.649571	1.236508	-0.000146
 748	7.4326e+01	10.2254	43.253872	0.000193	1.926163	0.652602	-0.000077
 749	7.4426e+01	10.1901	43.056053	0.000497	4.967472	1.683025	-0.000199
 750	7.4525e+01	10.1500	42.910716	0.000365	3.649571	1.236508	-0.000146
 751	7.4625e+01	10.1099	42.813825	0.000243	2.433048	0.824339	-0.000097
 752	7.4725e+01	10.0617	42.696748	0.000294	2.939932	0.996076	-0.000118
 753	7.4824e+01	10.0361	42.539299	0.000395	3.953702	1.339551	-0.000158
 754	7.4924e+01	9.9847	42.410111	0.000324	3.244063	1.099118	-0.000130
 755	7.5023e+01	9.9543	42.256700	0.000385	3.852325	1.305203	-0.000154
 756	7.5123e+01	9.9013	42.167883	0.000223	2.230294	0.755644	-0.000089
 757	7.5222e+01	9.8692	42.014472	0.000385	3.852325	1.305203	-0.000154
 758	7.5322e+01	9.8323	41.873172	0.000355	3.548194	1.202161	-0.000142
 759	7.5421e+01	9.7890	41.719761	0.000385	3.852325	1.305203	-0.000154
 760	7.5520e+01	9.7505	41.582498	0.000345	3.446817	1.167813	-0.000138
 761	7.5620e+01	9.7072	41.416976	0.000416	4.156456	1.408246	-0.000166
 762	7.5719e+01	9.6639	41.340270	0.000193	1.926163	0.652602	-0.000077
 763	7.5819e+01	9.6270	41.207044	0.000335	3.345440	1.133466	-0.000134
 764	7.5918e+01	9.5869	41.037485	0.000426	4.257833	1.442593	-0.000170
 765	7.6018e+01	9.5516	40.892148	0.000365	3.649571	1.236508	-0.000146
 766	7.6118e+01	9.5115	40.750848	0.000355	3.548194	1.202161	-0.000142
 767	7.6217e+01	9.4874	40.609548	0.000355	3.548194	1.202161	-0.000142
 768	7.6317e+01	9.4329	40.464212	0.000365	3.649571	1.236508	-0.000146
 769	7.6416e+01	9.3896	40.363283	0.000253	2.534425	0.858686	-0.000101
 770	7.6516e+01	9.3511	40.189686	0.000436	4.359210	1.476940	-0.000174
 771	7.6615e+01	9.3174	40.056461	0.000335	3.345440	1.133466	-0.000134
 772	7.6715e+01	9.2693	39.915161	0.000355	3.548194	1.202161	-0.000142
 773	7.6814e+01	9.2292	39.777898	0.000345	3.446817	1.167813	-0.000138
 774	7.6913e+01	9.1890	39.652747	0.000314	3.142686	1.064771	-0.000126
 775	7.7013e+01	9.1505	39.507410	0.000365	3.649571	1.236508	-0.000146
 776	7.7112e+01	9.1120	39.398408	0.000274	2.737179	0.927381	-0.000110
 777	7.7212e+01	9.0703	39.249034	0.000375	3.750948	1.270856	-0.000150
 778	7.7311e+01	9.0302	39.079474	0.000426	4.257833	1.442593	-0.000170
 779	7.7411e+01	8.9933	38.962397	0.000294	2.939932	0.996076	-0.000118
 780	7.7510e+01	8.9548	38.808986	0.000385	3.852325	1.305203	-0.000154
 781	7.7610e+01	8.9115	38.691909	0.000294	2.939932	0.996076	-0.000118
 782	7.7710e+01	8.8762	38.518312	0.000436	4.359210	1.476940	-0.000174
 783	7.7809e+01	8.8409	38.360864	0.000395	3.953702	1.339551	-0.000158
 784	7.7909e+01	8.7928	38.243787	0.000294	2.939932	0.996076	-0.000118
 785	7.8008e+01	8.7511	38.094413	0.000375	3.750948	1.270856	-0.000150
 786	7.8108e+01	8.7094	37.949076	0.000365	3.649571	1.236508	-0.000146
 787	7.8207e+01	8.6741	37.831999	0.000294	2.939932	0.996076	-0.000118
 788	7.8306e+01	8.6276	37.694736	0.000345	3.446817	1.167813	-0.000138
 789	7.8406e+01	8.5907	37.569585	0.000314	3.142686	1.064771	-0.000126
 790	7.8505e+01	8.5522	37.432323	0.000345	3.446817	1.167813	-0.000138
 791	7.8605e+01	8.5137	37.246614	0.000466	4.663341	1.579983	-0.000187
 792	7.8704e+01	8.4768	37.125500	0.000304	3.041309	1.030424	-0.000122
 793	7.8804e+01	8.4399	36.980163	0.000365	3.649571	1.236508	-0.000146
 794	7.8903e+01	8.4014	36.834826	0.000365	3.649571	1.236508	-0.000146
 795	7.9003e+01	8.3564	36.645081	0.000476	4.764718	1.614330	-0.000191
 796	7.9103e+01	8.3163	36.560301	0.000213	2.128917	0.721296	-0.000085
 797	7.9202e+01	8.2762	36.410927	0.000375	3.750948	1.270856	-0.000150
 798	7.9302e+01	8.2329	36.257516	0.000385	3.852325	1.305203	-0.000154
 799	7.9401e+01	8.1944	36.116216	0.000355	3.548194	1.202161	-0.000142
 800	7.9501e+01	8.1655	35.978954	0.000345	3.446817	1.167813	-0.000138
 801	7.9600e+01	8.1190	35.869951	0.000274	2.737179	0.927381	-0.000110
 802	7.9700e+01	8.0661	35.700391	0.000426	4.257833	1.442593	-0.000170
 803	7.9799e+01	8.0324	35.563129	0.000345	3.446817	1.167813	-0.000138
 804	7.9898e+01	7.9955	35.409718	0.000385	3.852325	1.305203	-0.000154
 805	7.9998e+01	7.9570	35.280529	0.000324	3.244063	1.099118	-0.000130
 806	8.0097e+01	7.9169	35.171527	0.000274	2.737179	0.927381	-0.000110
 807	8.0197e+01	7.8832	34.997930	0.000436	4.359210	1.476940	-0.000174
 808	8.0296e+01	7.8335	34.836444	0.000406	4.055079	1.373898	-0.000162
 809	8.0396e+01	7.7966	34.703219	0.000335	3.345440	1.133466	-0.000134
 810	8.0496e+01	7.7581	34.537696	0.000416	4.156456	1.408246	-0.000166
 811	8.0595e+01	7.7164	34.424656	0.000284	2.838555	0.961729	-0.000114
 812	8.0695e+01	7.6746	34.307580	0.000294	2.939932	0.996076	-0.000118
 813	8.0794e+01	7.6378	34.121871	0.000466	4.663341	1.579983	-0.000187
 814	8.0894e+01	7.6009	33.964423	0.000395	3.953702	1.339551	-0.000158
 815	8.0993e+01	7.5607	33.859457	0.000264	2.635802	0.893034	-0.000105
 816	8.1093e+01	7.5222	33.730269	0.000324	3.244063	1.099118	-0.000130
 817	8.1192e+01	7.4773	33.544561	0.000466	4.663341	1.579983	-0.000187
 818	8.1291e+01	7.4308	33.366927	0.000446	4.460587	1.511288	-0.000179
 819	8.1391e+01	7.3923	33.257924	0.000274	2.737179	0.927381	-0.000110
 820	8.1490e+01	7.3586	33.100476	0.000395	3.953702	1.339551	-0.000158
 821	8.1590e+01	7.3201	32.975325	0.000314	3.142686	1.064771	-0.000126
 822	8.1689e+01	7.2816	32.805765	0.000426	4.257833	1.442593	-0.000170
 823	8.1789e+01	7.2415	32.684651	0.000304	3.041309	1.030424	-0.000122
 824	8.1888e+01	7.1982	32.535277	0.000375	3.750948	1.270856	-0.000150
 825	8.1988e+01	7.1549	32.365717	0.000426	4.257833	1.442593	-0.000170
 826	8.2088e+01	7.1228	32.236529	0.000324	3.244063	1.099118	-0.000130
 827	8.2187e+01	7.0795	32.147712	0.000223	2.230294	0.755644	-0.000089
 828	8.2287e+01	7.0426	31.974115	0.000436	4.359210	1.476940	-0.000174
 829	8.2386e+01	7.0009	31.808592	0.000416	4.156456	1.408246	-0.000166
 830	8.2486e+01	6.9720	31.663256	0.000365	3.649571	1.236508	-0.000146
 831	8.2585e+01	6.9239	31.534067	0.000324	3.244063	1.099118	-0.000130
 832	8.2684e+01	6.8790	31.352396	0.000456	4.561964	1.545635	-0.000183
 833	8.2784e+01	6.8356	31.211096	0.000355	3.548194	1.202161	-0.000142
 834	8.2883e+01	6.8019	31.049611	0.000406	4.055079	1.373898	-0.000162
 835	8.2983e+01	6.7506	30.912348	0.000345	3.446817	1.167813	-0.000138
 836	8.3082e+01	6.7137	30.807383	0.000264	2.635802	0.893034	-0.000105
 837	8.3182e+01	6.6784	30.621675	0.000466	4.663341	1.579983	-0.000187
 838	8.3281e+01	6.6431	30.492486	0.000324	3.244063	1.099118	-0.000130
 839	8.3381e+01	6.5934	30.351186	0.000355	3.548194	1.202161	-0.000142
 840	8.3481e+01	6.5629	30.201812	0.000375	3.750948	1.270856	-0.000150
 841	8.3580e+01	6.5196	30.020141	0.000456	4.561964	1.545635	-0.000183
 842	8.3680e+01	6.4795	29.915176	0.000264	2.635802	0.893034	-0.000105
 843	8.3779e+01	6.4458	29.765802	0.000375	3.750948	1.270856	-0.000150
 844	8.3879e+01	6.4025	29.612391	0.000385	3.852325	1.305203	-0.000154
 845	8.3978e+01	6.3656	29.450905	0.000406	4.055079	1.373898	-0.000162
 846	8.4078e+01	6.3223	29.317680	0.000335	3.345440	1.133466	-0.000134
 847	8.4177e+01	6.2854	29.156194	0.000406	4.055079	1.373898	-0.000162
 848	8.4276e+01	6.2517	29.031043	0.000314	3.142686	1.064771	-0.000126
 849	8.4376e+01	6.2068	28.849372	0.000456	4.561964	1.545635	-0.000183
 850	8.4475e+01	6.1635	28.708072	0.000355	3.548194	1.202161	-0.000142
 851	8.4575e+01	6.1250	28.578884	0.000324	3.244063	1.099118	-0.000130
 852	8.4674e+01	6.0865	28.409324	0.000426	4.257833	1.442593	-0.000170
 853	8.4774e+01	6.0512	28.255913	0.000385	3.852325	1.305203	-0.000154
 854	8.4874e+01	6.0095	28.118650	0.000345	3.446817	1.167813	-0.000138
 855	8.4973e+01	5.9661	27.973314	0.000365	3.649571	1.236508	-0.000146
 856	8.5073e+01	5.9228	27.787605	0.000466	4.663341	1.579983	-0.000187
 857	8.5172e+01	5.8875	27.694751	0.000233	2.331671	0.789991	-0.000093
 858	8.5272e+01	5.8490	27.505006	0.000476	4.764718	1.614330	-0.000191
 859	8.5371e+01	5.8057	27.335446	0.000426	4.257833	1.442593	-0.000170
 860	8.5471e+01	5.7752	27.177998	0.000395	3.953702	1.339551	-0.000158
 861	8.5570e+01	5.7207	27.048809	0.000324	3.244063	1.099118	-0.000130
 862	8.5669e+01	5.6886	26.846953	0.000507	5.068849	1.717373	-0.000203
 863	8.5769e+01	5.6501	26.737950	0.000274	2.737179	0.927381	-0.000110
 864	8.5868e+01	5.6084	26.560316	0.000446	4.460587	1.511288	-0.000179
 865	8.5968e+01	5.5699	26.451313	0.000274	2.737179	0.927381	-0.000110
 866	8.6067e+01	5.5282	26.277717	0.000436	4.359210	1.476940	-0.000174
 867	8.6167e+01	5.4961	26.120268	0.000395	3.953702	1.339551	-0.000158
 868	8.6266e+01	5.4464	25.938597	0.000456	4.561964	1.545635	-0.000183
 869	8.6366e+01	5.4111	25.809409	0.000324	3.244063	1.099118	-0.000130
 870	8.6466e+01	5.3646	25.647923	0.000406	4.055079	1.373898	-0.000162
 871	8.6565e+01	5.3196	25.478364	0.000426	4.257833	1.442593	-0.000170
 872	8.6665e+01	5.2843	25.308804	0.000426	4.257833	1.442593	-0.000170
 873	8.6764e+01	5.2474	25.167504	0.000355	3.548194	1.202161	-0.000142
 874	8.6864e+01	5.2057	25.001982	0.000416	4.156456	1.408246	-0.000166
 875	8.6963e+01	5.1640	24.876830	0.000314	3.142686	1.064771	-0.000126
 876	8.7063e+01	5.1255	24.670936	0.000517	5.170226	1.751720	-0.000207
 877	8.7162e+01	5.0902	24.545785	0.000314	3.142686	1.064771	-0.000126
 878	8.7261e+01	5.0517	24.347966	0.000497	4.967472	1.683025	-0.000199
 879	8.7361e+01	5.0100	24.194554	0.000385	3.852325	1.305203	-0.000154
 880	8.7460e+01	4.9747	24.061329	0.000335	3.345440	1.133466	-0.000134
 881	8.7560e+01	4.9250	23.887732	0.000436	4.359210	1.476940	-0.000174
 882	8.7659e+01	4.8897	23.726247	0.000406	4.055079	1.373898	-0.000162
 883	8.7759e+01	4.8464	23.597058	0.000324	3.244063	1.099118	-0.000130
 884	8.7859e+01	4.8095	23.383090	0.000537	5.372980	1.820415	-0.000215
 885	8.7958e+01	4.7710	23.270050	0.000284	2.838555	0.961729	-0.000114
 886	8.8058e+01	4.7293	23.072231	0.000497	4.967472	1.683025	-0.000199
 887	8.8157e+01	4.6924	22.926894	0.000365	3.649571	1.236508	-0.000146
 888	8.8257e+01	4.6507	22.789631	0.000345	3.446817	1.167813	-0.000138
 889	8.8356e+01	4.6074	22.599886	0.000476	4.764718	1.614330	-0.000191
 890	8.8456e+01	4.5705	22.414178	0.000466	4.663341	1.579983	-0.000187
 891	8.8555e+01	4.5336	22.276915	0.000345	3.446817	1.167813	-0.000138
 892	8.8654e+01	4.4854	22.123504	0.000385	3.852325	1.305203	-0.000154
 893	8.8754e+01	4.4566	21.941833	0.000456	4.561964	1.545635	-0.000183
 894	8.8853e+01	4.4148	21.768236	0.000436	4.359210	1.476940	-0.000174
 895	8.8953e+01	4.3747	21.622899	0.000365	3.649571	1.236508	-0.000146
 896	8.9052e+01	4.3282	21.437191	0.000466	4.663341	1.579983	-0.000187
 897	8.9152e+01	4.2993	21.283780	0.000385	3.852325	1.305203	-0.000154
 898	8.9251e+01	4.2560	21.102109	0.000456	4.561964	1.545635	-0.000183
 899	8.9351e+01	4.2127	20.924475	0.000446	4.460587	1.511288	-0.000179
 900	8.9451e+01	4.1646	20.771063	0.000385	3.852325	1.305203	-0.000154
 901	8.9550e+01	4.1373	20.641875	0.000324	3.244063	1.099118	-0.000130
 902	8.9650e+01	4.0940	20.448093	0.000487	4.866095	1.648678	-0.000195
 903	8.9749e+01	4.0491	20.318904	0.000324	3.244063	1.099118	-0.000130
 904	8.9849e+01	4.0106	20.141270	0.000446	4.460587	1.511288	-0.000179
 905	8.9948e+01	3.9785	19.979785	0.000406	4.055079	1.373898	-0.000162
 906	9.0047e+01	3.9336	19.822336	0.000395	3.953702	1.339551	-0.000158
 907	9.0147e+01	3.8967	19.644703	0.000446	4.460587	1.511288	-0.000179
 908	9.0246e+01	3.8550	19.454957	0.000476	4.764718	1.614330	-0.000191
 909	9.0346e+01	3.8133	19.301546	0.000385	3.852325	1.305203	-0.000154
 910	9.0445e+01	3.7667	19.131986	0.000426	4.257833	1.442593	-0.000170
 911	9.0545e+01	3.7298	18.970501	0.000406	4.055079	1.373898	-0.000162
 912	9.0644e+01	3.6945	18.813053	0.000395	3.953702	1.339551	-0.000158
 913	9.0744e+01	3.6496	18.651567	0.000406	4.055079	1.373898	-0.000162
 914	9.0844e+01	3.6208	18.490082	0.000406	4.055079	1.373898	-0.000162
 915	9.0943e+01	3.5742	18.288225	0.000507	5.068849	1.717373	-0.000203
 916	9.1043e+01	3.5341	18.118665	0.000426	4.257833	1.442593	-0.000170
 917	9.1142e+01	3.4988	17.969291	0.000375	3.750948	1.270856	-0.000150
 918	9.1242e+01	3.4539	17.783583	0.000466	4.663341	1.579983	-0.000187
 919	9.1341e+01	3.4282	17.593838	0.000476	4.764718	1.614330	-0.000191
 920	9.1441e+01	3.3737	17.444464	0.000375	3.750948	1.270856	-0.000150
 921	9.1540e+01	3.3352	17.291052	0.000385	3.852325	1.305203	-0.000154
 922	9.1639e+01	3.2967	17.113418	0.000446	4.460587	1.511288	-0.000179
 923	9.1739e+01	3.2550	16.968082	0.000365	3.649571	1.236508	-0.000146
 924	9.1838e+01	3.2117	16.782373	0.000466	4.663341	1.579983	-0.000187
 925	9.1938e+01	3.1764	16.592628	0.000476	4.764718	1.614330	-0.000191
 926	9.2037e+01	3.1395	16.443254	0.000375	3.750948	1.270856	-0.000150
 927	9.2137e+01	3.0930	16.241397	0.000507	5.068849	1.717373	-0.000203
 928	9.2237e+01	3.0561	16.104134	0.000345	3.446817	1.167813	-0.000138
 929	9.2336e+01	3.0224	15.886129	0.000547	5.474357	1.854762	-0.000219
 930	9.2436e+01	2.9775	15.760978	0.000314	3.142686	1.064771	-0.000126
 931	9.2535e+01	2.9325	15.567195	0.000487	4.866095	1.648678	-0.000195
 932	9.2635e+01	2.8908	15.369376	0.000497	4.967472	1.683025	-0.000199
 933	9.2734e+01	2.8539	15.236150	0.000335	3.345440	1.133466	-0.000134
 934	9.2834e+01	2.8186	15.006034	0.000578	5.778488	1.957805	-0.000231
 935	9.2933e+01	2.7769	14.856660	0.000375	3.750948	1.270856	-0.000150
 936	9.3032e+01	2.7320	14.707285	0.000375	3.750948	1.270856	-0.000150
 937	9.3132e+01	2.6967	14.553874	0.000385	3.852325	1.305203	-0.000154
 938	9.3231e+01	2.6662	14.352018	0.000507	5.068849	1.717373	-0.000203
 939	9.3331e+01	2.6229	14.182458	0.000426	4.257833	1.442593	-0.000170
 940	9.3430e+01	2.5876	14.041158	0.000355	3.548194	1.202161	-0.000142
 941	9.3530e+01	2.5411	13.843338	0.000497	4.967472	1.683025	-0.000199
 942	9.3629e+01	2.4946	13.649556	0.000487	4.866095	1.648678	-0.000195
 943	9.3729e+01	2.4545	13.516330	0.000335	3.345440	1.133466	-0.000134
 944	9.3829e+01	2.4224	13.314474	0.000507	5.068849	1.717373	-0.000203
 945	9.3928e+01	2.3791	13.128765	0.000466	4.663341	1.579983	-0.000187
 946	9.4028e+01	2.3406	12.999577	0.000324	3.244063	1.099118	-0.000130
 947	9.4127e+01	2.3053	12.781572	0.000547	5.474357	1.854762	-0.000219
 948	9.4227e+01	2.2620	12.632198	0.000375	3.750948	1.270856	-0.000150
 949	9.4326e+01	2.2267	12.466675	0.000416	4.156456	1.408246	-0.000166
 950	9.4425e+01	2.1802	12.280967	0.000466	4.663341	1.579983	-0.000187
 951	9.4525e+01	2.1336	12.095259	0.000466	4.663341	1.579983	-0.000187
 952	9.4624e+01	2.1015	11.925699	0.000426	4.257833	1.442593	-0.000170
 953	9.4724e+01	2.0550	11.768251	0.000395	3.953702	1.339551	-0.000158
 954	9.4823e+01	2.0213	11.602728	0.000416	4.156456	1.408246	-0.000166
 955	9.4923e+01	1.9780	11.400871	0.000507	5.068849	1.717373	-0.000203
 956	9.5022e+01	1.9395	11.263609	0.000345	3.446817	1.167813	-0.000138
 957	9.5122e+01	1.9010	11.057715	0.000517	5.170226	1.751720	-0.000207
 958	9.5222e+01	1.8561	10.900266	0.000395	3.953702	1.339551	-0.000158
 959	9.5321e+01	1.8240	10.722633	0.000446	4.460587	1.511288	-0.000179
 960	9.5421e+01	1.7807	10.536924	0.000466	4.663341	1.579983	-0.000187
 961	9.5520e+01	1.7406	10.379476	0.000395	3.953702	1.339551	-0.000158
 962	9.5620e+01	1.7005	10.201842	0.000446	4.460587	1.511288	-0.000179
 963	9.5719e+01	1.6636	9.987874	0.000537	5.372980	1.820415	-0.000215
 964	9.5819e+01	1.6283	9.874834	0.000284	2.838555	0.961729	-0.000114
 965	9.5918e+01	1.5705	9.681051	0.000487	4.866095	1.648678	-0.000195
 966	9.6017e+01	1.5369	9.491306	0.000476	4.764718	1.614330	-0.000191
 967	9.6117e+01	1.4935	9.358081	0.000335	3.345440	1.133466	-0.000134
 968	9.6216e+01	1.4631	9.152187	0.000517	5.170226	1.751720	-0.000207
 969	9.6316e+01	1.4197	8.982627	0.000426	4.257833	1.442593	-0.000170
 970	9.6415e+01	1.3812	8.825179	0.000395	3.953702	1.339551	-0.000158
 971	9.6515e+01	1.3443	8.639470	0.000466	4.663341	1.579983	-0.000187
 972	9.6615e+01	1.2994	8.469911	0.000426	4.257833	1.442593	-0.000170
 973	9.6714e+01	1.2641	8.280165	0.000476	4.764718	1.614330	-0.000191
 974	9.6814e+01	1.2208	8.106569	0.000436	4.359210	1.476940	-0.000174
 975	9.6913e+01	1.1871	7.941046	0.000416	4.156456	1.408246	-0.000166
 976	9.7013e+01	1.1518	7.747263	0.000487	4.866095	1.648678	-0.000195
 977	9.7112e+01	1.1117	7.577704	0.000426	4.257833	1.442593	-0.000170
 978	9.7212e+01	1.0620	7.432367	0.000365	3.649571	1.236508	-0.000146
 979	9.7311e+01	1.0251	7.210324	0.000558	5.575734	1.889110	-0.000223
 980	9.7410e+01	0.9834	7.052876	0.000395	3.953702	1.339551	-0.000158
 981	9.7510e+01	0.9433	6.907539	0.000365	3.649571	1.236508	-0.000146
 982	9.7609e+01	0.9112	6.697608	0.000527	5.271603	1.786067	-0.000211
 983	9.7709e+01	0.8583	6.511900	0.000466	4.663341	1.579983	-0.000187
 984	9.7808e+01	0.8214	6.374637	0.000345	3.446817	1.167813	-0.000138
 985	9.7908e+01	0.7797	6.172781	0.000507	5.068849	1.717373	-0.000203
 986	9.8007e+01	0.7379	6.071852	0.000253	2.534425	0.858686	-0.000101
 987	9.8107e+01	0.7010	5.821550	0.000629	6.285373	2.129542	-0.000252
 988	9.8207e+01	0.6674	5.668139	0.000385	3.852325	1.305203	-0.000154
 989	9.8306e+01	0.6224	5.530876	0.000345	3.446817	1.167813	-0.000138
 990	9.8406e+01	0.5791	5.312871	0.000547	5.474357	1.854762	-0.000219
 991	9.8505e+01	0.5390	5.171571	0.000355	3.548194	1.202161	-0.000142
 992	9.8605e+01	0.4957	4.965677	0.000517	5.170226	1.751720	-0.000207
 993	9.8704e+01	0.4652	4.840526	0.000314	3.142686	1.064771	-0.000126
 994	9.8803e+01	0.4331	4.598298	0.000608	6.082619	2.060847	-0.000243
 995	9.8903e+01	0.3882	4.448924	0.000375	3.750948	1.270856	-0.000150
 996	9.9002e+01	0.3449	4.299550	0.000375	3.750948	1.270856	-0.000150
 997	9.9102e+01	0.3016	4.142101	0.000395	3.953702	1.339551	-0.000158
 998	9.9201e+01	0.2679	3.924096	0.000547	5.474357	1.854762	-0.000219
 999	9.9301e+01	0.2198	3.726276	0.000497	4.967472	1.683025	-0.000199
1000	9.9400e+01	0.1893	3.564791	0.000406	4.055079	1.373898	-0.000162
1001	9.9500e+01	0.1492	3.435603	0.000324	3.244063	1.099118	-0.000130
1002	9.9600e+01	0.1075	3.213560	0.000558	5.575734	1.889110	-0.000223
1003	9.9699e+01	0.0642	3.044000	0.000426	4.257833	1.442593	-0.000170
1004	9.9799e+01	0.0289	2.898663	0.000365	3.649571	1.236508	-0.000146
1005	9.9898e+01	-0.0048	2.781587	0.000294	2.939932	0.996076	-0.000118
1006	9.9998e+01	-0.0417	2.523210	0.000649	6.488127	2.198237	-0.000260
1007	1.0010e+02	-0.0866	2.389984	0.000335	3.345440	1.133466	-0.000134
1008	1.0020e+02	-0.1235	2.200239	0.000476	4.764718	1.614330	-0.000191
1009	1.0030e+02	-0.1717	2.022605	0.000446	4.460587	1.511288	-0.000179
1010	1.0040e+02	-0.2134	1.828822	0.000487	4.866095	1.648678	-0.000195
1011	1.0050e+02	-0.2519	1.691560	0.000345	3.446817	1.167813	-0.000138
1012	1.0059e+02	-0.2823	1.530074	0.000406	4.055079	1.373898	-0.000162
1013	1.0069e+02	-0.3241	1.299958	0.000578	5.778488	1.957805	-0.000231
1014	1.0079e+02	-0.3658	1.150584	0.000375	3.750948	1.270856	-0.000150
1015	1.0089e+02	-0.4043	0.972950	0.000446	4.460587	1.511288	-0.000179
1016	1.0099e+02	-0.4508	0.827613	0.000365	3.649571	1.236508	-0.000146
1017	1.0109e+02	-0.4941	0.637867	0.000476	4.764718	1.614330	-0.000191
1018	1.0119e+02	-0.5326	0.492531	0.000365	3.649571	1.236508	-0.000146
1019	1.0129e+02	-0.5647	0.331045	0.000406	4.055079	1.373898	-0.000162
1020	1.0139e+02	-0.6080	0.133225	0.000497	4.967472	1.683025	-0.000199
1021	1.0149e+02	-0.6481	-0.056520	0.000476	4.764718	1.614330	-0.000191
1022	1.0159e+02	-0.6882	-0.262414	0.000517	5.170226	1.751720	-0.000207
1023	1.0169e+02	-0.7235	-0.387565	0.000314	3.142686	1.064771	-0.000126
1024	1.0179e+02	-0.7652	-0.605570	0.000547	5.474357	1.854762	-0.000219
1025	1.0189e+02	-0.8037	-0.758982	0.000385	3.852325	1.305203	-0.000154
1026	1.0199e+02	-0.8422	-0.932578	0.000436	4.359210	1.476940	-0.000174
1027	1.0209e+02	-0.8823	-1.098101	0.000416	4.156456	1.408246	-0.000166
1028	1.0219e+02	-0.9192	-1.287846	0.000476	4.764718	1.614330	-0.000191
1029	1.0229e+02	-0.9690	-1.449332	0.000406	4.055079	1.373898	-0.000162
1030	1.0239e+02	-1.0010	-1.598706	0.000375	3.750948	1.270856	-0.000150
1031	1.0248e+02	-1.0411	-1.792488	0.000487	4.866095	1.648678	-0.000195
1032	1.0258e+02	-1.0780	-1.958011	0.000416	4.156456	1.408246	-0.000166
1033	1.0268e+02	-1.1262	-2.143719	0.000466	4.663341	1.579983	-0.000187
1034	1.0278e+02	-1.1631	-2.337502	0.000487	4.866095	1.648678	-0.000195
1035	1.0288e+02	-1.2080	-2.515136	0.000446	4.460587	1.511288	-0.000179
1036	1.0298e+02	-1.2385	-2.692770	0.000446	4.460587	1.511288	-0.000179
1037	1.0308e+02	-1.2962	-2.854255	0.000406	4.055079	1.373898	-0.000162
1038	1.0318e+02	-1.3171	-2.999592	0.000365	3.649571	1.236508	-0.000146
1039	1.0328e+02	-1.3476	-3.241820	0.000608	6.082619	2.060847	-0.000243
1040	1.0338e+02	-1.3941	-3.407343	0.000416	4.156456	1.408246	-0.000166
1041	1.0348e+02	-1.4374	-3.564791	0.000395	3.953702	1.339551	-0.000158
1042	1.0358e+02	-1.4839	-3.702053	0.000345	3.446817	1.167813	-0.000138
1043	1.0368e+02	-1.5240	-3.903910	0.000507	5.068849	1.717373	-0.000203
1044	1.0378e+02	-1.5625	-4.121916	0.000547	5.474357	1.854762	-0.000219
1045	1.0388e+02	-1.6058	-4.238993	0.000294	2.939932	0.996076	-0.000118
1046	1.0398e+02	-1.6475	-4.440849	0.000507	5.068849	1.717373	-0.000203
1047	1.0408e+02	-1.6780	-4.638669	0.000497	4.967472	1.683025	-0.000199
1048	1.0418e+02	-1.7165	-4.820340	0.000456	4.561964	1.545635	-0.000183
1049	1.0428e+02	-1.7631	-4.993937	0.000436	4.359210	1.476940	-0.000174
1050	1.0438e+02	-1.8016	-5.123125	0.000324	3.244063	1.099118	-0.000130
1051	1.0447e+02	-1.8352	-5.337093	0.000537	5.372980	1.820415	-0.000215
1052	1.0457e+02	-1.8770	-5.551062	0.000537	5.372980	1.820415	-0.000215
1053	1.0467e+02	-1.9122	-5.708510	0.000395	3.953702	1.339551	-0.000158
1054	1.0477e+02	-1.9652	-5.861921	0.000385	3.852325	1.305203	-0.000154
1055	1.0487e+02	-1.9989	-6.059741	0.000497	4.967472	1.683025	-0.000199
1056	1.0497e+02	-2.0374	-6.233338	0.000436	4.359210	1.476940	-0.000174
1057	1.0507e+02	-2.0887	-6.394823	0.000406	4.055079	1.373898	-0.000162
1058	1.0517e+02	-2.1256	-6.584568	0.000476	4.764718	1.614330	-0.000191
1059	1.0527e+02	-2.1545	-6.762202	0.000446	4.460587	1.511288	-0.000179
1060	1.0537e+02	-2.1898	-6.947911	0.000466	4.663341	1.579983	-0.000187
1061	1.0547e+02	-2.2411	-7.085173	0.000345	3.446817	1.167813	-0.000138
1062	1.0557e+02	-2.2748	-7.274919	0.000476	4.764718	1.614330	-0.000191
1063	1.0567e+02	-2.3213	-7.452553	0.000446	4.460587	1.511288	-0.000179
1064	1.0577e+02	-2.3582	-7.670558	0.000547	5.474357	1.854762	-0.000219
1065	1.0587e+02	-2.3983	-7.823969	0.000385	3.852325	1.305203	-0.000154
1066	1.0597e+02	-2.4400	-7.997566	0.000436	4.359210	1.476940	-0.000174
1067	1.0607e+02	-2.4721	-8.175200	0.000446	4.460587	1.511288	-0.000179
1068	1.0617e+02	-2.5170	-8.320537	0.000365	3.649571	1.236508	-0.000146
1069	1.0627e+02	-2.5620	-8.514319	0.000487	4.866095	1.648678	-0.000195
1070	1.0637e+02	-2.5940	-8.704065	0.000476	4.764718	1.614330	-0.000191
1071	1.0647e+02	-2.6309	-8.853439	0.000375	3.750948	1.270856	-0.000150
1072	1.0656e+02	-2.6759	-9.043184	0.000476	4.764718	1.614330	-0.000191
1073	1.0666e+02	-2.7112	-9.204669	0.000406	4.055079	1.373898	-0.000162
1074	1.0676e+02	-2.7545	-9.398452	0.000487	4.866095	1.648678	-0.000195
1075	1.0686e+02	-2.7978	-9.584160	0.000466	4.663341	1.579983	-0.000187
1076	1.0696e+02	-2.8379	-9.769868	0.000466	4.663341	1.579983	-0.000187
1077	1.0706e+02	-2.8828	-9.943465	0.000436	4.359210	1.476940	-0.000174
1078	1.0716e+02	-2.9165	-10.076691	0.000335	3.345440	1.133466	-0.000134
1079	1.0726e+02	-2.9630	-10.302770	0.000568	5.677111	1.923457	-0.000227
1080	1.0736e+02	-2.9919	-10.423884	0.000304	3.041309	1.030424	-0.000122
1081	1.0746e+02	-3.0384	-10.625741	0.000507	5.068849	1.717373	-0.000203
1082	1.0756e+02	-3.0753	-10.807412	0.000456	4.561964	1.545635	-0.000183
1083	1.0766e+02	-3.1218	-10.989083	0.000456	4.561964	1.545635	-0.000183
1084	1.0776e+02	-3.1475	-11.154606	0.000416	4.156456	1.408246	-0.000166
1085	1.0786e+02	-3.2037	-11.332240	0.000446	4.460587	1.511288	-0.000179
1086	1.0796e+02	-3.2373	-11.517948	0.000466	4.663341	1.579983	-0.000187
1087	1.0806e+02	-3.2758	-11.667322	0.000375	3.750948	1.270856	-0.000150
1088	1.0816e+02	-3.3143	-11.832845	0.000416	4.156456	1.408246	-0.000166
1089	1.0826e+02	-3.3480	-12.018553	0.000466	4.663341	1.579983	-0.000187
1090	1.0836e+02	-3.3930	-12.216373	0.000497	4.967472	1.683025	-0.000199
1091	1.0845e+02	-3.4315	-12.357672	0.000355	3.548194	1.202161	-0.000142
1092	1.0855e+02	-3.4732	-12.511084	0.000385	3.852325	1.305203	-0.000154
1093	1.0865e+02	-3.5036	-12.716978	0.000517	5.170226	1.751720	-0.000207
1094	1.0875e+02	-3.5550	-12.878463	0.000406	4.055079	1.373898	-0.000162
1095	1.0885e+02	-3.5935	-13.088394	0.000527	5.271603	1.786067	-0.000211
1096	1.0895e+02	-3.6304	-13.221620	0.000335	3.345440	1.133466	-0.000134
1097	1.0905e+02	-3.6785	-13.387142	0.000416	4.156456	1.408246	-0.000166
1098	1.0915e+02	-3.7186	-13.584962	0.000497	4.967472	1.683025	-0.000199
1099	1.0925e+02	-3.7491	-13.738373	0.000385	3.852325	1.305203	-0.000154
1100	1.0935e+02	-3.7860	-13.920044	0.000456	4.561964	1.545635	-0.000183
1101	1.0945e+02	-3.8309	-14.101715	0.000456	4.561964	1.545635	-0.000183
1102	1.0955e+02	-3.8598	-14.263201	0.000406	4.055079	1.373898	-0.000162
1103	1.0965e+02	-3.9063	-14.461020	0.000497	4.967472	1.683025	-0.000199
1104	1.0975e+02	-3.9560	-14.598283	0.000345	3.446817	1.167813	-0.000138
1105	1.0985e+02	-3.9977	-14.792065	0.000487	4.866095	1.648678	-0.000195
1106	1.0995e+02	-4.0362	-14.949514	0.000395	3.953702	1.339551	-0.000158
1107	1.1005e+02	-4.0667	-15.090813	0.000355	3.548194	1.202161	-0.000142
1108	1.1015e+02	-4.1133	-15.333042	0.000608	6.082619	2.060847	-0.000243
1109	1.1025e+02	-4.1502	-15.470304	0.000345	3.446817	1.167813	-0.000138
1110	1.1035e+02	-4.1806	-15.619678	0.000375	3.750948	1.270856	-0.000150
1111	1.1044e+02	-4.2159	-15.797312	0.000446	4.460587	1.511288	-0.000179
1112	1.1054e+02	-4.2689	-15.974946	0.000446	4.460587	1.511288	-0.000179
1113	1.1064e+02	-4.3026	-16.128357	0.000385	3.852325	1.305203	-0.000154
1114	1.1074e+02	-4.3491	-16.330214	0.000507	5.068849	1.717373	-0.000203
1115	1.1084e+02	-4.3876	-16.443254	0.000284	2.838555	0.961729	-0.000114
1116	1.1094e+02	-4.4309	-16.673371	0.000578	5.778488	1.957805	-0.000231
1117	1.1104e+02	-4.4726	-16.802559	0.000324	3.244063	1.099118	-0.000130
1118	1.1114e+02	-4.4983	-16.984230	0.000456	4.561964	1.545635	-0.000183
1119	1.1124e+02	-4.5480	-17.137641	0.000385	3.852325	1.305203	-0.000154
1120	1.1134e+02	-4.5817	-17.351609	0.000537	5.372980	1.820415	-0.000215
1121	1.1144e+02	-4.6282	-17.468686	0.000294	2.939932	0.996076	-0.000118
1122	1.1154e+02	-4.6667	-17.609986	0.000355	3.548194	1.202161	-0.000142
1123	1.1164e+02	-4.7036	-17.823954	0.000537	5.372980	1.820415	-0.000215
1124	1.1174e+02	-4.7501	-17.965254	0.000355	3.548194	1.202161	-0.000142
1125	1.1184e+02	-4.7870	-18.118665	0.000385	3.852325	1.305203	-0.000154
1126	1.1194e+02	-4.8223	-18.292262	0.000436	4.359210	1.476940	-0.000174
1127	1.1204e+02	-4.8592	-18.477970	0.000466	4.663341	1.579983	-0.000187
1128	1.1214e+02	-4.9073	-18.607159	0.000324	3.244063	1.099118	-0.000130
1129	1.1224e+02	-4.9475	-18.764607	0.000395	3.953702	1.339551	-0.000158
1130	1.1234e+02	-4.9779	-18.918018	0.000385	3.852325	1.305203	-0.000154
1131	1.1244e+02	-5.0229	-19.103726	0.000466	4.663341	1.579983	-0.000187
1132	1.1253e+02	-5.0662	-19.236952	0.000335	3.345440	1.133466	-0.000134
1133	1.1263e+02	-5.1095	-19.406511	0.000426	4.257833	1.442593	-0.000170
1134	1.1273e+02	-5.1448	-19.608368	0.000507	5.068849	1.717373	-0.000203
1135	1.1283e+02	-5.1881	-19.761779	0.000385	3.852325	1.305203	-0.000154
1136	1.1293e+02	-5.2234	-19.923265	0.000406	4.055079	1.373898	-0.000162
1137	1.1303e+02	-5.2587	-20.056490	0.000335	3.345440	1.133466	-0.000134
1138	1.1313e+02	-5.3020	-20.193753	0.000345	3.446817	1.167813	-0.000138
1139	1.1323e+02	-5.3453	-20.379461	0.000466	4.663341	1.579983	-0.000187
1140	1.1333e+02	-5.3838	-20.528835	0.000375	3.750948	1.270856	-0.000150
1141	1.1343e+02	-5.4303	-20.686284	0.000395	3.953702	1.339551	-0.000158
1142	1.1353e+02	-5.4608	-20.827583	0.000355	3.548194	1.202161	-0.000142
1143	1.1363e+02	-5.5025	-20.985032	0.000395	3.953702	1.339551	-0.000158
1144	1.1373e+02	-5.5394	-21.142480	0.000395	3.953702	1.339551	-0.000158
1145	1.1383e+02	-5.5908	-21.344337	0.000507	5.068849	1.717373	-0.000203
1146	1.1393e+02	-5.6180	-21.493711	0.000375	3.750948	1.270856	-0.000150
1147	1.1403e+02	-5.6678	-21.626936	0.000335	3.345440	1.133466	-0.000134
1148	1.1413e+02	-5.7079	-21.804570	0.000446	4.460587	1.511288	-0.000179
1149	1.1423e+02	-5.7448	-21.945870	0.000355	3.548194	1.202161	-0.000142
1150	1.1433e+02	-5.7784	-22.127541	0.000456	4.561964	1.545635	-0.000183
1151	1.1442e+02	-5.8153	-22.252692	0.000314	3.142686	1.064771	-0.000126
1152	1.1452e+02	-5.8651	-22.393992	0.000355	3.548194	1.202161	-0.000142
1153	1.1462e+02	-5.9052	-22.563552	0.000426	4.257833	1.442593	-0.000170
1154	1.1472e+02	-5.9405	-22.704851	0.000355	3.548194	1.202161	-0.000142
1155	1.1482e+02	-5.9822	-22.878448	0.000436	4.359210	1.476940	-0.000174
1156	1.1492e+02	-6.0335	-23.027822	0.000375	3.750948	1.270856	-0.000150
1157	1.1502e+02	-6.0688	-23.185271	0.000395	3.953702	1.339551	-0.000158
1158	1.1512e+02	-6.0993	-23.322533	0.000345	3.446817	1.167813	-0.000138
1159	1.1522e+02	-6.1458	-23.467870	0.000365	3.649571	1.236508	-0.000146
1160	1.1532e+02	-6.1859	-23.621281	0.000385	3.852325	1.305203	-0.000154
1161	1.1542e+02	-6.2244	-23.802952	0.000456	4.561964	1.545635	-0.000183
1162	1.1552e+02	-6.2629	-23.940215	0.000345	3.446817	1.167813	-0.000138
1163	1.1562e+02	-6.2998	-24.101700	0.000406	4.055079	1.373898	-0.000162
1164	1.1572e+02	-6.3496	-24.230889	0.000324	3.244063	1.099118	-0.000130
1165	1.1582e+02	-6.3800	-24.400448	0.000426	4.257833	1.442593	-0.000170
1166	1.1592e+02	-6.4185	-24.578082	0.000446	4.460587	1.511288	-0.000179
1167	1.1602e+02	-6.4586	-24.658825	0.000203	2.027540	0.686949	-0.000081
1168	1.1612e+02	-6.4987	-24.832422	0.000436	4.359210	1.476940	-0.000174
1169	1.1622e+02	-6.5372	-24.981796	0.000375	3.750948	1.270856	-0.000150
1170	1.1632e+02	-6.5758	-25.151356	0.000426	4.257833	1.442593	-0.000170
1171	1.1642e+02	-6.6191	-25.260358	0.000274	2.737179	0.927381	-0.000110
1172	1.1651e+02	-6.6656	-25.454141	0.000487	4.866095	1.648678	-0.000195
1173	1.1661e+02	-6.6961	-25.587366	0.000335	3.345440	1.133466	-0.000134
1174	1.1671e+02	-6.7346	-25.756926	0.000426	4.257833	1.442593	-0.000170
1175	1.1681e+02	-6.7763	-25.890151	0.000335	3.345440	1.133466	-0.000134
1176	1.1691e+02	-6.8164	-26.035488	0.000365	3.649571	1.236508	-0.000146
1177	1.1701e+02	-6.8517	-26.176788	0.000355	3.548194	1.202161	-0.000142
1178	1.1711e+02	-6.8998	-26.318088	0.000355	3.548194	1.202161	-0.000142
1179	1.1721e+02	-6.9351	-26.483610	0.000416	4.156456	1.408246	-0.000166
1180	1.1731e+02	-6.9752	-26.632984	0.000375	3.750948	1.270856	-0.000150
1181	1.1741e+02	-7.0233	-26.762173	0.000324	3.244063	1.099118	-0.000130
1182	1.1751e+02	-7.0442	-26.867138	0.000264	2.635802	0.893034	-0.000105
1183	1.1761e+02	-7.0939	-27.097255	0.000578	5.778488	1.957805	-0.000231
1184	1.1771e+02	-7.1372	-27.190109	0.000233	2.331671	0.789991	-0.000093
1185	1.1781e+02	-7.1789	-27.331409	0.000355	3.548194	1.202161	-0.000142
1186	1.1791e+02	-7.2094	-27.460597	0.000324	3.244063	1.099118	-0.000130
1187	1.1801e+02	-7.2527	-27.605934	0.000365	3.649571	1.236508	-0.000146
1188	1.1811e+02	-7.2961	-27.779531	0.000436	4.359210	1.476940	-0.000174
1189	1.1821e+02	-7.3378	-27.916794	0.000345	3.446817	1.167813	-0.000138
1190	1.1831e+02	-7.3827	-28.106539	0.000476	4.764718	1.614330	-0.000191
1191	1.1841e+02	-7.4292	-28.203430	0.000243	2.433048	0.824339	-0.000097
1192	1.1850e+02	-7.4485	-28.364916	0.000406	4.055079	1.373898	-0.000162
1193	1.1860e+02	-7.4950	-28.518327	0.000385	3.852325	1.305203	-0.000154
1194	1.1870e+02	-7.5415	-28.623292	0.000264	2.635802	0.893034	-0.000105
1195	1.1880e+02	-7.5832	-28.784778	0.000406	4.055079	1.373898	-0.000162
1196	1.1890e+02	-7.6233	-28.942226	0.000395	3.953702	1.339551	-0.000158
1197	1.1900e+02	-7.6538	-29.047192	0.000264	2.635802	0.893034	-0.000105
1198	1.1910e+02	-7.6907	-29.208677	0.000406	4.055079	1.373898	-0.000162
1199	1.1920e+02	-7.7404	-29.390348	0.000456	4.561964	1.545635	-0.000183
1200	1.1930e+02	-7.7709	-29.499351	0.000274	2.737179	0.927381	-0.000110
1201	1.1940e+02	-7.8126	-29.652762	0.000385	3.852325	1.305203	-0.000154
1202	1.1950e+02	-7.8559	-29.781950	0.000324	3.244063	1.099118	-0.000130
1203	1.1960e+02	-7.8944	-29.903064	0.000304	3.041309	1.030424	-0.000122
1204	1.1970e+02	-7.9233	-30.088773	0.000466	4.663341	1.579983	-0.000187
1205	1.1980e+02	-7.9650	-30.217961	0.000324	3.244063	1.099118	-0.000130
1206	1.1990e+02	-8.0131	-30.363298	0.000365	3.649571	1.236508	-0.000146
1207	1.2000e+02	-8.0436	-30.484412	0.000304	3.041309	1.030424	-0.000122
1208	1.2010e+02	-8.0869	-30.670120	0.000466	4.663341	1.579983	-0.000187
1209	1.2020e+02	-8.1399	-30.803346	0.000335	3.345440	1.133466	-0.000134
1210	1.2030e+02	-8.1655	-30.948683	0.000365	3.649571	1.236508	-0.000146
1211	1.2039e+02	-8.2121	-31.130354	0.000456	4.561964	1.545635	-0.000183
1212	1.2049e+02	-8.2554	-31.243393	0.000284	2.838555	0.961729	-0.000114
1213	1.2059e+02	-8.2907	-31.368545	0.000314	3.142686	1.064771	-0.000126
1214	1.2069e+02	-8.3372	-31.469473	0.000253	2.534425	0.858686	-0.000101
1215	1.2079e+02	-8.3677	-31.618847	0.000375	3.750948	1.270856	-0.000150
1216	1.2089e+02	-8.4126	-31.780333	0.000406	4.055079	1.373898	-0.000162
1217	1.2099e+02	-8.4447	-31.929707	0.000375	3.750948	1.270856	-0.000150
1218	1.2109e+02	-8.4944	-32.087155	0.000395	3.953702	1.339551	-0.000158
1219	1.2119e+02	-8.5265	-32.200195	0.000284	2.838555	0.961729	-0.000114
1220	1.2129e+02	-8.5730	-32.369754	0.000426	4.257833	1.442593	-0.000170
1221	1.2139e+02	-8.6147	-32.494906	0.000314	3.142686	1.064771	-0.000126
1222	1.2149e+02	-8.6516	-32.660428	0.000416	4.156456	1.408246	-0.000166
1223	1.2159e+02	-8.6901	-32.789616	0.000324	3.244063	1.099118	-0.000130
1224	1.2169e+02	-8.7383	-32.902656	0.000284	2.838555	0.961729	-0.000114
1225	1.2179e+02	-8.7735	-33.060105	0.000395	3.953702	1.339551	-0.000158
1226	1.2189e+02	-8.8056	-33.205441	0.000365	3.649571	1.236508	-0.000146
1227	1.2199e+02	-8.8538	-33.346741	0.000355	3.548194	1.202161	-0.000142
1228	1.2209e+02	-8.8907	-33.479967	0.000335	3.345440	1.133466	-0.000134
1229	1.2219e+02	-8.9227	-33.641452	0.000406	4.055079	1.373898	-0.000162
1230	1.2229e+02	-8.9709	-33.750455	0.000274	2.737179	0.927381	-0.000110
1231	1.2239e+02	-9.0078	-33.907903	0.000395	3.953702	1.339551	-0.000158
1232	1.2248e+02	-9.0527	-34.029017	0.000304	3.041309	1.030424	-0.000122
1233	1.2258e+02	-9.0896	-34.234911	0.000517	5.170226	1.751720	-0.000207
1234	1.2268e+02	-9.1313	-34.311617	0.000193	1.926163	0.652602	-0.000077
1235	1.2278e+02	-9.1714	-34.477139	0.000416	4.156456	1.408246	-0.000166
1236	1.2288e+02	-9.2179	-34.606328	0.000324	3.244063	1.099118	-0.000130
1237	1.2298e+02	-9.2468	-34.763776	0.000395	3.953702	1.339551	-0.000158
1238	1.2308e+02	-9.2885	-34.864704	0.000253	2.534425	0.858686	-0.000101
1239	1.2318e+02	-9.3302	-35.006004	0.000355	3.548194	1.202161	-0.000142
1240	1.2328e+02	-9.3623	-35.147304	0.000355	3.548194	1.202161	-0.000142
1241	1.2338e+02	-9.4104	-35.288603	0.000355	3.548194	1.202161	-0.000142
1242	1.2348e+02	-9.4473	-35.413755	0.000314	3.142686	1.064771	-0.000126
1243	1.2358e+02	-9.4842	-35.567166	0.000385	3.852325	1.305203	-0.000154
1244	1.2368e+02	-9.5275	-35.680206	0.000284	2.838555	0.961729	-0.000114
1245	1.2378e+02	-9.5741	-35.837654	0.000395	3.953702	1.339551	-0.000158
1246	1.2388e+02	-9.6142	-35.982991	0.000365	3.649571	1.236508	-0.000146
1247	1.2398e+02	-9.6591	-36.128328	0.000365	3.649571	1.236508	-0.000146
1248	1.2408e+02	-9.6735	-36.257516	0.000324	3.244063	1.099118	-0.000130
1249	1.2418e+02	-9.7265	-36.402853	0.000365	3.649571	1.236508	-0.000146
1250	1.2428e+02	-9.7682	-36.519930	0.000294	2.939932	0.996076	-0.000118
1251	1.2438e+02	-9.8019	-36.673341	0.000385	3.852325	1.305203	-0.000154
1252	1.2447e+02	-9.8420	-36.774269	0.000253	2.534425	0.858686	-0.000101
1253	1.2457e+02	-9.8837	-36.935755	0.000406	4.055079	1.373898	-0.000162
1254	1.2467e+02	-9.9222	-37.085129	0.000375	3.750948	1.270856	-0.000150
1255	1.2477e+02	-9.9559	-37.246614	0.000406	4.055079	1.373898	-0.000162
1256	1.2487e+02	-9.9960	-37.343506	0.000243	2.433048	0.824339	-0.000097
1257	1.2497e+02	-10.0505	-37.448471	0.000264	2.635802	0.893034	-0.000105
1258	1.2507e+02	-10.0810	-37.658402	0.000527	5.271603	1.786067	-0.000211
1259	1.2517e+02	-10.1259	-37.807776	0.000375	3.750948	1.270856	-0.000150
1260	1.2527e+02	-10.1708	-37.924853	0.000294	2.939932	0.996076	-0.000118
1261	1.2537e+02	-10.1997	-38.021744	0.000243	2.433048	0.824339	-0.000097
1262	1.2547e+02	-10.2430	-38.150933	0.000324	3.244063	1.099118	-0.000130
1263	1.2557e+02	-10.2879	-38.296270	0.000365	3.649571	1.236508	-0.000146
1264	1.2567e+02	-10.3264	-38.449681	0.000385	3.852325	1.305203	-0.000154
1265	1.2577e+02	-10.3585	-38.595018	0.000365	3.649571	1.236508	-0.000146
1266	1.2587e+02	-10.4051	-38.683835	0.000223	2.230294	0.755644	-0.000089
1267	1.2597e+02	-10.4387	-38.841283	0.000395	3.953702	1.339551	-0.000158
1268	1.2607e+02	-10.4853	-38.978546	0.000345	3.446817	1.167813	-0.000138
1269	1.2617e+02	-10.5174	-39.152142	0.000436	4.359210	1.476940	-0.000174
1270	1.2627e+02	-10.5607	-39.249034	0.000243	2.433048	0.824339	-0.000097
1271	1.2636e+02	-10.6152	-39.394371	0.000365	3.649571	1.236508	-0.000146
1272	1.2646e+02	-10.6553	-39.519522	0.000314	3.142686	1.064771	-0.000126
1273	1.2656e+02	-10.6826	-39.664859	0.000365	3.649571	1.236508	-0.000146
1274	1.2666e+02	-10.7163	-39.806158	0.000355	3.548194	1.202161	-0.000142
1275	1.2676e+02	-10.7660	-39.907087	0.000253	2.534425	0.858686	-0.000101
1276	1.2686e+02	-10.7997	-40.064535	0.000395	3.953702	1.339551	-0.000158
1277	1.2696e+02	-10.8398	-40.230058	0.000416	4.156456	1.408246	-0.000166
1278	1.2706e+02	-10.8847	-40.318875	0.000223	2.230294	0.755644	-0.000089
1279	1.2716e+02	-10.9232	-40.427877	0.000274	2.737179	0.927381	-0.000110
1280	1.2726e+02	-10.9553	-40.565140	0.000345	3.446817	1.167813	-0.000138
1281	1.2736e+02	-11.0034	-40.730662	0.000416	4.156456	1.408246	-0.000166
1282	1.2746e+02	-11.0516	-40.855814	0.000314	3.142686	1.064771	-0.000126
1283	1.2756e+02	-11.0885	-40.964816	0.000274	2.737179	0.927381	-0.000110
1284	1.2766e+02	-11.1270	-41.081893	0.000294	2.939932	0.996076	-0.000118
1285	1.2776e+02	-11.1590	-41.190896	0.000274	2.737179	0.927381	-0.000110
1286	1.2786e+02	-11.2088	-41.392753	0.000507	5.068849	1.717373	-0.000203
1287	1.2796e+02	-11.2344	-41.485607	0.000233	2.331671	0.789991	-0.000093
1288	1.2806e+02	-11.2794	-41.594610	0.000274	2.737179	0.927381	-0.000110
1289	1.2816e+02	-11.3227	-41.784355	0.000476	4.764718	1.614330	-0.000191
1290	1.2826e+02	-11.3596	-41.865098	0.000203	2.027540	0.686949	-0.000081
1291	1.2835e+02	-11.3965	-41.990249	0.000314	3.142686	1.064771	-0.000126
1292	1.2845e+02	-11.4366	-42.127511	0.000345	3.446817	1.167813	-0.000138
1293	1.2855e+02	-11.4815	-42.280923	0.000385	3.852325	1.305203	-0.000154
1294	1.2865e+02	-11.5168	-42.414148	0.000335	3.345440	1.133466	-0.000134
1295	1.2875e+02	-11.5681	-42.478742	0.000162	1.622032	0.549559	-0.000065
1296	1.2885e+02	-11.6018	-42.664450	0.000466	4.663341	1.579983	-0.000187
1297	1.2895e+02	-11.6483	-42.753267	0.000223	2.230294	0.755644	-0.000089
1298	1.2905e+02	-11.6724	-42.870344	0.000294	2.939932	0.996076	-0.000118
1299	1.2915e+02	-11.7285	-43.015681	0.000365	3.649571	1.236508	-0.000146
1300	1.2925e+02	-11.7574	-43.132758	0.000294	2.939932	0.996076	-0.000118
1301	1.2935e+02	-11.7959	-43.302318	0.000426	4.257833	1.442593	-0.000170
1302	1.2945e+02	-11.8424	-43.427469	0.000314	3.142686	1.064771	-0.000126
1303	1.2955e+02	-11.8777	-43.516286	0.000223	2.230294	0.755644	-0.000089
1304	1.2965e+02	-11.9146	-43.681809	0.000416	4.156456	1.408246	-0.000166
1305	1.2975e+02	-11.9628	-43.750440	0.000172	1.723409	0.583907	-0.000069
1306	1.2985e+02	-11.9965	-43.867517	0.000294	2.939932	0.996076	-0.000118
1307	1.2995e+02	-12.0398	-44.041114	0.000436	4.359210	1.476940	-0.000174
1308	1.3005e+02	-12.0767	-44.138005	0.000243	2.433048	0.824339	-0.000097
1309	1.3015e+02	-12.1200	-44.259119	0.000304	3.041309	1.030424	-0.000122
1310	1.3025e+02	-12.1649	-44.424642	0.000416	4.156456	1.408246	-0.000166
1311	1.3034e+02	-12.2050	-44.517496	0.000233	2.331671	0.789991	-0.000093
1312	1.3044e+02	-12.2323	-44.634573	0.000294	2.939932	0.996076	-0.000118
1313	1.3054e+02	-12.2836	-44.767798	0.000335	3.345440	1.133466	-0.000134
1314	1.3064e+02	-12.3125	-44.848541	0.000203	2.027540	0.686949	-0.000081
1315	1.3074e+02	-12.3526	-45.054435	0.000517	5.170226	1.751720	-0.000207
1316	1.3084e+02	-12.3895	-45.131140	0.000193	1.926163	0.652602	-0.000077
1317	1.3094e+02	-12.4344	-45.264366	0.000335	3.345440	1.133466	-0.000134
1318	1.3104e+02	-12.4793	-45.365294	0.000253	2.534425	0.858686	-0.000101
1319	1.3114e+02	-12.5178	-45.522743	0.000395	3.953702	1.339551	-0.000158
1320	1.3124e+02	-12.5563	-45.571188	0.000122	1.216524	0.412169	-0.000049
1321	1.3134e+02	-12.5964	-45.724599	0.000385	3.852325	1.305203	-0.000154
1322	1.3144e+02	-12.6317	-45.817453	0.000233	2.331671	0.789991	-0.000093
1323	1.3154e+02	-12.6734	-45.982976	0.000416	4.156456	1.408246	-0.000166
1324	1.3164e+02	-12.7087	-46.120239	0.000345	3.446817	1.167813	-0.000138
1325	1.3174e+02	-12.7569	-46.237316	0.000294	2.939932	0.996076	-0.000118
1326	1.3184e+02	-12.7938	-46.358430	0.000304	3.041309	1.030424	-0.000122
1327	1.3194e+02	-12.8290	-46.479544	0.000304	3.041309	1.030424	-0.000122
1328	1.3204e+02	-12.8788	-46.576435	0.000243	2.433048	0.824339	-0.000097
1329	1.3214e+02	-12.9077	-46.705623	0.000324	3.244063	1.099118	-0.000130
1330	1.3224e+02	-12.9590	-46.806552	0.000253	2.534425	0.858686	-0.000101
1331	1.3234e+02	-12.9927	-46.959963	0.000385	3.852325	1.305203	-0.000154
1332	1.3243e+02	-13.0312	-47.056854	0.000243	2.433048	0.824339	-0.000097
1333	1.3253e+02	-13.0745	-47.153745	0.000243	2.433048	0.824339	-0.000097
1334	1.3263e+02	-13.1130	-47.315231	0.000406	4.055079	1.373898	-0.000162
1335	1.3273e+02	-13.1435	-47.440382	0.000314	3.142686	1.064771	-0.000126
1336	1.3283e+02	-13.1948	-47.529199	0.000223	2.230294	0.755644	-0.000089
1337	1.3293e+02	-13.2429	-47.654350	0.000314	3.142686	1.064771	-0.000126
1338	1.3303e+02	-13.2718	-47.775464	0.000304	3.041309	1.030424	-0.000122
1339	1.3313e+02	-13.3232	-47.908690	0.000335	3.345440	1.133466	-0.000134
1340	1.3323e+02	-13.3504	-48.009618	0.000253	2.534425	0.858686	-0.000101
1341	1.3333e+02	-13.3905	-48.142844	0.000335	3.345440	1.133466	-0.000134
1342	1.3343e+02	-13.4274	-48.239735	0.000243	2.433048	0.824339	-0.000097
1343	1.3353e+02	-13.4707	-48.356812	0.000294	2.939932	0.996076	-0.000118
1344	1.3363e+02	-13.5092	-48.490037	0.000335	3.345440	1.133466	-0.000134
1345	1.3373e+02	-13.5558	-48.586929	0.000243	2.433048	0.824339	-0.000097
1346	1.3383e+02	-13.5879	-48.724191	0.000345	3.446817	1.167813	-0.000138
1347	1.3393e+02	-13.6280	-48.833194	0.000274	2.737179	0.927381	-0.000110
1348	1.3403e+02	-13.6616	-48.934122	0.000253	2.534425	0.858686	-0.000101
1349	1.3413e+02	-13.7082	-49.022939	0.000223	2.230294	0.755644	-0.000089
1350	1.3423e+02	-13.7515	-49.144053	0.000304	3.041309	1.030424	-0.000122
1351	1.3432e+02	-13.7900	-49.249019	0.000264	2.635802	0.893034	-0.000105
1352	1.3442e+02	-13.8269	-49.430690	0.000456	4.561964	1.545635	-0.000183
1353	1.3452e+02	-13.8686	-49.495284	0.000162	1.622032	0.549559	-0.000065
1354	1.3462e+02	-13.9119	-49.608324	0.000284	2.838555	0.961729	-0.000114
1355	1.3472e+02	-13.9520	-49.757698	0.000375	3.750948	1.270856	-0.000150
1356	1.3482e+02	-13.9921	-49.854589	0.000243	2.433048	0.824339	-0.000097
1357	1.3492e+02	-14.0226	-50.020112	0.000416	4.156456	1.408246	-0.000166
1358	1.3502e+02	-14.0611	-50.084706	0.000162	1.622032	0.549559	-0.000065
1359	1.3512e+02	-14.0980	-50.209857	0.000314	3.142686	1.064771	-0.000126
1360	1.3522e+02	-14.1445	-50.351157	0.000355	3.548194	1.202161	-0.000142
1361	1.3532e+02	-14.1975	-50.435937	0.000213	2.128917	0.721296	-0.000085
1362	1.3542e+02	-14.2311	-50.573199	0.000345	3.446817	1.167813	-0.000138
1363	1.3552e+02	-14.2729	-50.657979	0.000213	2.128917	0.721296	-0.000085
1364	1.3562e+02	-14.3049	-50.787168	0.000324	3.244063	1.099118	-0.000130
1365	1.3572e+02	-14.3547	-50.948653	0.000406	4.055079	1.373898	-0.000162
1366	1.3582e+02	-14.3900	-51.041507	0.000233	2.331671	0.789991	-0.000093
1367	1.3592e+02	-14.4285	-51.134361	0.000233	2.331671	0.789991	-0.000093
1368	1.3602e+02	-14.4734	-51.263550	0.000324	3.244063	1.099118	-0.000130
1369	1.3612e+02	-14.5039	-51.376589	0.000284	2.838555	0.961729	-0.000114
1370	1.3622e+02	-14.5472	-51.501741	0.000314	3.142686	1.064771	-0.000126
1371	1.3631e+02	-14.5841	-51.618818	0.000294	2.939932	0.996076	-0.000118
1372	1.3641e+02	-14.6162	-51.723783	0.000264	2.635802	0.893034	-0.000105
1373	1.3651e+02	-14.6691	-51.840860	0.000294	2.939932	0.996076	-0.000118
1374	1.3661e+02	-14.7044	-52.026568	0.000466	4.663341	1.579983	-0.000187
1375	1.3671e+02	-14.7445	-52.095200	0.000172	1.723409	0.583907	-0.000069
1376	1.3681e+02	-14.7862	-52.200165	0.000264	2.635802	0.893034	-0.000105
1377	1.3691e+02	-14.8295	-52.325316	0.000314	3.142686	1.064771	-0.000126
1378	1.3701e+02	-14.8680	-52.430282	0.000264	2.635802	0.893034	-0.000105
1379	1.3711e+02	-14.9081	-52.555433	0.000314	3.142686	1.064771	-0.000126
1380	1.3721e+02	-14.9466	-52.708844	0.000385	3.852325	1.305203	-0.000154
1381	1.3731e+02	-14.9835	-52.797661	0.000223	2.230294	0.755644	-0.000089
1382	1.3741e+02	-15.0268	-52.922812	0.000314	3.142686	1.064771	-0.000126
1383	1.3751e+02	-15.0557	-53.019704	0.000243	2.433048	0.824339	-0.000097
1384	1.3761e+02	-15.1071	-53.112558	0.000233	2.331671	0.789991	-0.000093
1385	1.3771e+02	-15.1407	-53.274043	0.000406	4.055079	1.373898	-0.000162
1386	1.3781e+02	-15.1841	-53.387083	0.000284	2.838555	0.961729	-0.000114
1387	1.3791e+02	-15.2322	-53.488011	0.000253	2.534425	0.858686	-0.000101
1388	1.3801e+02	-15.2627	-53.605088	0.000294	2.939932	0.996076	-0.000118
1389	1.3811e+02	-15.3076	-53.714091	0.000274	2.737179	0.927381	-0.000110
1390	1.3821e+02	-15.3381	-53.883651	0.000426	4.257833	1.442593	-0.000170
1391	1.3831e+02	-15.3798	-53.940171	0.000142	1.419278	0.480864	-0.000057
1392	1.3840e+02	-15.4231	-54.097619	0.000395	3.953702	1.339551	-0.000158
1393	1.3850e+02	-15.4616	-54.202584	0.000264	2.635802	0.893034	-0.000105
1394	1.3860e+02	-15.5033	-54.331773	0.000324	3.244063	1.099118	-0.000130
1395	1.3870e+02	-15.5514	-54.420590	0.000223	2.230294	0.755644	-0.000089
1396	1.3880e+02	-15.5883	-54.565927	0.000365	3.649571	1.236508	-0.000146
1397	1.3890e+02	-15.6140	-54.670892	0.000264	2.635802	0.893034	-0.000105
1398	1.3900e+02	-15.6653	-54.812192	0.000355	3.548194	1.202161	-0.000142
1399	1.3910e+02	-15.7054	-54.929269	0.000294	2.939932	0.996076	-0.000118
1400	1.3920e+02	-15.7471	-55.022123	0.000233	2.331671	0.789991	-0.000093
1401	1.3930e+02	-15.7776	-55.163423	0.000355	3.548194	1.202161	-0.000142
1402	1.3940e+02	-15.8209	-55.300685	0.000345	3.446817	1.167813	-0.000138
1403	1.3950e+02	-15.8594	-55.417762	0.000294	2.939932	0.996076	-0.000118
1404	1.3960e+02	-15.8947	-55.530802	0.000284	2.838555	0.961729	-0.000114
1405	1.3970e+02	-15.9477	-55.668065	0.000345	3.446817	1.167813	-0.000138
1406	1.3980e+02	-15.9830	-55.728622	0.000152	1.520655	0.515212	-0.000061
1407	1.3990e+02	-16.0247	-55.877996	0.000375	3.750948	1.270856	-0.000150
1408	1.4000e+02	-16.0680	-56.011221	0.000335	3.345440	1.133466	-0.000134
1409	1.4010e+02	-16.0937	-56.108112	0.000243	2.433048	0.824339	-0.000097
1410	1.4020e+02	-16.1338	-56.221152	0.000284	2.838555	0.961729	-0.000114
1411	1.4029e+02	-16.1851	-56.382638	0.000406	4.055079	1.373898	-0.000162
1412	1.4039e+02	-16.2236	-56.451269	0.000172	1.723409	0.583907	-0.000069
1413	1.4049e+02	-16.2669	-56.592569	0.000355	3.548194	1.202161	-0.000142
1414	1.4059e+02	-16.3054	-56.697534	0.000264	2.635802	0.893034	-0.000105
1415	1.4069e+02	-16.3423	-56.810574	0.000284	2.838555	0.961729	-0.000114
1416	1.4079e+02	-16.3760	-56.931688	0.000304	3.041309	1.030424	-0.000122
1417	1.4089e+02	-16.4209	-57.052802	0.000304	3.041309	1.030424	-0.000122
1418	1.4099e+02	-16.4707	-57.177953	0.000314	3.142686	1.064771	-0.000126
1419	1.4109e+02	-16.4995	-57.315216	0.000345	3.446817	1.167813	-0.000138
1420	1.4119e+02	-16.5445	-57.464590	0.000375	3.750948	1.270856	-0.000150
1421	1.4129e+02	-16.5765	-57.545333	0.000203	2.027540	0.686949	-0.000081
1422	1.4139e+02	-16.6166	-57.658373	0.000284	2.838555	0.961729	-0.000114
1423	1.4149e+02	-16.6551	-57.811784	0.000385	3.852325	1.305203	-0.000154
1424	1.4159e+02	-16.7065	-57.896564	0.000213	2.128917	0.721296	-0.000085
1425	1.4169e+02	-16.7418	-58.013641	0.000294	2.939932	0.996076	-0.000118
1426	1.4179e+02	-16.7771	-58.171089	0.000395	3.953702	1.339551	-0.000158
1427	1.4189e+02	-16.8252	-58.263943	0.000233	2.331671	0.789991	-0.000093
1428	1.4199e+02	-16.8637	-58.368909	0.000264	2.635802	0.893034	-0.000105
1429	1.4209e+02	-16.8926	-58.518283	0.000375	3.750948	1.270856	-0.000150
1430	1.4219e+02	-16.9311	-58.594988	0.000193	1.926163	0.652602	-0.000077
1431	1.4228e+02	-16.9776	-58.748399	0.000385	3.852325	1.305203	-0.000154
1432	1.4238e+02	-17.0225	-58.857402	0.000274	2.737179	0.927381	-0.000110
1433	1.4248e+02	-17.0610	-59.010813	0.000385	3.852325	1.305203	-0.000154
1434	1.4258e+02	-17.0995	-59.152113	0.000355	3.548194	1.202161	-0.000142
1435	1.4268e+02	-17.1412	-59.257078	0.000264	2.635802	0.893034	-0.000105
1436	1.4278e+02	-17.1829	-59.366081	0.000274	2.737179	0.927381	-0.000110
1437	1.4288e+02	-17.2166	-59.507381	0.000355	3.548194	1.202161	-0.000142
1438	1.4298e+02	-17.2631	-59.604272	0.000243	2.433048	0.824339	-0.000097
1439	1.4308e+02	-17.3000	-59.785943	0.000456	4.561964	1.545635	-0.000183
1440	1.4318e+02	-17.3385	-59.854574	0.000172	1.723409	0.583907	-0.000069
1441	1.4328e+02	-17.3787	-59.971651	0.000294	2.939932	0.996076	-0.000118
1442	1.4338e+02	-17.4220	-60.088728	0.000294	2.939932	0.996076	-0.000118
1443	1.4348e+02	-17.4492	-60.234065	0.000365	3.649571	1.236508	-0.000146
1444	1.4358e+02	-17.4910	-60.339031	0.000264	2.635802	0.893034	-0.000105
1445	1.4368e+02	-17.5439	-60.480330	0.000355	3.548194	1.202161	-0.000142
1446	1.4378e+02	-17.5696	-60.577222	0.000243	2.433048	0.824339	-0.000097
1447	1.4388e+02	-17.6193	-60.754856	0.000446	4.460587	1.511288	-0.000179
1448	1.4398e+02	-17.6530	-60.843673	0.000223	2.230294	0.755644	-0.000089
1449	1.4408e+02	-17.6915	-60.948638	0.000264	2.635802	0.893034	-0.000105
1450	1.4418e+02	-17.7396	-61.073789	0.000314	3.142686	1.064771	-0.000126
1451	1.4428e+02	-17.7797	-61.174718	0.000253	2.534425	0.858686	-0.000101
1452	1.4437e+02	-17.8150	-61.316018	0.000355	3.548194	1.202161	-0.000142
1453	1.4447e+02	-17.8551	-61.465392	0.000375	3.750948	1.270856	-0.000150
1454	1.4457e+02	-17.9000	-61.529986	0.000162	1.622032	0.549559	-0.000065
1455	1.4467e+02	-17.9337	-61.659174	0.000324	3.244063	1.099118	-0.000130
1456	1.4477e+02	-17.9706	-61.780288	0.000304	3.041309	1.030424	-0.000122
1457	1.4487e+02	-18.0171	-61.933699	0.000385	3.852325	1.305203	-0.000154
1458	1.4497e+02	-18.0508	-62.026553	0.000233	2.331671	0.789991	-0.000093
1459	1.4507e+02	-18.0941	-62.151705	0.000314	3.142686	1.064771	-0.000126
1460	1.4517e+02	-18.1230	-62.309153	0.000395	3.953702	1.339551	-0.000158
1461	1.4527e+02	-18.1760	-62.365673	0.000142	1.419278	0.480864	-0.000057
1462	1.4537e+02	-18.2193	-62.535233	0.000426	4.257833	1.442593	-0.000170
1463	1.4547e+02	-18.2514	-62.620012	0.000213	2.128917	0.721296	-0.000085
1464	1.4557e+02	-18.3011	-62.777461	0.000395	3.953702	1.339551	-0.000158
1465	1.4567e+02	-18.3348	-62.910686	0.000335	3.345440	1.133466	-0.000134
1466	1.4577e+02	-18.3733	-63.039875	0.000324	3.244063	1.099118	-0.000130
1467	1.4587e+02	-18.4214	-63.132729	0.000233	2.331671	0.789991	-0.000093
1468	1.4597e+02	-18.4471	-63.282103	0.000375	3.750948	1.270856	-0.000150
1469	1.4607e+02	-18.4936	-63.370920	0.000223	2.230294	0.755644	-0.000089
1470	1.4617e+02	-18.5305	-63.524331	0.000385	3.852325	1.305203	-0.000154
1471	1.4626e+02	-18.5834	-63.633334	0.000274	2.737179	0.927381	-0.000110
1472	1.4636e+02	-18.6107	-63.742336	0.000274	2.737179	0.927381	-0.000110
1473	1.4646e+02	-18.6604	-63.855376	0.000284	2.838555	0.961729	-0.000114
1474	1.4656e+02	-18.6973	-63.980527	0.000314	3.142686	1.064771	-0.000126
1475	1.4666e+02	-18.7214	-64.150087	0.000426	4.257833	1.442593	-0.000170
1476	1.4676e+02	-18.7631	-64.242941	0.000233	2.331671	0.789991	-0.000093
1477	1.4686e+02	-18.8177	-64.343869	0.000253	2.534425	0.858686	-0.000101
1478	1.4696e+02	-18.8545	-64.444798	0.000253	2.534425	0.858686	-0.000101
1479	1.4706e+02	-18.8914	-64.630506	0.000466	4.663341	1.579983	-0.000187
1480	1.4716e+02	-18.9267	-64.775843	0.000365	3.649571	1.236508	-0.000146
1481	1.4726e+02	-18.9684	-64.900994	0.000314	3.142686	1.064771	-0.000126
1482	1.4736e+02	-19.0166	-65.042294	0.000355	3.548194	1.202161	-0.000142
1483	1.4746e+02	-19.0438	-65.127074	0.000213	2.128917	0.721296	-0.000085
1484	1.4756e+02	-19.0904	-65.264336	0.000345	3.446817	1.167813	-0.000138
1485	1.4766e+02	-19.1337	-65.345079	0.000203	2.027540	0.686949	-0.000081
1486	1.4776e+02	-19.1674	-65.538862	0.000487	4.866095	1.648678	-0.000195
1487	1.4786e+02	-19.2155	-65.619604	0.000203	2.027540	0.686949	-0.000081
1488	1.4796e+02	-19.2556	-65.777053	0.000395	3.953702	1.339551	-0.000158
1489	1.4806e+02	-19.2877	-65.902204	0.000314	3.142686	1.064771	-0.000126
1490	1.4816e+02	-19.3342	-65.999095	0.000243	2.433048	0.824339	-0.000097
1491	1.4825e+02	-19.3727	-66.180766	0.000456	4.561964	1.545635	-0.000183
1492	1.4835e+02	-19.4064	-66.249397	0.000172	1.723409	0.583907	-0.000069
1493	1.4845e+02	-19.4529	-66.406846	0.000395	3.953702	1.339551	-0.000158
1494	1.4855e+02	-19.4866	-66.536034	0.000324	3.244063	1.099118	-0.000130
1495	1.4865e+02	-19.5315	-66.641000	0.000264	2.635802	0.893034	-0.000105
1496	1.4875e+02	-19.5732	-66.762114	0.000304	3.041309	1.030424	-0.000122
1497	1.4885e+02	-19.6230	-66.923599	0.000406	4.055079	1.373898	-0.000162
1498	1.4895e+02	-19.6422	-67.028565	0.000264	2.635802	0.893034	-0.000105
1499	1.4905e+02	-19.6871	-67.173902	0.000365	3.649571	1.236508	-0.000146
1500	1.4915e+02	-19.7289	-67.286941	0.000284	2.838555	0.961729	-0.000114
1501	1.4925e+02	-19.7674	-67.456501	0.000426	4.257833	1.442593	-0.000170
1502	1.4935e+02	-19.8107	-67.557429	0.000253	2.534425	0.858686	-0.000101
1503	1.4945e+02	-19.8412	-67.698729	0.000355	3.548194	1.202161	-0.000142
1504	1.4955e+02	-19.8845	-67.835992	0.000345	3.446817	1.167813	-0.000138
1505	1.4965e+02	-19.9149	-67.977292	0.000355	3.548194	1.202161	-0.000142
1506	1.4975e+02	-19.9743	-68.090331	0.000284	2.838555	0.961729	-0.000114
1507	1.4985e+02	-20.0016	-68.211445	0.000304	3.041309	1.030424	-0.000122
1508	1.4995e+02	-19.9647	-68.191260	0.000051	0.506885	0.171737	0.000020
1509	1.5005e+02	-19.9246	-68.146851	0.000112	1.115147	0.377822	0.000045
1510	1.5015e+02	-19.8861	-68.094368	0.000132	1.317901	0.446517	0.000053
1511	1.5025e+02	-19.8428	-68.037849	0.000142	1.419278	0.480864	0.000057
1512	1.5034e+02	-19.8043	-67.961143	0.000193	1.926163	0.652602	0.000077
1513	1.5044e+02	-19.7609	-67.969217	-0.000020	-0.202754	-0.068695	-0.000008
1514	1.5054e+02	-19.7256	-67.880400	0.000223	2.230294	0.755644	0.000089
1515	1.5064e+02	-19.6807	-67.823880	0.000142	1.419278	0.480864	0.000057
1516	1.5074e+02	-19.6422	-67.771398	0.000132	1.317901	0.446517	0.000053
1517	1.5084e+02	-19.6037	-67.682581	0.000223	2.230294	0.755644	0.000089
1518	1.5094e+02	-19.5636	-67.630098	0.000132	1.317901	0.446517	0.000053
1519	1.5104e+02	-19.5299	-67.593764	0.000091	0.912393	0.309127	0.000037
1520	1.5114e+02	-19.4850	-67.521095	0.000182	1.824786	0.618254	0.000073
1521	1.5124e+02	-19.4497	-67.480724	0.000101	1.013770	0.343475	0.000041
1522	1.5134e+02	-19.4064	-67.387870	0.000233	2.331671	0.789991	0.000093
1523	1.5144e+02	-19.3711	-67.359610	0.000071	0.709639	0.240432	0.000028
1524	1.5154e+02	-19.3278	-67.246570	0.000284	2.838555	0.961729	0.000114
1525	1.5164e+02	-19.2829	-67.181976	0.000162	1.622032	0.549559	0.000065
1526	1.5174e+02	-19.2508	-67.121419	0.000152	1.520655	0.515212	0.000061
1527	1.5184e+02	-19.1995	-67.064899	0.000142	1.419278	0.480864	0.000057
1528	1.5194e+02	-19.1738	-66.943785	0.000304	3.041309	1.030424	0.000122
1529	1.5204e+02	-19.1337	-66.907451	0.000091	0.912393	0.309127	0.000037
1530	1.5214e+02	-19.0872	-66.830745	0.000193	1.926163	0.652602	0.000077
1531	1.5224e+02	-19.0503	-66.741928	0.000223	2.230294	0.755644	0.000089
1532	1.5233e+02	-19.0150	-66.677334	0.000162	1.622032	0.549559	0.000065
1533	1.5243e+02	-18.9684	-66.600628	0.000193	1.926163	0.652602	0.000077
1534	1.5253e+02	-18.9316	-66.531997	0.000172	1.723409	0.583907	0.000069
1535	1.5263e+02	-18.8882	-66.435106	0.000243	2.433048	0.824339	0.000097
1536	1.5273e+02	-18.8545	-66.394734	0.000101	1.013770	0.343475	0.000041
1537	1.5283e+02	-18.8177	-66.297843	0.000243	2.433048	0.824339	0.000097
1538	1.5293e+02	-18.7743	-66.245360	0.000132	1.317901	0.446517	0.000053
1539	1.5303e+02	-18.7246	-66.140395	0.000264	2.635802	0.893034	0.000105
1540	1.5313e+02	-18.6973	-66.051578	0.000223	2.230294	0.755644	0.000089
1541	1.5323e+02	-18.6460	-66.023318	0.000071	0.709639	0.240432	0.000028
1542	1.5333e+02	-18.6187	-65.938538	0.000213	2.128917	0.721296	0.000085
1543	1.5343e+02	-18.5722	-65.890092	0.000122	1.216524	0.412169	0.000049
1544	1.5353e+02	-18.5321	-65.756867	0.000335	3.345440	1.133466	0.000134
1545	1.5363e+02	-18.4936	-65.708421	0.000122	1.216524	0.412169	0.000049
1546	1.5373e+02	-18.4503	-65.607493	0.000253	2.534425	0.858686	0.000101
1547	1.5383e+02	-18.4102	-65.555010	0.000132	1.317901	0.446517	0.000053
1548	1.5393e+02	-18.3781	-65.458119	0.000243	2.433048	0.824339	0.000097
1549	1.5403e+02	-18.3348	-65.361228	0.000243	2.433048	0.824339	0.000097
1550	1.5413e+02	-18.2915	-65.316819	0.000112	1.115147	0.377822	0.000045
1551	1.5422e+02	-18.2530	-65.232039	0.000213	2.128917	0.721296	0.000085
1552	1.5432e+02	-18.2145	-65.163408	0.000172	1.723409	0.583907	0.000069
1553	1.5442e+02	-18.1808	-65.118999	0.000112	1.115147	0.377822	0.000045
1554	1.5452e+02	-18.1262	-64.989811	0.000324	3.244063	1.099118	0.000130
1555	1.5462e+02	-18.0990	-64.876771	0.000284	2.838555	0.961729	0.000114
1556	1.5472e+02	-18.0524	-64.844474	0.000081	0.811016	0.274780	0.000032
1557	1.5482e+02	-18.0027	-64.703174	0.000355	3.548194	1.202161	0.000142
1558	1.5492e+02	-17.9786	-64.654729	0.000122	1.216524	0.412169	0.000049
1559	1.5502e+02	-17.9305	-64.594172	0.000152	1.520655	0.515212	0.000061
1560	1.5512e+02	-17.8920	-64.464983	0.000324	3.244063	1.099118	0.000130
1561	1.5522e+02	-17.8567	-64.404426	0.000152	1.520655	0.515212	0.000061
1562	1.5532e+02	-17.8182	-64.323684	0.000203	2.027540	0.686949	0.000081
1563	1.5542e+02	-17.7717	-64.226792	0.000243	2.433048	0.824339	0.000097
1564	1.5552e+02	-17.7348	-64.154124	0.000182	1.824786	0.618254	0.000073
1565	1.5562e+02	-17.7027	-64.073381	0.000203	2.027540	0.686949	0.000081
1566	1.5572e+02	-17.6514	-64.004750	0.000172	1.723409	0.583907	0.000069
1567	1.5582e+02	-17.6209	-63.915933	0.000223	2.230294	0.755644	0.000089
1568	1.5592e+02	-17.5744	-63.827116	0.000223	2.230294	0.755644	0.000089
1569	1.5602e+02	-17.5343	-63.770596	0.000142	1.419278	0.480864	0.000057
1570	1.5612e+02	-17.4893	-63.665631	0.000264	2.635802	0.893034	0.000105
1571	1.5622e+02	-17.4541	-63.572776	0.000233	2.331671	0.789991	0.000093
1572	1.5631e+02	-17.4139	-63.500108	0.000182	1.824786	0.618254	0.000073
1573	1.5641e+02	-17.3819	-63.358808	0.000355	3.548194	1.202161	0.000142
1574	1.5651e+02	-17.3385	-63.302288	0.000142	1.419278	0.480864	0.000057
1575	1.5661e+02	-17.2984	-63.229620	0.000182	1.824786	0.618254	0.000073
1576	1.5671e+02	-17.2455	-63.128692	0.000253	2.534425	0.858686	0.000101
1577	1.5681e+02	-17.2182	-63.076209	0.000132	1.317901	0.446517	0.000053
1578	1.5691e+02	-17.1717	-62.963169	0.000284	2.838555	0.961729	0.000114
1579	1.5701e+02	-17.1412	-62.878389	0.000213	2.128917	0.721296	0.000085
1580	1.5711e+02	-17.0995	-62.781498	0.000243	2.433048	0.824339	0.000097
1581	1.5721e+02	-17.0562	-62.712867	0.000172	1.723409	0.583907	0.000069
1582	1.5731e+02	-17.0193	-62.607901	0.000264	2.635802	0.893034	0.000105
1583	1.5741e+02	-16.9728	-62.506973	0.000253	2.534425	0.858686	0.000101
1584	1.5751e+02	-16.9375	-62.410081	0.000243	2.433048	0.824339	0.000097
1585	1.5761e+02	-16.8974	-62.385859	0.000061	0.608262	0.206085	0.000024
1586	1.5771e+02	-16.8669	-62.268782	0.000294	2.939932	0.996076	0.000118
1587	1.5781e+02	-16.8124	-62.192076	0.000193	1.926163	0.652602	0.000077
1588	1.5791e+02	-16.7851	-62.087111	0.000264	2.635802	0.893034	0.000105
1589	1.5801e+02	-16.7402	-62.014442	0.000182	1.824786	0.618254	0.000073
1590	1.5811e+02	-16.6985	-61.941774	0.000182	1.824786	0.618254	0.000073
1591	1.5821e+02	-16.6648	-61.852957	0.000223	2.230294	0.755644	0.000089
1592	1.5830e+02	-16.6231	-61.780288	0.000182	1.824786	0.618254	0.000073
1593	1.5840e+02	-16.5830	-61.651100	0.000324	3.244063	1.099118	0.000130
1594	1.5850e+02	-16.5396	-61.554209	0.000243	2.433048	0.824339	0.000097
1595	1.5860e+02	-16.5043	-61.505763	0.000122	1.216524	0.412169	0.000049
1596	1.5870e+02	-16.4610	-61.429057	0.000193	1.926163	0.652602	0.000077
1597	1.5880e+02	-16.4241	-61.324092	0.000264	2.635802	0.893034	0.000105
1598	1.5890e+02	-16.3792	-61.227201	0.000243	2.433048	0.824339	0.000097
1599	1.5900e+02	-16.3391	-61.093975	0.000335	3.345440	1.133466	0.000134
1600	1.5910e+02	-16.3038	-61.045529	0.000122	1.216524	0.412169	0.000049
1601	1.5920e+02	-16.2701	-60.976898	0.000172	1.723409	0.583907	0.000069
1602	1.5930e+02	-16.2268	-60.871933	0.000264	2.635802	0.893034	0.000105
1603	1.5940e+02	-16.1755	-60.779079	0.000233	2.331671	0.789991	0.000093
1604	1.5950e+02	-16.1450	-60.674113	0.000264	2.635802	0.893034	0.000105
1605	1.5960e+02	-16.1017	-60.593370	0.000203	2.027540	0.686949	0.000081
1606	1.5970e+02	-16.0600	-60.524739	0.000172	1.723409	0.583907	0.000069
1607	1.5980e+02	-16.0295	-60.391514	0.000335	3.345440	1.133466	0.000134
1608	1.5990e+02	-15.9798	-60.355179	0.000091	0.912393	0.309127	0.000037
1609	1.6000e+02	-15.9429	-60.266362	0.000223	2.230294	0.755644	0.000089
1610	1.6010e+02	-15.9028	-60.141211	0.000314	3.142686	1.064771	0.000126
1611	1.6019e+02	-15.8675	-60.088728	0.000132	1.317901	0.446517	0.000053
1612	1.6029e+02	-15.8258	-59.967614	0.000304	3.041309	1.030424	0.000122
1613	1.6039e+02	-15.7808	-59.834389	0.000335	3.345440	1.133466	0.000134
1614	1.6049e+02	-15.7455	-59.761720	0.000182	1.824786	0.618254	0.000073
1615	1.6059e+02	-15.7022	-59.680978	0.000203	2.027540	0.686949	0.000081
1616	1.6069e+02	-15.6701	-59.559864	0.000304	3.041309	1.030424	0.000122
1617	1.6079e+02	-15.6268	-59.467009	0.000233	2.331671	0.789991	0.000093
1618	1.6089e+02	-15.5867	-59.410490	0.000142	1.419278	0.480864	0.000057
1619	1.6099e+02	-15.5530	-59.305524	0.000264	2.635802	0.893034	0.000105
1620	1.6109e+02	-15.5049	-59.168261	0.000345	3.446817	1.167813	0.000138
1621	1.6119e+02	-15.4664	-59.131927	0.000091	0.912393	0.309127	0.000037
1622	1.6129e+02	-15.4247	-59.051184	0.000203	2.027540	0.686949	0.000081
1623	1.6139e+02	-15.3862	-58.913922	0.000345	3.446817	1.167813	0.000138
1624	1.6149e+02	-15.3429	-58.821068	0.000233	2.331671	0.789991	0.000093
1625	1.6159e+02	-15.3044	-58.691879	0.000324	3.244063	1.099118	0.000130
1626	1.6169e+02	-15.2659	-58.623248	0.000172	1.723409	0.583907	0.000069
1627	1.6179e+02	-15.2226	-58.550580	0.000182	1.824786	0.618254	0.000073
1628	1.6189e+02	-15.1809	-58.429466	0.000304	3.041309	1.030424	0.000122
1629	1.6199e+02	-15.1456	-58.340649	0.000223	2.230294	0.755644	0.000089
1630	1.6209e+02	-15.0990	-58.239720	0.000253	2.534425	0.858686	0.000101
1631	1.6219e+02	-15.0686	-58.138792	0.000253	2.534425	0.858686	0.000101
1632	1.6228e+02	-15.0220	-58.045938	0.000233	2.331671	0.789991	0.000093
1633	1.6238e+02	-14.9819	-57.920786	0.000314	3.142686	1.064771	0.000126
1634	1.6248e+02	-14.9498	-57.836007	0.000213	2.128917	0.721296	0.000085
1635	1.6258e+02	-14.8937	-57.710855	0.000314	3.142686	1.064771	0.000126
1636	1.6268e+02	-14.8728	-57.634150	0.000193	1.926163	0.652602	0.000077
1637	1.6278e+02	-14.8263	-57.545333	0.000223	2.230294	0.755644	0.000089
1638	1.6288e+02	-14.7798	-57.424219	0.000304	3.041309	1.030424	0.000122
1639	1.6298e+02	-14.7381	-57.315216	0.000274	2.737179	0.927381	0.000110
1640	1.6308e+02	-14.7044	-57.238510	0.000193	1.926163	0.652602	0.000077
1641	1.6318e+02	-14.6739	-57.133545	0.000264	2.635802	0.893034	0.000105
1642	1.6328e+02	-14.6322	-57.008394	0.000314	3.142686	1.064771	0.000126
1643	1.6338e+02	-14.5809	-56.943800	0.000162	1.622032	0.549559	0.000065
1644	1.6348e+02	-14.5440	-56.854983	0.000223	2.230294	0.755644	0.000089
1645	1.6358e+02	-14.5119	-56.709646	0.000365	3.649571	1.236508	0.000146
1646	1.6368e+02	-14.4750	-56.620829	0.000223	2.230294	0.755644	0.000089
1647	1.6378e+02	-14.4237	-56.507789	0.000284	2.838555	0.961729	0.000114
1648	1.6388e+02	-14.3948	-56.427046	0.000203	2.027540	0.686949	0.000081
1649	1.6398e+02	-14.3531	-56.322081	0.000264	2.635802	0.893034	0.000105
1650	1.6408e+02	-14.3049	-56.209041	0.000284	2.838555	0.961729	0.000114
1651	1.6418e+02	-14.2648	-56.156558	0.000132	1.317901	0.446517	0.000053
1652	1.6427e+02	-14.2295	-55.986998	0.000426	4.257833	1.442593	0.000170
1653	1.6437e+02	-14.1830	-55.906256	0.000203	2.027540	0.686949	0.000081
1654	1.6447e+02	-14.1493	-55.813402	0.000233	2.331671	0.789991	0.000093
1655	1.6457e+02	-14.1092	-55.720547	0.000233	2.331671	0.789991	0.000093
1656	1.6467e+02	-14.0707	-55.563099	0.000395	3.953702	1.339551	0.000158
1657	1.6477e+02	-14.0210	-55.482356	0.000203	2.027540	0.686949	0.000081
1658	1.6487e+02	-13.9873	-55.377391	0.000264	2.635802	0.893034	0.000105
1659	1.6497e+02	-13.9488	-55.284537	0.000233	2.331671	0.789991	0.000093
1660	1.6507e+02	-13.9055	-55.179571	0.000264	2.635802	0.893034	0.000105
1661	1.6517e+02	-13.8702	-55.114977	0.000162	1.622032	0.549559	0.000065
1662	1.6527e+02	-13.8301	-54.973677	0.000355	3.548194	1.202161	0.000142
1663	1.6537e+02	-13.7868	-54.901009	0.000182	1.824786	0.618254	0.000073
1664	1.6547e+02	-13.7515	-54.796043	0.000264	2.635802	0.893034	0.000105
1665	1.6557e+02	-13.7001	-54.691078	0.000264	2.635802	0.893034	0.000105
1666	1.6567e+02	-13.6761	-54.545741	0.000365	3.649571	1.236508	0.000146
1667	1.6577e+02	-13.6440	-54.452887	0.000233	2.331671	0.789991	0.000093
1668	1.6587e+02	-13.5911	-54.331773	0.000304	3.041309	1.030424	0.000122
1669	1.6597e+02	-13.5477	-54.226807	0.000264	2.635802	0.893034	0.000105
1670	1.6607e+02	-13.5092	-54.133953	0.000233	2.331671	0.789991	0.000093
1671	1.6616e+02	-13.4756	-54.033025	0.000253	2.534425	0.858686	0.000101
1672	1.6626e+02	-13.4306	-53.887688	0.000365	3.649571	1.236508	0.000146
1673	1.6636e+02	-13.3841	-53.786759	0.000253	2.534425	0.858686	0.000101
1674	1.6646e+02	-13.3488	-53.681794	0.000264	2.635802	0.893034	0.000105
1675	1.6656e+02	-13.3135	-53.609125	0.000182	1.824786	0.618254	0.000073
1676	1.6666e+02	-13.2654	-53.488011	0.000304	3.041309	1.030424	0.000122
1677	1.6676e+02	-13.2333	-53.387083	0.000253	2.534425	0.858686	0.000101
1678	1.6686e+02	-13.2012	-53.282117	0.000264	2.635802	0.893034	0.000105
1679	1.6696e+02	-13.1579	-53.169078	0.000284	2.838555	0.961729	0.000114
1680	1.6706e+02	-13.1082	-53.068149	0.000253	2.534425	0.858686	0.000101
1681	1.6716e+02	-13.0681	-52.906664	0.000406	4.055079	1.373898	0.000162
1682	1.6726e+02	-13.0312	-52.813810	0.000233	2.331671	0.789991	0.000093
1683	1.6736e+02	-12.9943	-52.729030	0.000213	2.128917	0.721296	0.000085
1684	1.6746e+02	-12.9542	-52.599842	0.000324	3.244063	1.099118	0.000130
1685	1.6756e+02	-12.9109	-52.478727	0.000304	3.041309	1.030424	0.000122
1686	1.6766e+02	-12.8756	-52.406059	0.000182	1.824786	0.618254	0.000073
1687	1.6776e+02	-12.8355	-52.260722	0.000365	3.649571	1.236508	0.000146
1688	1.6786e+02	-12.8002	-52.171905	0.000223	2.230294	0.755644	0.000089
1689	1.6796e+02	-12.7424	-52.038680	0.000335	3.345440	1.133466	0.000134
1690	1.6806e+02	-12.7200	-51.937751	0.000253	2.534425	0.858686	0.000101
1691	1.6816e+02	-12.6734	-51.877194	0.000152	1.520655	0.515212	0.000061
1692	1.6825e+02	-12.6301	-51.748006	0.000324	3.244063	1.099118	0.000130
1693	1.6835e+02	-12.6045	-51.610743	0.000345	3.446817	1.167813	0.000138
1694	1.6845e+02	-12.5499	-51.489629	0.000304	3.041309	1.030424	0.000122
1695	1.6855e+02	-12.5194	-51.364478	0.000314	3.142686	1.064771	0.000126
1696	1.6865e+02	-12.4745	-51.263550	0.000253	2.534425	0.858686	0.000101
1697	1.6875e+02	-12.4408	-51.166658	0.000243	2.433048	0.824339	0.000097
1698	1.6885e+02	-12.3959	-51.029396	0.000345	3.446817	1.167813	0.000138
1699	1.6895e+02	-12.3478	-50.952690	0.000193	1.926163	0.652602	0.000077
1700	1.6905e+02	-12.3237	-50.843687	0.000274	2.737179	0.927381	0.000110
1701	1.6915e+02	-12.2836	-50.686239	0.000395	3.953702	1.339551	0.000158
1702	1.6925e+02	-12.2323	-50.621645	0.000162	1.622032	0.549559	0.000065
1703	1.6935e+02	-12.1890	-50.496494	0.000314	3.142686	1.064771	0.000126
1704	1.6945e+02	-12.1553	-50.367305	0.000324	3.244063	1.099118	0.000130
1705	1.6955e+02	-12.1248	-50.278488	0.000223	2.230294	0.755644	0.000089
1706	1.6965e+02	-12.0815	-50.173523	0.000264	2.635802	0.893034	0.000105
1707	1.6975e+02	-12.0366	-50.036260	0.000345	3.446817	1.167813	0.000138
1708	1.6985e+02	-12.0029	-49.947443	0.000223	2.230294	0.755644	0.000089
1709	1.6995e+02	-11.9547	-49.810181	0.000345	3.446817	1.167813	0.000138
1710	1.7005e+02	-11.9114	-49.729438	0.000203	2.027540	0.686949	0.000081
1711	1.7015e+02	-11.8793	-49.620435	0.000274	2.737179	0.927381	0.000110
1712	1.7024e+02	-11.8408	-49.503358	0.000294	2.939932	0.996076	0.000118
1713	1.7034e+02	-11.8023	-49.341873	0.000406	4.055079	1.373898	0.000162
1714	1.7044e+02	-11.7510	-49.265167	0.000193	1.926163	0.652602	0.000077
1715	1.7054e+02	-11.7221	-49.176350	0.000223	2.230294	0.755644	0.000089
1716	1.7064e+02	-11.6868	-49.006791	0.000426	4.257833	1.442593	0.000170
1717	1.7074e+02	-11.6339	-48.958345	0.000122	1.216524	0.412169	0.000049
1718	1.7084e+02	-11.6034	-48.825120	0.000335	3.345440	1.133466	0.000134
1719	1.7094e+02	-11.5585	-48.712080	0.000284	2.838555	0.961729	0.000114
1720	1.7104e+02	-11.5200	-48.550594	0.000406	4.055079	1.373898	0.000162
1721	1.7114e+02	-11.4815	-48.506186	0.000112	1.115147	0.377822	0.000045
1722	1.7124e+02	-11.4478	-48.360849	0.000365	3.649571	1.236508	0.000146
1723	1.7134e+02	-11.4029	-48.259921	0.000253	2.534425	0.858686	0.000101
1724	1.7144e+02	-11.3644	-48.171104	0.000223	2.230294	0.755644	0.000089
1725	1.7154e+02	-11.3147	-48.045952	0.000314	3.142686	1.064771	0.000126
1726	1.7164e+02	-11.2810	-47.916764	0.000324	3.244063	1.099118	0.000130
1727	1.7174e+02	-11.2377	-47.795650	0.000304	3.041309	1.030424	0.000122
1728	1.7184e+02	-11.1959	-47.698759	0.000243	2.433048	0.824339	0.000097
1729	1.7194e+02	-11.1623	-47.589756	0.000274	2.737179	0.927381	0.000110
1730	1.7204e+02	-11.1157	-47.444419	0.000365	3.649571	1.236508	0.000146
1731	1.7213e+02	-11.0836	-47.335417	0.000274	2.737179	0.927381	0.000110
1732	1.7223e+02	-11.0387	-47.222377	0.000284	2.838555	0.961729	0.000114
1733	1.7233e+02	-10.9970	-47.125485	0.000243	2.433048	0.824339	0.000097
1734	1.7243e+02	-10.9697	-47.024557	0.000253	2.534425	0.858686	0.000101
1735	1.7253e+02	-10.9104	-46.883257	0.000355	3.548194	1.202161	0.000142
1736	1.7263e+02	-10.8751	-46.750032	0.000335	3.345440	1.133466	0.000134
1737	1.7273e+02	-10.8462	-46.661215	0.000223	2.230294	0.755644	0.000089
1738	1.7283e+02	-10.8093	-46.523952	0.000345	3.446817	1.167813	0.000138
1739	1.7293e+02	-10.7628	-46.427061	0.000243	2.433048	0.824339	0.000097
1740	1.7303e+02	-10.7243	-46.330170	0.000243	2.433048	0.824339	0.000097
1741	1.7313e+02	-10.6858	-46.205019	0.000314	3.142686	1.064771	0.000126
1742	1.7323e+02	-10.6361	-46.112164	0.000233	2.331671	0.789991	0.000093
1743	1.7333e+02	-10.6120	-45.966828	0.000365	3.649571	1.236508	0.000146
1744	1.7343e+02	-10.5526	-45.849751	0.000294	2.939932	0.996076	0.000118
1745	1.7353e+02	-10.5270	-45.769008	0.000203	2.027540	0.686949	0.000081
1746	1.7363e+02	-10.4853	-45.623671	0.000365	3.649571	1.236508	0.000146
1747	1.7373e+02	-10.4452	-45.518705	0.000264	2.635802	0.893034	0.000105
1748	1.7383e+02	-10.4034	-45.405666	0.000284	2.838555	0.961729	0.000114
1749	1.7393e+02	-10.3649	-45.244180	0.000406	4.055079	1.373898	0.000162
1750	1.7403e+02	-10.3200	-45.167475	0.000193	1.926163	0.652602	0.000077
1751	1.7413e+02	-10.2831	-45.050398	0.000294	2.939932	0.996076	0.000118
1752	1.7422e+02	-10.2414	-44.921209	0.000324	3.244063	1.099118	0.000130
1753	1.7432e+02	-10.2077	-44.804132	0.000294	2.939932	0.996076	0.000118
1754	1.7442e+02	-10.1708	-44.711278	0.000233	2.331671	0.789991	0.000093
1755	1.7452e+02	-10.1323	-44.578053	0.000335	3.345440	1.133466	0.000134
1756	1.7462e+02	-10.0938	-44.452902	0.000314	3.142686	1.064771	0.000126
1757	1.7472e+02	-10.0569	-44.319676	0.000335	3.345440	1.133466	0.000134
1758	1.7482e+02	-10.0024	-44.218748	0.000253	2.534425	0.858686	0.000101
1759	1.7492e+02	-9.9655	-44.109745	0.000274	2.737179	0.927381	0.000110
1760	1.7502e+02	-9.9302	-43.960371	0.000375	3.750948	1.270856	0.000150
1761	1.7512e+02	-9.8837	-43.843294	0.000294	2.939932	0.996076	0.000118
1762	1.7522e+02	-9.8404	-43.693920	0.000375	3.750948	1.270856	0.000150
1763	1.7532e+02	-9.8099	-43.645474	0.000122	1.216524	0.412169	0.000049
1764	1.7542e+02	-9.7714	-43.500138	0.000365	3.649571	1.236508	0.000146
1765	1.7552e+02	-9.7152	-43.403246	0.000243	2.433048	0.824339	0.000097
1766	1.7562e+02	-9.6960	-43.278095	0.000314	3.142686	1.064771	0.000126
1767	1.7572e+02	-9.6446	-43.177167	0.000253	2.534425	0.858686	0.000101
1768	1.7582e+02	-9.6061	-43.035867	0.000355	3.548194	1.202161	0.000142
1769	1.7592e+02	-9.5660	-42.955124	0.000203	2.027540	0.686949	0.000081
1770	1.7602e+02	-9.5275	-42.785565	0.000426	4.257833	1.442593	0.000170
1771	1.7612e+02	-9.4858	-42.668488	0.000294	2.939932	0.996076	0.000118
1772	1.7621e+02	-9.4505	-42.563522	0.000264	2.635802	0.893034	0.000105
1773	1.7631e+02	-9.4008	-42.442408	0.000304	3.041309	1.030424	0.000122
1774	1.7641e+02	-9.3799	-42.293034	0.000375	3.750948	1.270856	0.000150
1775	1.7651e+02	-9.3318	-42.220366	0.000182	1.824786	0.618254	0.000073
1776	1.7661e+02	-9.2933	-42.095214	0.000314	3.142686	1.064771	0.000126
1777	1.7671e+02	-9.2532	-41.990249	0.000264	2.635802	0.893034	0.000105
1778	1.7681e+02	-9.2163	-41.832801	0.000395	3.953702	1.339551	0.000158
1779	1.7691e+02	-9.1666	-41.707649	0.000314	3.142686	1.064771	0.000126
1780	1.7701e+02	-9.1281	-41.630944	0.000193	1.926163	0.652602	0.000077
1781	1.7711e+02	-9.0848	-41.457347	0.000436	4.359210	1.476940	0.000174
1782	1.7721e+02	-9.0447	-41.364493	0.000233	2.331671	0.789991	0.000093
1783	1.7731e+02	-9.0062	-41.231267	0.000335	3.345440	1.133466	0.000134
1784	1.7741e+02	-8.9645	-41.118227	0.000284	2.838555	0.961729	0.000114
1785	1.7751e+02	-8.9195	-40.989039	0.000324	3.244063	1.099118	0.000130
1786	1.7761e+02	-8.8907	-40.867925	0.000304	3.041309	1.030424	0.000122
1787	1.7771e+02	-8.8457	-40.738737	0.000324	3.244063	1.099118	0.000130
1788	1.7781e+02	-8.8072	-40.621660	0.000294	2.939932	0.996076	0.000118
1789	1.7791e+02	-8.7687	-40.480360	0.000355	3.548194	1.202161	0.000142
1790	1.7801e+02	-8.7350	-40.318875	0.000406	4.055079	1.373898	0.000162
1791	1.7810e+02	-8.6949	-40.234095	0.000213	2.128917	0.721296	0.000085
1792	1.7820e+02	-8.6516	-40.096832	0.000345	3.446817	1.167813	0.000138
1793	1.7830e+02	-8.6131	-39.947458	0.000375	3.750948	1.270856	0.000150
1794	1.7840e+02	-8.5666	-39.842493	0.000264	2.635802	0.893034	0.000105
1795	1.7850e+02	-8.5329	-39.721379	0.000304	3.041309	1.030424	0.000122
1796	1.7860e+02	-8.4928	-39.616413	0.000264	2.635802	0.893034	0.000105
1797	1.7870e+02	-8.4495	-39.499336	0.000294	2.939932	0.996076	0.000118
1798	1.7880e+02	-8.4190	-39.337851	0.000406	4.055079	1.373898	0.000162
1799	1.7890e+02	-8.3757	-39.232885	0.000264	2.635802	0.893034	0.000105
1800	1.7900e+02	-8.3324	-39.087548	0.000365	3.649571	1.236508	0.000146
1801	1.7910e+02	-8.2987	-38.950286	0.000345	3.446817	1.167813	0.000138
1802	1.7920e+02	-8.2409	-38.792837	0.000395	3.953702	1.339551	0.000158
1803	1.7930e+02	-8.2105	-38.691909	0.000253	2.534425	0.858686	0.000101
1804	1.7940e+02	-8.1752	-38.582906	0.000274	2.737179	0.927381	0.000110
1805	1.7950e+02	-8.1286	-38.421421	0.000406	4.055079	1.373898	0.000162
1806	1.7960e+02	-8.0982	-38.280121	0.000355	3.548194	1.202161	0.000142
1807	1.7970e+02	-8.0597	-38.199378	0.000203	2.027540	0.686949	0.000081
1808	1.7980e+02	-8.0164	-38.029819	0.000426	4.257833	1.442593	0.000170
1809	1.7990e+02	-7.9778	-37.904667	0.000314	3.142686	1.064771	0.000126
1810	1.8000e+02	-7.9329	-37.783553	0.000304	3.041309	1.030424	0.000122
1811	1.8009e+02	-7.8880	-37.630142	0.000385	3.852325	1.305203	0.000154
1812	1.8019e+02	-7.8527	-37.504991	0.000314	3.142686	1.064771	0.000126
1813	1.8029e+02	-7.8158	-37.367728	0.000345	3.446817	1.167813	0.000138
1814	1.8039e+02	-7.7661	-37.274874	0.000233	2.331671	0.789991	0.000093
1815	1.8049e+02	-7.7324	-37.113389	0.000406	4.055079	1.373898	0.000162
1816	1.8059e+02	-7.6971	-36.972089	0.000355	3.548194	1.202161	0.000142
1817	1.8069e+02	-7.6618	-36.786381	0.000466	4.663341	1.579983	0.000187
1818	1.8079e+02	-7.6153	-36.693527	0.000233	2.331671	0.789991	0.000093
1819	1.8089e+02	-7.5656	-36.608747	0.000213	2.128917	0.721296	0.000085
1820	1.8099e+02	-7.5287	-36.439187	0.000426	4.257833	1.442593	0.000170
1821	1.8109e+02	-7.4950	-36.309999	0.000324	3.244063	1.099118	0.000130
1822	1.8119e+02	-7.4517	-36.176773	0.000335	3.345440	1.133466	0.000134
1823	1.8129e+02	-7.4132	-36.007214	0.000426	4.257833	1.442593	0.000170
1824	1.8139e+02	-7.3763	-35.878025	0.000324	3.244063	1.099118	0.000130
1825	1.8149e+02	-7.3362	-35.756911	0.000304	3.041309	1.030424	0.000122
1826	1.8159e+02	-7.3009	-35.615611	0.000355	3.548194	1.202161	0.000142
1827	1.8169e+02	-7.2559	-35.454126	0.000406	4.055079	1.373898	0.000162
1828	1.8179e+02	-7.2174	-35.349161	0.000264	2.635802	0.893034	0.000105
1829	1.8189e+02	-7.1822	-35.175564	0.000436	4.359210	1.476940	0.000174
1830	1.8199e+02	-7.1292	-35.066561	0.000274	2.737179	0.927381	0.000110
1831	1.8209e+02	-7.0987	-34.961595	0.000264	2.635802	0.893034	0.000105
1832	1.8218e+02	-7.0618	-34.804147	0.000395	3.953702	1.339551	0.000158
1833	1.8228e+02	-7.0201	-34.703219	0.000253	2.534425	0.858686	0.000101
1834	1.8238e+02	-6.9848	-34.513473	0.000476	4.764718	1.614330	0.000191
1835	1.8248e+02	-6.9383	-34.351988	0.000406	4.055079	1.373898	0.000162
1836	1.8258e+02	-6.8966	-34.218763	0.000335	3.345440	1.133466	0.000134
1837	1.8268e+02	-6.8549	-34.085537	0.000335	3.345440	1.133466	0.000134
1838	1.8278e+02	-6.8228	-33.972497	0.000284	2.838555	0.961729	0.000114
1839	1.8288e+02	-6.7827	-33.782752	0.000476	4.764718	1.614330	0.000191
1840	1.8298e+02	-6.7362	-33.669712	0.000284	2.838555	0.961729	0.000114
1841	1.8308e+02	-6.6945	-33.516301	0.000385	3.852325	1.305203	0.000154
1842	1.8318e+02	-6.6656	-33.375001	0.000355	3.548194	1.202161	0.000142
1843	1.8328e+02	-6.6191	-33.261961	0.000284	2.838555	0.961729	0.000114
1844	1.8338e+02	-6.5790	-33.104513	0.000395	3.953702	1.339551	0.000158
1845	1.8348e+02	-6.5421	-32.975325	0.000324	3.244063	1.099118	0.000130
1846	1.8358e+02	-6.5004	-32.842099	0.000335	3.345440	1.133466	0.000134
1847	1.8368e+02	-6.4651	-32.676577	0.000416	4.156456	1.408246	0.000166
1848	1.8378e+02	-6.4105	-32.531240	0.000365	3.649571	1.236508	0.000146
1849	1.8388e+02	-6.3832	-32.426274	0.000264	2.635802	0.893034	0.000105
1850	1.8398e+02	-6.3415	-32.268826	0.000395	3.953702	1.339551	0.000158
1851	1.8407e+02	-6.3078	-32.103303	0.000416	4.156456	1.408246	0.000166
1852	1.8417e+02	-6.2693	-31.994301	0.000274	2.737179	0.927381	0.000110
1853	1.8427e+02	-6.2260	-31.844927	0.000375	3.750948	1.270856	0.000150
1854	1.8437e+02	-6.1827	-31.691516	0.000385	3.852325	1.305203	0.000154
1855	1.8447e+02	-6.1442	-31.525993	0.000416	4.156456	1.408246	0.000166
1856	1.8457e+02	-6.1105	-31.404879	0.000304	3.041309	1.030424	0.000122
1857	1.8467e+02	-6.0560	-31.255505	0.000375	3.750948	1.270856	0.000150
1858	1.8477e+02	-6.0223	-31.102094	0.000385	3.852325	1.305203	0.000154
1859	1.8487e+02	-5.9870	-30.960794	0.000355	3.548194	1.202161	0.000142
1860	1.8497e+02	-5.9421	-30.803346	0.000395	3.953702	1.339551	0.000158
1861	1.8507e+02	-5.9068	-30.666083	0.000345	3.446817	1.167813	0.000138
1862	1.8517e+02	-5.8683	-30.472301	0.000487	4.866095	1.648678	0.000195
1863	1.8527e+02	-5.8250	-30.351186	0.000304	3.041309	1.030424	0.000122
1864	1.8537e+02	-5.7865	-30.205850	0.000365	3.649571	1.236508	0.000146
1865	1.8547e+02	-5.7432	-30.072624	0.000335	3.345440	1.133466	0.000134
1866	1.8557e+02	-5.7111	-29.919213	0.000385	3.852325	1.305203	0.000154
1867	1.8567e+02	-5.6694	-29.761765	0.000395	3.953702	1.339551	0.000158
1868	1.8577e+02	-5.6293	-29.628539	0.000335	3.345440	1.133466	0.000134
1869	1.8587e+02	-5.5843	-29.487239	0.000355	3.548194	1.202161	0.000142
1870	1.8597e+02	-5.5314	-29.345940	0.000355	3.548194	1.202161	0.000142
1871	1.8606e+02	-5.5154	-29.188491	0.000395	3.953702	1.339551	0.000158
1872	1.8616e+02	-5.4672	-29.022969	0.000416	4.156456	1.408246	0.000166
1873	1.8626e+02	-5.4271	-28.885706	0.000345	3.446817	1.167813	0.000138
1874	1.8636e+02	-5.3822	-28.752481	0.000335	3.345440	1.133466	0.000134
1875	1.8646e+02	-5.3453	-28.586958	0.000416	4.156456	1.408246	0.000166
1876	1.8656e+02	-5.3116	-28.441621	0.000365	3.649571	1.236508	0.000146
1877	1.8666e+02	-5.2635	-28.284173	0.000395	3.953702	1.339551	0.000158
1878	1.8676e+02	-5.2250	-28.179207	0.000264	2.635802	0.893034	0.000105
1879	1.8686e+02	-5.1977	-28.009648	0.000426	4.257833	1.442593	0.000170
1880	1.8696e+02	-5.1448	-27.844125	0.000416	4.156456	1.408246	0.000166
1881	1.8706e+02	-5.1063	-27.731085	0.000284	2.838555	0.961729	0.000114
1882	1.8716e+02	-5.0694	-27.557489	0.000436	4.359210	1.476940	0.000174
1883	1.8726e+02	-5.0309	-27.396003	0.000406	4.055079	1.373898	0.000162
1884	1.8736e+02	-4.9876	-27.291038	0.000264	2.635802	0.893034	0.000105
1885	1.8746e+02	-4.9426	-27.137626	0.000385	3.852325	1.305203	0.000154
1886	1.8756e+02	-4.9057	-26.955955	0.000456	4.561964	1.545635	0.000183
1887	1.8766e+02	-4.8672	-26.814656	0.000355	3.548194	1.202161	0.000142
1888	1.8776e+02	-4.8352	-26.661244	0.000385	3.852325	1.305203	0.000154
1889	1.8786e+02	-4.7918	-26.523982	0.000345	3.446817	1.167813	0.000138
1890	1.8796e+02	-4.7501	-26.402868	0.000304	3.041309	1.030424	0.000122
1891	1.8806e+02	-4.7084	-26.225234	0.000446	4.460587	1.511288	0.000179
1892	1.8815e+02	-4.6667	-26.063748	0.000406	4.055079	1.373898	0.000162
1893	1.8825e+02	-4.6218	-25.886114	0.000446	4.460587	1.511288	0.000179
1894	1.8835e+02	-4.5801	-25.773075	0.000284	2.838555	0.961729	0.000114
1895	1.8845e+02	-4.5464	-25.660035	0.000284	2.838555	0.961729	0.000114
1896	1.8855e+02	-4.5079	-25.498549	0.000406	4.055079	1.373898	0.000162
1897	1.8865e+02	-4.4678	-25.300730	0.000497	4.967472	1.683025	0.000199
1898	1.8875e+02	-4.4213	-25.171541	0.000324	3.244063	1.099118	0.000130
1899	1.8885e+02	-4.3844	-25.010056	0.000406	4.055079	1.373898	0.000162
1900	1.8895e+02	-4.3571	-24.892979	0.000294	2.939932	0.996076	0.000118
1901	1.8905e+02	-4.3074	-24.723419	0.000426	4.257833	1.442593	0.000170
1902	1.8915e+02	-4.2721	-24.549822	0.000436	4.359210	1.476940	0.000174
1903	1.8925e+02	-4.2320	-24.424671	0.000314	3.142686	1.064771	0.000126
1904	1.8935e+02	-4.1919	-24.267223	0.000395	3.953702	1.339551	0.000158
1905	1.8945e+02	-4.1453	-24.085552	0.000456	4.561964	1.545635	0.000183
1906	1.8955e+02	-4.1100	-23.960401	0.000314	3.142686	1.064771	0.000126
1907	1.8965e+02	-4.0667	-23.782767	0.000446	4.460587	1.511288	0.000179
1908	1.8975e+02	-4.0266	-23.629355	0.000385	3.852325	1.305203	0.000154
1909	1.8985e+02	-3.9945	-23.459796	0.000426	4.257833	1.442593	0.000170
1910	1.8995e+02	-3.9496	-23.318496	0.000355	3.548194	1.202161	0.000142
1911	1.9004e+02	-3.9143	-23.173159	0.000365	3.649571	1.236508	0.000146
1912	1.9014e+02	-3.8678	-22.979377	0.000487	4.866095	1.648678	0.000195
1913	1.9024e+02	-3.8453	-22.846151	0.000335	3.345440	1.133466	0.000134
1914	1.9034e+02	-3.7892	-22.700814	0.000365	3.649571	1.236508	0.000146
1915	1.9044e+02	-3.7491	-22.571626	0.000324	3.244063	1.099118	0.000130
1916	1.9054e+02	-3.7026	-22.341509	0.000578	5.778488	1.957805	0.000231
1917	1.9064e+02	-3.6689	-22.236544	0.000264	2.635802	0.893034	0.000105
1918	1.9074e+02	-3.6368	-22.034687	0.000507	5.068849	1.717373	0.000203
1919	1.9084e+02	-3.5887	-21.933758	0.000253	2.534425	0.858686	0.000101
1920	1.9094e+02	-3.5582	-21.739976	0.000487	4.866095	1.648678	0.000195
1921	1.9104e+02	-3.5069	-21.635010	0.000264	2.635802	0.893034	0.000105
1922	1.9114e+02	-3.4732	-21.441228	0.000487	4.866095	1.648678	0.000195
1923	1.9124e+02	-3.4282	-21.287817	0.000385	3.852325	1.305203	0.000154
1924	1.9134e+02	-3.3865	-21.134406	0.000385	3.852325	1.305203	0.000154
1925	1.9144e+02	-3.3561	-20.968883	0.000416	4.156456	1.408246	0.000166
1926	1.9154e+02	-3.3095	-20.795286	0.000436	4.359210	1.476940	0.000174
1927	1.9164e+02	-3.2758	-20.690321	0.000264	2.635802	0.893034	0.000105
1928	1.9174e+02	-3.2325	-20.536909	0.000385	3.852325	1.305203	0.000154
1929	1.9184e+02	-3.1924	-20.359276	0.000446	4.460587	1.511288	0.000179
1930	1.9194e+02	-3.1539	-20.193753	0.000416	4.156456	1.408246	0.000166
1931	1.9203e+02	-3.1218	-20.024193	0.000426	4.257833	1.442593	0.000170
1932	1.9213e+02	-3.0769	-19.854634	0.000426	4.257833	1.442593	0.000170
1933	1.9223e+02	-3.0320	-19.713334	0.000355	3.548194	1.202161	0.000142
1934	1.9233e+02	-2.9935	-19.559923	0.000385	3.852325	1.305203	0.000154
1935	1.9243e+02	-2.9502	-19.410549	0.000375	3.750948	1.270856	0.000150
1936	1.9253e+02	-2.9149	-19.281360	0.000324	3.244063	1.099118	0.000130
1937	1.9263e+02	-2.8812	-19.067392	0.000537	5.372980	1.820415	0.000215
1938	1.9273e+02	-2.8363	-18.909944	0.000395	3.953702	1.339551	0.000158
1939	1.9283e+02	-2.8026	-18.768644	0.000355	3.548194	1.202161	0.000142
1940	1.9293e+02	-2.7545	-18.595047	0.000436	4.359210	1.476940	0.000174
1941	1.9303e+02	-2.7112	-18.433562	0.000406	4.055079	1.373898	0.000162
1942	1.9313e+02	-2.6823	-18.247854	0.000466	4.663341	1.579983	0.000187
1943	1.9323e+02	-2.6390	-18.102517	0.000365	3.649571	1.236508	0.000146
1944	1.9333e+02	-2.5956	-17.953143	0.000375	3.750948	1.270856	0.000150
1945	1.9343e+02	-2.5555	-17.775509	0.000446	4.460587	1.511288	0.000179
1946	1.9353e+02	-2.5202	-17.622097	0.000385	3.852325	1.305203	0.000154
1947	1.9363e+02	-2.4785	-17.460612	0.000406	4.055079	1.373898	0.000162
1948	1.9373e+02	-2.4336	-17.266830	0.000487	4.866095	1.648678	0.000195
1949	1.9383e+02	-2.4015	-17.141678	0.000314	3.142686	1.064771	0.000126
1950	1.9393e+02	-2.3534	-16.955970	0.000466	4.663341	1.579983	0.000187
1951	1.9403e+02	-2.3085	-16.790448	0.000416	4.156456	1.408246	0.000166
1952	1.9412e+02	-2.2892	-16.641074	0.000375	3.750948	1.270856	0.000150
1953	1.9422e+02	-2.2427	-16.467477	0.000436	4.359210	1.476940	0.000174
1954	1.9432e+02	-2.1994	-16.273694	0.000487	4.866095	1.648678	0.000195
1955	1.9442e+02	-2.1545	-16.071837	0.000507	5.068849	1.717373	0.000203
1956	1.9452e+02	-2.1144	-15.974946	0.000243	2.433048	0.824339	0.000097
1957	1.9462e+02	-2.0791	-15.805386	0.000426	4.257833	1.442593	0.000170
1958	1.9472e+02	-2.0406	-15.639864	0.000416	4.156456	1.408246	0.000166
1959	1.9482e+02	-2.0037	-15.442044	0.000497	4.967472	1.683025	0.000199
1960	1.9492e+02	-1.9572	-15.264410	0.000446	4.460587	1.511288	0.000179
1961	1.9502e+02	-1.9155	-15.123110	0.000355	3.548194	1.202161	0.000142
1962	1.9512e+02	-1.8770	-14.965662	0.000395	3.953702	1.339551	0.000158
1963	1.9522e+02	-1.8256	-14.775917	0.000476	4.764718	1.614330	0.000191
1964	1.9532e+02	-1.7951	-14.622506	0.000385	3.852325	1.305203	0.000154
1965	1.9542e+02	-1.7614	-14.424686	0.000497	4.967472	1.683025	0.000199
1966	1.9552e+02	-1.7101	-14.283386	0.000355	3.548194	1.202161	0.000142
1967	1.9562e+02	-1.6780	-14.101715	0.000456	4.561964	1.545635	0.000183
1968	1.9572e+02	-1.6411	-13.920044	0.000456	4.561964	1.545635	0.000183
1969	1.9582e+02	-1.5994	-13.750484	0.000426	4.257833	1.442593	0.000170
1970	1.9592e+02	-1.5609	-13.584962	0.000416	4.156456	1.408246	0.000166
1971	1.9601e+02	-1.5208	-13.423476	0.000406	4.055079	1.373898	0.000162
1972	1.9611e+02	-1.4807	-13.205471	0.000547	5.474357	1.854762	0.000219
1973	1.9621e+02	-1.4406	-13.056097	0.000375	3.750948	1.270856	0.000150
1974	1.9631e+02	-1.4037	-12.878463	0.000446	4.460587	1.511288	0.000179
1975	1.9641e+02	-1.3620	-12.712940	0.000416	4.156456	1.408246	0.000166
1976	1.9651e+02	-1.3235	-12.527232	0.000466	4.663341	1.579983	0.000187
1977	1.9661e+02	-1.2786	-12.369784	0.000395	3.953702	1.339551	0.000158
1978	1.9671e+02	-1.2449	-12.240596	0.000324	3.244063	1.099118	0.000130
1979	1.9681e+02	-1.1968	-12.038739	0.000507	5.068849	1.717373	0.000203
1980	1.9691e+02	-1.1615	-11.861105	0.000446	4.460587	1.511288	0.000179
1981	1.9701e+02	-1.1246	-11.679434	0.000456	4.561964	1.545635	0.000183
1982	1.9711e+02	-1.0780	-11.481614	0.000497	4.967472	1.683025	0.000199
1983	1.9721e+02	-1.0460	-11.344351	0.000345	3.446817	1.167813	0.000138
1984	1.9731e+02	-0.9994	-11.146532	0.000497	4.967472	1.683025	0.000199
1985	1.9741e+02	-0.9641	-10.960824	0.000466	4.663341	1.579983	0.000187
1986	1.9751e+02	-0.9144	-10.815487	0.000365	3.649571	1.236508	0.000146
1987	1.9761e+02	-0.8855	-10.613630	0.000507	5.068849	1.717373	0.000203
1988	1.9771e+02	-0.8406	-10.419847	0.000487	4.866095	1.648678	0.000195
1989	1.9781e+02	-0.8053	-10.282585	0.000345	3.446817	1.167813	0.000138
1990	1.9791e+02	-0.7588	-10.096876	0.000466	4.663341	1.579983	0.000187
1991	1.9800e+02	-0.7235	-9.895020	0.000507	5.068849	1.717373	0.000203
1992	1.9810e+02	-0.6738	-9.757757	0.000345	3.446817	1.167813	0.000138
1993	1.9820e+02	-0.6449	-9.539752	0.000547	5.474357	1.854762	0.000219
1994	1.9830e+02	-0.6048	-9.406526	0.000335	3.345440	1.133466	0.000134
1995	1.9840e+02	-0.5695	-9.200632	0.000517	5.170226	1.751720	0.000207
1996	1.9850e+02	-0.5214	-9.031073	0.000426	4.257833	1.442593	0.000170
1997	1.9860e+02	-0.4813	-8.845364	0.000466	4.663341	1.579983	0.000187
1998	1.9870e+02	-0.4380	-8.683879	0.000406	4.055079	1.373898	0.000162
1999	1.9880e+02	-0.4107	-8.506245	0.000446	4.460587	1.511288	0.000179
2000	1.9890e+02	-0.3642	-8.328611	0.000446	4.460587	1.511288	0.000179
2001	1.9900e+02	-0.3321	-8.150977	0.000446	4.460587	1.511288	0.000179
2002	1.9910e+02	-0.2856	-7.965269	0.000466	4.663341	1.579983	0.000187
2003	1.9920e+02	-0.2454	-7.807821	0.000395	3.953702	1.339551	0.000158
2004	1.9930e+02	-0.2118	-7.610001	0.000497	4.967472	1.683025	0.000199
2005	1.9940e+02	-0.1556	-7.436404	0.000436	4.359210	1.476940	0.000174
2006	1.9950e+02	-0.1267	-7.258770	0.000446	4.460587	1.511288	0.000179
2007	1.9960e+02	-0.0738	-7.016542	0.000608	6.082619	2.060847	0.000243
2008	1.9970e+02	-0.0497	-6.883316	0.000335	3.345440	1.133466	0.000134
2009	1.9980e+02	-0.0016	-6.705682	0.000335	3.345440	1.133466	0.000179

Center data before PMax,+/-Pr and +/-Vc Calc.

PMax (uC/cm2):	6.82e+01
Pr (uC/cm2):	2.80e+00
-Pr (uC/cm2):	-6.71e+00
PLoss (uC/cm2):	-1.41e+00
Vc:	1.26e+00
-Vc:	-6.36e-01
C (Max-Eff) (nF):	3.41e-01
K (Eff):	1.16e+03
Vert. (+/-Pr) Shift (uC/cm2):	-1.95e+00
Horiz. Shift (+/-Vc):	3.11e-01
Offset (uC/cm2):	5.31e+00

A (Loop Area - uC/cm2·Volts):	9.92e-03



Hysteresis Version: 5.48.1 - Radiant Technologies, Inc., 1999 - 9/12/24

