»»»»»»»»»»»»»»»»»»»»»»»»»»»»»»»»»»»» Hysteresis ««««««««««««««««««««««««««««««««««««
»»»  Executed Version:	5.48.1
»»»  Vision Version:	5.48.4 (R)
»»»  Vision Compiled:	9/18/24
»»»  Driver Version:	5.47.0
»»»  Windows Version:	Windows 8 or 8.1
»»»  Processor Information:	x86 (AMD or Intel) - 32 Processors
»»»  Tester Name:	PMF21124-494 (100V)
»»»  Tester S/N:	PMF21124-494
»»»  Internal Amp Type:	100V RevK 270k
»»»  Internal Amp S/N:	iAB2-596/K     
»»»  Execution Count:	1
»»»»»»»»»»»»»»»»»»»»»»»»»»»»»»»»»»»»»»»»»»««««««««««««««««««««««««««««««««««««««««««

Stored:	6/16/2025 - 10:17:33
Configured:	06/16/25 10:13:01 AM
Executed:	06/16/25 10:16:58 AM

»»»»»»»»»»»»»»»»»»»»»»»»»»»»»»»»»»» Sample Info ««««««««««««««««««««««««««««««««««««
Sample Name:	
Lot Name:	
Wafer Name:	
Die Row/Column:	0/0
Capacitor Number:	0
Sample Area (cm2):	1.00e-04
Sample Thickness (microns):	3.00e-01

Amplifier:	Internal

»»»»»»»»»»»»»»»»»»»»»»»»»»»»»»»»»»» Tester Info «««««««««««««««««««««««««««««««««««
Tester Name:	PMF21124-494 (100V)
Tester Serial Number:	PMF21124-494
Return Signal Amp. Level:	0.19 [Index: 3]

»»»»»»»»»»»»»»»»»»»»»»»»»»»»»»»» Hysteresis Info ««««««««««««««««««««««««««««««««««
Task Name:	Hyst-2190
Volts:	20.00
Field:	666.67 (kV/cm)
DCBias:	0.00
DCField:	0.00 (kV/cm)
Hysteresis Period (ms):	2.00e+02
Preset:	Enabled
Preset Delay (ms):	1.00e+03
Profile:	Standard Bipolar

»»»»»»»»»»»»»»»»»»»»»»»»»»»»»»»»»»»»»» Data «««««««««««««««««««««««««««««««««««««««
Points:	2009

Valid Data

Point	Time (ms)	Drive Voltage	Measured Polarization (uC/cm2)	Capacitance (uF)	Normalized Capacitance (uF/cm2)	Dielectric Constant	Instantaneous Current (mA)
   1	0.0000e+00	-0.0273	1.487685	0.000405	4.054185	1.373595	0.000162
   2	9.9500e-02	0.0000	1.649170	0.000405	4.054185	1.373595	0.000162
   3	1.9900e-01	0.0481	1.705690	0.000142	1.418965	0.480758	0.000057
   4	2.9850e-01	0.0850	1.899472	0.000487	4.865022	1.648314	0.000195
   5	3.9800e-01	0.1267	2.028661	0.000324	3.243348	1.098876	0.000130
   6	4.9750e-01	0.1540	2.129589	0.000253	2.533865	0.858497	0.000101
   7	5.9700e-01	0.2118	2.238592	0.000274	2.736575	0.927177	0.000110
   8	6.9650e-01	0.2342	2.383929	0.000365	3.648766	1.236235	0.000146
   9	7.9600e-01	0.2872	2.557525	0.000436	4.358248	1.476615	0.000174
  10	8.9550e-01	0.3225	2.654417	0.000243	2.432511	0.824157	0.000097
  11	9.9500e-01	0.3642	2.775531	0.000304	3.040638	1.030196	0.000122
  12	1.0945e+00	0.4027	2.941053	0.000416	4.155539	1.407935	0.000166
  13	1.1940e+00	0.4364	3.009685	0.000172	1.723028	0.583778	0.000069
  14	1.2935e+00	0.4829	3.150984	0.000355	3.547412	1.201896	0.000142
  15	1.3930e+00	0.5182	3.284210	0.000334	3.344702	1.133216	0.000134
  16	1.4925e+00	0.5551	3.413398	0.000324	3.243348	1.098876	0.000130
  17	1.5920e+00	0.6032	3.570847	0.000395	3.952830	1.339255	0.000158
  18	1.6915e+00	0.6465	3.687923	0.000294	2.939284	0.995856	0.000118
  19	1.7910e+00	0.6786	3.792889	0.000264	2.635220	0.892837	0.000105
  20	1.8905e+00	0.7203	3.986672	0.000487	4.865022	1.648314	0.000195
  21	1.9900e+00	0.7588	4.071451	0.000213	2.128447	0.721137	0.000085
  22	2.0895e+00	0.8021	4.224863	0.000385	3.851475	1.304915	0.000154
  23	2.1890e+00	0.8502	4.350014	0.000314	3.141993	1.064536	0.000126
  24	2.2885e+00	0.8839	4.475165	0.000314	3.141993	1.064536	0.000126
  25	2.3880e+00	0.9112	4.612428	0.000345	3.446057	1.167556	0.000138
  26	2.4875e+00	0.9529	4.749690	0.000345	3.446057	1.167556	0.000138
  27	2.5870e+00	0.9994	4.850619	0.000253	2.533865	0.858497	0.000101
  28	2.6865e+00	1.0476	4.979807	0.000324	3.243348	1.098876	0.000130
  29	2.7860e+00	1.0813	5.145329	0.000416	4.155539	1.407935	0.000166
  30	2.8855e+00	1.1182	5.246258	0.000253	2.533865	0.858497	0.000101
  31	2.9850e+00	1.1534	5.403706	0.000395	3.952830	1.339255	0.000158
  32	3.0845e+00	1.1903	5.500597	0.000243	2.432511	0.824157	0.000097
  33	3.1840e+00	1.2337	5.654009	0.000385	3.851475	1.304915	0.000154
  34	3.2835e+00	1.2866	5.815494	0.000405	4.054185	1.373595	0.000162
  35	3.3830e+00	1.3251	5.912385	0.000243	2.432511	0.824157	0.000097
  36	3.4825e+00	1.3588	6.053685	0.000355	3.547412	1.201896	0.000142
  37	3.5820e+00	1.3973	6.199022	0.000365	3.648766	1.236235	0.000146
  38	3.6815e+00	1.4422	6.328210	0.000324	3.243348	1.098876	0.000130
  39	3.7810e+00	1.4695	6.425102	0.000243	2.432511	0.824157	0.000097
  40	3.8805e+00	1.5192	6.606773	0.000456	4.560958	1.545294	0.000183
  41	3.9800e+00	1.5657	6.719812	0.000284	2.837929	0.961516	0.000114
  42	4.0795e+00	1.5994	6.861112	0.000355	3.547412	1.201896	0.000142
  43	4.1790e+00	1.6411	7.018560	0.000395	3.952830	1.339255	0.000158
  44	4.2785e+00	1.6748	7.147749	0.000324	3.243348	1.098876	0.000130
  45	4.3780e+00	1.7213	7.289049	0.000355	3.547412	1.201896	0.000142
  46	4.4775e+00	1.7550	7.389977	0.000253	2.533865	0.858497	0.000101
  47	4.5770e+00	1.7935	7.579722	0.000476	4.763667	1.613974	0.000191
  48	4.6765e+00	1.8304	7.652391	0.000182	1.824383	0.618118	0.000073
  49	4.7760e+00	1.8802	7.809839	0.000395	3.952830	1.339255	0.000158
  50	4.8755e+00	1.9235	7.926916	0.000294	2.939284	0.995856	0.000118
  51	4.9750e+00	1.9556	8.084364	0.000395	3.952830	1.339255	0.000158
  52	5.0745e+00	1.9973	8.249887	0.000416	4.155539	1.407935	0.000166
  53	5.1740e+00	2.0358	8.403298	0.000385	3.851475	1.304915	0.000154
  54	5.2735e+00	2.0727	8.508264	0.000264	2.635220	0.892837	0.000105
  55	5.3730e+00	2.1096	8.657638	0.000375	3.750121	1.270575	0.000150
  56	5.4725e+00	2.1593	8.807012	0.000375	3.750121	1.270575	0.000150
  57	5.5720e+00	2.1882	8.944274	0.000345	3.446057	1.167556	0.000138
  58	5.6715e+00	2.2363	9.073463	0.000324	3.243348	1.098876	0.000130
  59	5.7710e+00	2.2764	9.218799	0.000365	3.648766	1.236235	0.000146
  60	5.8705e+00	2.3165	9.364136	0.000365	3.648766	1.236235	0.000146
  61	5.9700e+00	2.3695	9.521585	0.000395	3.952830	1.339255	0.000158
  62	6.0695e+00	2.3903	9.654810	0.000334	3.344702	1.133216	0.000134
  63	6.1690e+00	2.4400	9.792073	0.000345	3.446057	1.167556	0.000138
  64	6.2685e+00	2.4753	9.901075	0.000274	2.736575	0.927177	0.000110
  65	6.3680e+00	2.5154	10.062561	0.000405	4.054185	1.373595	0.000162
  66	6.4675e+00	2.5588	10.187712	0.000314	3.141993	1.064536	0.000126
  67	6.5670e+00	2.5876	10.337086	0.000375	3.750121	1.270575	0.000150
  68	6.6665e+00	2.6342	10.490497	0.000385	3.851475	1.304915	0.000154
  69	6.7660e+00	2.6727	10.651983	0.000405	4.054185	1.373595	0.000162
  70	6.8655e+00	2.7144	10.817505	0.000416	4.155539	1.407935	0.000166
  71	6.9650e+00	2.7577	10.926508	0.000274	2.736575	0.927177	0.000110
  72	7.0645e+00	2.7962	11.015325	0.000223	2.229802	0.755477	0.000089
  73	7.1640e+00	2.8299	11.205070	0.000476	4.763667	1.613974	0.000191
  74	7.2635e+00	2.8748	11.362519	0.000395	3.952830	1.339255	0.000158
  75	7.3630e+00	2.9165	11.487670	0.000314	3.141993	1.064536	0.000126
  76	7.4625e+00	2.9438	11.637044	0.000375	3.750121	1.270575	0.000150
  77	7.5620e+00	2.9855	11.746046	0.000274	2.736575	0.927177	0.000110
  78	7.6615e+00	3.0272	11.899458	0.000385	3.851475	1.304915	0.000154
  79	7.7610e+00	3.0657	12.036720	0.000345	3.446057	1.167556	0.000138
  80	7.8605e+00	3.1138	12.161871	0.000314	3.141993	1.064536	0.000126
  81	7.9600e+00	3.1475	12.331431	0.000426	4.256894	1.442275	0.000170
  82	8.0595e+00	3.2037	12.448508	0.000294	2.939284	0.995856	0.000118
  83	8.1590e+00	3.2341	12.626142	0.000446	4.459603	1.510954	0.000179
  84	8.2585e+00	3.2742	12.759368	0.000334	3.344702	1.133216	0.000134
  85	8.3580e+00	3.3063	12.856259	0.000243	2.432511	0.824157	0.000097
  86	8.4575e+00	3.3480	13.041967	0.000466	4.662312	1.579634	0.000187
  87	8.5570e+00	3.3962	13.150970	0.000274	2.736575	0.927177	0.000110
  88	8.6565e+00	3.4298	13.300344	0.000375	3.750121	1.270575	0.000150
  89	8.7560e+00	3.4732	13.461829	0.000405	4.054185	1.373595	0.000162
  90	8.8555e+00	3.5181	13.599092	0.000345	3.446057	1.167556	0.000138
  91	8.9550e+00	3.5502	13.748466	0.000375	3.750121	1.270575	0.000150
  92	9.0545e+00	3.5871	13.865543	0.000294	2.939284	0.995856	0.000118
  93	9.1540e+00	3.6336	14.043177	0.000446	4.459603	1.510954	0.000179
  94	9.2535e+00	3.6689	14.172365	0.000324	3.243348	1.098876	0.000130
  95	9.3530e+00	3.7170	14.277331	0.000264	2.635220	0.892837	0.000105
  96	9.4525e+00	3.7507	14.471113	0.000487	4.865022	1.648314	0.000195
  97	9.5520e+00	3.7876	14.600301	0.000324	3.243348	1.098876	0.000130
  98	9.6515e+00	3.8357	14.705267	0.000264	2.635220	0.892837	0.000105
  99	9.7510e+00	3.8678	14.854641	0.000375	3.750121	1.270575	0.000150
 100	9.8505e+00	3.9095	14.995941	0.000355	3.547412	1.201896	0.000142
 101	9.9500e+00	3.9544	15.161463	0.000416	4.155539	1.407935	0.000166
 102	1.0050e+01	3.9897	15.306800	0.000365	3.648766	1.236235	0.000146
 103	1.0149e+01	4.0250	15.440026	0.000334	3.344702	1.133216	0.000134
 104	1.0248e+01	4.0764	15.573251	0.000334	3.344702	1.133216	0.000134
 105	1.0348e+01	4.1116	15.726662	0.000385	3.851475	1.304915	0.000154
 106	1.0447e+01	4.1469	15.835665	0.000274	2.736575	0.927177	0.000110
 107	1.0547e+01	4.1887	15.997150	0.000405	4.054185	1.373595	0.000162
 108	1.0646e+01	4.2368	16.146524	0.000375	3.750121	1.270575	0.000150
 109	1.0746e+01	4.2705	16.247453	0.000253	2.533865	0.858497	0.000101
 110	1.0845e+01	4.3170	16.441235	0.000487	4.865022	1.648314	0.000195
 111	1.0945e+01	4.3443	16.590609	0.000375	3.750121	1.270575	0.000150
 112	1.1044e+01	4.3876	16.699612	0.000274	2.736575	0.927177	0.000110
 113	1.1144e+01	4.4277	16.857060	0.000395	3.952830	1.339255	0.000158
 114	1.1243e+01	4.4630	16.982211	0.000314	3.141993	1.064536	0.000126
 115	1.1343e+01	4.5079	17.135623	0.000385	3.851475	1.304915	0.000154
 116	1.1443e+01	4.5528	17.228477	0.000233	2.331156	0.789817	0.000093
 117	1.1542e+01	4.5833	17.426296	0.000497	4.966376	1.682654	0.000199
 118	1.1642e+01	4.6282	17.559522	0.000334	3.344702	1.133216	0.000134
 119	1.1741e+01	4.6651	17.696785	0.000345	3.446057	1.167556	0.000138
 120	1.1841e+01	4.7100	17.834047	0.000345	3.446057	1.167556	0.000138
 121	1.1940e+01	4.7453	17.971310	0.000345	3.446057	1.167556	0.000138
 122	1.2040e+01	4.7822	18.148944	0.000446	4.459603	1.510954	0.000179
 123	1.2139e+01	4.8255	18.261984	0.000284	2.837929	0.961516	0.000114
 124	1.2239e+01	4.8592	18.431543	0.000426	4.256894	1.442275	0.000170
 125	1.2338e+01	4.8929	18.556694	0.000314	3.141993	1.064536	0.000126
 126	1.2438e+01	4.9475	18.689920	0.000334	3.344702	1.133216	0.000134
 127	1.2537e+01	4.9860	18.819108	0.000324	3.243348	1.098876	0.000130
 128	1.2636e+01	5.0261	18.956371	0.000345	3.446057	1.167556	0.000138
 129	1.2736e+01	5.0630	19.105745	0.000375	3.750121	1.270575	0.000150
 130	1.2835e+01	5.1111	19.267230	0.000405	4.054185	1.373595	0.000162
 131	1.2935e+01	5.1448	19.368159	0.000253	2.533865	0.858497	0.000101
 132	1.3034e+01	5.1929	19.521570	0.000385	3.851475	1.304915	0.000154
 133	1.3134e+01	5.2234	19.674981	0.000385	3.851475	1.304915	0.000154
 134	1.3233e+01	5.2667	19.816281	0.000355	3.547412	1.201896	0.000142
 135	1.3333e+01	5.3100	19.892986	0.000193	1.925738	0.652458	0.000077
 136	1.3432e+01	5.3469	20.074657	0.000456	4.560958	1.545294	0.000183
 137	1.3532e+01	5.3950	20.187697	0.000284	2.837929	0.961516	0.000114
 138	1.3632e+01	5.4239	20.333034	0.000365	3.648766	1.236235	0.000146
 139	1.3731e+01	5.4656	20.498557	0.000416	4.155539	1.407935	0.000166
 140	1.3831e+01	5.4993	20.631782	0.000334	3.344702	1.133216	0.000134
 141	1.3930e+01	5.5394	20.785193	0.000385	3.851475	1.304915	0.000154
 142	1.4030e+01	5.5811	20.890159	0.000264	2.635220	0.892837	0.000105
 143	1.4129e+01	5.6309	21.039533	0.000375	3.750121	1.270575	0.000150
 144	1.4229e+01	5.6710	21.164684	0.000314	3.141993	1.064536	0.000126
 145	1.4328e+01	5.6934	21.314058	0.000375	3.750121	1.270575	0.000150
 146	1.4428e+01	5.7528	21.451321	0.000345	3.446057	1.167556	0.000138
 147	1.4527e+01	5.7881	21.568398	0.000294	2.939284	0.995856	0.000118
 148	1.4627e+01	5.8202	21.709697	0.000355	3.547412	1.201896	0.000142
 149	1.4726e+01	5.8683	21.842923	0.000334	3.344702	1.133216	0.000134
 150	1.4825e+01	5.8988	21.992297	0.000375	3.750121	1.270575	0.000150
 151	1.4925e+01	5.9421	22.145708	0.000385	3.851475	1.304915	0.000154
 152	1.5024e+01	5.9790	22.238562	0.000233	2.331156	0.789817	0.000093
 153	1.5124e+01	6.0287	22.387936	0.000375	3.750121	1.270575	0.000150
 154	1.5223e+01	6.0624	22.541347	0.000385	3.851475	1.304915	0.000154
 155	1.5323e+01	6.0993	22.662461	0.000304	3.040638	1.030196	0.000122
 156	1.5422e+01	6.1426	22.795687	0.000334	3.344702	1.133216	0.000134
 157	1.5522e+01	6.1907	22.920838	0.000314	3.141993	1.064536	0.000126
 158	1.5621e+01	6.2276	23.062138	0.000355	3.547412	1.201896	0.000142
 159	1.5721e+01	6.2597	23.199401	0.000345	3.446057	1.167556	0.000138
 160	1.5820e+01	6.2998	23.320515	0.000304	3.040638	1.030196	0.000122
 161	1.5920e+01	6.3335	23.477963	0.000395	3.952830	1.339255	0.000158
 162	1.6020e+01	6.3848	23.631374	0.000385	3.851475	1.304915	0.000154
 163	1.6119e+01	6.4185	23.708080	0.000193	1.925738	0.652458	0.000077
 164	1.6218e+01	6.4667	23.869565	0.000405	4.054185	1.373595	0.000162
 165	1.6318e+01	6.4955	23.962419	0.000233	2.331156	0.789817	0.000093
 166	1.6418e+01	6.5389	24.136016	0.000436	4.358248	1.476615	0.000174
 167	1.6517e+01	6.5725	24.216759	0.000203	2.027092	0.686797	0.000081
 168	1.6616e+01	6.6271	24.410541	0.000487	4.865022	1.648314	0.000195
 169	1.6716e+01	6.6528	24.547804	0.000345	3.446057	1.167556	0.000138
 170	1.6816e+01	6.6977	24.681029	0.000334	3.344702	1.133216	0.000134
 171	1.6915e+01	6.7426	24.822329	0.000355	3.547412	1.201896	0.000142
 172	1.7015e+01	6.7747	24.951517	0.000324	3.243348	1.098876	0.000130
 173	1.7114e+01	6.8100	25.056483	0.000264	2.635220	0.892837	0.000105
 174	1.7213e+01	6.8645	25.201820	0.000365	3.648766	1.236235	0.000146
 175	1.7313e+01	6.9030	25.355231	0.000385	3.851475	1.304915	0.000154
 176	1.7413e+01	6.9415	25.468271	0.000284	2.837929	0.961516	0.000114
 177	1.7512e+01	6.9736	25.641868	0.000436	4.358248	1.476615	0.000174
 178	1.7611e+01	7.0153	25.738759	0.000243	2.432511	0.824157	0.000097
 179	1.7711e+01	7.0490	25.855836	0.000294	2.939284	0.995856	0.000118
 180	1.7811e+01	7.0955	25.964838	0.000274	2.736575	0.927177	0.000110
 181	1.7910e+01	7.1324	26.122287	0.000395	3.952830	1.339255	0.000158
 182	1.8009e+01	7.1741	26.303958	0.000456	4.560958	1.545294	0.000183
 183	1.8109e+01	7.2207	26.400849	0.000243	2.432511	0.824157	0.000097
 184	1.8209e+01	7.2511	26.530038	0.000324	3.243348	1.098876	0.000130
 185	1.8308e+01	7.3025	26.691523	0.000405	4.054185	1.373595	0.000162
 186	1.8407e+01	7.3329	26.796488	0.000264	2.635220	0.892837	0.000105
 187	1.8507e+01	7.3779	26.949900	0.000385	3.851475	1.304915	0.000154
 188	1.8607e+01	7.4180	27.062939	0.000284	2.837929	0.961516	0.000114
 189	1.8706e+01	7.4517	27.175979	0.000284	2.837929	0.961516	0.000114
 190	1.8805e+01	7.4902	27.365725	0.000476	4.763667	1.613974	0.000191
 191	1.8905e+01	7.5383	27.486839	0.000304	3.040638	1.030196	0.000122
 192	1.9005e+01	7.5784	27.587767	0.000253	2.533865	0.858497	0.000101
 193	1.9104e+01	7.6073	27.716955	0.000324	3.243348	1.098876	0.000130
 194	1.9203e+01	7.6538	27.850181	0.000334	3.344702	1.133216	0.000134
 195	1.9303e+01	7.6987	27.959184	0.000274	2.736575	0.927177	0.000110
 196	1.9402e+01	7.7308	28.096446	0.000345	3.446057	1.167556	0.000138
 197	1.9502e+01	7.7677	28.253894	0.000395	3.952830	1.339255	0.000158
 198	1.9602e+01	7.8206	28.346749	0.000233	2.331156	0.789817	0.000093
 199	1.9701e+01	7.8543	28.516308	0.000426	4.256894	1.442275	0.000170
 200	1.9800e+01	7.8896	28.609162	0.000233	2.331156	0.789817	0.000093
 201	1.9900e+01	7.9313	28.750462	0.000355	3.547412	1.201896	0.000142
 202	2.0000e+01	7.9746	28.895799	0.000365	3.648766	1.236235	0.000146
 203	2.0099e+01	8.0244	29.041136	0.000365	3.648766	1.236235	0.000146
 204	2.0198e+01	8.0565	29.158213	0.000294	2.939284	0.995856	0.000118
 205	2.0298e+01	8.0869	29.267216	0.000274	2.736575	0.927177	0.000110
 206	2.0398e+01	8.1367	29.392367	0.000314	3.141993	1.064536	0.000126
 207	2.0497e+01	8.1655	29.521555	0.000324	3.243348	1.098876	0.000130
 208	2.0596e+01	8.2201	29.662855	0.000355	3.547412	1.201896	0.000142
 209	2.0696e+01	8.2490	29.788006	0.000314	3.141993	1.064536	0.000126
 210	2.0796e+01	8.2875	29.929306	0.000355	3.547412	1.201896	0.000142
 211	2.0895e+01	8.3292	30.054457	0.000314	3.141993	1.064536	0.000126
 212	2.0994e+01	8.3757	30.183645	0.000324	3.243348	1.098876	0.000130
 213	2.1094e+01	8.4094	30.308797	0.000314	3.141993	1.064536	0.000126
 214	2.1194e+01	8.4495	30.437985	0.000324	3.243348	1.098876	0.000130
 215	2.1293e+01	8.4976	30.571210	0.000334	3.344702	1.133216	0.000134
 216	2.1392e+01	8.5329	30.700399	0.000324	3.243348	1.098876	0.000130
 217	2.1492e+01	8.5714	30.821513	0.000304	3.040638	1.030196	0.000122
 218	2.1591e+01	8.6099	30.950701	0.000324	3.243348	1.098876	0.000130
 219	2.1691e+01	8.6484	31.096038	0.000365	3.648766	1.236235	0.000146
 220	2.1791e+01	8.6949	31.213115	0.000294	2.939284	0.995856	0.000118
 221	2.1890e+01	8.7238	31.338266	0.000314	3.141993	1.064536	0.000126
 222	2.1989e+01	8.7703	31.495714	0.000395	3.952830	1.339255	0.000158
 223	2.2089e+01	8.8153	31.592606	0.000243	2.432511	0.824157	0.000097
 224	2.2189e+01	8.8538	31.750054	0.000395	3.952830	1.339255	0.000158
 225	2.2288e+01	8.8891	31.855020	0.000264	2.635220	0.892837	0.000105
 226	2.2387e+01	8.9340	31.992282	0.000345	3.446057	1.167556	0.000138
 227	2.2487e+01	8.9677	32.153768	0.000405	4.054185	1.373595	0.000162
 228	2.2587e+01	9.0110	32.270845	0.000294	2.939284	0.995856	0.000118
 229	2.2686e+01	9.0366	32.355624	0.000213	2.128447	0.721137	0.000085
 230	2.2785e+01	9.0848	32.545370	0.000476	4.763667	1.613974	0.000191
 231	2.2885e+01	9.1313	32.642261	0.000243	2.432511	0.824157	0.000097
 232	2.2985e+01	9.1730	32.787598	0.000365	3.648766	1.236235	0.000146
 233	2.3084e+01	9.2115	32.920823	0.000334	3.344702	1.133216	0.000134
 234	2.3183e+01	9.2388	33.017715	0.000243	2.432511	0.824157	0.000097
 235	2.3283e+01	9.2837	33.183237	0.000416	4.155539	1.407935	0.000166
 236	2.3383e+01	9.3302	33.300314	0.000294	2.939284	0.995856	0.000118
 237	2.3482e+01	9.3735	33.413354	0.000284	2.837929	0.961516	0.000114
 238	2.3581e+01	9.4152	33.554654	0.000355	3.547412	1.201896	0.000142
 239	2.3681e+01	9.4489	33.671731	0.000294	2.939284	0.995856	0.000118
 240	2.3780e+01	9.4971	33.833216	0.000405	4.054185	1.373595	0.000162
 241	2.3880e+01	9.5291	33.922033	0.000223	2.229802	0.755477	0.000089
 242	2.3980e+01	9.5676	34.043147	0.000304	3.040638	1.030196	0.000122
 243	2.4079e+01	9.6094	34.224818	0.000456	4.560958	1.545294	0.000183
 244	2.4178e+01	9.6591	34.321709	0.000243	2.432511	0.824157	0.000097
 245	2.4278e+01	9.6848	34.414564	0.000233	2.331156	0.789817	0.000093
 246	2.4378e+01	9.7249	34.559900	0.000365	3.648766	1.236235	0.000146
 247	2.4477e+01	9.7666	34.672940	0.000284	2.837929	0.961516	0.000114
 248	2.4576e+01	9.8051	34.790017	0.000294	2.939284	0.995856	0.000118
 249	2.4676e+01	9.8468	34.919206	0.000324	3.243348	1.098876	0.000130
 250	2.4776e+01	9.8853	35.028208	0.000274	2.736575	0.927177	0.000110
 251	2.4875e+01	9.9270	35.185657	0.000395	3.952830	1.339255	0.000158
 252	2.4974e+01	9.9655	35.310808	0.000314	3.141993	1.064536	0.000126
 253	2.5074e+01	10.0072	35.407699	0.000243	2.432511	0.824157	0.000097
 254	2.5174e+01	10.0473	35.548999	0.000355	3.547412	1.201896	0.000142
 255	2.5273e+01	10.0842	35.706447	0.000395	3.952830	1.339255	0.000158
 256	2.5372e+01	10.1355	35.791227	0.000213	2.128447	0.721137	0.000085
 257	2.5472e+01	10.1644	35.932527	0.000355	3.547412	1.201896	0.000142
 258	2.5572e+01	10.2061	36.053641	0.000304	3.040638	1.030196	0.000122
 259	2.5671e+01	10.2462	36.170718	0.000294	2.939284	0.995856	0.000118
 260	2.5770e+01	10.2928	36.271646	0.000253	2.533865	0.858497	0.000101
 261	2.5870e+01	10.3168	36.404872	0.000334	3.344702	1.133216	0.000134
 262	2.5970e+01	10.3649	36.505800	0.000253	2.533865	0.858497	0.000101
 263	2.6069e+01	10.4002	36.647100	0.000355	3.547412	1.201896	0.000142
 264	2.6169e+01	10.4420	36.776288	0.000324	3.243348	1.098876	0.000130
 265	2.6268e+01	10.4821	36.937773	0.000405	4.054185	1.373595	0.000162
 266	2.6367e+01	10.5206	37.038702	0.000253	2.533865	0.858497	0.000101
 267	2.6467e+01	10.5542	37.143667	0.000264	2.635220	0.892837	0.000105
 268	2.6567e+01	10.6088	37.293041	0.000375	3.750121	1.270575	0.000150
 269	2.6666e+01	10.6425	37.385896	0.000233	2.331156	0.789817	0.000093
 270	2.6765e+01	10.6778	37.511047	0.000314	3.141993	1.064536	0.000126
 271	2.6865e+01	10.7275	37.632161	0.000304	3.040638	1.030196	0.000122
 272	2.6965e+01	10.7660	37.801720	0.000426	4.256894	1.442275	0.000170
 273	2.7064e+01	10.8061	37.866315	0.000162	1.621674	0.549438	0.000065
 274	2.7163e+01	10.8430	38.015689	0.000375	3.750121	1.270575	0.000150
 275	2.7263e+01	10.8783	38.112580	0.000243	2.432511	0.824157	0.000097
 276	2.7363e+01	10.9232	38.249843	0.000345	3.446057	1.167556	0.000138
 277	2.7462e+01	10.9601	38.338660	0.000223	2.229802	0.755477	0.000089
 278	2.7561e+01	11.0018	38.492071	0.000385	3.851475	1.304915	0.000154
 279	2.7661e+01	11.0419	38.584925	0.000233	2.331156	0.789817	0.000093
 280	2.7761e+01	11.0901	38.714113	0.000324	3.243348	1.098876	0.000130
 281	2.7860e+01	11.1109	38.835227	0.000304	3.040638	1.030196	0.000122
 282	2.7959e+01	11.1606	38.988638	0.000385	3.851475	1.304915	0.000154
 283	2.8059e+01	11.1959	39.085530	0.000243	2.432511	0.824157	0.000097
 284	2.8159e+01	11.2425	39.214718	0.000324	3.243348	1.098876	0.000130
 285	2.8258e+01	11.2826	39.311609	0.000243	2.432511	0.824157	0.000097
 286	2.8358e+01	11.3211	39.456946	0.000365	3.648766	1.236235	0.000146
 287	2.8457e+01	11.3564	39.549800	0.000233	2.331156	0.789817	0.000093
 288	2.8556e+01	11.3981	39.687063	0.000345	3.446057	1.167556	0.000138
 289	2.8656e+01	11.4430	39.828363	0.000355	3.547412	1.201896	0.000142
 290	2.8756e+01	11.4751	39.905068	0.000193	1.925738	0.652458	0.000077
 291	2.8855e+01	11.5232	40.038294	0.000334	3.344702	1.133216	0.000134
 292	2.8954e+01	11.5569	40.191705	0.000385	3.851475	1.304915	0.000154
 293	2.9054e+01	11.5906	40.316856	0.000314	3.141993	1.064536	0.000126
 294	2.9154e+01	11.6451	40.397599	0.000203	2.027092	0.686797	0.000081
 295	2.9253e+01	11.6868	40.506601	0.000274	2.736575	0.927177	0.000110
 296	2.9352e+01	11.7125	40.643864	0.000345	3.446057	1.167556	0.000138
 297	2.9452e+01	11.7590	40.704421	0.000152	1.520319	0.515098	0.000061
 298	2.9552e+01	11.8007	40.857832	0.000385	3.851475	1.304915	0.000154
 299	2.9651e+01	11.8392	40.938575	0.000203	2.027092	0.686797	0.000081
 300	2.9750e+01	11.8761	41.063726	0.000314	3.141993	1.064536	0.000126
 301	2.9850e+01	11.9194	41.172729	0.000274	2.736575	0.927177	0.000110
 302	2.9950e+01	11.9499	41.305954	0.000334	3.344702	1.133216	0.000134
 303	3.0049e+01	11.9916	41.447254	0.000355	3.547412	1.201896	0.000142
 304	3.0148e+01	12.0414	41.552220	0.000264	2.635220	0.892837	0.000105
 305	3.0248e+01	12.0799	41.701594	0.000375	3.750121	1.270575	0.000150
 306	3.0348e+01	12.1200	41.770225	0.000172	1.723028	0.583778	0.000069
 307	3.0447e+01	12.1569	41.903450	0.000334	3.344702	1.133216	0.000134
 308	3.0547e+01	12.1970	41.968045	0.000162	1.621674	0.549438	0.000065
 309	3.0646e+01	12.2387	42.129530	0.000405	4.054185	1.373595	0.000162
 310	3.0745e+01	12.2788	42.242570	0.000284	2.837929	0.961516	0.000114
 311	3.0845e+01	12.3285	42.351572	0.000274	2.736575	0.927177	0.000110
 312	3.0945e+01	12.3606	42.448464	0.000243	2.432511	0.824157	0.000097
 313	3.1044e+01	12.4023	42.569578	0.000304	3.040638	1.030196	0.000122
 314	3.1143e+01	12.4312	42.646283	0.000193	1.925738	0.652458	0.000077
 315	3.1243e+01	12.4761	42.791620	0.000365	3.648766	1.236235	0.000146
 316	3.1343e+01	12.5098	42.872363	0.000203	2.027092	0.686797	0.000081
 317	3.1442e+01	12.5451	43.033848	0.000405	4.054185	1.373595	0.000162
 318	3.1541e+01	12.5996	43.078257	0.000111	1.114901	0.377739	0.000045
 319	3.1641e+01	12.6478	43.239742	0.000405	4.054185	1.373595	0.000162
 320	3.1741e+01	12.6783	43.348745	0.000274	2.736575	0.927177	0.000110
 321	3.1840e+01	12.7168	43.445636	0.000243	2.432511	0.824157	0.000097
 322	3.1939e+01	12.7585	43.566750	0.000304	3.040638	1.030196	0.000122
 323	3.2039e+01	12.7938	43.671716	0.000264	2.635220	0.892837	0.000105
 324	3.2139e+01	12.8339	43.788793	0.000294	2.939284	0.995856	0.000118
 325	3.2238e+01	12.8756	43.857424	0.000172	1.723028	0.583778	0.000069
 326	3.2337e+01	12.9237	43.998724	0.000355	3.547412	1.201896	0.000142
 327	3.2437e+01	12.9478	44.135986	0.000345	3.446057	1.167556	0.000138
 328	3.2536e+01	12.9991	44.232878	0.000243	2.432511	0.824157	0.000097
 329	3.2636e+01	13.0312	44.341880	0.000274	2.736575	0.927177	0.000110
 330	3.2736e+01	13.0681	44.426660	0.000213	2.128447	0.721137	0.000085
 331	3.2835e+01	13.1098	44.551811	0.000314	3.141993	1.064536	0.000126
 332	3.2934e+01	13.1595	44.652740	0.000253	2.533865	0.858497	0.000101
 333	3.3034e+01	13.1836	44.753668	0.000253	2.533865	0.858497	0.000101
 334	3.3133e+01	13.2365	44.882857	0.000324	3.243348	1.098876	0.000130
 335	3.3233e+01	13.2718	44.975711	0.000233	2.331156	0.789817	0.000093
 336	3.3333e+01	13.3135	45.121048	0.000365	3.648766	1.236235	0.000146
 337	3.3432e+01	13.3536	45.209865	0.000223	2.229802	0.755477	0.000089
 338	3.3532e+01	13.3873	45.318867	0.000274	2.736575	0.927177	0.000110
 339	3.3631e+01	13.4322	45.439981	0.000304	3.040638	1.030196	0.000122
 340	3.3730e+01	13.4756	45.532835	0.000233	2.331156	0.789817	0.000093
 341	3.3830e+01	13.5205	45.678172	0.000365	3.648766	1.236235	0.000146
 342	3.3929e+01	13.5397	45.766989	0.000223	2.229802	0.755477	0.000089
 343	3.4029e+01	13.5927	45.839658	0.000182	1.824383	0.618118	0.000073
 344	3.4129e+01	13.6264	46.013255	0.000436	4.358248	1.476615	0.000174
 345	3.4228e+01	13.6729	46.049589	0.000091	0.912192	0.309059	0.000037
 346	3.4328e+01	13.7114	46.231260	0.000456	4.560958	1.545294	0.000183
 347	3.4427e+01	13.7579	46.324114	0.000233	2.331156	0.789817	0.000093
 348	3.4526e+01	13.7884	46.437154	0.000284	2.837929	0.961516	0.000114
 349	3.4626e+01	13.8333	46.525971	0.000223	2.229802	0.755477	0.000089
 350	3.4725e+01	13.8702	46.618825	0.000233	2.331156	0.789817	0.000093
 351	3.4825e+01	13.9055	46.780310	0.000405	4.054185	1.373595	0.000162
 352	3.4925e+01	13.9488	46.808570	0.000071	0.709482	0.240379	0.000028
 353	3.5024e+01	13.9937	46.949870	0.000355	3.547412	1.201896	0.000142
 354	3.5123e+01	14.0370	47.066947	0.000294	2.939284	0.995856	0.000118
 355	3.5223e+01	14.0739	47.167875	0.000253	2.533865	0.858497	0.000101
 356	3.5322e+01	14.1124	47.325324	0.000395	3.952830	1.339255	0.000158
 357	3.5422e+01	14.1477	47.402029	0.000193	1.925738	0.652458	0.000077
 358	3.5522e+01	14.1894	47.498921	0.000243	2.432511	0.824157	0.000097
 359	3.5621e+01	14.2295	47.599849	0.000253	2.533865	0.858497	0.000101
 360	3.5721e+01	14.2713	47.676554	0.000193	1.925738	0.652458	0.000077
 361	3.5820e+01	14.3049	47.813817	0.000345	3.446057	1.167556	0.000138
 362	3.5919e+01	14.3531	47.918783	0.000264	2.635220	0.892837	0.000105
 363	3.6019e+01	14.3836	48.027785	0.000274	2.736575	0.927177	0.000110
 364	3.6118e+01	14.4221	48.177159	0.000375	3.750121	1.270575	0.000150
 365	3.6218e+01	14.4702	48.265976	0.000223	2.229802	0.755477	0.000089
 366	3.6318e+01	14.5023	48.346719	0.000203	2.027092	0.686797	0.000081
 367	3.6417e+01	14.5440	48.447647	0.000253	2.533865	0.858497	0.000101
 368	3.6517e+01	14.5905	48.576836	0.000324	3.243348	1.098876	0.000130
 369	3.6616e+01	14.6354	48.673727	0.000243	2.432511	0.824157	0.000097
 370	3.6715e+01	14.6691	48.786767	0.000284	2.837929	0.961516	0.000114
 371	3.6815e+01	14.7076	48.879621	0.000233	2.331156	0.789817	0.000093
 372	3.6914e+01	14.7493	48.980549	0.000253	2.533865	0.858497	0.000101
 373	3.7014e+01	14.7846	49.097626	0.000294	2.939284	0.995856	0.000118
 374	3.7114e+01	14.8231	49.194518	0.000243	2.432511	0.824157	0.000097
 375	3.7213e+01	14.8552	49.291409	0.000243	2.432511	0.824157	0.000097
 376	3.7313e+01	14.8953	49.428671	0.000345	3.446057	1.167556	0.000138
 377	3.7412e+01	14.9466	49.549785	0.000304	3.040638	1.030196	0.000122
 378	3.7511e+01	14.9771	49.582083	0.000081	0.810837	0.274719	0.000032
 379	3.7611e+01	15.0220	49.743568	0.000405	4.054185	1.373595	0.000162
 380	3.7711e+01	15.0621	49.852571	0.000274	2.736575	0.927177	0.000110
 381	3.7810e+01	15.1071	49.913128	0.000152	1.520319	0.515098	0.000061
 382	3.7910e+01	15.1488	50.074613	0.000405	4.054185	1.373595	0.000162
 383	3.8009e+01	15.1873	50.175542	0.000253	2.533865	0.858497	0.000101
 384	3.8108e+01	15.2161	50.276470	0.000253	2.533865	0.858497	0.000101
 385	3.8208e+01	15.2611	50.341064	0.000162	1.621674	0.549438	0.000065
 386	3.8307e+01	15.3092	50.466215	0.000314	3.141993	1.064536	0.000126
 387	3.8407e+01	15.3541	50.591367	0.000314	3.141993	1.064536	0.000126
 388	3.8507e+01	15.3846	50.672109	0.000203	2.027092	0.686797	0.000081
 389	3.8606e+01	15.4279	50.773038	0.000253	2.533865	0.858497	0.000101
 390	3.8706e+01	15.4712	50.861855	0.000223	2.229802	0.755477	0.000089
 391	3.8805e+01	15.5065	50.995080	0.000334	3.344702	1.133216	0.000134
 392	3.8904e+01	15.5466	51.083897	0.000223	2.229802	0.755477	0.000089
 393	3.9004e+01	15.5787	51.221160	0.000345	3.446057	1.167556	0.000138
 394	3.9103e+01	15.6140	51.318051	0.000243	2.432511	0.824157	0.000097
 395	3.9203e+01	15.6621	51.394757	0.000193	1.925738	0.652458	0.000077
 396	3.9303e+01	15.7006	51.540093	0.000365	3.648766	1.236235	0.000146
 397	3.9402e+01	15.7423	51.649096	0.000274	2.736575	0.927177	0.000110
 398	3.9502e+01	15.7889	51.725802	0.000193	1.925738	0.652458	0.000077
 399	3.9601e+01	15.8145	51.871139	0.000365	3.648766	1.236235	0.000146
 400	3.9700e+01	15.8578	51.984178	0.000284	2.837929	0.961516	0.000114
 401	3.9800e+01	15.9012	52.072995	0.000223	2.229802	0.755477	0.000089
 402	3.9900e+01	15.9364	52.157775	0.000213	2.128447	0.721137	0.000085
 403	3.9999e+01	15.9862	52.238518	0.000203	2.027092	0.686797	0.000081
 404	4.0099e+01	16.0167	52.395966	0.000395	3.952830	1.339255	0.000158
 405	4.0198e+01	16.0600	52.484783	0.000223	2.229802	0.755477	0.000089
 406	4.0297e+01	16.1001	52.613972	0.000324	3.243348	1.098876	0.000130
 407	4.0397e+01	16.1418	52.706826	0.000233	2.331156	0.789817	0.000093
 408	4.0496e+01	16.1867	52.779494	0.000182	1.824383	0.618118	0.000073
 409	4.0596e+01	16.2172	52.916757	0.000345	3.446057	1.167556	0.000138
 410	4.0696e+01	16.2557	53.021722	0.000264	2.635220	0.892837	0.000105
 411	4.0795e+01	16.2990	53.126688	0.000264	2.635220	0.892837	0.000105
 412	4.0895e+01	16.3311	53.211468	0.000213	2.128447	0.721137	0.000085
 413	4.0994e+01	16.3776	53.300285	0.000223	2.229802	0.755477	0.000089
 414	4.1093e+01	16.4209	53.433510	0.000334	3.344702	1.133216	0.000134
 415	4.1193e+01	16.4610	53.494067	0.000152	1.520319	0.515098	0.000061
 416	4.1292e+01	16.4995	53.639404	0.000365	3.648766	1.236235	0.000146
 417	4.1392e+01	16.5396	53.703998	0.000162	1.621674	0.549438	0.000065
 418	4.1492e+01	16.5814	53.829149	0.000314	3.141993	1.064536	0.000126
 419	4.1591e+01	16.6231	53.938152	0.000274	2.736575	0.927177	0.000110
 420	4.1691e+01	16.6648	54.014858	0.000193	1.925738	0.652458	0.000077
 421	4.1790e+01	16.6936	54.119823	0.000264	2.635220	0.892837	0.000105
 422	4.1889e+01	16.7482	54.240937	0.000304	3.040638	1.030196	0.000122
 423	4.1989e+01	16.7803	54.353977	0.000284	2.837929	0.961516	0.000114
 424	4.2089e+01	16.8124	54.438757	0.000213	2.128447	0.721137	0.000085
 425	4.2188e+01	16.8653	54.543722	0.000264	2.635220	0.892837	0.000105
 426	4.2288e+01	16.8958	54.636577	0.000233	2.331156	0.789817	0.000093
 427	4.2387e+01	16.9295	54.737505	0.000253	2.533865	0.858497	0.000101
 428	4.2486e+01	16.9760	54.858619	0.000304	3.040638	1.030196	0.000122
 429	4.2586e+01	17.0193	54.943399	0.000213	2.128447	0.721137	0.000085
 430	4.2685e+01	17.0610	55.036253	0.000233	2.331156	0.789817	0.000093
 431	4.2785e+01	17.0995	55.129107	0.000233	2.331156	0.789817	0.000093
 432	4.2885e+01	17.1396	55.246184	0.000294	2.939284	0.995856	0.000118
 433	4.2984e+01	17.1701	55.343075	0.000243	2.432511	0.824157	0.000097
 434	4.3084e+01	17.2134	55.439967	0.000243	2.432511	0.824157	0.000097
 435	4.3183e+01	17.2583	55.548969	0.000274	2.736575	0.927177	0.000110
 436	4.3282e+01	17.2952	55.666046	0.000294	2.939284	0.995856	0.000118
 437	4.3382e+01	17.3369	55.734677	0.000172	1.723028	0.583778	0.000069
 438	4.3481e+01	17.3706	55.823494	0.000223	2.229802	0.755477	0.000089
 439	4.3581e+01	17.4236	55.960757	0.000345	3.446057	1.167556	0.000138
 440	4.3681e+01	17.4541	56.037463	0.000193	1.925738	0.652458	0.000077
 441	4.3780e+01	17.4974	56.150502	0.000284	2.837929	0.961516	0.000114
 442	4.3880e+01	17.5343	56.231245	0.000203	2.027092	0.686797	0.000081
 443	4.3979e+01	17.5744	56.352359	0.000304	3.040638	1.030196	0.000122
 444	4.4078e+01	17.6177	56.449250	0.000243	2.432511	0.824157	0.000097
 445	4.4178e+01	17.6546	56.554216	0.000264	2.635220	0.892837	0.000105
 446	4.4278e+01	17.7011	56.659182	0.000264	2.635220	0.892837	0.000105
 447	4.4377e+01	17.7332	56.768184	0.000274	2.736575	0.927177	0.000110
 448	4.4477e+01	17.7717	56.824704	0.000142	1.418965	0.480758	0.000057
 449	4.4576e+01	17.8102	56.937744	0.000284	2.837929	0.961516	0.000114
 450	4.4675e+01	17.8615	57.083081	0.000365	3.648766	1.236235	0.000146
 451	4.4775e+01	17.8920	57.143638	0.000152	1.520319	0.515098	0.000061
 452	4.4874e+01	17.9273	57.260715	0.000294	2.939284	0.995856	0.000118
 453	4.4974e+01	17.9706	57.365680	0.000264	2.635220	0.892837	0.000105
 454	4.5074e+01	18.0252	57.462572	0.000243	2.432511	0.824157	0.000097
 455	4.5173e+01	18.0540	57.527166	0.000162	1.621674	0.549438	0.000065
 456	4.5273e+01	18.1022	57.636168	0.000274	2.736575	0.927177	0.000110
 457	4.5372e+01	18.1310	57.729022	0.000233	2.331156	0.789817	0.000093
 458	4.5471e+01	18.1840	57.846099	0.000294	2.939284	0.995856	0.000118
 459	4.5571e+01	18.2032	57.922805	0.000193	1.925738	0.652458	0.000077
 460	4.5670e+01	18.2481	58.015659	0.000233	2.331156	0.789817	0.000093
 461	4.5770e+01	18.2883	58.128699	0.000284	2.837929	0.961516	0.000114
 462	4.5870e+01	18.3332	58.197330	0.000172	1.723028	0.583778	0.000069
 463	4.5969e+01	18.3749	58.342667	0.000365	3.648766	1.236235	0.000146
 464	4.6069e+01	18.4038	58.423410	0.000203	2.027092	0.686797	0.000081
 465	4.6168e+01	18.4455	58.492041	0.000172	1.723028	0.583778	0.000069
 466	4.6267e+01	18.4936	58.645452	0.000385	3.851475	1.304915	0.000154
 467	4.6367e+01	18.5417	58.746381	0.000253	2.533865	0.858497	0.000101
 468	4.6467e+01	18.5674	58.835198	0.000223	2.229802	0.755477	0.000089
 469	4.6566e+01	18.6123	58.956312	0.000304	3.040638	1.030196	0.000122
 470	4.6666e+01	18.6540	59.033017	0.000193	1.925738	0.652458	0.000077
 471	4.6765e+01	18.6877	59.121834	0.000223	2.229802	0.755477	0.000089
 472	4.6864e+01	18.7294	59.206614	0.000213	2.128447	0.721137	0.000085
 473	4.6964e+01	18.7695	59.291394	0.000213	2.128447	0.721137	0.000085
 474	4.7063e+01	18.8193	59.376174	0.000213	2.128447	0.721137	0.000085
 475	4.7163e+01	18.8497	59.505362	0.000324	3.243348	1.098876	0.000130
 476	4.7263e+01	18.8882	59.582068	0.000193	1.925738	0.652458	0.000077
 477	4.7362e+01	18.9348	59.650699	0.000172	1.723028	0.583778	0.000069
 478	4.7462e+01	18.9717	59.751627	0.000253	2.533865	0.858497	0.000101
 479	4.7561e+01	19.0086	59.844482	0.000233	2.331156	0.789817	0.000093
 480	4.7660e+01	19.0535	59.949447	0.000264	2.635220	0.892837	0.000105
 481	4.7760e+01	19.0872	60.010004	0.000152	1.520319	0.515098	0.000061
 482	4.7859e+01	19.1257	60.171490	0.000405	4.054185	1.373595	0.000162
 483	4.7959e+01	19.1722	60.211861	0.000101	1.013546	0.343399	0.000041
 484	4.8059e+01	19.2123	60.296641	0.000213	2.128447	0.721137	0.000085
 485	4.8158e+01	19.2460	60.385458	0.000223	2.229802	0.755477	0.000089
 486	4.8258e+01	19.2925	60.458126	0.000182	1.824383	0.618118	0.000073
 487	4.8357e+01	19.3246	60.571166	0.000284	2.837929	0.961516	0.000114
 488	4.8456e+01	19.3695	60.659983	0.000223	2.229802	0.755477	0.000089
 489	4.8556e+01	19.4080	60.768986	0.000274	2.736575	0.927177	0.000110
 490	4.8656e+01	19.4401	60.833580	0.000162	1.621674	0.549438	0.000065
 491	4.8755e+01	19.4914	60.918360	0.000213	2.128447	0.721137	0.000085
 492	4.8855e+01	19.5283	61.027362	0.000274	2.736575	0.927177	0.000110
 493	4.8954e+01	19.5732	61.128291	0.000253	2.533865	0.858497	0.000101
 494	4.9053e+01	19.5989	61.221145	0.000233	2.331156	0.789817	0.000093
 495	4.9153e+01	19.6438	61.301888	0.000203	2.027092	0.686797	0.000081
 496	4.9252e+01	19.6920	61.435113	0.000334	3.344702	1.133216	0.000134
 497	4.9352e+01	19.7273	61.499707	0.000162	1.621674	0.549438	0.000065
 498	4.9452e+01	19.7722	61.564301	0.000162	1.621674	0.549438	0.000065
 499	4.9551e+01	19.8059	61.725787	0.000405	4.054185	1.373595	0.000162
 500	4.9651e+01	19.8460	61.790381	0.000162	1.621674	0.549438	0.000065
 501	4.9750e+01	19.8861	61.850938	0.000152	1.520319	0.515098	0.000061
 502	4.9849e+01	19.9262	61.963978	0.000284	2.837929	0.961516	0.000114
 503	4.9949e+01	19.9679	62.060869	0.000243	2.432511	0.824157	0.000097
 504	5.0048e+01	19.9246	62.008386	0.000132	1.317610	0.446418	-0.000053
 505	5.0148e+01	19.8877	61.915532	0.000233	2.331156	0.789817	-0.000093
 506	5.0248e+01	19.8444	61.838827	0.000193	1.925738	0.652458	-0.000077
 507	5.0347e+01	19.8091	61.786344	0.000132	1.317610	0.446418	-0.000053
 508	5.0447e+01	19.7674	61.689453	0.000243	2.432511	0.824157	-0.000097
 509	5.0546e+01	19.7256	61.608710	0.000203	2.027092	0.686797	-0.000081
 510	5.0645e+01	19.6823	61.523930	0.000213	2.128447	0.721137	-0.000085
 511	5.0745e+01	19.6583	61.435113	0.000223	2.229802	0.755477	-0.000089
 512	5.0844e+01	19.6005	61.390705	0.000111	1.114901	0.377739	-0.000045
 513	5.0944e+01	19.5636	61.301888	0.000223	2.229802	0.755477	-0.000089
 514	5.1044e+01	19.5347	61.204996	0.000243	2.432511	0.824157	-0.000097
 515	5.1143e+01	19.4818	61.144439	0.000152	1.520319	0.515098	-0.000061
 516	5.1242e+01	19.4465	61.116179	0.000071	0.709482	0.240379	-0.000028
 517	5.1342e+01	19.4000	60.991028	0.000314	3.141993	1.064536	-0.000126
 518	5.1441e+01	19.3727	60.906248	0.000213	2.128447	0.721137	-0.000085
 519	5.1541e+01	19.3166	60.853766	0.000132	1.317610	0.446418	-0.000053
 520	5.1641e+01	19.2925	60.789171	0.000162	1.621674	0.549438	-0.000065
 521	5.1740e+01	19.2540	60.688243	0.000253	2.533865	0.858497	-0.000101
 522	5.1840e+01	19.2187	60.611537	0.000193	1.925738	0.652458	-0.000077
 523	5.1939e+01	19.1658	60.526758	0.000213	2.128447	0.721137	-0.000085
 524	5.2038e+01	19.1273	60.429866	0.000243	2.432511	0.824157	-0.000097
 525	5.2138e+01	19.0920	60.361235	0.000172	1.723028	0.583778	-0.000069
 526	5.2237e+01	19.0503	60.296641	0.000162	1.621674	0.549438	-0.000065
 527	5.2337e+01	19.0102	60.191675	0.000264	2.635220	0.892837	-0.000105
 528	5.2437e+01	18.9701	60.094784	0.000243	2.432511	0.824157	-0.000097
 529	5.2536e+01	18.9299	60.042301	0.000132	1.317610	0.446418	-0.000053
 530	5.2636e+01	18.8866	59.949447	0.000233	2.331156	0.789817	-0.000093
 531	5.2735e+01	18.8465	59.848519	0.000253	2.533865	0.858497	-0.000101
 532	5.2834e+01	18.8096	59.771813	0.000193	1.925738	0.652458	-0.000077
 533	5.2934e+01	18.7743	59.670885	0.000253	2.533865	0.858497	-0.000101
 534	5.3033e+01	18.7326	59.606291	0.000162	1.621674	0.549438	-0.000065
 535	5.3133e+01	18.6877	59.557845	0.000122	1.216255	0.412078	-0.000049
 536	5.3233e+01	18.6524	59.456917	0.000253	2.533865	0.858497	-0.000101
 537	5.3332e+01	18.6155	59.335803	0.000304	3.040638	1.030196	-0.000122
 538	5.3431e+01	18.5706	59.255060	0.000203	2.027092	0.686797	-0.000081
 539	5.3531e+01	18.5353	59.194503	0.000152	1.520319	0.515098	-0.000061
 540	5.3630e+01	18.4936	59.085500	0.000274	2.736575	0.927177	-0.000110
 541	5.3730e+01	18.4567	59.016869	0.000172	1.723028	0.583778	-0.000069
 542	5.3830e+01	18.4214	58.936126	0.000203	2.027092	0.686797	-0.000081
 543	5.3929e+01	18.3781	58.827123	0.000274	2.736575	0.927177	-0.000110
 544	5.4029e+01	18.3284	58.742344	0.000213	2.128447	0.721137	-0.000085
 545	5.4128e+01	18.2915	58.685824	0.000142	1.418965	0.480758	-0.000057
 546	5.4227e+01	18.2514	58.588932	0.000243	2.432511	0.824157	-0.000097
 547	5.4327e+01	18.2129	58.496078	0.000233	2.331156	0.789817	-0.000093
 548	5.4426e+01	18.1727	58.407261	0.000223	2.229802	0.755477	-0.000089
 549	5.4526e+01	18.1359	58.342667	0.000162	1.621674	0.549438	-0.000065
 550	5.4626e+01	18.0974	58.253850	0.000223	2.229802	0.755477	-0.000089
 551	5.4725e+01	18.0572	58.165033	0.000223	2.229802	0.755477	-0.000089
 552	5.4825e+01	18.0171	58.092365	0.000182	1.824383	0.618118	-0.000073
 553	5.4924e+01	17.9706	58.015659	0.000193	1.925738	0.652458	-0.000077
 554	5.5023e+01	17.9321	57.894545	0.000304	3.040638	1.030196	-0.000122
 555	5.5123e+01	17.8936	57.890508	0.000010	0.101355	0.034340	-0.000004
 556	5.5222e+01	17.8583	57.716911	0.000436	4.358248	1.476615	-0.000174
 557	5.5322e+01	17.8102	57.664428	0.000132	1.317610	0.446418	-0.000053
 558	5.5422e+01	17.7765	57.607908	0.000142	1.418965	0.480758	-0.000057
 559	5.5521e+01	17.7300	57.486794	0.000304	3.040638	1.030196	-0.000122
 560	5.5620e+01	17.6947	57.414126	0.000182	1.824383	0.618118	-0.000073
 561	5.5720e+01	17.6546	57.321272	0.000233	2.331156	0.789817	-0.000093
 562	5.5819e+01	17.6161	57.288975	0.000081	0.810837	0.274719	-0.000032
 563	5.5919e+01	17.5792	57.159786	0.000324	3.243348	1.098876	-0.000130
 564	5.6019e+01	17.5343	57.079044	0.000203	2.027092	0.686797	-0.000081
 565	5.6118e+01	17.4958	56.990227	0.000223	2.229802	0.755477	-0.000089
 566	5.6218e+01	17.4621	56.893335	0.000243	2.432511	0.824157	-0.000097
 567	5.6317e+01	17.4204	56.832778	0.000152	1.520319	0.515098	-0.000061
 568	5.6416e+01	17.3770	56.747999	0.000213	2.128447	0.721137	-0.000085
 569	5.6516e+01	17.3466	56.659182	0.000223	2.229802	0.755477	-0.000089
 570	5.6615e+01	17.3000	56.594587	0.000162	1.621674	0.549438	-0.000065
 571	5.6715e+01	17.2503	56.473473	0.000304	3.040638	1.030196	-0.000122
 572	5.6815e+01	17.2214	56.384656	0.000223	2.229802	0.755477	-0.000089
 573	5.6914e+01	17.1813	56.303914	0.000203	2.027092	0.686797	-0.000081
 574	5.7014e+01	17.1412	56.202985	0.000253	2.533865	0.858497	-0.000101
 575	5.7113e+01	17.0979	56.150502	0.000132	1.317610	0.446418	-0.000053
 576	5.7212e+01	17.0530	56.033425	0.000294	2.939284	0.995856	-0.000118
 577	5.7312e+01	17.0209	55.952683	0.000203	2.027092	0.686797	-0.000081
 578	5.7411e+01	16.9680	55.843680	0.000274	2.736575	0.927177	-0.000110
 579	5.7511e+01	16.9423	55.754863	0.000223	2.229802	0.755477	-0.000089
 580	5.7611e+01	16.8942	55.710455	0.000111	1.114901	0.377739	-0.000045
 581	5.7710e+01	16.8605	55.617600	0.000233	2.331156	0.789817	-0.000093
 582	5.7809e+01	16.8188	55.532821	0.000213	2.128447	0.721137	-0.000085
 583	5.7909e+01	16.7867	55.468226	0.000162	1.621674	0.549438	-0.000065
 584	5.8008e+01	16.7450	55.335001	0.000334	3.344702	1.133216	-0.000134
 585	5.8108e+01	16.6920	55.254258	0.000203	2.027092	0.686797	-0.000081
 586	5.8208e+01	16.6648	55.129107	0.000314	3.141993	1.064536	-0.000126
 587	5.8307e+01	16.6199	55.048364	0.000203	2.027092	0.686797	-0.000081
 588	5.8407e+01	16.5733	54.971659	0.000193	1.925738	0.652458	-0.000077
 589	5.8506e+01	16.5348	54.915139	0.000142	1.418965	0.480758	-0.000057
 590	5.8605e+01	16.4947	54.777876	0.000345	3.446057	1.167556	-0.000138
 591	5.8705e+01	16.4626	54.729431	0.000122	1.216255	0.412078	-0.000049
 592	5.8804e+01	16.4241	54.624465	0.000264	2.635220	0.892837	-0.000105
 593	5.8904e+01	16.3824	54.580057	0.000111	1.114901	0.377739	-0.000045
 594	5.9004e+01	16.3391	54.446831	0.000334	3.344702	1.133216	-0.000134
 595	5.9103e+01	16.3086	54.378200	0.000172	1.723028	0.583778	-0.000069
 596	5.9203e+01	16.2509	54.261123	0.000294	2.939284	0.995856	-0.000118
 597	5.9302e+01	16.2188	54.180380	0.000203	2.027092	0.686797	-0.000081
 598	5.9401e+01	16.1835	54.119823	0.000152	1.520319	0.515098	-0.000061
 599	5.9501e+01	16.1450	54.006783	0.000284	2.837929	0.961516	-0.000114
 600	5.9600e+01	16.0953	53.889706	0.000294	2.939284	0.995856	-0.000118
 601	5.9700e+01	16.0600	53.841261	0.000122	1.216255	0.412078	-0.000049
 602	5.9800e+01	16.0231	53.724184	0.000294	2.939284	0.995856	-0.000118
 603	5.9899e+01	15.9830	53.659590	0.000162	1.621674	0.549438	-0.000065
 604	5.9998e+01	15.9477	53.518290	0.000355	3.547412	1.201896	-0.000142
 605	6.0098e+01	15.8979	53.433510	0.000213	2.128447	0.721137	-0.000085
 606	6.0197e+01	15.8627	53.364879	0.000172	1.723028	0.583778	-0.000069
 607	6.0297e+01	15.8290	53.288173	0.000193	1.925738	0.652458	-0.000077
 608	6.0397e+01	15.7792	53.158985	0.000324	3.243348	1.098876	-0.000130
 609	6.0496e+01	15.7423	53.070168	0.000223	2.229802	0.755477	-0.000089
 610	6.0596e+01	15.7038	53.005574	0.000162	1.621674	0.549438	-0.000065
 611	6.0695e+01	15.6669	52.912720	0.000233	2.331156	0.789817	-0.000093
 612	6.0794e+01	15.6188	52.815828	0.000243	2.432511	0.824157	-0.000097
 613	6.0894e+01	15.5819	52.727011	0.000223	2.229802	0.755477	-0.000089
 614	6.0993e+01	15.5386	52.654343	0.000182	1.824383	0.618118	-0.000073
 615	6.1093e+01	15.5049	52.549377	0.000264	2.635220	0.892837	-0.000105
 616	6.1193e+01	15.4648	52.448449	0.000253	2.533865	0.858497	-0.000101
 617	6.1292e+01	15.4231	52.355595	0.000233	2.331156	0.789817	-0.000093
 618	6.1392e+01	15.3798	52.286964	0.000172	1.723028	0.583778	-0.000069
 619	6.1491e+01	15.3429	52.153738	0.000334	3.344702	1.133216	-0.000134
 620	6.1590e+01	15.3060	52.085107	0.000172	1.723028	0.583778	-0.000069
 621	6.1690e+01	15.2723	51.984178	0.000253	2.533865	0.858497	-0.000101
 622	6.1789e+01	15.2194	51.871139	0.000284	2.837929	0.961516	-0.000114
 623	6.1889e+01	15.1905	51.778284	0.000233	2.331156	0.789817	-0.000093
 624	6.1989e+01	15.1472	51.681393	0.000243	2.432511	0.824157	-0.000097
 625	6.2088e+01	15.1087	51.612762	0.000172	1.723028	0.583778	-0.000069
 626	6.2188e+01	15.0589	51.527982	0.000213	2.128447	0.721137	-0.000085
 627	6.2287e+01	15.0268	51.435128	0.000233	2.331156	0.789817	-0.000093
 628	6.2386e+01	14.9948	51.318051	0.000294	2.939284	0.995856	-0.000118
 629	6.2486e+01	14.9418	51.225197	0.000233	2.331156	0.789817	-0.000093
 630	6.2586e+01	14.9017	51.128306	0.000243	2.432511	0.824157	-0.000097
 631	6.2685e+01	14.8664	51.055637	0.000182	1.824383	0.618118	-0.000073
 632	6.2785e+01	14.8311	50.962783	0.000233	2.331156	0.789817	-0.000093
 633	6.2884e+01	14.7926	50.853780	0.000274	2.736575	0.927177	-0.000110
 634	6.2983e+01	14.7541	50.773038	0.000203	2.027092	0.686797	-0.000081
 635	6.3083e+01	14.6980	50.664035	0.000274	2.736575	0.927177	-0.000110
 636	6.3182e+01	14.6691	50.571181	0.000233	2.331156	0.789817	-0.000093
 637	6.3282e+01	14.6274	50.482364	0.000223	2.229802	0.755477	-0.000089
 638	6.3382e+01	14.5889	50.381435	0.000253	2.533865	0.858497	-0.000101
 639	6.3481e+01	14.5456	50.272433	0.000274	2.736575	0.927177	-0.000110
 640	6.3581e+01	14.5071	50.179579	0.000233	2.331156	0.789817	-0.000093
 641	6.3680e+01	14.4606	50.062502	0.000294	2.939284	0.995856	-0.000118
 642	6.3779e+01	14.4349	49.961573	0.000253	2.533865	0.858497	-0.000101
 643	6.3879e+01	14.3868	49.864682	0.000243	2.432511	0.824157	-0.000097
 644	6.3978e+01	14.3515	49.763754	0.000253	2.533865	0.858497	-0.000101
 645	6.4078e+01	14.3082	49.658788	0.000264	2.635220	0.892837	-0.000105
 646	6.4177e+01	14.2616	49.541711	0.000294	2.939284	0.995856	-0.000118
 647	6.4277e+01	14.2247	49.481154	0.000152	1.520319	0.515098	-0.000061
 648	6.4376e+01	14.1926	49.335817	0.000365	3.648766	1.236235	-0.000146
 649	6.4476e+01	14.1493	49.255075	0.000203	2.027092	0.686797	-0.000081
 650	6.4576e+01	14.1124	49.186443	0.000172	1.723028	0.583778	-0.000069
 651	6.4675e+01	14.0659	49.081478	0.000264	2.635220	0.892837	-0.000105
 652	6.4775e+01	14.0274	48.944215	0.000345	3.446057	1.167556	-0.000138
 653	6.4874e+01	13.9953	48.871547	0.000182	1.824383	0.618118	-0.000073
 654	6.4974e+01	13.9472	48.774655	0.000243	2.432511	0.824157	-0.000097
 655	6.5073e+01	13.9103	48.693913	0.000203	2.027092	0.686797	-0.000081
 656	6.5172e+01	13.8654	48.568761	0.000314	3.141993	1.064536	-0.000126
 657	6.5272e+01	13.8253	48.467833	0.000253	2.533865	0.858497	-0.000101
 658	6.5371e+01	13.7868	48.366905	0.000253	2.533865	0.858497	-0.000101
 659	6.5471e+01	13.7435	48.282125	0.000213	2.128447	0.721137	-0.000085
 660	6.5570e+01	13.7082	48.185234	0.000243	2.432511	0.824157	-0.000097
 661	6.5670e+01	13.6729	48.084305	0.000253	2.533865	0.858497	-0.000101
 662	6.5769e+01	13.6408	47.963191	0.000304	3.040638	1.030196	-0.000122
 663	6.5869e+01	13.5911	47.870337	0.000233	2.331156	0.789817	-0.000093
 664	6.5969e+01	13.5590	47.805743	0.000162	1.621674	0.549438	-0.000065
 665	6.6068e+01	13.5141	47.684629	0.000304	3.040638	1.030196	-0.000122
 666	6.6168e+01	13.4659	47.531218	0.000385	3.851475	1.304915	-0.000154
 667	6.6267e+01	13.4354	47.446438	0.000213	2.128447	0.721137	-0.000085
 668	6.6367e+01	13.3921	47.357621	0.000223	2.229802	0.755477	-0.000089
 669	6.6466e+01	13.3504	47.256692	0.000253	2.533865	0.858497	-0.000101
 670	6.6566e+01	13.3183	47.155764	0.000253	2.533865	0.858497	-0.000101
 671	6.6665e+01	13.2734	47.014464	0.000355	3.547412	1.201896	-0.000142
 672	6.6764e+01	13.2333	46.945833	0.000172	1.723028	0.583778	-0.000069
 673	6.6864e+01	13.1932	46.836830	0.000274	2.736575	0.927177	-0.000110
 674	6.6963e+01	13.1483	46.735902	0.000253	2.533865	0.858497	-0.000101
 675	6.7063e+01	13.1066	46.634973	0.000253	2.533865	0.858497	-0.000101
 676	6.7162e+01	13.0713	46.562305	0.000182	1.824383	0.618118	-0.000073
 677	6.7262e+01	13.0296	46.425042	0.000345	3.446057	1.167556	-0.000138
 678	6.7362e+01	12.9895	46.316040	0.000274	2.736575	0.927177	-0.000110
 679	6.7461e+01	12.9494	46.243371	0.000182	1.824383	0.618118	-0.000073
 680	6.7561e+01	12.9061	46.118220	0.000314	3.141993	1.064536	-0.000126
 681	6.7660e+01	12.8708	46.037477	0.000203	2.027092	0.686797	-0.000081
 682	6.7760e+01	12.8355	45.924438	0.000284	2.837929	0.961516	-0.000114
 683	6.7859e+01	12.8002	45.807361	0.000294	2.939284	0.995856	-0.000118
 684	6.7959e+01	12.7569	45.738729	0.000172	1.723028	0.583778	-0.000069
 685	6.8058e+01	12.7200	45.609541	0.000324	3.243348	1.098876	-0.000130
 686	6.8157e+01	12.6750	45.553021	0.000142	1.418965	0.480758	-0.000057
 687	6.8257e+01	12.6269	45.423833	0.000324	3.243348	1.098876	-0.000130
 688	6.8356e+01	12.5932	45.322904	0.000253	2.533865	0.858497	-0.000101
 689	6.8456e+01	12.5676	45.185642	0.000345	3.446057	1.167556	-0.000138
 690	6.8555e+01	12.5226	45.112973	0.000182	1.824383	0.618118	-0.000073
 691	6.8655e+01	12.4761	44.999934	0.000284	2.837929	0.961516	-0.000114
 692	6.8754e+01	12.4344	44.907079	0.000233	2.331156	0.789817	-0.000093
 693	6.8854e+01	12.3879	44.826337	0.000203	2.027092	0.686797	-0.000081
 694	6.8954e+01	12.3606	44.681000	0.000365	3.648766	1.236235	-0.000146
 695	6.9053e+01	12.3189	44.571997	0.000274	2.736575	0.927177	-0.000110
 696	6.9153e+01	12.2820	44.467032	0.000264	2.635220	0.892837	-0.000105
 697	6.9252e+01	12.2355	44.382252	0.000213	2.128447	0.721137	-0.000085
 698	6.9352e+01	12.1970	44.261138	0.000304	3.040638	1.030196	-0.000122
 699	6.9451e+01	12.1617	44.188469	0.000182	1.824383	0.618118	-0.000073
 700	6.9550e+01	12.1120	44.055244	0.000334	3.344702	1.133216	-0.000134
 701	6.9650e+01	12.0799	43.950278	0.000264	2.635220	0.892837	-0.000105
 702	6.9749e+01	12.0334	43.829164	0.000304	3.040638	1.030196	-0.000122
 703	6.9849e+01	11.9948	43.716124	0.000284	2.837929	0.961516	-0.000114
 704	6.9948e+01	11.9547	43.603085	0.000284	2.837929	0.961516	-0.000114
 705	7.0048e+01	11.9178	43.526379	0.000193	1.925738	0.652458	-0.000077
 706	7.0147e+01	11.8826	43.397191	0.000324	3.243348	1.098876	-0.000130
 707	7.0247e+01	11.8392	43.340671	0.000142	1.418965	0.480758	-0.000057
 708	7.0347e+01	11.7927	43.187260	0.000385	3.851475	1.304915	-0.000154
 709	7.0446e+01	11.7590	43.058071	0.000324	3.243348	1.098876	-0.000130
 710	7.0546e+01	11.7157	42.985403	0.000182	1.824383	0.618118	-0.000073
 711	7.0645e+01	11.6772	42.892549	0.000233	2.331156	0.789817	-0.000093
 712	7.0745e+01	11.6531	42.771435	0.000304	3.040638	1.030196	-0.000122
 713	7.0844e+01	11.5986	42.646283	0.000314	3.141993	1.064536	-0.000126
 714	7.0944e+01	11.5585	42.537281	0.000274	2.736575	0.927177	-0.000110
 715	7.1043e+01	11.5232	42.468649	0.000172	1.723028	0.583778	-0.000069
 716	7.1142e+01	11.4815	42.351572	0.000294	2.939284	0.995856	-0.000118
 717	7.1242e+01	11.4382	42.222384	0.000324	3.243348	1.098876	-0.000130
 718	7.1341e+01	11.3981	42.149716	0.000182	1.824383	0.618118	-0.000073
 719	7.1441e+01	11.3596	42.004379	0.000365	3.648766	1.236235	-0.000146
 720	7.1540e+01	11.3227	41.927673	0.000193	1.925738	0.652458	-0.000077
 721	7.1640e+01	11.2826	41.834819	0.000233	2.331156	0.789817	-0.000093
 722	7.1740e+01	11.2473	41.713705	0.000304	3.040638	1.030196	-0.000122
 723	7.1839e+01	11.2008	41.604702	0.000274	2.736575	0.927177	-0.000110
 724	7.1939e+01	11.1687	41.487625	0.000294	2.939284	0.995856	-0.000118
 725	7.2038e+01	11.1205	41.378623	0.000274	2.736575	0.927177	-0.000110
 726	7.2138e+01	11.0756	41.301917	0.000193	1.925738	0.652458	-0.000077
 727	7.2237e+01	11.0435	41.144469	0.000395	3.952830	1.339255	-0.000158
 728	7.2337e+01	11.0034	41.083912	0.000152	1.520319	0.515098	-0.000061
 729	7.2436e+01	10.9665	40.950686	0.000334	3.344702	1.133216	-0.000134
 730	7.2535e+01	10.9264	40.833609	0.000294	2.939284	0.995856	-0.000118
 731	7.2635e+01	10.8815	40.720570	0.000284	2.837929	0.961516	-0.000114
 732	7.2734e+01	10.8526	40.639827	0.000203	2.027092	0.686797	-0.000081
 733	7.2834e+01	10.8093	40.518713	0.000304	3.040638	1.030196	-0.000122
 734	7.2933e+01	10.7660	40.421822	0.000243	2.432511	0.824157	-0.000097
 735	7.3033e+01	10.7259	40.312819	0.000274	2.736575	0.927177	-0.000110
 736	7.3132e+01	10.6906	40.179593	0.000334	3.344702	1.133216	-0.000134
 737	7.3232e+01	10.6489	40.090776	0.000223	2.229802	0.755477	-0.000089
 738	7.3332e+01	10.6040	40.001959	0.000223	2.229802	0.755477	-0.000089
 739	7.3431e+01	10.5719	39.884883	0.000294	2.939284	0.995856	-0.000118
 740	7.3531e+01	10.5238	39.771843	0.000284	2.837929	0.961516	-0.000114
 741	7.3630e+01	10.4805	39.650729	0.000304	3.040638	1.030196	-0.000122
 742	7.3730e+01	10.4500	39.521540	0.000324	3.243348	1.098876	-0.000130
 743	7.3829e+01	10.4115	39.473095	0.000122	1.216255	0.412078	-0.000049
 744	7.3928e+01	10.3666	39.339869	0.000334	3.344702	1.133216	-0.000134
 745	7.4028e+01	10.3297	39.222792	0.000294	2.939284	0.995856	-0.000118
 746	7.4127e+01	10.2863	39.089567	0.000334	3.344702	1.133216	-0.000134
 747	7.4227e+01	10.2478	39.053233	0.000091	0.912192	0.309059	-0.000037
 748	7.4326e+01	10.2013	38.895784	0.000395	3.952830	1.339255	-0.000158
 749	7.4426e+01	10.1708	38.786782	0.000274	2.736575	0.927177	-0.000110
 750	7.4525e+01	10.1227	38.665668	0.000304	3.040638	1.030196	-0.000122
 751	7.4625e+01	10.0922	38.584925	0.000203	2.027092	0.686797	-0.000081
 752	7.4725e+01	10.0409	38.427477	0.000395	3.952830	1.339255	-0.000158
 753	7.4824e+01	10.0072	38.330585	0.000243	2.432511	0.824157	-0.000097
 754	7.4924e+01	9.9687	38.189286	0.000355	3.547412	1.201896	-0.000142
 755	7.5023e+01	9.9286	38.116617	0.000182	1.824383	0.618118	-0.000073
 756	7.5123e+01	9.8821	37.999540	0.000294	2.939284	0.995856	-0.000118
 757	7.5222e+01	9.8484	37.902649	0.000243	2.432511	0.824157	-0.000097
 758	7.5322e+01	9.8083	37.773461	0.000324	3.243348	1.098876	-0.000130
 759	7.5421e+01	9.7569	37.652346	0.000304	3.040638	1.030196	-0.000122
 760	7.5520e+01	9.7200	37.539307	0.000284	2.837929	0.961516	-0.000114
 761	7.5620e+01	9.6815	37.458564	0.000203	2.027092	0.686797	-0.000081
 762	7.5719e+01	9.6350	37.361673	0.000243	2.432511	0.824157	-0.000097
 763	7.5819e+01	9.5997	37.240559	0.000304	3.040638	1.030196	-0.000122
 764	7.5918e+01	9.5709	37.115407	0.000314	3.141993	1.064536	-0.000126
 765	7.6018e+01	9.5291	36.974108	0.000355	3.547412	1.201896	-0.000142
 766	7.6118e+01	9.4955	36.873179	0.000253	2.533865	0.858497	-0.000101
 767	7.6217e+01	9.4473	36.731880	0.000355	3.547412	1.201896	-0.000142
 768	7.6317e+01	9.4056	36.639025	0.000233	2.331156	0.789817	-0.000093
 769	7.6416e+01	9.3751	36.538097	0.000253	2.533865	0.858497	-0.000101
 770	7.6516e+01	9.3286	36.412946	0.000314	3.141993	1.064536	-0.000126
 771	7.6615e+01	9.2821	36.295869	0.000294	2.939284	0.995856	-0.000118
 772	7.6715e+01	9.2452	36.194940	0.000253	2.533865	0.858497	-0.000101
 773	7.6814e+01	9.2083	36.045566	0.000375	3.750121	1.270575	-0.000150
 774	7.6913e+01	9.1650	35.952712	0.000233	2.331156	0.789817	-0.000093
 775	7.7013e+01	9.1313	35.831598	0.000304	3.040638	1.030196	-0.000122
 776	7.7112e+01	9.0928	35.698373	0.000334	3.344702	1.133216	-0.000134
 777	7.7212e+01	9.0527	35.629741	0.000172	1.723028	0.583778	-0.000069
 778	7.7311e+01	8.9981	35.516702	0.000284	2.837929	0.961516	-0.000114
 779	7.7411e+01	8.9709	35.399625	0.000294	2.939284	0.995856	-0.000118
 780	7.7510e+01	8.9276	35.242176	0.000395	3.952830	1.339255	-0.000158
 781	7.7610e+01	8.8858	35.141248	0.000253	2.533865	0.858497	-0.000101
 782	7.7710e+01	8.8506	35.012060	0.000324	3.243348	1.098876	-0.000130
 783	7.7809e+01	8.8072	34.915168	0.000243	2.432511	0.824157	-0.000097
 784	7.7909e+01	8.7735	34.814240	0.000253	2.533865	0.858497	-0.000101
 785	7.8008e+01	8.7350	34.705237	0.000274	2.736575	0.927177	-0.000110
 786	7.8108e+01	8.6901	34.559900	0.000365	3.648766	1.236235	-0.000146
 787	7.8207e+01	8.6596	34.410526	0.000375	3.750121	1.270575	-0.000150
 788	7.8306e+01	8.6115	34.337858	0.000182	1.824383	0.618118	-0.000073
 789	7.8406e+01	8.5794	34.232892	0.000264	2.635220	0.892837	-0.000105
 790	7.8505e+01	8.5313	34.079481	0.000385	3.851475	1.304915	-0.000154
 791	7.8605e+01	8.4896	33.982590	0.000243	2.432511	0.824157	-0.000097
 792	7.8704e+01	8.4511	33.853402	0.000324	3.243348	1.098876	-0.000130
 793	7.8804e+01	8.4078	33.708065	0.000365	3.648766	1.236235	-0.000146
 794	7.8903e+01	8.3773	33.607136	0.000253	2.533865	0.858497	-0.000101
 795	7.9003e+01	8.3404	33.498134	0.000274	2.736575	0.927177	-0.000110
 796	7.9103e+01	8.2971	33.405280	0.000233	2.331156	0.789817	-0.000093
 797	7.9202e+01	8.2554	33.251869	0.000385	3.851475	1.304915	-0.000154
 798	7.9302e+01	8.2089	33.154977	0.000243	2.432511	0.824157	-0.000097
 799	7.9401e+01	8.1800	32.997529	0.000395	3.952830	1.339255	-0.000158
 800	7.9501e+01	8.1303	32.908712	0.000223	2.229802	0.755477	-0.000089
 801	7.9600e+01	8.0950	32.743189	0.000416	4.155539	1.407935	-0.000166
 802	7.9700e+01	8.0565	32.654372	0.000223	2.229802	0.755477	-0.000089
 803	7.9799e+01	8.0180	32.529221	0.000314	3.141993	1.064536	-0.000126
 804	7.9898e+01	7.9698	32.412144	0.000294	2.939284	0.995856	-0.000118
 805	7.9998e+01	7.9249	32.307179	0.000264	2.635220	0.892837	-0.000105
 806	8.0097e+01	7.8880	32.190102	0.000294	2.939284	0.995856	-0.000118
 807	8.0197e+01	7.8527	32.048802	0.000355	3.547412	1.201896	-0.000142
 808	8.0296e+01	7.8142	31.943837	0.000264	2.635220	0.892837	-0.000105
 809	8.0396e+01	7.7789	31.806574	0.000345	3.446057	1.167556	-0.000138
 810	8.0496e+01	7.7324	31.665274	0.000355	3.547412	1.201896	-0.000142
 811	8.0595e+01	7.6907	31.568383	0.000243	2.432511	0.824157	-0.000097
 812	8.0695e+01	7.6490	31.463417	0.000264	2.635220	0.892837	-0.000105
 813	8.0794e+01	7.6153	31.297895	0.000416	4.155539	1.407935	-0.000166
 814	8.0894e+01	7.5768	31.180818	0.000294	2.939284	0.995856	-0.000118
 815	8.0993e+01	7.5367	31.067778	0.000284	2.837929	0.961516	-0.000114
 816	8.1093e+01	7.5014	30.942627	0.000314	3.141993	1.064536	-0.000126
 817	8.1192e+01	7.4468	30.837661	0.000264	2.635220	0.892837	-0.000105
 818	8.1291e+01	7.4228	30.716547	0.000304	3.040638	1.030196	-0.000122
 819	8.1391e+01	7.3731	30.555062	0.000405	4.054185	1.373595	-0.000162
 820	8.1490e+01	7.3297	30.425873	0.000324	3.243348	1.098876	-0.000130
 821	8.1590e+01	7.2993	30.320908	0.000264	2.635220	0.892837	-0.000105
 822	8.1689e+01	7.2608	30.195757	0.000314	3.141993	1.064536	-0.000126
 823	8.1789e+01	7.2158	30.050420	0.000365	3.648766	1.236235	-0.000146
 824	8.1888e+01	7.1677	29.897009	0.000385	3.851475	1.304915	-0.000154
 825	8.1988e+01	7.1420	29.783969	0.000284	2.837929	0.961516	-0.000114
 826	8.2088e+01	7.0955	29.662855	0.000304	3.040638	1.030196	-0.000122
 827	8.2187e+01	7.0602	29.521555	0.000355	3.547412	1.201896	-0.000142
 828	8.2287e+01	7.0137	29.404478	0.000294	2.939284	0.995856	-0.000118
 829	8.2386e+01	6.9800	29.299513	0.000264	2.635220	0.892837	-0.000105
 830	8.2486e+01	6.9399	29.198584	0.000253	2.533865	0.858497	-0.000101
 831	8.2585e+01	6.8918	29.020950	0.000446	4.459603	1.510954	-0.000179
 832	8.2684e+01	6.8597	28.907910	0.000284	2.837929	0.961516	-0.000114
 833	8.2784e+01	6.8164	28.774685	0.000334	3.344702	1.133216	-0.000134
 834	8.2883e+01	6.7763	28.665682	0.000274	2.736575	0.927177	-0.000110
 835	8.2983e+01	6.7378	28.516308	0.000375	3.750121	1.270575	-0.000150
 836	8.3082e+01	6.7057	28.403268	0.000284	2.837929	0.961516	-0.000114
 837	8.3182e+01	6.6544	28.314451	0.000223	2.229802	0.755477	-0.000089
 838	8.3281e+01	6.6207	28.161040	0.000385	3.851475	1.304915	-0.000154
 839	8.3381e+01	6.5774	28.035889	0.000314	3.141993	1.064536	-0.000126
 840	8.3481e+01	6.5389	27.894589	0.000355	3.547412	1.201896	-0.000142
 841	8.3580e+01	6.4955	27.789624	0.000264	2.635220	0.892837	-0.000105
 842	8.3680e+01	6.4586	27.636213	0.000385	3.851475	1.304915	-0.000154
 843	8.3779e+01	6.4169	27.523173	0.000284	2.837929	0.961516	-0.000114
 844	8.3879e+01	6.3784	27.377836	0.000365	3.648766	1.236235	-0.000146
 845	8.3978e+01	6.3479	27.268833	0.000274	2.736575	0.927177	-0.000110
 846	8.4078e+01	6.2950	27.119459	0.000375	3.750121	1.270575	-0.000150
 847	8.4177e+01	6.2549	27.006420	0.000284	2.837929	0.961516	-0.000114
 848	8.4276e+01	6.2276	26.889343	0.000294	2.939284	0.995856	-0.000118
 849	8.4376e+01	6.1747	26.776303	0.000284	2.837929	0.961516	-0.000114
 850	8.4475e+01	6.1603	26.635003	0.000355	3.547412	1.201896	-0.000142
 851	8.4575e+01	6.1041	26.489666	0.000365	3.648766	1.236235	-0.000146
 852	8.4674e+01	6.0656	26.340292	0.000375	3.750121	1.270575	-0.000150
 853	8.4774e+01	6.0271	26.223215	0.000294	2.939284	0.995856	-0.000118
 854	8.4874e+01	5.9806	26.069804	0.000385	3.851475	1.304915	-0.000154
 855	8.4973e+01	5.9421	25.980987	0.000223	2.229802	0.755477	-0.000089
 856	8.5073e+01	5.9036	25.847762	0.000334	3.344702	1.133216	-0.000134
 857	8.5172e+01	5.8571	25.722610	0.000314	3.141993	1.064536	-0.000126
 858	8.5272e+01	5.8202	25.597459	0.000314	3.141993	1.064536	-0.000126
 859	8.5371e+01	5.7817	25.440011	0.000395	3.952830	1.339255	-0.000158
 860	8.5471e+01	5.7496	25.326971	0.000284	2.837929	0.961516	-0.000114
 861	8.5570e+01	5.7143	25.201820	0.000314	3.141993	1.064536	-0.000126
 862	8.5669e+01	5.6629	25.044372	0.000395	3.952830	1.339255	-0.000158
 863	8.5769e+01	5.6196	24.907109	0.000345	3.446057	1.167556	-0.000138
 864	8.5868e+01	5.5891	24.785995	0.000304	3.040638	1.030196	-0.000122
 865	8.5968e+01	5.5522	24.660844	0.000314	3.141993	1.064536	-0.000126
 866	8.6067e+01	5.5025	24.551841	0.000274	2.736575	0.927177	-0.000110
 867	8.6167e+01	5.4720	24.382281	0.000426	4.256894	1.442275	-0.000170
 868	8.6266e+01	5.4143	24.249056	0.000334	3.344702	1.133216	-0.000134
 869	8.6366e+01	5.3870	24.140053	0.000274	2.736575	0.927177	-0.000110
 870	8.6466e+01	5.3421	24.010865	0.000324	3.243348	1.098876	-0.000130
 871	8.6565e+01	5.3052	23.837268	0.000436	4.358248	1.476615	-0.000174
 872	8.6665e+01	5.2715	23.712117	0.000314	3.141993	1.064536	-0.000126
 873	8.6764e+01	5.2298	23.591003	0.000304	3.040638	1.030196	-0.000122
 874	8.6864e+01	5.1833	23.490074	0.000253	2.533865	0.858497	-0.000101
 875	8.6963e+01	5.1464	23.356849	0.000334	3.344702	1.133216	-0.000134
 876	8.7063e+01	5.1079	23.171141	0.000466	4.662312	1.579634	-0.000187
 877	8.7162e+01	5.0614	23.054064	0.000294	2.939284	0.995856	-0.000118
 878	8.7261e+01	5.0261	22.945061	0.000274	2.736575	0.927177	-0.000110
 879	8.7361e+01	4.9860	22.799724	0.000365	3.648766	1.236235	-0.000146
 880	8.7460e+01	4.9346	22.630164	0.000426	4.256894	1.442275	-0.000170
 881	8.7560e+01	4.8961	22.513087	0.000294	2.939284	0.995856	-0.000118
 882	8.7659e+01	4.8737	22.400048	0.000284	2.837929	0.961516	-0.000114
 883	8.7759e+01	4.8255	22.266822	0.000334	3.344702	1.133216	-0.000134
 884	8.7859e+01	4.7838	22.141671	0.000314	3.141993	1.064536	-0.000126
 885	8.7958e+01	4.7405	21.976148	0.000416	4.155539	1.407935	-0.000166
 886	8.8058e+01	4.7084	21.875220	0.000253	2.533865	0.858497	-0.000101
 887	8.8157e+01	4.6715	21.754106	0.000304	3.040638	1.030196	-0.000122
 888	8.8257e+01	4.6266	21.600695	0.000385	3.851475	1.304915	-0.000154
 889	8.8356e+01	4.5849	21.467469	0.000334	3.344702	1.133216	-0.000134
 890	8.8456e+01	4.5416	21.330207	0.000345	3.446057	1.167556	-0.000138
 891	8.8555e+01	4.5079	21.196981	0.000334	3.344702	1.133216	-0.000134
 892	8.8654e+01	4.4710	21.079904	0.000294	2.939284	0.995856	-0.000118
 893	8.8754e+01	4.4341	20.902270	0.000446	4.459603	1.510954	-0.000179
 894	8.8853e+01	4.3924	20.829602	0.000182	1.824383	0.618118	-0.000073
 895	8.8953e+01	4.3507	20.684265	0.000365	3.648766	1.236235	-0.000146
 896	8.9052e+01	4.3090	20.587374	0.000243	2.432511	0.824157	-0.000097
 897	8.9152e+01	4.2705	20.429925	0.000395	3.952830	1.339255	-0.000158
 898	8.9251e+01	4.2255	20.228069	0.000507	5.067731	1.716994	-0.000203
 899	8.9351e+01	4.1919	20.175586	0.000132	1.317610	0.446418	-0.000053
 900	8.9451e+01	4.1518	19.969692	0.000517	5.169085	1.751334	-0.000207
 901	8.9550e+01	4.1100	19.913172	0.000142	1.418965	0.480758	-0.000057
 902	8.9650e+01	4.0683	19.743612	0.000426	4.256894	1.442275	-0.000170
 903	8.9749e+01	4.0218	19.622498	0.000304	3.040638	1.030196	-0.000122
 904	8.9849e+01	3.9913	19.493310	0.000324	3.243348	1.098876	-0.000130
 905	8.9948e+01	3.9480	19.339899	0.000385	3.851475	1.304915	-0.000154
 906	9.0047e+01	3.9127	19.194562	0.000365	3.648766	1.236235	-0.000146
 907	9.0147e+01	3.8694	19.065374	0.000324	3.243348	1.098876	-0.000130
 908	9.0246e+01	3.8341	18.948297	0.000294	2.939284	0.995856	-0.000118
 909	9.0346e+01	3.7844	18.806997	0.000355	3.547412	1.201896	-0.000142
 910	9.0445e+01	3.7475	18.685883	0.000304	3.040638	1.030196	-0.000122
 911	9.0545e+01	3.7074	18.532472	0.000385	3.851475	1.304915	-0.000154
 912	9.0644e+01	3.6753	18.395209	0.000345	3.446057	1.167556	-0.000138
 913	9.0744e+01	3.6416	18.274095	0.000304	3.040638	1.030196	-0.000122
 914	9.0844e+01	3.5903	18.132795	0.000355	3.547412	1.201896	-0.000142
 915	9.0943e+01	3.5518	17.971310	0.000405	4.054185	1.373595	-0.000162
 916	9.1043e+01	3.5069	17.858270	0.000284	2.837929	0.961516	-0.000114
 917	9.1142e+01	3.4732	17.688710	0.000426	4.256894	1.442275	-0.000170
 918	9.1242e+01	3.4298	17.547410	0.000355	3.547412	1.201896	-0.000142
 919	9.1341e+01	3.4010	17.450519	0.000243	2.432511	0.824157	-0.000097
 920	9.1441e+01	3.3593	17.284997	0.000416	4.155539	1.407935	-0.000166
 921	9.1540e+01	3.3079	17.155808	0.000324	3.243348	1.098876	-0.000130
 922	9.1639e+01	3.2774	16.998360	0.000395	3.952830	1.339255	-0.000158
 923	9.1739e+01	3.2341	16.853023	0.000365	3.648766	1.236235	-0.000146
 924	9.1838e+01	3.1956	16.780355	0.000182	1.824383	0.618118	-0.000073
 925	9.1938e+01	3.1491	16.554275	0.000568	5.675858	1.923033	-0.000227
 926	9.2037e+01	3.1186	16.493718	0.000152	1.520319	0.515098	-0.000061
 927	9.2137e+01	3.0689	16.320121	0.000436	4.358248	1.476615	-0.000174
 928	9.2237e+01	3.0272	16.182859	0.000345	3.446057	1.167556	-0.000138
 929	9.2336e+01	2.9951	16.069819	0.000284	2.837929	0.961516	-0.000114
 930	9.2436e+01	2.9550	15.924482	0.000365	3.648766	1.236235	-0.000146
 931	9.2535e+01	2.9213	15.779145	0.000365	3.648766	1.236235	-0.000146
 932	9.2635e+01	2.8700	15.641882	0.000345	3.446057	1.167556	-0.000138
 933	9.2734e+01	2.8331	15.512694	0.000324	3.243348	1.098876	-0.000130
 934	9.2834e+01	2.7962	15.359283	0.000385	3.851475	1.304915	-0.000154
 935	9.2933e+01	2.7545	15.209909	0.000375	3.750121	1.270575	-0.000150
 936	9.3032e+01	2.7112	15.108980	0.000253	2.533865	0.858497	-0.000101
 937	9.3132e+01	2.6775	14.915198	0.000487	4.865022	1.648314	-0.000195
 938	9.3231e+01	2.6422	14.802158	0.000284	2.837929	0.961516	-0.000114
 939	9.3331e+01	2.5973	14.636636	0.000416	4.155539	1.407935	-0.000166
 940	9.3430e+01	2.5555	14.547819	0.000223	2.229802	0.755477	-0.000089
 941	9.3530e+01	2.5042	14.378259	0.000426	4.256894	1.442275	-0.000170
 942	9.3629e+01	2.4850	14.228885	0.000375	3.750121	1.270575	-0.000150
 943	9.3729e+01	2.4336	14.091622	0.000345	3.446057	1.167556	-0.000138
 944	9.3829e+01	2.3999	13.954360	0.000345	3.446057	1.167556	-0.000138
 945	9.3928e+01	2.3486	13.813060	0.000355	3.547412	1.201896	-0.000142
 946	9.4028e+01	2.3197	13.691946	0.000304	3.040638	1.030196	-0.000122
 947	9.4127e+01	2.2732	13.510275	0.000456	4.560958	1.545294	-0.000183
 948	9.4227e+01	2.2395	13.401272	0.000274	2.736575	0.927177	-0.000110
 949	9.4326e+01	2.1978	13.264009	0.000345	3.446057	1.167556	-0.000138
 950	9.4425e+01	2.1561	13.122710	0.000355	3.547412	1.201896	-0.000142
 951	9.4525e+01	2.1128	13.001596	0.000304	3.040638	1.030196	-0.000122
 952	9.4624e+01	2.0679	12.827999	0.000436	4.358248	1.476615	-0.000174
 953	9.4724e+01	2.0326	12.694773	0.000334	3.344702	1.133216	-0.000134
 954	9.4823e+01	2.0021	12.525214	0.000426	4.256894	1.442275	-0.000170
 955	9.4923e+01	1.9636	12.379877	0.000365	3.648766	1.236235	-0.000146
 956	9.5022e+01	1.9267	12.238577	0.000355	3.547412	1.201896	-0.000142
 957	9.5122e+01	1.8705	12.141686	0.000243	2.432511	0.824157	-0.000097
 958	9.5222e+01	1.8336	12.012497	0.000324	3.243348	1.098876	-0.000130
 959	9.5321e+01	1.8064	11.834863	0.000446	4.459603	1.510954	-0.000179
 960	9.5421e+01	1.7566	11.677415	0.000395	3.952830	1.339255	-0.000158
 961	9.5520e+01	1.7197	11.560338	0.000294	2.939284	0.995856	-0.000118
 962	9.5620e+01	1.6732	11.415001	0.000365	3.648766	1.236235	-0.000146
 963	9.5719e+01	1.6331	11.257553	0.000395	3.952830	1.339255	-0.000158
 964	9.5819e+01	1.5994	11.087993	0.000426	4.256894	1.442275	-0.000170
 965	9.5918e+01	1.5529	10.995139	0.000233	2.331156	0.789817	-0.000093
 966	9.6017e+01	1.5240	10.821542	0.000436	4.358248	1.476615	-0.000174
 967	9.6117e+01	1.4711	10.676205	0.000365	3.648766	1.236235	-0.000146
 968	9.6216e+01	1.4374	10.522794	0.000385	3.851475	1.304915	-0.000154
 969	9.6316e+01	1.3973	10.425903	0.000243	2.432511	0.824157	-0.000097
 970	9.6415e+01	1.3524	10.228083	0.000497	4.966376	1.682654	-0.000199
 971	9.6515e+01	1.3155	10.119081	0.000274	2.736575	0.927177	-0.000110
 972	9.6615e+01	1.2754	9.977781	0.000355	3.547412	1.201896	-0.000142
 973	9.6714e+01	1.2401	9.820333	0.000395	3.952830	1.339255	-0.000158
 974	9.6814e+01	1.2080	9.670959	0.000375	3.750121	1.270575	-0.000150
 975	9.6913e+01	1.1534	9.561956	0.000274	2.736575	0.927177	-0.000110
 976	9.7013e+01	1.1133	9.376248	0.000466	4.662312	1.579634	-0.000187
 977	9.7112e+01	1.0764	9.263208	0.000284	2.837929	0.961516	-0.000114
 978	9.7212e+01	1.0331	9.134020	0.000324	3.243348	1.098876	-0.000130
 979	9.7311e+01	1.0075	8.940237	0.000487	4.865022	1.648314	-0.000195
 980	9.7410e+01	0.9593	8.815086	0.000314	3.141993	1.064536	-0.000126
 981	9.7510e+01	0.9176	8.633415	0.000456	4.560958	1.545294	-0.000183
 982	9.7609e+01	0.8775	8.508264	0.000314	3.141993	1.064536	-0.000126
 983	9.7709e+01	0.8422	8.350815	0.000395	3.952830	1.339255	-0.000158
 984	9.7808e+01	0.8085	8.233738	0.000294	2.939284	0.995856	-0.000118
 985	9.7908e+01	0.7620	8.068216	0.000416	4.155539	1.407935	-0.000166
 986	9.8007e+01	0.7155	7.918842	0.000375	3.750121	1.270575	-0.000150
 987	9.8107e+01	0.6802	7.785616	0.000334	3.344702	1.133216	-0.000134
 988	9.8207e+01	0.6353	7.640279	0.000365	3.648766	1.236235	-0.000146
 989	9.8306e+01	0.6016	7.515128	0.000314	3.141993	1.064536	-0.000126
 990	9.8406e+01	0.5631	7.345568	0.000426	4.256894	1.442275	-0.000170
 991	9.8505e+01	0.5262	7.167935	0.000446	4.459603	1.510954	-0.000179
 992	9.8605e+01	0.4765	7.022598	0.000365	3.648766	1.236235	-0.000146
 993	9.8704e+01	0.4412	6.877261	0.000365	3.648766	1.236235	-0.000146
 994	9.8803e+01	0.4011	6.703664	0.000436	4.358248	1.476615	-0.000174
 995	9.8903e+01	0.3577	6.574476	0.000324	3.243348	1.098876	-0.000130
 996	9.9002e+01	0.3144	6.449324	0.000314	3.141993	1.064536	-0.000126
 997	9.9102e+01	0.2743	6.328210	0.000304	3.040638	1.030196	-0.000122
 998	9.9201e+01	0.2438	6.142502	0.000466	4.662312	1.579634	-0.000187
 999	9.9301e+01	0.1989	6.005239	0.000345	3.446057	1.167556	-0.000138
1000	9.9400e+01	0.1604	5.859903	0.000365	3.648766	1.236235	-0.000146
1001	9.9500e+01	0.1299	5.686306	0.000436	4.358248	1.476615	-0.000174
1002	9.9600e+01	0.0818	5.561154	0.000314	3.141993	1.064536	-0.000126
1003	9.9699e+01	0.0433	5.427929	0.000334	3.344702	1.133216	-0.000134
1004	9.9799e+01	0.0000	5.254332	0.000436	4.358248	1.476615	-0.000174
1005	9.9898e+01	-0.0193	5.157441	0.000243	2.432511	0.824157	-0.000097
1006	9.9998e+01	-0.0722	5.040364	0.000294	2.939284	0.995856	-0.000118
1007	1.0010e+02	-0.1075	4.907138	0.000334	3.344702	1.133216	-0.000134
1008	1.0020e+02	-0.1540	4.725467	0.000456	4.560958	1.545294	-0.000183
1009	1.0030e+02	-0.1813	4.551871	0.000436	4.358248	1.476615	-0.000174
1010	1.0040e+02	-0.2390	4.410571	0.000355	3.547412	1.201896	-0.000142
1011	1.0050e+02	-0.2695	4.273308	0.000345	3.446057	1.167556	-0.000138
1012	1.0059e+02	-0.3096	4.127971	0.000365	3.648766	1.236235	-0.000146
1013	1.0069e+02	-0.3481	3.978597	0.000375	3.750121	1.270575	-0.000150
1014	1.0079e+02	-0.3866	3.792889	0.000466	4.662312	1.579634	-0.000187
1015	1.0089e+02	-0.4251	3.724258	0.000172	1.723028	0.583778	-0.000069
1016	1.0099e+02	-0.4652	3.546624	0.000446	4.459603	1.510954	-0.000179
1017	1.0109e+02	-0.5021	3.433584	0.000284	2.837929	0.961516	-0.000114
1018	1.0119e+02	-0.5422	3.264024	0.000426	4.256894	1.442275	-0.000170
1019	1.0129e+02	-0.5855	3.110613	0.000385	3.851475	1.304915	-0.000154
1020	1.0139e+02	-0.6208	2.945091	0.000416	4.155539	1.407935	-0.000166
1021	1.0149e+02	-0.6609	2.783605	0.000405	4.054185	1.373595	-0.000162
1022	1.0159e+02	-0.7123	2.642305	0.000355	3.547412	1.201896	-0.000142
1023	1.0169e+02	-0.7460	2.525228	0.000294	2.939284	0.995856	-0.000118
1024	1.0179e+02	-0.7764	2.371817	0.000385	3.851475	1.304915	-0.000154
1025	1.0189e+02	-0.8214	2.230517	0.000355	3.547412	1.201896	-0.000142
1026	1.0199e+02	-0.8695	2.073069	0.000395	3.952830	1.339255	-0.000158
1027	1.0209e+02	-0.9064	1.899472	0.000436	4.358248	1.476615	-0.000174
1028	1.0219e+02	-0.9529	1.806618	0.000233	2.331156	0.789817	-0.000093
1029	1.0229e+02	-0.9834	1.645133	0.000405	4.054185	1.373595	-0.000162
1030	1.0239e+02	-1.0283	1.475573	0.000426	4.256894	1.442275	-0.000170
1031	1.0248e+02	-1.0700	1.322162	0.000385	3.851475	1.304915	-0.000154
1032	1.0258e+02	-1.1037	1.164714	0.000395	3.952830	1.339255	-0.000158
1033	1.0268e+02	-1.1486	1.035525	0.000324	3.243348	1.098876	-0.000130
1034	1.0278e+02	-1.1855	0.874040	0.000405	4.054185	1.373595	-0.000162
1035	1.0288e+02	-1.2256	0.748889	0.000314	3.141993	1.064536	-0.000126
1036	1.0298e+02	-1.2641	0.603552	0.000365	3.648766	1.236235	-0.000146
1037	1.0308e+02	-1.3010	0.454178	0.000375	3.750121	1.270575	-0.000150
1038	1.0318e+02	-1.3331	0.308841	0.000365	3.648766	1.236235	-0.000146
1039	1.0328e+02	-1.3877	0.155430	0.000385	3.851475	1.304915	-0.000154
1040	1.0338e+02	-1.4278	-0.034316	0.000476	4.763667	1.613974	-0.000191
1041	1.0348e+02	-1.4599	-0.135244	0.000253	2.533865	0.858497	-0.000101
1042	1.0358e+02	-1.4967	-0.284618	0.000375	3.750121	1.270575	-0.000150
1043	1.0368e+02	-1.5465	-0.454178	0.000426	4.256894	1.442275	-0.000170
1044	1.0378e+02	-1.5834	-0.595478	0.000355	3.547412	1.201896	-0.000142
1045	1.0388e+02	-1.6139	-0.696406	0.000253	2.533865	0.858497	-0.000101
1046	1.0398e+02	-1.6604	-0.874040	0.000446	4.459603	1.510954	-0.000179
1047	1.0408e+02	-1.7053	-1.031488	0.000395	3.952830	1.339255	-0.000158
1048	1.0418e+02	-1.7374	-1.192974	0.000405	4.054185	1.373595	-0.000162
1049	1.0428e+02	-1.7855	-1.301976	0.000274	2.736575	0.927177	-0.000110
1050	1.0438e+02	-1.8240	-1.423090	0.000304	3.040638	1.030196	-0.000122
1051	1.0447e+02	-1.8625	-1.616873	0.000487	4.865022	1.648314	-0.000195
1052	1.0457e+02	-1.9074	-1.742024	0.000314	3.141993	1.064536	-0.000126
1053	1.0467e+02	-1.9379	-1.919658	0.000446	4.459603	1.510954	-0.000179
1054	1.0477e+02	-1.9780	-2.056921	0.000345	3.446057	1.167556	-0.000138
1055	1.0487e+02	-2.0165	-2.145738	0.000223	2.229802	0.755477	-0.000089
1056	1.0497e+02	-2.0598	-2.327409	0.000456	4.560958	1.545294	-0.000183
1057	1.0507e+02	-2.1015	-2.452560	0.000314	3.141993	1.064536	-0.000126
1058	1.0517e+02	-2.1320	-2.626157	0.000436	4.358248	1.476615	-0.000174
1059	1.0527e+02	-2.1866	-2.735159	0.000274	2.736575	0.927177	-0.000110
1060	1.0537e+02	-2.2154	-2.892608	0.000395	3.952830	1.339255	-0.000158
1061	1.0547e+02	-2.2620	-3.066205	0.000436	4.358248	1.476615	-0.000174
1062	1.0557e+02	-2.3005	-3.203467	0.000345	3.446057	1.167556	-0.000138
1063	1.0567e+02	-2.3438	-3.292284	0.000223	2.229802	0.755477	-0.000089
1064	1.0577e+02	-2.3775	-3.522401	0.000578	5.777213	1.957373	-0.000231
1065	1.0587e+02	-2.4240	-3.615255	0.000233	2.331156	0.789817	-0.000093
1066	1.0597e+02	-2.4641	-3.788852	0.000436	4.358248	1.476615	-0.000174
1067	1.0607e+02	-2.4930	-3.877669	0.000223	2.229802	0.755477	-0.000089
1068	1.0617e+02	-2.5443	-4.027043	0.000375	3.750121	1.270575	-0.000150
1069	1.0627e+02	-2.5812	-4.188528	0.000405	4.054185	1.373595	-0.000162
1070	1.0637e+02	-2.6149	-4.333865	0.000365	3.648766	1.236235	-0.000146
1071	1.0647e+02	-2.6582	-4.434794	0.000253	2.533865	0.858497	-0.000101
1072	1.0656e+02	-2.6919	-4.604353	0.000426	4.256894	1.442275	-0.000170
1073	1.0666e+02	-2.7481	-4.737579	0.000334	3.344702	1.133216	-0.000134
1074	1.0676e+02	-2.7785	-4.870804	0.000334	3.344702	1.133216	-0.000134
1075	1.0686e+02	-2.8218	-5.044401	0.000436	4.358248	1.476615	-0.000174
1076	1.0696e+02	-2.8571	-5.197812	0.000385	3.851475	1.304915	-0.000154
1077	1.0706e+02	-2.8956	-5.290666	0.000233	2.331156	0.789817	-0.000093
1078	1.0716e+02	-2.9406	-5.456189	0.000416	4.155539	1.407935	-0.000166
1079	1.0726e+02	-2.9759	-5.609600	0.000385	3.851475	1.304915	-0.000154
1080	1.0736e+02	-3.0192	-5.738788	0.000324	3.243348	1.098876	-0.000130
1081	1.0746e+02	-3.0529	-5.872014	0.000334	3.344702	1.133216	-0.000134
1082	1.0756e+02	-3.0898	-6.021388	0.000375	3.750121	1.270575	-0.000150
1083	1.0766e+02	-3.1411	-6.186911	0.000416	4.155539	1.407935	-0.000166
1084	1.0776e+02	-3.1796	-6.287839	0.000253	2.533865	0.858497	-0.000101
1085	1.0786e+02	-3.2229	-6.417027	0.000324	3.243348	1.098876	-0.000130
1086	1.0796e+02	-3.2566	-6.602735	0.000466	4.662312	1.579634	-0.000187
1087	1.0806e+02	-3.3015	-6.748072	0.000365	3.648766	1.236235	-0.000146
1088	1.0816e+02	-3.3320	-6.865149	0.000294	2.939284	0.995856	-0.000118
1089	1.0826e+02	-3.3769	-7.058932	0.000487	4.865022	1.648314	-0.000195
1090	1.0836e+02	-3.4170	-7.143712	0.000213	2.128447	0.721137	-0.000085
1091	1.0845e+02	-3.4587	-7.280974	0.000345	3.446057	1.167556	-0.000138
1092	1.0855e+02	-3.4908	-7.430348	0.000375	3.750121	1.270575	-0.000150
1093	1.0865e+02	-3.5373	-7.571648	0.000355	3.547412	1.201896	-0.000142
1094	1.0875e+02	-3.5726	-7.680651	0.000274	2.736575	0.927177	-0.000110
1095	1.0885e+02	-3.6111	-7.882508	0.000507	5.067731	1.716994	-0.000203
1096	1.0895e+02	-3.6496	-7.983436	0.000253	2.533865	0.858497	-0.000101
1097	1.0905e+02	-3.6962	-8.165107	0.000456	4.560958	1.545294	-0.000183
1098	1.0915e+02	-3.7314	-8.298333	0.000334	3.344702	1.133216	-0.000134
1099	1.0925e+02	-3.7732	-8.427521	0.000324	3.243348	1.098876	-0.000130
1100	1.0935e+02	-3.8084	-8.572858	0.000365	3.648766	1.236235	-0.000146
1101	1.0945e+02	-3.8598	-8.722232	0.000375	3.750121	1.270575	-0.000150
1102	1.0955e+02	-3.9015	-8.835272	0.000284	2.837929	0.961516	-0.000114
1103	1.0965e+02	-3.9416	-8.992720	0.000395	3.952830	1.339255	-0.000158
1104	1.0975e+02	-3.9705	-9.146131	0.000385	3.851475	1.304915	-0.000154
1105	1.0985e+02	-4.0218	-9.263208	0.000294	2.939284	0.995856	-0.000118
1106	1.0995e+02	-4.0619	-9.428731	0.000416	4.155539	1.407935	-0.000166
1107	1.1005e+02	-4.0988	-9.529659	0.000253	2.533865	0.858497	-0.000101
1108	1.1015e+02	-4.1293	-9.711330	0.000456	4.560958	1.545294	-0.000183
1109	1.1025e+02	-4.1742	-9.783998	0.000182	1.824383	0.618118	-0.000073
1110	1.1035e+02	-4.2063	-9.929335	0.000365	3.648766	1.236235	-0.000146
1111	1.1044e+02	-4.2464	-10.111006	0.000456	4.560958	1.545294	-0.000183
1112	1.1054e+02	-4.2897	-10.203861	0.000233	2.331156	0.789817	-0.000093
1113	1.1064e+02	-4.3282	-10.361309	0.000395	3.952830	1.339255	-0.000158
1114	1.1074e+02	-4.3715	-10.502609	0.000355	3.547412	1.201896	-0.000142
1115	1.1084e+02	-4.4100	-10.656020	0.000385	3.851475	1.304915	-0.000154
1116	1.1094e+02	-4.4582	-10.781171	0.000314	3.141993	1.064536	-0.000126
1117	1.1104e+02	-4.4886	-10.922471	0.000355	3.547412	1.201896	-0.000142
1118	1.1114e+02	-4.5287	-11.031473	0.000274	2.736575	0.927177	-0.000110
1119	1.1124e+02	-4.5721	-11.188922	0.000395	3.952830	1.339255	-0.000158
1120	1.1134e+02	-4.6154	-11.314073	0.000314	3.141993	1.064536	-0.000126
1121	1.1144e+02	-4.6426	-11.463447	0.000375	3.750121	1.270575	-0.000150
1122	1.1154e+02	-4.6892	-11.572450	0.000274	2.736575	0.927177	-0.000110
1123	1.1164e+02	-4.7325	-11.737972	0.000416	4.155539	1.407935	-0.000166
1124	1.1174e+02	-4.7614	-11.863123	0.000314	3.141993	1.064536	-0.000126
1125	1.1184e+02	-4.8015	-12.008460	0.000365	3.648766	1.236235	-0.000146
1126	1.1194e+02	-4.8480	-12.133611	0.000314	3.141993	1.064536	-0.000126
1127	1.1204e+02	-4.8929	-12.266837	0.000334	3.344702	1.133216	-0.000134
1128	1.1214e+02	-4.9266	-12.355654	0.000223	2.229802	0.755477	-0.000089
1129	1.1224e+02	-4.9619	-12.533288	0.000446	4.459603	1.510954	-0.000179
1130	1.1234e+02	-5.0116	-12.690736	0.000395	3.952830	1.339255	-0.000158
1131	1.1244e+02	-5.0517	-12.823962	0.000334	3.344702	1.133216	-0.000134
1132	1.1253e+02	-5.0822	-12.953150	0.000324	3.243348	1.098876	-0.000130
1133	1.1263e+02	-5.1303	-13.094450	0.000355	3.547412	1.201896	-0.000142
1134	1.1273e+02	-5.1704	-13.195378	0.000253	2.533865	0.858497	-0.000101
1135	1.1283e+02	-5.2105	-13.348789	0.000385	3.851475	1.304915	-0.000154
1136	1.1293e+02	-5.2458	-13.518349	0.000426	4.256894	1.442275	-0.000170
1137	1.1303e+02	-5.2876	-13.611203	0.000233	2.331156	0.789817	-0.000093
1138	1.1313e+02	-5.3277	-13.772689	0.000405	4.054185	1.373595	-0.000162
1139	1.1323e+02	-5.3678	-13.873617	0.000253	2.533865	0.858497	-0.000101
1140	1.1333e+02	-5.4079	-13.982620	0.000274	2.736575	0.927177	-0.000110
1141	1.1343e+02	-5.4464	-14.148142	0.000416	4.155539	1.407935	-0.000166
1142	1.1353e+02	-5.4865	-14.269256	0.000304	3.040638	1.030196	-0.000122
1143	1.1363e+02	-5.5266	-14.410556	0.000355	3.547412	1.201896	-0.000142
1144	1.1373e+02	-5.5683	-14.543781	0.000334	3.344702	1.133216	-0.000134
1145	1.1383e+02	-5.6020	-14.713341	0.000426	4.256894	1.442275	-0.000170
1146	1.1393e+02	-5.6453	-14.842530	0.000324	3.243348	1.098876	-0.000130
1147	1.1403e+02	-5.6838	-14.979792	0.000345	3.446057	1.167556	-0.000138
1148	1.1413e+02	-5.7351	-15.088795	0.000274	2.736575	0.927177	-0.000110
1149	1.1423e+02	-5.7656	-15.242206	0.000385	3.851475	1.304915	-0.000154
1150	1.1433e+02	-5.7977	-15.383506	0.000355	3.547412	1.201896	-0.000142
1151	1.1442e+02	-5.8490	-15.480397	0.000243	2.432511	0.824157	-0.000097
1152	1.1452e+02	-5.8859	-15.637845	0.000395	3.952830	1.339255	-0.000158
1153	1.1462e+02	-5.9228	-15.771071	0.000334	3.344702	1.133216	-0.000134
1154	1.1472e+02	-5.9645	-15.904296	0.000334	3.344702	1.133216	-0.000134
1155	1.1482e+02	-6.0030	-16.061745	0.000395	3.952830	1.339255	-0.000158
1156	1.1492e+02	-6.0399	-16.146524	0.000213	2.128447	0.721137	-0.000085
1157	1.1502e+02	-6.0849	-16.320121	0.000436	4.358248	1.476615	-0.000174
1158	1.1512e+02	-6.1282	-16.425087	0.000264	2.635220	0.892837	-0.000105
1159	1.1522e+02	-6.1731	-16.610795	0.000466	4.662312	1.579634	-0.000187
1160	1.1532e+02	-6.2036	-16.744020	0.000334	3.344702	1.133216	-0.000134
1161	1.1542e+02	-6.2453	-16.885320	0.000355	3.547412	1.201896	-0.000142
1162	1.1552e+02	-6.2822	-16.994323	0.000274	2.736575	0.927177	-0.000110
1163	1.1562e+02	-6.3287	-17.119474	0.000314	3.141993	1.064536	-0.000126
1164	1.1572e+02	-6.3656	-17.264811	0.000365	3.648766	1.236235	-0.000146
1165	1.1582e+02	-6.3993	-17.410148	0.000365	3.648766	1.236235	-0.000146
1166	1.1592e+02	-6.4378	-17.515113	0.000264	2.635220	0.892837	-0.000105
1167	1.1602e+02	-6.4811	-17.636227	0.000304	3.040638	1.030196	-0.000122
1168	1.1612e+02	-6.5196	-17.781564	0.000365	3.648766	1.236235	-0.000146
1169	1.1622e+02	-6.5597	-17.882493	0.000253	2.533865	0.858497	-0.000101
1170	1.1632e+02	-6.5998	-18.003607	0.000304	3.040638	1.030196	-0.000122
1171	1.1642e+02	-6.6367	-18.173167	0.000426	4.256894	1.442275	-0.000170
1172	1.1651e+02	-6.6816	-18.294281	0.000304	3.040638	1.030196	-0.000122
1173	1.1661e+02	-6.7217	-18.391172	0.000243	2.432511	0.824157	-0.000097
1174	1.1671e+02	-6.7602	-18.556694	0.000416	4.155539	1.407935	-0.000166
1175	1.1681e+02	-6.8068	-18.677808	0.000304	3.040638	1.030196	-0.000122
1176	1.1691e+02	-6.8372	-18.790848	0.000284	2.837929	0.961516	-0.000114
1177	1.1701e+02	-6.8838	-18.940222	0.000375	3.750121	1.270575	-0.000150
1178	1.1711e+02	-6.9239	-19.069411	0.000324	3.243348	1.098876	-0.000130
1179	1.1721e+02	-6.9560	-19.206673	0.000345	3.446057	1.167556	-0.000138
1180	1.1731e+02	-7.0041	-19.319713	0.000284	2.837929	0.961516	-0.000114
1181	1.1741e+02	-7.0442	-19.448901	0.000324	3.243348	1.098876	-0.000130
1182	1.1751e+02	-7.0811	-19.557904	0.000274	2.736575	0.927177	-0.000110
1183	1.1761e+02	-7.1116	-19.691130	0.000334	3.344702	1.133216	-0.000134
1184	1.1771e+02	-7.1581	-19.796095	0.000264	2.635220	0.892837	-0.000105
1185	1.1781e+02	-7.2014	-19.941432	0.000365	3.648766	1.236235	-0.000146
1186	1.1791e+02	-7.2351	-20.078695	0.000345	3.446057	1.167556	-0.000138
1187	1.1801e+02	-7.2784	-20.232106	0.000385	3.851475	1.304915	-0.000154
1188	1.1811e+02	-7.3201	-20.341108	0.000274	2.736575	0.927177	-0.000110
1189	1.1821e+02	-7.3650	-20.454148	0.000284	2.837929	0.961516	-0.000114
1190	1.1831e+02	-7.3907	-20.575262	0.000304	3.040638	1.030196	-0.000122
1191	1.1841e+02	-7.4388	-20.712525	0.000345	3.446057	1.167556	-0.000138
1192	1.1850e+02	-7.4821	-20.813453	0.000253	2.533865	0.858497	-0.000101
1193	1.1860e+02	-7.5126	-20.950716	0.000345	3.446057	1.167556	-0.000138
1194	1.1870e+02	-7.5511	-21.083941	0.000334	3.344702	1.133216	-0.000134
1195	1.1880e+02	-7.6057	-21.225241	0.000355	3.547412	1.201896	-0.000142
1196	1.1890e+02	-7.6361	-21.330207	0.000264	2.635220	0.892837	-0.000105
1197	1.1900e+02	-7.6795	-21.475544	0.000365	3.648766	1.236235	-0.000146
1198	1.1910e+02	-7.7164	-21.584546	0.000274	2.736575	0.927177	-0.000110
1199	1.1920e+02	-7.7565	-21.713735	0.000324	3.243348	1.098876	-0.000130
1200	1.1930e+02	-7.7982	-21.838886	0.000314	3.141993	1.064536	-0.000126
1201	1.1940e+02	-7.8287	-21.955963	0.000294	2.939284	0.995856	-0.000118
1202	1.1950e+02	-7.8736	-22.097262	0.000355	3.547412	1.201896	-0.000142
1203	1.1960e+02	-7.9105	-22.173968	0.000193	1.925738	0.652458	-0.000077
1204	1.1970e+02	-7.9522	-22.351602	0.000446	4.459603	1.510954	-0.000179
1205	1.1980e+02	-7.9875	-22.456568	0.000264	2.635220	0.892837	-0.000105
1206	1.1990e+02	-8.0452	-22.622090	0.000416	4.155539	1.407935	-0.000166
1207	1.2000e+02	-8.0741	-22.686684	0.000162	1.621674	0.549438	-0.000065
1208	1.2010e+02	-8.1094	-22.819910	0.000334	3.344702	1.133216	-0.000134
1209	1.2020e+02	-8.1575	-22.965247	0.000365	3.648766	1.236235	-0.000146
1210	1.2030e+02	-8.1960	-23.066175	0.000253	2.533865	0.858497	-0.000101
1211	1.2039e+02	-8.2345	-23.195363	0.000324	3.243348	1.098876	-0.000130
1212	1.2049e+02	-8.2730	-23.340700	0.000365	3.648766	1.236235	-0.000146
1213	1.2059e+02	-8.3147	-23.437592	0.000243	2.432511	0.824157	-0.000097
1214	1.2069e+02	-8.3548	-23.542557	0.000264	2.635220	0.892837	-0.000105
1215	1.2079e+02	-8.3901	-23.687894	0.000365	3.648766	1.236235	-0.000146
1216	1.2089e+02	-8.4351	-23.784785	0.000243	2.432511	0.824157	-0.000097
1217	1.2099e+02	-8.4752	-23.909936	0.000314	3.141993	1.064536	-0.000126
1218	1.2109e+02	-8.5153	-24.035088	0.000314	3.141993	1.064536	-0.000126
1219	1.2119e+02	-8.5522	-24.164276	0.000324	3.243348	1.098876	-0.000130
1220	1.2129e+02	-8.5955	-24.273279	0.000274	2.736575	0.927177	-0.000110
1221	1.2139e+02	-8.6436	-24.366133	0.000233	2.331156	0.789817	-0.000093
1222	1.2149e+02	-8.6773	-24.519544	0.000385	3.851475	1.304915	-0.000154
1223	1.2159e+02	-8.7190	-24.648732	0.000324	3.243348	1.098876	-0.000130
1224	1.2169e+02	-8.7479	-24.785995	0.000345	3.446057	1.167556	-0.000138
1225	1.2179e+02	-8.7960	-24.878849	0.000233	2.331156	0.789817	-0.000093
1226	1.2189e+02	-8.8265	-24.991889	0.000284	2.837929	0.961516	-0.000114
1227	1.2199e+02	-8.8714	-25.133189	0.000355	3.547412	1.201896	-0.000142
1228	1.2209e+02	-8.9083	-25.234117	0.000253	2.533865	0.858497	-0.000101
1229	1.2219e+02	-8.9532	-25.339082	0.000264	2.635220	0.892837	-0.000105
1230	1.2229e+02	-8.9821	-25.484419	0.000365	3.648766	1.236235	-0.000146
1231	1.2239e+02	-9.0302	-25.569199	0.000213	2.128447	0.721137	-0.000085
1232	1.2248e+02	-9.0687	-25.678202	0.000274	2.736575	0.927177	-0.000110
1233	1.2258e+02	-9.1120	-25.803353	0.000314	3.141993	1.064536	-0.000126
1234	1.2268e+02	-9.1441	-25.944653	0.000355	3.547412	1.201896	-0.000142
1235	1.2278e+02	-9.1906	-26.057693	0.000284	2.837929	0.961516	-0.000114
1236	1.2288e+02	-9.2275	-26.166695	0.000274	2.736575	0.927177	-0.000110
1237	1.2298e+02	-9.2677	-26.251475	0.000213	2.128447	0.721137	-0.000085
1238	1.2308e+02	-9.3062	-26.376626	0.000314	3.141993	1.064536	-0.000126
1239	1.2318e+02	-9.3511	-26.493703	0.000294	2.939284	0.995856	-0.000118
1240	1.2328e+02	-9.3912	-26.622892	0.000324	3.243348	1.098876	-0.000130
1241	1.2338e+02	-9.4345	-26.707671	0.000213	2.128447	0.721137	-0.000085
1242	1.2348e+02	-9.4682	-26.861083	0.000385	3.851475	1.304915	-0.000154
1243	1.2358e+02	-9.5067	-26.941825	0.000203	2.027092	0.686797	-0.000081
1244	1.2368e+02	-9.5500	-27.079088	0.000345	3.446057	1.167556	-0.000138
1245	1.2378e+02	-9.5949	-27.196165	0.000294	2.939284	0.995856	-0.000118
1246	1.2388e+02	-9.6334	-27.337465	0.000355	3.547412	1.201896	-0.000142
1247	1.2398e+02	-9.6687	-27.406096	0.000172	1.723028	0.583778	-0.000069
1248	1.2408e+02	-9.7024	-27.502987	0.000243	2.432511	0.824157	-0.000097
1249	1.2418e+02	-9.7505	-27.616027	0.000284	2.837929	0.961516	-0.000114
1250	1.2428e+02	-9.7858	-27.753290	0.000345	3.446057	1.167556	-0.000138
1251	1.2438e+02	-9.8227	-27.898627	0.000365	3.648766	1.236235	-0.000146
1252	1.2447e+02	-9.8660	-27.975332	0.000193	1.925738	0.652458	-0.000077
1253	1.2457e+02	-9.9093	-28.096446	0.000304	3.040638	1.030196	-0.000122
1254	1.2467e+02	-9.9430	-28.205449	0.000274	2.736575	0.927177	-0.000110
1255	1.2477e+02	-9.9928	-28.318489	0.000284	2.837929	0.961516	-0.000114
1256	1.2487e+02	-10.0216	-28.471900	0.000385	3.851475	1.304915	-0.000154
1257	1.2497e+02	-10.0698	-28.568791	0.000243	2.432511	0.824157	-0.000097
1258	1.2507e+02	-10.1035	-28.673757	0.000264	2.635220	0.892837	-0.000105
1259	1.2517e+02	-10.1484	-28.802945	0.000324	3.243348	1.098876	-0.000130
1260	1.2527e+02	-10.1837	-28.891762	0.000223	2.229802	0.755477	-0.000089
1261	1.2537e+02	-10.2238	-29.008839	0.000294	2.939284	0.995856	-0.000118
1262	1.2547e+02	-10.2639	-29.121879	0.000284	2.837929	0.961516	-0.000114
1263	1.2557e+02	-10.3152	-29.271253	0.000375	3.750121	1.270575	-0.000150
1264	1.2567e+02	-10.3521	-29.368144	0.000243	2.432511	0.824157	-0.000097
1265	1.2577e+02	-10.3810	-29.485221	0.000294	2.939284	0.995856	-0.000118
1266	1.2587e+02	-10.4259	-29.570001	0.000213	2.128447	0.721137	-0.000085
1267	1.2597e+02	-10.4676	-29.707263	0.000345	3.446057	1.167556	-0.000138
1268	1.2607e+02	-10.4997	-29.828377	0.000304	3.040638	1.030196	-0.000122
1269	1.2617e+02	-10.5398	-29.905083	0.000193	1.925738	0.652458	-0.000077
1270	1.2627e+02	-10.5799	-30.062531	0.000395	3.952830	1.339255	-0.000158
1271	1.2636e+02	-10.6216	-30.163460	0.000253	2.533865	0.858497	-0.000101
1272	1.2646e+02	-10.6633	-30.256314	0.000233	2.331156	0.789817	-0.000093
1273	1.2656e+02	-10.7002	-30.385502	0.000324	3.243348	1.098876	-0.000130
1274	1.2666e+02	-10.7500	-30.498542	0.000284	2.837929	0.961516	-0.000114
1275	1.2676e+02	-10.7933	-30.611582	0.000284	2.837929	0.961516	-0.000114
1276	1.2686e+02	-10.8222	-30.712510	0.000253	2.533865	0.858497	-0.000101
1277	1.2696e+02	-10.8687	-30.825550	0.000284	2.837929	0.961516	-0.000114
1278	1.2706e+02	-10.9088	-30.950701	0.000314	3.141993	1.064536	-0.000126
1279	1.2716e+02	-10.9441	-31.051630	0.000253	2.533865	0.858497	-0.000101
1280	1.2726e+02	-10.9890	-31.136409	0.000213	2.128447	0.721137	-0.000085
1281	1.2736e+02	-11.0323	-31.229264	0.000233	2.331156	0.789817	-0.000093
1282	1.2746e+02	-11.0676	-31.366526	0.000345	3.446057	1.167556	-0.000138
1283	1.2756e+02	-11.0965	-31.459380	0.000233	2.331156	0.789817	-0.000093
1284	1.2766e+02	-11.1350	-31.576457	0.000294	2.939284	0.995856	-0.000118
1285	1.2776e+02	-11.1911	-31.733905	0.000395	3.952830	1.339255	-0.000158
1286	1.2786e+02	-11.2152	-31.778314	0.000111	1.114901	0.377739	-0.000045
1287	1.2796e+02	-11.2553	-31.939799	0.000405	4.054185	1.373595	-0.000162
1288	1.2806e+02	-11.3050	-32.044765	0.000264	2.635220	0.892837	-0.000105
1289	1.2816e+02	-11.3451	-32.177990	0.000334	3.344702	1.133216	-0.000134
1290	1.2826e+02	-11.3756	-32.250659	0.000182	1.824383	0.618118	-0.000073
1291	1.2835e+02	-11.4173	-32.363699	0.000284	2.837929	0.961516	-0.000114
1292	1.2845e+02	-11.4558	-32.476738	0.000284	2.837929	0.961516	-0.000114
1293	1.2855e+02	-11.5056	-32.650335	0.000436	4.358248	1.476615	-0.000174
1294	1.2865e+02	-11.5441	-32.710892	0.000152	1.520319	0.515098	-0.000061
1295	1.2875e+02	-11.5810	-32.803746	0.000233	2.331156	0.789817	-0.000093
1296	1.2885e+02	-11.6195	-32.932935	0.000324	3.243348	1.098876	-0.000130
1297	1.2895e+02	-11.6692	-33.050012	0.000294	2.939284	0.995856	-0.000118
1298	1.2905e+02	-11.7029	-33.154977	0.000264	2.635220	0.892837	-0.000105
1299	1.2915e+02	-11.7446	-33.272054	0.000294	2.939284	0.995856	-0.000118
1300	1.2925e+02	-11.7799	-33.360871	0.000223	2.229802	0.755477	-0.000089
1301	1.2935e+02	-11.8152	-33.473911	0.000284	2.837929	0.961516	-0.000114
1302	1.2945e+02	-11.8585	-33.558691	0.000213	2.128447	0.721137	-0.000085
1303	1.2955e+02	-11.8954	-33.691916	0.000334	3.344702	1.133216	-0.000134
1304	1.2965e+02	-11.9467	-33.792845	0.000253	2.533865	0.858497	-0.000101
1305	1.2975e+02	-11.9852	-33.946256	0.000385	3.851475	1.304915	-0.000154
1306	1.2985e+02	-12.0189	-34.051221	0.000264	2.635220	0.892837	-0.000105
1307	1.2995e+02	-12.0590	-34.196558	0.000365	3.648766	1.236235	-0.000146
1308	1.3005e+02	-12.0927	-34.269227	0.000182	1.824383	0.618118	-0.000073
1309	1.3015e+02	-12.1408	-34.382267	0.000284	2.837929	0.961516	-0.000114
1310	1.3025e+02	-12.1777	-34.491269	0.000274	2.736575	0.927177	-0.000110
1311	1.3034e+02	-12.2194	-34.624495	0.000334	3.344702	1.133216	-0.000134
1312	1.3044e+02	-12.2660	-34.749646	0.000314	3.141993	1.064536	-0.000126
1313	1.3054e+02	-12.3013	-34.858649	0.000274	2.736575	0.927177	-0.000110
1314	1.3064e+02	-12.3446	-34.979763	0.000304	3.040638	1.030196	-0.000122
1315	1.3074e+02	-12.3734	-35.137211	0.000395	3.952830	1.339255	-0.000158
1316	1.3084e+02	-12.4280	-35.181619	0.000111	1.114901	0.377739	-0.000045
1317	1.3094e+02	-12.4601	-35.343105	0.000405	4.054185	1.373595	-0.000162
1318	1.3104e+02	-12.5002	-35.427885	0.000213	2.128447	0.721137	-0.000085
1319	1.3114e+02	-12.5323	-35.548999	0.000304	3.040638	1.030196	-0.000122
1320	1.3124e+02	-12.5820	-35.674150	0.000314	3.141993	1.064536	-0.000126
1321	1.3134e+02	-12.6269	-35.787190	0.000284	2.837929	0.961516	-0.000114
1322	1.3144e+02	-12.6590	-35.892155	0.000264	2.635220	0.892837	-0.000105
1323	1.3154e+02	-12.7007	-36.029418	0.000345	3.446057	1.167556	-0.000138
1324	1.3164e+02	-12.7376	-36.114198	0.000213	2.128447	0.721137	-0.000085
1325	1.3174e+02	-12.7793	-36.279720	0.000416	4.155539	1.407935	-0.000166
1326	1.3184e+02	-12.8114	-36.360463	0.000203	2.027092	0.686797	-0.000081
1327	1.3194e+02	-12.8676	-36.501763	0.000355	3.547412	1.201896	-0.000142
1328	1.3204e+02	-12.8948	-36.626914	0.000314	3.141993	1.064536	-0.000126
1329	1.3214e+02	-12.9333	-36.691508	0.000162	1.621674	0.549438	-0.000065
1330	1.3224e+02	-12.9798	-36.828771	0.000345	3.446057	1.167556	-0.000138
1331	1.3234e+02	-13.0135	-36.961996	0.000334	3.344702	1.133216	-0.000134
1332	1.3243e+02	-13.0569	-37.087147	0.000314	3.141993	1.064536	-0.000126
1333	1.3253e+02	-13.0970	-37.159816	0.000182	1.824383	0.618118	-0.000073
1334	1.3263e+02	-13.1435	-37.305153	0.000365	3.648766	1.236235	-0.000146
1335	1.3273e+02	-13.1724	-37.410118	0.000264	2.635220	0.892837	-0.000105
1336	1.3283e+02	-13.2076	-37.547381	0.000345	3.446057	1.167556	-0.000138
1337	1.3293e+02	-13.2558	-37.636198	0.000223	2.229802	0.755477	-0.000089
1338	1.3303e+02	-13.2911	-37.757312	0.000304	3.040638	1.030196	-0.000122
1339	1.3313e+02	-13.3328	-37.878426	0.000304	3.040638	1.030196	-0.000122
1340	1.3323e+02	-13.3825	-37.983392	0.000264	2.635220	0.892837	-0.000105
1341	1.3333e+02	-13.4162	-38.104506	0.000304	3.040638	1.030196	-0.000122
1342	1.3343e+02	-13.4595	-38.233694	0.000324	3.243348	1.098876	-0.000130
1343	1.3353e+02	-13.4932	-38.334622	0.000253	2.533865	0.858497	-0.000101
1344	1.3363e+02	-13.5349	-38.475922	0.000355	3.547412	1.201896	-0.000142
1345	1.3373e+02	-13.5702	-38.572813	0.000243	2.432511	0.824157	-0.000097
1346	1.3383e+02	-13.6023	-38.665668	0.000233	2.331156	0.789817	-0.000093
1347	1.3393e+02	-13.6472	-38.835227	0.000426	4.256894	1.442275	-0.000170
1348	1.3403e+02	-13.6953	-38.915970	0.000203	2.027092	0.686797	-0.000081
1349	1.3413e+02	-13.7226	-39.029010	0.000284	2.837929	0.961516	-0.000114
1350	1.3423e+02	-13.7772	-39.109752	0.000203	2.027092	0.686797	-0.000081
1351	1.3432e+02	-13.8140	-39.255089	0.000365	3.648766	1.236235	-0.000146
1352	1.3442e+02	-13.8558	-39.408501	0.000385	3.851475	1.304915	-0.000154
1353	1.3452e+02	-13.9039	-39.469058	0.000152	1.520319	0.515098	-0.000061
1354	1.3462e+02	-13.9312	-39.598246	0.000324	3.243348	1.098876	-0.000130
1355	1.3472e+02	-13.9825	-39.751657	0.000385	3.851475	1.304915	-0.000154
1356	1.3482e+02	-14.0082	-39.852585	0.000253	2.533865	0.858497	-0.000101
1357	1.3492e+02	-14.0563	-39.997922	0.000365	3.648766	1.236235	-0.000146
1358	1.3502e+02	-14.0852	-40.078665	0.000203	2.027092	0.686797	-0.000081
1359	1.3512e+02	-14.1333	-40.228039	0.000375	3.750121	1.270575	-0.000150
1360	1.3522e+02	-14.1686	-40.333005	0.000264	2.635220	0.892837	-0.000105
1361	1.3532e+02	-14.2151	-40.458156	0.000314	3.141993	1.064536	-0.000126
1362	1.3542e+02	-14.2552	-40.571196	0.000284	2.837929	0.961516	-0.000114
1363	1.3552e+02	-14.2857	-40.692310	0.000304	3.040638	1.030196	-0.000122
1364	1.3562e+02	-14.3306	-40.821498	0.000324	3.243348	1.098876	-0.000130
1365	1.3572e+02	-14.3707	-40.946649	0.000314	3.141993	1.064536	-0.000126
1366	1.3582e+02	-14.4108	-41.007206	0.000152	1.520319	0.515098	-0.000061
1367	1.3592e+02	-14.4509	-41.192915	0.000466	4.662312	1.579634	-0.000187
1368	1.3602e+02	-14.4926	-41.277694	0.000213	2.128447	0.721137	-0.000085
1369	1.3612e+02	-14.5327	-41.427068	0.000375	3.750121	1.270575	-0.000150
1370	1.3622e+02	-14.5584	-41.495700	0.000172	1.723028	0.583778	-0.000069
1371	1.3631e+02	-14.6081	-41.661222	0.000416	4.155539	1.407935	-0.000166
1372	1.3641e+02	-14.6466	-41.794448	0.000334	3.344702	1.133216	-0.000134
1373	1.3651e+02	-14.6948	-41.871153	0.000193	1.925738	0.652458	-0.000077
1374	1.3661e+02	-14.7285	-42.064936	0.000487	4.865022	1.648314	-0.000195
1375	1.3671e+02	-14.7718	-42.145679	0.000203	2.027092	0.686797	-0.000081
1376	1.3681e+02	-14.8071	-42.234496	0.000223	2.229802	0.755477	-0.000089
1377	1.3691e+02	-14.8472	-42.391944	0.000395	3.952830	1.339255	-0.000158
1378	1.3701e+02	-14.8841	-42.496909	0.000264	2.635220	0.892837	-0.000105
1379	1.3711e+02	-14.9274	-42.650321	0.000385	3.851475	1.304915	-0.000154
1380	1.3721e+02	-14.9611	-42.735100	0.000213	2.128447	0.721137	-0.000085
1381	1.3731e+02	-15.0092	-42.900623	0.000416	4.155539	1.407935	-0.000166
1382	1.3741e+02	-15.0541	-42.997514	0.000243	2.432511	0.824157	-0.000097
1383	1.3751e+02	-15.0942	-43.082294	0.000213	2.128447	0.721137	-0.000085
1384	1.3761e+02	-15.1311	-43.239742	0.000395	3.952830	1.339255	-0.000158
1385	1.3771e+02	-15.1712	-43.344708	0.000264	2.635220	0.892837	-0.000105
1386	1.3781e+02	-15.2194	-43.461785	0.000294	2.939284	0.995856	-0.000118
1387	1.3791e+02	-15.2514	-43.611159	0.000375	3.750121	1.270575	-0.000150
1388	1.3801e+02	-15.2883	-43.712087	0.000253	2.533865	0.858497	-0.000101
1389	1.3811e+02	-15.3252	-43.861461	0.000375	3.750121	1.270575	-0.000150
1390	1.3821e+02	-15.3702	-43.958352	0.000243	2.432511	0.824157	-0.000097
1391	1.3831e+02	-15.4054	-44.079467	0.000304	3.040638	1.030196	-0.000122
1392	1.3840e+02	-15.4343	-44.212692	0.000334	3.344702	1.133216	-0.000134
1393	1.3850e+02	-15.4841	-44.333806	0.000304	3.040638	1.030196	-0.000122
1394	1.3860e+02	-15.5338	-44.450883	0.000294	2.939284	0.995856	-0.000118
1395	1.3870e+02	-15.5755	-44.555849	0.000264	2.635220	0.892837	-0.000105
1396	1.3880e+02	-15.6140	-44.721371	0.000416	4.155539	1.407935	-0.000166
1397	1.3890e+02	-15.6477	-44.858634	0.000345	3.446057	1.167556	-0.000138
1398	1.3900e+02	-15.6814	-44.979748	0.000304	3.040638	1.030196	-0.000122
1399	1.3910e+02	-15.7199	-45.060491	0.000203	2.027092	0.686797	-0.000081
1400	1.3920e+02	-15.7680	-45.201790	0.000355	3.547412	1.201896	-0.000142
1401	1.3930e+02	-15.8097	-45.330979	0.000324	3.243348	1.098876	-0.000130
1402	1.3940e+02	-15.8402	-45.476316	0.000365	3.648766	1.236235	-0.000146
1403	1.3950e+02	-15.8851	-45.540910	0.000162	1.621674	0.549438	-0.000065
1404	1.3960e+02	-15.9284	-45.714507	0.000436	4.358248	1.476615	-0.000174
1405	1.3970e+02	-15.9621	-45.819472	0.000264	2.635220	0.892837	-0.000105
1406	1.3980e+02	-16.0054	-45.932512	0.000284	2.837929	0.961516	-0.000114
1407	1.3990e+02	-16.0407	-46.045552	0.000284	2.837929	0.961516	-0.000114
1408	1.4000e+02	-16.0872	-46.223186	0.000446	4.459603	1.510954	-0.000179
1409	1.4010e+02	-16.1257	-46.291817	0.000172	1.723028	0.583778	-0.000069
1410	1.4020e+02	-16.1642	-46.453302	0.000405	4.054185	1.373595	-0.000162
1411	1.4029e+02	-16.2028	-46.570379	0.000294	2.939284	0.995856	-0.000118
1412	1.4039e+02	-16.2364	-46.695531	0.000314	3.141993	1.064536	-0.000126
1413	1.4049e+02	-16.2782	-46.861053	0.000416	4.155539	1.407935	-0.000166
1414	1.4059e+02	-16.3247	-47.006390	0.000365	3.648766	1.236235	-0.000146
1415	1.4069e+02	-16.3584	-47.095207	0.000223	2.229802	0.755477	-0.000089
1416	1.4079e+02	-16.3921	-47.232470	0.000345	3.446057	1.167556	-0.000138
1417	1.4089e+02	-16.4434	-47.353584	0.000304	3.040638	1.030196	-0.000122
1418	1.4099e+02	-16.4899	-47.498921	0.000365	3.648766	1.236235	-0.000146
1419	1.4109e+02	-16.5204	-47.611960	0.000284	2.837929	0.961516	-0.000114
1420	1.4119e+02	-16.5621	-47.753260	0.000355	3.547412	1.201896	-0.000142
1421	1.4129e+02	-16.6022	-47.870337	0.000294	2.939284	0.995856	-0.000118
1422	1.4139e+02	-16.6423	-47.995488	0.000314	3.141993	1.064536	-0.000126
1423	1.4149e+02	-16.6760	-48.148899	0.000385	3.851475	1.304915	-0.000154
1424	1.4159e+02	-16.7065	-48.249828	0.000253	2.533865	0.858497	-0.000101
1425	1.4169e+02	-16.7690	-48.427462	0.000446	4.459603	1.510954	-0.000179
1426	1.4179e+02	-16.8043	-48.564724	0.000345	3.446057	1.167556	-0.000138
1427	1.4189e+02	-16.8364	-48.714098	0.000375	3.750121	1.270575	-0.000150
1428	1.4199e+02	-16.8749	-48.810990	0.000243	2.432511	0.824157	-0.000097
1429	1.4209e+02	-16.9214	-48.944215	0.000334	3.344702	1.133216	-0.000134
1430	1.4219e+02	-16.9567	-49.117812	0.000436	4.358248	1.476615	-0.000174
1431	1.4228e+02	-16.9920	-49.230852	0.000284	2.837929	0.961516	-0.000114
1432	1.4238e+02	-17.0434	-49.404449	0.000436	4.358248	1.476615	-0.000174
1433	1.4248e+02	-17.0706	-49.545748	0.000355	3.547412	1.201896	-0.000142
1434	1.4258e+02	-17.1252	-49.634565	0.000223	2.229802	0.755477	-0.000089
1435	1.4268e+02	-17.1573	-49.820274	0.000466	4.662312	1.579634	-0.000187
1436	1.4278e+02	-17.1974	-49.925239	0.000264	2.635220	0.892837	-0.000105
1437	1.4288e+02	-17.2343	-50.054427	0.000324	3.243348	1.098876	-0.000130
1438	1.4298e+02	-17.2792	-50.207839	0.000385	3.851475	1.304915	-0.000154
1439	1.4308e+02	-17.3177	-50.373361	0.000416	4.155539	1.407935	-0.000166
1440	1.4318e+02	-17.3658	-50.474290	0.000253	2.533865	0.858497	-0.000101
1441	1.4328e+02	-17.4011	-50.631738	0.000395	3.952830	1.339255	-0.000158
1442	1.4338e+02	-17.4364	-50.805335	0.000436	4.358248	1.476615	-0.000174
1443	1.4348e+02	-17.4749	-50.906263	0.000253	2.533865	0.858497	-0.000101
1444	1.4358e+02	-17.5102	-51.063711	0.000395	3.952830	1.339255	-0.000158
1445	1.4368e+02	-17.5567	-51.209048	0.000365	3.648766	1.236235	-0.000146
1446	1.4378e+02	-17.5936	-51.314014	0.000264	2.635220	0.892837	-0.000105
1447	1.4388e+02	-17.6417	-51.527982	0.000537	5.371795	1.820013	-0.000215
1448	1.4398e+02	-17.6722	-51.657170	0.000324	3.243348	1.098876	-0.000130
1449	1.4408e+02	-17.7236	-51.814619	0.000395	3.952830	1.339255	-0.000158
1450	1.4418e+02	-17.7412	-51.915547	0.000253	2.533865	0.858497	-0.000101
1451	1.4428e+02	-17.7909	-52.097218	0.000456	4.560958	1.545294	-0.000183
1452	1.4437e+02	-17.8423	-52.230444	0.000334	3.344702	1.133216	-0.000134
1453	1.4447e+02	-17.8776	-52.383855	0.000385	3.851475	1.304915	-0.000154
1454	1.4457e+02	-17.9113	-52.533229	0.000375	3.750121	1.270575	-0.000150
1455	1.4467e+02	-17.9546	-52.662417	0.000324	3.243348	1.098876	-0.000130
1456	1.4477e+02	-17.9947	-52.844088	0.000456	4.560958	1.545294	-0.000183
1457	1.4487e+02	-18.0380	-52.997499	0.000385	3.851475	1.304915	-0.000154
1458	1.4497e+02	-18.0765	-53.126688	0.000324	3.243348	1.098876	-0.000130
1459	1.4507e+02	-18.1134	-53.296247	0.000426	4.256894	1.442275	-0.000170
1460	1.4517e+02	-18.1615	-53.425436	0.000324	3.243348	1.098876	-0.000130
1461	1.4527e+02	-18.1920	-53.578847	0.000385	3.851475	1.304915	-0.000154
1462	1.4537e+02	-18.2321	-53.760518	0.000456	4.560958	1.545294	-0.000183
1463	1.4547e+02	-18.2738	-53.893744	0.000334	3.344702	1.133216	-0.000134
1464	1.4557e+02	-18.3203	-54.071378	0.000446	4.459603	1.510954	-0.000179
1465	1.4567e+02	-18.3556	-54.228826	0.000395	3.952830	1.339255	-0.000158
1466	1.4577e+02	-18.3957	-54.414534	0.000466	4.662312	1.579634	-0.000187
1467	1.4587e+02	-18.4391	-54.588131	0.000436	4.358248	1.476615	-0.000174
1468	1.4597e+02	-18.4759	-54.709245	0.000304	3.040638	1.030196	-0.000122
1469	1.4607e+02	-18.5128	-54.854582	0.000365	3.648766	1.236235	-0.000146
1470	1.4617e+02	-18.5594	-55.060476	0.000517	5.169085	1.751334	-0.000207
1471	1.4626e+02	-18.5995	-55.221961	0.000405	4.054185	1.373595	-0.000162
1472	1.4636e+02	-18.6316	-55.387484	0.000416	4.155539	1.407935	-0.000166
1473	1.4646e+02	-18.6701	-55.544932	0.000395	3.952830	1.339255	-0.000158
1474	1.4656e+02	-18.7166	-55.730640	0.000466	4.662312	1.579634	-0.000187
1475	1.4666e+02	-18.7487	-55.855792	0.000314	3.141993	1.064536	-0.000126
1476	1.4676e+02	-18.7888	-56.045537	0.000476	4.763667	1.613974	-0.000191
1477	1.4686e+02	-18.8369	-56.215097	0.000426	4.256894	1.442275	-0.000170
1478	1.4696e+02	-18.8690	-56.400805	0.000466	4.662312	1.579634	-0.000187
1479	1.4706e+02	-18.9091	-56.562290	0.000405	4.054185	1.373595	-0.000162
1480	1.4716e+02	-18.9492	-56.739924	0.000446	4.459603	1.510954	-0.000179
1481	1.4726e+02	-18.9973	-56.933707	0.000487	4.865022	1.648314	-0.000195
1482	1.4736e+02	-19.0358	-57.107304	0.000436	4.358248	1.476615	-0.000174
1483	1.4746e+02	-19.0711	-57.280900	0.000436	4.358248	1.476615	-0.000174
1484	1.4756e+02	-19.1209	-57.462572	0.000456	4.560958	1.545294	-0.000183
1485	1.4766e+02	-19.1513	-57.591760	0.000324	3.243348	1.098876	-0.000130
1486	1.4776e+02	-19.1914	-57.777468	0.000466	4.662312	1.579634	-0.000187
1487	1.4786e+02	-19.2315	-58.015659	0.000598	5.979922	2.026053	-0.000239
1488	1.4796e+02	-19.2716	-58.169070	0.000385	3.851475	1.304915	-0.000154
1489	1.4806e+02	-19.3150	-58.354779	0.000466	4.662312	1.579634	-0.000187
1490	1.4816e+02	-19.3503	-58.496078	0.000355	3.547412	1.201896	-0.000142
1491	1.4825e+02	-19.3952	-58.738306	0.000608	6.081277	2.060392	-0.000243
1492	1.4835e+02	-19.4305	-58.903829	0.000416	4.155539	1.407935	-0.000166
1493	1.4845e+02	-19.4770	-59.085500	0.000456	4.560958	1.545294	-0.000183
1494	1.4855e+02	-19.5187	-59.319654	0.000588	5.878568	1.991713	-0.000235
1495	1.4865e+02	-19.5524	-59.477102	0.000395	3.952830	1.339255	-0.000158
1496	1.4875e+02	-19.5845	-59.691070	0.000537	5.371795	1.820013	-0.000215
1497	1.4885e+02	-19.6326	-59.892927	0.000507	5.067731	1.716994	-0.000203
1498	1.4895e+02	-19.6615	-60.050376	0.000395	3.952830	1.339255	-0.000158
1499	1.4905e+02	-19.7032	-60.256269	0.000517	5.169085	1.751334	-0.000207
1500	1.4915e+02	-19.7449	-60.450052	0.000487	4.865022	1.648314	-0.000195
1501	1.4925e+02	-19.7786	-60.643834	0.000487	4.865022	1.648314	-0.000195
1502	1.4935e+02	-19.8235	-60.845691	0.000507	5.067731	1.716994	-0.000203
1503	1.4945e+02	-19.8636	-61.043511	0.000497	4.966376	1.682654	-0.000199
1504	1.4955e+02	-19.9069	-61.237293	0.000487	4.865022	1.648314	-0.000195
1505	1.4965e+02	-19.9534	-61.459336	0.000557	5.574504	1.888693	-0.000223
1506	1.4975e+02	-19.9968	-61.649081	0.000476	4.763667	1.613974	-0.000191
1507	1.4985e+02	-20.0272	-61.883235	0.000588	5.878568	1.991713	-0.000235
1508	1.4995e+02	-19.9807	-61.891309	-0.000020	-0.202709	-0.068680	-0.000008
1509	1.5005e+02	-19.9518	-61.907458	-0.000041	-0.405418	-0.137359	-0.000016
1510	1.5015e+02	-19.8925	-61.947829	-0.000101	-1.013546	-0.343399	-0.000041
1511	1.5025e+02	-19.8620	-62.004349	-0.000142	-1.418965	-0.480758	-0.000057
1512	1.5034e+02	-19.8283	-62.028572	-0.000061	-0.608128	-0.206039	-0.000024
1513	1.5044e+02	-19.7978	-62.036646	-0.000020	-0.202709	-0.068680	-0.000008
1514	1.5054e+02	-19.7497	-62.052795	-0.000041	-0.405418	-0.137359	-0.000016
1515	1.5064e+02	-19.7112	-62.028572	0.000061	0.608128	0.206039	0.000024
1516	1.5074e+02	-19.6711	-62.012424	0.000041	0.405418	0.137359	0.000016
1517	1.5084e+02	-19.6342	-62.048758	-0.000091	-0.912192	-0.309059	-0.000037
1518	1.5094e+02	-19.5925	-62.060869	-0.000030	-0.304064	-0.103020	-0.000012
1519	1.5104e+02	-19.5508	-61.992238	0.000172	1.723028	0.583778	0.000069
1520	1.5114e+02	-19.5043	-62.020498	-0.000071	-0.709482	-0.240379	-0.000028
1521	1.5124e+02	-19.4722	-62.004349	0.000041	0.405418	0.137359	0.000016
1522	1.5134e+02	-19.4353	-61.963978	0.000101	1.013546	0.343399	0.000041
1523	1.5144e+02	-19.3984	-61.992238	-0.000071	-0.709482	-0.240379	-0.000028
1524	1.5154e+02	-19.3551	-61.903421	0.000223	2.229802	0.755477	0.000089
1525	1.5164e+02	-19.3134	-61.939755	-0.000091	-0.912192	-0.309059	-0.000037
1526	1.5174e+02	-19.2733	-61.923607	0.000041	0.405418	0.137359	0.000016
1527	1.5184e+02	-19.2331	-61.883235	0.000101	1.013546	0.343399	0.000041
1528	1.5194e+02	-19.1962	-61.879198	0.000010	0.101355	0.034340	0.000004
1529	1.5204e+02	-19.1529	-61.814604	0.000162	1.621674	0.549438	0.000065
1530	1.5214e+02	-19.1176	-61.762121	0.000132	1.317610	0.446418	0.000053
1531	1.5224e+02	-19.0663	-61.709638	0.000132	1.317610	0.446418	0.000053
1532	1.5233e+02	-19.0326	-61.693490	0.000041	0.405418	0.137359	0.000016
1533	1.5243e+02	-18.9973	-61.645044	0.000122	1.216255	0.412078	0.000049
1534	1.5253e+02	-18.9508	-61.620821	0.000061	0.608128	0.206039	0.000024
1535	1.5263e+02	-18.9123	-61.604673	0.000041	0.405418	0.137359	0.000016
1536	1.5273e+02	-18.8674	-61.572376	0.000081	0.810837	0.274719	0.000032
1537	1.5283e+02	-18.8321	-61.507782	0.000162	1.621674	0.549438	0.000065
1538	1.5293e+02	-18.7936	-61.487596	0.000051	0.506773	0.171699	0.000020
1539	1.5303e+02	-18.7551	-61.443187	0.000111	1.114901	0.377739	0.000045
1540	1.5313e+02	-18.7086	-61.366482	0.000193	1.925738	0.652458	0.000077
1541	1.5323e+02	-18.6765	-61.342259	0.000061	0.608128	0.206039	0.000024
1542	1.5333e+02	-18.6332	-61.301888	0.000101	1.013546	0.343399	0.000041
1543	1.5343e+02	-18.5898	-61.261516	0.000101	1.013546	0.343399	0.000041
1544	1.5353e+02	-18.5481	-61.172699	0.000223	2.229802	0.755477	0.000089
1545	1.5363e+02	-18.5193	-61.148476	0.000061	0.608128	0.206039	0.000024
1546	1.5373e+02	-18.4776	-61.100031	0.000122	1.216255	0.412078	0.000049
1547	1.5383e+02	-18.4374	-61.003140	0.000243	2.432511	0.824157	0.000097
1548	1.5393e+02	-18.3861	-60.986991	0.000041	0.405418	0.137359	0.000016
1549	1.5403e+02	-18.3524	-60.954694	0.000081	0.810837	0.274719	0.000032
1550	1.5413e+02	-18.3187	-60.890100	0.000162	1.621674	0.549438	0.000065
1551	1.5422e+02	-18.2866	-60.797246	0.000233	2.331156	0.789817	0.000093
1552	1.5432e+02	-18.2353	-60.785134	0.000030	0.304064	0.103020	0.000012
1553	1.5442e+02	-18.1984	-60.692280	0.000233	2.331156	0.789817	0.000093
1554	1.5452e+02	-18.1567	-60.639797	0.000132	1.317610	0.446418	0.000053
1555	1.5462e+02	-18.1182	-60.607500	0.000081	0.810837	0.274719	0.000032
1556	1.5472e+02	-18.0781	-60.518683	0.000223	2.229802	0.755477	0.000089
1557	1.5482e+02	-18.0332	-60.502535	0.000041	0.405418	0.137359	0.000016
1558	1.5492e+02	-17.9979	-60.421792	0.000203	2.027092	0.686797	0.000081
1559	1.5502e+02	-17.9546	-60.324901	0.000243	2.432511	0.824157	0.000097
1560	1.5512e+02	-17.9129	-60.296641	0.000071	0.709482	0.240379	0.000028
1561	1.5522e+02	-17.8808	-60.256269	0.000101	1.013546	0.343399	0.000041
1562	1.5532e+02	-17.8278	-60.187638	0.000172	1.723028	0.583778	0.000069
1563	1.5542e+02	-17.7877	-60.038264	0.000375	3.750121	1.270575	0.000150
1564	1.5552e+02	-17.7573	-60.046338	-0.000020	-0.202709	-0.068680	-0.000008
1565	1.5562e+02	-17.7284	-59.997893	0.000122	1.216255	0.412078	0.000049
1566	1.5572e+02	-17.6754	-59.888890	0.000274	2.736575	0.927177	0.000110
1567	1.5582e+02	-17.6369	-59.844482	0.000111	1.114901	0.377739	0.000045
1568	1.5592e+02	-17.6000	-59.751627	0.000233	2.331156	0.789817	0.000093
1569	1.5602e+02	-17.5583	-59.707219	0.000111	1.114901	0.377739	0.000045
1570	1.5612e+02	-17.5134	-59.658773	0.000122	1.216255	0.412078	0.000049
1571	1.5622e+02	-17.4845	-59.565919	0.000233	2.331156	0.789817	0.000093
1572	1.5631e+02	-17.4428	-59.485177	0.000203	2.027092	0.686797	0.000081
1573	1.5641e+02	-17.3963	-59.456917	0.000071	0.709482	0.240379	0.000028
1574	1.5651e+02	-17.3530	-59.335803	0.000304	3.040638	1.030196	0.000122
1575	1.5661e+02	-17.3241	-59.275245	0.000152	1.520319	0.515098	0.000061
1576	1.5671e+02	-17.2744	-59.230837	0.000111	1.114901	0.377739	0.000045
1577	1.5681e+02	-17.2407	-59.142020	0.000223	2.229802	0.755477	0.000089
1578	1.5691e+02	-17.1974	-59.065314	0.000193	1.925738	0.652458	0.000077
1579	1.5701e+02	-17.1637	-59.004757	0.000152	1.520319	0.515098	0.000061
1580	1.5711e+02	-17.1188	-58.911903	0.000233	2.331156	0.789817	0.000093
1581	1.5721e+02	-17.0755	-58.863458	0.000122	1.216255	0.412078	0.000049
1582	1.5731e+02	-17.0386	-58.746381	0.000294	2.939284	0.995856	0.000118
1583	1.5741e+02	-16.9985	-58.677749	0.000172	1.723028	0.583778	0.000069
1584	1.5751e+02	-16.9519	-58.629304	0.000122	1.216255	0.412078	0.000049
1585	1.5761e+02	-16.9247	-58.580858	0.000122	1.216255	0.412078	0.000049
1586	1.5771e+02	-16.8862	-58.512227	0.000172	1.723028	0.583778	0.000069
1587	1.5781e+02	-16.8396	-58.423410	0.000223	2.229802	0.755477	0.000089
1588	1.5791e+02	-16.8011	-58.354779	0.000172	1.723028	0.583778	0.000069
1589	1.5801e+02	-16.7594	-58.274036	0.000203	2.027092	0.686797	0.000081
1590	1.5811e+02	-16.7209	-58.225590	0.000122	1.216255	0.412078	0.000049
1591	1.5821e+02	-16.6808	-58.116588	0.000274	2.736575	0.927177	0.000110
1592	1.5830e+02	-16.6407	-58.051993	0.000162	1.621674	0.549438	0.000065
1593	1.5840e+02	-16.6006	-57.951065	0.000253	2.533865	0.858497	0.000101
1594	1.5850e+02	-16.5621	-57.910694	0.000101	1.013546	0.343399	0.000041
1595	1.5860e+02	-16.5220	-57.789580	0.000304	3.040638	1.030196	0.000122
1596	1.5870e+02	-16.4819	-57.777468	0.000030	0.304064	0.103020	0.000012
1597	1.5880e+02	-16.4418	-57.668465	0.000274	2.736575	0.927177	0.000110
1598	1.5890e+02	-16.4001	-57.620020	0.000122	1.216255	0.412078	0.000049
1599	1.5900e+02	-16.3680	-57.551389	0.000172	1.723028	0.583778	0.000069
1600	1.5910e+02	-16.3231	-57.470646	0.000203	2.027092	0.686797	0.000081
1601	1.5920e+02	-16.2814	-57.353569	0.000294	2.939284	0.995856	0.000118
1602	1.5930e+02	-16.2396	-57.293012	0.000152	1.520319	0.515098	0.000061
1603	1.5940e+02	-16.2011	-57.196121	0.000243	2.432511	0.824157	0.000097
1604	1.5950e+02	-16.1594	-57.135564	0.000152	1.520319	0.515098	0.000061
1605	1.5960e+02	-16.1274	-57.079044	0.000142	1.418965	0.480758	0.000057
1606	1.5970e+02	-16.0792	-57.010412	0.000172	1.723028	0.583778	0.000069
1607	1.5980e+02	-16.0423	-56.905447	0.000264	2.635220	0.892837	0.000105
1608	1.5990e+02	-16.0086	-56.800481	0.000264	2.635220	0.892837	0.000105
1609	1.6000e+02	-15.9637	-56.739924	0.000152	1.520319	0.515098	0.000061
1610	1.6010e+02	-15.9204	-56.699553	0.000101	1.013546	0.343399	0.000041
1611	1.6019e+02	-15.8899	-56.610736	0.000223	2.229802	0.755477	0.000089
1612	1.6029e+02	-15.8402	-56.562290	0.000122	1.216255	0.412078	0.000049
1613	1.6039e+02	-15.8129	-56.477510	0.000213	2.128447	0.721137	0.000085
1614	1.6049e+02	-15.7648	-56.384656	0.000233	2.331156	0.789817	0.000093
1615	1.6059e+02	-15.7199	-56.283728	0.000253	2.533865	0.858497	0.000101
1616	1.6069e+02	-15.6878	-56.194911	0.000223	2.229802	0.755477	0.000089
1617	1.6079e+02	-15.6413	-56.154540	0.000101	1.013546	0.343399	0.000041
1618	1.6089e+02	-15.6060	-56.085908	0.000172	1.723028	0.583778	0.000069
1619	1.6099e+02	-15.5675	-55.968831	0.000294	2.939284	0.995856	0.000118
1620	1.6109e+02	-15.5242	-55.867903	0.000253	2.533865	0.858497	0.000101
1621	1.6119e+02	-15.4825	-55.791197	0.000193	1.925738	0.652458	0.000077
1622	1.6129e+02	-15.4456	-55.746789	0.000111	1.114901	0.377739	0.000045
1623	1.6139e+02	-15.4119	-55.609526	0.000345	3.446057	1.167556	0.000138
1624	1.6149e+02	-15.3669	-55.577229	0.000081	0.810837	0.274719	0.000032
1625	1.6159e+02	-15.3317	-55.456115	0.000304	3.040638	1.030196	0.000122
1626	1.6169e+02	-15.2883	-55.399595	0.000142	1.418965	0.480758	0.000057
1627	1.6179e+02	-15.2514	-55.330964	0.000172	1.723028	0.583778	0.000069
1628	1.6189e+02	-15.2113	-55.258295	0.000182	1.824383	0.618118	0.000073
1629	1.6199e+02	-15.1680	-55.137181	0.000304	3.040638	1.030196	0.000122
1630	1.6209e+02	-15.1215	-55.080661	0.000142	1.418965	0.480758	0.000057
1631	1.6219e+02	-15.0942	-54.991844	0.000223	2.229802	0.755477	0.000089
1632	1.6228e+02	-15.0429	-54.915139	0.000193	1.925738	0.652458	0.000077
1633	1.6238e+02	-15.0092	-54.814210	0.000253	2.533865	0.858497	0.000101
1634	1.6248e+02	-14.9611	-54.717319	0.000243	2.432511	0.824157	0.000097
1635	1.6258e+02	-14.9306	-54.668874	0.000122	1.216255	0.412078	0.000049
1636	1.6268e+02	-14.8825	-54.608317	0.000152	1.520319	0.515098	0.000061
1637	1.6278e+02	-14.8472	-54.483165	0.000314	3.141993	1.064536	0.000126
1638	1.6288e+02	-14.8071	-54.398386	0.000213	2.128447	0.721137	0.000085
1639	1.6298e+02	-14.7638	-54.325717	0.000182	1.824383	0.618118	0.000073
1640	1.6308e+02	-14.7236	-54.236900	0.000223	2.229802	0.755477	0.000089
1641	1.6318e+02	-14.6884	-54.172306	0.000162	1.621674	0.549438	0.000065
1642	1.6328e+02	-14.6418	-54.059266	0.000284	2.837929	0.961516	0.000114
1643	1.6338e+02	-14.6097	-53.974486	0.000213	2.128447	0.721137	0.000085
1644	1.6348e+02	-14.5729	-53.905855	0.000172	1.723028	0.583778	0.000069
1645	1.6358e+02	-14.5311	-53.829149	0.000193	1.925738	0.652458	0.000077
1646	1.6368e+02	-14.4830	-53.728221	0.000253	2.533865	0.858497	0.000101
1647	1.6378e+02	-14.4461	-53.663627	0.000162	1.621674	0.549438	0.000065
1648	1.6388e+02	-14.4156	-53.558661	0.000264	2.635220	0.892837	0.000105
1649	1.6398e+02	-14.3691	-53.526364	0.000081	0.810837	0.274719	0.000032
1650	1.6408e+02	-14.3306	-53.421399	0.000264	2.635220	0.892837	0.000105
1651	1.6418e+02	-14.2937	-53.352767	0.000172	1.723028	0.583778	0.000069
1652	1.6427e+02	-14.2552	-53.255876	0.000243	2.432511	0.824157	0.000097
1653	1.6437e+02	-14.2103	-53.183208	0.000182	1.824383	0.618118	0.000073
1654	1.6447e+02	-14.1638	-53.090354	0.000233	2.331156	0.789817	0.000093
1655	1.6457e+02	-14.1301	-52.993462	0.000243	2.432511	0.824157	0.000097
1656	1.6467e+02	-14.0932	-52.908682	0.000213	2.128447	0.721137	0.000085
1657	1.6477e+02	-14.0402	-52.823903	0.000213	2.128447	0.721137	0.000085
1658	1.6487e+02	-14.0146	-52.767383	0.000142	1.418965	0.480758	0.000057
1659	1.6497e+02	-13.9681	-52.646269	0.000304	3.040638	1.030196	0.000122
1660	1.6507e+02	-13.9376	-52.613972	0.000081	0.810837	0.274719	0.000032
1661	1.6517e+02	-13.8943	-52.500932	0.000284	2.837929	0.961516	0.000114
1662	1.6527e+02	-13.8509	-52.391929	0.000274	2.736575	0.927177	0.000110
1663	1.6537e+02	-13.8124	-52.303112	0.000223	2.229802	0.755477	0.000089
1664	1.6547e+02	-13.7611	-52.222369	0.000203	2.027092	0.686797	0.000081
1665	1.6557e+02	-13.7242	-52.153738	0.000172	1.723028	0.583778	0.000069
1666	1.6567e+02	-13.6953	-52.085107	0.000172	1.723028	0.583778	0.000069
1667	1.6577e+02	-13.6488	-52.012438	0.000182	1.824383	0.618118	0.000073
1668	1.6587e+02	-13.6151	-51.907473	0.000264	2.635220	0.892837	0.000105
1669	1.6597e+02	-13.5798	-51.818656	0.000223	2.229802	0.755477	0.000089
1670	1.6607e+02	-13.5333	-51.733876	0.000213	2.128447	0.721137	0.000085
1671	1.6616e+02	-13.4948	-51.653133	0.000203	2.027092	0.686797	0.000081
1672	1.6626e+02	-13.4515	-51.556242	0.000243	2.432511	0.824157	0.000097
1673	1.6636e+02	-13.4146	-51.467425	0.000223	2.229802	0.755477	0.000089
1674	1.6646e+02	-13.3697	-51.435128	0.000081	0.810837	0.274719	0.000032
1675	1.6656e+02	-13.3360	-51.330162	0.000264	2.635220	0.892837	0.000105
1676	1.6666e+02	-13.2863	-51.209048	0.000304	3.040638	1.030196	0.000122
1677	1.6676e+02	-13.2558	-51.136380	0.000182	1.824383	0.618118	0.000073
1678	1.6686e+02	-13.2109	-51.011229	0.000314	3.141993	1.064536	0.000126
1679	1.6696e+02	-13.1691	-50.970857	0.000101	1.013546	0.343399	0.000041
1680	1.6706e+02	-13.1322	-50.833595	0.000345	3.446057	1.167556	0.000138
1681	1.6716e+02	-13.0986	-50.740741	0.000233	2.331156	0.789817	0.000093
1682	1.6726e+02	-13.0520	-50.704406	0.000091	0.912192	0.309059	0.000037
1683	1.6736e+02	-13.0167	-50.567144	0.000345	3.446057	1.167556	0.000138
1684	1.6746e+02	-12.9766	-50.486401	0.000203	2.027092	0.686797	0.000081
1685	1.6756e+02	-12.9413	-50.393547	0.000233	2.331156	0.789817	0.000093
1686	1.6766e+02	-12.9012	-50.312804	0.000203	2.027092	0.686797	0.000081
1687	1.6776e+02	-12.8547	-50.175542	0.000345	3.446057	1.167556	0.000138
1688	1.6786e+02	-12.8355	-50.143244	0.000081	0.810837	0.274719	0.000032
1689	1.6796e+02	-12.7713	-50.062502	0.000203	2.027092	0.686797	0.000081
1690	1.6806e+02	-12.7360	-49.937351	0.000314	3.141993	1.064536	0.000126
1691	1.6816e+02	-12.7039	-49.872756	0.000162	1.621674	0.549438	0.000065
1692	1.6825e+02	-12.6510	-49.735494	0.000345	3.446057	1.167556	0.000138
1693	1.6835e+02	-12.6125	-49.666862	0.000172	1.723028	0.583778	0.000069
1694	1.6845e+02	-12.5804	-49.578045	0.000223	2.229802	0.755477	0.000089
1695	1.6855e+02	-12.5371	-49.485191	0.000233	2.331156	0.789817	0.000093
1696	1.6865e+02	-12.4938	-49.432709	0.000132	1.317610	0.446418	0.000053
1697	1.6875e+02	-12.4649	-49.331780	0.000253	2.533865	0.858497	0.000101
1698	1.6885e+02	-12.4216	-49.210666	0.000304	3.040638	1.030196	0.000122
1699	1.6895e+02	-12.3751	-49.121849	0.000223	2.229802	0.755477	0.000089
1700	1.6905e+02	-12.3349	-49.024958	0.000243	2.432511	0.824157	0.000097
1701	1.6915e+02	-12.2884	-48.940178	0.000213	2.128447	0.721137	0.000085
1702	1.6925e+02	-12.2644	-48.847324	0.000233	2.331156	0.789817	0.000093
1703	1.6935e+02	-12.2210	-48.754470	0.000233	2.331156	0.789817	0.000093
1704	1.6945e+02	-12.1809	-48.701987	0.000132	1.317610	0.446418	0.000053
1705	1.6955e+02	-12.1440	-48.601059	0.000253	2.533865	0.858497	0.000101
1706	1.6965e+02	-12.1007	-48.479945	0.000304	3.040638	1.030196	0.000122
1707	1.6975e+02	-12.0526	-48.439573	0.000101	1.013546	0.343399	0.000041
1708	1.6985e+02	-12.0173	-48.286162	0.000385	3.851475	1.304915	0.000154
1709	1.6995e+02	-11.9900	-48.213494	0.000182	1.824383	0.618118	0.000073
1710	1.7005e+02	-11.9339	-48.128714	0.000213	2.128447	0.721137	0.000085
1711	1.7015e+02	-11.9066	-48.035860	0.000233	2.331156	0.789817	0.000093
1712	1.7024e+02	-11.8569	-47.955117	0.000203	2.027092	0.686797	0.000081
1713	1.7034e+02	-11.8200	-47.834003	0.000304	3.040638	1.030196	0.000122
1714	1.7044e+02	-11.7879	-47.773446	0.000152	1.520319	0.515098	0.000061
1715	1.7054e+02	-11.7398	-47.664443	0.000274	2.736575	0.927177	0.000110
1716	1.7064e+02	-11.7013	-47.567552	0.000243	2.432511	0.824157	0.000097
1717	1.7074e+02	-11.6628	-47.486809	0.000203	2.027092	0.686797	0.000081
1718	1.7084e+02	-11.6162	-47.385881	0.000253	2.533865	0.858497	0.000101
1719	1.7094e+02	-11.5794	-47.276878	0.000274	2.736575	0.927177	0.000110
1720	1.7104e+02	-11.5441	-47.200172	0.000193	1.925738	0.652458	0.000077
1721	1.7114e+02	-11.5023	-47.091170	0.000274	2.736575	0.927177	0.000110
1722	1.7124e+02	-11.4622	-47.030613	0.000152	1.520319	0.515098	0.000061
1723	1.7134e+02	-11.4302	-46.909499	0.000304	3.040638	1.030196	0.000122
1724	1.7144e+02	-11.3868	-46.796459	0.000284	2.837929	0.961516	0.000114
1725	1.7154e+02	-11.3435	-46.731865	0.000162	1.621674	0.549438	0.000065
1726	1.7164e+02	-11.3034	-46.562305	0.000426	4.256894	1.442275	0.000170
1727	1.7174e+02	-11.2762	-46.521934	0.000101	1.013546	0.343399	0.000041
1728	1.7184e+02	-11.2312	-46.421005	0.000253	2.533865	0.858497	0.000101
1729	1.7194e+02	-11.1831	-46.267594	0.000385	3.851475	1.304915	0.000154
1730	1.7204e+02	-11.1526	-46.190889	0.000193	1.925738	0.652458	0.000077
1731	1.7213e+02	-11.0965	-46.093997	0.000243	2.432511	0.824157	0.000097
1732	1.7223e+02	-11.0564	-46.005180	0.000223	2.229802	0.755477	0.000089
1733	1.7233e+02	-11.0227	-45.888103	0.000294	2.939284	0.995856	0.000118
1734	1.7243e+02	-10.9858	-45.803324	0.000213	2.128447	0.721137	0.000085
1735	1.7253e+02	-10.9441	-45.694321	0.000274	2.736575	0.927177	0.000110
1736	1.7263e+02	-10.9008	-45.617615	0.000193	1.925738	0.652458	0.000077
1737	1.7273e+02	-10.8607	-45.496501	0.000304	3.040638	1.030196	0.000122
1738	1.7283e+02	-10.8270	-45.395573	0.000253	2.533865	0.858497	0.000101
1739	1.7293e+02	-10.7917	-45.282533	0.000284	2.837929	0.961516	0.000114
1740	1.7303e+02	-10.7403	-45.205827	0.000193	1.925738	0.652458	0.000077
1741	1.7313e+02	-10.7050	-45.092788	0.000284	2.837929	0.961516	0.000114
1742	1.7323e+02	-10.6569	-44.987822	0.000264	2.635220	0.892837	0.000105
1743	1.7333e+02	-10.6216	-44.894968	0.000233	2.331156	0.789817	0.000093
1744	1.7343e+02	-10.5831	-44.826337	0.000172	1.723028	0.583778	0.000069
1745	1.7353e+02	-10.5382	-44.656777	0.000426	4.256894	1.442275	0.000170
1746	1.7363e+02	-10.5125	-44.584109	0.000182	1.824383	0.618118	0.000073
1747	1.7373e+02	-10.4708	-44.483180	0.000253	2.533865	0.858497	0.000101
1748	1.7383e+02	-10.4259	-44.398400	0.000213	2.128447	0.721137	0.000085
1749	1.7393e+02	-10.3762	-44.269212	0.000324	3.243348	1.098876	0.000130
1750	1.7403e+02	-10.3521	-44.212692	0.000142	1.418965	0.480758	0.000057
1751	1.7413e+02	-10.3024	-44.063318	0.000375	3.750121	1.270575	0.000150
1752	1.7422e+02	-10.2639	-43.990650	0.000182	1.824383	0.618118	0.000073
1753	1.7432e+02	-10.2270	-43.853387	0.000345	3.446057	1.167556	0.000138
1754	1.7442e+02	-10.2013	-43.764570	0.000223	2.229802	0.755477	0.000089
1755	1.7452e+02	-10.1468	-43.667679	0.000243	2.432511	0.824157	0.000097
1756	1.7462e+02	-10.1035	-43.578862	0.000223	2.229802	0.755477	0.000089
1757	1.7472e+02	-10.0666	-43.441599	0.000345	3.446057	1.167556	0.000138
1758	1.7482e+02	-10.0216	-43.356819	0.000213	2.128447	0.721137	0.000085
1759	1.7492e+02	-9.9831	-43.231668	0.000314	3.141993	1.064536	0.000126
1760	1.7502e+02	-9.9446	-43.126703	0.000264	2.635220	0.892837	0.000105
1761	1.7512e+02	-9.9045	-43.049997	0.000193	1.925738	0.652458	0.000077
1762	1.7522e+02	-9.8741	-42.940994	0.000274	2.736575	0.927177	0.000110
1763	1.7532e+02	-9.8323	-42.884474	0.000142	1.418965	0.480758	0.000057
1764	1.7542e+02	-9.7890	-42.743175	0.000355	3.547412	1.201896	0.000142
1765	1.7552e+02	-9.7457	-42.650321	0.000233	2.331156	0.789817	0.000093
1766	1.7562e+02	-9.7072	-42.525169	0.000314	3.141993	1.064536	0.000126
1767	1.7572e+02	-9.6703	-42.420204	0.000264	2.635220	0.892837	0.000105
1768	1.7582e+02	-9.6382	-42.323313	0.000243	2.432511	0.824157	0.000097
1769	1.7592e+02	-9.5917	-42.234496	0.000223	2.229802	0.755477	0.000089
1770	1.7602e+02	-9.5500	-42.081084	0.000385	3.851475	1.304915	0.000154
1771	1.7612e+02	-9.5179	-41.984193	0.000243	2.432511	0.824157	0.000097
1772	1.7621e+02	-9.4698	-41.915562	0.000172	1.723028	0.583778	0.000069
1773	1.7631e+02	-9.4377	-41.810596	0.000264	2.635220	0.892837	0.000105
1774	1.7641e+02	-9.3960	-41.721779	0.000223	2.229802	0.755477	0.000089
1775	1.7651e+02	-9.3527	-41.576442	0.000365	3.648766	1.236235	0.000146
1776	1.7661e+02	-9.3158	-41.487625	0.000223	2.229802	0.755477	0.000089
1777	1.7671e+02	-9.2693	-41.398808	0.000223	2.229802	0.755477	0.000089
1778	1.7681e+02	-9.2227	-41.273657	0.000314	3.141993	1.064536	0.000126
1779	1.7691e+02	-9.1762	-41.144469	0.000324	3.243348	1.098876	0.000130
1780	1.7701e+02	-9.1457	-41.075838	0.000172	1.723028	0.583778	0.000069
1781	1.7711e+02	-9.1201	-40.926464	0.000375	3.750121	1.270575	0.000150
1782	1.7721e+02	-9.0639	-40.833609	0.000233	2.331156	0.789817	0.000093
1783	1.7731e+02	-9.0238	-40.732681	0.000253	2.533865	0.858497	0.000101
1784	1.7741e+02	-8.9933	-40.611567	0.000304	3.040638	1.030196	0.000122
1785	1.7751e+02	-8.9677	-40.518713	0.000233	2.331156	0.789817	0.000093
1786	1.7761e+02	-8.9147	-40.433933	0.000213	2.128447	0.721137	0.000085
1787	1.7771e+02	-8.8682	-40.292633	0.000355	3.547412	1.201896	0.000142
1788	1.7781e+02	-8.8329	-40.207853	0.000213	2.128447	0.721137	0.000085
1789	1.7791e+02	-8.7944	-40.066554	0.000355	3.547412	1.201896	0.000142
1790	1.7801e+02	-8.7527	-39.989848	0.000193	1.925738	0.652458	0.000077
1791	1.7810e+02	-8.7158	-39.852585	0.000345	3.446057	1.167556	0.000138
1792	1.7820e+02	-8.6677	-39.767806	0.000213	2.128447	0.721137	0.000085
1793	1.7830e+02	-8.6340	-39.654766	0.000284	2.837929	0.961516	0.000114
1794	1.7840e+02	-8.5939	-39.553837	0.000253	2.533865	0.858497	0.000101
1795	1.7850e+02	-8.5554	-39.432723	0.000304	3.040638	1.030196	0.000122
1796	1.7860e+02	-8.5153	-39.319684	0.000284	2.837929	0.961516	0.000114
1797	1.7870e+02	-8.4752	-39.230867	0.000223	2.229802	0.755477	0.000089
1798	1.7880e+02	-8.4302	-39.069381	0.000405	4.054185	1.373595	0.000162
1799	1.7890e+02	-8.3998	-39.008824	0.000152	1.520319	0.515098	0.000061
1800	1.7900e+02	-8.3564	-38.920007	0.000223	2.229802	0.755477	0.000089
1801	1.7910e+02	-8.3179	-38.798893	0.000304	3.040638	1.030196	0.000122
1802	1.7920e+02	-8.2794	-38.681816	0.000294	2.939284	0.995856	0.000118
1803	1.7930e+02	-8.2329	-38.568776	0.000284	2.837929	0.961516	0.000114
1804	1.7940e+02	-8.1912	-38.467848	0.000253	2.533865	0.858497	0.000101
1805	1.7950e+02	-8.1575	-38.338660	0.000324	3.243348	1.098876	0.000130
1806	1.7960e+02	-8.1238	-38.229657	0.000274	2.736575	0.927177	0.000110
1807	1.7970e+02	-8.0805	-38.124691	0.000264	2.635220	0.892837	0.000105
1808	1.7980e+02	-8.0340	-38.039911	0.000213	2.128447	0.721137	0.000085
1809	1.7990e+02	-7.9843	-37.934946	0.000264	2.635220	0.892837	0.000105
1810	1.8000e+02	-7.9474	-37.805758	0.000324	3.243348	1.098876	0.000130
1811	1.8009e+02	-7.9153	-37.692718	0.000284	2.837929	0.961516	0.000114
1812	1.8019e+02	-7.8768	-37.559492	0.000334	3.344702	1.133216	0.000134
1813	1.8029e+02	-7.8383	-37.446453	0.000284	2.837929	0.961516	0.000114
1814	1.8039e+02	-7.7950	-37.349561	0.000243	2.432511	0.824157	0.000097
1815	1.8049e+02	-7.7581	-37.236521	0.000284	2.837929	0.961516	0.000114
1816	1.8059e+02	-7.7196	-37.115407	0.000304	3.040638	1.030196	0.000122
1817	1.8069e+02	-7.6795	-37.046776	0.000172	1.723028	0.583778	0.000069
1818	1.8079e+02	-7.6361	-36.901439	0.000365	3.648766	1.236235	0.000146
1819	1.8089e+02	-7.5880	-36.832808	0.000172	1.723028	0.583778	0.000069
1820	1.8099e+02	-7.5543	-36.703620	0.000324	3.243348	1.098876	0.000130
1821	1.8109e+02	-7.5255	-36.602691	0.000253	2.533865	0.858497	0.000101
1822	1.8119e+02	-7.4757	-36.473503	0.000324	3.243348	1.098876	0.000130
1823	1.8129e+02	-7.4452	-36.380649	0.000233	2.331156	0.789817	0.000093
1824	1.8139e+02	-7.3907	-36.259535	0.000304	3.040638	1.030196	0.000122
1825	1.8149e+02	-7.3554	-36.150532	0.000274	2.736575	0.927177	0.000110
1826	1.8159e+02	-7.3105	-36.041529	0.000274	2.736575	0.927177	0.000110
1827	1.8169e+02	-7.2816	-35.968861	0.000182	1.824383	0.618118	0.000073
1828	1.8179e+02	-7.2351	-35.859858	0.000274	2.736575	0.927177	0.000110
1829	1.8189e+02	-7.2078	-35.734707	0.000314	3.141993	1.064536	0.000126
1830	1.8199e+02	-7.1581	-35.605519	0.000324	3.243348	1.098876	0.000130
1831	1.8209e+02	-7.1132	-35.476330	0.000324	3.243348	1.098876	0.000130
1832	1.8218e+02	-7.0859	-35.363290	0.000284	2.837929	0.961516	0.000114
1833	1.8228e+02	-7.0410	-35.274474	0.000223	2.229802	0.755477	0.000089
1834	1.8238e+02	-6.9993	-35.161434	0.000284	2.837929	0.961516	0.000114
1835	1.8248e+02	-6.9560	-35.024171	0.000345	3.446057	1.167556	0.000138
1836	1.8258e+02	-6.9158	-34.943428	0.000203	2.027092	0.686797	0.000081
1837	1.8268e+02	-6.8757	-34.794054	0.000375	3.750121	1.270575	0.000150
1838	1.8278e+02	-6.8404	-34.693126	0.000253	2.533865	0.858497	0.000101
1839	1.8288e+02	-6.7939	-34.572012	0.000304	3.040638	1.030196	0.000122
1840	1.8298e+02	-6.7650	-34.479158	0.000233	2.331156	0.789817	0.000093
1841	1.8308e+02	-6.7233	-34.337858	0.000355	3.547412	1.201896	0.000142
1842	1.8318e+02	-6.6816	-34.236930	0.000253	2.533865	0.858497	0.000101
1843	1.8328e+02	-6.6415	-34.127927	0.000274	2.736575	0.927177	0.000110
1844	1.8338e+02	-6.6046	-33.990664	0.000345	3.446057	1.167556	0.000138
1845	1.8348e+02	-6.5549	-33.893773	0.000243	2.432511	0.824157	0.000097
1846	1.8358e+02	-6.5244	-33.780733	0.000284	2.837929	0.961516	0.000114
1847	1.8368e+02	-6.4811	-33.631359	0.000375	3.750121	1.270575	0.000150
1848	1.8378e+02	-6.4506	-33.562728	0.000172	1.723028	0.583778	0.000069
1849	1.8388e+02	-6.4073	-33.413354	0.000375	3.750121	1.270575	0.000150
1850	1.8398e+02	-6.3624	-33.344723	0.000172	1.723028	0.583778	0.000069
1851	1.8407e+02	-6.3255	-33.223609	0.000304	3.040638	1.030196	0.000122
1852	1.8417e+02	-6.2886	-33.106532	0.000294	2.939284	0.995856	0.000118
1853	1.8427e+02	-6.2517	-32.981380	0.000314	3.141993	1.064536	0.000126
1854	1.8437e+02	-6.1955	-32.872378	0.000274	2.736575	0.927177	0.000110
1855	1.8447e+02	-6.1586	-32.731078	0.000355	3.547412	1.201896	0.000142
1856	1.8457e+02	-6.1201	-32.630150	0.000253	2.533865	0.858497	0.000101
1857	1.8467e+02	-6.0865	-32.484813	0.000365	3.648766	1.236235	0.000146
1858	1.8477e+02	-6.0367	-32.355624	0.000324	3.243348	1.098876	0.000130
1859	1.8487e+02	-6.0095	-32.274882	0.000203	2.027092	0.686797	0.000081
1860	1.8497e+02	-5.9629	-32.113396	0.000405	4.054185	1.373595	0.000162
1861	1.8507e+02	-5.9308	-32.028616	0.000213	2.128447	0.721137	0.000085
1862	1.8517e+02	-5.8875	-31.911539	0.000294	2.939284	0.995856	0.000118
1863	1.8527e+02	-5.8410	-31.810611	0.000253	2.533865	0.858497	0.000101
1864	1.8537e+02	-5.8121	-31.653163	0.000395	3.952830	1.339255	0.000158
1865	1.8547e+02	-5.7768	-31.536086	0.000294	2.939284	0.995856	0.000118
1866	1.8557e+02	-5.7239	-31.443232	0.000233	2.331156	0.789817	0.000093
1867	1.8567e+02	-5.6934	-31.305969	0.000345	3.446057	1.167556	0.000138
1868	1.8577e+02	-5.6453	-31.196966	0.000274	2.736575	0.927177	0.000110
1869	1.8587e+02	-5.6116	-31.075852	0.000304	3.040638	1.030196	0.000122
1870	1.8597e+02	-5.5699	-30.934553	0.000355	3.547412	1.201896	0.000142
1871	1.8606e+02	-5.5234	-30.825550	0.000274	2.736575	0.927177	0.000110
1872	1.8616e+02	-5.4849	-30.700399	0.000314	3.141993	1.064536	0.000126
1873	1.8626e+02	-5.4608	-30.611582	0.000223	2.229802	0.755477	0.000089
1874	1.8636e+02	-5.4079	-30.482393	0.000324	3.243348	1.098876	0.000130
1875	1.8646e+02	-5.3710	-30.377428	0.000264	2.635220	0.892837	0.000105
1876	1.8656e+02	-5.3228	-30.207868	0.000426	4.256894	1.442275	0.000170
1877	1.8666e+02	-5.2908	-30.098865	0.000274	2.736575	0.927177	0.000110
1878	1.8676e+02	-5.2507	-30.014086	0.000213	2.128447	0.721137	0.000085
1879	1.8686e+02	-5.2138	-29.864712	0.000375	3.750121	1.270575	0.000150
1880	1.8696e+02	-5.1656	-29.723412	0.000355	3.547412	1.201896	0.000142
1881	1.8706e+02	-5.1271	-29.606335	0.000294	2.939284	0.995856	0.000118
1882	1.8716e+02	-5.0902	-29.525592	0.000203	2.027092	0.686797	0.000081
1883	1.8726e+02	-5.0453	-29.392367	0.000334	3.344702	1.133216	0.000134
1884	1.8736e+02	-4.9988	-29.279327	0.000284	2.837929	0.961516	0.000114
1885	1.8746e+02	-4.9667	-29.125916	0.000385	3.851475	1.304915	0.000154
1886	1.8756e+02	-4.9394	-29.012876	0.000284	2.837929	0.961516	0.000114
1887	1.8766e+02	-4.8913	-28.928096	0.000213	2.128447	0.721137	0.000085
1888	1.8776e+02	-4.8592	-28.730276	0.000497	4.966376	1.682654	0.000199
1889	1.8786e+02	-4.8079	-28.645497	0.000213	2.128447	0.721137	0.000085
1890	1.8796e+02	-4.7678	-28.540531	0.000264	2.635220	0.892837	0.000105
1891	1.8806e+02	-4.7197	-28.379046	0.000405	4.054185	1.373595	0.000162
1892	1.8815e+02	-4.6876	-28.253894	0.000314	3.141993	1.064536	0.000126
1893	1.8825e+02	-4.6523	-28.112595	0.000355	3.547412	1.201896	0.000142
1894	1.8835e+02	-4.6154	-28.003592	0.000274	2.736575	0.927177	0.000110
1895	1.8845e+02	-4.5785	-27.910738	0.000233	2.331156	0.789817	0.000093
1896	1.8855e+02	-4.5255	-27.757327	0.000385	3.851475	1.304915	0.000154
1897	1.8865e+02	-4.4983	-27.640250	0.000294	2.939284	0.995856	0.000118
1898	1.8875e+02	-4.4517	-27.523173	0.000294	2.939284	0.995856	0.000118
1899	1.8885e+02	-4.4116	-27.373799	0.000375	3.750121	1.270575	0.000150
1900	1.8895e+02	-4.3683	-27.240573	0.000334	3.344702	1.133216	0.000134
1901	1.8905e+02	-4.3346	-27.123496	0.000294	2.939284	0.995856	0.000118
1902	1.8915e+02	-4.2977	-26.990271	0.000334	3.344702	1.133216	0.000134
1903	1.8925e+02	-4.2576	-26.848971	0.000355	3.547412	1.201896	0.000142
1904	1.8935e+02	-4.2095	-26.719783	0.000324	3.243348	1.098876	0.000130
1905	1.8945e+02	-4.1742	-26.602706	0.000294	2.939284	0.995856	0.000118
1906	1.8955e+02	-4.1309	-26.469480	0.000334	3.344702	1.133216	0.000134
1907	1.8965e+02	-4.0988	-26.352404	0.000294	2.939284	0.995856	0.000118
1908	1.8975e+02	-4.0555	-26.227252	0.000314	3.141993	1.064536	0.000126
1909	1.8985e+02	-4.0106	-26.053655	0.000436	4.358248	1.476615	0.000174
1910	1.8995e+02	-3.9721	-25.928504	0.000314	3.141993	1.064536	0.000126
1911	1.9004e+02	-3.9384	-25.783167	0.000365	3.648766	1.236235	0.000146
1912	1.9014e+02	-3.8935	-25.706462	0.000193	1.925738	0.652458	0.000077
1913	1.9024e+02	-3.8486	-25.557088	0.000375	3.750121	1.270575	0.000150
1914	1.9034e+02	-3.8068	-25.415788	0.000355	3.547412	1.201896	0.000142
1915	1.9044e+02	-3.7796	-25.278525	0.000345	3.446057	1.167556	0.000138
1916	1.9054e+02	-3.7298	-25.141263	0.000345	3.446057	1.167556	0.000138
1917	1.9064e+02	-3.6929	-25.020149	0.000304	3.040638	1.030196	0.000122
1918	1.9074e+02	-3.6625	-24.886923	0.000334	3.344702	1.133216	0.000134
1919	1.9084e+02	-3.6208	-24.749661	0.000345	3.446057	1.167556	0.000138
1920	1.9094e+02	-3.5710	-24.620472	0.000324	3.243348	1.098876	0.000130
1921	1.9104e+02	-3.5341	-24.471098	0.000375	3.750121	1.270575	0.000150
1922	1.9114e+02	-3.4956	-24.366133	0.000264	2.635220	0.892837	0.000105
1923	1.9124e+02	-3.4571	-24.224833	0.000355	3.547412	1.201896	0.000142
1924	1.9134e+02	-3.4202	-24.099682	0.000314	3.141993	1.064536	0.000126
1925	1.9144e+02	-3.3753	-23.962419	0.000345	3.446057	1.167556	0.000138
1926	1.9154e+02	-3.3320	-23.837268	0.000314	3.141993	1.064536	0.000126
1927	1.9164e+02	-3.2887	-23.720191	0.000294	2.939284	0.995856	0.000118
1928	1.9174e+02	-3.2502	-23.558706	0.000405	4.054185	1.373595	0.000162
1929	1.9184e+02	-3.2149	-23.441629	0.000294	2.939284	0.995856	0.000118
1930	1.9194e+02	-3.1812	-23.308403	0.000334	3.344702	1.133216	0.000134
1931	1.9203e+02	-3.1234	-23.167103	0.000355	3.547412	1.201896	0.000142
1932	1.9213e+02	-3.0994	-23.054064	0.000284	2.837929	0.961516	0.000114
1933	1.9223e+02	-3.0513	-22.900652	0.000385	3.851475	1.304915	0.000154
1934	1.9233e+02	-3.0208	-22.747241	0.000385	3.851475	1.304915	0.000154
1935	1.9243e+02	-2.9823	-22.630164	0.000294	2.939284	0.995856	0.000118
1936	1.9253e+02	-2.9390	-22.529236	0.000253	2.533865	0.858497	0.000101
1937	1.9263e+02	-2.8956	-22.387936	0.000355	3.547412	1.201896	0.000142
1938	1.9273e+02	-2.8571	-22.258748	0.000324	3.243348	1.098876	0.000130
1939	1.9283e+02	-2.8186	-22.089188	0.000426	4.256894	1.442275	0.000170
1940	1.9293e+02	-2.7849	-21.980186	0.000274	2.736575	0.927177	0.000110
1941	1.9303e+02	-2.7400	-21.822737	0.000395	3.952830	1.339255	0.000158
1942	1.9313e+02	-2.6983	-21.701623	0.000304	3.040638	1.030196	0.000122
1943	1.9323e+02	-2.6582	-21.584546	0.000294	2.939284	0.995856	0.000118
1944	1.9333e+02	-2.6197	-21.443246	0.000355	3.547412	1.201896	0.000142
1945	1.9343e+02	-2.5780	-21.273687	0.000426	4.256894	1.442275	0.000170
1946	1.9353e+02	-2.5379	-21.144498	0.000324	3.243348	1.098876	0.000130
1947	1.9363e+02	-2.4978	-21.027421	0.000294	2.939284	0.995856	0.000118
1948	1.9373e+02	-2.4529	-20.890159	0.000345	3.446057	1.167556	0.000138
1949	1.9383e+02	-2.4272	-20.789230	0.000253	2.533865	0.858497	0.000101
1950	1.9393e+02	-2.3791	-20.627745	0.000405	4.054185	1.373595	0.000162
1951	1.9403e+02	-2.3374	-20.478371	0.000375	3.750121	1.270575	0.000150
1952	1.9412e+02	-2.3005	-20.381480	0.000243	2.432511	0.824157	0.000097
1953	1.9422e+02	-2.2523	-20.219994	0.000405	4.054185	1.373595	0.000162
1954	1.9432e+02	-2.2331	-20.078695	0.000355	3.547412	1.201896	0.000142
1955	1.9442e+02	-2.1866	-19.905098	0.000436	4.358248	1.476615	0.000174
1956	1.9452e+02	-2.1384	-19.755724	0.000375	3.750121	1.270575	0.000150
1957	1.9462e+02	-2.1048	-19.666907	0.000223	2.229802	0.755477	0.000089
1958	1.9472e+02	-2.0646	-19.517533	0.000375	3.750121	1.270575	0.000150
1959	1.9482e+02	-2.0229	-19.384307	0.000334	3.344702	1.133216	0.000134
1960	1.9492e+02	-1.9796	-19.210710	0.000436	4.358248	1.476615	0.000174
1961	1.9502e+02	-1.9395	-19.101708	0.000274	2.736575	0.927177	0.000110
1962	1.9512e+02	-1.9106	-18.976557	0.000314	3.141993	1.064536	0.000126
1963	1.9522e+02	-1.8609	-18.811034	0.000416	4.155539	1.407935	0.000166
1964	1.9532e+02	-1.8160	-18.641474	0.000426	4.256894	1.442275	0.000170
1965	1.9542e+02	-1.7871	-18.528434	0.000284	2.837929	0.961516	0.000114
1966	1.9552e+02	-1.7486	-18.387135	0.000355	3.547412	1.201896	0.000142
1967	1.9562e+02	-1.6989	-18.278132	0.000274	2.736575	0.927177	0.000110
1968	1.9572e+02	-1.6556	-18.148944	0.000324	3.243348	1.098876	0.000130
1969	1.9582e+02	-1.6155	-17.999570	0.000375	3.750121	1.270575	0.000150
1970	1.9592e+02	-1.5834	-17.838084	0.000405	4.054185	1.373595	0.000162
1971	1.9601e+02	-1.5401	-17.680636	0.000395	3.952830	1.339255	0.000158
1972	1.9611e+02	-1.5048	-17.591819	0.000223	2.229802	0.755477	0.000089
1973	1.9621e+02	-1.4647	-17.426296	0.000416	4.155539	1.407935	0.000166
1974	1.9631e+02	-1.4197	-17.297108	0.000324	3.243348	1.098876	0.000130
1975	1.9641e+02	-1.3861	-17.147734	0.000375	3.750121	1.270575	0.000150
1976	1.9651e+02	-1.3460	-16.990286	0.000395	3.952830	1.339255	0.000158
1977	1.9661e+02	-1.3058	-16.893394	0.000243	2.432511	0.824157	0.000097
1978	1.9671e+02	-1.2593	-16.723835	0.000426	4.256894	1.442275	0.000170
1979	1.9681e+02	-1.2224	-16.622906	0.000253	2.533865	0.858497	0.000101
1980	1.9691e+02	-1.1887	-16.449310	0.000436	4.358248	1.476615	0.000174
1981	1.9701e+02	-1.1406	-16.308010	0.000355	3.547412	1.201896	0.000142
1982	1.9711e+02	-1.1069	-16.170747	0.000345	3.446057	1.167556	0.000138
1983	1.9721e+02	-1.0652	-16.094042	0.000193	1.925738	0.652458	0.000077
1984	1.9731e+02	-1.0251	-15.904296	0.000476	4.763667	1.613974	0.000191
1985	1.9741e+02	-0.9786	-15.734737	0.000426	4.256894	1.442275	0.000170
1986	1.9751e+02	-0.9433	-15.633808	0.000253	2.533865	0.858497	0.000101
1987	1.9761e+02	-0.8952	-15.496546	0.000345	3.446057	1.167556	0.000138
1988	1.9771e+02	-0.8695	-15.363320	0.000334	3.344702	1.133216	0.000134
1989	1.9781e+02	-0.8246	-15.250280	0.000284	2.837929	0.961516	0.000114
1990	1.9791e+02	-0.7861	-15.100906	0.000375	3.750121	1.270575	0.000150
1991	1.9800e+02	-0.7444	-14.931347	0.000426	4.256894	1.442275	0.000170
1992	1.9810e+02	-0.7010	-14.790047	0.000355	3.547412	1.201896	0.000142
1993	1.9820e+02	-0.6674	-14.685081	0.000264	2.635220	0.892837	0.000105
1994	1.9830e+02	-0.6273	-14.551856	0.000334	3.344702	1.133216	0.000134
1995	1.9840e+02	-0.5888	-14.386333	0.000416	4.155539	1.407935	0.000166
1996	1.9850e+02	-0.5503	-14.257145	0.000324	3.243348	1.098876	0.000130
1997	1.9860e+02	-0.5085	-14.095659	0.000405	4.054185	1.373595	0.000162
1998	1.9870e+02	-0.4620	-13.974545	0.000304	3.040638	1.030196	0.000122
1999	1.9880e+02	-0.4235	-13.841320	0.000334	3.344702	1.133216	0.000134
2000	1.9890e+02	-0.3850	-13.667723	0.000436	4.358248	1.476615	0.000174
2001	1.9900e+02	-0.3610	-13.534498	0.000334	3.344702	1.133216	0.000134
2002	1.9910e+02	-0.3128	-13.397235	0.000345	3.446057	1.167556	0.000138
2003	1.9920e+02	-0.2647	-13.268047	0.000324	3.243348	1.098876	0.000130
2004	1.9930e+02	-0.2246	-13.142895	0.000314	3.141993	1.064536	0.000126
2005	1.9940e+02	-0.1941	-12.993521	0.000375	3.750121	1.270575	0.000150
2006	1.9950e+02	-0.1476	-12.844147	0.000375	3.750121	1.270575	0.000150
2007	1.9960e+02	-0.1107	-12.694773	0.000375	3.750121	1.270575	0.000150
2008	1.9970e+02	-0.0610	-12.569622	0.000314	3.141993	1.064536	0.000126
2009	1.9980e+02	-0.0353	-12.416211	0.000314	3.141993	1.064536	0.000154

Center data before PMax,+/-Pr and +/-Vc Calc.

PMax (uC/cm2):	6.21e+01
Pr (uC/cm2):	5.25e+00
-Pr (uC/cm2):	-1.24e+01
PLoss (uC/cm2):	-1.39e+01
-Vc:	-1.42e+00
C (Max-Eff) (nF):	3.11e-01
K (Eff):	1.05e+03
Vert. (+/-Pr) Shift (uC/cm2):	-3.58e+00
Offset (uC/cm2):	-1.55e+00

A (Loop Area - uC/cm2·Volts):	3.50e-02



Hysteresis Version: 5.48.1 - Radiant Technologies, Inc., 1999 - 9/12/24

