»»»»»»»»»»»»»»»»»»»»»»»»»»»»»»»»»»»» Hysteresis ««««««««««««««««««««««««««««««««««««
»»»  Executed Version:	5.48.1
»»»  Vision Version:	5.48.4 (R)
»»»  Vision Compiled:	9/18/24
»»»  Driver Version:	5.47.0
»»»  Windows Version:	Windows 8 or 8.1
»»»  Processor Information:	x86 (AMD or Intel) - 32 Processors
»»»  Tester Name:	PMF21124-494 (100V)
»»»  Tester S/N:	PMF21124-494
»»»  Internal Amp Type:	100V RevK 270k
»»»  Internal Amp S/N:	iAB2-596/K     
»»»  Execution Count:	1
»»»»»»»»»»»»»»»»»»»»»»»»»»»»»»»»»»»»»»»»»»««««««««««««««««««««««««««««««««««««««««««

Stored:	6/13/2025 - 16:26:56
Configured:	06/13/25 01:30:53 PM
Executed:	06/13/25 04:26:20 PM

»»»»»»»»»»»»»»»»»»»»»»»»»»»»»»»»»»» Sample Info ««««««««««««««««««««««««««««««««««««
Sample Name:	
Lot Name:	
Wafer Name:	
Die Row/Column:	0/0
Capacitor Number:	0
Sample Area (cm2):	1.00e-04
Sample Thickness (microns):	3.00e-01

Amplifier:	Internal

»»»»»»»»»»»»»»»»»»»»»»»»»»»»»»»»»»» Tester Info «««««««««««««««««««««««««««««««««««
Tester Name:	PMF21124-494 (100V)
Tester Serial Number:	PMF21124-494
Return Signal Amp. Level:	0.19 [Index: 3]

»»»»»»»»»»»»»»»»»»»»»»»»»»»»»»»» Hysteresis Info ««««««««««««««««««««««««««««««««««
Task Name:	Hyst-1922
Volts:	20.00
Field:	666.67 (kV/cm)
DCBias:	0.00
DCField:	0.00 (kV/cm)
Hysteresis Period (ms):	2.00e+02
Preset:	Enabled
Preset Delay (ms):	1.00e+03
Profile:	Standard Bipolar

»»»»»»»»»»»»»»»»»»»»»»»»»»»»»»»»»»»»»» Data «««««««««««««««««««««««««««««««««««««««
Points:	2009

Valid Data

Point	Time (ms)	Drive Voltage	Measured Polarization (uC/cm2)	Capacitance (uF)	Normalized Capacitance (uF/cm2)	Dielectric Constant	Instantaneous Current (mA)
   1	0.0000e+00	0.0016	-1.653207	0.000395	3.951641	1.338852	0.000158
   2	9.9500e-02	0.0321	-1.495759	0.000395	3.951641	1.338852	0.000158
   3	1.9900e-01	0.0738	-1.366570	0.000324	3.242372	1.098545	0.000130
   4	2.9850e-01	0.1187	-1.156639	0.000527	5.268855	1.785136	0.000211
   5	3.9800e-01	0.1476	-0.999191	0.000395	3.951641	1.338852	0.000158
   6	4.9750e-01	0.1941	-0.777149	0.000557	5.572827	1.888125	0.000223
   7	5.9700e-01	0.2358	-0.635849	0.000355	3.546345	1.201534	0.000142
   8	6.9650e-01	0.2679	-0.433992	0.000507	5.066207	1.716477	0.000203
   9	7.9600e-01	0.3128	-0.304804	0.000324	3.242372	1.098545	0.000130
  10	8.9550e-01	0.3497	-0.106984	0.000496	4.964882	1.682148	0.000199
  11	9.9500e-01	0.3834	0.106984	0.000537	5.370179	1.819466	0.000215
  12	1.0945e+00	0.4380	0.288655	0.000456	4.559586	1.544830	0.000183
  13	1.1940e+00	0.4700	0.421881	0.000334	3.343696	1.132875	0.000134
  14	1.2935e+00	0.5134	0.603552	0.000456	4.559586	1.544830	0.000183
  15	1.3930e+00	0.5535	0.813483	0.000527	5.268855	1.785136	0.000211
  16	1.4925e+00	0.5984	0.987080	0.000436	4.356938	1.476170	0.000174
  17	1.5920e+00	0.6289	1.184899	0.000496	4.964882	1.682148	0.000199
  18	1.6915e+00	0.6770	1.346385	0.000405	4.052965	1.373182	0.000162
  19	1.7910e+00	0.7203	1.515944	0.000426	4.255613	1.441841	0.000170
  20	1.8905e+00	0.7540	1.693578	0.000446	4.458262	1.510500	0.000179
  21	1.9900e+00	0.7909	1.887361	0.000486	4.863558	1.647818	0.000195
  22	2.0895e+00	0.8310	2.085181	0.000496	4.964882	1.682148	0.000199
  23	2.1890e+00	0.8759	2.222443	0.000345	3.445020	1.167205	0.000138
  24	2.2885e+00	0.9080	2.428337	0.000517	5.167531	1.750807	0.000207
  25	2.3880e+00	0.9513	2.610008	0.000456	4.559586	1.544830	0.000183
  26	2.4875e+00	0.9914	2.811865	0.000507	5.066207	1.716477	0.000203
  27	2.5870e+00	1.0267	2.977388	0.000415	4.154289	1.407511	0.000166
  28	2.6865e+00	1.0796	3.167133	0.000476	4.762234	1.613489	0.000191
  29	2.7860e+00	1.1101	3.312470	0.000365	3.647669	1.235864	0.000146
  30	2.8855e+00	1.1502	3.490104	0.000446	4.458262	1.510500	0.000179
  31	2.9850e+00	1.1968	3.740406	0.000628	6.282096	2.128432	0.000252
  32	3.0845e+00	1.2240	3.857483	0.000294	2.938400	0.995557	0.000118
  33	3.1840e+00	1.2673	4.067414	0.000527	5.268855	1.785136	0.000211
  34	3.2835e+00	1.3042	4.241011	0.000436	4.356938	1.476170	0.000174
  35	3.3830e+00	1.3540	4.454979	0.000537	5.370179	1.819466	0.000215
  36	3.4825e+00	1.3893	4.632613	0.000446	4.458262	1.510500	0.000179
  37	3.5820e+00	1.4310	4.777950	0.000365	3.647669	1.235864	0.000146
  38	3.6815e+00	1.4695	4.931361	0.000385	3.850317	1.304523	0.000154
  39	3.7810e+00	1.5080	5.193775	0.000659	6.586069	2.231420	0.000264
  40	3.8805e+00	1.5401	5.322963	0.000324	3.242372	1.098545	0.000130
  41	3.9800e+00	1.5834	5.540969	0.000547	5.471503	1.853795	0.000219
  42	4.0795e+00	1.6251	5.706491	0.000415	4.154289	1.407511	0.000166
  43	4.1790e+00	1.6700	5.900274	0.000486	4.863558	1.647818	0.000195
  44	4.2785e+00	1.7101	6.102131	0.000507	5.066207	1.716477	0.000203
  45	4.3780e+00	1.7502	6.247468	0.000365	3.647669	1.235864	0.000146
  46	4.4775e+00	1.7887	6.461436	0.000537	5.370179	1.819466	0.000215
  47	4.5770e+00	1.8272	6.610810	0.000375	3.748993	1.270193	0.000150
  48	4.6765e+00	1.8721	6.820741	0.000527	5.268855	1.785136	0.000211
  49	4.7760e+00	1.9122	7.010486	0.000476	4.762234	1.613489	0.000191
  50	4.8755e+00	1.9475	7.220417	0.000527	5.268855	1.785136	0.000211
  51	4.9750e+00	1.9860	7.385940	0.000415	4.154289	1.407511	0.000166
  52	5.0745e+00	2.0374	7.591834	0.000517	5.167531	1.750807	0.000207
  53	5.1740e+00	2.0598	7.753319	0.000405	4.052965	1.373182	0.000162
  54	5.2735e+00	2.1064	7.914805	0.000405	4.052965	1.373182	0.000162
  55	5.3730e+00	2.1545	8.169144	0.000638	6.383420	2.162761	0.000256
  56	5.4725e+00	2.1914	8.338704	0.000426	4.255613	1.441841	0.000170
  57	5.5720e+00	2.2283	8.500189	0.000405	4.052965	1.373182	0.000162
  58	5.6715e+00	2.2716	8.706083	0.000517	5.167531	1.750807	0.000207
  59	5.7710e+00	2.3021	8.891791	0.000466	4.660910	1.579159	0.000187
  60	5.8705e+00	2.3486	9.105760	0.000537	5.370179	1.819466	0.000215
  61	5.9700e+00	2.3855	9.295505	0.000476	4.762234	1.613489	0.000191
  62	6.0695e+00	2.4288	9.489288	0.000486	4.863558	1.647818	0.000195
  63	6.1690e+00	2.4673	9.654810	0.000415	4.154289	1.407511	0.000166
  64	6.2685e+00	2.5058	9.864741	0.000527	5.268855	1.785136	0.000211
  65	6.3680e+00	2.5411	10.030264	0.000415	4.154289	1.407511	0.000166
  66	6.4675e+00	2.5828	10.288640	0.000648	6.484744	2.197091	0.000260
  67	6.5670e+00	2.6229	10.413792	0.000314	3.141048	1.064216	0.000126
  68	6.6665e+00	2.6678	10.635834	0.000557	5.572827	1.888125	0.000223
  69	6.7660e+00	2.7063	10.813468	0.000446	4.458262	1.510500	0.000179
  70	6.8655e+00	2.7481	10.954768	0.000355	3.546345	1.201534	0.000142
  71	6.9650e+00	2.7882	11.148550	0.000486	4.863558	1.647818	0.000195
  72	7.0645e+00	2.8251	11.338296	0.000476	4.762234	1.613489	0.000191
  73	7.1640e+00	2.8668	11.564375	0.000567	5.674151	1.922455	0.000227
  74	7.2635e+00	2.9085	11.746046	0.000456	4.559586	1.544830	0.000183
  75	7.3630e+00	2.9438	11.951940	0.000517	5.167531	1.750807	0.000207
  76	7.4625e+00	2.9791	12.113426	0.000405	4.052965	1.373182	0.000162
  77	7.5620e+00	3.0224	12.311245	0.000496	4.964882	1.682148	0.000199
  78	7.6615e+00	3.0641	12.529251	0.000547	5.471503	1.853795	0.000219
  79	7.7610e+00	3.1010	12.674588	0.000365	3.647669	1.235864	0.000146
  80	7.8605e+00	3.1523	12.900667	0.000567	5.674151	1.922455	0.000227
  81	7.9600e+00	3.1876	13.102524	0.000507	5.066207	1.716477	0.000203
  82	8.0595e+00	3.2213	13.280158	0.000446	4.458262	1.510500	0.000179
  83	8.1590e+00	3.2678	13.465866	0.000466	4.660910	1.579159	0.000187
  84	8.2585e+00	3.2967	13.695983	0.000578	5.775475	1.956784	0.000231
  85	8.3580e+00	3.3416	13.869580	0.000436	4.356938	1.476170	0.000174
  86	8.4575e+00	3.3849	14.055288	0.000466	4.660910	1.579159	0.000187
  87	8.5570e+00	3.4298	14.208699	0.000385	3.850317	1.304523	0.000154
  88	8.6565e+00	3.4635	14.390370	0.000456	4.559586	1.544830	0.000183
  89	8.7560e+00	3.5101	14.612413	0.000557	5.572827	1.888125	0.000223
  90	8.8555e+00	3.5502	14.822344	0.000527	5.268855	1.785136	0.000211
  91	8.9550e+00	3.5839	15.020164	0.000496	4.964882	1.682148	0.000199
  92	9.0545e+00	3.6304	15.177612	0.000395	3.951641	1.338852	0.000158
  93	9.1540e+00	3.6609	15.387543	0.000527	5.268855	1.785136	0.000211
  94	9.2535e+00	3.6994	15.557103	0.000426	4.255613	1.441841	0.000170
  95	9.3530e+00	3.7347	15.762996	0.000517	5.167531	1.750807	0.000207
  96	9.4525e+00	3.7844	15.944668	0.000456	4.559586	1.544830	0.000183
  97	9.5520e+00	3.8213	16.146524	0.000507	5.066207	1.716477	0.000203
  98	9.6515e+00	3.8662	16.295898	0.000375	3.748993	1.270193	0.000150
  99	9.7510e+00	3.9015	16.493718	0.000496	4.964882	1.682148	0.000199
 100	9.8505e+00	3.9384	16.655203	0.000405	4.052965	1.373182	0.000162
 101	9.9500e+00	3.9801	16.800540	0.000365	3.647669	1.235864	0.000146
 102	1.0050e+01	4.0154	16.949914	0.000375	3.748993	1.270193	0.000150
 103	1.0149e+01	4.0571	17.171957	0.000557	5.572827	1.888125	0.000223
 104	1.0248e+01	4.1020	17.345554	0.000436	4.356938	1.476170	0.000174
 105	1.0348e+01	4.1437	17.535299	0.000476	4.762234	1.613489	0.000191
 106	1.0447e+01	4.1854	17.773490	0.000598	5.978124	2.025443	0.000239
 107	1.0547e+01	4.2159	17.874418	0.000253	2.533103	0.858239	0.000101
 108	1.0646e+01	4.2641	18.052052	0.000446	4.458262	1.510500	0.000179
 109	1.0746e+01	4.2913	18.213538	0.000405	4.052965	1.373182	0.000162
 110	1.0845e+01	4.3411	18.447692	0.000588	5.876800	1.991114	0.000235
 111	1.0945e+01	4.3747	18.637437	0.000476	4.762234	1.613489	0.000191
 112	1.1044e+01	4.4261	18.839294	0.000507	5.066207	1.716477	0.000203
 113	1.1144e+01	4.4614	19.025002	0.000466	4.660910	1.579159	0.000187
 114	1.1243e+01	4.4870	19.238970	0.000537	5.370179	1.819466	0.000215
 115	1.1343e+01	4.5512	19.251082	0.000030	0.303972	0.102989	0.000012
 116	1.1443e+01	4.5721	19.315676	0.000162	1.621186	0.549273	0.000065
 117	1.1542e+01	4.6138	19.400456	0.000213	2.127807	0.720920	0.000085
 118	1.1642e+01	4.6523	19.586164	0.000466	4.660910	1.579159	0.000187
 119	1.1741e+01	4.7004	19.892986	0.000770	7.700634	2.609045	0.000308
 120	1.1841e+01	4.7389	20.219994	0.000821	8.207255	2.780693	0.000329
 121	1.1940e+01	4.7806	20.478371	0.000648	6.484744	2.197091	0.000260
 122	1.2040e+01	4.8159	20.760971	0.000709	7.092689	2.403068	0.000284
 123	1.2139e+01	4.8528	20.918419	0.000395	3.951641	1.338852	0.000158
 124	1.2239e+01	4.8913	21.100090	0.000456	4.559586	1.544830	0.000183
 125	1.2338e+01	4.9378	21.350392	0.000628	6.282096	2.128432	0.000252
 126	1.2438e+01	4.9747	21.532063	0.000456	4.559586	1.544830	0.000183
 127	1.2537e+01	5.0164	21.721809	0.000476	4.762234	1.613489	0.000191
 128	1.2636e+01	5.0549	21.919628	0.000496	4.964882	1.682148	0.000199
 129	1.2736e+01	5.0934	22.113411	0.000486	4.863558	1.647818	0.000195
 130	1.2835e+01	5.1303	22.315268	0.000507	5.066207	1.716477	0.000203
 131	1.2935e+01	5.1753	22.517125	0.000507	5.066207	1.716477	0.000203
 132	1.3034e+01	5.2105	22.698796	0.000456	4.559586	1.544830	0.000183
 133	1.3134e+01	5.2619	22.904690	0.000517	5.167531	1.750807	0.000207
 134	1.3233e+01	5.2876	23.050026	0.000365	3.647669	1.235864	0.000146
 135	1.3333e+01	5.3309	23.235735	0.000466	4.660910	1.579159	0.000187
 136	1.3432e+01	5.3774	23.397220	0.000405	4.052965	1.373182	0.000162
 137	1.3532e+01	5.4111	23.578891	0.000456	4.559586	1.544830	0.000183
 138	1.3632e+01	5.4544	23.776711	0.000496	4.964882	1.682148	0.000199
 139	1.3731e+01	5.5009	24.018939	0.000608	6.079448	2.059773	0.000243
 140	1.3831e+01	5.5346	24.144090	0.000314	3.141048	1.064216	0.000126
 141	1.3930e+01	5.5763	24.349984	0.000517	5.167531	1.750807	0.000207
 142	1.4030e+01	5.6116	24.503395	0.000385	3.850317	1.304523	0.000154
 143	1.4129e+01	5.6533	24.721401	0.000547	5.471503	1.853795	0.000219
 144	1.4229e+01	5.6886	24.911146	0.000476	4.762234	1.613489	0.000191
 145	1.4328e+01	5.7335	25.064557	0.000385	3.850317	1.304523	0.000154
 146	1.4428e+01	5.7752	25.246228	0.000456	4.559586	1.544830	0.000183
 147	1.4527e+01	5.8137	25.403677	0.000395	3.951641	1.338852	0.000158
 148	1.4627e+01	5.8474	25.569199	0.000415	4.154289	1.407511	0.000166
 149	1.4726e+01	5.8940	25.750870	0.000456	4.559586	1.544830	0.000183
 150	1.4825e+01	5.9308	25.976950	0.000567	5.674151	1.922455	0.000227
 151	1.4925e+01	5.9710	26.126324	0.000375	3.748993	1.270193	0.000150
 152	1.5024e+01	6.0079	26.312032	0.000466	4.660910	1.579159	0.000187
 153	1.5124e+01	6.0464	26.477555	0.000415	4.154289	1.407511	0.000166
 154	1.5223e+01	6.0961	26.667300	0.000476	4.762234	1.613489	0.000191
 155	1.5323e+01	6.1346	26.865120	0.000496	4.964882	1.682148	0.000199
 156	1.5422e+01	6.1651	27.022568	0.000395	3.951641	1.338852	0.000158
 157	1.5522e+01	6.2100	27.167905	0.000365	3.647669	1.235864	0.000146
 158	1.5621e+01	6.2517	27.377836	0.000527	5.268855	1.785136	0.000211
 159	1.5721e+01	6.3062	27.567581	0.000476	4.762234	1.613489	0.000191
 160	1.5820e+01	6.3271	27.720993	0.000385	3.850317	1.304523	0.000154
 161	1.5920e+01	6.3672	27.906701	0.000466	4.660910	1.579159	0.000187
 162	1.6020e+01	6.4153	28.104520	0.000496	4.964882	1.682148	0.000199
 163	1.6119e+01	6.4490	28.274080	0.000426	4.255613	1.441841	0.000170
 164	1.6218e+01	6.4907	28.427491	0.000385	3.850317	1.304523	0.000154
 165	1.6318e+01	6.5276	28.580902	0.000385	3.850317	1.304523	0.000154
 166	1.6418e+01	6.5725	28.742388	0.000405	4.052965	1.373182	0.000162
 167	1.6517e+01	6.6143	28.940208	0.000496	4.964882	1.682148	0.000199
 168	1.6616e+01	6.6640	29.142064	0.000507	5.066207	1.716477	0.000203
 169	1.6716e+01	6.6800	29.311624	0.000426	4.255613	1.441841	0.000170
 170	1.6816e+01	6.7249	29.440812	0.000324	3.242372	1.098545	0.000130
 171	1.6915e+01	6.7763	29.670929	0.000578	5.775475	1.956784	0.000231
 172	1.7015e+01	6.8052	29.844526	0.000436	4.356938	1.476170	0.000174
 173	1.7114e+01	6.8485	29.981789	0.000345	3.445020	1.167205	0.000138
 174	1.7213e+01	6.8950	30.147311	0.000415	4.154289	1.407511	0.000166
 175	1.7313e+01	6.9207	30.393576	0.000618	6.180772	2.094102	0.000248
 176	1.7413e+01	6.9704	30.510653	0.000294	2.938400	0.995557	0.000118
 177	1.7512e+01	7.0089	30.647916	0.000345	3.445020	1.167205	0.000138
 178	1.7611e+01	7.0410	30.865921	0.000547	5.471503	1.853795	0.000219
 179	1.7711e+01	7.0907	31.015295	0.000375	3.748993	1.270193	0.000150
 180	1.7811e+01	7.1244	31.184855	0.000426	4.255613	1.441841	0.000170
 181	1.7910e+01	7.1645	31.354415	0.000426	4.255613	1.441841	0.000170
 182	1.8009e+01	7.2078	31.540123	0.000466	4.660910	1.579159	0.000187
 183	1.8109e+01	7.2447	31.689497	0.000375	3.748993	1.270193	0.000150
 184	1.8209e+01	7.2816	31.887317	0.000496	4.964882	1.682148	0.000199
 185	1.8308e+01	7.3265	32.077062	0.000476	4.762234	1.613489	0.000191
 186	1.8407e+01	7.3634	32.198176	0.000304	3.039724	1.029886	0.000122
 187	1.8507e+01	7.4116	32.387921	0.000476	4.762234	1.613489	0.000191
 188	1.8607e+01	7.4468	32.569593	0.000456	4.559586	1.544830	0.000183
 189	1.8706e+01	7.4837	32.718967	0.000375	3.748993	1.270193	0.000150
 190	1.8805e+01	7.5271	32.896601	0.000446	4.458262	1.510500	0.000179
 191	1.8905e+01	7.5768	33.062123	0.000415	4.154289	1.407511	0.000166
 192	1.9005e+01	7.6025	33.223609	0.000405	4.052965	1.373182	0.000162
 193	1.9104e+01	7.6490	33.377020	0.000385	3.850317	1.304523	0.000154
 194	1.9203e+01	7.6811	33.534468	0.000395	3.951641	1.338852	0.000158
 195	1.9303e+01	7.7212	33.728251	0.000486	4.863558	1.647818	0.000195
 196	1.9402e+01	7.7741	33.869550	0.000355	3.546345	1.201534	0.000142
 197	1.9502e+01	7.8078	34.047184	0.000446	4.458262	1.510500	0.000179
 198	1.9602e+01	7.8383	34.212707	0.000415	4.154289	1.407511	0.000166
 199	1.9701e+01	7.8800	34.386304	0.000436	4.356938	1.476170	0.000174
 200	1.9800e+01	7.9249	34.519529	0.000334	3.343696	1.132875	0.000134
 201	1.9900e+01	7.9650	34.741572	0.000557	5.572827	1.888125	0.000223
 202	2.0000e+01	8.0083	34.858649	0.000294	2.938400	0.995557	0.000118
 203	2.0099e+01	8.0452	34.991874	0.000334	3.343696	1.132875	0.000134
 204	2.0198e+01	8.0805	35.205842	0.000537	5.370179	1.819466	0.000215
 205	2.0298e+01	8.1206	35.367328	0.000405	4.052965	1.373182	0.000162
 206	2.0398e+01	8.1704	35.492479	0.000314	3.141048	1.064216	0.000126
 207	2.0497e+01	8.2137	35.694336	0.000507	5.066207	1.716477	0.000203
 208	2.0596e+01	8.2458	35.827561	0.000334	3.343696	1.132875	0.000134
 209	2.0696e+01	8.2859	35.985009	0.000395	3.951641	1.338852	0.000158
 210	2.0796e+01	8.3260	36.186866	0.000507	5.066207	1.716477	0.000203
 211	2.0895e+01	8.3581	36.324129	0.000345	3.445020	1.167205	0.000138
 212	2.0994e+01	8.4030	36.493689	0.000426	4.255613	1.441841	0.000170
 213	2.1094e+01	8.4463	36.639025	0.000365	3.647669	1.235864	0.000146
 214	2.1194e+01	8.4784	36.844919	0.000517	5.167531	1.750807	0.000207
 215	2.1293e+01	8.5297	36.937773	0.000233	2.330455	0.789580	0.000093
 216	2.1392e+01	8.5762	37.155779	0.000547	5.471503	1.853795	0.000219
 217	2.1492e+01	8.6067	37.276893	0.000304	3.039724	1.029886	0.000122
 218	2.1591e+01	8.6436	37.466638	0.000476	4.762234	1.613489	0.000191
 219	2.1691e+01	8.6821	37.632161	0.000415	4.154289	1.407511	0.000166
 220	2.1791e+01	8.7238	37.821906	0.000476	4.762234	1.613489	0.000191
 221	2.1890e+01	8.7639	37.959169	0.000345	3.445020	1.167205	0.000138
 222	2.1989e+01	8.8008	38.096431	0.000345	3.445020	1.167205	0.000138
 223	2.2089e+01	8.8377	38.282140	0.000466	4.660910	1.579159	0.000187
 224	2.2189e+01	8.8842	38.459774	0.000446	4.458262	1.510500	0.000179
 225	2.2288e+01	8.9260	38.609148	0.000375	3.748993	1.270193	0.000150
 226	2.2387e+01	8.9548	38.774670	0.000415	4.154289	1.407511	0.000166
 227	2.2487e+01	9.0014	38.932118	0.000395	3.951641	1.338852	0.000158
 228	2.2587e+01	9.0415	39.113790	0.000456	4.559586	1.544830	0.000183
 229	2.2686e+01	9.0816	39.271238	0.000395	3.951641	1.338852	0.000158
 230	2.2785e+01	9.1233	39.404463	0.000334	3.343696	1.132875	0.000134
 231	2.2885e+01	9.1602	39.574023	0.000426	4.255613	1.441841	0.000170
 232	2.2985e+01	9.1939	39.783954	0.000527	5.268855	1.785136	0.000211
 233	2.3084e+01	9.2468	39.880845	0.000243	2.431779	0.823909	0.000097
 234	2.3183e+01	9.2789	40.058479	0.000446	4.458262	1.510500	0.000179
 235	2.3283e+01	9.3142	40.219965	0.000405	4.052965	1.373182	0.000162
 236	2.3383e+01	9.3623	40.385487	0.000415	4.154289	1.407511	0.000166
 237	2.3482e+01	9.3992	40.567158	0.000456	4.559586	1.544830	0.000183
 238	2.3581e+01	9.4377	40.696347	0.000324	3.242372	1.098545	0.000130
 239	2.3681e+01	9.4778	40.918389	0.000557	5.572827	1.888125	0.000223
 240	2.3780e+01	9.5291	41.027392	0.000274	2.735752	0.926898	0.000110
 241	2.3880e+01	9.5516	41.196952	0.000426	4.255613	1.441841	0.000170
 242	2.3980e+01	9.5981	41.330177	0.000334	3.343696	1.132875	0.000134
 243	2.4079e+01	9.6398	41.487625	0.000395	3.951641	1.338852	0.000158
 244	2.4178e+01	9.6719	41.632962	0.000365	3.647669	1.235864	0.000146
 245	2.4278e+01	9.7168	41.794448	0.000405	4.052965	1.373182	0.000162
 246	2.4378e+01	9.7602	41.968045	0.000436	4.356938	1.476170	0.000174
 247	2.4477e+01	9.7987	42.145679	0.000446	4.458262	1.510500	0.000179
 248	2.4576e+01	9.8468	42.278904	0.000334	3.343696	1.132875	0.000134
 249	2.4676e+01	9.8741	42.472687	0.000486	4.863558	1.647818	0.000195
 250	2.4776e+01	9.9142	42.589763	0.000294	2.938400	0.995557	0.000118
 251	2.4875e+01	9.9559	42.755286	0.000415	4.154289	1.407511	0.000166
 252	2.4974e+01	10.0008	42.908697	0.000385	3.850317	1.304523	0.000154
 253	2.5074e+01	10.0393	43.070183	0.000405	4.052965	1.373182	0.000162
 254	2.5174e+01	10.0810	43.203408	0.000334	3.343696	1.132875	0.000134
 255	2.5273e+01	10.1179	43.401228	0.000496	4.964882	1.682148	0.000199
 256	2.5372e+01	10.1580	43.530416	0.000324	3.242372	1.098545	0.000130
 257	2.5472e+01	10.1901	43.675753	0.000365	3.647669	1.235864	0.000146
 258	2.5572e+01	10.2398	43.861461	0.000466	4.660910	1.579159	0.000187
 259	2.5671e+01	10.2687	43.994687	0.000334	3.343696	1.132875	0.000134
 260	2.5770e+01	10.3072	44.168284	0.000436	4.356938	1.476170	0.000174
 261	2.5870e+01	10.3505	44.321695	0.000385	3.850317	1.304523	0.000154
 262	2.5970e+01	10.3890	44.487217	0.000415	4.154289	1.407511	0.000166
 263	2.6069e+01	10.4291	44.624480	0.000345	3.445020	1.167205	0.000138
 264	2.6169e+01	10.4708	44.810188	0.000466	4.660910	1.579159	0.000187
 265	2.6268e+01	10.5238	44.943414	0.000334	3.343696	1.132875	0.000134
 266	2.6367e+01	10.5494	45.100862	0.000395	3.951641	1.338852	0.000158
 267	2.6467e+01	10.5960	45.246199	0.000365	3.647669	1.235864	0.000146
 268	2.6567e+01	10.6345	45.427870	0.000456	4.559586	1.544830	0.000183
 269	2.6666e+01	10.6665	45.544947	0.000294	2.938400	0.995557	0.000118
 270	2.6765e+01	10.7115	45.690284	0.000365	3.647669	1.235864	0.000146
 271	2.6865e+01	10.7452	45.843695	0.000385	3.850317	1.304523	0.000154
 272	2.6965e+01	10.7917	46.021329	0.000446	4.458262	1.510500	0.000179
 273	2.7064e+01	10.8318	46.166666	0.000365	3.647669	1.235864	0.000146
 274	2.7163e+01	10.8703	46.352374	0.000466	4.660910	1.579159	0.000187
 275	2.7263e+01	10.9152	46.449265	0.000243	2.431779	0.823909	0.000097
 276	2.7363e+01	10.9553	46.626899	0.000446	4.458262	1.510500	0.000179
 277	2.7462e+01	10.9954	46.808570	0.000456	4.559586	1.544830	0.000183
 278	2.7561e+01	11.0355	46.941796	0.000334	3.343696	1.132875	0.000134
 279	2.7661e+01	11.0772	47.095207	0.000385	3.850317	1.304523	0.000154
 280	2.7761e+01	11.1189	47.252655	0.000395	3.951641	1.338852	0.000158
 281	2.7860e+01	11.1526	47.397992	0.000365	3.647669	1.235864	0.000146
 282	2.7959e+01	11.1911	47.523143	0.000314	3.141048	1.064216	0.000126
 283	2.8059e+01	11.2296	47.749223	0.000567	5.674151	1.922455	0.000227
 284	2.8159e+01	11.2713	47.829966	0.000203	2.026483	0.686591	0.000081
 285	2.8258e+01	11.3066	48.035860	0.000517	5.167531	1.750807	0.000207
 286	2.8358e+01	11.3532	48.140825	0.000263	2.634427	0.892568	0.000105
 287	2.8457e+01	11.3949	48.326533	0.000466	4.660910	1.579159	0.000187
 288	2.8556e+01	11.4286	48.435536	0.000274	2.735752	0.926898	0.000110
 289	2.8656e+01	11.4638	48.597021	0.000405	4.052965	1.373182	0.000162
 290	2.8756e+01	11.5088	48.778693	0.000456	4.559586	1.544830	0.000183
 291	2.8855e+01	11.5601	48.911918	0.000334	3.343696	1.132875	0.000134
 292	2.8954e+01	11.5826	49.061292	0.000375	3.748993	1.270193	0.000150
 293	2.9054e+01	11.6371	49.238926	0.000446	4.458262	1.510500	0.000179
 294	2.9154e+01	11.6708	49.368114	0.000324	3.242372	1.098545	0.000130
 295	2.9253e+01	11.7173	49.505377	0.000345	3.445020	1.167205	0.000138
 296	2.9352e+01	11.7462	49.662825	0.000395	3.951641	1.338852	0.000158
 297	2.9452e+01	11.7879	49.808162	0.000365	3.647669	1.235864	0.000146
 298	2.9552e+01	11.8296	49.973685	0.000415	4.154289	1.407511	0.000166
 299	2.9651e+01	11.8713	50.110947	0.000345	3.445020	1.167205	0.000138
 300	2.9750e+01	11.9211	50.252247	0.000355	3.546345	1.201534	0.000142
 301	2.9850e+01	11.9483	50.389510	0.000345	3.445020	1.167205	0.000138
 302	2.9950e+01	11.9868	50.526772	0.000345	3.445020	1.167205	0.000138
 303	3.0049e+01	12.0221	50.684221	0.000395	3.951641	1.338852	0.000158
 304	3.0148e+01	12.0686	50.853780	0.000426	4.255613	1.441841	0.000170
 305	3.0248e+01	12.1071	50.962783	0.000274	2.735752	0.926898	0.000110
 306	3.0348e+01	12.1456	51.120231	0.000395	3.951641	1.338852	0.000158
 307	3.0447e+01	12.1874	51.265568	0.000365	3.647669	1.235864	0.000146
 308	3.0547e+01	12.2291	51.378608	0.000284	2.837076	0.961227	0.000114
 309	3.0646e+01	12.2692	51.556242	0.000446	4.458262	1.510500	0.000179
 310	3.0745e+01	12.2997	51.689467	0.000334	3.343696	1.132875	0.000134
 311	3.0845e+01	12.3398	51.830767	0.000355	3.546345	1.201534	0.000142
 312	3.0945e+01	12.3815	51.980141	0.000375	3.748993	1.270193	0.000150
 313	3.1044e+01	12.4312	52.129515	0.000375	3.748993	1.270193	0.000150
 314	3.1143e+01	12.4697	52.238518	0.000274	2.735752	0.926898	0.000110
 315	3.1243e+01	12.5082	52.408078	0.000426	4.255613	1.441841	0.000170
 316	3.1343e+01	12.5483	52.573600	0.000415	4.154289	1.407511	0.000166
 317	3.1442e+01	12.5932	52.666454	0.000233	2.330455	0.789580	0.000093
 318	3.1541e+01	12.6237	52.819865	0.000385	3.850317	1.304523	0.000154
 319	3.1641e+01	12.6686	52.977314	0.000395	3.951641	1.338852	0.000158
 320	3.1741e+01	12.7055	53.090354	0.000284	2.837076	0.961227	0.000114
 321	3.1840e+01	12.7504	53.255876	0.000415	4.154289	1.407511	0.000166
 322	3.1939e+01	12.7889	53.389102	0.000334	3.343696	1.132875	0.000134
 323	3.2039e+01	12.8194	53.518290	0.000324	3.242372	1.098545	0.000130
 324	3.2139e+01	12.8708	53.691887	0.000436	4.356938	1.476170	0.000174
 325	3.2238e+01	12.9028	53.796852	0.000263	2.634427	0.892568	0.000105
 326	3.2337e+01	12.9462	53.954301	0.000395	3.951641	1.338852	0.000158
 327	3.2437e+01	12.9750	54.123860	0.000426	4.255613	1.441841	0.000170
 328	3.2536e+01	13.0183	54.236900	0.000284	2.837076	0.961227	0.000114
 329	3.2636e+01	13.0649	54.349940	0.000284	2.837076	0.961227	0.000114
 330	3.2736e+01	13.1034	54.471054	0.000304	3.039724	1.029886	0.000122
 331	3.2835e+01	13.1451	54.644651	0.000436	4.356938	1.476170	0.000174
 332	3.2934e+01	13.1836	54.777876	0.000334	3.343696	1.132875	0.000134
 333	3.3034e+01	13.2173	54.927250	0.000375	3.748993	1.270193	0.000150
 334	3.3133e+01	13.2606	55.044327	0.000294	2.938400	0.995557	0.000118
 335	3.3233e+01	13.3007	55.181590	0.000345	3.445020	1.167205	0.000138
 336	3.3333e+01	13.3360	55.355187	0.000436	4.356938	1.476170	0.000174
 337	3.3432e+01	13.3761	55.476301	0.000304	3.039724	1.029886	0.000122
 338	3.3532e+01	13.4178	55.581266	0.000263	2.634427	0.892568	0.000105
 339	3.3631e+01	13.4659	55.750826	0.000426	4.255613	1.441841	0.000170
 340	3.3730e+01	13.4948	55.855792	0.000263	2.634427	0.892568	0.000105
 341	3.3830e+01	13.5445	56.025351	0.000426	4.255613	1.441841	0.000170
 342	3.3929e+01	13.5911	56.142428	0.000294	2.938400	0.995557	0.000118
 343	3.4029e+01	13.6247	56.291802	0.000375	3.748993	1.270193	0.000150
 344	3.4129e+01	13.6633	56.368508	0.000193	1.925158	0.652261	0.000077
 345	3.4228e+01	13.6985	56.554216	0.000466	4.660910	1.579159	0.000187
 346	3.4328e+01	13.7386	56.683404	0.000324	3.242372	1.098545	0.000130
 347	3.4427e+01	13.7900	56.816630	0.000334	3.343696	1.132875	0.000134
 348	3.4526e+01	13.8285	56.982152	0.000415	4.154289	1.407511	0.000166
 349	3.4626e+01	13.8542	57.083081	0.000253	2.533103	0.858239	0.000101
 350	3.4725e+01	13.9055	57.212269	0.000324	3.242372	1.098545	0.000130
 351	3.4825e+01	13.9504	57.341457	0.000324	3.242372	1.098545	0.000130
 352	3.4925e+01	13.9841	57.478720	0.000345	3.445020	1.167205	0.000138
 353	3.5024e+01	14.0194	57.660391	0.000456	4.559586	1.544830	0.000183
 354	3.5123e+01	14.0563	57.749208	0.000223	2.229131	0.755250	0.000089
 355	3.5223e+01	14.0916	57.890508	0.000355	3.546345	1.201534	0.000142
 356	3.5322e+01	14.1381	57.991436	0.000253	2.533103	0.858239	0.000101
 357	3.5422e+01	14.1750	58.144847	0.000385	3.850317	1.304523	0.000154
 358	3.5522e+01	14.2119	58.290184	0.000365	3.647669	1.235864	0.000146
 359	3.5621e+01	14.2552	58.423410	0.000334	3.343696	1.132875	0.000134
 360	3.5721e+01	14.3065	58.580858	0.000395	3.951641	1.338852	0.000158
 361	3.5820e+01	14.3402	58.706009	0.000314	3.141048	1.064216	0.000126
 362	3.5919e+01	14.3819	58.823086	0.000294	2.938400	0.995557	0.000118
 363	3.6019e+01	14.4172	58.940163	0.000294	2.938400	0.995557	0.000118
 364	3.6118e+01	14.4573	59.073389	0.000334	3.343696	1.132875	0.000134
 365	3.6218e+01	14.4846	59.198540	0.000314	3.141048	1.064216	0.000126
 366	3.6318e+01	14.5327	59.303505	0.000263	2.634427	0.892568	0.000105
 367	3.6417e+01	14.5777	59.460954	0.000395	3.951641	1.338852	0.000158
 368	3.6517e+01	14.6194	59.586105	0.000314	3.141048	1.064216	0.000126
 369	3.6616e+01	14.6499	59.735479	0.000375	3.748993	1.270193	0.000150
 370	3.6715e+01	14.7092	59.820259	0.000213	2.127807	0.720920	0.000085
 371	3.6815e+01	14.7333	59.965596	0.000365	3.647669	1.235864	0.000146
 372	3.6914e+01	14.7798	60.098821	0.000334	3.343696	1.132875	0.000134
 373	3.7014e+01	14.8199	60.240121	0.000355	3.546345	1.201534	0.000142
 374	3.7114e+01	14.8520	60.381421	0.000355	3.546345	1.201534	0.000142
 375	3.7213e+01	14.8953	60.490423	0.000274	2.735752	0.926898	0.000110
 376	3.7313e+01	14.9402	60.639797	0.000375	3.748993	1.270193	0.000150
 377	3.7412e+01	14.9739	60.716503	0.000193	1.925158	0.652261	0.000077
 378	3.7511e+01	15.0140	60.865877	0.000375	3.748993	1.270193	0.000150
 379	3.7611e+01	15.0637	61.023325	0.000395	3.951641	1.338852	0.000158
 380	3.7711e+01	15.0974	61.128291	0.000263	2.634427	0.892568	0.000105
 381	3.7810e+01	15.1247	61.277665	0.000375	3.748993	1.270193	0.000150
 382	3.7910e+01	15.1809	61.398779	0.000304	3.039724	1.029886	0.000122
 383	3.8009e+01	15.2113	61.515856	0.000294	2.938400	0.995557	0.000118
 384	3.8108e+01	15.2498	61.641007	0.000314	3.141048	1.064216	0.000126
 385	3.8208e+01	15.2883	61.770195	0.000324	3.242372	1.098545	0.000130
 386	3.8307e+01	15.3365	61.907458	0.000345	3.445020	1.167205	0.000138
 387	3.8407e+01	15.3766	62.020498	0.000284	2.837076	0.961227	0.000114
 388	3.8507e+01	15.4087	62.169872	0.000375	3.748993	1.270193	0.000150
 389	3.8606e+01	15.4584	62.278874	0.000274	2.735752	0.926898	0.000110
 390	3.8706e+01	15.4889	62.456508	0.000446	4.458262	1.510500	0.000179
 391	3.8805e+01	15.5338	62.573585	0.000294	2.938400	0.995557	0.000118
 392	3.8904e+01	15.5835	62.678551	0.000263	2.634427	0.892568	0.000105
 393	3.9004e+01	15.6060	62.811776	0.000334	3.343696	1.132875	0.000134
 394	3.9103e+01	15.6509	62.965188	0.000385	3.850317	1.304523	0.000154
 395	3.9203e+01	15.6926	63.106487	0.000355	3.546345	1.201534	0.000142
 396	3.9303e+01	15.7327	63.191267	0.000213	2.127807	0.720920	0.000085
 397	3.9402e+01	15.7744	63.292196	0.000253	2.533103	0.858239	0.000101
 398	3.9502e+01	15.8097	63.481941	0.000476	4.762234	1.613489	0.000191
 399	3.9601e+01	15.8530	63.590944	0.000274	2.735752	0.926898	0.000110
 400	3.9700e+01	15.8947	63.724169	0.000334	3.343696	1.132875	0.000134
 401	3.9800e+01	15.9332	63.881617	0.000395	3.951641	1.338852	0.000158
 402	3.9900e+01	15.9685	63.966397	0.000213	2.127807	0.720920	0.000085
 403	3.9999e+01	16.0038	64.087511	0.000304	3.039724	1.029886	0.000122
 404	4.0099e+01	16.0520	64.160180	0.000182	1.823834	0.617932	0.000073
 405	4.0198e+01	16.0856	64.362037	0.000507	5.066207	1.716477	0.000203
 406	4.0297e+01	16.1306	64.479113	0.000294	2.938400	0.995557	0.000118
 407	4.0397e+01	16.1723	64.600228	0.000304	3.039724	1.029886	0.000122
 408	4.0496e+01	16.2140	64.761713	0.000405	4.052965	1.373182	0.000162
 409	4.0596e+01	16.2509	64.858604	0.000243	2.431779	0.823909	0.000097
 410	4.0696e+01	16.2878	65.003941	0.000365	3.647669	1.235864	0.000146
 411	4.0795e+01	16.3279	65.157352	0.000385	3.850317	1.304523	0.000154
 412	4.0895e+01	16.3712	65.238095	0.000203	2.026483	0.686591	0.000081
 413	4.0994e+01	16.4081	65.375358	0.000345	3.445020	1.167205	0.000138
 414	4.1093e+01	16.4594	65.524732	0.000375	3.748993	1.270193	0.000150
 415	4.1193e+01	16.4851	65.625660	0.000253	2.533103	0.858239	0.000101
 416	4.1292e+01	16.5348	65.750811	0.000314	3.141048	1.064216	0.000126
 417	4.1392e+01	16.5685	65.867888	0.000294	2.938400	0.995557	0.000118
 418	4.1492e+01	16.6118	66.009188	0.000355	3.546345	1.201534	0.000142
 419	4.1591e+01	16.6535	66.134339	0.000314	3.141048	1.064216	0.000126
 420	4.1691e+01	16.6920	66.267565	0.000334	3.343696	1.132875	0.000134
 421	4.1790e+01	16.7225	66.372530	0.000263	2.634427	0.892568	0.000105
 422	4.1889e+01	16.7723	66.534016	0.000405	4.052965	1.373182	0.000162
 423	4.1989e+01	16.8059	66.638981	0.000263	2.634427	0.892568	0.000105
 424	4.2089e+01	16.8509	66.776244	0.000345	3.445020	1.167205	0.000138
 425	4.2188e+01	16.8813	66.889283	0.000284	2.837076	0.961227	0.000114
 426	4.2288e+01	16.9327	67.014435	0.000314	3.141048	1.064216	0.000126
 427	4.2387e+01	16.9696	67.103252	0.000223	2.229131	0.755250	0.000089
 428	4.2486e+01	17.0033	67.260700	0.000395	3.951641	1.338852	0.000158
 429	4.2586e+01	17.0498	67.357591	0.000243	2.431779	0.823909	0.000097
 430	4.2685e+01	17.0915	67.515040	0.000395	3.951641	1.338852	0.000158
 431	4.2785e+01	17.1300	67.652302	0.000345	3.445020	1.167205	0.000138
 432	4.2885e+01	17.1621	67.757268	0.000263	2.634427	0.892568	0.000105
 433	4.2984e+01	17.2086	67.906642	0.000375	3.748993	1.270193	0.000150
 434	4.3084e+01	17.2487	67.995459	0.000223	2.229131	0.755250	0.000089
 435	4.3183e+01	17.2840	68.104461	0.000274	2.735752	0.926898	0.000110
 436	4.3282e+01	17.3305	68.298244	0.000486	4.863558	1.647818	0.000195
 437	4.3382e+01	17.3626	68.387061	0.000223	2.229131	0.755250	0.000089
 438	4.3481e+01	17.4091	68.500101	0.000284	2.837076	0.961227	0.000114
 439	4.3581e+01	17.4428	68.629289	0.000324	3.242372	1.098545	0.000130
 440	4.3681e+01	17.4910	68.794812	0.000415	4.154289	1.407511	0.000166
 441	4.3780e+01	17.5278	68.875554	0.000203	2.026483	0.686591	0.000081
 442	4.3880e+01	17.5535	69.000705	0.000314	3.141048	1.064216	0.000126
 443	4.3979e+01	17.6032	69.150079	0.000375	3.748993	1.270193	0.000150
 444	4.4078e+01	17.6434	69.246971	0.000243	2.431779	0.823909	0.000097
 445	4.4178e+01	17.6915	69.384233	0.000345	3.445020	1.167205	0.000138
 446	4.4278e+01	17.7284	69.533607	0.000375	3.748993	1.270193	0.000150
 447	4.4377e+01	17.7653	69.614350	0.000203	2.026483	0.686591	0.000081
 448	4.4477e+01	17.8022	69.751613	0.000345	3.445020	1.167205	0.000138
 449	4.4576e+01	17.8471	69.892912	0.000355	3.546345	1.201534	0.000142
 450	4.4675e+01	17.8840	69.989804	0.000243	2.431779	0.823909	0.000097
 451	4.4775e+01	17.9209	70.147252	0.000395	3.951641	1.338852	0.000158
 452	4.4874e+01	17.9578	70.268366	0.000304	3.039724	1.029886	0.000122
 453	4.4974e+01	17.9883	70.413703	0.000365	3.647669	1.235864	0.000146
 454	4.5074e+01	18.0460	70.502520	0.000223	2.229131	0.755250	0.000089
 455	4.5173e+01	18.0781	70.603448	0.000253	2.533103	0.858239	0.000101
 456	4.5273e+01	18.1182	70.752822	0.000375	3.748993	1.270193	0.000150
 457	4.5372e+01	18.1551	70.845676	0.000233	2.330455	0.789580	0.000093
 458	4.5471e+01	18.2113	70.958716	0.000284	2.837076	0.961227	0.000114
 459	4.5571e+01	18.2417	71.148462	0.000476	4.762234	1.613489	0.000191
 460	4.5670e+01	18.2722	71.261501	0.000284	2.837076	0.961227	0.000114
 461	4.5770e+01	18.3235	71.362430	0.000253	2.533103	0.858239	0.000101
 462	4.5870e+01	18.3572	71.487581	0.000314	3.141048	1.064216	0.000126
 463	4.5969e+01	18.3989	71.572361	0.000213	2.127807	0.720920	0.000085
 464	4.6069e+01	18.4374	71.737883	0.000415	4.154289	1.407511	0.000166
 465	4.6168e+01	18.4840	71.854960	0.000294	2.938400	0.995557	0.000118
 466	4.6267e+01	18.5289	71.955889	0.000253	2.533103	0.858239	0.000101
 467	4.6367e+01	18.5658	72.093151	0.000345	3.445020	1.167205	0.000138
 468	4.6467e+01	18.6075	72.218303	0.000314	3.141048	1.064216	0.000126
 469	4.6566e+01	18.6428	72.311157	0.000233	2.330455	0.789580	0.000093
 470	4.6666e+01	18.6781	72.464568	0.000385	3.850317	1.304523	0.000154
 471	4.6765e+01	18.7246	72.529162	0.000162	1.621186	0.549273	0.000065
 472	4.6864e+01	18.7631	72.666425	0.000345	3.445020	1.167205	0.000138
 473	4.6964e+01	18.7984	72.787539	0.000304	3.039724	1.029886	0.000122
 474	4.7063e+01	18.8417	72.896541	0.000274	2.735752	0.926898	0.000110
 475	4.7163e+01	18.8850	73.033804	0.000345	3.445020	1.167205	0.000138
 476	4.7263e+01	18.9251	73.154918	0.000304	3.039724	1.029886	0.000122
 477	4.7362e+01	18.9588	73.247772	0.000233	2.330455	0.789580	0.000093
 478	4.7462e+01	18.9989	73.340626	0.000233	2.330455	0.789580	0.000093
 479	4.7561e+01	19.0422	73.469815	0.000324	3.242372	1.098545	0.000130
 480	4.7660e+01	19.0840	73.607077	0.000345	3.445020	1.167205	0.000138
 481	4.7760e+01	19.1241	73.748377	0.000355	3.546345	1.201534	0.000142
 482	4.7859e+01	19.1577	73.808934	0.000152	1.519862	0.514943	0.000061
 483	4.7959e+01	19.1979	73.970420	0.000405	4.052965	1.373182	0.000162
 484	4.8059e+01	19.2364	74.067311	0.000243	2.431779	0.823909	0.000097
 485	4.8158e+01	19.2829	74.184388	0.000294	2.938400	0.995557	0.000118
 486	4.8258e+01	19.3150	74.285316	0.000253	2.533103	0.858239	0.000101
 487	4.8357e+01	19.3567	74.410467	0.000314	3.141048	1.064216	0.000126
 488	4.8456e+01	19.4000	74.499284	0.000223	2.229131	0.755250	0.000089
 489	4.8556e+01	19.4401	74.612324	0.000284	2.837076	0.961227	0.000114
 490	4.8656e+01	19.4722	74.765735	0.000385	3.850317	1.304523	0.000154
 491	4.8755e+01	19.5155	74.874738	0.000274	2.735752	0.926898	0.000110
 492	4.8855e+01	19.5572	74.983741	0.000274	2.735752	0.926898	0.000110
 493	4.8954e+01	19.5957	75.112929	0.000324	3.242372	1.098545	0.000130
 494	4.9053e+01	19.6406	75.185597	0.000182	1.823834	0.617932	0.000073
 495	4.9153e+01	19.6823	75.290563	0.000263	2.634427	0.892568	0.000105
 496	4.9252e+01	19.7192	75.411677	0.000304	3.039724	1.029886	0.000122
 497	4.9352e+01	19.7641	75.532791	0.000304	3.039724	1.029886	0.000122
 498	4.9452e+01	19.7930	75.657942	0.000314	3.141048	1.064216	0.000126
 499	4.9551e+01	19.8379	75.770982	0.000284	2.837076	0.961227	0.000114
 500	4.9651e+01	19.8813	75.875948	0.000263	2.634427	0.892568	0.000105
 501	4.9750e+01	19.9246	75.984950	0.000274	2.735752	0.926898	0.000110
 502	4.9849e+01	19.9647	76.102027	0.000294	2.938400	0.995557	0.000118
 503	4.9949e+01	20.0000	76.243327	0.000355	3.546345	1.201534	0.000142
 504	5.0048e+01	19.9534	76.138361	0.000263	2.634427	0.892568	-0.000105
 505	5.0148e+01	19.9133	76.057619	0.000203	2.026483	0.686591	-0.000081
 506	5.0248e+01	19.8877	76.005136	0.000132	1.317214	0.446284	-0.000053
 507	5.0347e+01	19.8363	75.892096	0.000284	2.837076	0.961227	-0.000114
 508	5.0447e+01	19.7882	75.795205	0.000243	2.431779	0.823909	-0.000097
 509	5.0546e+01	19.7561	75.694277	0.000253	2.533103	0.858239	-0.000101
 510	5.0645e+01	19.7128	75.593348	0.000253	2.533103	0.858239	-0.000101
 511	5.0745e+01	19.6807	75.496457	0.000243	2.431779	0.823909	-0.000097
 512	5.0844e+01	19.6422	75.411677	0.000213	2.127807	0.720920	-0.000085
 513	5.0944e+01	19.5973	75.310749	0.000253	2.533103	0.858239	-0.000101
 514	5.1044e+01	19.5604	75.213857	0.000243	2.431779	0.823909	-0.000097
 515	5.1143e+01	19.5171	75.088706	0.000314	3.141048	1.064216	-0.000126
 516	5.1242e+01	19.4802	75.036223	0.000132	1.317214	0.446284	-0.000053
 517	5.1342e+01	19.4353	74.951444	0.000213	2.127807	0.720920	-0.000085
 518	5.1441e+01	19.3904	74.838404	0.000284	2.837076	0.961227	-0.000114
 519	5.1541e+01	19.3567	74.737475	0.000253	2.533103	0.858239	-0.000101
 520	5.1641e+01	19.3262	74.636547	0.000253	2.533103	0.858239	-0.000101
 521	5.1740e+01	19.2797	74.527544	0.000274	2.735752	0.926898	-0.000110
 522	5.1840e+01	19.2364	74.418542	0.000274	2.735752	0.926898	-0.000110
 523	5.1939e+01	19.1946	74.329725	0.000223	2.229131	0.755250	-0.000089
 524	5.2038e+01	19.1594	74.216685	0.000284	2.837076	0.961227	-0.000114
 525	5.2138e+01	19.1209	74.152091	0.000162	1.621186	0.549273	-0.000065
 526	5.2237e+01	19.0888	74.067311	0.000213	2.127807	0.720920	-0.000085
 527	5.2337e+01	19.0390	73.934085	0.000334	3.343696	1.132875	-0.000134
 528	5.2437e+01	18.9973	73.845268	0.000223	2.229131	0.755250	-0.000089
 529	5.2536e+01	18.9636	73.748377	0.000243	2.431779	0.823909	-0.000097
 530	5.2636e+01	18.9155	73.631300	0.000294	2.938400	0.995557	-0.000118
 531	5.2735e+01	18.8850	73.562669	0.000172	1.722510	0.583602	-0.000069
 532	5.2834e+01	18.8433	73.417332	0.000365	3.647669	1.235864	-0.000146
 533	5.2934e+01	18.7968	73.320441	0.000243	2.431779	0.823909	-0.000097
 534	5.3033e+01	18.7615	73.215475	0.000263	2.634427	0.892568	-0.000105
 535	5.3133e+01	18.7246	73.134732	0.000203	2.026483	0.686591	-0.000081
 536	5.3233e+01	18.6813	73.033804	0.000253	2.533103	0.858239	-0.000101
 537	5.3332e+01	18.6444	72.892504	0.000355	3.546345	1.201534	-0.000142
 538	5.3431e+01	18.6059	72.795613	0.000243	2.431779	0.823909	-0.000097
 539	5.3531e+01	18.5578	72.670462	0.000314	3.141048	1.064216	-0.000126
 540	5.3630e+01	18.5241	72.593756	0.000193	1.925158	0.652261	-0.000077
 541	5.3730e+01	18.4920	72.476679	0.000294	2.938400	0.995557	-0.000118
 542	5.3830e+01	18.4471	72.363640	0.000284	2.837076	0.961227	-0.000114
 543	5.3929e+01	18.4006	72.286934	0.000193	1.925158	0.652261	-0.000077
 544	5.4029e+01	18.3588	72.181968	0.000263	2.634427	0.892568	-0.000105
 545	5.4128e+01	18.3268	72.105263	0.000193	1.925158	0.652261	-0.000077
 546	5.4227e+01	18.2818	71.988186	0.000294	2.938400	0.995557	-0.000118
 547	5.4327e+01	18.2401	71.867072	0.000304	3.039724	1.029886	-0.000122
 548	5.4426e+01	18.1984	71.778255	0.000223	2.229131	0.755250	-0.000089
 549	5.4526e+01	18.1679	71.685401	0.000233	2.330455	0.789580	-0.000093
 550	5.4626e+01	18.1262	71.576398	0.000274	2.735752	0.926898	-0.000110
 551	5.4725e+01	18.0877	71.463358	0.000284	2.837076	0.961227	-0.000114
 552	5.4825e+01	18.0476	71.358393	0.000263	2.634427	0.892568	-0.000105
 553	5.4924e+01	18.0027	71.253427	0.000263	2.634427	0.892568	-0.000105
 554	5.5023e+01	17.9642	71.116165	0.000345	3.445020	1.167205	-0.000138
 555	5.5123e+01	17.9209	71.047533	0.000172	1.722510	0.583602	-0.000069
 556	5.5222e+01	17.8808	70.926419	0.000304	3.039724	1.029886	-0.000122
 557	5.5322e+01	17.8503	70.817417	0.000274	2.735752	0.926898	-0.000110
 558	5.5422e+01	17.8006	70.736674	0.000203	2.026483	0.686591	-0.000081
 559	5.5521e+01	17.7685	70.619597	0.000294	2.938400	0.995557	-0.000118
 560	5.5620e+01	17.7236	70.498483	0.000304	3.039724	1.029886	-0.000122
 561	5.5720e+01	17.6819	70.429852	0.000172	1.722510	0.583602	-0.000069
 562	5.5819e+01	17.6385	70.320849	0.000274	2.735752	0.926898	-0.000110
 563	5.5919e+01	17.6049	70.167438	0.000385	3.850317	1.304523	-0.000154
 564	5.6019e+01	17.5615	70.102844	0.000162	1.621186	0.549273	-0.000065
 565	5.6118e+01	17.5311	70.009989	0.000233	2.330455	0.789580	-0.000093
 566	5.6218e+01	17.4877	69.900987	0.000274	2.735752	0.926898	-0.000110
 567	5.6317e+01	17.4508	69.775836	0.000314	3.141048	1.064216	-0.000126
 568	5.6416e+01	17.4107	69.707204	0.000172	1.722510	0.583602	-0.000069
 569	5.6516e+01	17.3690	69.578016	0.000324	3.242372	1.098545	-0.000130
 570	5.6615e+01	17.3225	69.485162	0.000233	2.330455	0.789580	-0.000093
 571	5.6715e+01	17.2840	69.364048	0.000304	3.039724	1.029886	-0.000122
 572	5.6815e+01	17.2551	69.279268	0.000213	2.127807	0.720920	-0.000085
 573	5.6914e+01	17.2038	69.174302	0.000263	2.634427	0.892568	-0.000105
 574	5.7014e+01	17.1701	69.033003	0.000355	3.546345	1.201534	-0.000142
 575	5.7113e+01	17.1284	68.952260	0.000203	2.026483	0.686591	-0.000081
 576	5.7212e+01	17.0835	68.835183	0.000294	2.938400	0.995557	-0.000118
 577	5.7312e+01	17.0498	68.734255	0.000253	2.533103	0.858239	-0.000101
 578	5.7411e+01	17.0113	68.649475	0.000213	2.127807	0.720920	-0.000085
 579	5.7511e+01	16.9680	68.532398	0.000294	2.938400	0.995557	-0.000118
 580	5.7611e+01	16.9311	68.403209	0.000324	3.242372	1.098545	-0.000130
 581	5.7710e+01	16.8910	68.298244	0.000263	2.634427	0.892568	-0.000105
 582	5.7809e+01	16.8460	68.253835	0.000111	1.114565	0.377625	-0.000045
 583	5.7909e+01	16.8011	68.080239	0.000436	4.356938	1.476170	-0.000174
 584	5.8008e+01	16.7723	67.995459	0.000213	2.127807	0.720920	-0.000085
 585	5.8108e+01	16.7289	67.886456	0.000274	2.735752	0.926898	-0.000110
 586	5.8208e+01	16.6888	67.761305	0.000314	3.141048	1.064216	-0.000126
 587	5.8307e+01	16.6584	67.680562	0.000203	2.026483	0.686591	-0.000081
 588	5.8407e+01	16.6134	67.555411	0.000314	3.141048	1.064216	-0.000126
 589	5.8506e+01	16.5669	67.442371	0.000284	2.837076	0.961227	-0.000114
 590	5.8605e+01	16.5300	67.317220	0.000314	3.141048	1.064216	-0.000126
 591	5.8705e+01	16.4899	67.228403	0.000223	2.229131	0.755250	-0.000089
 592	5.8804e+01	16.4562	67.111326	0.000294	2.938400	0.995557	-0.000118
 593	5.8904e+01	16.4017	67.014435	0.000243	2.431779	0.823909	-0.000097
 594	5.9004e+01	16.3680	66.885246	0.000324	3.242372	1.098545	-0.000130
 595	5.9103e+01	16.3215	66.772207	0.000284	2.837076	0.961227	-0.000114
 596	5.9203e+01	16.2926	66.675315	0.000243	2.431779	0.823909	-0.000097
 597	5.9302e+01	16.2477	66.562275	0.000284	2.837076	0.961227	-0.000114
 598	5.9401e+01	16.2060	66.469421	0.000233	2.330455	0.789580	-0.000093
 599	5.9501e+01	16.1691	66.348307	0.000304	3.039724	1.029886	-0.000122
 600	5.9600e+01	16.1290	66.255453	0.000233	2.330455	0.789580	-0.000093
 601	5.9700e+01	16.0937	66.122228	0.000334	3.343696	1.132875	-0.000134
 602	5.9800e+01	16.0503	66.041485	0.000203	2.026483	0.686591	-0.000081
 603	5.9899e+01	16.0086	65.912297	0.000324	3.242372	1.098545	-0.000130
 604	5.9998e+01	15.9605	65.831554	0.000203	2.026483	0.686591	-0.000081
 605	6.0098e+01	15.9332	65.678143	0.000385	3.850317	1.304523	-0.000154
 606	6.0197e+01	15.8851	65.569140	0.000274	2.735752	0.926898	-0.000110
 607	6.0297e+01	15.8594	65.480323	0.000223	2.229131	0.755250	-0.000089
 608	6.0397e+01	15.8033	65.383432	0.000243	2.431779	0.823909	-0.000097
 609	6.0496e+01	15.7712	65.258281	0.000314	3.141048	1.064216	-0.000126
 610	6.0596e+01	15.7359	65.149278	0.000274	2.735752	0.926898	-0.000110
 611	6.0695e+01	15.6974	65.028164	0.000304	3.039724	1.029886	-0.000122
 612	6.0794e+01	15.6589	64.931273	0.000243	2.431779	0.823909	-0.000097
 613	6.0894e+01	15.6108	64.850530	0.000203	2.026483	0.686591	-0.000081
 614	6.0993e+01	15.5691	64.753639	0.000243	2.431779	0.823909	-0.000097
 615	6.1093e+01	15.5242	64.596190	0.000395	3.951641	1.338852	-0.000158
 616	6.1193e+01	15.4889	64.519485	0.000193	1.925158	0.652261	-0.000077
 617	6.1292e+01	15.4584	64.398371	0.000304	3.039724	1.029886	-0.000122
 618	6.1392e+01	15.4151	64.253034	0.000365	3.647669	1.235864	-0.000146
 619	6.1491e+01	15.3782	64.164217	0.000223	2.229131	0.755250	-0.000089
 620	6.1590e+01	15.3349	64.047140	0.000294	2.938400	0.995557	-0.000118
 621	6.1690e+01	15.2899	63.926026	0.000304	3.039724	1.029886	-0.000122
 622	6.1789e+01	15.2611	63.812986	0.000284	2.837076	0.961227	-0.000114
 623	6.1889e+01	15.2113	63.720132	0.000233	2.330455	0.789580	-0.000093
 624	6.1989e+01	15.1793	63.594981	0.000314	3.141048	1.064216	-0.000126
 625	6.2088e+01	15.1359	63.498089	0.000243	2.431779	0.823909	-0.000097
 626	6.2188e+01	15.0942	63.368901	0.000324	3.242372	1.098545	-0.000130
 627	6.2287e+01	15.0589	63.251824	0.000294	2.938400	0.995557	-0.000118
 628	6.2386e+01	15.0204	63.154933	0.000243	2.431779	0.823909	-0.000097
 629	6.2486e+01	14.9691	63.037856	0.000294	2.938400	0.995557	-0.000118
 630	6.2586e+01	14.9386	62.924816	0.000284	2.837076	0.961227	-0.000114
 631	6.2685e+01	14.8969	62.795628	0.000324	3.242372	1.098545	-0.000130
 632	6.2785e+01	14.8632	62.682588	0.000284	2.837076	0.961227	-0.000114
 633	6.2884e+01	14.8151	62.585697	0.000243	2.431779	0.823909	-0.000097
 634	6.2983e+01	14.7734	62.472657	0.000284	2.837076	0.961227	-0.000114
 635	6.3083e+01	14.7397	62.343469	0.000324	3.242372	1.098545	-0.000130
 636	6.3182e+01	14.6980	62.238503	0.000263	2.634427	0.892568	-0.000105
 637	6.3282e+01	14.6643	62.141612	0.000243	2.431779	0.823909	-0.000097
 638	6.3382e+01	14.6226	62.000312	0.000355	3.546345	1.201534	-0.000142
 639	6.3481e+01	14.5841	61.875161	0.000314	3.141048	1.064216	-0.000126
 640	6.3581e+01	14.5456	61.741935	0.000334	3.343696	1.132875	-0.000134
 641	6.3680e+01	14.5007	61.645044	0.000243	2.431779	0.823909	-0.000097
 642	6.3779e+01	14.4606	61.564301	0.000203	2.026483	0.686591	-0.000081
 643	6.3879e+01	14.4188	61.414927	0.000375	3.748993	1.270193	-0.000150
 644	6.3978e+01	14.3755	61.289776	0.000314	3.141048	1.064216	-0.000126
 645	6.4078e+01	14.3386	61.172699	0.000294	2.938400	0.995557	-0.000118
 646	6.4177e+01	14.2969	61.039474	0.000334	3.343696	1.132875	-0.000134
 647	6.4277e+01	14.2568	60.930471	0.000274	2.735752	0.926898	-0.000110
 648	6.4376e+01	14.2135	60.801283	0.000324	3.242372	1.098545	-0.000130
 649	6.4476e+01	14.1766	60.704392	0.000243	2.431779	0.823909	-0.000097
 650	6.4576e+01	14.1429	60.567129	0.000345	3.445020	1.167205	-0.000138
 651	6.4675e+01	14.0948	60.441978	0.000314	3.141048	1.064216	-0.000126
 652	6.4775e+01	14.0499	60.353161	0.000223	2.229131	0.755250	-0.000089
 653	6.4874e+01	14.0210	60.211861	0.000355	3.546345	1.201534	-0.000142
 654	6.4974e+01	13.9825	60.098821	0.000284	2.837076	0.961227	-0.000114
 655	6.5073e+01	13.9360	59.973670	0.000314	3.141048	1.064216	-0.000126
 656	6.5172e+01	13.8975	59.848519	0.000314	3.141048	1.064216	-0.000126
 657	6.5272e+01	13.8574	59.707219	0.000355	3.546345	1.201534	-0.000142
 658	6.5371e+01	13.8205	59.606291	0.000253	2.533103	0.858239	-0.000101
 659	6.5471e+01	13.7723	59.505362	0.000253	2.533103	0.858239	-0.000101
 660	6.5570e+01	13.7306	59.380211	0.000314	3.141048	1.064216	-0.000126
 661	6.5670e+01	13.7050	59.222763	0.000395	3.951641	1.338852	-0.000158
 662	6.5769e+01	13.6552	59.133946	0.000223	2.229131	0.755250	-0.000089
 663	6.5869e+01	13.6199	59.008795	0.000314	3.141048	1.064216	-0.000126
 664	6.5969e+01	13.5782	58.895755	0.000284	2.837076	0.961227	-0.000114
 665	6.6068e+01	13.5365	58.774641	0.000304	3.039724	1.029886	-0.000122
 666	6.6168e+01	13.4900	58.629304	0.000365	3.647669	1.235864	-0.000146
 667	6.6267e+01	13.4611	58.504153	0.000314	3.141048	1.064216	-0.000126
 668	6.6367e+01	13.4306	58.362853	0.000355	3.546345	1.201534	-0.000142
 669	6.6466e+01	13.3809	58.257887	0.000263	2.634427	0.892568	-0.000105
 670	6.6566e+01	13.3408	58.088328	0.000426	4.255613	1.441841	-0.000170
 671	6.6665e+01	13.2975	57.995473	0.000233	2.330455	0.789580	-0.000093
 672	6.6764e+01	13.2622	57.866285	0.000324	3.242372	1.098545	-0.000130
 673	6.6864e+01	13.2253	57.749208	0.000294	2.938400	0.995557	-0.000118
 674	6.6963e+01	13.1820	57.611946	0.000345	3.445020	1.167205	-0.000138
 675	6.7063e+01	13.1403	57.486794	0.000314	3.141048	1.064216	-0.000126
 676	6.7162e+01	13.1098	57.377792	0.000274	2.735752	0.926898	-0.000110
 677	6.7262e+01	13.0617	57.252640	0.000314	3.141048	1.064216	-0.000126
 678	6.7362e+01	13.0200	57.143638	0.000274	2.735752	0.926898	-0.000110
 679	6.7461e+01	12.9847	57.002338	0.000355	3.546345	1.201534	-0.000142
 680	6.7561e+01	12.9430	56.909484	0.000233	2.330455	0.789580	-0.000093
 681	6.7660e+01	12.9012	56.739924	0.000426	4.255613	1.441841	-0.000170
 682	6.7760e+01	12.8740	56.626884	0.000284	2.837076	0.961227	-0.000114
 683	6.7859e+01	12.8274	56.501733	0.000314	3.141048	1.064216	-0.000126
 684	6.7959e+01	12.7954	56.376582	0.000314	3.141048	1.064216	-0.000126
 685	6.8058e+01	12.7456	56.267579	0.000274	2.735752	0.926898	-0.000110
 686	6.8157e+01	12.7071	56.122242	0.000365	3.647669	1.235864	-0.000146
 687	6.8257e+01	12.6654	55.956720	0.000415	4.154289	1.407511	-0.000166
 688	6.8356e+01	12.6317	55.859829	0.000243	2.431779	0.823909	-0.000097
 689	6.8456e+01	12.5804	55.762937	0.000243	2.431779	0.823909	-0.000097
 690	6.8555e+01	12.5467	55.585303	0.000446	4.458262	1.510500	-0.000179
 691	6.8655e+01	12.5098	55.423818	0.000405	4.052965	1.373182	-0.000162
 692	6.8754e+01	12.4713	55.298667	0.000314	3.141048	1.064216	-0.000126
 693	6.8854e+01	12.4264	55.201776	0.000243	2.431779	0.823909	-0.000097
 694	6.8954e+01	12.3879	55.080661	0.000304	3.039724	1.029886	-0.000122
 695	6.9053e+01	12.3494	54.931287	0.000375	3.748993	1.270193	-0.000150
 696	6.9153e+01	12.3029	54.798062	0.000334	3.343696	1.132875	-0.000134
 697	6.9252e+01	12.2595	54.721356	0.000193	1.925158	0.652261	-0.000077
 698	6.9352e+01	12.2307	54.576019	0.000365	3.647669	1.235864	-0.000146
 699	6.9451e+01	12.1841	54.414534	0.000405	4.052965	1.373182	-0.000162
 700	6.9550e+01	12.1521	54.249011	0.000415	4.154289	1.407511	-0.000166
 701	6.9650e+01	12.1039	54.156157	0.000233	2.330455	0.789580	-0.000093
 702	6.9749e+01	12.0670	54.010820	0.000365	3.647669	1.235864	-0.000146
 703	6.9849e+01	12.0350	53.865484	0.000365	3.647669	1.235864	-0.000146
 704	6.9948e+01	11.9820	53.708035	0.000395	3.951641	1.338852	-0.000158
 705	7.0048e+01	11.9467	53.615181	0.000233	2.330455	0.789580	-0.000093
 706	7.0147e+01	11.9066	53.522327	0.000233	2.330455	0.789580	-0.000093
 707	7.0247e+01	11.8617	53.352767	0.000426	4.255613	1.441841	-0.000170
 708	7.0347e+01	11.8232	53.235690	0.000294	2.938400	0.995557	-0.000118
 709	7.0446e+01	11.7895	53.082279	0.000385	3.850317	1.304523	-0.000154
 710	7.0546e+01	11.7430	52.920794	0.000405	4.052965	1.373182	-0.000162
 711	7.0645e+01	11.7285	52.844088	0.000193	1.925158	0.652261	-0.000077
 712	7.0745e+01	11.6692	52.670491	0.000436	4.356938	1.476170	-0.000174
 713	7.0844e+01	11.6371	52.545340	0.000314	3.141048	1.064216	-0.000126
 714	7.0944e+01	11.5842	52.395966	0.000375	3.748993	1.270193	-0.000150
 715	7.1043e+01	11.5425	52.299075	0.000243	2.431779	0.823909	-0.000097
 716	7.1142e+01	11.5088	52.169887	0.000324	3.242372	1.098545	-0.000130
 717	7.1242e+01	11.4703	52.008401	0.000405	4.052965	1.373182	-0.000162
 718	7.1341e+01	11.4302	51.863064	0.000365	3.647669	1.235864	-0.000146
 719	7.1441e+01	11.3933	51.729839	0.000334	3.343696	1.132875	-0.000134
 720	7.1540e+01	11.3532	51.649096	0.000203	2.026483	0.686591	-0.000081
 721	7.1640e+01	11.3130	51.487611	0.000405	4.052965	1.373182	-0.000162
 722	7.1740e+01	11.2681	51.394757	0.000233	2.330455	0.789580	-0.000093
 723	7.1839e+01	11.2296	51.192900	0.000507	5.066207	1.716477	-0.000203
 724	7.1939e+01	11.1927	51.083897	0.000274	2.735752	0.926898	-0.000110
 725	7.2038e+01	11.1462	50.946634	0.000345	3.445020	1.167205	-0.000138
 726	7.2138e+01	11.1173	50.797260	0.000375	3.748993	1.270193	-0.000150
 727	7.2237e+01	11.0676	50.740741	0.000142	1.418538	0.480614	-0.000057
 728	7.2337e+01	11.0259	50.591367	0.000375	3.748993	1.270193	-0.000150
 729	7.2436e+01	10.9906	50.413733	0.000446	4.458262	1.510500	-0.000179
 730	7.2535e+01	10.9425	50.268396	0.000365	3.647669	1.235864	-0.000146
 731	7.2635e+01	10.9168	50.147282	0.000304	3.039724	1.029886	-0.000122
 732	7.2734e+01	10.8767	50.001945	0.000365	3.647669	1.235864	-0.000146
 733	7.2834e+01	10.8302	49.844496	0.000395	3.951641	1.338852	-0.000158
 734	7.2933e+01	10.7901	49.723382	0.000304	3.039724	1.029886	-0.000122
 735	7.3033e+01	10.7500	49.598231	0.000314	3.141048	1.064216	-0.000126
 736	7.3132e+01	10.7099	49.436746	0.000405	4.052965	1.373182	-0.000162
 737	7.3232e+01	10.6778	49.339854	0.000243	2.431779	0.823909	-0.000097
 738	7.3332e+01	10.6409	49.230852	0.000274	2.735752	0.926898	-0.000110
 739	7.3431e+01	10.6072	49.049181	0.000456	4.559586	1.544830	-0.000183
 740	7.3531e+01	10.5510	48.911918	0.000345	3.445020	1.167205	-0.000138
 741	7.3630e+01	10.5045	48.794841	0.000294	2.938400	0.995557	-0.000118
 742	7.3730e+01	10.4676	48.657578	0.000345	3.445020	1.167205	-0.000138
 743	7.3829e+01	10.4371	48.520316	0.000345	3.445020	1.167205	-0.000138
 744	7.3928e+01	10.3954	48.395165	0.000314	3.141048	1.064216	-0.000126
 745	7.4028e+01	10.3537	48.237716	0.000395	3.951641	1.338852	-0.000158
 746	7.4127e+01	10.3216	48.088342	0.000375	3.748993	1.270193	-0.000150
 747	7.4227e+01	10.2687	47.959154	0.000324	3.242372	1.098545	-0.000130
 748	7.4326e+01	10.2382	47.821891	0.000345	3.445020	1.167205	-0.000138
 749	7.4426e+01	10.1965	47.672517	0.000375	3.748993	1.270193	-0.000150
 750	7.4525e+01	10.1580	47.571589	0.000253	2.533103	0.858239	-0.000101
 751	7.4625e+01	10.1163	47.414141	0.000395	3.951641	1.338852	-0.000158
 752	7.4725e+01	10.0682	47.264767	0.000375	3.748993	1.270193	-0.000150
 753	7.4824e+01	10.0393	47.155764	0.000274	2.735752	0.926898	-0.000110
 754	7.4924e+01	9.9976	46.998316	0.000395	3.951641	1.338852	-0.000158
 755	7.5023e+01	9.9527	46.857016	0.000355	3.546345	1.201534	-0.000142
 756	7.5123e+01	9.9142	46.748013	0.000274	2.735752	0.926898	-0.000110
 757	7.5222e+01	9.8724	46.570379	0.000446	4.458262	1.510500	-0.000179
 758	7.5322e+01	9.8307	46.425042	0.000365	3.647669	1.235864	-0.000146
 759	7.5421e+01	9.8019	46.320077	0.000263	2.634427	0.892568	-0.000105
 760	7.5520e+01	9.7585	46.170703	0.000375	3.748993	1.270193	-0.000150
 761	7.5620e+01	9.7184	46.045552	0.000314	3.141048	1.064216	-0.000126
 762	7.5719e+01	9.6783	45.900215	0.000365	3.647669	1.235864	-0.000146
 763	7.5819e+01	9.6382	45.783138	0.000294	2.938400	0.995557	-0.000118
 764	7.5918e+01	9.5965	45.605504	0.000446	4.458262	1.510500	-0.000179
 765	7.6018e+01	9.5548	45.460167	0.000365	3.647669	1.235864	-0.000146
 766	7.6118e+01	9.5307	45.322904	0.000345	3.445020	1.167205	-0.000138
 767	7.6217e+01	9.4874	45.173530	0.000375	3.748993	1.270193	-0.000150
 768	7.6317e+01	9.4409	45.028193	0.000365	3.647669	1.235864	-0.000146
 769	7.6416e+01	9.4024	44.899005	0.000324	3.242372	1.098545	-0.000130
 770	7.6516e+01	9.3591	44.769817	0.000324	3.242372	1.098545	-0.000130
 771	7.6615e+01	9.3254	44.612368	0.000395	3.951641	1.338852	-0.000158
 772	7.6715e+01	9.2853	44.487217	0.000314	3.141048	1.064216	-0.000126
 773	7.6814e+01	9.2324	44.358029	0.000324	3.242372	1.098545	-0.000130
 774	7.6913e+01	9.1987	44.265175	0.000233	2.330455	0.789580	-0.000093
 775	7.7013e+01	9.1521	44.043132	0.000557	5.572827	1.888125	-0.000223
 776	7.7112e+01	9.1185	43.893758	0.000375	3.748993	1.270193	-0.000150
 777	7.7212e+01	9.0816	43.756496	0.000345	3.445020	1.167205	-0.000138
 778	7.7311e+01	9.0431	43.619233	0.000345	3.445020	1.167205	-0.000138
 779	7.7411e+01	8.9997	43.481970	0.000345	3.445020	1.167205	-0.000138
 780	7.7510e+01	8.9596	43.340671	0.000355	3.546345	1.201534	-0.000142
 781	7.7610e+01	8.9276	43.199371	0.000355	3.546345	1.201534	-0.000142
 782	7.7710e+01	8.8842	43.021737	0.000446	4.458262	1.510500	-0.000179
 783	7.7809e+01	8.8425	42.908697	0.000284	2.837076	0.961227	-0.000114
 784	7.7909e+01	8.8040	42.751249	0.000395	3.951641	1.338852	-0.000158
 785	7.8008e+01	8.7655	42.650321	0.000253	2.533103	0.858239	-0.000101
 786	7.8108e+01	8.7222	42.529206	0.000304	3.039724	1.029886	-0.000122
 787	7.8207e+01	8.6821	42.359647	0.000426	4.255613	1.441841	-0.000170
 788	7.8306e+01	8.6468	42.222384	0.000345	3.445020	1.167205	-0.000138
 789	7.8406e+01	8.6083	42.081084	0.000355	3.546345	1.201534	-0.000142
 790	7.8505e+01	8.5650	41.903450	0.000446	4.458262	1.510500	-0.000179
 791	7.8605e+01	8.5265	41.778299	0.000314	3.141048	1.064216	-0.000126
 792	7.8704e+01	8.4800	41.632962	0.000365	3.647669	1.235864	-0.000146
 793	7.8804e+01	8.4495	41.463403	0.000426	4.255613	1.441841	-0.000170
 794	7.8903e+01	8.4014	41.330177	0.000334	3.343696	1.132875	-0.000134
 795	7.9003e+01	8.3725	41.176766	0.000385	3.850317	1.304523	-0.000154
 796	7.9103e+01	8.3276	41.035466	0.000355	3.546345	1.201534	-0.000142
 797	7.9202e+01	8.2810	40.902241	0.000334	3.343696	1.132875	-0.000134
 798	7.9302e+01	8.2490	40.736718	0.000415	4.154289	1.407511	-0.000166
 799	7.9401e+01	8.2137	40.587344	0.000375	3.748993	1.270193	-0.000150
 800	7.9501e+01	8.1607	40.450082	0.000345	3.445020	1.167205	-0.000138
 801	7.9600e+01	8.1351	40.304745	0.000365	3.647669	1.235864	-0.000146
 802	7.9700e+01	8.0837	40.151333	0.000385	3.850317	1.304523	-0.000154
 803	7.9799e+01	8.0484	40.018108	0.000334	3.343696	1.132875	-0.000134
 804	7.9898e+01	8.0035	39.824325	0.000486	4.863558	1.647818	-0.000195
 805	7.9998e+01	7.9650	39.687063	0.000345	3.445020	1.167205	-0.000138
 806	8.0097e+01	7.9345	39.565949	0.000304	3.039724	1.029886	-0.000122
 807	8.0197e+01	7.8848	39.424649	0.000355	3.546345	1.201534	-0.000142
 808	8.0296e+01	7.8367	39.287386	0.000345	3.445020	1.167205	-0.000138
 809	8.0396e+01	7.8030	39.117827	0.000426	4.255613	1.441841	-0.000170
 810	8.0496e+01	7.7500	38.915970	0.000507	5.066207	1.716477	-0.000203
 811	8.0595e+01	7.7228	38.762559	0.000385	3.850317	1.304523	-0.000154
 812	8.0695e+01	7.6811	38.625296	0.000345	3.445020	1.167205	-0.000138
 813	8.0794e+01	7.6426	38.508219	0.000294	2.938400	0.995557	-0.000118
 814	8.0894e+01	7.6009	38.322511	0.000466	4.660910	1.579159	-0.000187
 815	8.0993e+01	7.5752	38.152951	0.000426	4.255613	1.441841	-0.000170
 816	8.1093e+01	7.5222	37.967243	0.000466	4.660910	1.579159	-0.000187
 817	8.1192e+01	7.4886	37.886500	0.000203	2.026483	0.686591	-0.000081
 818	8.1291e+01	7.4452	37.725015	0.000405	4.052965	1.373182	-0.000162
 819	8.1391e+01	7.4035	37.567567	0.000395	3.951641	1.338852	-0.000158
 820	8.1490e+01	7.3731	37.373784	0.000486	4.863558	1.647818	-0.000195
 821	8.1590e+01	7.3217	37.244596	0.000324	3.242372	1.098545	-0.000130
 822	8.1689e+01	7.2848	37.095222	0.000375	3.748993	1.270193	-0.000150
 823	8.1789e+01	7.2431	36.909513	0.000466	4.660910	1.579159	-0.000187
 824	8.1888e+01	7.1998	36.780325	0.000324	3.242372	1.098545	-0.000130
 825	8.1988e+01	7.1565	36.590580	0.000476	4.762234	1.613489	-0.000191
 826	8.2088e+01	7.1228	36.449280	0.000355	3.546345	1.201534	-0.000142
 827	8.2187e+01	7.0827	36.283757	0.000415	4.154289	1.407511	-0.000166
 828	8.2287e+01	7.0442	36.134383	0.000375	3.748993	1.270193	-0.000150
 829	8.2386e+01	6.9993	35.968861	0.000415	4.154289	1.407511	-0.000166
 830	8.2486e+01	6.9720	35.815450	0.000385	3.850317	1.304523	-0.000154
 831	8.2585e+01	6.9335	35.670113	0.000365	3.647669	1.235864	-0.000146
 832	8.2684e+01	6.8838	35.476330	0.000486	4.863558	1.647818	-0.000195
 833	8.2784e+01	6.8340	35.322919	0.000385	3.850317	1.304523	-0.000154
 834	8.2883e+01	6.8019	35.209879	0.000284	2.837076	0.961227	-0.000114
 835	8.2983e+01	6.7618	35.016097	0.000486	4.863558	1.647818	-0.000195
 836	8.3082e+01	6.7330	34.874797	0.000355	3.546345	1.201534	-0.000142
 837	8.3182e+01	6.6897	34.685052	0.000476	4.762234	1.613489	-0.000191
 838	8.3281e+01	6.6447	34.555863	0.000324	3.242372	1.098545	-0.000130
 839	8.3381e+01	6.6175	34.386304	0.000426	4.255613	1.441841	-0.000170
 840	8.3481e+01	6.5758	34.196558	0.000476	4.762234	1.613489	-0.000191
 841	8.3580e+01	6.5244	34.083518	0.000284	2.837076	0.961227	-0.000114
 842	8.3680e+01	6.4827	33.897810	0.000466	4.660910	1.579159	-0.000187
 843	8.3779e+01	6.4506	33.768622	0.000324	3.242372	1.098545	-0.000130
 844	8.3879e+01	6.4169	33.611174	0.000395	3.951641	1.338852	-0.000158
 845	8.3978e+01	6.3704	33.417391	0.000486	4.863558	1.647818	-0.000195
 846	8.4078e+01	6.3271	33.255906	0.000405	4.052965	1.373182	-0.000162
 847	8.4177e+01	6.2918	33.098457	0.000395	3.951641	1.338852	-0.000158
 848	8.4276e+01	6.2549	32.977343	0.000304	3.039724	1.029886	-0.000122
 849	8.4376e+01	6.2228	32.791635	0.000466	4.660910	1.579159	-0.000187
 850	8.4475e+01	6.1779	32.593815	0.000496	4.964882	1.682148	-0.000199
 851	8.4575e+01	6.1330	32.452516	0.000355	3.546345	1.201534	-0.000142
 852	8.4674e+01	6.0913	32.278919	0.000436	4.356938	1.476170	-0.000174
 853	8.4774e+01	6.0576	32.125508	0.000385	3.850317	1.304523	-0.000154
 854	8.4874e+01	6.0159	31.935762	0.000476	4.762234	1.613489	-0.000191
 855	8.4973e+01	5.9822	31.782351	0.000385	3.850317	1.304523	-0.000154
 856	8.5073e+01	5.9453	31.600680	0.000456	4.559586	1.544830	-0.000183
 857	8.5172e+01	5.8940	31.447269	0.000385	3.850317	1.304523	-0.000154
 858	8.5272e+01	5.8554	31.265598	0.000456	4.559586	1.544830	-0.000183
 859	8.5371e+01	5.8121	31.096038	0.000426	4.255613	1.441841	-0.000170
 860	8.5471e+01	5.7881	30.934553	0.000405	4.052965	1.373182	-0.000162
 861	8.5570e+01	5.7351	30.744807	0.000476	4.762234	1.613489	-0.000191
 862	8.5669e+01	5.6902	30.579285	0.000415	4.154289	1.407511	-0.000166
 863	8.5769e+01	5.6517	30.446059	0.000334	3.343696	1.132875	-0.000134
 864	8.5868e+01	5.6164	30.272462	0.000436	4.356938	1.476170	-0.000174
 865	8.5968e+01	5.5924	30.115014	0.000395	3.951641	1.338852	-0.000158
 866	8.6067e+01	5.5330	29.933343	0.000456	4.559586	1.544830	-0.000183
 867	8.6167e+01	5.4945	29.767820	0.000415	4.154289	1.407511	-0.000166
 868	8.6266e+01	5.4528	29.582112	0.000466	4.660910	1.579159	-0.000187
 869	8.6366e+01	5.4143	29.392367	0.000476	4.762234	1.613489	-0.000191
 870	8.6466e+01	5.3758	29.194547	0.000496	4.964882	1.682148	-0.000199
 871	8.6565e+01	5.3373	29.077470	0.000294	2.938400	0.995557	-0.000118
 872	8.6665e+01	5.2924	28.871576	0.000517	5.167531	1.750807	-0.000207
 873	8.6764e+01	5.2555	28.730276	0.000355	3.546345	1.201534	-0.000142
 874	8.6864e+01	5.2154	28.552643	0.000446	4.458262	1.510500	-0.000179
 875	8.6963e+01	5.1769	28.342711	0.000527	5.268855	1.785136	-0.000211
 876	8.7063e+01	5.1400	28.173152	0.000426	4.255613	1.441841	-0.000170
 877	8.7162e+01	5.0934	28.015703	0.000395	3.951641	1.338852	-0.000158
 878	8.7261e+01	5.0614	27.854218	0.000405	4.052965	1.373182	-0.000162
 879	8.7361e+01	5.0116	27.692733	0.000405	4.052965	1.373182	-0.000162
 880	8.7460e+01	4.9715	27.527210	0.000415	4.154289	1.407511	-0.000166
 881	8.7560e+01	4.9378	27.345539	0.000456	4.559586	1.544830	-0.000183
 882	8.7659e+01	4.8977	27.196165	0.000375	3.748993	1.270193	-0.000150
 883	8.7759e+01	4.8512	27.018531	0.000446	4.458262	1.510500	-0.000179
 884	8.7859e+01	4.8223	26.824748	0.000486	4.863558	1.647818	-0.000195
 885	8.7958e+01	4.7790	26.667300	0.000395	3.951641	1.338852	-0.000158
 886	8.8058e+01	4.7453	26.501778	0.000415	4.154289	1.407511	-0.000166
 887	8.8157e+01	4.6844	26.312032	0.000476	4.762234	1.613489	-0.000191
 888	8.8257e+01	4.6491	26.166695	0.000365	3.647669	1.235864	-0.000146
 889	8.8356e+01	4.6170	25.964838	0.000507	5.066207	1.716477	-0.000203
 890	8.8456e+01	4.5769	25.799316	0.000415	4.154289	1.407511	-0.000166
 891	8.8555e+01	4.5432	25.637831	0.000405	4.052965	1.373182	-0.000162
 892	8.8654e+01	4.4951	25.460197	0.000446	4.458262	1.510500	-0.000179
 893	8.8754e+01	4.4646	25.250265	0.000527	5.268855	1.785136	-0.000211
 894	8.8853e+01	4.4277	25.076669	0.000436	4.356938	1.476170	-0.000174
 895	8.8953e+01	4.3796	24.931332	0.000365	3.647669	1.235864	-0.000146
 896	8.9052e+01	4.3330	24.761772	0.000426	4.255613	1.441841	-0.000170
 897	8.9152e+01	4.2977	24.576064	0.000466	4.660910	1.579159	-0.000187
 898	8.9251e+01	4.2592	24.410541	0.000415	4.154289	1.407511	-0.000166
 899	8.9351e+01	4.2223	24.240982	0.000426	4.255613	1.441841	-0.000170
 900	8.9451e+01	4.1758	24.047199	0.000486	4.863558	1.647818	-0.000195
 901	8.9550e+01	4.1341	23.889751	0.000395	3.951641	1.338852	-0.000158
 902	8.9650e+01	4.1036	23.695968	0.000486	4.863558	1.647818	-0.000195
 903	8.9749e+01	4.0507	23.546594	0.000375	3.748993	1.270193	-0.000150
 904	8.9849e+01	4.0218	23.381072	0.000415	4.154289	1.407511	-0.000166
 905	8.9948e+01	3.9817	23.183252	0.000496	4.964882	1.682148	-0.000199
 906	9.0047e+01	3.9384	23.001581	0.000456	4.559586	1.544830	-0.000183
 907	9.0147e+01	3.8999	22.852207	0.000375	3.748993	1.270193	-0.000150
 908	9.0246e+01	3.8534	22.642276	0.000527	5.268855	1.785136	-0.000211
 909	9.0346e+01	3.8277	22.496939	0.000365	3.647669	1.235864	-0.000146
 910	9.0445e+01	3.7828	22.307194	0.000476	4.762234	1.613489	-0.000191
 911	9.0545e+01	3.7379	22.145708	0.000405	4.052965	1.373182	-0.000162
 912	9.0644e+01	3.6978	21.972111	0.000436	4.356938	1.476170	-0.000174
 913	9.0744e+01	3.6657	21.762180	0.000527	5.268855	1.785136	-0.000211
 914	9.0844e+01	3.6208	21.604732	0.000395	3.951641	1.338852	-0.000158
 915	9.0943e+01	3.5806	21.414987	0.000476	4.762234	1.613489	-0.000191
 916	9.1043e+01	3.5421	21.213130	0.000507	5.066207	1.716477	-0.000203
 917	9.1142e+01	3.5004	21.067793	0.000365	3.647669	1.235864	-0.000146
 918	9.1242e+01	3.4684	20.882085	0.000466	4.660910	1.579159	-0.000187
 919	9.1341e+01	3.4315	20.708488	0.000436	4.356938	1.476170	-0.000174
 920	9.1441e+01	3.3753	20.530854	0.000446	4.458262	1.510500	-0.000179
 921	9.1540e+01	3.3561	20.365331	0.000415	4.154289	1.407511	-0.000166
 922	9.1639e+01	3.3047	20.191734	0.000436	4.356938	1.476170	-0.000174
 923	9.1739e+01	3.2582	20.006026	0.000466	4.660910	1.579159	-0.000187
 924	9.1838e+01	3.2149	19.812244	0.000486	4.863558	1.647818	-0.000195
 925	9.1938e+01	3.1748	19.626535	0.000466	4.660910	1.579159	-0.000187
 926	9.2037e+01	3.1427	19.477161	0.000375	3.748993	1.270193	-0.000150
 927	9.2137e+01	3.1058	19.299527	0.000446	4.458262	1.510500	-0.000179
 928	9.2237e+01	3.0625	19.093633	0.000517	5.167531	1.750807	-0.000207
 929	9.2336e+01	3.0224	18.920037	0.000436	4.356938	1.476170	-0.000174
 930	9.2436e+01	2.9887	18.750477	0.000426	4.255613	1.441841	-0.000170
 931	9.2535e+01	2.9438	18.588992	0.000405	4.052965	1.373182	-0.000162
 932	9.2635e+01	2.9085	18.395209	0.000486	4.863558	1.647818	-0.000195
 933	9.2734e+01	2.8748	18.213538	0.000456	4.559586	1.544830	-0.000183
 934	9.2834e+01	2.8315	18.035904	0.000446	4.458262	1.510500	-0.000179
 935	9.2933e+01	2.7866	17.854233	0.000456	4.559586	1.544830	-0.000183
 936	9.3032e+01	2.7448	17.656413	0.000496	4.964882	1.682148	-0.000199
 937	9.3132e+01	2.7031	17.494928	0.000405	4.052965	1.373182	-0.000162
 938	9.3231e+01	2.6630	17.293071	0.000507	5.066207	1.716477	-0.000203
 939	9.3331e+01	2.6277	17.147734	0.000365	3.647669	1.235864	-0.000146
 940	9.3430e+01	2.5812	16.941840	0.000517	5.167531	1.750807	-0.000207
 941	9.3530e+01	2.5443	16.804578	0.000345	3.445020	1.167205	-0.000138
 942	9.3629e+01	2.5042	16.562349	0.000608	6.079448	2.059773	-0.000243
 943	9.3729e+01	2.4609	16.392790	0.000426	4.255613	1.441841	-0.000170
 944	9.3829e+01	2.4320	16.215156	0.000446	4.458262	1.510500	-0.000179
 945	9.3928e+01	2.3823	16.041559	0.000436	4.356938	1.476170	-0.000174
 946	9.4028e+01	2.3502	15.876036	0.000415	4.154289	1.407511	-0.000166
 947	9.4127e+01	2.2973	15.658031	0.000547	5.471503	1.853795	-0.000219
 948	9.4227e+01	2.2668	15.508657	0.000375	3.748993	1.270193	-0.000150
 949	9.4326e+01	2.2235	15.314874	0.000486	4.863558	1.647818	-0.000195
 950	9.4425e+01	2.1818	15.104943	0.000527	5.268855	1.785136	-0.000211
 951	9.4525e+01	2.1529	14.919235	0.000466	4.660910	1.579159	-0.000187
 952	9.4624e+01	2.1031	14.769861	0.000375	3.748993	1.270193	-0.000150
 953	9.4724e+01	2.0679	14.600301	0.000426	4.255613	1.441841	-0.000170
 954	9.4823e+01	2.0229	14.418630	0.000456	4.559586	1.544830	-0.000183
 955	9.4923e+01	1.9892	14.208699	0.000527	5.268855	1.785136	-0.000211
 956	9.5022e+01	1.9379	14.043177	0.000415	4.154289	1.407511	-0.000166
 957	9.5122e+01	1.9042	13.857468	0.000466	4.660910	1.579159	-0.000187
 958	9.5222e+01	1.8786	13.611203	0.000618	6.180772	2.094102	-0.000248
 959	9.5321e+01	1.8288	13.469903	0.000355	3.546345	1.201534	-0.000142
 960	9.5421e+01	1.7935	13.276121	0.000486	4.863558	1.647818	-0.000195
 961	9.5520e+01	1.7518	13.102524	0.000436	4.356938	1.476170	-0.000174
 962	9.5620e+01	1.7069	12.945076	0.000395	3.951641	1.338852	-0.000158
 963	9.5719e+01	1.6636	12.735145	0.000527	5.268855	1.785136	-0.000211
 964	9.5819e+01	1.6283	12.597882	0.000345	3.445020	1.167205	-0.000138
 965	9.5918e+01	1.5930	12.351617	0.000618	6.180772	2.094102	-0.000248
 966	9.6017e+01	1.5433	12.186094	0.000415	4.154289	1.407511	-0.000166
 967	9.6117e+01	1.5112	11.996349	0.000476	4.762234	1.613489	-0.000191
 968	9.6216e+01	1.4615	11.806603	0.000476	4.762234	1.613489	-0.000191
 969	9.6316e+01	1.4342	11.596672	0.000527	5.268855	1.785136	-0.000211
 970	9.6415e+01	1.3845	11.435187	0.000405	4.052965	1.373182	-0.000162
 971	9.6515e+01	1.3476	11.221219	0.000537	5.370179	1.819466	-0.000215
 972	9.6615e+01	1.3091	11.035511	0.000466	4.660910	1.579159	-0.000187
 973	9.6714e+01	1.2834	10.861914	0.000436	4.356938	1.476170	-0.000174
 974	9.6814e+01	1.2256	10.692354	0.000426	4.255613	1.441841	-0.000170
 975	9.6913e+01	1.2000	10.474349	0.000547	5.471503	1.853795	-0.000219
 976	9.7013e+01	1.1567	10.288640	0.000466	4.660910	1.579159	-0.000187
 977	9.7112e+01	1.1085	10.034301	0.000638	6.383420	2.162761	-0.000256
 978	9.7212e+01	1.0748	9.925298	0.000274	2.735752	0.926898	-0.000110
 979	9.7311e+01	1.0283	9.687107	0.000598	5.978124	2.025443	-0.000239
 980	9.7410e+01	0.9866	9.533696	0.000385	3.850317	1.304523	-0.000154
 981	9.7510e+01	0.9449	9.303579	0.000578	5.775475	1.956784	-0.000231
 982	9.7609e+01	0.9176	9.154205	0.000375	3.748993	1.270193	-0.000150
 983	9.7709e+01	0.8727	8.956386	0.000496	4.964882	1.682148	-0.000199
 984	9.7808e+01	0.8470	8.750492	0.000517	5.167531	1.750807	-0.000207
 985	9.7908e+01	0.7813	8.552672	0.000496	4.964882	1.682148	-0.000199
 986	9.8007e+01	0.7540	8.391187	0.000405	4.052965	1.373182	-0.000162
 987	9.8107e+01	0.7075	8.209516	0.000456	4.559586	1.544830	-0.000183
 988	9.8207e+01	0.6754	8.003622	0.000517	5.167531	1.750807	-0.000207
 989	9.8306e+01	0.6273	7.785616	0.000547	5.471503	1.853795	-0.000219
 990	9.8406e+01	0.5855	7.567611	0.000547	5.471503	1.853795	-0.000219
 991	9.8505e+01	0.5551	7.381903	0.000466	4.660910	1.579159	-0.000187
 992	9.8605e+01	0.5182	7.228492	0.000385	3.850317	1.304523	-0.000154
 993	9.8704e+01	0.4652	7.022598	0.000517	5.167531	1.750807	-0.000207
 994	9.8803e+01	0.4315	6.792481	0.000578	5.775475	1.956784	-0.000231
 995	9.8903e+01	0.3914	6.663293	0.000324	3.242372	1.098545	-0.000130
 996	9.9002e+01	0.3481	6.425102	0.000598	5.978124	2.025443	-0.000239
 997	9.9102e+01	0.3112	6.255542	0.000426	4.255613	1.441841	-0.000170
 998	9.9201e+01	0.2807	6.041574	0.000537	5.370179	1.819466	-0.000215
 999	9.9301e+01	0.2406	5.835680	0.000517	5.167531	1.750807	-0.000207
1000	9.9400e+01	0.1957	5.649971	0.000466	4.660910	1.579159	-0.000187
1001	9.9500e+01	0.1556	5.456189	0.000486	4.863558	1.647818	-0.000195
1002	9.9600e+01	0.1091	5.266444	0.000476	4.762234	1.613489	-0.000191
1003	9.9699e+01	0.0770	5.060550	0.000517	5.167531	1.750807	-0.000207
1004	9.9799e+01	0.0401	4.866767	0.000486	4.863558	1.647818	-0.000195
1005	9.9898e+01	-0.0080	4.733542	0.000334	3.343696	1.132875	-0.000134
1006	9.9998e+01	-0.0401	4.563982	0.000426	4.255613	1.441841	-0.000170
1007	1.0010e+02	-0.0802	4.325791	0.000598	5.978124	2.025443	-0.000239
1008	1.0020e+02	-0.1219	4.188528	0.000345	3.445020	1.167205	-0.000138
1009	1.0030e+02	-0.1572	3.962449	0.000567	5.674151	1.922455	-0.000227
1010	1.0040e+02	-0.2005	3.724258	0.000598	5.978124	2.025443	-0.000239
1011	1.0050e+02	-0.2294	3.550661	0.000436	4.356938	1.476170	-0.000174
1012	1.0059e+02	-0.2727	3.352841	0.000496	4.964882	1.682148	-0.000199
1013	1.0069e+02	-0.3160	3.130799	0.000557	5.572827	1.888125	-0.000223
1014	1.0079e+02	-0.3497	2.953165	0.000446	4.458262	1.510500	-0.000179
1015	1.0089e+02	-0.3962	2.771494	0.000456	4.559586	1.544830	-0.000183
1016	1.0099e+02	-0.4364	2.601934	0.000426	4.255613	1.441841	-0.000170
1017	1.0109e+02	-0.4797	2.367780	0.000588	5.876800	1.991114	-0.000235
1018	1.0119e+02	-0.5214	2.153812	0.000537	5.370179	1.819466	-0.000215
1019	1.0129e+02	-0.5503	2.000401	0.000385	3.850317	1.304523	-0.000154
1020	1.0139e+02	-0.5920	1.790470	0.000527	5.268855	1.785136	-0.000211
1021	1.0149e+02	-0.6321	1.580539	0.000527	5.268855	1.785136	-0.000211
1022	1.0159e+02	-0.6738	1.394830	0.000466	4.660910	1.579159	-0.000187
1023	1.0169e+02	-0.7155	1.197011	0.000496	4.964882	1.682148	-0.000199
1024	1.0179e+02	-0.7524	1.007265	0.000476	4.762234	1.613489	-0.000191
1025	1.0189e+02	-0.7909	0.781186	0.000567	5.674151	1.922455	-0.000227
1026	1.0199e+02	-0.8374	0.559143	0.000557	5.572827	1.888125	-0.000223
1027	1.0209e+02	-0.8679	0.409769	0.000375	3.748993	1.270193	-0.000150
1028	1.0219e+02	-0.9080	0.207912	0.000507	5.066207	1.716477	-0.000203
1029	1.0229e+02	-0.9545	-0.022204	0.000578	5.775475	1.956784	-0.000231
1030	1.0239e+02	-0.9946	-0.220024	0.000496	4.964882	1.682148	-0.000199
1031	1.0248e+02	-1.0363	-0.417844	0.000496	4.964882	1.682148	-0.000199
1032	1.0258e+02	-1.0748	-0.615663	0.000496	4.964882	1.682148	-0.000199
1033	1.0268e+02	-1.1069	-0.785223	0.000426	4.255613	1.441841	-0.000170
1034	1.0278e+02	-1.1567	-1.023414	0.000598	5.978124	2.025443	-0.000239
1035	1.0288e+02	-1.1935	-1.213159	0.000476	4.762234	1.613489	-0.000191
1036	1.0298e+02	-1.2304	-1.427127	0.000537	5.370179	1.819466	-0.000215
1037	1.0308e+02	-1.2689	-1.620910	0.000486	4.863558	1.647818	-0.000195
1038	1.0318e+02	-1.3155	-1.782395	0.000405	4.052965	1.373182	-0.000162
1039	1.0328e+02	-1.3604	-1.964067	0.000456	4.559586	1.544830	-0.000183
1040	1.0338e+02	-1.3845	-2.157849	0.000486	4.863558	1.647818	-0.000195
1041	1.0348e+02	-1.4278	-2.416226	0.000648	6.484744	2.197091	-0.000260
1042	1.0358e+02	-1.4695	-2.593860	0.000446	4.458262	1.510500	-0.000179
1043	1.0368e+02	-1.5160	-2.803791	0.000527	5.268855	1.785136	-0.000211
1044	1.0378e+02	-1.5417	-2.945091	0.000355	3.546345	1.201534	-0.000142
1045	1.0388e+02	-1.5914	-3.211541	0.000669	6.687393	2.265750	-0.000268
1046	1.0398e+02	-1.6331	-3.377064	0.000415	4.154289	1.407511	-0.000166
1047	1.0408e+02	-1.6748	-3.586995	0.000527	5.268855	1.785136	-0.000211
1048	1.0418e+02	-1.7101	-3.772703	0.000466	4.660910	1.579159	-0.000187
1049	1.0428e+02	-1.7598	-3.998783	0.000567	5.674151	1.922455	-0.000227
1050	1.0438e+02	-1.7871	-4.156231	0.000395	3.951641	1.338852	-0.000158
1051	1.0447e+02	-1.8336	-4.341939	0.000466	4.660910	1.579159	-0.000187
1052	1.0457e+02	-1.8641	-4.572056	0.000578	5.775475	1.956784	-0.000231
1053	1.0467e+02	-1.9106	-4.790062	0.000547	5.471503	1.853795	-0.000219
1054	1.0477e+02	-1.9588	-4.967696	0.000446	4.458262	1.510500	-0.000179
1055	1.0487e+02	-1.9973	-5.129181	0.000405	4.052965	1.373182	-0.000162
1056	1.0497e+02	-2.0278	-5.331038	0.000507	5.066207	1.716477	-0.000203
1057	1.0507e+02	-2.0646	-5.545006	0.000537	5.370179	1.819466	-0.000215
1058	1.0517e+02	-2.1031	-5.730714	0.000466	4.660910	1.579159	-0.000187
1059	1.0527e+02	-2.1545	-5.944682	0.000537	5.370179	1.819466	-0.000215
1060	1.0537e+02	-2.1978	-6.114242	0.000426	4.255613	1.441841	-0.000170
1061	1.0547e+02	-2.2251	-6.303987	0.000476	4.762234	1.613489	-0.000191
1062	1.0557e+02	-2.2684	-6.485659	0.000456	4.559586	1.544830	-0.000183
1063	1.0567e+02	-2.3037	-6.679441	0.000486	4.863558	1.647818	-0.000195
1064	1.0577e+02	-2.3470	-6.889372	0.000527	5.268855	1.785136	-0.000211
1065	1.0587e+02	-2.3871	-7.087192	0.000496	4.964882	1.682148	-0.000199
1066	1.0597e+02	-2.4368	-7.301160	0.000537	5.370179	1.819466	-0.000215
1067	1.0607e+02	-2.4753	-7.462645	0.000405	4.052965	1.373182	-0.000162
1068	1.0617e+02	-2.5122	-7.648354	0.000466	4.660910	1.579159	-0.000187
1069	1.0627e+02	-2.5411	-7.898656	0.000628	6.282096	2.128432	-0.000252
1070	1.0637e+02	-2.5828	-8.076290	0.000446	4.458262	1.510500	-0.000179
1071	1.0647e+02	-2.6261	-8.237775	0.000405	4.052965	1.373182	-0.000162
1072	1.0656e+02	-2.6614	-8.435595	0.000496	4.964882	1.682148	-0.000199
1073	1.0666e+02	-2.7112	-8.633415	0.000496	4.964882	1.682148	-0.000199
1074	1.0676e+02	-2.7545	-8.802974	0.000426	4.255613	1.441841	-0.000170
1075	1.0686e+02	-2.7898	-8.984646	0.000456	4.559586	1.544830	-0.000183
1076	1.0696e+02	-2.8299	-9.206688	0.000557	5.572827	1.888125	-0.000223
1077	1.0706e+02	-2.8603	-9.404508	0.000496	4.964882	1.682148	-0.000199
1078	1.0716e+02	-2.9021	-9.570030	0.000415	4.154289	1.407511	-0.000166
1079	1.0726e+02	-2.9390	-9.788036	0.000547	5.471503	1.853795	-0.000219
1080	1.0736e+02	-2.9855	-9.993930	0.000517	5.167531	1.750807	-0.000207
1081	1.0746e+02	-3.0256	-10.163489	0.000426	4.255613	1.441841	-0.000170
1082	1.0756e+02	-3.0657	-10.337086	0.000436	4.356938	1.476170	-0.000174
1083	1.0766e+02	-3.1074	-10.555091	0.000547	5.471503	1.853795	-0.000219
1084	1.0776e+02	-3.1443	-10.720614	0.000415	4.154289	1.407511	-0.000166
1085	1.0786e+02	-3.1844	-10.918434	0.000496	4.964882	1.682148	-0.000199
1086	1.0796e+02	-3.2293	-11.087993	0.000426	4.255613	1.441841	-0.000170
1087	1.0806e+02	-3.2694	-11.281776	0.000486	4.863558	1.647818	-0.000195
1088	1.0816e+02	-3.3063	-11.471521	0.000476	4.762234	1.613489	-0.000191
1089	1.0826e+02	-3.3480	-11.657229	0.000466	4.660910	1.579159	-0.000187
1090	1.0836e+02	-3.3785	-11.830826	0.000436	4.356938	1.476170	-0.000174
1091	1.0845e+02	-3.4266	-12.008460	0.000446	4.458262	1.510500	-0.000179
1092	1.0855e+02	-3.4700	-12.222428	0.000537	5.370179	1.819466	-0.000215
1093	1.0865e+02	-3.5117	-12.396025	0.000436	4.356938	1.476170	-0.000174
1094	1.0875e+02	-3.5421	-12.581734	0.000466	4.660910	1.579159	-0.000187
1095	1.0885e+02	-3.5806	-12.763405	0.000456	4.559586	1.544830	-0.000183
1096	1.0895e+02	-3.6175	-12.977373	0.000537	5.370179	1.819466	-0.000215
1097	1.0905e+02	-3.6705	-13.130784	0.000385	3.850317	1.304523	-0.000154
1098	1.0915e+02	-3.6962	-13.336678	0.000517	5.167531	1.750807	-0.000207
1099	1.0925e+02	-3.7411	-13.518349	0.000456	4.559586	1.544830	-0.000183
1100	1.0935e+02	-3.7796	-13.712132	0.000486	4.863558	1.647818	-0.000195
1101	1.0945e+02	-3.8357	-13.893803	0.000456	4.559586	1.544830	-0.000183
1102	1.0955e+02	-3.8566	-14.067399	0.000436	4.356938	1.476170	-0.000174
1103	1.0965e+02	-3.9047	-14.265219	0.000496	4.964882	1.682148	-0.000199
1104	1.0975e+02	-3.9480	-14.426705	0.000405	4.052965	1.373182	-0.000162
1105	1.0985e+02	-3.9881	-14.644710	0.000547	5.471503	1.853795	-0.000219
1106	1.0995e+02	-4.0330	-14.834455	0.000476	4.762234	1.613489	-0.000191
1107	1.1005e+02	-4.0651	-14.995941	0.000405	4.052965	1.373182	-0.000162
1108	1.1015e+02	-4.1100	-15.217983	0.000557	5.572827	1.888125	-0.000223
1109	1.1025e+02	-4.1421	-15.351209	0.000334	3.343696	1.132875	-0.000134
1110	1.1035e+02	-4.1983	-15.532880	0.000456	4.559586	1.544830	-0.000183
1111	1.1044e+02	-4.2191	-15.686291	0.000385	3.850317	1.304523	-0.000154
1112	1.1054e+02	-4.2641	-15.896222	0.000527	5.268855	1.785136	-0.000211
1113	1.1064e+02	-4.2977	-16.094042	0.000496	4.964882	1.682148	-0.000199
1114	1.1074e+02	-4.3459	-16.259564	0.000415	4.154289	1.407511	-0.000166
1115	1.1084e+02	-4.3796	-16.433161	0.000436	4.356938	1.476170	-0.000174
1116	1.1094e+02	-4.4197	-16.606758	0.000436	4.356938	1.476170	-0.000174
1117	1.1104e+02	-4.4662	-16.804578	0.000496	4.964882	1.682148	-0.000199
1118	1.1114e+02	-4.5015	-16.978174	0.000436	4.356938	1.476170	-0.000174
1119	1.1124e+02	-4.5352	-17.171957	0.000486	4.863558	1.647818	-0.000195
1120	1.1134e+02	-4.5897	-17.353628	0.000456	4.559586	1.544830	-0.000183
1121	1.1144e+02	-4.6170	-17.494928	0.000355	3.546345	1.201534	-0.000142
1122	1.1154e+02	-4.6651	-17.704859	0.000527	5.268855	1.785136	-0.000211
1123	1.1164e+02	-4.7036	-17.894604	0.000476	4.762234	1.613489	-0.000191
1124	1.1174e+02	-4.7293	-18.072238	0.000446	4.458262	1.510500	-0.000179
1125	1.1184e+02	-4.7774	-18.209501	0.000345	3.445020	1.167205	-0.000138
1126	1.1194e+02	-4.8223	-18.399246	0.000476	4.762234	1.613489	-0.000191
1127	1.1204e+02	-4.8544	-18.572843	0.000436	4.356938	1.476170	-0.000174
1128	1.1214e+02	-4.8993	-18.758551	0.000466	4.660910	1.579159	-0.000187
1129	1.1224e+02	-4.9314	-18.928111	0.000426	4.255613	1.441841	-0.000170
1130	1.1234e+02	-4.9844	-19.150153	0.000557	5.572827	1.888125	-0.000223
1131	1.1244e+02	-5.0180	-19.283379	0.000334	3.343696	1.132875	-0.000134
1132	1.1253e+02	-5.0598	-19.424679	0.000355	3.546345	1.201534	-0.000142
1133	1.1263e+02	-5.0966	-19.606350	0.000456	4.559586	1.544830	-0.000183
1134	1.1273e+02	-5.1351	-19.788021	0.000456	4.559586	1.544830	-0.000183
1135	1.1283e+02	-5.1737	-20.018138	0.000578	5.775475	1.956784	-0.000231
1136	1.1293e+02	-5.2250	-20.139252	0.000304	3.039724	1.029886	-0.000122
1137	1.1303e+02	-5.2587	-20.316886	0.000446	4.458262	1.510500	-0.000179
1138	1.1313e+02	-5.2924	-20.506631	0.000476	4.762234	1.613489	-0.000191
1139	1.1323e+02	-5.3341	-20.696376	0.000476	4.762234	1.613489	-0.000191
1140	1.1333e+02	-5.3790	-20.902270	0.000517	5.167531	1.750807	-0.000207
1141	1.1343e+02	-5.4127	-21.023384	0.000304	3.039724	1.029886	-0.000122
1142	1.1353e+02	-5.4560	-21.192944	0.000426	4.255613	1.441841	-0.000170
1143	1.1363e+02	-5.5025	-21.374615	0.000456	4.559586	1.544830	-0.000183
1144	1.1373e+02	-5.5490	-21.556286	0.000456	4.559586	1.544830	-0.000183
1145	1.1383e+02	-5.5779	-21.746032	0.000476	4.762234	1.613489	-0.000191
1146	1.1393e+02	-5.6148	-21.879257	0.000334	3.343696	1.132875	-0.000134
1147	1.1403e+02	-5.6581	-22.064965	0.000466	4.660910	1.579159	-0.000187
1148	1.1413e+02	-5.6870	-22.242599	0.000446	4.458262	1.510500	-0.000179
1149	1.1423e+02	-5.7432	-22.428308	0.000466	4.660910	1.579159	-0.000187
1150	1.1433e+02	-5.7624	-22.573644	0.000365	3.647669	1.235864	-0.000146
1151	1.1442e+02	-5.8186	-22.751278	0.000446	4.458262	1.510500	-0.000179
1152	1.1452e+02	-5.8522	-22.965247	0.000537	5.370179	1.819466	-0.000215
1153	1.1462e+02	-5.8988	-23.106546	0.000355	3.546345	1.201534	-0.000142
1154	1.1472e+02	-5.9453	-23.288218	0.000456	4.559586	1.544830	-0.000183
1155	1.1482e+02	-5.9790	-23.437592	0.000375	3.748993	1.270193	-0.000150
1156	1.1492e+02	-6.0111	-23.631374	0.000486	4.863558	1.647818	-0.000195
1157	1.1502e+02	-6.0544	-23.784785	0.000385	3.850317	1.304523	-0.000154
1158	1.1512e+02	-6.0849	-23.970493	0.000466	4.660910	1.579159	-0.000187
1159	1.1522e+02	-6.1330	-24.172350	0.000507	5.066207	1.716477	-0.000203
1160	1.1532e+02	-6.1731	-24.305576	0.000334	3.343696	1.132875	-0.000134
1161	1.1542e+02	-6.2212	-24.499358	0.000486	4.863558	1.647818	-0.000195
1162	1.1552e+02	-6.2565	-24.672955	0.000436	4.356938	1.476170	-0.000174
1163	1.1562e+02	-6.2966	-24.830403	0.000395	3.951641	1.338852	-0.000158
1164	1.1572e+02	-6.3399	-25.008037	0.000446	4.458262	1.510500	-0.000179
1165	1.1582e+02	-6.3736	-25.153374	0.000365	3.647669	1.235864	-0.000146
1166	1.1592e+02	-6.4298	-25.339082	0.000466	4.660910	1.579159	-0.000187
1167	1.1602e+02	-6.4506	-25.528828	0.000476	4.762234	1.613489	-0.000191
1168	1.1612e+02	-6.4971	-25.653979	0.000314	3.141048	1.064216	-0.000126
1169	1.1622e+02	-6.5228	-25.831613	0.000446	4.458262	1.510500	-0.000179
1170	1.1632e+02	-6.5774	-26.013284	0.000456	4.559586	1.544830	-0.000183
1171	1.1642e+02	-6.6126	-26.190918	0.000446	4.458262	1.510500	-0.000179
1172	1.1651e+02	-6.6544	-26.348366	0.000395	3.951641	1.338852	-0.000158
1173	1.1661e+02	-6.6800	-26.509852	0.000405	4.052965	1.373182	-0.000162
1174	1.1671e+02	-6.7233	-26.683449	0.000436	4.356938	1.476170	-0.000174
1175	1.1681e+02	-6.7779	-26.885305	0.000507	5.066207	1.716477	-0.000203
1176	1.1691e+02	-6.8068	-27.018531	0.000334	3.343696	1.132875	-0.000134
1177	1.1701e+02	-6.8501	-27.184053	0.000415	4.154289	1.407511	-0.000166
1178	1.1711e+02	-6.8854	-27.341502	0.000395	3.951641	1.338852	-0.000158
1179	1.1721e+02	-6.9367	-27.523173	0.000456	4.559586	1.544830	-0.000183
1180	1.1731e+02	-6.9672	-27.660436	0.000345	3.445020	1.167205	-0.000138
1181	1.1741e+02	-7.0009	-27.870367	0.000527	5.268855	1.785136	-0.000211
1182	1.1751e+02	-7.0474	-27.991481	0.000304	3.039724	1.029886	-0.000122
1183	1.1761e+02	-7.0859	-28.165077	0.000436	4.356938	1.476170	-0.000174
1184	1.1771e+02	-7.1244	-28.318489	0.000385	3.850317	1.304523	-0.000154
1185	1.1781e+02	-7.1661	-28.500160	0.000456	4.559586	1.544830	-0.000183
1186	1.1791e+02	-7.2046	-28.677794	0.000446	4.458262	1.510500	-0.000179
1187	1.1801e+02	-7.2495	-28.827168	0.000375	3.748993	1.270193	-0.000150
1188	1.1811e+02	-7.2864	-28.992690	0.000415	4.154289	1.407511	-0.000166
1189	1.1821e+02	-7.3201	-29.178399	0.000466	4.660910	1.579159	-0.000187
1190	1.1831e+02	-7.3618	-29.287401	0.000274	2.735752	0.926898	-0.000110
1191	1.1841e+02	-7.4035	-29.505407	0.000547	5.471503	1.853795	-0.000219
1192	1.1850e+02	-7.4404	-29.650743	0.000365	3.647669	1.235864	-0.000146
1193	1.1860e+02	-7.4821	-29.832415	0.000456	4.559586	1.544830	-0.000183
1194	1.1870e+02	-7.5383	-29.977751	0.000365	3.647669	1.235864	-0.000146
1195	1.1880e+02	-7.5736	-30.159423	0.000456	4.559586	1.544830	-0.000183
1196	1.1890e+02	-7.6073	-30.316871	0.000395	3.951641	1.338852	-0.000158
1197	1.1900e+02	-7.6378	-30.486431	0.000426	4.255613	1.441841	-0.000170
1198	1.1910e+02	-7.6763	-30.655990	0.000426	4.255613	1.441841	-0.000170
1199	1.1920e+02	-7.7244	-30.793253	0.000345	3.445020	1.167205	-0.000138
1200	1.1930e+02	-7.7549	-30.970887	0.000446	4.458262	1.510500	-0.000179
1201	1.1940e+02	-7.7998	-31.108149	0.000345	3.445020	1.167205	-0.000138
1202	1.1950e+02	-7.8383	-31.281746	0.000436	4.356938	1.476170	-0.000174
1203	1.1960e+02	-7.8784	-31.435157	0.000385	3.850317	1.304523	-0.000154
1204	1.1970e+02	-7.9137	-31.637014	0.000507	5.066207	1.716477	-0.000203
1205	1.1980e+02	-7.9666	-31.766203	0.000324	3.242372	1.098545	-0.000130
1206	1.1990e+02	-8.0051	-31.955948	0.000476	4.762234	1.613489	-0.000191
1207	1.2000e+02	-8.0436	-32.101285	0.000365	3.647669	1.235864	-0.000146
1208	1.2010e+02	-8.0837	-32.286993	0.000466	4.660910	1.579159	-0.000187
1209	1.2020e+02	-8.1222	-32.412144	0.000314	3.141048	1.064216	-0.000126
1210	1.2030e+02	-8.1623	-32.585741	0.000436	4.356938	1.476170	-0.000174
1211	1.2039e+02	-8.2040	-32.755301	0.000426	4.255613	1.441841	-0.000170
1212	1.2049e+02	-8.2393	-32.908712	0.000385	3.850317	1.304523	-0.000154
1213	1.2059e+02	-8.2891	-33.045975	0.000345	3.445020	1.167205	-0.000138
1214	1.2069e+02	-8.3212	-33.223609	0.000446	4.458262	1.510500	-0.000179
1215	1.2079e+02	-8.3629	-33.352797	0.000324	3.242372	1.098545	-0.000130
1216	1.2089e+02	-8.4030	-33.538505	0.000466	4.660910	1.579159	-0.000187
1217	1.2099e+02	-8.4447	-33.675768	0.000345	3.445020	1.167205	-0.000138
1218	1.2109e+02	-8.4784	-33.845327	0.000426	4.255613	1.441841	-0.000170
1219	1.2119e+02	-8.5217	-33.990664	0.000365	3.647669	1.235864	-0.000146
1220	1.2129e+02	-8.5682	-34.144076	0.000385	3.850317	1.304523	-0.000154
1221	1.2139e+02	-8.5859	-34.317672	0.000436	4.356938	1.476170	-0.000174
1222	1.2149e+02	-8.6420	-34.450898	0.000334	3.343696	1.132875	-0.000134
1223	1.2159e+02	-8.6837	-34.600272	0.000375	3.748993	1.270193	-0.000150
1224	1.2169e+02	-8.7238	-34.749646	0.000375	3.748993	1.270193	-0.000150
1225	1.2179e+02	-8.7575	-34.919206	0.000426	4.255613	1.441841	-0.000170
1226	1.2189e+02	-8.8056	-35.040320	0.000304	3.039724	1.029886	-0.000122
1227	1.2199e+02	-8.8361	-35.201805	0.000405	4.052965	1.373182	-0.000162
1228	1.2209e+02	-8.8810	-35.363290	0.000405	4.052965	1.373182	-0.000162
1229	1.2219e+02	-8.9211	-35.512665	0.000375	3.748993	1.270193	-0.000150
1230	1.2229e+02	-8.9580	-35.670113	0.000395	3.951641	1.338852	-0.000158
1231	1.2239e+02	-9.0014	-35.791227	0.000304	3.039724	1.029886	-0.000122
1232	1.2248e+02	-9.0334	-35.968861	0.000446	4.458262	1.510500	-0.000179
1233	1.2258e+02	-9.0703	-36.118235	0.000375	3.748993	1.270193	-0.000150
1234	1.2268e+02	-9.1153	-36.243386	0.000314	3.141048	1.064216	-0.000126
1235	1.2278e+02	-9.1505	-36.392760	0.000375	3.748993	1.270193	-0.000150
1236	1.2288e+02	-9.2003	-36.566357	0.000436	4.356938	1.476170	-0.000174
1237	1.2298e+02	-9.2372	-36.715731	0.000375	3.748993	1.270193	-0.000150
1238	1.2308e+02	-9.2837	-36.889328	0.000436	4.356938	1.476170	-0.000174
1239	1.2318e+02	-9.3094	-37.014479	0.000314	3.141048	1.064216	-0.000126
1240	1.2328e+02	-9.3623	-37.171927	0.000395	3.951641	1.338852	-0.000158
1241	1.2338e+02	-9.3944	-37.357636	0.000466	4.660910	1.579159	-0.000187
1242	1.2348e+02	-9.4409	-37.462601	0.000263	2.634427	0.892568	-0.000105
1243	1.2358e+02	-9.4778	-37.636198	0.000436	4.356938	1.476170	-0.000174
1244	1.2368e+02	-9.5195	-37.720978	0.000213	2.127807	0.720920	-0.000085
1245	1.2378e+02	-9.5660	-37.882463	0.000405	4.052965	1.373182	-0.000162
1246	1.2388e+02	-9.5981	-38.052023	0.000426	4.255613	1.441841	-0.000170
1247	1.2398e+02	-9.6463	-38.181211	0.000324	3.242372	1.098545	-0.000130
1248	1.2408e+02	-9.6767	-38.326548	0.000365	3.647669	1.235864	-0.000146
1249	1.2418e+02	-9.7249	-38.483996	0.000395	3.951641	1.338852	-0.000158
1250	1.2428e+02	-9.7602	-38.665668	0.000456	4.559586	1.544830	-0.000183
1251	1.2438e+02	-9.7954	-38.770633	0.000263	2.634427	0.892568	-0.000105
1252	1.2447e+02	-9.8372	-38.952304	0.000456	4.559586	1.544830	-0.000183
1253	1.2457e+02	-9.8805	-39.073418	0.000304	3.039724	1.029886	-0.000122
1254	1.2467e+02	-9.9126	-39.210681	0.000345	3.445020	1.167205	-0.000138
1255	1.2477e+02	-9.9623	-39.343906	0.000334	3.343696	1.132875	-0.000134
1256	1.2487e+02	-9.9928	-39.505392	0.000405	4.052965	1.373182	-0.000162
1257	1.2497e+02	-10.0393	-39.670914	0.000415	4.154289	1.407511	-0.000166
1258	1.2507e+02	-10.0682	-39.800103	0.000324	3.242372	1.098545	-0.000130
1259	1.2517e+02	-10.1243	-39.917180	0.000294	2.938400	0.995557	-0.000118
1260	1.2527e+02	-10.1564	-40.098851	0.000456	4.559586	1.544830	-0.000183
1261	1.2537e+02	-10.1949	-40.219965	0.000304	3.039724	1.029886	-0.000122
1262	1.2547e+02	-10.2318	-40.365302	0.000365	3.647669	1.235864	-0.000146
1263	1.2557e+02	-10.2799	-40.490453	0.000314	3.141048	1.064216	-0.000126
1264	1.2567e+02	-10.3184	-40.651938	0.000405	4.052965	1.373182	-0.000162
1265	1.2577e+02	-10.3489	-40.769015	0.000294	2.938400	0.995557	-0.000118
1266	1.2587e+02	-10.3858	-40.930501	0.000405	4.052965	1.373182	-0.000162
1267	1.2597e+02	-10.4387	-41.071800	0.000355	3.546345	1.201534	-0.000142
1268	1.2607e+02	-10.4788	-41.217137	0.000365	3.647669	1.235864	-0.000146
1269	1.2617e+02	-10.5190	-41.358437	0.000355	3.546345	1.201534	-0.000142
1270	1.2627e+02	-10.5559	-41.519922	0.000405	4.052965	1.373182	-0.000162
1271	1.2636e+02	-10.6056	-41.628925	0.000274	2.735752	0.926898	-0.000110
1272	1.2646e+02	-10.6361	-41.766188	0.000345	3.445020	1.167205	-0.000138
1273	1.2656e+02	-10.6762	-41.887302	0.000304	3.039724	1.029886	-0.000122
1274	1.2666e+02	-10.7131	-42.097233	0.000527	5.268855	1.785136	-0.000211
1275	1.2676e+02	-10.7580	-42.198161	0.000253	2.533103	0.858239	-0.000101
1276	1.2686e+02	-10.7885	-42.303127	0.000263	2.634427	0.892568	-0.000105
1277	1.2696e+02	-10.8382	-42.484798	0.000456	4.559586	1.544830	-0.000183
1278	1.2706e+02	-10.8767	-42.609949	0.000314	3.141048	1.064216	-0.000126
1279	1.2716e+02	-10.9184	-42.795657	0.000466	4.660910	1.579159	-0.000187
1280	1.2726e+02	-10.9489	-42.904660	0.000274	2.735752	0.926898	-0.000110
1281	1.2736e+02	-11.0002	-42.993477	0.000223	2.229131	0.755250	-0.000089
1282	1.2746e+02	-11.0307	-43.134777	0.000355	3.546345	1.201534	-0.000142
1283	1.2756e+02	-11.0660	-43.280114	0.000365	3.647669	1.235864	-0.000146
1284	1.2766e+02	-11.1125	-43.413339	0.000334	3.343696	1.132875	-0.000134
1285	1.2776e+02	-11.1606	-43.586936	0.000436	4.356938	1.476170	-0.000174
1286	1.2786e+02	-11.1927	-43.716124	0.000324	3.242372	1.098545	-0.000130
1287	1.2796e+02	-11.2344	-43.821090	0.000263	2.634427	0.892568	-0.000105
1288	1.2806e+02	-11.2745	-44.002761	0.000456	4.559586	1.544830	-0.000183
1289	1.2816e+02	-11.3114	-44.127912	0.000314	3.141048	1.064216	-0.000126
1290	1.2826e+02	-11.3499	-44.265175	0.000345	3.445020	1.167205	-0.000138
1291	1.2835e+02	-11.3868	-44.374177	0.000274	2.735752	0.926898	-0.000110
1292	1.2845e+02	-11.4366	-44.515477	0.000355	3.546345	1.201534	-0.000142
1293	1.2855e+02	-11.4719	-44.624480	0.000274	2.735752	0.926898	-0.000110
1294	1.2865e+02	-11.5056	-44.826337	0.000507	5.066207	1.716477	-0.000203
1295	1.2875e+02	-11.5505	-44.939376	0.000284	2.837076	0.961227	-0.000114
1296	1.2885e+02	-11.5810	-45.100862	0.000405	4.052965	1.373182	-0.000162
1297	1.2895e+02	-11.6355	-45.189679	0.000223	2.229131	0.755250	-0.000089
1298	1.2905e+02	-11.6756	-45.322904	0.000334	3.343696	1.132875	-0.000134
1299	1.2915e+02	-11.7077	-45.484390	0.000405	4.052965	1.373182	-0.000162
1300	1.2925e+02	-11.7414	-45.601467	0.000294	2.938400	0.995557	-0.000118
1301	1.2935e+02	-11.7959	-45.771026	0.000426	4.255613	1.441841	-0.000170
1302	1.2945e+02	-11.8248	-45.851769	0.000203	2.026483	0.686591	-0.000081
1303	1.2955e+02	-11.8729	-46.033440	0.000456	4.559586	1.544830	-0.000183
1304	1.2965e+02	-11.9130	-46.154554	0.000304	3.039724	1.029886	-0.000122
1305	1.2975e+02	-11.9547	-46.316040	0.000405	4.052965	1.373182	-0.000162
1306	1.2985e+02	-11.9836	-46.408894	0.000233	2.330455	0.789580	-0.000093
1307	1.2995e+02	-12.0285	-46.566342	0.000395	3.951641	1.338852	-0.000158
1308	1.3005e+02	-12.0719	-46.739939	0.000436	4.356938	1.476170	-0.000174
1309	1.3015e+02	-12.1136	-46.844905	0.000263	2.634427	0.892568	-0.000105
1310	1.3025e+02	-12.1521	-46.974093	0.000324	3.242372	1.098545	-0.000130
1311	1.3034e+02	-12.1922	-47.075021	0.000253	2.533103	0.858239	-0.000101
1312	1.3044e+02	-12.2419	-47.260730	0.000466	4.660910	1.579159	-0.000187
1313	1.3054e+02	-12.2676	-47.373769	0.000284	2.837076	0.961227	-0.000114
1314	1.3064e+02	-12.3013	-47.515069	0.000355	3.546345	1.201534	-0.000142
1315	1.3074e+02	-12.3526	-47.640220	0.000314	3.141048	1.064216	-0.000126
1316	1.3084e+02	-12.3734	-47.749223	0.000274	2.735752	0.926898	-0.000110
1317	1.3094e+02	-12.4312	-47.967228	0.000547	5.471503	1.853795	-0.000219
1318	1.3104e+02	-12.4761	-48.072194	0.000263	2.634427	0.892568	-0.000105
1319	1.3114e+02	-12.4906	-48.189271	0.000294	2.938400	0.995557	-0.000118
1320	1.3124e+02	-12.5499	-48.338645	0.000375	3.748993	1.270193	-0.000150
1321	1.3134e+02	-12.5852	-48.451685	0.000284	2.837076	0.961227	-0.000114
1322	1.3144e+02	-12.6205	-48.601059	0.000375	3.748993	1.270193	-0.000150
1323	1.3154e+02	-12.6622	-48.730247	0.000324	3.242372	1.098545	-0.000130
1324	1.3164e+02	-12.6975	-48.879621	0.000375	3.748993	1.270193	-0.000150
1325	1.3174e+02	-12.7488	-49.008809	0.000324	3.242372	1.098545	-0.000130
1326	1.3184e+02	-12.7938	-49.174332	0.000415	4.154289	1.407511	-0.000166
1327	1.3194e+02	-12.8194	-49.267186	0.000233	2.330455	0.789580	-0.000093
1328	1.3204e+02	-12.8611	-49.404449	0.000345	3.445020	1.167205	-0.000138
1329	1.3214e+02	-12.9028	-49.537674	0.000334	3.343696	1.132875	-0.000134
1330	1.3224e+02	-12.9397	-49.654751	0.000294	2.938400	0.995557	-0.000118
1331	1.3234e+02	-12.9895	-49.812199	0.000395	3.951641	1.338852	-0.000158
1332	1.3243e+02	-13.0216	-49.969648	0.000395	3.951641	1.338852	-0.000158
1333	1.3253e+02	-13.0488	-50.114984	0.000365	3.647669	1.235864	-0.000146
1334	1.3263e+02	-13.0905	-50.219950	0.000263	2.634427	0.892568	-0.000105
1335	1.3273e+02	-13.1322	-50.409695	0.000476	4.762234	1.613489	-0.000191
1336	1.3283e+02	-13.1772	-50.490438	0.000203	2.026483	0.686591	-0.000081
1337	1.3293e+02	-13.2173	-50.603478	0.000284	2.837076	0.961227	-0.000114
1338	1.3303e+02	-13.2654	-50.748815	0.000365	3.647669	1.235864	-0.000146
1339	1.3313e+02	-13.3039	-50.922412	0.000436	4.356938	1.476170	-0.000174
1340	1.3323e+02	-13.3392	-51.055637	0.000334	3.343696	1.132875	-0.000134
1341	1.3333e+02	-13.3825	-51.176751	0.000304	3.039724	1.029886	-0.000122
1342	1.3343e+02	-13.4258	-51.289791	0.000284	2.837076	0.961227	-0.000114
1343	1.3353e+02	-13.4579	-51.431091	0.000355	3.546345	1.201534	-0.000142
1344	1.3363e+02	-13.4948	-51.604688	0.000436	4.356938	1.476170	-0.000174
1345	1.3373e+02	-13.5461	-51.713690	0.000274	2.735752	0.926898	-0.000110
1346	1.3383e+02	-13.5702	-51.826730	0.000284	2.837076	0.961227	-0.000114
1347	1.3393e+02	-13.6231	-52.004364	0.000446	4.458262	1.510500	-0.000179
1348	1.3403e+02	-13.6488	-52.109330	0.000263	2.634427	0.892568	-0.000105
1349	1.3413e+02	-13.6937	-52.278889	0.000426	4.255613	1.441841	-0.000170
1350	1.3423e+02	-13.7451	-52.391929	0.000284	2.837076	0.961227	-0.000114
1351	1.3432e+02	-13.7804	-52.577637	0.000466	4.660910	1.579159	-0.000187
1352	1.3442e+02	-13.8189	-52.686640	0.000274	2.735752	0.926898	-0.000110
1353	1.3452e+02	-13.8622	-52.767383	0.000203	2.026483	0.686591	-0.000081
1354	1.3462e+02	-13.9039	-52.945017	0.000446	4.458262	1.510500	-0.000179
1355	1.3472e+02	-13.9392	-53.102465	0.000395	3.951641	1.338852	-0.000158
1356	1.3482e+02	-13.9841	-53.223579	0.000304	3.039724	1.029886	-0.000122
1357	1.3492e+02	-14.0226	-53.397176	0.000436	4.356938	1.476170	-0.000174
1358	1.3502e+02	-14.0611	-53.473881	0.000193	1.925158	0.652261	-0.000077
1359	1.3512e+02	-14.0916	-53.607107	0.000334	3.343696	1.132875	-0.000134
1360	1.3522e+02	-14.1333	-53.772629	0.000415	4.154289	1.407511	-0.000166
1361	1.3532e+02	-14.1862	-53.909892	0.000345	3.445020	1.167205	-0.000138
1362	1.3542e+02	-14.2215	-54.022932	0.000284	2.837076	0.961227	-0.000114
1363	1.3552e+02	-14.2552	-54.176343	0.000385	3.850317	1.304523	-0.000154
1364	1.3562e+02	-14.2969	-54.317643	0.000355	3.546345	1.201534	-0.000142
1365	1.3572e+02	-14.3386	-54.471054	0.000385	3.850317	1.304523	-0.000154
1366	1.3582e+02	-14.3836	-54.547760	0.000193	1.925158	0.652261	-0.000077
1367	1.3592e+02	-14.4092	-54.721356	0.000436	4.356938	1.476170	-0.000174
1368	1.3602e+02	-14.4541	-54.882842	0.000405	4.052965	1.373182	-0.000162
1369	1.3612e+02	-14.4975	-54.979733	0.000243	2.431779	0.823909	-0.000097
1370	1.3622e+02	-14.5424	-55.153330	0.000436	4.356938	1.476170	-0.000174
1371	1.3631e+02	-14.5825	-55.274444	0.000304	3.039724	1.029886	-0.000122
1372	1.3641e+02	-14.6194	-55.431892	0.000395	3.951641	1.338852	-0.000158
1373	1.3651e+02	-14.6547	-55.553006	0.000304	3.039724	1.029886	-0.000122
1374	1.3661e+02	-14.6996	-55.706417	0.000385	3.850317	1.304523	-0.000154
1375	1.3671e+02	-14.7413	-55.843680	0.000345	3.445020	1.167205	-0.000138
1376	1.3681e+02	-14.7814	-55.960757	0.000294	2.938400	0.995557	-0.000118
1377	1.3691e+02	-14.8263	-56.154540	0.000486	4.863558	1.647818	-0.000195
1378	1.3701e+02	-14.8632	-56.267579	0.000284	2.837076	0.961227	-0.000114
1379	1.3711e+02	-14.8905	-56.392731	0.000314	3.141048	1.064216	-0.000126
1380	1.3721e+02	-14.9306	-56.566327	0.000436	4.356938	1.476170	-0.000174
1381	1.3731e+02	-14.9851	-56.691479	0.000314	3.141048	1.064216	-0.000126
1382	1.3741e+02	-15.0156	-56.832778	0.000355	3.546345	1.201534	-0.000142
1383	1.3751e+02	-15.0541	-56.978115	0.000365	3.647669	1.235864	-0.000146
1384	1.3761e+02	-15.0942	-57.070969	0.000233	2.330455	0.789580	-0.000093
1385	1.3771e+02	-15.1375	-57.244566	0.000436	4.356938	1.476170	-0.000174
1386	1.3781e+02	-15.1809	-57.329346	0.000213	2.127807	0.720920	-0.000085
1387	1.3791e+02	-15.2242	-57.470646	0.000355	3.546345	1.201534	-0.000142
1388	1.3801e+02	-15.2611	-57.595797	0.000314	3.141048	1.064216	-0.000126
1389	1.3811e+02	-15.2883	-57.749208	0.000385	3.850317	1.304523	-0.000154
1390	1.3821e+02	-15.3317	-57.906656	0.000395	3.951641	1.338852	-0.000158
1391	1.3831e+02	-15.3878	-57.983362	0.000193	1.925158	0.652261	-0.000077
1392	1.3840e+02	-15.4151	-58.185219	0.000507	5.066207	1.716477	-0.000203
1393	1.3850e+02	-15.4552	-58.322481	0.000345	3.445020	1.167205	-0.000138
1394	1.3860e+02	-15.5001	-58.443596	0.000304	3.039724	1.029886	-0.000122
1395	1.3870e+02	-15.5306	-58.552598	0.000274	2.735752	0.926898	-0.000110
1396	1.3880e+02	-15.5691	-58.718121	0.000415	4.154289	1.407511	-0.000166
1397	1.3890e+02	-15.6124	-58.851346	0.000334	3.343696	1.132875	-0.000134
1398	1.3900e+02	-15.6445	-58.988609	0.000345	3.445020	1.167205	-0.000138
1399	1.3910e+02	-15.6990	-59.133946	0.000365	3.647669	1.235864	-0.000146
1400	1.3920e+02	-15.7327	-59.251023	0.000294	2.938400	0.995557	-0.000118
1401	1.3930e+02	-15.7792	-59.412508	0.000405	4.052965	1.373182	-0.000162
1402	1.3940e+02	-15.8113	-59.537659	0.000314	3.141048	1.064216	-0.000126
1403	1.3950e+02	-15.8402	-59.666848	0.000324	3.242372	1.098545	-0.000130
1404	1.3960e+02	-15.8947	-59.820259	0.000385	3.850317	1.304523	-0.000154
1405	1.3970e+02	-15.9348	-59.961559	0.000355	3.546345	1.201534	-0.000142
1406	1.3980e+02	-15.9717	-60.119007	0.000395	3.951641	1.338852	-0.000158
1407	1.3990e+02	-16.0070	-60.240121	0.000304	3.039724	1.029886	-0.000122
1408	1.4000e+02	-16.0584	-60.369309	0.000324	3.242372	1.098545	-0.000130
1409	1.4010e+02	-16.0953	-60.494460	0.000314	3.141048	1.064216	-0.000126
1410	1.4020e+02	-16.1354	-60.631723	0.000345	3.445020	1.167205	-0.000138
1411	1.4029e+02	-16.1739	-60.752837	0.000304	3.039724	1.029886	-0.000122
1412	1.4039e+02	-16.2172	-60.886063	0.000334	3.343696	1.132875	-0.000134
1413	1.4049e+02	-16.2509	-61.043511	0.000395	3.951641	1.338852	-0.000158
1414	1.4059e+02	-16.3006	-61.172699	0.000324	3.242372	1.098545	-0.000130
1415	1.4069e+02	-16.3263	-61.326110	0.000385	3.850317	1.304523	-0.000154
1416	1.4079e+02	-16.3696	-61.499707	0.000436	4.356938	1.476170	-0.000174
1417	1.4089e+02	-16.3969	-61.612747	0.000284	2.837076	0.961227	-0.000114
1418	1.4099e+02	-16.4514	-61.745973	0.000334	3.343696	1.132875	-0.000134
1419	1.4109e+02	-16.4883	-61.863049	0.000294	2.938400	0.995557	-0.000118
1420	1.4119e+02	-16.5348	-62.008386	0.000365	3.647669	1.235864	-0.000146
1421	1.4129e+02	-16.5685	-62.165835	0.000395	3.951641	1.338852	-0.000158
1422	1.4139e+02	-16.6182	-62.303097	0.000345	3.445020	1.167205	-0.000138
1423	1.4149e+02	-16.6455	-62.448434	0.000365	3.647669	1.235864	-0.000146
1424	1.4159e+02	-16.6856	-62.617994	0.000426	4.255613	1.441841	-0.000170
1425	1.4169e+02	-16.7289	-62.739108	0.000304	3.039724	1.029886	-0.000122
1426	1.4179e+02	-16.7690	-62.912705	0.000436	4.356938	1.476170	-0.000174
1427	1.4189e+02	-16.8059	-63.025745	0.000284	2.837076	0.961227	-0.000114
1428	1.4199e+02	-16.8509	-63.163007	0.000345	3.445020	1.167205	-0.000138
1429	1.4209e+02	-16.8910	-63.272010	0.000274	2.735752	0.926898	-0.000110
1430	1.4219e+02	-16.9327	-63.465792	0.000486	4.863558	1.647818	-0.000195
1431	1.4228e+02	-16.9616	-63.611129	0.000365	3.647669	1.235864	-0.000146
1432	1.4238e+02	-17.0049	-63.744355	0.000334	3.343696	1.132875	-0.000134
1433	1.4248e+02	-17.0418	-63.881617	0.000345	3.445020	1.167205	-0.000138
1434	1.4258e+02	-17.0915	-63.998694	0.000294	2.938400	0.995557	-0.000118
1435	1.4268e+02	-17.1268	-64.172291	0.000436	4.356938	1.476170	-0.000174
1436	1.4278e+02	-17.1717	-64.301479	0.000324	3.242372	1.098545	-0.000130
1437	1.4288e+02	-17.2070	-64.454891	0.000385	3.850317	1.304523	-0.000154
1438	1.4298e+02	-17.2503	-64.608302	0.000385	3.850317	1.304523	-0.000154
1439	1.4308e+02	-17.2952	-64.777861	0.000426	4.255613	1.441841	-0.000170
1440	1.4318e+02	-17.3273	-64.898976	0.000304	3.039724	1.029886	-0.000122
1441	1.4328e+02	-17.3674	-65.003941	0.000263	2.634427	0.892568	-0.000105
1442	1.4338e+02	-17.4075	-65.201761	0.000496	4.964882	1.682148	-0.000199
1443	1.4348e+02	-17.4492	-65.359209	0.000395	3.951641	1.338852	-0.000158
1444	1.4358e+02	-17.4877	-65.500509	0.000355	3.546345	1.201534	-0.000142
1445	1.4368e+02	-17.5246	-65.629697	0.000324	3.242372	1.098545	-0.000130
1446	1.4378e+02	-17.5680	-65.791183	0.000405	4.052965	1.373182	-0.000162
1447	1.4388e+02	-17.6097	-65.920371	0.000324	3.242372	1.098545	-0.000130
1448	1.4398e+02	-17.6434	-66.021299	0.000253	2.533103	0.858239	-0.000101
1449	1.4408e+02	-17.6867	-66.239305	0.000547	5.471503	1.853795	-0.000219
1450	1.4418e+02	-17.7268	-66.344270	0.000263	2.634427	0.892568	-0.000105
1451	1.4428e+02	-17.7653	-66.477496	0.000334	3.343696	1.132875	-0.000134
1452	1.4437e+02	-17.8022	-66.651092	0.000436	4.356938	1.476170	-0.000174
1453	1.4447e+02	-17.8535	-66.776244	0.000314	3.141048	1.064216	-0.000126
1454	1.4457e+02	-17.8744	-66.990212	0.000537	5.370179	1.819466	-0.000215
1455	1.4467e+02	-17.9321	-67.135549	0.000365	3.647669	1.235864	-0.000146
1456	1.4477e+02	-17.9658	-67.284923	0.000375	3.748993	1.270193	-0.000150
1457	1.4487e+02	-18.0059	-67.402000	0.000294	2.938400	0.995557	-0.000118
1458	1.4497e+02	-18.0492	-67.567522	0.000415	4.154289	1.407511	-0.000166
1459	1.4507e+02	-18.0813	-67.716896	0.000375	3.748993	1.270193	-0.000150
1460	1.4517e+02	-18.1230	-67.898567	0.000456	4.559586	1.544830	-0.000183
1461	1.4527e+02	-18.1679	-68.051979	0.000385	3.850317	1.304523	-0.000154
1462	1.4537e+02	-18.2129	-68.197315	0.000365	3.647669	1.235864	-0.000146
1463	1.4547e+02	-18.2337	-68.314392	0.000294	2.938400	0.995557	-0.000118
1464	1.4557e+02	-18.2834	-68.524323	0.000527	5.268855	1.785136	-0.000211
1465	1.4567e+02	-18.3316	-68.718106	0.000486	4.863558	1.647818	-0.000195
1466	1.4577e+02	-18.3685	-68.863443	0.000365	3.647669	1.235864	-0.000146
1467	1.4587e+02	-18.4038	-68.996668	0.000334	3.343696	1.132875	-0.000134
1468	1.4597e+02	-18.4407	-69.150079	0.000385	3.850317	1.304523	-0.000154
1469	1.4607e+02	-18.4920	-69.311565	0.000405	4.052965	1.373182	-0.000162
1470	1.4617e+02	-18.5289	-69.464976	0.000385	3.850317	1.304523	-0.000154
1471	1.4626e+02	-18.5594	-69.638573	0.000436	4.356938	1.476170	-0.000174
1472	1.4636e+02	-18.6091	-69.787947	0.000375	3.748993	1.270193	-0.000150
1473	1.4646e+02	-18.6428	-69.957507	0.000426	4.255613	1.441841	-0.000170
1474	1.4656e+02	-18.6861	-70.171475	0.000537	5.370179	1.819466	-0.000215
1475	1.4666e+02	-18.7262	-70.332960	0.000405	4.052965	1.373182	-0.000162
1476	1.4676e+02	-18.7551	-70.462149	0.000324	3.242372	1.098545	-0.000130
1477	1.4686e+02	-18.8080	-70.684191	0.000557	5.572827	1.888125	-0.000223
1478	1.4696e+02	-18.8401	-70.821454	0.000345	3.445020	1.167205	-0.000138
1479	1.4706e+02	-18.8866	-70.986976	0.000415	4.154289	1.407511	-0.000166
1480	1.4716e+02	-18.9235	-71.144425	0.000395	3.951641	1.338852	-0.000158
1481	1.4726e+02	-18.9604	-71.334170	0.000476	4.762234	1.613489	-0.000191
1482	1.4736e+02	-19.0070	-71.491618	0.000395	3.951641	1.338852	-0.000158
1483	1.4746e+02	-19.0374	-71.709624	0.000547	5.471503	1.853795	-0.000219
1484	1.4756e+02	-19.0856	-71.891295	0.000456	4.559586	1.544830	-0.000183
1485	1.4766e+02	-19.1257	-72.060854	0.000426	4.255613	1.441841	-0.000170
1486	1.4776e+02	-19.1577	-72.206191	0.000365	3.647669	1.235864	-0.000146
1487	1.4786e+02	-19.2027	-72.440345	0.000588	5.876800	1.991114	-0.000235
1488	1.4796e+02	-19.2380	-72.622016	0.000456	4.559586	1.544830	-0.000183
1489	1.4806e+02	-19.2829	-72.755242	0.000334	3.343696	1.132875	-0.000134
1490	1.4816e+02	-19.3230	-72.969210	0.000537	5.370179	1.819466	-0.000215
1491	1.4825e+02	-19.3599	-73.130695	0.000405	4.052965	1.373182	-0.000162
1492	1.4835e+02	-19.4000	-73.348701	0.000547	5.471503	1.853795	-0.000219
1493	1.4845e+02	-19.4449	-73.570743	0.000557	5.572827	1.888125	-0.000223
1494	1.4855e+02	-19.4770	-73.651486	0.000203	2.026483	0.686591	-0.000081
1495	1.4865e+02	-19.5123	-73.841231	0.000476	4.762234	1.613489	-0.000191
1496	1.4875e+02	-19.5540	-74.071348	0.000578	5.775475	1.956784	-0.000231
1497	1.4885e+02	-19.5909	-74.253019	0.000456	4.559586	1.544830	-0.000183
1498	1.4895e+02	-19.6310	-74.426616	0.000436	4.356938	1.476170	-0.000174
1499	1.4905e+02	-19.6855	-74.632510	0.000517	5.167531	1.750807	-0.000207
1500	1.4915e+02	-19.7256	-74.830329	0.000496	4.964882	1.682148	-0.000199
1501	1.4925e+02	-19.7609	-75.044298	0.000537	5.370179	1.819466	-0.000215
1502	1.4935e+02	-19.7946	-75.189635	0.000365	3.647669	1.235864	-0.000146
1503	1.4945e+02	-19.8363	-75.399566	0.000527	5.268855	1.785136	-0.000211
1504	1.4955e+02	-19.8797	-75.621608	0.000557	5.572827	1.888125	-0.000223
1505	1.4965e+02	-19.9085	-75.779056	0.000395	3.951641	1.338852	-0.000158
1506	1.4975e+02	-19.9599	-76.017247	0.000598	5.978124	2.025443	-0.000239
1507	1.4985e+02	-20.0000	-76.142399	0.000314	3.141048	1.064216	-0.000126
1508	1.4995e+02	-19.9583	-76.186807	-0.000111	-1.114565	-0.377625	-0.000045
1509	1.5005e+02	-19.9149	-76.223141	-0.000091	-0.911917	-0.308966	-0.000037
1510	1.5015e+02	-19.8829	-76.243327	-0.000051	-0.506621	-0.171648	-0.000020
1511	1.5025e+02	-19.8363	-76.206993	0.000091	0.911917	0.308966	0.000037
1512	1.5034e+02	-19.7930	-76.211030	-0.000010	-0.101324	-0.034330	-0.000004
1513	1.5044e+02	-19.7593	-76.190844	0.000051	0.506621	0.171648	0.000020
1514	1.5054e+02	-19.7160	-76.202956	-0.000030	-0.303972	-0.102989	-0.000012
1515	1.5064e+02	-19.6711	-76.154510	0.000122	1.215890	0.411955	0.000049
1516	1.5074e+02	-19.6294	-76.154510	0.000000	0.000000	0.000000	0.000000
1517	1.5084e+02	-19.6021	-76.126250	0.000071	0.709269	0.240307	0.000028
1518	1.5094e+02	-19.5668	-76.106064	0.000051	0.506621	0.171648	0.000020
1519	1.5104e+02	-19.5187	-76.097990	0.000020	0.202648	0.068659	0.000008
1520	1.5114e+02	-19.4802	-76.053582	0.000111	1.114565	0.377625	0.000045
1521	1.5124e+02	-19.4401	-76.057619	-0.000010	-0.101324	-0.034330	-0.000004
1522	1.5134e+02	-19.3984	-75.997062	0.000152	1.519862	0.514943	0.000061
1523	1.5144e+02	-19.3647	-75.984950	0.000030	0.303972	0.102989	0.000012
1524	1.5154e+02	-19.3198	-75.924393	0.000152	1.519862	0.514943	0.000061
1525	1.5164e+02	-19.2813	-75.892096	0.000081	0.810593	0.274636	0.000032
1526	1.5174e+02	-19.2476	-75.928430	-0.000091	-0.911917	-0.308966	-0.000037
1527	1.5184e+02	-19.2027	-75.791168	0.000345	3.445020	1.167205	0.000138
1528	1.5194e+02	-19.1594	-75.738685	0.000132	1.317214	0.446284	0.000053
1529	1.5204e+02	-19.1176	-75.722536	0.000041	0.405297	0.137318	0.000016
1530	1.5214e+02	-19.0840	-75.682165	0.000101	1.013241	0.343295	0.000041
1531	1.5224e+02	-19.0438	-75.605460	0.000193	1.925158	0.652261	0.000077
1532	1.5233e+02	-18.9989	-75.629682	-0.000061	-0.607945	-0.205977	-0.000024
1533	1.5243e+02	-18.9620	-75.548940	0.000203	2.026483	0.686591	0.000081
1534	1.5253e+02	-18.9219	-75.500494	0.000122	1.215890	0.411955	0.000049
1535	1.5263e+02	-18.8834	-75.431863	0.000172	1.722510	0.583602	0.000069
1536	1.5273e+02	-18.8497	-75.399566	0.000081	0.810593	0.274636	0.000032
1537	1.5283e+02	-18.8096	-75.334971	0.000162	1.621186	0.549273	0.000065
1538	1.5293e+02	-18.7583	-75.274414	0.000152	1.519862	0.514943	0.000061
1539	1.5303e+02	-18.7246	-75.213857	0.000152	1.519862	0.514943	0.000061
1540	1.5313e+02	-18.6813	-75.177523	0.000091	0.911917	0.308966	0.000037
1541	1.5323e+02	-18.6412	-75.116966	0.000152	1.519862	0.514943	0.000061
1542	1.5333e+02	-18.6011	-75.052372	0.000162	1.621186	0.549273	0.000065
1543	1.5343e+02	-18.5658	-75.003926	0.000122	1.215890	0.411955	0.000049
1544	1.5353e+02	-18.5353	-74.947406	0.000142	1.418538	0.480614	0.000057
1545	1.5363e+02	-18.4792	-74.882812	0.000162	1.621186	0.549273	0.000065
1546	1.5373e+02	-18.4391	-74.785921	0.000243	2.431779	0.823909	0.000097
1547	1.5383e+02	-18.3957	-74.737475	0.000122	1.215890	0.411955	0.000049
1548	1.5393e+02	-18.3669	-74.664807	0.000182	1.823834	0.617932	0.000073
1549	1.5403e+02	-18.3300	-74.584064	0.000203	2.026483	0.686591	0.000081
1550	1.5413e+02	-18.2770	-74.515433	0.000172	1.722510	0.583602	0.000069
1551	1.5422e+02	-18.2417	-74.475062	0.000101	1.013241	0.343295	0.000041
1552	1.5432e+02	-18.2113	-74.386245	0.000223	2.229131	0.755250	0.000089
1553	1.5442e+02	-18.1695	-74.333762	0.000132	1.317214	0.446284	0.000053
1554	1.5452e+02	-18.1262	-74.273205	0.000152	1.519862	0.514943	0.000061
1555	1.5462e+02	-18.0861	-74.216685	0.000142	1.418538	0.480614	0.000057
1556	1.5472e+02	-18.0476	-74.119794	0.000243	2.431779	0.823909	0.000097
1557	1.5482e+02	-18.0011	-74.087496	0.000081	0.810593	0.274636	0.000032
1558	1.5492e+02	-17.9642	-73.954271	0.000334	3.343696	1.132875	0.000134
1559	1.5502e+02	-17.9369	-73.893714	0.000152	1.519862	0.514943	0.000061
1560	1.5512e+02	-17.8776	-73.841231	0.000132	1.317214	0.446284	0.000053
1561	1.5522e+02	-17.8487	-73.736266	0.000263	2.634427	0.892568	0.000105
1562	1.5532e+02	-17.8054	-73.667634	0.000172	1.722510	0.583602	0.000069
1563	1.5542e+02	-17.7621	-73.554595	0.000284	2.837076	0.961227	0.000114
1564	1.5552e+02	-17.7268	-73.526335	0.000071	0.709269	0.240307	0.000028
1565	1.5562e+02	-17.6786	-73.477889	0.000122	1.215890	0.411955	0.000049
1566	1.5572e+02	-17.6434	-73.364849	0.000284	2.837076	0.961227	0.000114
1567	1.5582e+02	-17.6032	-73.296218	0.000172	1.722510	0.583602	0.000069
1568	1.5592e+02	-17.5728	-73.219512	0.000193	1.925158	0.652261	0.000077
1569	1.5602e+02	-17.5359	-73.110510	0.000274	2.735752	0.926898	0.000110
1570	1.5612e+02	-17.4861	-73.070138	0.000101	1.013241	0.343295	0.000041
1571	1.5622e+02	-17.4460	-72.969210	0.000253	2.533103	0.858239	0.000101
1572	1.5631e+02	-17.4107	-72.876356	0.000233	2.330455	0.789580	0.000093
1573	1.5641e+02	-17.3690	-72.791576	0.000213	2.127807	0.720920	0.000085
1574	1.5651e+02	-17.3305	-72.694685	0.000243	2.431779	0.823909	0.000097
1575	1.5661e+02	-17.2824	-72.682573	0.000030	0.303972	0.102989	0.000012
1576	1.5671e+02	-17.2487	-72.557422	0.000314	3.141048	1.064216	0.000126
1577	1.5681e+02	-17.2134	-72.480716	0.000193	1.925158	0.652261	0.000077
1578	1.5691e+02	-17.1669	-72.351528	0.000324	3.242372	1.098545	0.000130
1579	1.5701e+02	-17.1300	-72.254637	0.000243	2.431779	0.823909	0.000097
1580	1.5711e+02	-17.0979	-72.198117	0.000142	1.418538	0.480614	0.000057
1581	1.5721e+02	-17.0514	-72.089114	0.000274	2.735752	0.926898	0.000110
1582	1.5731e+02	-17.0097	-72.028557	0.000152	1.519862	0.514943	0.000061
1583	1.5741e+02	-16.9728	-71.947815	0.000203	2.026483	0.686591	0.000081
1584	1.5751e+02	-16.9311	-71.858998	0.000223	2.229131	0.755250	0.000089
1585	1.5761e+02	-16.8797	-71.774218	0.000213	2.127807	0.720920	0.000085
1586	1.5771e+02	-16.8477	-71.665215	0.000274	2.735752	0.926898	0.000110
1587	1.5781e+02	-16.8140	-71.584472	0.000203	2.026483	0.686591	0.000081
1588	1.5791e+02	-16.7642	-71.507767	0.000193	1.925158	0.652261	0.000077
1589	1.5801e+02	-16.7354	-71.398764	0.000274	2.735752	0.926898	0.000110
1590	1.5811e+02	-16.6888	-71.297836	0.000253	2.533103	0.858239	0.000101
1591	1.5821e+02	-16.6535	-71.233242	0.000162	1.621186	0.549273	0.000065
1592	1.5830e+02	-16.6118	-71.124239	0.000274	2.735752	0.926898	0.000110
1593	1.5840e+02	-16.5621	-71.079830	0.000111	1.114565	0.377625	0.000045
1594	1.5850e+02	-16.5268	-70.962753	0.000294	2.938400	0.995557	0.000118
1595	1.5860e+02	-16.4947	-70.873936	0.000223	2.229131	0.755250	0.000089
1596	1.5870e+02	-16.4434	-70.744748	0.000324	3.242372	1.098545	0.000130
1597	1.5880e+02	-16.4049	-70.700340	0.000111	1.114565	0.377625	0.000045
1598	1.5890e+02	-16.3680	-70.559040	0.000355	3.546345	1.201534	0.000142
1599	1.5900e+02	-16.3231	-70.458111	0.000253	2.533103	0.858239	0.000101
1600	1.5910e+02	-16.2862	-70.377369	0.000203	2.026483	0.686591	0.000081
1601	1.5920e+02	-16.2429	-70.276440	0.000253	2.533103	0.858239	0.000101
1602	1.5930e+02	-16.2156	-70.199735	0.000193	1.925158	0.652261	0.000077
1603	1.5940e+02	-16.1642	-70.082658	0.000294	2.938400	0.995557	0.000118
1604	1.5950e+02	-16.1322	-70.005952	0.000193	1.925158	0.652261	0.000077
1605	1.5960e+02	-16.0985	-69.909061	0.000243	2.431779	0.823909	0.000097
1606	1.5970e+02	-16.0632	-69.820244	0.000223	2.229131	0.755250	0.000089
1607	1.5980e+02	-16.0167	-69.723353	0.000243	2.431779	0.823909	0.000097
1608	1.5990e+02	-15.9717	-69.630499	0.000233	2.330455	0.789580	0.000093
1609	1.6000e+02	-15.9364	-69.529570	0.000253	2.533103	0.858239	0.000101
1610	1.6010e+02	-15.8931	-69.408456	0.000304	3.039724	1.029886	0.000122
1611	1.6019e+02	-15.8530	-69.291379	0.000294	2.938400	0.995557	0.000118
1612	1.6029e+02	-15.8161	-69.222748	0.000172	1.722510	0.583602	0.000069
1613	1.6039e+02	-15.7712	-69.113745	0.000274	2.735752	0.926898	0.000110
1614	1.6049e+02	-15.7391	-69.057225	0.000142	1.418538	0.480614	0.000057
1615	1.6059e+02	-15.6958	-68.944186	0.000284	2.837076	0.961227	0.000114
1616	1.6069e+02	-15.6477	-68.863443	0.000203	2.026483	0.686591	0.000081
1617	1.6079e+02	-15.6140	-68.701957	0.000405	4.052965	1.373182	0.000162
1618	1.6089e+02	-15.5707	-68.613140	0.000223	2.229131	0.755250	0.000089
1619	1.6099e+02	-15.5306	-68.568732	0.000111	1.114565	0.377625	0.000045
1620	1.6109e+02	-15.4905	-68.439544	0.000324	3.242372	1.098545	0.000130
1621	1.6119e+02	-15.4456	-68.330541	0.000274	2.735752	0.926898	0.000110
1622	1.6129e+02	-15.4119	-68.249798	0.000203	2.026483	0.686591	0.000081
1623	1.6139e+02	-15.3798	-68.144833	0.000263	2.634427	0.892568	0.000105
1624	1.6149e+02	-15.3284	-68.023719	0.000304	3.039724	1.029886	0.000122
1625	1.6159e+02	-15.2948	-67.938939	0.000213	2.127807	0.720920	0.000085
1626	1.6169e+02	-15.2498	-67.882419	0.000142	1.418538	0.480614	0.000057
1627	1.6179e+02	-15.2097	-67.753231	0.000324	3.242372	1.098545	0.000130
1628	1.6189e+02	-15.1680	-67.648265	0.000263	2.634427	0.892568	0.000105
1629	1.6199e+02	-15.1391	-67.555411	0.000233	2.330455	0.789580	0.000093
1630	1.6209e+02	-15.0830	-67.454482	0.000253	2.533103	0.858239	0.000101
1631	1.6219e+02	-15.0621	-67.349517	0.000263	2.634427	0.892568	0.000105
1632	1.6228e+02	-15.0220	-67.280886	0.000172	1.722510	0.583602	0.000069
1633	1.6238e+02	-14.9787	-67.183994	0.000243	2.431779	0.823909	0.000097
1634	1.6248e+02	-14.9466	-67.046732	0.000345	3.445020	1.167205	0.000138
1635	1.6258e+02	-14.9017	-66.901395	0.000365	3.647669	1.235864	0.000146
1636	1.6268e+02	-14.8520	-66.792392	0.000274	2.735752	0.926898	0.000110
1637	1.6278e+02	-14.8135	-66.687427	0.000263	2.634427	0.892568	0.000105
1638	1.6288e+02	-14.7782	-66.626870	0.000152	1.519862	0.514943	0.000061
1639	1.6298e+02	-14.7413	-66.529978	0.000243	2.431779	0.823909	0.000097
1640	1.6308e+02	-14.6996	-66.412901	0.000294	2.938400	0.995557	0.000118
1641	1.6318e+02	-14.6675	-66.275639	0.000345	3.445020	1.167205	0.000138
1642	1.6328e+02	-14.6226	-66.207008	0.000172	1.722510	0.583602	0.000069
1643	1.6338e+02	-14.5729	-66.114153	0.000233	2.330455	0.789580	0.000093
1644	1.6348e+02	-14.5424	-65.972854	0.000355	3.546345	1.201534	0.000142
1645	1.6358e+02	-14.4975	-65.871925	0.000253	2.533103	0.858239	0.000101
1646	1.6368e+02	-14.4590	-65.775034	0.000243	2.431779	0.823909	0.000097
1647	1.6378e+02	-14.4092	-65.694291	0.000203	2.026483	0.686591	0.000081
1648	1.6388e+02	-14.3755	-65.585289	0.000274	2.735752	0.926898	0.000110
1649	1.6398e+02	-14.3418	-65.423803	0.000405	4.052965	1.373182	0.000162
1650	1.6408e+02	-14.3130	-65.383432	0.000101	1.013241	0.343295	0.000041
1651	1.6418e+02	-14.2552	-65.270392	0.000284	2.837076	0.961227	0.000114
1652	1.6427e+02	-14.2183	-65.133129	0.000345	3.445020	1.167205	0.000138
1653	1.6437e+02	-14.1750	-65.060461	0.000182	1.823834	0.617932	0.000073
1654	1.6447e+02	-14.1317	-64.967607	0.000233	2.330455	0.789580	0.000093
1655	1.6457e+02	-14.0964	-64.826307	0.000355	3.546345	1.201534	0.000142
1656	1.6467e+02	-14.0563	-64.737490	0.000223	2.229131	0.755250	0.000089
1657	1.6477e+02	-14.0146	-64.640599	0.000243	2.431779	0.823909	0.000097
1658	1.6487e+02	-13.9809	-64.523522	0.000294	2.938400	0.995557	0.000118
1659	1.6497e+02	-13.9376	-64.438742	0.000213	2.127807	0.720920	0.000085
1660	1.6507e+02	-13.8991	-64.305517	0.000334	3.343696	1.132875	0.000134
1661	1.6517e+02	-13.8509	-64.184403	0.000304	3.039724	1.029886	0.000122
1662	1.6527e+02	-13.8237	-64.095586	0.000223	2.229131	0.755250	0.000089
1663	1.6537e+02	-13.7772	-64.006769	0.000223	2.229131	0.755250	0.000089
1664	1.6547e+02	-13.7354	-63.877580	0.000324	3.242372	1.098545	0.000130
1665	1.6557e+02	-13.7066	-63.788763	0.000223	2.229131	0.755250	0.000089
1666	1.6567e+02	-13.6616	-63.695909	0.000233	2.330455	0.789580	0.000093
1667	1.6577e+02	-13.6199	-63.574795	0.000304	3.039724	1.029886	0.000122
1668	1.6587e+02	-13.5862	-63.481941	0.000233	2.330455	0.789580	0.000093
1669	1.6597e+02	-13.5477	-63.413310	0.000172	1.722510	0.583602	0.000069
1670	1.6607e+02	-13.5076	-63.187230	0.000567	5.674151	1.922455	0.000227
1671	1.6616e+02	-13.4531	-63.102450	0.000213	2.127807	0.720920	0.000085
1672	1.6626e+02	-13.4194	-63.041893	0.000152	1.519862	0.514943	0.000061
1673	1.6636e+02	-13.3841	-62.949039	0.000233	2.330455	0.789580	0.000093
1674	1.6646e+02	-13.3376	-62.787554	0.000405	4.052965	1.373182	0.000162
1675	1.6656e+02	-13.2959	-62.698737	0.000223	2.229131	0.755250	0.000089
1676	1.6666e+02	-13.2654	-62.609920	0.000223	2.229131	0.755250	0.000089
1677	1.6676e+02	-13.2221	-62.569548	0.000101	1.013241	0.343295	0.000041
1678	1.6686e+02	-13.1820	-62.416137	0.000385	3.850317	1.304523	0.000154
1679	1.6696e+02	-13.1419	-62.299060	0.000294	2.938400	0.995557	0.000118
1680	1.6706e+02	-13.0986	-62.190057	0.000274	2.735752	0.926898	0.000110
1681	1.6716e+02	-13.0633	-62.089129	0.000253	2.533103	0.858239	0.000101
1682	1.6726e+02	-13.0248	-61.984164	0.000263	2.634427	0.892568	0.000105
1683	1.6736e+02	-12.9879	-61.834790	0.000375	3.748993	1.270193	0.000150
1684	1.6746e+02	-12.9462	-61.766158	0.000172	1.722510	0.583602	0.000069
1685	1.6756e+02	-12.9093	-61.673304	0.000233	2.330455	0.789580	0.000093
1686	1.6766e+02	-12.8595	-61.544116	0.000324	3.242372	1.098545	0.000130
1687	1.6776e+02	-12.8242	-61.410890	0.000334	3.343696	1.132875	0.000134
1688	1.6786e+02	-12.7841	-61.322073	0.000223	2.229131	0.755250	0.000089
1689	1.6796e+02	-12.7456	-61.221145	0.000253	2.533103	0.858239	0.000101
1690	1.6806e+02	-12.7039	-61.116179	0.000263	2.634427	0.892568	0.000105
1691	1.6816e+02	-12.6670	-60.978917	0.000345	3.445020	1.167205	0.000138
1692	1.6825e+02	-12.6269	-60.877988	0.000253	2.533103	0.858239	0.000101
1693	1.6835e+02	-12.5900	-60.793209	0.000213	2.127807	0.720920	0.000085
1694	1.6845e+02	-12.5515	-60.647872	0.000365	3.647669	1.235864	0.000146
1695	1.6855e+02	-12.5018	-60.538869	0.000274	2.735752	0.926898	0.000110
1696	1.6865e+02	-12.4633	-60.413718	0.000314	3.141048	1.064216	0.000126
1697	1.6875e+02	-12.4200	-60.312789	0.000253	2.533103	0.858239	0.000101
1698	1.6885e+02	-12.3879	-60.236084	0.000193	1.925158	0.652261	0.000077
1699	1.6895e+02	-12.3622	-60.135155	0.000253	2.533103	0.858239	0.000101
1700	1.6905e+02	-12.3045	-59.997893	0.000345	3.445020	1.167205	0.000138
1701	1.6915e+02	-12.2660	-59.860630	0.000345	3.445020	1.167205	0.000138
1702	1.6925e+02	-12.2243	-59.775850	0.000213	2.127807	0.720920	0.000085
1703	1.6935e+02	-12.1729	-59.719330	0.000142	1.418538	0.480614	0.000057
1704	1.6945e+02	-12.1473	-59.557845	0.000405	4.052965	1.373182	0.000162
1705	1.6955e+02	-12.1104	-59.464991	0.000233	2.330455	0.789580	0.000093
1706	1.6965e+02	-12.0622	-59.355988	0.000274	2.735752	0.926898	0.000110
1707	1.6975e+02	-12.0221	-59.218726	0.000345	3.445020	1.167205	0.000138
1708	1.6985e+02	-11.9820	-59.113760	0.000263	2.634427	0.892568	0.000105
1709	1.6995e+02	-11.9563	-59.024943	0.000223	2.229131	0.755250	0.000089
1710	1.7005e+02	-11.9178	-58.891718	0.000334	3.343696	1.132875	0.000134
1711	1.7015e+02	-11.8697	-58.778678	0.000284	2.837076	0.961227	0.000114
1712	1.7024e+02	-11.8248	-58.649489	0.000324	3.242372	1.098545	0.000130
1713	1.7034e+02	-11.7863	-58.492041	0.000395	3.951641	1.338852	0.000158
1714	1.7044e+02	-11.7414	-58.411298	0.000203	2.026483	0.686591	0.000081
1715	1.7054e+02	-11.7157	-58.269999	0.000355	3.546345	1.201534	0.000142
1716	1.7064e+02	-11.6740	-58.197330	0.000182	1.823834	0.617932	0.000073
1717	1.7074e+02	-11.6307	-58.080253	0.000294	2.938400	0.995557	0.000118
1718	1.7084e+02	-11.5890	-57.934916	0.000365	3.647669	1.235864	0.000146
1719	1.7094e+02	-11.5585	-57.842062	0.000233	2.330455	0.789580	0.000093
1720	1.7104e+02	-11.5040	-57.757282	0.000213	2.127807	0.720920	0.000085
1721	1.7114e+02	-11.4638	-57.591760	0.000415	4.154289	1.407511	0.000166
1722	1.7124e+02	-11.4302	-57.466609	0.000314	3.141048	1.064216	0.000126
1723	1.7134e+02	-11.3917	-57.389903	0.000193	1.925158	0.652261	0.000077
1724	1.7144e+02	-11.3532	-57.244566	0.000365	3.647669	1.235864	0.000146
1725	1.7154e+02	-11.3179	-57.155749	0.000223	2.229131	0.755250	0.000089
1726	1.7164e+02	-11.2713	-57.010412	0.000365	3.647669	1.235864	0.000146
1727	1.7174e+02	-11.2280	-56.885261	0.000314	3.141048	1.064216	0.000126
1728	1.7184e+02	-11.1975	-56.772221	0.000284	2.837076	0.961227	0.000114
1729	1.7194e+02	-11.1414	-56.626884	0.000365	3.647669	1.235864	0.000146
1730	1.7204e+02	-11.1141	-56.546142	0.000203	2.026483	0.686591	0.000081
1731	1.7213e+02	-11.0596	-56.420991	0.000314	3.141048	1.064216	0.000126
1732	1.7223e+02	-11.0387	-56.316025	0.000263	2.634427	0.892568	0.000105
1733	1.7233e+02	-10.9938	-56.178762	0.000345	3.445020	1.167205	0.000138
1734	1.7243e+02	-10.9537	-56.073797	0.000263	2.634427	0.892568	0.000105
1735	1.7253e+02	-10.9104	-55.892126	0.000456	4.559586	1.544830	0.000183
1736	1.7263e+02	-10.8623	-55.815420	0.000193	1.925158	0.652261	0.000077
1737	1.7273e+02	-10.8334	-55.738715	0.000193	1.925158	0.652261	0.000077
1738	1.7283e+02	-10.7917	-55.569155	0.000426	4.255613	1.441841	0.000170
1739	1.7293e+02	-10.7468	-55.444004	0.000314	3.141048	1.064216	0.000126
1740	1.7303e+02	-10.7195	-55.339038	0.000263	2.634427	0.892568	0.000105
1741	1.7313e+02	-10.6730	-55.193701	0.000365	3.647669	1.235864	0.000146
1742	1.7323e+02	-10.6345	-55.116996	0.000193	1.925158	0.652261	0.000077
1743	1.7333e+02	-10.5944	-54.963585	0.000385	3.850317	1.304523	0.000154
1744	1.7343e+02	-10.5478	-54.874768	0.000223	2.229131	0.755250	0.000089
1745	1.7353e+02	-10.5174	-54.721356	0.000385	3.850317	1.304523	0.000154
1746	1.7363e+02	-10.4724	-54.616391	0.000263	2.634427	0.892568	0.000105
1747	1.7373e+02	-10.4339	-54.495277	0.000304	3.039724	1.029886	0.000122
1748	1.7383e+02	-10.3922	-54.317643	0.000446	4.458262	1.510500	0.000179
1749	1.7393e+02	-10.3601	-54.261123	0.000142	1.418538	0.480614	0.000057
1750	1.7403e+02	-10.3072	-54.071378	0.000476	4.762234	1.613489	0.000191
1751	1.7413e+02	-10.2767	-53.946226	0.000314	3.141048	1.064216	0.000126
1752	1.7422e+02	-10.2350	-53.841261	0.000263	2.634427	0.892568	0.000105
1753	1.7432e+02	-10.1885	-53.712072	0.000324	3.242372	1.098545	0.000130
1754	1.7442e+02	-10.1612	-53.599033	0.000284	2.837076	0.961227	0.000114
1755	1.7452e+02	-10.1131	-53.461770	0.000345	3.445020	1.167205	0.000138
1756	1.7462e+02	-10.0858	-53.328545	0.000334	3.343696	1.132875	0.000134
1757	1.7472e+02	-10.0377	-53.191282	0.000345	3.445020	1.167205	0.000138
1758	1.7482e+02	-9.9912	-53.054019	0.000345	3.445020	1.167205	0.000138
1759	1.7492e+02	-9.9543	-52.932905	0.000304	3.039724	1.029886	0.000122
1760	1.7502e+02	-9.9093	-52.819865	0.000284	2.837076	0.961227	0.000114
1761	1.7512e+02	-9.8789	-52.710863	0.000274	2.735752	0.926898	0.000110
1762	1.7522e+02	-9.8372	-52.541303	0.000426	4.255613	1.441841	0.000170
1763	1.7532e+02	-9.7906	-52.444412	0.000243	2.431779	0.823909	0.000097
1764	1.7542e+02	-9.7585	-52.278889	0.000415	4.154289	1.407511	0.000166
1765	1.7552e+02	-9.7184	-52.141627	0.000345	3.445020	1.167205	0.000138
1766	1.7562e+02	-9.6735	-52.056847	0.000213	2.127807	0.720920	0.000085
1767	1.7572e+02	-9.6479	-51.895361	0.000405	4.052965	1.373182	0.000162
1768	1.7582e+02	-9.6013	-51.770210	0.000314	3.141048	1.064216	0.000126
1769	1.7592e+02	-9.5612	-51.645059	0.000314	3.141048	1.064216	0.000126
1770	1.7602e+02	-9.5131	-51.495685	0.000375	3.748993	1.270193	0.000150
1771	1.7612e+02	-9.4842	-51.358422	0.000345	3.445020	1.167205	0.000138
1772	1.7621e+02	-9.4393	-51.257494	0.000253	2.533103	0.858239	0.000101
1773	1.7631e+02	-9.3928	-51.116194	0.000355	3.546345	1.201534	0.000142
1774	1.7641e+02	-9.3671	-50.995080	0.000304	3.039724	1.029886	0.000122
1775	1.7651e+02	-9.3254	-50.841669	0.000385	3.850317	1.304523	0.000154
1776	1.7661e+02	-9.2725	-50.736703	0.000263	2.634427	0.892568	0.000105
1777	1.7671e+02	-9.2452	-50.595404	0.000355	3.546345	1.201534	0.000142
1778	1.7681e+02	-9.2019	-50.437955	0.000395	3.951641	1.338852	0.000158
1779	1.7691e+02	-9.1666	-50.256284	0.000456	4.559586	1.544830	0.000183
1780	1.7701e+02	-9.1233	-50.151319	0.000263	2.634427	0.892568	0.000105
1781	1.7711e+02	-9.0703	-50.042316	0.000274	2.735752	0.926898	0.000110
1782	1.7721e+02	-9.0399	-49.929276	0.000284	2.837076	0.961227	0.000114
1783	1.7731e+02	-9.0030	-49.771828	0.000395	3.951641	1.338852	0.000158
1784	1.7741e+02	-8.9580	-49.618417	0.000385	3.850317	1.304523	0.000154
1785	1.7751e+02	-8.9195	-49.525563	0.000233	2.330455	0.789580	0.000093
1786	1.7761e+02	-8.8794	-49.384263	0.000355	3.546345	1.201534	0.000142
1787	1.7771e+02	-8.8441	-49.259112	0.000314	3.141048	1.064216	0.000126
1788	1.7781e+02	-8.8056	-49.085515	0.000436	4.356938	1.476170	0.000174
1789	1.7791e+02	-8.7575	-48.960364	0.000314	3.141048	1.064216	0.000126
1790	1.7801e+02	-8.7270	-48.802915	0.000395	3.951641	1.338852	0.000158
1791	1.7810e+02	-8.6821	-48.665653	0.000345	3.445020	1.167205	0.000138
1792	1.7820e+02	-8.6436	-48.520316	0.000365	3.647669	1.235864	0.000146
1793	1.7830e+02	-8.6051	-48.346719	0.000436	4.356938	1.476170	0.000174
1794	1.7840e+02	-8.5634	-48.270013	0.000193	1.925158	0.652261	0.000077
1795	1.7850e+02	-8.5233	-48.108528	0.000405	4.052965	1.373182	0.000162
1796	1.7860e+02	-8.4816	-48.003562	0.000263	2.634427	0.892568	0.000105
1797	1.7870e+02	-8.4399	-47.850151	0.000385	3.850317	1.304523	0.000154
1798	1.7880e+02	-8.4078	-47.680592	0.000426	4.255613	1.441841	0.000170
1799	1.7890e+02	-8.3661	-47.563515	0.000294	2.938400	0.995557	0.000118
1800	1.7900e+02	-8.3276	-47.402029	0.000405	4.052965	1.373182	0.000162
1801	1.7910e+02	-8.2778	-47.280915	0.000304	3.039724	1.029886	0.000122
1802	1.7920e+02	-8.2425	-47.135578	0.000365	3.647669	1.235864	0.000146
1803	1.7930e+02	-8.2024	-46.966019	0.000426	4.255613	1.441841	0.000170
1804	1.7940e+02	-8.1607	-46.861053	0.000263	2.634427	0.892568	0.000105
1805	1.7950e+02	-8.1270	-46.711679	0.000375	3.748993	1.270193	0.000150
1806	1.7960e+02	-8.0837	-46.578454	0.000334	3.343696	1.132875	0.000134
1807	1.7970e+02	-8.0484	-46.429080	0.000375	3.748993	1.270193	0.000150
1808	1.7980e+02	-8.0019	-46.312003	0.000294	2.938400	0.995557	0.000118
1809	1.7990e+02	-7.9714	-46.126294	0.000466	4.660910	1.579159	0.000187
1810	1.8000e+02	-7.9233	-46.037477	0.000223	2.229131	0.755250	0.000089
1811	1.8009e+02	-7.8832	-45.896178	0.000355	3.546345	1.201534	0.000142
1812	1.8019e+02	-7.8447	-45.746804	0.000375	3.748993	1.270193	0.000150
1813	1.8029e+02	-7.8046	-45.613578	0.000334	3.343696	1.132875	0.000134
1814	1.8039e+02	-7.7565	-45.415758	0.000496	4.964882	1.682148	0.000199
1815	1.8049e+02	-7.7164	-45.310793	0.000263	2.634427	0.892568	0.000105
1816	1.8059e+02	-7.6907	-45.173530	0.000345	3.445020	1.167205	0.000138
1817	1.8069e+02	-7.6538	-45.040305	0.000334	3.343696	1.132875	0.000134
1818	1.8079e+02	-7.6041	-44.874782	0.000415	4.154289	1.407511	0.000166
1819	1.8089e+02	-7.5624	-44.761742	0.000284	2.837076	0.961227	0.000114
1820	1.8099e+02	-7.5287	-44.592183	0.000426	4.255613	1.441841	0.000170
1821	1.8109e+02	-7.4854	-44.467032	0.000314	3.141048	1.064216	0.000126
1822	1.8119e+02	-7.4517	-44.329769	0.000345	3.445020	1.167205	0.000138
1823	1.8129e+02	-7.3987	-44.168284	0.000405	4.052965	1.373182	0.000162
1824	1.8139e+02	-7.3714	-44.043132	0.000314	3.141048	1.064216	0.000126
1825	1.8149e+02	-7.3362	-43.901833	0.000355	3.546345	1.201534	0.000142
1826	1.8159e+02	-7.2912	-43.724199	0.000446	4.458262	1.510500	0.000179
1827	1.8169e+02	-7.2511	-43.603085	0.000304	3.039724	1.029886	0.000122
1828	1.8179e+02	-7.2046	-43.425451	0.000446	4.458262	1.510500	0.000179
1829	1.8189e+02	-7.1693	-43.340671	0.000213	2.127807	0.720920	0.000085
1830	1.8199e+02	-7.1308	-43.199371	0.000355	3.546345	1.201534	0.000142
1831	1.8209e+02	-7.0923	-43.029811	0.000426	4.255613	1.441841	0.000170
1832	1.8218e+02	-7.0570	-42.888512	0.000355	3.546345	1.201534	0.000142
1833	1.8228e+02	-7.0089	-42.767397	0.000304	3.039724	1.029886	0.000122
1834	1.8238e+02	-6.9736	-42.589763	0.000446	4.458262	1.510500	0.000179
1835	1.8248e+02	-6.9255	-42.472687	0.000294	2.938400	0.995557	0.000118
1836	1.8258e+02	-6.8902	-42.307164	0.000415	4.154289	1.407511	0.000166
1837	1.8268e+02	-6.8437	-42.173938	0.000334	3.343696	1.132875	0.000134
1838	1.8278e+02	-6.8036	-42.000342	0.000436	4.356938	1.476170	0.000174
1839	1.8288e+02	-6.7586	-41.863079	0.000345	3.445020	1.167205	0.000138
1840	1.8298e+02	-6.7265	-41.717742	0.000365	3.647669	1.235864	0.000146
1841	1.8308e+02	-6.6897	-41.568368	0.000375	3.748993	1.270193	0.000150
1842	1.8318e+02	-6.6560	-41.439180	0.000324	3.242372	1.098545	0.000130
1843	1.8328e+02	-6.6126	-41.277694	0.000405	4.052965	1.373182	0.000162
1844	1.8338e+02	-6.5677	-41.136395	0.000355	3.546345	1.201534	0.000142
1845	1.8348e+02	-6.5244	-40.987021	0.000375	3.748993	1.270193	0.000150
1846	1.8358e+02	-6.4875	-40.797275	0.000476	4.762234	1.613489	0.000191
1847	1.8368e+02	-6.4570	-40.712495	0.000213	2.127807	0.720920	0.000085
1848	1.8378e+02	-6.4153	-40.538899	0.000436	4.356938	1.476170	0.000174
1849	1.8388e+02	-6.3832	-40.377413	0.000405	4.052965	1.373182	0.000162
1850	1.8398e+02	-6.3303	-40.219965	0.000395	3.951641	1.338852	0.000158
1851	1.8407e+02	-6.2918	-40.094814	0.000314	3.141048	1.064216	0.000126
1852	1.8417e+02	-6.2549	-39.965625	0.000324	3.242372	1.098545	0.000130
1853	1.8427e+02	-6.2068	-39.816251	0.000375	3.748993	1.270193	0.000150
1854	1.8437e+02	-6.1651	-39.646692	0.000426	4.255613	1.441841	0.000170
1855	1.8447e+02	-6.1314	-39.521540	0.000314	3.141048	1.064216	0.000126
1856	1.8457e+02	-6.0881	-39.388315	0.000334	3.343696	1.132875	0.000134
1857	1.8467e+02	-6.0608	-39.210681	0.000446	4.458262	1.510500	0.000179
1858	1.8477e+02	-6.0159	-39.033047	0.000446	4.458262	1.510500	0.000179
1859	1.8487e+02	-5.9806	-38.867524	0.000415	4.154289	1.407511	0.000166
1860	1.8497e+02	-5.9325	-38.746410	0.000304	3.039724	1.029886	0.000122
1861	1.8507e+02	-5.8875	-38.580888	0.000415	4.154289	1.407511	0.000166
1862	1.8517e+02	-5.8651	-38.455736	0.000314	3.141048	1.064216	0.000126
1863	1.8527e+02	-5.8202	-38.278103	0.000446	4.458262	1.510500	0.000179
1864	1.8537e+02	-5.7768	-38.108543	0.000426	4.255613	1.441841	0.000170
1865	1.8547e+02	-5.7303	-37.971280	0.000345	3.445020	1.167205	0.000138
1866	1.8557e+02	-5.6886	-37.825943	0.000365	3.647669	1.235864	0.000146
1867	1.8567e+02	-5.6517	-37.704829	0.000304	3.039724	1.029886	0.000122
1868	1.8577e+02	-5.6068	-37.523158	0.000456	4.559586	1.544830	0.000183
1869	1.8587e+02	-5.5859	-37.393970	0.000324	3.242372	1.098545	0.000130
1870	1.8597e+02	-5.5426	-37.208262	0.000466	4.660910	1.579159	0.000187
1871	1.8606e+02	-5.4977	-37.087147	0.000304	3.039724	1.029886	0.000122
1872	1.8616e+02	-5.4560	-36.909513	0.000446	4.458262	1.510500	0.000179
1873	1.8626e+02	-5.4287	-36.764177	0.000365	3.647669	1.235864	0.000146
1874	1.8636e+02	-5.3838	-36.598654	0.000415	4.154289	1.407511	0.000166
1875	1.8646e+02	-5.3357	-36.481577	0.000294	2.938400	0.995557	0.000118
1876	1.8656e+02	-5.2876	-36.275683	0.000517	5.167531	1.750807	0.000207
1877	1.8666e+02	-5.2587	-36.142458	0.000334	3.343696	1.132875	0.000134
1878	1.8676e+02	-5.2154	-36.013269	0.000324	3.242372	1.098545	0.000130
1879	1.8686e+02	-5.1833	-35.831598	0.000456	4.559586	1.544830	0.000183
1880	1.8696e+02	-5.1416	-35.662039	0.000426	4.255613	1.441841	0.000170
1881	1.8706e+02	-5.0999	-35.524776	0.000345	3.445020	1.167205	0.000138
1882	1.8716e+02	-5.0581	-35.363290	0.000405	4.052965	1.373182	0.000162
1883	1.8726e+02	-5.0164	-35.197768	0.000415	4.154289	1.407511	0.000166
1884	1.8736e+02	-4.9844	-35.036283	0.000405	4.052965	1.373182	0.000162
1885	1.8746e+02	-4.9426	-34.890946	0.000365	3.647669	1.235864	0.000146
1886	1.8756e+02	-4.8913	-34.737534	0.000385	3.850317	1.304523	0.000154
1887	1.8766e+02	-4.8688	-34.572012	0.000415	4.154289	1.407511	0.000166
1888	1.8776e+02	-4.8175	-34.410526	0.000405	4.052965	1.373182	0.000162
1889	1.8786e+02	-4.7774	-34.232892	0.000446	4.458262	1.510500	0.000179
1890	1.8796e+02	-4.7389	-34.083518	0.000375	3.748993	1.270193	0.000150
1891	1.8806e+02	-4.6972	-33.922033	0.000405	4.052965	1.373182	0.000162
1892	1.8815e+02	-4.6571	-33.748436	0.000436	4.356938	1.476170	0.000174
1893	1.8825e+02	-4.6250	-33.595025	0.000385	3.850317	1.304523	0.000154
1894	1.8835e+02	-4.5737	-33.401243	0.000486	4.863558	1.647818	0.000195
1895	1.8845e+02	-4.5336	-33.251869	0.000375	3.748993	1.270193	0.000150
1896	1.8855e+02	-4.4967	-33.082309	0.000426	4.255613	1.441841	0.000170
1897	1.8865e+02	-4.4678	-32.916786	0.000415	4.154289	1.407511	0.000166
1898	1.8875e+02	-4.4213	-32.747227	0.000426	4.255613	1.441841	0.000170
1899	1.8885e+02	-4.3780	-32.589778	0.000395	3.951641	1.338852	0.000158
1900	1.8895e+02	-4.3394	-32.400033	0.000476	4.762234	1.613489	0.000191
1901	1.8905e+02	-4.2929	-32.258733	0.000355	3.546345	1.201534	0.000142
1902	1.8915e+02	-4.2544	-32.085136	0.000436	4.356938	1.476170	0.000174
1903	1.8925e+02	-4.2159	-31.976134	0.000274	2.735752	0.926898	0.000110
1904	1.8935e+02	-4.1726	-31.754091	0.000557	5.572827	1.888125	0.000223
1905	1.8945e+02	-4.1357	-31.560309	0.000486	4.863558	1.647818	0.000195
1906	1.8955e+02	-4.1084	-31.427083	0.000334	3.343696	1.132875	0.000134
1907	1.8965e+02	-4.0699	-31.237338	0.000476	4.762234	1.613489	0.000191
1908	1.8975e+02	-4.0218	-31.075852	0.000405	4.052965	1.373182	0.000162
1909	1.8985e+02	-3.9817	-30.930515	0.000365	3.647669	1.235864	0.000146
1910	1.8995e+02	-3.9352	-30.724622	0.000517	5.167531	1.750807	0.000207
1911	1.9004e+02	-3.8999	-30.571210	0.000385	3.850317	1.304523	0.000154
1912	1.9014e+02	-3.8598	-30.381465	0.000476	4.762234	1.613489	0.000191
1913	1.9024e+02	-3.8261	-30.240165	0.000355	3.546345	1.201534	0.000142
1914	1.9034e+02	-3.7876	-30.054457	0.000466	4.660910	1.579159	0.000187
1915	1.9044e+02	-3.7475	-29.880860	0.000436	4.356938	1.476170	0.000174
1916	1.9054e+02	-3.7042	-29.719375	0.000405	4.052965	1.373182	0.000162
1917	1.9064e+02	-3.6657	-29.501369	0.000547	5.471503	1.853795	0.000219
1918	1.9074e+02	-3.6304	-29.327773	0.000436	4.356938	1.476170	0.000174
1919	1.9084e+02	-3.5839	-29.166287	0.000405	4.052965	1.373182	0.000162
1920	1.9094e+02	-3.5486	-28.988653	0.000446	4.458262	1.510500	0.000179
1921	1.9104e+02	-3.5036	-28.835242	0.000385	3.850317	1.304523	0.000154
1922	1.9114e+02	-3.4700	-28.629348	0.000517	5.167531	1.750807	0.000207
1923	1.9124e+02	-3.4218	-28.492085	0.000345	3.445020	1.167205	0.000138
1924	1.9134e+02	-3.3946	-28.314451	0.000446	4.458262	1.510500	0.000179
1925	1.9144e+02	-3.3400	-28.112595	0.000507	5.066207	1.716477	0.000203
1926	1.9154e+02	-3.2951	-27.943035	0.000426	4.255613	1.441841	0.000170
1927	1.9164e+02	-3.2726	-27.765401	0.000446	4.458262	1.510500	0.000179
1928	1.9174e+02	-3.2197	-27.603916	0.000405	4.052965	1.373182	0.000162
1929	1.9184e+02	-3.1796	-27.430319	0.000436	4.356938	1.476170	0.000174
1930	1.9194e+02	-3.1491	-27.264796	0.000415	4.154289	1.407511	0.000166
1931	1.9203e+02	-3.1106	-27.083125	0.000456	4.559586	1.544830	0.000183
1932	1.9213e+02	-3.0657	-26.873194	0.000527	5.268855	1.785136	0.000211
1933	1.9223e+02	-3.0288	-26.756117	0.000294	2.938400	0.995557	0.000118
1934	1.9233e+02	-2.9919	-26.530038	0.000567	5.674151	1.922455	0.000227
1935	1.9243e+02	-2.9486	-26.364515	0.000415	4.154289	1.407511	0.000166
1936	1.9253e+02	-2.9053	-26.190918	0.000436	4.356938	1.476170	0.000174
1937	1.9263e+02	-2.8636	-25.968876	0.000557	5.572827	1.888125	0.000223
1938	1.9273e+02	-2.8299	-25.811427	0.000395	3.951641	1.338852	0.000158
1939	1.9283e+02	-2.7946	-25.597459	0.000537	5.370179	1.819466	0.000215
1940	1.9293e+02	-2.7432	-25.464234	0.000334	3.343696	1.132875	0.000134
1941	1.9303e+02	-2.7176	-25.226043	0.000598	5.978124	2.025443	0.000239
1942	1.9313e+02	-2.6662	-25.100891	0.000314	3.141048	1.064216	0.000126
1943	1.9323e+02	-2.6293	-24.858663	0.000608	6.079448	2.059773	0.000243
1944	1.9333e+02	-2.5924	-24.729475	0.000324	3.242372	1.098545	0.000130
1945	1.9343e+02	-2.5571	-24.499358	0.000578	5.775475	1.956784	0.000231
1946	1.9353e+02	-2.5090	-24.370170	0.000324	3.242372	1.098545	0.000130
1947	1.9363e+02	-2.4625	-24.152165	0.000547	5.471503	1.853795	0.000219
1948	1.9373e+02	-2.4256	-23.970493	0.000456	4.559586	1.544830	0.000183
1949	1.9383e+02	-2.3871	-23.800934	0.000426	4.255613	1.441841	0.000170
1950	1.9393e+02	-2.3390	-23.586966	0.000537	5.370179	1.819466	0.000215
1951	1.9403e+02	-2.3149	-23.397220	0.000476	4.762234	1.613489	0.000191
1952	1.9412e+02	-2.2652	-23.239772	0.000395	3.951641	1.338852	0.000158
1953	1.9422e+02	-2.2267	-23.009655	0.000578	5.775475	1.956784	0.000231
1954	1.9432e+02	-2.1866	-22.852207	0.000395	3.951641	1.338852	0.000158
1955	1.9442e+02	-2.1368	-22.650350	0.000507	5.066207	1.716477	0.000203
1956	1.9452e+02	-2.1144	-22.488865	0.000405	4.052965	1.373182	0.000162
1957	1.9462e+02	-2.0711	-22.287008	0.000507	5.066207	1.716477	0.000203
1958	1.9472e+02	-2.0294	-22.093225	0.000486	4.863558	1.647818	0.000195
1959	1.9482e+02	-1.9876	-21.879257	0.000537	5.370179	1.819466	0.000215
1960	1.9492e+02	-1.9540	-21.713735	0.000415	4.154289	1.407511	0.000166
1961	1.9502e+02	-1.9122	-21.507841	0.000517	5.167531	1.750807	0.000207
1962	1.9512e+02	-1.8625	-21.318095	0.000476	4.762234	1.613489	0.000191
1963	1.9522e+02	-1.8272	-21.112201	0.000517	5.167531	1.750807	0.000207
1964	1.9532e+02	-1.7919	-20.946679	0.000415	4.154289	1.407511	0.000166
1965	1.9542e+02	-1.7486	-20.760971	0.000466	4.660910	1.579159	0.000187
1966	1.9552e+02	-1.7117	-20.555077	0.000517	5.167531	1.750807	0.000207
1967	1.9562e+02	-1.6764	-20.373406	0.000456	4.559586	1.544830	0.000183
1968	1.9572e+02	-1.6299	-20.228069	0.000365	3.647669	1.235864	0.000146
1969	1.9582e+02	-1.5914	-19.977766	0.000628	6.282096	2.128432	0.000252
1970	1.9592e+02	-1.5561	-19.844541	0.000334	3.343696	1.132875	0.000134
1971	1.9601e+02	-1.5096	-19.626535	0.000547	5.471503	1.853795	0.000219
1972	1.9611e+02	-1.4791	-19.396419	0.000578	5.775475	1.956784	0.000231
1973	1.9621e+02	-1.4342	-19.226859	0.000426	4.255613	1.441841	0.000170
1974	1.9631e+02	-1.3877	-19.016928	0.000527	5.268855	1.785136	0.000211
1975	1.9641e+02	-1.3540	-18.863517	0.000385	3.850317	1.304523	0.000154
1976	1.9651e+02	-1.3107	-18.637437	0.000567	5.674151	1.922455	0.000227
1977	1.9661e+02	-1.2754	-18.484026	0.000385	3.850317	1.304523	0.000154
1978	1.9671e+02	-1.2353	-18.286206	0.000496	4.964882	1.682148	0.000199
1979	1.9681e+02	-1.1903	-18.092424	0.000486	4.863558	1.647818	0.000195
1980	1.9691e+02	-1.1567	-17.882493	0.000527	5.268855	1.785136	0.000211
1981	1.9701e+02	-1.1182	-17.704859	0.000446	4.458262	1.510500	0.000179
1982	1.9711e+02	-1.0732	-17.503002	0.000507	5.066207	1.716477	0.000203
1983	1.9721e+02	-1.0331	-17.345554	0.000395	3.951641	1.338852	0.000158
1984	1.9731e+02	-0.9946	-17.115437	0.000578	5.775475	1.956784	0.000231
1985	1.9741e+02	-0.9625	-16.949914	0.000415	4.154289	1.407511	0.000166
1986	1.9751e+02	-0.9176	-16.780355	0.000426	4.255613	1.441841	0.000170
1987	1.9761e+02	-0.8727	-16.578498	0.000507	5.066207	1.716477	0.000203
1988	1.9771e+02	-0.8390	-16.356455	0.000557	5.572827	1.888125	0.000223
1989	1.9781e+02	-0.7909	-16.166710	0.000476	4.762234	1.613489	0.000191
1990	1.9791e+02	-0.7572	-15.972928	0.000486	4.863558	1.647818	0.000195
1991	1.9800e+02	-0.7187	-15.775108	0.000496	4.964882	1.682148	0.000199
1992	1.9810e+02	-0.6706	-15.621697	0.000385	3.850317	1.304523	0.000154
1993	1.9820e+02	-0.6337	-15.391580	0.000578	5.775475	1.956784	0.000231
1994	1.9830e+02	-0.5952	-15.201835	0.000476	4.762234	1.613489	0.000191
1995	1.9840e+02	-0.5454	-15.016126	0.000466	4.660910	1.579159	0.000187
1996	1.9850e+02	-0.5101	-14.842530	0.000436	4.356938	1.476170	0.000174
1997	1.9860e+02	-0.4877	-14.648747	0.000486	4.863558	1.647818	0.000195
1998	1.9870e+02	-0.4364	-14.438816	0.000527	5.268855	1.785136	0.000211
1999	1.9880e+02	-0.3962	-14.204662	0.000588	5.876800	1.991114	0.000235
2000	1.9890e+02	-0.3545	-14.047214	0.000395	3.951641	1.338852	0.000158
2001	1.9900e+02	-0.3096	-13.817097	0.000578	5.775475	1.956784	0.000231
2002	1.9910e+02	-0.2759	-13.687909	0.000324	3.242372	1.098545	0.000130
2003	1.9920e+02	-0.2342	-13.469903	0.000547	5.471503	1.853795	0.000219
2004	1.9930e+02	-0.1989	-13.288232	0.000456	4.559586	1.544830	0.000183
2005	1.9940e+02	-0.1524	-13.086375	0.000507	5.066207	1.716477	0.000203
2006	1.9950e+02	-0.1251	-12.864333	0.000557	5.572827	1.888125	0.000223
2007	1.9960e+02	-0.0770	-12.710922	0.000385	3.850317	1.304523	0.000154
2008	1.9970e+02	-0.0449	-12.496954	0.000537	5.370179	1.819466	0.000215
2009	1.9980e+02	0.0080	-12.287023	0.000537	5.370179	1.819466	0.000211

Center data before PMax,+/-Pr and +/-Vc Calc.

PMax (uC/cm2):	7.62e+01
Pr (uC/cm2):	4.76e+00
-Pr (uC/cm2):	-1.23e+01
PLoss (uC/cm2):	-1.06e+01
Vc:	3.67e-01
-Vc:	-9.50e-01
C (Max-Eff) (nF):	3.81e-01
K (Eff):	1.29e+03
Vert. (+/-Pr) Shift (uC/cm2):	-3.77e+00
Horiz. Shift (+/-Vc):	-2.92e-01
Offset (uC/cm2):	1.62e+00

A (Loop Area - uC/cm2·Volts):	1.68e-01



Hysteresis Version: 5.48.1 - Radiant Technologies, Inc., 1999 - 9/12/24

