»»»»»»»»»»»»»»»»»»»»»»»»»»»»»»»»»»»» Hysteresis ««««««««««««««««««««««««««««««««««««
»»»  Executed Version:	5.48.1
»»»  Vision Version:	5.48.4 (R)
»»»  Vision Compiled:	9/18/24
»»»  Driver Version:	5.47.0
»»»  Windows Version:	Windows 8 or 8.1
»»»  Processor Information:	x86 (AMD or Intel) - 32 Processors
»»»  Tester Name:	PMF21124-494 (100V)
»»»  Tester S/N:	PMF21124-494
»»»  Internal Amp Type:	100V RevK 270k
»»»  Internal Amp S/N:	iAB2-596/K     
»»»  Execution Count:	1
»»»»»»»»»»»»»»»»»»»»»»»»»»»»»»»»»»»»»»»»»»««««««««««««««««««««««««««««««««««««««««««

Stored:	6/13/2025 - 17:31:46
Configured:	06/13/25 05:21:47 PM
Executed:	06/13/25 05:31:09 PM

»»»»»»»»»»»»»»»»»»»»»»»»»»»»»»»»»»» Sample Info ««««««««««««««««««««««««««««««««««««
Sample Name:	
Lot Name:	
Wafer Name:	
Die Row/Column:	0/0
Capacitor Number:	0
Sample Area (cm2):	1.00e-04
Sample Thickness (microns):	3.00e-01

Amplifier:	Internal

»»»»»»»»»»»»»»»»»»»»»»»»»»»»»»»»»»» Tester Info «««««««««««««««««««««««««««««««««««
Tester Name:	PMF21124-494 (100V)
Tester Serial Number:	PMF21124-494
Return Signal Amp. Level:	0.19 [Index: 3]

»»»»»»»»»»»»»»»»»»»»»»»»»»»»»»»» Hysteresis Info ««««««««««««««««««««««««««««««««««
Task Name:	Hyst-2150
Volts:	20.00
Field:	666.67 (kV/cm)
DCBias:	0.00
DCField:	0.00 (kV/cm)
Hysteresis Period (ms):	2.00e+02
Preset:	Enabled
Preset Delay (ms):	1.00e+03
Profile:	Standard Bipolar

»»»»»»»»»»»»»»»»»»»»»»»»»»»»»»»»»»»»»» Data «««««««««««««««««««««««««««««««««««««««
Points:	2009

Valid Data

Point	Time (ms)	Drive Voltage	Measured Polarization (uC/cm2)	Capacitance (uF)	Normalized Capacitance (uF/cm2)	Dielectric Constant	Instantaneous Current (mA)
   1	0.0000e+00	-0.0080	-2.920868	0.000000	0.000000	0.000000	0.000000
   2	9.9500e-02	0.0080	-2.920868	0.000000	0.000000	0.000000	0.000000
   3	1.9900e-01	0.0626	-2.888571	0.000081	0.810707	0.274675	0.000032
   4	2.9850e-01	0.0995	-2.920868	-0.000081	-0.810707	-0.274675	-0.000032
   5	3.9800e-01	0.1332	-2.892608	0.000071	0.709368	0.240341	0.000028
   6	4.9750e-01	0.1733	-2.916831	-0.000061	-0.608030	-0.206006	-0.000024
   7	5.9700e-01	0.2102	-2.900682	0.000041	0.405353	0.137337	0.000016
   8	6.9650e-01	0.2583	-2.904719	-0.000010	-0.101338	-0.034334	-0.000004
   9	7.9600e-01	0.2984	-2.900682	0.000010	0.101338	0.034334	0.000004
  10	8.9550e-01	0.3465	-2.896645	0.000010	0.101338	0.034334	0.000004
  11	9.9500e-01	0.3898	-2.856274	0.000101	1.013384	0.343344	0.000041
  12	1.0945e+00	0.4123	-2.815902	0.000101	1.013384	0.343344	0.000041
  13	1.1940e+00	0.4572	-2.767457	0.000122	1.216060	0.412012	0.000049
  14	1.2935e+00	0.4941	-2.771494	-0.000010	-0.101338	-0.034334	-0.000004
  15	1.3930e+00	0.5294	-2.710937	0.000152	1.520075	0.515015	0.000061
  16	1.4925e+00	0.5807	-2.634231	0.000193	1.925429	0.652353	0.000077
  17	1.5920e+00	0.6192	-2.553488	0.000203	2.026767	0.686687	0.000081
  18	1.6915e+00	0.6625	-2.460634	0.000233	2.330782	0.789690	0.000093
  19	1.7910e+00	0.6994	-2.387966	0.000182	1.824090	0.618019	0.000073
  20	1.8905e+00	0.7396	-2.238592	0.000375	3.749519	1.270371	0.000150
  21	1.9900e+00	0.7748	-2.149775	0.000223	2.229444	0.755356	0.000089
  22	2.0895e+00	0.8069	-2.036735	0.000284	2.837474	0.961362	0.000114
  23	2.1890e+00	0.8583	-1.935807	0.000253	2.533459	0.858359	0.000101
  24	2.2885e+00	0.9000	-1.806618	0.000324	3.242827	1.098700	0.000130
  25	2.3880e+00	0.9353	-1.709727	0.000243	2.432121	0.824025	0.000097
  26	2.4875e+00	0.9882	-1.568427	0.000355	3.546842	1.201703	0.000142
  27	2.5870e+00	1.0107	-1.398868	0.000426	4.256211	1.442043	0.000170
  28	2.6865e+00	1.0572	-1.293902	0.000263	2.634797	0.892693	0.000105
  29	2.7860e+00	1.1069	-1.164714	0.000324	3.242827	1.098700	0.000130
  30	2.8855e+00	1.1390	-1.047637	0.000294	2.938812	0.995697	0.000118
  31	2.9850e+00	1.1727	-0.865966	0.000456	4.560226	1.545046	0.000183
  32	3.0845e+00	1.2192	-0.736777	0.000324	3.242827	1.098700	0.000130
  33	3.1840e+00	1.2641	-0.595478	0.000355	3.546842	1.201703	0.000142
  34	3.2835e+00	1.3042	-0.417844	0.000446	4.458888	1.510712	0.000179
  35	3.3830e+00	1.3379	-0.252321	0.000415	4.154873	1.407709	0.000166
  36	3.4825e+00	1.3796	-0.131207	0.000304	3.040151	1.030031	0.000122
  37	3.5820e+00	1.4101	0.066613	0.000497	4.965579	1.682384	0.000199
  38	3.6815e+00	1.4534	0.175615	0.000274	2.736136	0.927028	0.000110
  39	3.7810e+00	1.4935	0.365361	0.000476	4.762903	1.613715	0.000191
  40	3.8805e+00	1.5304	0.514735	0.000375	3.749519	1.270371	0.000150
  41	3.9800e+00	1.5689	0.712554	0.000497	4.965579	1.682384	0.000199
  42	4.0795e+00	1.6235	0.865966	0.000385	3.850857	1.304706	0.000154
  43	4.1790e+00	1.6427	1.043600	0.000446	4.458888	1.510712	0.000179
  44	4.2785e+00	1.6941	1.197011	0.000385	3.850857	1.304706	0.000154
  45	4.3780e+00	1.7374	1.382719	0.000466	4.661564	1.579381	0.000187
  46	4.4775e+00	1.7743	1.548242	0.000415	4.154873	1.407709	0.000166
  47	4.5770e+00	1.8160	1.729913	0.000456	4.560226	1.545046	0.000183
  48	4.6765e+00	1.8497	1.899472	0.000426	4.256211	1.442043	0.000170
  49	4.7760e+00	1.8882	2.077106	0.000446	4.458888	1.510712	0.000179
  50	4.8755e+00	1.9363	2.262815	0.000466	4.661564	1.579381	0.000187
  51	4.9750e+00	1.9748	2.392003	0.000324	3.242827	1.098700	0.000130
  52	5.0745e+00	2.0197	2.593860	0.000507	5.066918	1.716718	0.000203
  53	5.1740e+00	2.0550	2.747271	0.000385	3.850857	1.304706	0.000154
  54	5.2735e+00	2.0983	2.928942	0.000456	4.560226	1.545046	0.000183
  55	5.3730e+00	2.1400	3.098502	0.000426	4.256211	1.442043	0.000170
  56	5.4725e+00	2.1673	3.284210	0.000466	4.661564	1.579381	0.000187
  57	5.5720e+00	2.2026	3.445695	0.000405	4.053534	1.373375	0.000162
  58	5.6715e+00	2.2539	3.603144	0.000395	3.952196	1.339040	0.000158
  59	5.7710e+00	2.2876	3.752518	0.000375	3.749519	1.270371	0.000150
  60	5.8705e+00	2.3342	3.954374	0.000507	5.066918	1.716718	0.000203
  61	5.9700e+00	2.3662	4.107786	0.000385	3.850857	1.304706	0.000154
  62	6.0695e+00	2.4128	4.297531	0.000476	4.762903	1.613715	0.000191
  63	6.1690e+00	2.4545	4.463054	0.000415	4.154873	1.407709	0.000166
  64	6.2685e+00	2.4978	4.616465	0.000385	3.850857	1.304706	0.000154
  65	6.3680e+00	2.5267	4.830433	0.000537	5.370933	1.819721	0.000215
  66	6.4675e+00	2.5716	4.971733	0.000355	3.546842	1.201703	0.000142
  67	6.5670e+00	2.6149	5.137255	0.000415	4.154873	1.407709	0.000166
  68	6.6665e+00	2.6550	5.355261	0.000547	5.472271	1.854056	0.000219
  69	6.7660e+00	2.6871	5.488486	0.000334	3.344166	1.133034	0.000134
  70	6.8655e+00	2.7304	5.649971	0.000405	4.053534	1.373375	0.000162
  71	6.9650e+00	2.7721	5.795308	0.000365	3.648181	1.236037	0.000146
  72	7.0645e+00	2.8106	5.976979	0.000456	4.560226	1.545046	0.000183
  73	7.1640e+00	2.8571	6.146539	0.000426	4.256211	1.442043	0.000170
  74	7.2635e+00	2.8892	6.348396	0.000507	5.066918	1.716718	0.000203
  75	7.3630e+00	2.9357	6.481621	0.000334	3.344166	1.133034	0.000134
  76	7.4625e+00	2.9662	6.643107	0.000405	4.053534	1.373375	0.000162
  77	7.5620e+00	3.0047	6.861112	0.000547	5.472271	1.854056	0.000219
  78	7.6615e+00	3.0513	7.026635	0.000415	4.154873	1.407709	0.000166
  79	7.7610e+00	3.0753	7.204269	0.000446	4.458888	1.510712	0.000179
  80	7.8605e+00	3.1283	7.373828	0.000426	4.256211	1.442043	0.000170
  81	7.9600e+00	3.1716	7.555500	0.000456	4.560226	1.545046	0.000183
  82	8.0595e+00	3.2101	7.737171	0.000456	4.560226	1.545046	0.000183
  83	8.1590e+00	3.2502	7.922879	0.000466	4.661564	1.579381	0.000187
  84	8.2585e+00	3.2967	8.096476	0.000436	4.357549	1.476378	0.000174
  85	8.3580e+00	3.3352	8.245850	0.000375	3.749519	1.270371	0.000150
  86	8.4575e+00	3.3641	8.488078	0.000608	6.080301	2.060062	0.000243
  87	8.5570e+00	3.4074	8.633415	0.000365	3.648181	1.236037	0.000146
  88	8.6565e+00	3.4459	8.790863	0.000395	3.952196	1.339040	0.000158
  89	8.7560e+00	3.4908	9.016943	0.000567	5.674948	1.922724	0.000227
  90	8.8555e+00	3.5325	9.162280	0.000365	3.648181	1.236037	0.000146
  91	8.9550e+00	3.5662	9.339914	0.000446	4.458888	1.510712	0.000179
  92	9.0545e+00	3.6095	9.533696	0.000486	4.864241	1.648049	0.000195
  93	9.1540e+00	3.6528	9.683070	0.000375	3.749519	1.270371	0.000150
  94	9.2535e+00	3.6881	9.856667	0.000436	4.357549	1.476378	0.000174
  95	9.3530e+00	3.7234	10.054487	0.000497	4.965579	1.682384	0.000199
  96	9.4525e+00	3.7732	10.236158	0.000456	4.560226	1.545046	0.000183
  97	9.5520e+00	3.8068	10.438014	0.000507	5.066918	1.716718	0.000203
  98	9.6515e+00	3.8437	10.599500	0.000405	4.053534	1.373375	0.000162
  99	9.7510e+00	3.8935	10.813468	0.000537	5.370933	1.819721	0.000215
 100	9.8505e+00	3.9223	10.946694	0.000334	3.344166	1.133034	0.000134
 101	9.9500e+00	3.9705	11.140476	0.000486	4.864241	1.648049	0.000195
 102	1.0050e+01	4.0122	11.350407	0.000527	5.269594	1.785387	0.000211
 103	1.0149e+01	4.0475	11.536115	0.000466	4.661564	1.579381	0.000187
 104	1.0248e+01	4.0748	11.721824	0.000466	4.661564	1.579381	0.000187
 105	1.0348e+01	4.1357	11.867161	0.000365	3.648181	1.236037	0.000146
 106	1.0447e+01	4.1678	12.064980	0.000497	4.965579	1.682384	0.000199
 107	1.0547e+01	4.2159	12.254726	0.000476	4.762903	1.613715	0.000191
 108	1.0646e+01	4.2432	12.420248	0.000415	4.154873	1.407709	0.000166
 109	1.0746e+01	4.2801	12.601919	0.000456	4.560226	1.545046	0.000183
 110	1.0845e+01	4.3250	12.763405	0.000405	4.053534	1.373375	0.000162
 111	1.0945e+01	4.3651	12.969299	0.000517	5.168256	1.751053	0.000207
 112	1.1044e+01	4.3988	13.142895	0.000436	4.357549	1.476378	0.000174
 113	1.1144e+01	4.4437	13.320529	0.000446	4.458888	1.510712	0.000179
 114	1.1243e+01	4.4870	13.506238	0.000466	4.661564	1.579381	0.000187
 115	1.1343e+01	4.5287	13.691946	0.000466	4.661564	1.579381	0.000187
 116	1.1443e+01	4.5721	13.869580	0.000446	4.458888	1.510712	0.000179
 117	1.1542e+01	4.6058	14.010880	0.000355	3.546842	1.201703	0.000142
 118	1.1642e+01	4.6394	14.196588	0.000466	4.661564	1.579381	0.000187
 119	1.1741e+01	4.6860	14.394407	0.000497	4.965579	1.682384	0.000199
 120	1.1841e+01	4.7164	14.559930	0.000415	4.154873	1.407709	0.000166
 121	1.1940e+01	4.7582	14.741601	0.000456	4.560226	1.545046	0.000183
 122	1.2040e+01	4.8047	14.939421	0.000497	4.965579	1.682384	0.000199
 123	1.2139e+01	4.8400	15.125129	0.000466	4.661564	1.579381	0.000187
 124	1.2239e+01	4.8801	15.322949	0.000497	4.965579	1.682384	0.000199
 125	1.2338e+01	4.9202	15.504620	0.000456	4.560226	1.545046	0.000183
 126	1.2438e+01	4.9667	15.645920	0.000355	3.546842	1.201703	0.000142
 127	1.2537e+01	5.0068	15.871999	0.000567	5.674948	1.922724	0.000227
 128	1.2636e+01	5.0405	16.001187	0.000324	3.242827	1.098700	0.000130
 129	1.2736e+01	5.0790	16.211119	0.000527	5.269594	1.785387	0.000211
 130	1.2835e+01	5.1255	16.356455	0.000365	3.648181	1.236037	0.000146
 131	1.2935e+01	5.1480	16.570424	0.000537	5.370933	1.819721	0.000215
 132	1.3034e+01	5.2041	16.731909	0.000405	4.053534	1.373375	0.000162
 133	1.3134e+01	5.2410	16.917617	0.000466	4.661564	1.579381	0.000187
 134	1.3233e+01	5.2795	17.111400	0.000486	4.864241	1.648049	0.000195
 135	1.3333e+01	5.3180	17.309219	0.000497	4.965579	1.682384	0.000199
 136	1.3432e+01	5.3565	17.507039	0.000497	4.965579	1.682384	0.000199
 137	1.3532e+01	5.3998	17.652376	0.000365	3.648181	1.236037	0.000146
 138	1.3632e+01	5.4383	17.821936	0.000426	4.256211	1.442043	0.000170
 139	1.3731e+01	5.4817	18.011681	0.000476	4.762903	1.613715	0.000191
 140	1.3831e+01	5.5218	18.233724	0.000557	5.573610	1.888390	0.000223
 141	1.3930e+01	5.5635	18.403283	0.000426	4.256211	1.442043	0.000170
 142	1.4030e+01	5.6068	18.584954	0.000456	4.560226	1.545046	0.000183
 143	1.4129e+01	5.6485	18.746440	0.000405	4.053534	1.373375	0.000162
 144	1.4229e+01	5.6886	18.916000	0.000426	4.256211	1.442043	0.000170
 145	1.4328e+01	5.7223	19.085559	0.000426	4.256211	1.442043	0.000170
 146	1.4428e+01	5.7528	19.295490	0.000527	5.269594	1.785387	0.000211
 147	1.4527e+01	5.7993	19.452939	0.000395	3.952196	1.339040	0.000158
 148	1.4627e+01	5.8458	19.646721	0.000486	4.864241	1.648049	0.000195
 149	1.4726e+01	5.8779	19.820318	0.000436	4.357549	1.476378	0.000174
 150	1.4825e+01	5.9180	20.018138	0.000497	4.965579	1.682384	0.000199
 151	1.4925e+01	5.9597	20.143289	0.000314	3.141489	1.064365	0.000126
 152	1.5024e+01	6.0062	20.357257	0.000537	5.370933	1.819721	0.000215
 153	1.5124e+01	6.0335	20.555077	0.000497	4.965579	1.682384	0.000199
 154	1.5223e+01	6.0833	20.716562	0.000405	4.053534	1.373375	0.000162
 155	1.5323e+01	6.1169	20.894196	0.000446	4.458888	1.510712	0.000179
 156	1.5422e+01	6.1619	21.051644	0.000395	3.952196	1.339040	0.000158
 157	1.5522e+01	6.2020	21.241390	0.000476	4.762903	1.613715	0.000191
 158	1.5621e+01	6.2405	21.394801	0.000385	3.850857	1.304706	0.000154
 159	1.5721e+01	6.2822	21.576472	0.000456	4.560226	1.545046	0.000183
 160	1.5820e+01	6.3175	21.766217	0.000476	4.762903	1.613715	0.000191
 161	1.5920e+01	6.3576	21.943851	0.000446	4.458888	1.510712	0.000179
 162	1.6020e+01	6.3945	22.117448	0.000436	4.357549	1.476378	0.000174
 163	1.6119e+01	6.4346	22.307194	0.000476	4.762903	1.613715	0.000191
 164	1.6218e+01	6.4635	22.496939	0.000476	4.762903	1.613715	0.000191
 165	1.6318e+01	6.5180	22.634202	0.000345	3.445504	1.167368	0.000138
 166	1.6418e+01	6.5581	22.803761	0.000426	4.256211	1.442043	0.000170
 167	1.6517e+01	6.5998	22.941024	0.000345	3.445504	1.167368	0.000138
 168	1.6616e+01	6.6383	23.126732	0.000466	4.661564	1.579381	0.000187
 169	1.6716e+01	6.6720	23.328589	0.000507	5.066918	1.716718	0.000203
 170	1.6816e+01	6.7137	23.482000	0.000385	3.850857	1.304706	0.000154
 171	1.6915e+01	6.7538	23.647523	0.000415	4.154873	1.407709	0.000166
 172	1.7015e+01	6.8003	23.821119	0.000436	4.357549	1.476378	0.000174
 173	1.7114e+01	6.8324	23.966456	0.000365	3.648181	1.236037	0.000146
 174	1.7213e+01	6.8629	24.136016	0.000426	4.256211	1.442043	0.000170
 175	1.7313e+01	6.9110	24.337873	0.000507	5.066918	1.716718	0.000203
 176	1.7413e+01	6.9560	24.519544	0.000456	4.560226	1.545046	0.000183
 177	1.7512e+01	6.9864	24.697178	0.000446	4.458888	1.510712	0.000179
 178	1.7611e+01	7.0394	24.838478	0.000355	3.546842	1.201703	0.000142
 179	1.7711e+01	7.0715	25.048409	0.000527	5.269594	1.785387	0.000211
 180	1.7811e+01	7.1116	25.201820	0.000385	3.850857	1.304706	0.000154
 181	1.7910e+01	7.1501	25.371380	0.000426	4.256211	1.442043	0.000170
 182	1.8009e+01	7.1886	25.553051	0.000456	4.560226	1.545046	0.000183
 183	1.8109e+01	7.2319	25.678202	0.000314	3.141489	1.064365	0.000126
 184	1.8209e+01	7.2688	25.912356	0.000588	5.877625	1.991393	0.000235
 185	1.8308e+01	7.3121	26.085953	0.000436	4.357549	1.476378	0.000174
 186	1.8407e+01	7.3602	26.219178	0.000334	3.344166	1.133034	0.000134
 187	1.8507e+01	7.3923	26.416998	0.000497	4.965579	1.682384	0.000199
 188	1.8607e+01	7.4324	26.570409	0.000385	3.850857	1.304706	0.000154
 189	1.8706e+01	7.4725	26.735931	0.000415	4.154873	1.407709	0.000166
 190	1.8805e+01	7.5078	26.929714	0.000486	4.864241	1.648049	0.000195
 191	1.8905e+01	7.5463	27.071014	0.000355	3.546842	1.201703	0.000142
 192	1.9005e+01	7.5928	27.264796	0.000486	4.864241	1.648049	0.000195
 193	1.9104e+01	7.6345	27.438393	0.000436	4.357549	1.476378	0.000174
 194	1.9203e+01	7.6666	27.587767	0.000375	3.749519	1.270371	0.000150
 195	1.9303e+01	7.7099	27.765401	0.000446	4.458888	1.510712	0.000179
 196	1.9402e+01	7.7452	27.947072	0.000456	4.560226	1.545046	0.000183
 197	1.9502e+01	7.7934	28.116632	0.000426	4.256211	1.442043	0.000170
 198	1.9602e+01	7.8303	28.282154	0.000415	4.154873	1.407709	0.000166
 199	1.9701e+01	7.8672	28.423454	0.000355	3.546842	1.201703	0.000142
 200	1.9800e+01	7.9089	28.568791	0.000365	3.648181	1.236037	0.000146
 201	1.9900e+01	7.9426	28.750462	0.000456	4.560226	1.545046	0.000183
 202	2.0000e+01	7.9778	28.952319	0.000507	5.066918	1.716718	0.000203
 203	2.0099e+01	8.0260	29.093619	0.000355	3.546842	1.201703	0.000142
 204	2.0198e+01	8.0677	29.283364	0.000476	4.762903	1.613715	0.000191
 205	2.0298e+01	8.1046	29.412552	0.000324	3.242827	1.098700	0.000130
 206	2.0398e+01	8.1431	29.594224	0.000456	4.560226	1.545046	0.000183
 207	2.0497e+01	8.1864	29.796080	0.000507	5.066918	1.716718	0.000203
 208	2.0596e+01	8.2265	29.937380	0.000355	3.546842	1.201703	0.000142
 209	2.0696e+01	8.2698	30.074643	0.000345	3.445504	1.167368	0.000138
 210	2.0796e+01	8.3099	30.256314	0.000456	4.560226	1.545046	0.000183
 211	2.0895e+01	8.3452	30.478356	0.000557	5.573610	1.888390	0.000223
 212	2.0994e+01	8.3869	30.635805	0.000395	3.952196	1.339040	0.000158
 213	2.1094e+01	8.4254	30.797290	0.000405	4.053534	1.373375	0.000162
 214	2.1194e+01	8.4671	30.958775	0.000405	4.053534	1.373375	0.000162
 215	2.1293e+01	8.5153	31.140447	0.000456	4.560226	1.545046	0.000183
 216	2.1392e+01	8.5506	31.281746	0.000355	3.546842	1.201703	0.000142
 217	2.1492e+01	8.5859	31.491677	0.000527	5.269594	1.785387	0.000211
 218	2.1591e+01	8.6292	31.637014	0.000365	3.648181	1.236037	0.000146
 219	2.1691e+01	8.6709	31.786388	0.000375	3.749519	1.270371	0.000150
 220	2.1791e+01	8.7062	31.951911	0.000415	4.154873	1.407709	0.000166
 221	2.1890e+01	8.7495	32.165879	0.000537	5.370933	1.819721	0.000215
 222	2.1989e+01	8.7912	32.299104	0.000334	3.344166	1.133034	0.000134
 223	2.2089e+01	8.8281	32.440404	0.000355	3.546842	1.201703	0.000142
 224	2.2189e+01	8.8666	32.630150	0.000476	4.762903	1.613715	0.000191
 225	2.2288e+01	8.8987	32.811821	0.000456	4.560226	1.545046	0.000183
 226	2.2387e+01	8.9436	32.945046	0.000334	3.344166	1.133034	0.000134
 227	2.2487e+01	8.9821	33.098457	0.000385	3.850857	1.304706	0.000154
 228	2.2587e+01	9.0206	33.272054	0.000436	4.357549	1.476378	0.000174
 229	2.2686e+01	9.0559	33.433540	0.000405	4.053534	1.373375	0.000162
 230	2.2785e+01	9.0992	33.570802	0.000345	3.445504	1.167368	0.000138
 231	2.2885e+01	9.1329	33.748436	0.000446	4.458888	1.510712	0.000179
 232	2.2985e+01	9.1858	33.905884	0.000395	3.952196	1.339040	0.000158
 233	2.3084e+01	9.2211	34.035073	0.000324	3.242827	1.098700	0.000130
 234	2.3183e+01	9.2628	34.220781	0.000466	4.661564	1.579381	0.000187
 235	2.3283e+01	9.2965	34.378229	0.000395	3.952196	1.339040	0.000158
 236	2.3383e+01	9.3414	34.511455	0.000334	3.344166	1.133034	0.000134
 237	2.3482e+01	9.3832	34.697163	0.000466	4.661564	1.579381	0.000187
 238	2.3581e+01	9.4233	34.874797	0.000446	4.458888	1.510712	0.000179
 239	2.3681e+01	9.4570	35.020134	0.000365	3.648181	1.236037	0.000146
 240	2.3780e+01	9.5003	35.181619	0.000405	4.053534	1.373375	0.000162
 241	2.3880e+01	9.5436	35.330993	0.000375	3.749519	1.270371	0.000150
 242	2.3980e+01	9.5885	35.496516	0.000415	4.154873	1.407709	0.000166
 243	2.4079e+01	9.6286	35.637816	0.000355	3.546842	1.201703	0.000142
 244	2.4178e+01	9.6655	35.807375	0.000426	4.256211	1.442043	0.000170
 245	2.4278e+01	9.7056	35.948675	0.000355	3.546842	1.201703	0.000142
 246	2.4378e+01	9.7441	36.089975	0.000355	3.546842	1.201703	0.000142
 247	2.4477e+01	9.7922	36.291832	0.000507	5.066918	1.716718	0.000203
 248	2.4576e+01	9.8243	36.425057	0.000334	3.344166	1.133034	0.000134
 249	2.4676e+01	9.8548	36.578468	0.000385	3.850857	1.304706	0.000154
 250	2.4776e+01	9.9013	36.752065	0.000436	4.357549	1.476378	0.000174
 251	2.4875e+01	9.9478	36.917588	0.000415	4.154873	1.407709	0.000166
 252	2.4974e+01	9.9767	37.066962	0.000375	3.749519	1.270371	0.000150
 253	2.5074e+01	10.0184	37.200187	0.000334	3.344166	1.133034	0.000134
 254	2.5174e+01	10.0585	37.357636	0.000395	3.952196	1.339040	0.000158
 255	2.5273e+01	10.1067	37.547381	0.000476	4.762903	1.613715	0.000191
 256	2.5372e+01	10.1371	37.696755	0.000375	3.749519	1.270371	0.000150
 257	2.5472e+01	10.1756	37.846129	0.000375	3.749519	1.270371	0.000150
 258	2.5572e+01	10.2190	37.983392	0.000345	3.445504	1.167368	0.000138
 259	2.5671e+01	10.2591	38.136803	0.000385	3.850857	1.304706	0.000154
 260	2.5770e+01	10.3024	38.318474	0.000456	4.560226	1.545046	0.000183
 261	2.5870e+01	10.3441	38.459774	0.000355	3.546842	1.201703	0.000142
 262	2.5970e+01	10.3842	38.601073	0.000355	3.546842	1.201703	0.000142
 263	2.6069e+01	10.4179	38.766596	0.000415	4.154873	1.407709	0.000166
 264	2.6169e+01	10.4644	38.924044	0.000395	3.952196	1.339040	0.000158
 265	2.6268e+01	10.5013	39.065344	0.000355	3.546842	1.201703	0.000142
 266	2.6367e+01	10.5446	39.230867	0.000415	4.154873	1.407709	0.000166
 267	2.6467e+01	10.5831	39.368129	0.000345	3.445504	1.167368	0.000138
 268	2.6567e+01	10.6152	39.517503	0.000375	3.749519	1.270371	0.000150
 269	2.6666e+01	10.6601	39.687063	0.000426	4.256211	1.442043	0.000170
 270	2.6765e+01	10.7002	39.824325	0.000345	3.445504	1.167368	0.000138
 271	2.6865e+01	10.7419	39.957551	0.000334	3.344166	1.133034	0.000134
 272	2.6965e+01	10.7724	40.098851	0.000355	3.546842	1.201703	0.000142
 273	2.7064e+01	10.8238	40.280522	0.000456	4.560226	1.545046	0.000183
 274	2.7163e+01	10.8591	40.409710	0.000324	3.242827	1.098700	0.000130
 275	2.7263e+01	10.8992	40.571196	0.000405	4.053534	1.373375	0.000162
 276	2.7363e+01	10.9361	40.720570	0.000375	3.749519	1.270371	0.000150
 277	2.7462e+01	10.9874	40.878018	0.000395	3.952196	1.339040	0.000158
 278	2.7561e+01	11.0227	41.011243	0.000334	3.344166	1.133034	0.000134
 279	2.7661e+01	11.0660	41.152543	0.000355	3.546842	1.201703	0.000142
 280	2.7761e+01	11.1077	41.309991	0.000395	3.952196	1.339040	0.000158
 281	2.7860e+01	11.1366	41.447254	0.000345	3.445504	1.167368	0.000138
 282	2.7959e+01	11.1863	41.556257	0.000274	2.736136	0.927028	0.000110
 283	2.8059e+01	11.2200	41.758114	0.000507	5.066918	1.716718	0.000203
 284	2.8159e+01	11.2665	41.891339	0.000334	3.344166	1.133034	0.000134
 285	2.8258e+01	11.2938	42.020527	0.000324	3.242827	1.098700	0.000130
 286	2.8358e+01	11.3419	42.149716	0.000324	3.242827	1.098700	0.000130
 287	2.8457e+01	11.3724	42.291015	0.000355	3.546842	1.201703	0.000142
 288	2.8556e+01	11.4221	42.464612	0.000436	4.357549	1.476378	0.000174
 289	2.8656e+01	11.4590	42.541318	0.000193	1.925429	0.652353	0.000077
 290	2.8756e+01	11.4991	42.739137	0.000497	4.965579	1.682384	0.000199
 291	2.8855e+01	11.5360	42.856214	0.000294	2.938812	0.995697	0.000118
 292	2.8954e+01	11.5745	42.973291	0.000294	2.938812	0.995697	0.000118
 293	2.9054e+01	11.6066	43.179185	0.000517	5.168256	1.751053	0.000207
 294	2.9154e+01	11.6548	43.304336	0.000314	3.141489	1.064365	0.000126
 295	2.9253e+01	11.6900	43.413339	0.000274	2.736136	0.927028	0.000110
 296	2.9352e+01	11.7350	43.574825	0.000405	4.053534	1.373375	0.000162
 297	2.9452e+01	11.7847	43.712087	0.000345	3.445504	1.167368	0.000138
 298	2.9552e+01	11.8200	43.869535	0.000395	3.952196	1.339040	0.000158
 299	2.9651e+01	11.8649	44.006798	0.000345	3.445504	1.167368	0.000138
 300	2.9750e+01	11.8970	44.103689	0.000243	2.432121	0.824025	0.000097
 301	2.9850e+01	11.9403	44.253063	0.000375	3.749519	1.270371	0.000150
 302	2.9950e+01	11.9772	44.414549	0.000405	4.053534	1.373375	0.000162
 303	3.0049e+01	12.0125	44.547774	0.000334	3.344166	1.133034	0.000134
 304	3.0148e+01	12.0574	44.664851	0.000294	2.938812	0.995697	0.000118
 305	3.0248e+01	12.0927	44.822300	0.000395	3.952196	1.339040	0.000158
 306	3.0348e+01	12.1408	44.963599	0.000355	3.546842	1.201703	0.000142
 307	3.0447e+01	12.1777	45.112973	0.000375	3.749519	1.270371	0.000150
 308	3.0547e+01	12.2130	45.209865	0.000243	2.432121	0.824025	0.000097
 309	3.0646e+01	12.2547	45.399610	0.000476	4.762903	1.613715	0.000191
 310	3.0745e+01	12.2884	45.520724	0.000304	3.040151	1.030031	0.000122
 311	3.0845e+01	12.3398	45.670098	0.000375	3.749519	1.270371	0.000150
 312	3.0945e+01	12.3815	45.811398	0.000355	3.546842	1.201703	0.000142
 313	3.1044e+01	12.4264	45.956735	0.000365	3.648181	1.236037	0.000146
 314	3.1143e+01	12.4488	46.085923	0.000324	3.242827	1.098700	0.000130
 315	3.1243e+01	12.4922	46.219148	0.000334	3.344166	1.133034	0.000134
 316	3.1343e+01	12.5371	46.372560	0.000385	3.850857	1.304706	0.000154
 317	3.1442e+01	12.5708	46.501748	0.000324	3.242827	1.098700	0.000130
 318	3.1541e+01	12.6221	46.651122	0.000375	3.749519	1.270371	0.000150
 319	3.1641e+01	12.6430	46.752050	0.000253	2.533459	0.858359	0.000101
 320	3.1741e+01	12.7023	46.917573	0.000415	4.154873	1.407709	0.000166
 321	3.1840e+01	12.7296	47.111355	0.000486	4.864241	1.648049	0.000195
 322	3.1939e+01	12.7777	47.232470	0.000304	3.040151	1.030031	0.000122
 323	3.2039e+01	12.8066	47.389918	0.000395	3.952196	1.339040	0.000158
 324	3.2139e+01	12.8467	47.490846	0.000253	2.533459	0.858359	0.000101
 325	3.2238e+01	12.8916	47.648295	0.000395	3.952196	1.339040	0.000158
 326	3.2337e+01	12.9365	47.781520	0.000334	3.344166	1.133034	0.000134
 327	3.2437e+01	12.9782	47.934931	0.000385	3.850857	1.304706	0.000154
 328	3.2536e+01	13.0071	48.096417	0.000405	4.053534	1.373375	0.000162
 329	3.2636e+01	13.0520	48.241754	0.000365	3.648181	1.236037	0.000146
 330	3.2736e+01	13.0857	48.391128	0.000375	3.749519	1.270371	0.000150
 331	3.2835e+01	13.1339	48.524353	0.000334	3.344166	1.133034	0.000134
 332	3.2934e+01	13.1675	48.661616	0.000345	3.445504	1.167368	0.000138
 333	3.3034e+01	13.2076	48.802915	0.000355	3.546842	1.201703	0.000142
 334	3.3133e+01	13.2397	48.928067	0.000314	3.141489	1.064365	0.000126
 335	3.3233e+01	13.2895	49.101663	0.000436	4.357549	1.476378	0.000174
 336	3.3333e+01	13.3248	49.210666	0.000274	2.736136	0.927028	0.000110
 337	3.3432e+01	13.3729	49.351966	0.000355	3.546842	1.201703	0.000142
 338	3.3532e+01	13.4066	49.473080	0.000304	3.040151	1.030031	0.000122
 339	3.3631e+01	13.4531	49.638602	0.000415	4.154873	1.407709	0.000166
 340	3.3730e+01	13.4932	49.763754	0.000314	3.141489	1.064365	0.000126
 341	3.3830e+01	13.5269	49.880831	0.000294	2.938812	0.995697	0.000118
 342	3.3929e+01	13.5670	50.066539	0.000466	4.661564	1.579381	0.000187
 343	3.4029e+01	13.6071	50.175542	0.000274	2.736136	0.927028	0.000110
 344	3.4129e+01	13.6392	50.308767	0.000334	3.344166	1.133034	0.000134
 345	3.4228e+01	13.6825	50.478327	0.000426	4.256211	1.442043	0.000170
 346	3.4328e+01	13.7290	50.591367	0.000284	2.837474	0.961362	0.000114
 347	3.4427e+01	13.7627	50.752852	0.000405	4.053534	1.373375	0.000162
 348	3.4526e+01	13.8028	50.894152	0.000355	3.546842	1.201703	0.000142
 349	3.4626e+01	13.8542	51.027377	0.000334	3.344166	1.133034	0.000134
 350	3.4725e+01	13.8894	51.124268	0.000243	2.432121	0.824025	0.000097
 351	3.4825e+01	13.9279	51.273642	0.000375	3.749519	1.270371	0.000150
 352	3.4925e+01	13.9665	51.439165	0.000415	4.154873	1.407709	0.000166
 353	3.5024e+01	14.0098	51.608725	0.000426	4.256211	1.442043	0.000170
 354	3.5123e+01	14.0483	51.741950	0.000334	3.344166	1.133034	0.000134
 355	3.5223e+01	14.0868	51.867101	0.000314	3.141489	1.064365	0.000126
 356	3.5322e+01	14.1189	52.000327	0.000334	3.344166	1.133034	0.000134
 357	3.5422e+01	14.1654	52.149701	0.000375	3.749519	1.270371	0.000150
 358	3.5522e+01	14.1991	52.270815	0.000304	3.040151	1.030031	0.000122
 359	3.5621e+01	14.2392	52.416152	0.000365	3.648181	1.236037	0.000146
 360	3.5721e+01	14.2857	52.553414	0.000345	3.445504	1.167368	0.000138
 361	3.5820e+01	14.3242	52.706826	0.000385	3.850857	1.304706	0.000154
 362	3.5919e+01	14.3611	52.884460	0.000446	4.458888	1.510712	0.000179
 363	3.6019e+01	14.4028	53.009611	0.000314	3.141489	1.064365	0.000126
 364	3.6118e+01	14.4477	53.150911	0.000355	3.546842	1.201703	0.000142
 365	3.6218e+01	14.4830	53.288173	0.000345	3.445504	1.167368	0.000138
 366	3.6318e+01	14.5247	53.445621	0.000395	3.952196	1.339040	0.000158
 367	3.6417e+01	14.5552	53.603070	0.000395	3.952196	1.339040	0.000158
 368	3.6517e+01	14.6001	53.740332	0.000345	3.445504	1.167368	0.000138
 369	3.6616e+01	14.6418	53.877595	0.000345	3.445504	1.167368	0.000138
 370	3.6715e+01	14.6835	54.010820	0.000334	3.344166	1.133034	0.000134
 371	3.6815e+01	14.7269	54.156157	0.000365	3.648181	1.236037	0.000146
 372	3.6914e+01	14.7654	54.301494	0.000365	3.648181	1.236037	0.000146
 373	3.7014e+01	14.8039	54.450868	0.000375	3.749519	1.270371	0.000150
 374	3.7114e+01	14.8375	54.604279	0.000385	3.850857	1.304706	0.000154
 375	3.7213e+01	14.8873	54.737505	0.000334	3.344166	1.133034	0.000134
 376	3.7313e+01	14.9274	54.886879	0.000375	3.749519	1.270371	0.000150
 377	3.7412e+01	14.9514	54.999919	0.000284	2.837474	0.961362	0.000114
 378	3.7511e+01	15.0028	55.145256	0.000365	3.648181	1.236037	0.000146
 379	3.7611e+01	15.0445	55.310778	0.000415	4.154873	1.407709	0.000166
 380	3.7711e+01	15.0814	55.448041	0.000345	3.445504	1.167368	0.000138
 381	3.7810e+01	15.1215	55.601452	0.000385	3.850857	1.304706	0.000154
 382	3.7910e+01	15.1584	55.746789	0.000365	3.648181	1.236037	0.000146
 383	3.8009e+01	15.1969	55.892126	0.000365	3.648181	1.236037	0.000146
 384	3.8108e+01	15.2370	56.037463	0.000365	3.648181	1.236037	0.000146
 385	3.8208e+01	15.2691	56.186837	0.000375	3.749519	1.270371	0.000150
 386	3.8307e+01	15.3188	56.324099	0.000345	3.445504	1.167368	0.000138
 387	3.8407e+01	15.3557	56.457325	0.000334	3.344166	1.133034	0.000134
 388	3.8507e+01	15.4038	56.606699	0.000375	3.749519	1.270371	0.000150
 389	3.8606e+01	15.4327	56.764147	0.000395	3.952196	1.339040	0.000158
 390	3.8706e+01	15.4841	56.881224	0.000294	2.938812	0.995697	0.000118
 391	3.8805e+01	15.5258	57.034635	0.000385	3.850857	1.304706	0.000154
 392	3.8904e+01	15.5643	57.175935	0.000355	3.546842	1.201703	0.000142
 393	3.9004e+01	15.5947	57.329346	0.000385	3.850857	1.304706	0.000154
 394	3.9103e+01	15.6413	57.462572	0.000334	3.344166	1.133034	0.000134
 395	3.9203e+01	15.6782	57.591760	0.000324	3.242827	1.098700	0.000130
 396	3.9303e+01	15.7215	57.733060	0.000355	3.546842	1.201703	0.000142
 397	3.9402e+01	15.7632	57.874359	0.000355	3.546842	1.201703	0.000142
 398	3.9502e+01	15.8001	58.023733	0.000375	3.749519	1.270371	0.000150
 399	3.9601e+01	15.8306	58.185219	0.000405	4.053534	1.373375	0.000162
 400	3.9700e+01	15.8787	58.290184	0.000263	2.634797	0.892693	0.000105
 401	3.9800e+01	15.9236	58.475893	0.000466	4.661564	1.579381	0.000187
 402	3.9900e+01	15.9589	58.588932	0.000284	2.837474	0.961362	0.000114
 403	3.9999e+01	15.9942	58.798863	0.000527	5.269594	1.785387	0.000211
 404	4.0099e+01	16.0487	58.879606	0.000203	2.026767	0.686687	0.000081
 405	4.0198e+01	16.0808	59.053203	0.000436	4.357549	1.476378	0.000174
 406	4.0297e+01	16.1241	59.170280	0.000294	2.938812	0.995697	0.000118
 407	4.0397e+01	16.1498	59.303505	0.000334	3.344166	1.133034	0.000134
 408	4.0496e+01	16.1899	59.460954	0.000395	3.952196	1.339040	0.000158
 409	4.0596e+01	16.2429	59.594179	0.000334	3.344166	1.133034	0.000134
 410	4.0696e+01	16.2765	59.779887	0.000466	4.661564	1.579381	0.000187
 411	4.0795e+01	16.3199	59.905039	0.000314	3.141489	1.064365	0.000126
 412	4.0895e+01	16.3535	60.050376	0.000365	3.648181	1.236037	0.000146
 413	4.0994e+01	16.4001	60.211861	0.000405	4.053534	1.373375	0.000162
 414	4.1093e+01	16.4418	60.316826	0.000263	2.634797	0.892693	0.000105
 415	4.1193e+01	16.4755	60.462163	0.000365	3.648181	1.236037	0.000146
 416	4.1292e+01	16.5236	60.579240	0.000294	2.938812	0.995697	0.000118
 417	4.1392e+01	16.5621	60.696317	0.000294	2.938812	0.995697	0.000118
 418	4.1492e+01	16.6022	60.873951	0.000446	4.458888	1.510712	0.000179
 419	4.1591e+01	16.6439	60.974880	0.000253	2.533459	0.858359	0.000101
 420	4.1691e+01	16.6808	61.124254	0.000375	3.749519	1.270371	0.000150
 421	4.1790e+01	16.7193	61.257479	0.000334	3.344166	1.133034	0.000134
 422	4.1889e+01	16.7530	61.354370	0.000243	2.432121	0.824025	0.000097
 423	4.1989e+01	16.7899	61.544116	0.000476	4.762903	1.613715	0.000191
 424	4.2089e+01	16.8316	61.661193	0.000294	2.938812	0.995697	0.000118
 425	4.2188e+01	16.8733	61.810567	0.000375	3.749519	1.270371	0.000150
 426	4.2288e+01	16.9231	61.947829	0.000345	3.445504	1.167368	0.000138
 427	4.2387e+01	16.9535	62.077018	0.000324	3.242827	1.098700	0.000130
 428	4.2486e+01	16.9985	62.222355	0.000365	3.648181	1.236037	0.000146
 429	4.2586e+01	17.0321	62.375766	0.000385	3.850857	1.304706	0.000154
 430	4.2685e+01	17.0722	62.496880	0.000304	3.040151	1.030031	0.000122
 431	4.2785e+01	17.1107	62.617994	0.000304	3.040151	1.030031	0.000122
 432	4.2885e+01	17.1509	62.747182	0.000324	3.242827	1.098700	0.000130
 433	4.2984e+01	17.1974	62.864259	0.000294	2.938812	0.995697	0.000118
 434	4.3084e+01	17.2311	63.029782	0.000415	4.154873	1.407709	0.000166
 435	4.3183e+01	17.2648	63.154933	0.000314	3.141489	1.064365	0.000126
 436	4.3282e+01	17.3129	63.263936	0.000274	2.736136	0.927028	0.000110
 437	4.3382e+01	17.3562	63.405235	0.000355	3.546842	1.201703	0.000142
 438	4.3481e+01	17.3899	63.546535	0.000355	3.546842	1.201703	0.000142
 439	4.3581e+01	17.4348	63.659575	0.000284	2.837474	0.961362	0.000114
 440	4.3681e+01	17.4653	63.804912	0.000365	3.648181	1.236037	0.000146
 441	4.3780e+01	17.5134	63.885654	0.000203	2.026767	0.686687	0.000081
 442	4.3880e+01	17.5503	64.035029	0.000375	3.749519	1.270371	0.000150
 443	4.3979e+01	17.5952	64.139994	0.000263	2.634797	0.892693	0.000105
 444	4.4078e+01	17.6321	64.317628	0.000446	4.458888	1.510712	0.000179
 445	4.4178e+01	17.6722	64.410482	0.000233	2.330782	0.789690	0.000093
 446	4.4278e+01	17.7123	64.543708	0.000334	3.344166	1.133034	0.000134
 447	4.4377e+01	17.7573	64.644636	0.000253	2.533459	0.858359	0.000101
 448	4.4477e+01	17.7877	64.806121	0.000405	4.053534	1.373375	0.000162
 449	4.4576e+01	17.8343	64.898976	0.000233	2.330782	0.789690	0.000093
 450	4.4675e+01	17.8695	65.028164	0.000324	3.242827	1.098700	0.000130
 451	4.4775e+01	17.9097	65.165427	0.000345	3.445504	1.167368	0.000138
 452	4.4874e+01	17.9417	65.286541	0.000304	3.040151	1.030031	0.000122
 453	4.4974e+01	17.9883	65.419766	0.000334	3.344166	1.133034	0.000134
 454	4.5074e+01	18.0300	65.532806	0.000284	2.837474	0.961362	0.000114
 455	4.5173e+01	18.0701	65.645846	0.000284	2.837474	0.961362	0.000114
 456	4.5273e+01	18.1150	65.783108	0.000345	3.445504	1.167368	0.000138
 457	4.5372e+01	18.1535	65.908259	0.000314	3.141489	1.064365	0.000126
 458	4.5471e+01	18.1872	65.984965	0.000193	1.925429	0.652353	0.000077
 459	4.5571e+01	18.2337	66.150488	0.000415	4.154873	1.407709	0.000166
 460	4.5670e+01	18.2674	66.259490	0.000274	2.736136	0.927028	0.000110
 461	4.5770e+01	18.3091	66.376567	0.000294	2.938812	0.995697	0.000118
 462	4.5870e+01	18.3396	66.489607	0.000284	2.837474	0.961362	0.000114
 463	4.5969e+01	18.3909	66.598610	0.000274	2.736136	0.927028	0.000110
 464	4.6069e+01	18.4358	66.760095	0.000405	4.053534	1.373375	0.000162
 465	4.6168e+01	18.4663	66.881209	0.000304	3.040151	1.030031	0.000122
 466	4.6267e+01	18.5080	66.998286	0.000294	2.938812	0.995697	0.000118
 467	4.6367e+01	18.5513	67.143623	0.000365	3.648181	1.236037	0.000146
 468	4.6467e+01	18.5834	67.244551	0.000253	2.533459	0.858359	0.000101
 469	4.6566e+01	18.6251	67.337406	0.000233	2.330782	0.789690	0.000093
 470	4.6666e+01	18.6717	67.466594	0.000324	3.242827	1.098700	0.000130
 471	4.6765e+01	18.7102	67.587708	0.000304	3.040151	1.030031	0.000122
 472	4.6864e+01	18.7487	67.680562	0.000233	2.330782	0.789690	0.000093
 473	4.6964e+01	18.7808	67.838010	0.000395	3.952196	1.339040	0.000158
 474	4.7063e+01	18.8257	67.955087	0.000294	2.938812	0.995697	0.000118
 475	4.7163e+01	18.8658	68.088313	0.000334	3.344166	1.133034	0.000134
 476	4.7263e+01	18.9043	68.221538	0.000334	3.344166	1.133034	0.000134
 477	4.7362e+01	18.9428	68.358801	0.000345	3.445504	1.167368	0.000138
 478	4.7462e+01	18.9893	68.439544	0.000203	2.026767	0.686687	0.000081
 479	4.7561e+01	19.0230	68.601029	0.000405	4.053534	1.373375	0.000162
 480	4.7660e+01	19.0679	68.710032	0.000274	2.736136	0.927028	0.000110
 481	4.7760e+01	19.1064	68.855369	0.000365	3.648181	1.236037	0.000146
 482	4.7859e+01	19.1465	68.928037	0.000182	1.824090	0.618019	0.000073
 483	4.7959e+01	19.1850	69.061263	0.000334	3.344166	1.133034	0.000134
 484	4.8059e+01	19.2299	69.150079	0.000223	2.229444	0.755356	0.000089
 485	4.8158e+01	19.2652	69.291379	0.000355	3.546842	1.201703	0.000142
 486	4.8258e+01	19.3085	69.388270	0.000243	2.432121	0.824025	0.000097
 487	4.8357e+01	19.3470	69.561867	0.000436	4.357549	1.476378	0.000174
 488	4.8456e+01	19.3839	69.658759	0.000243	2.432121	0.824025	0.000097
 489	4.8556e+01	19.4208	69.755650	0.000243	2.432121	0.824025	0.000097
 490	4.8656e+01	19.4609	69.896950	0.000355	3.546842	1.201703	0.000142
 491	4.8755e+01	19.5043	70.014027	0.000294	2.938812	0.995697	0.000118
 492	4.8855e+01	19.5460	70.098806	0.000213	2.128105	0.721022	0.000085
 493	4.8954e+01	19.5797	70.244143	0.000365	3.648181	1.236037	0.000146
 494	4.9053e+01	19.6182	70.361220	0.000294	2.938812	0.995697	0.000118
 495	4.9153e+01	19.6679	70.506557	0.000365	3.648181	1.236037	0.000146
 496	4.9252e+01	19.7048	70.595374	0.000223	2.229444	0.755356	0.000089
 497	4.9352e+01	19.7401	70.704377	0.000274	2.736136	0.927028	0.000110
 498	4.9452e+01	19.7786	70.805305	0.000253	2.533459	0.858359	0.000101
 499	4.9551e+01	19.8187	70.930456	0.000314	3.141489	1.064365	0.000126
 500	4.9651e+01	19.8604	71.079830	0.000375	3.749519	1.270371	0.000150
 501	4.9750e+01	19.8973	71.176722	0.000243	2.432121	0.824025	0.000097
 502	4.9849e+01	19.9502	71.277650	0.000253	2.533459	0.858359	0.000101
 503	4.9949e+01	19.9791	71.386653	0.000274	2.736136	0.927028	0.000110
 504	5.0048e+01	19.9438	71.515841	-0.000324	-3.242827	-1.098700	0.000130
 505	5.0148e+01	19.9005	71.540064	-0.000061	-0.608030	-0.206006	0.000024
 506	5.0248e+01	19.8604	71.588509	-0.000122	-1.216060	-0.412012	0.000049
 507	5.0347e+01	19.8299	71.592547	-0.000010	-0.101338	-0.034334	0.000004
 508	5.0447e+01	19.7834	71.616769	-0.000061	-0.608030	-0.206006	0.000024
 509	5.0546e+01	19.7401	71.612732	0.000010	0.101338	0.034334	-0.000004
 510	5.0645e+01	19.7080	71.624844	-0.000030	-0.304015	-0.103003	0.000012
 511	5.0745e+01	19.6631	71.661178	-0.000091	-0.912045	-0.309009	0.000037
 512	5.0844e+01	19.6278	71.661178	-0.000000	-0.000000	-0.000000	0.000000
 513	5.0944e+01	19.5748	71.628881	0.000081	0.810707	0.274675	-0.000032
 514	5.1044e+01	19.5444	71.612732	0.000041	0.405353	0.137337	-0.000016
 515	5.1143e+01	19.5091	71.620807	-0.000020	-0.202677	-0.068669	0.000008
 516	5.1242e+01	19.4674	71.620807	-0.000000	-0.000000	-0.000000	0.000000
 517	5.1342e+01	19.4224	71.636955	-0.000041	-0.405353	-0.137337	0.000016
 518	5.1441e+01	19.3904	71.616769	0.000051	0.506692	0.171672	-0.000020
 519	5.1541e+01	19.3470	71.628881	-0.000030	-0.304015	-0.103003	0.000012
 520	5.1641e+01	19.3214	71.600621	0.000071	0.709368	0.240341	-0.000028
 521	5.1740e+01	19.2700	71.620807	-0.000051	-0.506692	-0.171672	0.000020
 522	5.1840e+01	19.2299	71.604658	0.000041	0.405353	0.137337	-0.000016
 523	5.1939e+01	19.1946	71.612732	-0.000020	-0.202677	-0.068669	0.000008
 524	5.2038e+01	19.1369	71.624844	-0.000030	-0.304015	-0.103003	0.000012
 525	5.2138e+01	19.1096	71.649067	-0.000061	-0.608030	-0.206006	0.000024
 526	5.2237e+01	19.0727	71.628881	0.000051	0.506692	0.171672	-0.000020
 527	5.2337e+01	19.0198	71.649067	-0.000051	-0.506692	-0.171672	0.000020
 528	5.2437e+01	18.9829	71.640992	0.000020	0.202677	0.068669	-0.000008
 529	5.2536e+01	18.9476	71.653104	-0.000030	-0.304015	-0.103003	0.000012
 530	5.2636e+01	18.9091	71.624844	0.000071	0.709368	0.240341	-0.000028
 531	5.2735e+01	18.8642	71.649067	-0.000061	-0.608030	-0.206006	0.000024
 532	5.2834e+01	18.8305	71.628881	0.000051	0.506692	0.171672	-0.000020
 533	5.2934e+01	18.7904	71.628881	-0.000000	-0.000000	-0.000000	0.000000
 534	5.3033e+01	18.7439	71.640992	-0.000030	-0.304015	-0.103003	0.000012
 535	5.3133e+01	18.7134	71.636955	0.000010	0.101338	0.034334	-0.000004
 536	5.3233e+01	18.6717	71.640992	-0.000010	-0.101338	-0.034334	0.000004
 537	5.3332e+01	18.6251	71.628881	0.000030	0.304015	0.103003	-0.000012
 538	5.3431e+01	18.5866	71.649067	-0.000051	-0.506692	-0.171672	0.000020
 539	5.3531e+01	18.5513	71.645029	0.000010	0.101338	0.034334	-0.000004
 540	5.3630e+01	18.5145	71.673289	-0.000071	-0.709368	-0.240341	0.000028
 541	5.3730e+01	18.4647	71.661178	0.000030	0.304015	0.103003	-0.000012
 542	5.3830e+01	18.4342	71.640992	0.000051	0.506692	0.171672	-0.000020
 543	5.3929e+01	18.3941	71.649067	-0.000020	-0.202677	-0.068669	0.000008
 544	5.4029e+01	18.3524	71.681364	-0.000081	-0.810707	-0.274675	0.000032
 545	5.4128e+01	18.3203	71.616769	0.000162	1.621414	0.549350	-0.000065
 546	5.4227e+01	18.2674	71.616769	-0.000000	-0.000000	-0.000000	0.000000
 547	5.4327e+01	18.2225	71.628881	-0.000030	-0.304015	-0.103003	0.000012
 548	5.4426e+01	18.1856	71.596584	0.000081	0.810707	0.274675	-0.000032
 549	5.4526e+01	18.1503	71.604658	-0.000020	-0.202677	-0.068669	0.000008
 550	5.4626e+01	18.1054	71.572361	0.000081	0.810707	0.274675	-0.000032
 551	5.4725e+01	18.0701	71.507767	0.000162	1.621414	0.549350	-0.000065
 552	5.4825e+01	18.0396	71.475470	0.000081	0.810707	0.274675	-0.000032
 553	5.4924e+01	17.9834	71.418950	0.000142	1.418737	0.480681	-0.000057
 554	5.5023e+01	17.9530	71.386653	0.000081	0.810707	0.274675	-0.000032
 555	5.5123e+01	17.9145	71.305910	0.000203	2.026767	0.686687	-0.000081
 556	5.5222e+01	17.8744	71.233242	0.000182	1.824090	0.618019	-0.000073
 557	5.5322e+01	17.8327	71.168647	0.000162	1.621414	0.549350	-0.000065
 558	5.5422e+01	17.7974	71.087905	0.000203	2.026767	0.686687	-0.000081
 559	5.5521e+01	17.7524	70.999088	0.000223	2.229444	0.755356	-0.000089
 560	5.5620e+01	17.7123	70.914308	0.000213	2.128105	0.721022	-0.000085
 561	5.5720e+01	17.6674	70.821454	0.000233	2.330782	0.789690	-0.000093
 562	5.5819e+01	17.6337	70.785119	0.000091	0.912045	0.309009	-0.000037
 563	5.5919e+01	17.6016	70.655931	0.000324	3.242827	1.098700	-0.000130
 564	5.6019e+01	17.5439	70.555003	0.000253	2.533459	0.858359	-0.000101
 565	5.6118e+01	17.5070	70.530780	0.000061	0.608030	0.206006	-0.000024
 566	5.6218e+01	17.4717	70.413703	0.000294	2.938812	0.995697	-0.000118
 567	5.6317e+01	17.4332	70.284515	0.000324	3.242827	1.098700	-0.000130
 568	5.6416e+01	17.3995	70.207809	0.000193	1.925429	0.652353	-0.000077
 569	5.6516e+01	17.3482	70.135141	0.000182	1.824090	0.618019	-0.000073
 570	5.6615e+01	17.3161	70.046324	0.000223	2.229444	0.755356	-0.000089
 571	5.6715e+01	17.2680	69.937321	0.000274	2.736136	0.927028	-0.000110
 572	5.6815e+01	17.2375	69.860615	0.000193	1.925429	0.652353	-0.000077
 573	5.6914e+01	17.1942	69.759687	0.000253	2.533459	0.858359	-0.000101
 574	5.7014e+01	17.1637	69.642610	0.000294	2.938812	0.995697	-0.000118
 575	5.7113e+01	17.1091	69.537645	0.000263	2.634797	0.892693	-0.000105
 576	5.7212e+01	17.0706	69.477087	0.000152	1.520075	0.515015	-0.000061
 577	5.7312e+01	17.0353	69.331751	0.000365	3.648181	1.236037	-0.000146
 578	5.7411e+01	16.9888	69.226785	0.000263	2.634797	0.892693	-0.000105
 579	5.7511e+01	16.9616	69.146042	0.000203	2.026767	0.686687	-0.000081
 580	5.7611e+01	16.9134	69.033003	0.000284	2.837474	0.961362	-0.000114
 581	5.7710e+01	16.8749	68.891703	0.000355	3.546842	1.201703	-0.000142
 582	5.7809e+01	16.8348	68.794812	0.000243	2.432121	0.824025	-0.000097
 583	5.7909e+01	16.7931	68.697920	0.000243	2.432121	0.824025	-0.000097
 584	5.8008e+01	16.7578	68.625252	0.000182	1.824090	0.618019	-0.000073
 585	5.8108e+01	16.7177	68.508175	0.000294	2.938812	0.995697	-0.000118
 586	5.8208e+01	16.6792	68.378987	0.000324	3.242827	1.098700	-0.000130
 587	5.8307e+01	16.6407	68.286132	0.000233	2.330782	0.789690	-0.000093
 588	5.8407e+01	16.6006	68.173093	0.000284	2.837474	0.961362	-0.000114
 589	5.8506e+01	16.5653	68.112536	0.000152	1.520075	0.515015	-0.000061
 590	5.8605e+01	16.5204	67.979310	0.000334	3.344166	1.133034	-0.000134
 591	5.8705e+01	16.4642	67.850122	0.000324	3.242827	1.098700	-0.000130
 592	5.8804e+01	16.4289	67.765342	0.000213	2.128105	0.721022	-0.000085
 593	5.8904e+01	16.3921	67.652302	0.000284	2.837474	0.961362	-0.000114
 594	5.9004e+01	16.3552	67.547337	0.000263	2.634797	0.892693	-0.000105
 595	5.9103e+01	16.3183	67.434297	0.000284	2.837474	0.961362	-0.000114
 596	5.9203e+01	16.2782	67.345480	0.000223	2.229444	0.755356	-0.000089
 597	5.9302e+01	16.2396	67.252626	0.000233	2.330782	0.789690	-0.000093
 598	5.9401e+01	16.2028	67.143623	0.000274	2.736136	0.927028	-0.000110
 599	5.9501e+01	16.1530	67.042695	0.000253	2.533459	0.858359	-0.000101
 600	5.9600e+01	16.1081	66.945803	0.000243	2.432121	0.824025	-0.000097
 601	5.9700e+01	16.0792	66.848912	0.000243	2.432121	0.824025	-0.000097
 602	5.9800e+01	16.0327	66.768169	0.000203	2.026767	0.686687	-0.000081
 603	5.9899e+01	16.0070	66.610721	0.000395	3.952196	1.339040	-0.000158
 604	5.9998e+01	15.9541	66.550164	0.000152	1.520075	0.515015	-0.000061
 605	6.0098e+01	15.9252	66.408864	0.000355	3.546842	1.201703	-0.000142
 606	6.0197e+01	15.8787	66.311973	0.000243	2.432121	0.824025	-0.000097
 607	6.0297e+01	15.8402	66.247379	0.000162	1.621414	0.549350	-0.000065
 608	6.0397e+01	15.7985	66.102042	0.000365	3.648181	1.236037	-0.000146
 609	6.0496e+01	15.7664	66.021299	0.000203	2.026767	0.686687	-0.000081
 610	6.0596e+01	15.7247	65.912297	0.000274	2.736136	0.927028	-0.000110
 611	6.0695e+01	15.6766	65.839628	0.000182	1.824090	0.618019	-0.000073
 612	6.0794e+01	15.6381	65.722551	0.000294	2.938812	0.995697	-0.000118
 613	6.0894e+01	15.5964	65.645846	0.000193	1.925429	0.652353	-0.000077
 614	6.0993e+01	15.5578	65.508583	0.000345	3.445504	1.167368	-0.000138
 615	6.1093e+01	15.5258	65.484360	0.000061	0.608030	0.206006	-0.000024
 616	6.1193e+01	15.4760	65.351135	0.000334	3.344166	1.133034	-0.000134
 617	6.1292e+01	15.4375	65.230021	0.000304	3.040151	1.030031	-0.000122
 618	6.1392e+01	15.4038	65.121018	0.000274	2.736136	0.927028	-0.000110
 619	6.1491e+01	15.3669	65.044312	0.000193	1.925429	0.652353	-0.000077
 620	6.1590e+01	15.3268	64.939347	0.000263	2.634797	0.892693	-0.000105
 621	6.1690e+01	15.2835	64.830344	0.000274	2.736136	0.927028	-0.000110
 622	6.1789e+01	15.2402	64.725379	0.000263	2.634797	0.892693	-0.000105
 623	6.1889e+01	15.2033	64.596190	0.000324	3.242827	1.098700	-0.000130
 624	6.1989e+01	15.1552	64.483151	0.000284	2.837474	0.961362	-0.000114
 625	6.2088e+01	15.1151	64.382222	0.000253	2.533459	0.858359	-0.000101
 626	6.2188e+01	15.0734	64.317628	0.000162	1.621414	0.549350	-0.000065
 627	6.2287e+01	15.0413	64.216700	0.000253	2.533459	0.858359	-0.000101
 628	6.2386e+01	14.9964	64.091548	0.000314	3.141489	1.064365	-0.000126
 629	6.2486e+01	14.9563	63.994657	0.000243	2.432121	0.824025	-0.000097
 630	6.2586e+01	14.9258	63.869506	0.000314	3.141489	1.064365	-0.000126
 631	6.2685e+01	14.8841	63.728206	0.000355	3.546842	1.201703	-0.000142
 632	6.2785e+01	14.8408	63.699946	0.000071	0.709368	0.240341	-0.000028
 633	6.2884e+01	14.8023	63.506164	0.000486	4.864241	1.648049	-0.000195
 634	6.2983e+01	14.7557	63.449644	0.000142	1.418737	0.480681	-0.000057
 635	6.3083e+01	14.7253	63.324493	0.000314	3.141489	1.064365	-0.000126
 636	6.3182e+01	14.6835	63.239713	0.000213	2.128105	0.721022	-0.000085
 637	6.3282e+01	14.6274	63.106487	0.000334	3.344166	1.133034	-0.000134
 638	6.3382e+01	14.6065	63.009596	0.000243	2.432121	0.824025	-0.000097
 639	6.3481e+01	14.5584	62.884445	0.000314	3.141489	1.064365	-0.000126
 640	6.3581e+01	14.5311	62.799665	0.000213	2.128105	0.721022	-0.000085
 641	6.3680e+01	14.4894	62.670477	0.000324	3.242827	1.098700	-0.000130
 642	6.3779e+01	14.4461	62.585697	0.000213	2.128105	0.721022	-0.000085
 643	6.3879e+01	14.4012	62.448434	0.000345	3.445504	1.167368	-0.000138
 644	6.3978e+01	14.3755	62.375766	0.000182	1.824090	0.618019	-0.000073
 645	6.4078e+01	14.3258	62.258689	0.000294	2.938812	0.995697	-0.000118
 646	6.4177e+01	14.2857	62.137575	0.000304	3.040151	1.030031	-0.000122
 647	6.4277e+01	14.2456	62.068943	0.000172	1.722752	0.583684	-0.000069
 648	6.4376e+01	14.2119	61.899384	0.000426	4.256211	1.442043	-0.000170
 649	6.4476e+01	14.1686	61.806530	0.000233	2.330782	0.789690	-0.000093
 650	6.4576e+01	14.1253	61.709638	0.000243	2.432121	0.824025	-0.000097
 651	6.4675e+01	14.0836	61.576413	0.000334	3.344166	1.133034	-0.000134
 652	6.4775e+01	14.0483	61.439150	0.000345	3.445504	1.167368	-0.000138
 653	6.4874e+01	14.0082	61.338222	0.000253	2.533459	0.858359	-0.000101
 654	6.4974e+01	13.9632	61.237293	0.000253	2.533459	0.858359	-0.000101
 655	6.5073e+01	13.9279	61.136365	0.000253	2.533459	0.858359	-0.000101
 656	6.5172e+01	13.8766	61.055622	0.000203	2.026767	0.686687	-0.000081
 657	6.5272e+01	13.8445	60.930471	0.000314	3.141489	1.064365	-0.000126
 658	6.5371e+01	13.8028	60.845691	0.000213	2.128105	0.721022	-0.000085
 659	6.5471e+01	13.7643	60.680169	0.000415	4.154873	1.407709	-0.000166
 660	6.5570e+01	13.7258	60.587315	0.000233	2.330782	0.789690	-0.000093
 661	6.5670e+01	13.6889	60.486386	0.000253	2.533459	0.858359	-0.000101
 662	6.5769e+01	13.6520	60.397569	0.000223	2.229444	0.755356	-0.000089
 663	6.5869e+01	13.6167	60.248195	0.000375	3.749519	1.270371	-0.000150
 664	6.5969e+01	13.5654	60.171490	0.000193	1.925429	0.652353	-0.000077
 665	6.6068e+01	13.5237	60.062487	0.000274	2.736136	0.927028	-0.000110
 666	6.6168e+01	13.4852	59.933299	0.000324	3.242827	1.098700	-0.000130
 667	6.6267e+01	13.4451	59.844482	0.000223	2.229444	0.755356	-0.000089
 668	6.6367e+01	13.4034	59.727405	0.000294	2.938812	0.995697	-0.000118
 669	6.6466e+01	13.3633	59.590142	0.000345	3.445504	1.167368	-0.000138
 670	6.6566e+01	13.3232	59.477102	0.000284	2.837474	0.961362	-0.000114
 671	6.6665e+01	13.2975	59.380211	0.000243	2.432121	0.824025	-0.000097
 672	6.6764e+01	13.2462	59.251023	0.000324	3.242827	1.098700	-0.000130
 673	6.6864e+01	13.2012	59.137983	0.000284	2.837474	0.961362	-0.000114
 674	6.6963e+01	13.1740	59.000720	0.000345	3.445504	1.167368	-0.000138
 675	6.7063e+01	13.1355	58.851346	0.000375	3.749519	1.270371	-0.000150
 676	6.7162e+01	13.0793	58.758492	0.000233	2.330782	0.789690	-0.000093
 677	6.7262e+01	13.0440	58.613155	0.000365	3.648181	1.236037	-0.000146
 678	6.7362e+01	13.0103	58.483967	0.000324	3.242827	1.098700	-0.000130
 679	6.7461e+01	12.9670	58.350741	0.000334	3.344166	1.133034	-0.000134
 680	6.7561e+01	12.9317	58.249813	0.000253	2.533459	0.858359	-0.000101
 681	6.7660e+01	12.8900	58.124662	0.000314	3.141489	1.064365	-0.000126
 682	6.7760e+01	12.8515	58.011622	0.000284	2.837474	0.961362	-0.000114
 683	6.7859e+01	12.8114	57.825914	0.000466	4.661564	1.579381	-0.000187
 684	6.7959e+01	12.7761	57.761320	0.000162	1.621414	0.549350	-0.000065
 685	6.8058e+01	12.7360	57.636168	0.000314	3.141489	1.064365	-0.000126
 686	6.8157e+01	12.7039	57.527166	0.000274	2.736136	0.927028	-0.000110
 687	6.8257e+01	12.6558	57.418163	0.000274	2.736136	0.927028	-0.000110
 688	6.8356e+01	12.6205	57.288975	0.000324	3.242827	1.098700	-0.000130
 689	6.8456e+01	12.5756	57.155749	0.000334	3.344166	1.133034	-0.000134
 690	6.8555e+01	12.5355	57.018487	0.000345	3.445504	1.167368	-0.000138
 691	6.8655e+01	12.4922	56.897373	0.000304	3.040151	1.030031	-0.000122
 692	6.8754e+01	12.4537	56.788370	0.000274	2.736136	0.927028	-0.000110
 693	6.8854e+01	12.4136	56.659182	0.000324	3.242827	1.098700	-0.000130
 694	6.8954e+01	12.3799	56.513845	0.000365	3.648181	1.236037	-0.000146
 695	6.9053e+01	12.3349	56.376582	0.000345	3.445504	1.167368	-0.000138
 696	6.9153e+01	12.3029	56.267579	0.000274	2.736136	0.927028	-0.000110
 697	6.9252e+01	12.2531	56.142428	0.000314	3.141489	1.064365	-0.000126
 698	6.9352e+01	12.2066	56.033425	0.000274	2.736136	0.927028	-0.000110
 699	6.9451e+01	12.1825	55.908274	0.000314	3.141489	1.064365	-0.000126
 700	6.9550e+01	12.1360	55.694306	0.000537	5.370933	1.819721	-0.000215
 701	6.9650e+01	12.0831	55.629712	0.000162	1.621414	0.549350	-0.000065
 702	6.9749e+01	12.0542	55.480338	0.000375	3.749519	1.270371	-0.000150
 703	6.9849e+01	12.0141	55.359224	0.000304	3.040151	1.030031	-0.000122
 704	6.9948e+01	11.9772	55.209850	0.000375	3.749519	1.270371	-0.000150
 705	7.0048e+01	11.9419	55.112959	0.000243	2.432121	0.824025	-0.000097
 706	7.0147e+01	11.9002	54.983770	0.000324	3.242827	1.098700	-0.000130
 707	7.0247e+01	11.8553	54.858619	0.000314	3.141489	1.064365	-0.000126
 708	7.0347e+01	11.8216	54.721356	0.000345	3.445504	1.167368	-0.000138
 709	7.0446e+01	11.7751	54.559871	0.000405	4.053534	1.373375	-0.000162
 710	7.0546e+01	11.7350	54.454905	0.000263	2.634797	0.892693	-0.000105
 711	7.0645e+01	11.6997	54.305531	0.000375	3.749519	1.270371	-0.000150
 712	7.0745e+01	11.6660	54.220752	0.000213	2.128105	0.721022	-0.000085
 713	7.0844e+01	11.6211	54.075415	0.000365	3.648181	1.236037	-0.000146
 714	7.0944e+01	11.5745	53.938152	0.000345	3.445504	1.167368	-0.000138
 715	7.1043e+01	11.5376	53.776667	0.000405	4.053534	1.373375	-0.000162
 716	7.1142e+01	11.4991	53.687850	0.000223	2.229444	0.755356	-0.000089
 717	7.1242e+01	11.4574	53.562698	0.000314	3.141489	1.064365	-0.000126
 718	7.1341e+01	11.4221	53.405250	0.000395	3.952196	1.339040	-0.000158
 719	7.1441e+01	11.3788	53.263950	0.000355	3.546842	1.201703	-0.000142
 720	7.1540e+01	11.3467	53.183208	0.000203	2.026767	0.686687	-0.000081
 721	7.1640e+01	11.2986	53.049982	0.000334	3.344166	1.133034	-0.000134
 722	7.1740e+01	11.2633	52.912720	0.000345	3.445504	1.167368	-0.000138
 723	7.1839e+01	11.2232	52.771420	0.000355	3.546842	1.201703	-0.000142
 724	7.1939e+01	11.1751	52.650306	0.000304	3.040151	1.030031	-0.000122
 725	7.2038e+01	11.1462	52.513043	0.000345	3.445504	1.167368	-0.000138
 726	7.2138e+01	11.1013	52.375780	0.000345	3.445504	1.167368	-0.000138
 727	7.2237e+01	11.0516	52.222369	0.000385	3.850857	1.304706	-0.000154
 728	7.2337e+01	11.0179	52.113367	0.000274	2.736136	0.927028	-0.000110
 729	7.2436e+01	10.9842	51.968030	0.000365	3.648181	1.236037	-0.000146
 730	7.2535e+01	10.9409	51.830767	0.000345	3.445504	1.167368	-0.000138
 731	7.2635e+01	10.9120	51.685430	0.000365	3.648181	1.236037	-0.000146
 732	7.2734e+01	10.8574	51.552205	0.000334	3.344166	1.133034	-0.000134
 733	7.2834e+01	10.8254	51.374571	0.000446	4.458888	1.510712	-0.000179
 734	7.2933e+01	10.7804	51.237308	0.000345	3.445504	1.167368	-0.000138
 735	7.3033e+01	10.7355	51.108120	0.000324	3.242827	1.098700	-0.000130
 736	7.3132e+01	10.6970	50.974894	0.000334	3.344166	1.133034	-0.000134
 737	7.3232e+01	10.6649	50.821483	0.000385	3.850857	1.304706	-0.000154
 738	7.3332e+01	10.6232	50.676146	0.000365	3.648181	1.236037	-0.000146
 739	7.3431e+01	10.6008	50.542921	0.000334	3.344166	1.133034	-0.000134
 740	7.3531e+01	10.5398	50.393547	0.000375	3.749519	1.270371	-0.000150
 741	7.3630e+01	10.5077	50.284544	0.000274	2.736136	0.927028	-0.000110
 742	7.3730e+01	10.4596	50.110947	0.000436	4.357549	1.476378	-0.000174
 743	7.3829e+01	10.4179	49.953499	0.000395	3.952196	1.339040	-0.000158
 744	7.3928e+01	10.3778	49.836422	0.000294	2.938812	0.995697	-0.000118
 745	7.4028e+01	10.3361	49.683011	0.000385	3.850857	1.304706	-0.000154
 746	7.4127e+01	10.3008	49.561897	0.000304	3.040151	1.030031	-0.000122
 747	7.4227e+01	10.2623	49.400411	0.000405	4.053534	1.373375	-0.000162
 748	7.4326e+01	10.2174	49.287372	0.000284	2.837474	0.961362	-0.000114
 749	7.4426e+01	10.1805	49.137998	0.000375	3.749519	1.270371	-0.000150
 750	7.4525e+01	10.1436	48.984586	0.000385	3.850857	1.304706	-0.000154
 751	7.4625e+01	10.1002	48.839250	0.000365	3.648181	1.236037	-0.000146
 752	7.4725e+01	10.0585	48.734284	0.000263	2.634797	0.892693	-0.000105
 753	7.4824e+01	10.0232	48.601059	0.000334	3.344166	1.133034	-0.000134
 754	7.4924e+01	9.9799	48.455722	0.000365	3.648181	1.236037	-0.000146
 755	7.5023e+01	9.9446	48.314422	0.000355	3.546842	1.201703	-0.000142
 756	7.5123e+01	9.9077	48.169085	0.000365	3.648181	1.236037	-0.000146
 757	7.5222e+01	9.8692	48.011637	0.000395	3.952196	1.339040	-0.000158
 758	7.5322e+01	9.8163	47.854188	0.000395	3.952196	1.339040	-0.000158
 759	7.5421e+01	9.7874	47.725000	0.000324	3.242827	1.098700	-0.000130
 760	7.5520e+01	9.7409	47.611960	0.000284	2.837474	0.961362	-0.000114
 761	7.5620e+01	9.7088	47.426252	0.000466	4.661564	1.579381	-0.000187
 762	7.5719e+01	9.6671	47.309175	0.000294	2.938812	0.995697	-0.000118
 763	7.5819e+01	9.6222	47.204210	0.000263	2.634797	0.892693	-0.000105
 764	7.5918e+01	9.5837	47.119430	0.000213	2.128105	0.721022	-0.000085
 765	7.6018e+01	9.5500	46.949870	0.000426	4.256211	1.442043	-0.000170
 766	7.6118e+01	9.5035	46.816645	0.000334	3.344166	1.133034	-0.000134
 767	7.6217e+01	9.4698	46.675345	0.000355	3.546842	1.201703	-0.000142
 768	7.6317e+01	9.4217	46.542119	0.000334	3.344166	1.133034	-0.000134
 769	7.6416e+01	9.3848	46.396782	0.000365	3.648181	1.236037	-0.000146
 770	7.6516e+01	9.3447	46.243371	0.000385	3.850857	1.304706	-0.000154
 771	7.6615e+01	9.3110	46.114183	0.000324	3.242827	1.098700	-0.000130
 772	7.6715e+01	9.2725	45.993069	0.000304	3.040151	1.030031	-0.000122
 773	7.6814e+01	9.2211	45.855806	0.000345	3.445504	1.167368	-0.000138
 774	7.6913e+01	9.1794	45.702395	0.000385	3.850857	1.304706	-0.000154
 775	7.7013e+01	9.1425	45.528798	0.000436	4.357549	1.476378	-0.000174
 776	7.7112e+01	9.1072	45.411721	0.000294	2.938812	0.995697	-0.000118
 777	7.7212e+01	9.0703	45.274459	0.000345	3.445504	1.167368	-0.000138
 778	7.7311e+01	9.0302	45.149308	0.000314	3.141489	1.064365	-0.000126
 779	7.7411e+01	8.9901	45.003971	0.000365	3.648181	1.236037	-0.000146
 780	7.7510e+01	8.9420	44.798077	0.000517	5.168256	1.751053	-0.000207
 781	7.7610e+01	8.8987	44.709260	0.000223	2.229444	0.755356	-0.000089
 782	7.7710e+01	8.8714	44.527589	0.000456	4.560226	1.545046	-0.000183
 783	7.7809e+01	8.8249	44.341880	0.000466	4.661564	1.579381	-0.000187
 784	7.7909e+01	8.7896	44.244989	0.000243	2.432121	0.824025	-0.000097
 785	7.8008e+01	8.7431	44.071392	0.000436	4.357549	1.476378	-0.000174
 786	7.8108e+01	8.7126	43.938167	0.000334	3.344166	1.133034	-0.000134
 787	7.8207e+01	8.6757	43.788793	0.000375	3.749519	1.270371	-0.000150
 788	7.8306e+01	8.6340	43.647493	0.000355	3.546842	1.201703	-0.000142
 789	7.8406e+01	8.5939	43.486008	0.000405	4.053534	1.373375	-0.000162
 790	7.8505e+01	8.5506	43.377005	0.000274	2.736136	0.927028	-0.000110
 791	7.8605e+01	8.5089	43.259928	0.000294	2.938812	0.995697	-0.000118
 792	7.8704e+01	8.4703	43.090368	0.000426	4.256211	1.442043	-0.000170
 793	7.8804e+01	8.4286	42.977328	0.000284	2.837474	0.961362	-0.000114
 794	7.8903e+01	8.3869	42.860252	0.000294	2.938812	0.995697	-0.000118
 795	7.9003e+01	8.3484	42.694729	0.000415	4.154873	1.407709	-0.000166
 796	7.9103e+01	8.3163	42.549392	0.000365	3.648181	1.236037	-0.000146
 797	7.9202e+01	8.2698	42.420204	0.000324	3.242827	1.098700	-0.000130
 798	7.9302e+01	8.2249	42.278904	0.000355	3.546842	1.201703	-0.000142
 799	7.9401e+01	8.1912	42.129530	0.000375	3.749519	1.270371	-0.000150
 800	7.9501e+01	8.1479	41.980156	0.000375	3.749519	1.270371	-0.000150
 801	7.9600e+01	8.1206	41.855005	0.000314	3.141489	1.064365	-0.000126
 802	7.9700e+01	8.0629	41.709668	0.000365	3.648181	1.236037	-0.000146
 803	7.9799e+01	8.0308	41.532034	0.000446	4.458888	1.510712	-0.000179
 804	7.9898e+01	7.9843	41.358437	0.000436	4.357549	1.476378	-0.000174
 805	7.9998e+01	7.9570	41.253472	0.000263	2.634797	0.892693	-0.000105
 806	8.0097e+01	7.9105	41.087949	0.000415	4.154873	1.407709	-0.000166
 807	8.0197e+01	7.8784	40.930501	0.000395	3.952196	1.339040	-0.000158
 808	8.0296e+01	7.8383	40.793238	0.000345	3.445504	1.167368	-0.000138
 809	8.0396e+01	7.7837	40.615604	0.000446	4.458888	1.510712	-0.000179
 810	8.0496e+01	7.7581	40.506601	0.000274	2.736136	0.927028	-0.000110
 811	8.0595e+01	7.7035	40.341079	0.000415	4.154873	1.407709	-0.000166
 812	8.0695e+01	7.6602	40.224002	0.000294	2.938812	0.995697	-0.000118
 813	8.0794e+01	7.6410	40.078665	0.000365	3.648181	1.236037	-0.000146
 814	8.0894e+01	7.5944	39.949477	0.000324	3.242827	1.098700	-0.000130
 815	8.0993e+01	7.5543	39.812214	0.000345	3.445504	1.167368	-0.000138
 816	8.1093e+01	7.5206	39.674951	0.000345	3.445504	1.167368	-0.000138
 817	8.1192e+01	7.4677	39.473095	0.000507	5.066918	1.716718	-0.000203
 818	8.1291e+01	7.4276	39.347943	0.000314	3.141489	1.064365	-0.000126
 819	8.1391e+01	7.3907	39.202607	0.000365	3.648181	1.236037	-0.000146
 820	8.1490e+01	7.3506	39.057270	0.000365	3.648181	1.236037	-0.000146
 821	8.1590e+01	7.3105	38.911933	0.000365	3.648181	1.236037	-0.000146
 822	8.1689e+01	7.2704	38.802930	0.000274	2.736136	0.927028	-0.000110
 823	8.1789e+01	7.2319	38.601073	0.000507	5.066918	1.716718	-0.000203
 824	8.1888e+01	7.1854	38.467848	0.000334	3.344166	1.133034	-0.000134
 825	8.1988e+01	7.1533	38.270028	0.000497	4.965579	1.682384	-0.000199
 826	8.2088e+01	7.1164	38.140840	0.000324	3.242827	1.098700	-0.000130
 827	8.2187e+01	7.0699	37.999540	0.000355	3.546842	1.201703	-0.000142
 828	8.2287e+01	7.0330	37.850166	0.000375	3.749519	1.270371	-0.000150
 829	8.2386e+01	6.9880	37.704829	0.000365	3.648181	1.236037	-0.000146
 830	8.2486e+01	6.9479	37.551418	0.000385	3.850857	1.304706	-0.000154
 831	8.2585e+01	6.9239	37.402044	0.000375	3.749519	1.270371	-0.000150
 832	8.2684e+01	6.8709	37.236521	0.000415	4.154873	1.407709	-0.000166
 833	8.2784e+01	6.8308	37.111370	0.000314	3.141489	1.064365	-0.000126
 834	8.2883e+01	6.7971	36.961996	0.000375	3.749519	1.270371	-0.000150
 835	8.2983e+01	6.7426	36.820696	0.000355	3.546842	1.201703	-0.000142
 836	8.3082e+01	6.7233	36.671322	0.000375	3.749519	1.270371	-0.000150
 837	8.3182e+01	6.6736	36.521948	0.000375	3.749519	1.270371	-0.000150
 838	8.3281e+01	6.6303	36.352389	0.000426	4.256211	1.442043	-0.000170
 839	8.3381e+01	6.5934	36.227238	0.000314	3.141489	1.064365	-0.000126
 840	8.3481e+01	6.5501	36.077864	0.000375	3.749519	1.270371	-0.000150
 841	8.3580e+01	6.5148	35.896192	0.000456	4.560226	1.545046	-0.000183
 842	8.3680e+01	6.4699	35.746818	0.000375	3.749519	1.270371	-0.000150
 843	8.3779e+01	6.4378	35.629741	0.000294	2.938812	0.995697	-0.000118
 844	8.3879e+01	6.3945	35.448070	0.000456	4.560226	1.545046	-0.000183
 845	8.3978e+01	6.3544	35.302733	0.000365	3.648181	1.236037	-0.000146
 846	8.4078e+01	6.3223	35.129137	0.000436	4.357549	1.476378	-0.000174
 847	8.4177e+01	6.2758	35.003985	0.000314	3.141489	1.064365	-0.000126
 848	8.4276e+01	6.2324	34.874797	0.000324	3.242827	1.098700	-0.000130
 849	8.4376e+01	6.2036	34.689089	0.000466	4.661564	1.579381	-0.000187
 850	8.4475e+01	6.1603	34.527603	0.000405	4.053534	1.373375	-0.000162
 851	8.4575e+01	6.1169	34.366118	0.000405	4.053534	1.373375	-0.000162
 852	8.4674e+01	6.0800	34.184447	0.000456	4.560226	1.545046	-0.000183
 853	8.4774e+01	6.0367	34.079481	0.000263	2.634797	0.892693	-0.000105
 854	8.4874e+01	5.9998	33.901847	0.000446	4.458888	1.510712	-0.000179
 855	8.4973e+01	5.9661	33.784770	0.000294	2.938812	0.995697	-0.000118
 856	8.5073e+01	5.9212	33.586951	0.000497	4.965579	1.682384	-0.000199
 857	8.5172e+01	5.8699	33.469874	0.000294	2.938812	0.995697	-0.000118
 858	8.5272e+01	5.8378	33.320500	0.000375	3.749519	1.270371	-0.000150
 859	8.5371e+01	5.8041	33.163052	0.000395	3.952196	1.339040	-0.000158
 860	8.5471e+01	5.7528	33.009640	0.000385	3.850857	1.304706	-0.000154
 861	8.5570e+01	5.7127	32.840081	0.000426	4.256211	1.442043	-0.000170
 862	8.5669e+01	5.6726	32.702818	0.000345	3.445504	1.167368	-0.000138
 863	8.5769e+01	5.6357	32.517110	0.000466	4.661564	1.579381	-0.000187
 864	8.5868e+01	5.5988	32.379847	0.000345	3.445504	1.167368	-0.000138
 865	8.5968e+01	5.5571	32.222399	0.000395	3.952196	1.339040	-0.000158
 866	8.6067e+01	5.5234	32.073025	0.000375	3.749519	1.270371	-0.000150
 867	8.6167e+01	5.4817	31.923651	0.000375	3.749519	1.270371	-0.000150
 868	8.6266e+01	5.4335	31.778314	0.000365	3.648181	1.236037	-0.000146
 869	8.6366e+01	5.4031	31.592606	0.000466	4.661564	1.579381	-0.000187
 870	8.6466e+01	5.3630	31.499752	0.000233	2.330782	0.789690	-0.000093
 871	8.6565e+01	5.3196	31.330192	0.000426	4.256211	1.442043	-0.000170
 872	8.6665e+01	5.2859	31.180818	0.000375	3.749519	1.270371	-0.000150
 873	8.6764e+01	5.2394	31.039518	0.000355	3.546842	1.201703	-0.000142
 874	8.6864e+01	5.2025	30.898218	0.000355	3.546842	1.201703	-0.000142
 875	8.6963e+01	5.1688	30.716547	0.000456	4.560226	1.545046	-0.000183
 876	8.7063e+01	5.1191	30.534876	0.000456	4.560226	1.545046	-0.000183
 877	8.7162e+01	5.0870	30.409725	0.000314	3.141489	1.064365	-0.000126
 878	8.7261e+01	5.0405	30.236128	0.000436	4.357549	1.476378	-0.000174
 879	8.7361e+01	5.0004	30.082717	0.000385	3.850857	1.304706	-0.000154
 880	8.7460e+01	4.9667	29.945454	0.000345	3.445504	1.167368	-0.000138
 881	8.7560e+01	4.9234	29.771858	0.000436	4.357549	1.476378	-0.000174
 882	8.7659e+01	4.8913	29.626521	0.000365	3.648181	1.236037	-0.000146
 883	8.7759e+01	4.8448	29.428701	0.000497	4.965579	1.682384	-0.000199
 884	8.7859e+01	4.8063	29.311624	0.000294	2.938812	0.995697	-0.000118
 885	8.7958e+01	4.7630	29.129953	0.000456	4.560226	1.545046	-0.000183
 886	8.8058e+01	4.7148	28.976542	0.000385	3.850857	1.304706	-0.000154
 887	8.8157e+01	4.6860	28.811019	0.000415	4.154873	1.407709	-0.000166
 888	8.8257e+01	4.6410	28.645497	0.000415	4.154873	1.407709	-0.000166
 889	8.8356e+01	4.6009	28.484011	0.000405	4.053534	1.373375	-0.000162
 890	8.8456e+01	4.5608	28.326563	0.000395	3.952196	1.339040	-0.000158
 891	8.8555e+01	4.5287	28.189300	0.000345	3.445504	1.167368	-0.000138
 892	8.8654e+01	4.4822	28.035889	0.000385	3.850857	1.304706	-0.000154
 893	8.8754e+01	4.4437	27.890552	0.000365	3.648181	1.236037	-0.000146
 894	8.8853e+01	4.4068	27.716955	0.000436	4.357549	1.476378	-0.000174
 895	8.8953e+01	4.3683	27.575656	0.000355	3.546842	1.201703	-0.000142
 896	8.9052e+01	4.3186	27.430319	0.000365	3.648181	1.236037	-0.000146
 897	8.9152e+01	4.2817	27.272870	0.000395	3.952196	1.339040	-0.000158
 898	8.9251e+01	4.2464	27.119459	0.000385	3.850857	1.304706	-0.000154
 899	8.9351e+01	4.2079	26.974122	0.000365	3.648181	1.236037	-0.000146
 900	8.9451e+01	4.1694	26.816674	0.000395	3.952196	1.339040	-0.000158
 901	8.9550e+01	4.1325	26.691523	0.000314	3.141489	1.064365	-0.000126
 902	8.9650e+01	4.0828	26.521963	0.000426	4.256211	1.442043	-0.000170
 903	8.9749e+01	4.0523	26.356441	0.000415	4.154873	1.407709	-0.000166
 904	8.9849e+01	4.0106	26.182844	0.000436	4.357549	1.476378	-0.000174
 905	8.9948e+01	3.9689	26.037507	0.000365	3.648181	1.236037	-0.000146
 906	9.0047e+01	3.9272	25.904281	0.000334	3.344166	1.133034	-0.000134
 907	9.0147e+01	3.8903	25.738759	0.000415	4.154873	1.407709	-0.000166
 908	9.0246e+01	3.8453	25.589385	0.000375	3.749519	1.270371	-0.000150
 909	9.0346e+01	3.8101	25.472308	0.000294	2.938812	0.995697	-0.000118
 910	9.0445e+01	3.7683	25.306785	0.000415	4.154873	1.407709	-0.000166
 911	9.0545e+01	3.7234	25.137226	0.000426	4.256211	1.442043	-0.000170
 912	9.0644e+01	3.6865	24.995926	0.000355	3.546842	1.201703	-0.000142
 913	9.0744e+01	3.6464	24.810218	0.000466	4.661564	1.579381	-0.000187
 914	9.0844e+01	3.6047	24.685066	0.000314	3.141489	1.064365	-0.000126
 915	9.0943e+01	3.5678	24.519544	0.000415	4.154873	1.407709	-0.000166
 916	9.1043e+01	3.5245	24.333836	0.000466	4.661564	1.579381	-0.000187
 917	9.1142e+01	3.4860	24.196573	0.000345	3.445504	1.167368	-0.000138
 918	9.1242e+01	3.4555	24.014902	0.000456	4.560226	1.545046	-0.000183
 919	9.1341e+01	3.4074	23.881676	0.000334	3.344166	1.133034	-0.000134
 920	9.1441e+01	3.3625	23.704042	0.000446	4.458888	1.510712	-0.000179
 921	9.1540e+01	3.3256	23.574854	0.000324	3.242827	1.098700	-0.000130
 922	9.1639e+01	3.2839	23.397220	0.000446	4.458888	1.510712	-0.000179
 923	9.1739e+01	3.2470	23.227660	0.000426	4.256211	1.442043	-0.000170
 924	9.1838e+01	3.2004	23.098472	0.000324	3.242827	1.098700	-0.000130
 925	9.1938e+01	3.1668	22.961210	0.000345	3.445504	1.167368	-0.000138
 926	9.2037e+01	3.1379	22.755316	0.000517	5.168256	1.751053	-0.000207
 927	9.2137e+01	3.0881	22.614016	0.000355	3.546842	1.201703	-0.000142
 928	9.2237e+01	3.0480	22.456568	0.000395	3.952196	1.339040	-0.000158
 929	9.2336e+01	3.0079	22.278934	0.000446	4.458888	1.510712	-0.000179
 930	9.2436e+01	2.9630	22.121485	0.000395	3.952196	1.339040	-0.000158
 931	9.2535e+01	2.9277	21.923666	0.000497	4.965579	1.682384	-0.000199
 932	9.2635e+01	2.8860	21.770254	0.000385	3.850857	1.304706	-0.000154
 933	9.2734e+01	2.8491	21.608769	0.000405	4.053534	1.373375	-0.000162
 934	9.2834e+01	2.8138	21.435172	0.000436	4.357549	1.476378	-0.000174
 935	9.2933e+01	2.7721	21.257538	0.000446	4.458888	1.510712	-0.000179
 936	9.3032e+01	2.7336	21.051644	0.000517	5.168256	1.751053	-0.000207
 937	9.3132e+01	2.6919	20.918419	0.000334	3.344166	1.133034	-0.000134
 938	9.3231e+01	2.6502	20.692339	0.000567	5.674948	1.922724	-0.000227
 939	9.3331e+01	2.6053	20.547002	0.000365	3.648181	1.236037	-0.000146
 940	9.3430e+01	2.5764	20.345146	0.000507	5.066918	1.716718	-0.000203
 941	9.3530e+01	2.5267	20.191734	0.000385	3.850857	1.304706	-0.000154
 942	9.3629e+01	2.4914	20.006026	0.000466	4.661564	1.579381	-0.000187
 943	9.3729e+01	2.4593	19.852615	0.000385	3.850857	1.304706	-0.000154
 944	9.3829e+01	2.4192	19.674981	0.000446	4.458888	1.510712	-0.000179
 945	9.3928e+01	2.3759	19.489273	0.000466	4.661564	1.579381	-0.000187
 946	9.4028e+01	2.3342	19.343936	0.000365	3.648181	1.236037	-0.000146
 947	9.4127e+01	2.2844	19.182450	0.000405	4.053534	1.373375	-0.000162
 948	9.4227e+01	2.2556	19.004816	0.000446	4.458888	1.510712	-0.000179
 949	9.4326e+01	2.2042	18.827183	0.000446	4.458888	1.510712	-0.000179
 950	9.4425e+01	2.1785	18.685883	0.000355	3.546842	1.201703	-0.000142
 951	9.4525e+01	2.1352	18.488063	0.000497	4.965579	1.682384	-0.000199
 952	9.4624e+01	2.0951	18.338689	0.000375	3.749519	1.270371	-0.000150
 953	9.4724e+01	2.0566	18.136832	0.000507	5.066918	1.716718	-0.000203
 954	9.4823e+01	2.0213	17.963235	0.000436	4.357549	1.476378	-0.000174
 955	9.4923e+01	1.9700	17.785601	0.000446	4.458888	1.510712	-0.000179
 956	9.5022e+01	1.9331	17.579708	0.000517	5.168256	1.751053	-0.000207
 957	9.5122e+01	1.8802	17.422259	0.000395	3.952196	1.339040	-0.000158
 958	9.5222e+01	1.8513	17.272885	0.000375	3.749519	1.270371	-0.000150
 959	9.5321e+01	1.8080	17.066991	0.000517	5.168256	1.751053	-0.000207
 960	9.5421e+01	1.7695	16.921654	0.000365	3.648181	1.236037	-0.000146
 961	9.5520e+01	1.7342	16.715761	0.000517	5.168256	1.751053	-0.000207
 962	9.5620e+01	1.6989	16.521978	0.000486	4.864241	1.648049	-0.000195
 963	9.5719e+01	1.6556	16.364530	0.000395	3.952196	1.339040	-0.000158
 964	9.5819e+01	1.6187	16.186896	0.000446	4.458888	1.510712	-0.000179
 965	9.5918e+01	1.5705	16.013299	0.000436	4.357549	1.476378	-0.000174
 966	9.6017e+01	1.5320	15.799331	0.000537	5.370933	1.819721	-0.000215
 967	9.6117e+01	1.4951	15.658031	0.000355	3.546842	1.201703	-0.000142
 968	9.6216e+01	1.4550	15.444063	0.000537	5.370933	1.819721	-0.000215
 969	9.6316e+01	1.4181	15.258355	0.000466	4.661564	1.579381	-0.000187
 970	9.6415e+01	1.3877	15.068609	0.000476	4.762903	1.613715	-0.000191
 971	9.6515e+01	1.3460	14.882901	0.000466	4.661564	1.579381	-0.000187
 972	9.6615e+01	1.2962	14.668933	0.000537	5.370933	1.819721	-0.000215
 973	9.6714e+01	1.2593	14.527633	0.000355	3.546842	1.201703	-0.000142
 974	9.6814e+01	1.2096	14.382296	0.000365	3.648181	1.236037	-0.000146
 975	9.6913e+01	1.1823	14.164291	0.000547	5.472271	1.854056	-0.000219
 976	9.7013e+01	1.1342	13.978582	0.000466	4.661564	1.579381	-0.000187
 977	9.7112e+01	1.0909	13.813060	0.000415	4.154873	1.407709	-0.000166
 978	9.7212e+01	1.0476	13.639463	0.000436	4.357549	1.476378	-0.000174
 979	9.7311e+01	1.0107	13.441643	0.000497	4.965579	1.682384	-0.000199
 980	9.7410e+01	0.9738	13.247861	0.000486	4.864241	1.648049	-0.000195
 981	9.7510e+01	0.9289	13.066190	0.000456	4.560226	1.545046	-0.000183
 982	9.7609e+01	0.8839	12.892593	0.000436	4.357549	1.476378	-0.000174
 983	9.7709e+01	0.8502	12.698810	0.000486	4.864241	1.648049	-0.000195
 984	9.7808e+01	0.8198	12.513102	0.000466	4.661564	1.579381	-0.000187
 985	9.7908e+01	0.7797	12.319320	0.000486	4.864241	1.648049	-0.000195
 986	9.8007e+01	0.7476	12.121500	0.000497	4.965579	1.682384	-0.000199
 987	9.8107e+01	0.6994	11.927718	0.000486	4.864241	1.648049	-0.000195
 988	9.8207e+01	0.6706	11.750084	0.000446	4.458888	1.510712	-0.000179
 989	9.8306e+01	0.6224	11.524004	0.000567	5.674948	1.922724	-0.000227
 990	9.8406e+01	0.5791	11.342333	0.000456	4.560226	1.545046	-0.000183
 991	9.8505e+01	0.5310	11.156625	0.000466	4.661564	1.579381	-0.000187
 992	9.8605e+01	0.4989	10.995139	0.000405	4.053534	1.373375	-0.000162
 993	9.8704e+01	0.4588	10.797320	0.000497	4.965579	1.682384	-0.000199
 994	9.8803e+01	0.4283	10.647946	0.000375	3.749519	1.270371	-0.000150
 995	9.8903e+01	0.3802	10.442052	0.000517	5.168256	1.751053	-0.000207
 996	9.9002e+01	0.3401	10.280566	0.000405	4.053534	1.373375	-0.000162
 997	9.9102e+01	0.3016	10.042375	0.000598	5.978963	2.025727	-0.000239
 998	9.9201e+01	0.2663	9.884927	0.000395	3.952196	1.339040	-0.000158
 999	9.9301e+01	0.2182	9.695181	0.000476	4.762903	1.613715	-0.000191
1000	9.9400e+01	0.1797	9.525622	0.000426	4.256211	1.442043	-0.000170
1001	9.9500e+01	0.1364	9.352025	0.000436	4.357549	1.476378	-0.000174
1002	9.9600e+01	0.0995	9.178428	0.000436	4.357549	1.476378	-0.000174
1003	9.9699e+01	0.0642	8.984646	0.000486	4.864241	1.648049	-0.000195
1004	9.9799e+01	0.0096	8.750492	0.000588	5.877625	1.991393	-0.000235
1005	9.9898e+01	-0.0128	8.625341	0.000314	3.141489	1.064365	-0.000126
1006	9.9998e+01	-0.0529	8.439632	0.000466	4.661564	1.579381	-0.000187
1007	1.0010e+02	-0.0930	8.221627	0.000547	5.472271	1.854056	-0.000219
1008	1.0020e+02	-0.1283	8.064179	0.000395	3.952196	1.339040	-0.000158
1009	1.0030e+02	-0.1717	7.870396	0.000486	4.864241	1.648049	-0.000195
1010	1.0040e+02	-0.2069	7.616057	0.000638	6.384316	2.163065	-0.000256
1011	1.0050e+02	-0.2503	7.474757	0.000355	3.546842	1.201703	-0.000142
1012	1.0059e+02	-0.2839	7.232529	0.000608	6.080301	2.060062	-0.000243
1013	1.0069e+02	-0.3305	7.054895	0.000446	4.458888	1.510712	-0.000179
1014	1.0079e+02	-0.3658	6.881298	0.000436	4.357549	1.476378	-0.000174
1015	1.0089e+02	-0.4107	6.723850	0.000395	3.952196	1.339040	-0.000158
1016	1.0099e+02	-0.4492	6.505844	0.000547	5.472271	1.854056	-0.000219
1017	1.0109e+02	-0.4829	6.299950	0.000517	5.168256	1.751053	-0.000207
1018	1.0119e+02	-0.5342	6.134428	0.000415	4.154873	1.407709	-0.000166
1019	1.0129e+02	-0.5663	5.956794	0.000446	4.458888	1.510712	-0.000179
1020	1.0139e+02	-0.6112	5.779160	0.000446	4.458888	1.510712	-0.000179
1021	1.0149e+02	-0.6513	5.593452	0.000466	4.661564	1.579381	-0.000187
1022	1.0159e+02	-0.6866	5.427929	0.000415	4.154873	1.407709	-0.000166
1023	1.0169e+02	-0.7251	5.238184	0.000476	4.762903	1.613715	-0.000191
1024	1.0179e+02	-0.7716	5.076698	0.000405	4.053534	1.373375	-0.000162
1025	1.0189e+02	-0.8182	4.890990	0.000466	4.661564	1.579381	-0.000187
1026	1.0199e+02	-0.8470	4.737579	0.000385	3.850857	1.304706	-0.000154
1027	1.0209e+02	-0.8903	4.523611	0.000537	5.370933	1.819721	-0.000215
1028	1.0219e+02	-0.9289	4.325791	0.000497	4.965579	1.682384	-0.000199
1029	1.0229e+02	-0.9690	4.168343	0.000395	3.952196	1.339040	-0.000158
1030	1.0239e+02	-1.0187	3.994746	0.000436	4.357549	1.476378	-0.000174
1031	1.0248e+02	-1.0556	3.792889	0.000507	5.066918	1.716718	-0.000203
1032	1.0258e+02	-1.0861	3.591032	0.000507	5.066918	1.716718	-0.000203
1033	1.0268e+02	-1.1246	3.437621	0.000385	3.850857	1.304706	-0.000154
1034	1.0278e+02	-1.1518	3.251913	0.000466	4.661564	1.579381	-0.000187
1035	1.0288e+02	-1.2080	3.037945	0.000537	5.370933	1.819721	-0.000215
1036	1.0298e+02	-1.2481	2.896645	0.000355	3.546842	1.201703	-0.000142
1037	1.0308e+02	-1.2866	2.658454	0.000598	5.978963	2.025727	-0.000239
1038	1.0318e+02	-1.3331	2.513117	0.000365	3.648181	1.236037	-0.000146
1039	1.0328e+02	-1.3684	2.291075	0.000557	5.573610	1.888390	-0.000223
1040	1.0338e+02	-1.4069	2.101329	0.000476	4.762903	1.613715	-0.000191
1041	1.0348e+02	-1.4518	1.907547	0.000486	4.864241	1.648049	-0.000195
1042	1.0358e+02	-1.4839	1.693578	0.000537	5.370933	1.819721	-0.000215
1043	1.0368e+02	-1.5353	1.487685	0.000517	5.168256	1.751053	-0.000207
1044	1.0378e+02	-1.5593	1.318125	0.000426	4.256211	1.442043	-0.000170
1045	1.0388e+02	-1.6106	1.148565	0.000426	4.256211	1.442043	-0.000170
1046	1.0398e+02	-1.6379	0.938634	0.000527	5.269594	1.785387	-0.000211
1047	1.0408e+02	-1.6877	0.748889	0.000476	4.762903	1.613715	-0.000191
1048	1.0418e+02	-1.7229	0.595478	0.000385	3.850857	1.304706	-0.000154
1049	1.0428e+02	-1.7727	0.417844	0.000446	4.458888	1.510712	-0.000179
1050	1.0438e+02	-1.8144	0.207912	0.000527	5.269594	1.785387	-0.000211
1051	1.0447e+02	-1.8417	0.006056	0.000507	5.066918	1.716718	-0.000203
1052	1.0457e+02	-1.8786	-0.163504	0.000426	4.256211	1.442043	-0.000170
1053	1.0467e+02	-1.9379	-0.333064	0.000426	4.256211	1.442043	-0.000170
1054	1.0477e+02	-1.9652	-0.571255	0.000598	5.978963	2.025727	-0.000239
1055	1.0487e+02	-2.0085	-0.805409	0.000588	5.877625	1.991393	-0.000235
1056	1.0497e+02	-2.0470	-1.027451	0.000557	5.573610	1.888390	-0.000223
1057	1.0507e+02	-2.0791	-1.221234	0.000486	4.864241	1.648049	-0.000195
1058	1.0517e+02	-2.1224	-1.406942	0.000466	4.661564	1.579381	-0.000187
1059	1.0527e+02	-2.1689	-1.588613	0.000456	4.560226	1.545046	-0.000183
1060	1.0537e+02	-2.2010	-1.770284	0.000456	4.560226	1.545046	-0.000183
1061	1.0547e+02	-2.2459	-1.923695	0.000385	3.850857	1.304706	-0.000154
1062	1.0557e+02	-2.2924	-2.056921	0.000334	3.344166	1.133034	-0.000134
1063	1.0567e+02	-2.3149	-2.230517	0.000436	4.357549	1.476378	-0.000174
1064	1.0577e+02	-2.3582	-2.476783	0.000618	6.181640	2.094396	-0.000248
1065	1.0587e+02	-2.4015	-2.650380	0.000436	4.357549	1.476378	-0.000174
1066	1.0597e+02	-2.4416	-2.815902	0.000415	4.154873	1.407709	-0.000166
1067	1.0607e+02	-2.4882	-2.989499	0.000436	4.357549	1.476378	-0.000174
1068	1.0617e+02	-2.5315	-3.195393	0.000517	5.168256	1.751053	-0.000207
1069	1.0627e+02	-2.5700	-3.356878	0.000405	4.053534	1.373375	-0.000162
1070	1.0637e+02	-2.5956	-3.570847	0.000537	5.370933	1.819721	-0.000215
1071	1.0647e+02	-2.6390	-3.736369	0.000415	4.154873	1.407709	-0.000166
1072	1.0656e+02	-2.6791	-3.926115	0.000476	4.762903	1.613715	-0.000191
1073	1.0666e+02	-2.7192	-4.087600	0.000405	4.053534	1.373375	-0.000162
1074	1.0676e+02	-2.7545	-4.261197	0.000436	4.357549	1.476378	-0.000174
1075	1.0686e+02	-2.8122	-4.459016	0.000497	4.965579	1.682384	-0.000199
1076	1.0696e+02	-2.8379	-4.596279	0.000345	3.445504	1.167368	-0.000138
1077	1.0706e+02	-2.8876	-4.842544	0.000618	6.181640	2.094396	-0.000248
1078	1.0716e+02	-2.9165	-4.999993	0.000395	3.952196	1.339040	-0.000158
1079	1.0726e+02	-2.9630	-5.169552	0.000426	4.256211	1.442043	-0.000170
1080	1.0736e+02	-3.0095	-5.302778	0.000334	3.344166	1.133034	-0.000134
1081	1.0746e+02	-3.0513	-5.456189	0.000385	3.850857	1.304706	-0.000154
1082	1.0756e+02	-3.0801	-5.654009	0.000497	4.965579	1.682384	-0.000199
1083	1.0766e+02	-3.1154	-5.811457	0.000395	3.952196	1.339040	-0.000158
1084	1.0776e+02	-3.1603	-6.009277	0.000497	4.965579	1.682384	-0.000199
1085	1.0786e+02	-3.2004	-6.146539	0.000345	3.445504	1.167368	-0.000138
1086	1.0796e+02	-3.2373	-6.299950	0.000385	3.850857	1.304706	-0.000154
1087	1.0806e+02	-3.2807	-6.513919	0.000537	5.370933	1.819721	-0.000215
1088	1.0816e+02	-3.3143	-6.715775	0.000507	5.066918	1.716718	-0.000203
1089	1.0826e+02	-3.3593	-6.861112	0.000365	3.648181	1.236037	-0.000146
1090	1.0836e+02	-3.3946	-7.054895	0.000486	4.864241	1.648049	-0.000195
1091	1.0845e+02	-3.4443	-7.216380	0.000405	4.053534	1.373375	-0.000162
1092	1.0855e+02	-3.4748	-7.438423	0.000557	5.573610	1.888390	-0.000223
1093	1.0865e+02	-3.5213	-7.607982	0.000426	4.256211	1.442043	-0.000170
1094	1.0875e+02	-3.5534	-7.842136	0.000588	5.877625	1.991393	-0.000235
1095	1.0885e+02	-3.6047	-8.056104	0.000537	5.370933	1.819721	-0.000215
1096	1.0895e+02	-3.6368	-8.221627	0.000415	4.154873	1.407709	-0.000166
1097	1.0905e+02	-3.6769	-8.419447	0.000497	4.965579	1.682384	-0.000199
1098	1.0915e+02	-3.7250	-8.617266	0.000497	4.965579	1.682384	-0.000199
1099	1.0925e+02	-3.7603	-8.811049	0.000486	4.864241	1.648049	-0.000195
1100	1.0935e+02	-3.7924	-9.016943	0.000517	5.168256	1.751053	-0.000207
1101	1.0945e+02	-3.8453	-9.222837	0.000517	5.168256	1.751053	-0.000207
1102	1.0955e+02	-3.8758	-9.388359	0.000415	4.154873	1.407709	-0.000166
1103	1.0965e+02	-3.9288	-9.582142	0.000486	4.864241	1.648049	-0.000195
1104	1.0975e+02	-3.9705	-9.783998	0.000507	5.066918	1.716718	-0.000203
1105	1.0985e+02	-3.9994	-9.945484	0.000405	4.053534	1.373375	-0.000162
1106	1.0995e+02	-4.0379	-10.147341	0.000507	5.066918	1.716718	-0.000203
1107	1.1005e+02	-4.0796	-10.284603	0.000345	3.445504	1.167368	-0.000138
1108	1.1015e+02	-4.1245	-10.510683	0.000567	5.674948	1.922724	-0.000227
1109	1.1025e+02	-4.1566	-10.700428	0.000476	4.762903	1.613715	-0.000191
1110	1.1035e+02	-4.2031	-10.861914	0.000405	4.053534	1.373375	-0.000162
1111	1.1044e+02	-4.2336	-11.027436	0.000415	4.154873	1.407709	-0.000166
1112	1.1054e+02	-4.2753	-11.217182	0.000476	4.762903	1.613715	-0.000191
1113	1.1064e+02	-4.3106	-11.410964	0.000486	4.864241	1.648049	-0.000195
1114	1.1074e+02	-4.3475	-11.544190	0.000334	3.344166	1.133034	-0.000134
1115	1.1084e+02	-4.3924	-11.737972	0.000486	4.864241	1.648049	-0.000195
1116	1.1094e+02	-4.4405	-11.927718	0.000476	4.762903	1.613715	-0.000191
1117	1.1104e+02	-4.4726	-12.109389	0.000456	4.560226	1.545046	-0.000183
1118	1.1114e+02	-4.5127	-12.278948	0.000426	4.256211	1.442043	-0.000170
1119	1.1124e+02	-4.5592	-12.456582	0.000446	4.458888	1.510712	-0.000179
1120	1.1134e+02	-4.5881	-12.654402	0.000497	4.965579	1.682384	-0.000199
1121	1.1144e+02	-4.6250	-12.815887	0.000405	4.053534	1.373375	-0.000162
1122	1.1154e+02	-4.6715	-13.033893	0.000547	5.472271	1.854056	-0.000219
1123	1.1164e+02	-4.7164	-13.195378	0.000405	4.053534	1.373375	-0.000162
1124	1.1174e+02	-4.7566	-13.352826	0.000395	3.952196	1.339040	-0.000158
1125	1.1184e+02	-4.7918	-13.534498	0.000456	4.560226	1.545046	-0.000183
1126	1.1194e+02	-4.8336	-13.720206	0.000466	4.661564	1.579381	-0.000187
1127	1.1204e+02	-4.8801	-13.954360	0.000588	5.877625	1.991393	-0.000235
1128	1.1214e+02	-4.9218	-14.127957	0.000436	4.357549	1.476378	-0.000174
1129	1.1224e+02	-4.9491	-14.293479	0.000415	4.154873	1.407709	-0.000166
1130	1.1234e+02	-4.9956	-14.471113	0.000446	4.458888	1.510712	-0.000179
1131	1.1244e+02	-5.0341	-14.640673	0.000426	4.256211	1.442043	-0.000170
1132	1.1253e+02	-5.0758	-14.810232	0.000426	4.256211	1.442043	-0.000170
1133	1.1263e+02	-5.1159	-14.987866	0.000446	4.458888	1.510712	-0.000179
1134	1.1273e+02	-5.1496	-15.137240	0.000375	3.749519	1.270371	-0.000150
1135	1.1283e+02	-5.1913	-15.351209	0.000537	5.370933	1.819721	-0.000215
1136	1.1293e+02	-5.2266	-15.549028	0.000497	4.965579	1.682384	-0.000199
1137	1.1303e+02	-5.2779	-15.706477	0.000395	3.952196	1.339040	-0.000158
1138	1.1313e+02	-5.3100	-15.859888	0.000385	3.850857	1.304706	-0.000154
1139	1.1323e+02	-5.3597	-16.013299	0.000385	3.850857	1.304706	-0.000154
1140	1.1333e+02	-5.3854	-16.223230	0.000527	5.269594	1.785387	-0.000211
1141	1.1343e+02	-5.4448	-16.372604	0.000375	3.749519	1.270371	-0.000150
1142	1.1353e+02	-5.4672	-16.570424	0.000497	4.965579	1.682384	-0.000199
1143	1.1363e+02	-5.5154	-16.744020	0.000436	4.357549	1.476378	-0.000174
1144	1.1373e+02	-5.5442	-16.929729	0.000466	4.661564	1.579381	-0.000187
1145	1.1383e+02	-5.5875	-17.099288	0.000426	4.256211	1.442043	-0.000170
1146	1.1393e+02	-5.6260	-17.216365	0.000294	2.938812	0.995697	-0.000118
1147	1.1403e+02	-5.6678	-17.406111	0.000476	4.762903	1.613715	-0.000191
1148	1.1413e+02	-5.7175	-17.595856	0.000476	4.762903	1.613715	-0.000191
1149	1.1423e+02	-5.7512	-17.793676	0.000497	4.965579	1.682384	-0.000199
1150	1.1433e+02	-5.7865	-17.963235	0.000426	4.256211	1.442043	-0.000170
1151	1.1442e+02	-5.8266	-18.112609	0.000375	3.749519	1.270371	-0.000150
1152	1.1452e+02	-5.8699	-18.322541	0.000527	5.269594	1.785387	-0.000211
1153	1.1462e+02	-5.9084	-18.471915	0.000375	3.749519	1.270371	-0.000150
1154	1.1472e+02	-5.9485	-18.677808	0.000517	5.168256	1.751053	-0.000207
1155	1.1482e+02	-5.9934	-18.871591	0.000486	4.864241	1.648049	-0.000195
1156	1.1492e+02	-6.0335	-19.025002	0.000385	3.850857	1.304706	-0.000154
1157	1.1502e+02	-6.0704	-19.210710	0.000466	4.661564	1.579381	-0.000187
1158	1.1512e+02	-6.1201	-19.392382	0.000456	4.560226	1.545046	-0.000183
1159	1.1522e+02	-6.1490	-19.582127	0.000476	4.762903	1.613715	-0.000191
1160	1.1532e+02	-6.1955	-19.767835	0.000466	4.661564	1.579381	-0.000187
1161	1.1542e+02	-6.2292	-19.929321	0.000405	4.053534	1.373375	-0.000162
1162	1.1552e+02	-6.2645	-20.054472	0.000314	3.141489	1.064365	-0.000126
1163	1.1562e+02	-6.3175	-20.272477	0.000547	5.472271	1.854056	-0.000219
1164	1.1572e+02	-6.3479	-20.413777	0.000355	3.546842	1.201703	-0.000142
1165	1.1582e+02	-6.3848	-20.567188	0.000385	3.850857	1.304706	-0.000154
1166	1.1592e+02	-6.4362	-20.765008	0.000497	4.965579	1.682384	-0.000199
1167	1.1602e+02	-6.4779	-20.922456	0.000395	3.952196	1.339040	-0.000158
1168	1.1612e+02	-6.5036	-21.087979	0.000415	4.154873	1.407709	-0.000166
1169	1.1622e+02	-6.5533	-21.293872	0.000517	5.168256	1.751053	-0.000207
1170	1.1632e+02	-6.5838	-21.459395	0.000415	4.154873	1.407709	-0.000166
1171	1.1642e+02	-6.6383	-21.645103	0.000466	4.661564	1.579381	-0.000187
1172	1.1651e+02	-6.6656	-21.850997	0.000517	5.168256	1.751053	-0.000207
1173	1.1661e+02	-6.7089	-22.004408	0.000385	3.850857	1.304706	-0.000154
1174	1.1671e+02	-6.7490	-22.222414	0.000547	5.472271	1.854056	-0.000219
1175	1.1681e+02	-6.7763	-22.387936	0.000415	4.154873	1.407709	-0.000166
1176	1.1691e+02	-6.8340	-22.541347	0.000385	3.850857	1.304706	-0.000154
1177	1.1701e+02	-6.8677	-22.743204	0.000507	5.066918	1.716718	-0.000203
1178	1.1711e+02	-6.9014	-22.888541	0.000365	3.648181	1.236037	-0.000146
1179	1.1721e+02	-6.9335	-23.094435	0.000517	5.168256	1.751053	-0.000207
1180	1.1731e+02	-6.9832	-23.263995	0.000426	4.256211	1.442043	-0.000170
1181	1.1741e+02	-7.0185	-23.449703	0.000466	4.661564	1.579381	-0.000187
1182	1.1751e+02	-7.0682	-23.566780	0.000294	2.938812	0.995697	-0.000118
1183	1.1761e+02	-7.1100	-23.768637	0.000507	5.066918	1.716718	-0.000203
1184	1.1771e+02	-7.1388	-23.942233	0.000436	4.357549	1.476378	-0.000174
1185	1.1781e+02	-7.1870	-24.079496	0.000345	3.445504	1.167368	-0.000138
1186	1.1791e+02	-7.2239	-24.281353	0.000507	5.066918	1.716718	-0.000203
1187	1.1801e+02	-7.2592	-24.454950	0.000436	4.357549	1.476378	-0.000174
1188	1.1811e+02	-7.2993	-24.616435	0.000405	4.053534	1.373375	-0.000162
1189	1.1821e+02	-7.3458	-24.798106	0.000456	4.560226	1.545046	-0.000183
1190	1.1831e+02	-7.3779	-24.955555	0.000395	3.952196	1.339040	-0.000158
1191	1.1841e+02	-7.4164	-25.113003	0.000395	3.952196	1.339040	-0.000158
1192	1.1850e+02	-7.4613	-25.306785	0.000486	4.864241	1.648049	-0.000195
1193	1.1860e+02	-7.5046	-25.468271	0.000405	4.053534	1.373375	-0.000162
1194	1.1870e+02	-7.5399	-25.605533	0.000345	3.445504	1.167368	-0.000138
1195	1.1880e+02	-7.5816	-25.803353	0.000497	4.965579	1.682384	-0.000199
1196	1.1890e+02	-7.6169	-25.980987	0.000446	4.458888	1.510712	-0.000179
1197	1.1900e+02	-7.6570	-26.102101	0.000304	3.040151	1.030031	-0.000122
1198	1.1910e+02	-7.6971	-26.279735	0.000446	4.458888	1.510712	-0.000179
1199	1.1920e+02	-7.7404	-26.445258	0.000415	4.154873	1.407709	-0.000166
1200	1.1930e+02	-7.7725	-26.618854	0.000436	4.357549	1.476378	-0.000174
1201	1.1940e+02	-7.8174	-26.768229	0.000375	3.749519	1.270371	-0.000150
1202	1.1950e+02	-7.8527	-26.945862	0.000446	4.458888	1.510712	-0.000179
1203	1.1960e+02	-7.8992	-27.131571	0.000466	4.661564	1.579381	-0.000187
1204	1.1970e+02	-7.9458	-27.272870	0.000355	3.546842	1.201703	-0.000142
1205	1.1980e+02	-7.9795	-27.458579	0.000466	4.661564	1.579381	-0.000187
1206	1.1990e+02	-8.0212	-27.648324	0.000476	4.762903	1.613715	-0.000191
1207	1.2000e+02	-8.0629	-27.757327	0.000274	2.736136	0.927028	-0.000110
1208	1.2010e+02	-8.0966	-27.906701	0.000375	3.749519	1.270371	-0.000150
1209	1.2020e+02	-8.1415	-28.052038	0.000365	3.648181	1.236037	-0.000146
1210	1.2030e+02	-8.1752	-28.193337	0.000355	3.546842	1.201703	-0.000142
1211	1.2039e+02	-8.2153	-28.427491	0.000588	5.877625	1.991393	-0.000235
1212	1.2049e+02	-8.2602	-28.544568	0.000294	2.938812	0.995697	-0.000118
1213	1.2059e+02	-8.2987	-28.633385	0.000223	2.229444	0.755356	-0.000089
1214	1.2069e+02	-8.3340	-28.815056	0.000456	4.560226	1.545046	-0.000183
1215	1.2079e+02	-8.3821	-28.952319	0.000345	3.445504	1.167368	-0.000138
1216	1.2089e+02	-8.4126	-29.129953	0.000446	4.458888	1.510712	-0.000179
1217	1.2099e+02	-8.4607	-29.271253	0.000355	3.546842	1.201703	-0.000142
1218	1.2109e+02	-8.4960	-29.428701	0.000395	3.952196	1.339040	-0.000158
1219	1.2119e+02	-8.5329	-29.574038	0.000365	3.648181	1.236037	-0.000146
1220	1.2129e+02	-8.5826	-29.735523	0.000405	4.053534	1.373375	-0.000162
1221	1.2139e+02	-8.6147	-29.888934	0.000385	3.850857	1.304706	-0.000154
1222	1.2149e+02	-8.6500	-30.062531	0.000436	4.357549	1.476378	-0.000174
1223	1.2159e+02	-8.6949	-30.224017	0.000405	4.053534	1.373375	-0.000162
1224	1.2169e+02	-8.7318	-30.361279	0.000345	3.445504	1.167368	-0.000138
1225	1.2179e+02	-8.7735	-30.530839	0.000426	4.256211	1.442043	-0.000170
1226	1.2189e+02	-8.8185	-30.668102	0.000345	3.445504	1.167368	-0.000138
1227	1.2199e+02	-8.8506	-30.829587	0.000405	4.053534	1.373375	-0.000162
1228	1.2209e+02	-8.8971	-31.003184	0.000436	4.357549	1.476378	-0.000174
1229	1.2219e+02	-8.9420	-31.148521	0.000365	3.648181	1.236037	-0.000146
1230	1.2229e+02	-8.9773	-31.338266	0.000476	4.762903	1.613715	-0.000191
1231	1.2239e+02	-9.0142	-31.479566	0.000355	3.546842	1.201703	-0.000142
1232	1.2248e+02	-9.0639	-31.592606	0.000284	2.837474	0.961362	-0.000114
1233	1.2258e+02	-9.1008	-31.766203	0.000436	4.357549	1.476378	-0.000174
1234	1.2268e+02	-9.1345	-31.879242	0.000284	2.837474	0.961362	-0.000114
1235	1.2278e+02	-9.1714	-32.060913	0.000456	4.560226	1.545046	-0.000183
1236	1.2288e+02	-9.2243	-32.206250	0.000365	3.648181	1.236037	-0.000146
1237	1.2298e+02	-9.2644	-32.339476	0.000334	3.344166	1.133034	-0.000134
1238	1.2308e+02	-9.3029	-32.492887	0.000385	3.850857	1.304706	-0.000154
1239	1.2318e+02	-9.3334	-32.638224	0.000365	3.648181	1.236037	-0.000146
1240	1.2328e+02	-9.3703	-32.795672	0.000395	3.952196	1.339040	-0.000158
1241	1.2338e+02	-9.4168	-32.953120	0.000395	3.952196	1.339040	-0.000158
1242	1.2348e+02	-9.4489	-33.090383	0.000345	3.445504	1.167368	-0.000138
1243	1.2358e+02	-9.4938	-33.219571	0.000324	3.242827	1.098700	-0.000130
1244	1.2368e+02	-9.5275	-33.429502	0.000527	5.269594	1.785387	-0.000211
1245	1.2378e+02	-9.5692	-33.566765	0.000345	3.445504	1.167368	-0.000138
1246	1.2388e+02	-9.6206	-33.748436	0.000456	4.560226	1.545046	-0.000183
1247	1.2398e+02	-9.6543	-33.950293	0.000507	5.066918	1.716718	-0.000203
1248	1.2408e+02	-9.6896	-34.087556	0.000345	3.445504	1.167368	-0.000138
1249	1.2418e+02	-9.7265	-34.204633	0.000294	2.938812	0.995697	-0.000118
1250	1.2428e+02	-9.7698	-34.317672	0.000284	2.837474	0.961362	-0.000114
1251	1.2438e+02	-9.8083	-34.487232	0.000426	4.256211	1.442043	-0.000170
1252	1.2447e+02	-9.8516	-34.636606	0.000375	3.749519	1.270371	-0.000150
1253	1.2457e+02	-9.8821	-34.798091	0.000405	4.053534	1.373375	-0.000162
1254	1.2467e+02	-9.9414	-34.931317	0.000334	3.344166	1.133034	-0.000134
1255	1.2477e+02	-9.9687	-35.052431	0.000304	3.040151	1.030031	-0.000122
1256	1.2487e+02	-10.0040	-35.262362	0.000527	5.269594	1.785387	-0.000211
1257	1.2497e+02	-10.0441	-35.391550	0.000324	3.242827	1.098700	-0.000130
1258	1.2507e+02	-10.0890	-35.532850	0.000355	3.546842	1.201703	-0.000142
1259	1.2517e+02	-10.1291	-35.662039	0.000324	3.242827	1.098700	-0.000130
1260	1.2527e+02	-10.1789	-35.831598	0.000426	4.256211	1.442043	-0.000170
1261	1.2537e+02	-10.2061	-35.989047	0.000395	3.952196	1.339040	-0.000158
1262	1.2547e+02	-10.2543	-36.150532	0.000405	4.053534	1.373375	-0.000162
1263	1.2557e+02	-10.2847	-36.259535	0.000274	2.736136	0.927028	-0.000110
1264	1.2567e+02	-10.3313	-36.437169	0.000446	4.458888	1.510712	-0.000179
1265	1.2577e+02	-10.3698	-36.598654	0.000405	4.053534	1.373375	-0.000162
1266	1.2587e+02	-10.4131	-36.711694	0.000284	2.837474	0.961362	-0.000114
1267	1.2597e+02	-10.4500	-36.865105	0.000385	3.850857	1.304706	-0.000154
1268	1.2607e+02	-10.4981	-37.014479	0.000375	3.749519	1.270371	-0.000150
1269	1.2617e+02	-10.5270	-37.139630	0.000314	3.141489	1.064365	-0.000126
1270	1.2627e+02	-10.5655	-37.321301	0.000456	4.560226	1.545046	-0.000183
1271	1.2636e+02	-10.6104	-37.446453	0.000314	3.141489	1.064365	-0.000126
1272	1.2646e+02	-10.6553	-37.591789	0.000365	3.648181	1.236037	-0.000146
1273	1.2656e+02	-10.6858	-37.753275	0.000405	4.053534	1.373375	-0.000162
1274	1.2666e+02	-10.7307	-37.890537	0.000345	3.445504	1.167368	-0.000138
1275	1.2676e+02	-10.7676	-38.056060	0.000415	4.154873	1.407709	-0.000166
1276	1.2686e+02	-10.8125	-38.177174	0.000304	3.040151	1.030031	-0.000122
1277	1.2696e+02	-10.8510	-38.318474	0.000355	3.546842	1.201703	-0.000142
1278	1.2706e+02	-10.8879	-38.488034	0.000426	4.256211	1.442043	-0.000170
1279	1.2716e+02	-10.9232	-38.641445	0.000385	3.850857	1.304706	-0.000154
1280	1.2726e+02	-10.9810	-38.790819	0.000375	3.749519	1.270371	-0.000150
1281	1.2736e+02	-11.0082	-38.936156	0.000365	3.648181	1.236037	-0.000146
1282	1.2746e+02	-11.0548	-39.089567	0.000385	3.850857	1.304706	-0.000154
1283	1.2756e+02	-11.0836	-39.222792	0.000334	3.344166	1.133034	-0.000134
1284	1.2766e+02	-11.1254	-39.376203	0.000385	3.850857	1.304706	-0.000154
1285	1.2776e+02	-11.1719	-39.525577	0.000375	3.749519	1.270371	-0.000150
1286	1.2786e+02	-11.2008	-39.626506	0.000253	2.533459	0.858359	-0.000101
1287	1.2796e+02	-11.2473	-39.808177	0.000456	4.560226	1.545046	-0.000183
1288	1.2806e+02	-11.2922	-39.965625	0.000395	3.952196	1.339040	-0.000158
1289	1.2816e+02	-11.3243	-40.106925	0.000355	3.546842	1.201703	-0.000142
1290	1.2826e+02	-11.3660	-40.240150	0.000334	3.344166	1.133034	-0.000134
1291	1.2835e+02	-11.4141	-40.397599	0.000395	3.952196	1.339040	-0.000158
1292	1.2845e+02	-11.4478	-40.538899	0.000355	3.546842	1.201703	-0.000142
1293	1.2855e+02	-11.4927	-40.627715	0.000223	2.229444	0.755356	-0.000089
1294	1.2865e+02	-11.5264	-40.793238	0.000415	4.154873	1.407709	-0.000166
1295	1.2875e+02	-11.5665	-40.898204	0.000263	2.634797	0.892693	-0.000105
1296	1.2885e+02	-11.6018	-41.051615	0.000385	3.850857	1.304706	-0.000154
1297	1.2895e+02	-11.6419	-41.164655	0.000284	2.837474	0.961362	-0.000114
1298	1.2905e+02	-11.6820	-41.285769	0.000304	3.040151	1.030031	-0.000122
1299	1.2915e+02	-11.7398	-41.443217	0.000395	3.952196	1.339040	-0.000158
1300	1.2925e+02	-11.7654	-41.596628	0.000385	3.850857	1.304706	-0.000154
1301	1.2935e+02	-11.8072	-41.725816	0.000324	3.242827	1.098700	-0.000130
1302	1.2945e+02	-11.8360	-41.883265	0.000395	3.952196	1.339040	-0.000158
1303	1.2955e+02	-11.8777	-42.036676	0.000385	3.850857	1.304706	-0.000154
1304	1.2965e+02	-11.9275	-42.145679	0.000274	2.736136	0.927028	-0.000110
1305	1.2975e+02	-11.9692	-42.270830	0.000314	3.141489	1.064365	-0.000126
1306	1.2985e+02	-11.9948	-42.440389	0.000426	4.256211	1.442043	-0.000170
1307	1.2995e+02	-12.0414	-42.605912	0.000415	4.154873	1.407709	-0.000166
1308	1.3005e+02	-12.0863	-42.743175	0.000345	3.445504	1.167368	-0.000138
1309	1.3015e+02	-12.1232	-42.904660	0.000405	4.053534	1.373375	-0.000162
1310	1.3025e+02	-12.1617	-43.070183	0.000415	4.154873	1.407709	-0.000166
1311	1.3034e+02	-12.2034	-43.231668	0.000405	4.053534	1.373375	-0.000162
1312	1.3044e+02	-12.2451	-43.389116	0.000395	3.952196	1.339040	-0.000158
1313	1.3054e+02	-12.2740	-43.486008	0.000243	2.432121	0.824025	-0.000097
1314	1.3064e+02	-12.3221	-43.635382	0.000375	3.749519	1.270371	-0.000150
1315	1.3074e+02	-12.3574	-43.740347	0.000263	2.634797	0.892693	-0.000105
1316	1.3084e+02	-12.4055	-43.930093	0.000476	4.762903	1.613715	-0.000191
1317	1.3094e+02	-12.4424	-44.059281	0.000324	3.242827	1.098700	-0.000130
1318	1.3104e+02	-12.4890	-44.228841	0.000426	4.256211	1.442043	-0.000170
1319	1.3114e+02	-12.5210	-44.321695	0.000233	2.330782	0.789690	-0.000093
1320	1.3124e+02	-12.5644	-44.503366	0.000456	4.560226	1.545046	-0.000183
1321	1.3134e+02	-12.6157	-44.636591	0.000334	3.344166	1.133034	-0.000134
1322	1.3144e+02	-12.6398	-44.769817	0.000334	3.344166	1.133034	-0.000134
1323	1.3154e+02	-12.6815	-44.899005	0.000324	3.242827	1.098700	-0.000130
1324	1.3164e+02	-12.7200	-45.064528	0.000415	4.154873	1.407709	-0.000166
1325	1.3174e+02	-12.7488	-45.217939	0.000385	3.850857	1.304706	-0.000154
1326	1.3184e+02	-12.7986	-45.387499	0.000426	4.256211	1.442043	-0.000170
1327	1.3194e+02	-12.8403	-45.472278	0.000213	2.128105	0.721022	-0.000085
1328	1.3204e+02	-12.8804	-45.625690	0.000385	3.850857	1.304706	-0.000154
1329	1.3214e+02	-12.9221	-45.811398	0.000466	4.661564	1.579381	-0.000187
1330	1.3224e+02	-12.9542	-45.924438	0.000284	2.837474	0.961362	-0.000114
1331	1.3234e+02	-12.9991	-46.041515	0.000294	2.938812	0.995697	-0.000118
1332	1.3243e+02	-13.0456	-46.142443	0.000253	2.533459	0.858359	-0.000101
1333	1.3253e+02	-13.0825	-46.328151	0.000466	4.661564	1.579381	-0.000187
1334	1.3263e+02	-13.1066	-46.489637	0.000405	4.053534	1.373375	-0.000162
1335	1.3273e+02	-13.1691	-46.594602	0.000263	2.634797	0.892693	-0.000105
1336	1.3283e+02	-13.1980	-46.727828	0.000334	3.344166	1.133034	-0.000134
1337	1.3293e+02	-13.2397	-46.869127	0.000355	3.546842	1.201703	-0.000142
1338	1.3303e+02	-13.2718	-47.026576	0.000395	3.952196	1.339040	-0.000158
1339	1.3313e+02	-13.3248	-47.143653	0.000294	2.938812	0.995697	-0.000118
1340	1.3323e+02	-13.3617	-47.276878	0.000334	3.344166	1.133034	-0.000134
1341	1.3333e+02	-13.3921	-47.430289	0.000385	3.850857	1.304706	-0.000154
1342	1.3343e+02	-13.4387	-47.587738	0.000395	3.952196	1.339040	-0.000158
1343	1.3353e+02	-13.4756	-47.761334	0.000436	4.357549	1.476378	-0.000174
1344	1.3363e+02	-13.5141	-47.858226	0.000243	2.432121	0.824025	-0.000097
1345	1.3373e+02	-13.5590	-48.031822	0.000436	4.357549	1.476378	-0.000174
1346	1.3383e+02	-13.5991	-48.177159	0.000365	3.648181	1.236037	-0.000146
1347	1.3393e+02	-13.6408	-48.282125	0.000263	2.634797	0.892693	-0.000105
1348	1.3403e+02	-13.6761	-48.427462	0.000365	3.648181	1.236037	-0.000146
1349	1.3413e+02	-13.7162	-48.544539	0.000294	2.938812	0.995697	-0.000118
1350	1.3423e+02	-13.7563	-48.701987	0.000395	3.952196	1.339040	-0.000158
1351	1.3432e+02	-13.7916	-48.843287	0.000355	3.546842	1.201703	-0.000142
1352	1.3442e+02	-13.8381	-48.980549	0.000345	3.445504	1.167368	-0.000138
1353	1.3452e+02	-13.8766	-49.133960	0.000385	3.850857	1.304706	-0.000154
1354	1.3462e+02	-13.9135	-49.238926	0.000263	2.634797	0.892693	-0.000105
1355	1.3472e+02	-13.9665	-49.368114	0.000324	3.242827	1.098700	-0.000130
1356	1.3482e+02	-14.0001	-49.493266	0.000314	3.141489	1.064365	-0.000126
1357	1.3492e+02	-14.0354	-49.650714	0.000395	3.952196	1.339040	-0.000158
1358	1.3502e+02	-14.0771	-49.767791	0.000294	2.938812	0.995697	-0.000118
1359	1.3512e+02	-14.1172	-49.896979	0.000324	3.242827	1.098700	-0.000130
1360	1.3522e+02	-14.1541	-50.058465	0.000405	4.053534	1.373375	-0.000162
1361	1.3532e+02	-14.1943	-50.211876	0.000385	3.850857	1.304706	-0.000154
1362	1.3542e+02	-14.2311	-50.312804	0.000253	2.533459	0.858359	-0.000101
1363	1.3552e+02	-14.2745	-50.478327	0.000415	4.154873	1.407709	-0.000166
1364	1.3562e+02	-14.3065	-50.583292	0.000263	2.634797	0.892693	-0.000105
1365	1.3572e+02	-14.3547	-50.744778	0.000405	4.053534	1.373375	-0.000162
1366	1.3582e+02	-14.3932	-50.841669	0.000243	2.432121	0.824025	-0.000097
1367	1.3592e+02	-14.4413	-50.966820	0.000314	3.141489	1.064365	-0.000126
1368	1.3602e+02	-14.4766	-51.108120	0.000355	3.546842	1.201703	-0.000142
1369	1.3612e+02	-14.5103	-51.261531	0.000385	3.850857	1.304706	-0.000154
1370	1.3622e+02	-14.5408	-51.350348	0.000223	2.229444	0.755356	-0.000089
1371	1.3631e+02	-14.5921	-51.499722	0.000375	3.749519	1.270371	-0.000150
1372	1.3641e+02	-14.6258	-51.600650	0.000253	2.533459	0.858359	-0.000101
1373	1.3651e+02	-14.6723	-51.770210	0.000426	4.256211	1.442043	-0.000170
1374	1.3661e+02	-14.7140	-51.863064	0.000233	2.330782	0.789690	-0.000093
1375	1.3671e+02	-14.7557	-52.004364	0.000355	3.546842	1.201703	-0.000142
1376	1.3681e+02	-14.8007	-52.129515	0.000314	3.141489	1.064365	-0.000126
1377	1.3691e+02	-14.8440	-52.250629	0.000304	3.040151	1.030031	-0.000122
1378	1.3701e+02	-14.8841	-52.395966	0.000365	3.648181	1.236037	-0.000146
1379	1.3711e+02	-14.9210	-52.573600	0.000446	4.458888	1.510712	-0.000179
1380	1.3721e+02	-14.9611	-52.690677	0.000294	2.938812	0.995697	-0.000118
1381	1.3731e+02	-14.9932	-52.836014	0.000365	3.648181	1.236037	-0.000146
1382	1.3741e+02	-15.0301	-52.945017	0.000274	2.736136	0.927028	-0.000110
1383	1.3751e+02	-15.0654	-53.029796	0.000213	2.128105	0.721022	-0.000085
1384	1.3761e+02	-15.1022	-53.195319	0.000415	4.154873	1.407709	-0.000166
1385	1.3771e+02	-15.1568	-53.300285	0.000263	2.634797	0.892693	-0.000105
1386	1.3781e+02	-15.1921	-53.429473	0.000324	3.242827	1.098700	-0.000130
1387	1.3791e+02	-15.2306	-53.578847	0.000375	3.749519	1.270371	-0.000150
1388	1.3801e+02	-15.2787	-53.703998	0.000314	3.141489	1.064365	-0.000126
1389	1.3811e+02	-15.3060	-53.829149	0.000314	3.141489	1.064365	-0.000126
1390	1.3821e+02	-15.3557	-53.942189	0.000284	2.837474	0.961362	-0.000114
1391	1.3831e+02	-15.3910	-54.111749	0.000426	4.256211	1.442043	-0.000170
1392	1.3840e+02	-15.4391	-54.220752	0.000274	2.736136	0.927028	-0.000110
1393	1.3850e+02	-15.4728	-54.394348	0.000436	4.357549	1.476378	-0.000174
1394	1.3860e+02	-15.5129	-54.511425	0.000294	2.938812	0.995697	-0.000118
1395	1.3870e+02	-15.5498	-54.644651	0.000334	3.344166	1.133034	-0.000134
1396	1.3880e+02	-15.5851	-54.781913	0.000345	3.445504	1.167368	-0.000138
1397	1.3890e+02	-15.6204	-54.882842	0.000253	2.533459	0.858359	-0.000101
1398	1.3900e+02	-15.6621	-55.007993	0.000314	3.141489	1.064365	-0.000126
1399	1.3910e+02	-15.7135	-55.161404	0.000385	3.850857	1.304706	-0.000154
1400	1.3920e+02	-15.7488	-55.298667	0.000345	3.445504	1.167368	-0.000138
1401	1.3930e+02	-15.7840	-55.395558	0.000243	2.432121	0.824025	-0.000097
1402	1.3940e+02	-15.8290	-55.524746	0.000324	3.242827	1.098700	-0.000130
1403	1.3950e+02	-15.8643	-55.674120	0.000375	3.749519	1.270371	-0.000150
1404	1.3960e+02	-15.8996	-55.787160	0.000284	2.837474	0.961362	-0.000114
1405	1.3970e+02	-15.9461	-55.944608	0.000395	3.952196	1.339040	-0.000158
1406	1.3980e+02	-15.9846	-56.081871	0.000345	3.445504	1.167368	-0.000138
1407	1.3990e+02	-16.0199	-56.215097	0.000334	3.344166	1.133034	-0.000134
1408	1.4000e+02	-16.0696	-56.336211	0.000304	3.040151	1.030031	-0.000122
1409	1.4010e+02	-16.0985	-56.534030	0.000497	4.965579	1.682384	-0.000199
1410	1.4020e+02	-16.1482	-56.675330	0.000355	3.546842	1.201703	-0.000142
1411	1.4029e+02	-16.1803	-56.747999	0.000182	1.824090	0.618019	-0.000073
1412	1.4039e+02	-16.2300	-56.945818	0.000497	4.965579	1.682384	-0.000199
1413	1.4049e+02	-16.2685	-57.042709	0.000243	2.432121	0.824025	-0.000097
1414	1.4059e+02	-16.2990	-57.216306	0.000436	4.357549	1.476378	-0.000174
1415	1.4069e+02	-16.3439	-57.313198	0.000243	2.432121	0.824025	-0.000097
1416	1.4079e+02	-16.4001	-57.519091	0.000517	5.168256	1.751053	-0.000207
1417	1.4089e+02	-16.4257	-57.620020	0.000253	2.533459	0.858359	-0.000101
1418	1.4099e+02	-16.4674	-57.785542	0.000415	4.154873	1.407709	-0.000166
1419	1.4109e+02	-16.5076	-57.886471	0.000253	2.533459	0.858359	-0.000101
1420	1.4119e+02	-16.5461	-58.023733	0.000345	3.445504	1.167368	-0.000138
1421	1.4129e+02	-16.5846	-58.140810	0.000294	2.938812	0.995697	-0.000118
1422	1.4139e+02	-16.6311	-58.290184	0.000375	3.749519	1.270371	-0.000150
1423	1.4149e+02	-16.6664	-58.379001	0.000223	2.229444	0.755356	-0.000089
1424	1.4159e+02	-16.7081	-58.528375	0.000375	3.749519	1.270371	-0.000150
1425	1.4169e+02	-16.7402	-58.649489	0.000304	3.040151	1.030031	-0.000122
1426	1.4179e+02	-16.7883	-58.806938	0.000395	3.952196	1.339040	-0.000158
1427	1.4189e+02	-16.8140	-58.871532	0.000162	1.621414	0.549350	-0.000065
1428	1.4199e+02	-16.8589	-59.045129	0.000436	4.357549	1.476378	-0.000174
1429	1.4209e+02	-16.8990	-59.206614	0.000405	4.053534	1.373375	-0.000162
1430	1.4219e+02	-16.9487	-59.287357	0.000203	2.026767	0.686687	-0.000081
1431	1.4228e+02	-16.9792	-59.456917	0.000426	4.256211	1.442043	-0.000170
1432	1.4238e+02	-17.0353	-59.586105	0.000324	3.242827	1.098700	-0.000130
1433	1.4248e+02	-17.0610	-59.703182	0.000294	2.938812	0.995697	-0.000118
1434	1.4258e+02	-17.1043	-59.836407	0.000334	3.344166	1.133034	-0.000134
1435	1.4268e+02	-17.1428	-59.949447	0.000284	2.837474	0.961362	-0.000114
1436	1.4278e+02	-17.1942	-60.098821	0.000375	3.749519	1.270371	-0.000150
1437	1.4288e+02	-17.2198	-60.240121	0.000355	3.546842	1.201703	-0.000142
1438	1.4298e+02	-17.2583	-60.365272	0.000314	3.141489	1.064365	-0.000126
1439	1.4308e+02	-17.3161	-60.510609	0.000365	3.648181	1.236037	-0.000146
1440	1.4318e+02	-17.3482	-60.599426	0.000223	2.229444	0.755356	-0.000089
1441	1.4328e+02	-17.3851	-60.732651	0.000334	3.344166	1.133034	-0.000134
1442	1.4338e+02	-17.4332	-60.886063	0.000385	3.850857	1.304706	-0.000154
1443	1.4348e+02	-17.4669	-61.007177	0.000304	3.040151	1.030031	-0.000122
1444	1.4358e+02	-17.4974	-61.152514	0.000365	3.648181	1.236037	-0.000146
1445	1.4368e+02	-17.5375	-61.297850	0.000365	3.648181	1.236037	-0.000146
1446	1.4378e+02	-17.5792	-61.410890	0.000284	2.837474	0.961362	-0.000114
1447	1.4388e+02	-17.6257	-61.580450	0.000426	4.256211	1.442043	-0.000170
1448	1.4398e+02	-17.6658	-61.701564	0.000304	3.040151	1.030031	-0.000122
1449	1.4408e+02	-17.7059	-61.826715	0.000314	3.141489	1.064365	-0.000126
1450	1.4418e+02	-17.7476	-61.968015	0.000355	3.546842	1.201703	-0.000142
1451	1.4428e+02	-17.7813	-62.121426	0.000385	3.850857	1.304706	-0.000154
1452	1.4437e+02	-17.8198	-62.307134	0.000466	4.661564	1.579381	-0.000187
1453	1.4447e+02	-17.8695	-62.416137	0.000274	2.736136	0.927028	-0.000110
1454	1.4457e+02	-17.8968	-62.573585	0.000395	3.952196	1.339040	-0.000158
1455	1.4467e+02	-17.9369	-62.706811	0.000334	3.344166	1.133034	-0.000134
1456	1.4477e+02	-17.9770	-62.864259	0.000395	3.952196	1.339040	-0.000158
1457	1.4487e+02	-18.0236	-63.062079	0.000497	4.965579	1.682384	-0.000199
1458	1.4497e+02	-18.0669	-63.195304	0.000334	3.344166	1.133034	-0.000134
1459	1.4507e+02	-18.0990	-63.304307	0.000274	2.736136	0.927028	-0.000110
1460	1.4517e+02	-18.1423	-63.461755	0.000395	3.952196	1.339040	-0.000158
1461	1.4527e+02	-18.1856	-63.590944	0.000324	3.242827	1.098700	-0.000130
1462	1.4537e+02	-18.2241	-63.712058	0.000304	3.040151	1.030031	-0.000122
1463	1.4547e+02	-18.2594	-63.865469	0.000385	3.850857	1.304706	-0.000154
1464	1.4557e+02	-18.3011	-64.002731	0.000345	3.445504	1.167368	-0.000138
1465	1.4567e+02	-18.3444	-64.184403	0.000456	4.560226	1.545046	-0.000183
1466	1.4577e+02	-18.3829	-64.273220	0.000223	2.229444	0.755356	-0.000089
1467	1.4587e+02	-18.4134	-64.475076	0.000507	5.066918	1.716718	-0.000203
1468	1.4597e+02	-18.4551	-64.592153	0.000294	2.938812	0.995697	-0.000118
1469	1.4607e+02	-18.5080	-64.757676	0.000415	4.154873	1.407709	-0.000166
1470	1.4617e+02	-18.5305	-64.862641	0.000263	2.634797	0.892693	-0.000105
1471	1.4626e+02	-18.5850	-65.020090	0.000395	3.952196	1.339040	-0.000158
1472	1.4636e+02	-18.6380	-65.221946	0.000507	5.066918	1.716718	-0.000203
1473	1.4646e+02	-18.6717	-65.343060	0.000304	3.040151	1.030031	-0.000122
1474	1.4656e+02	-18.7005	-65.468212	0.000314	3.141489	1.064365	-0.000126
1475	1.4666e+02	-18.7406	-65.629697	0.000405	4.053534	1.373375	-0.000162
1476	1.4676e+02	-18.7888	-65.783108	0.000385	3.850857	1.304706	-0.000154
1477	1.4686e+02	-18.8225	-65.972854	0.000476	4.762903	1.613715	-0.000191
1478	1.4696e+02	-18.8497	-66.089931	0.000294	2.938812	0.995697	-0.000118
1479	1.4706e+02	-18.8979	-66.247379	0.000395	3.952196	1.339040	-0.000158
1480	1.4716e+02	-18.9380	-66.400790	0.000385	3.850857	1.304706	-0.000154
1481	1.4726e+02	-18.9781	-66.598610	0.000497	4.965579	1.682384	-0.000199
1482	1.4736e+02	-19.0150	-66.747984	0.000375	3.749519	1.270371	-0.000150
1483	1.4746e+02	-19.0647	-66.885246	0.000345	3.445504	1.167368	-0.000138
1484	1.4756e+02	-19.0968	-67.034620	0.000375	3.749519	1.270371	-0.000150
1485	1.4766e+02	-19.1321	-67.159772	0.000314	3.141489	1.064365	-0.000126
1486	1.4776e+02	-19.1754	-67.337406	0.000446	4.458888	1.510712	-0.000179
1487	1.4786e+02	-19.2283	-67.458520	0.000304	3.040151	1.030031	-0.000122
1488	1.4796e+02	-19.2620	-67.672488	0.000537	5.370933	1.819721	-0.000215
1489	1.4806e+02	-19.2909	-67.781490	0.000274	2.736136	0.927028	-0.000110
1490	1.4816e+02	-19.3326	-67.951050	0.000426	4.256211	1.442043	-0.000170
1491	1.4825e+02	-19.3663	-68.096387	0.000365	3.648181	1.236037	-0.000146
1492	1.4835e+02	-19.4160	-68.253835	0.000395	3.952196	1.339040	-0.000158
1493	1.4845e+02	-19.4449	-68.358801	0.000263	2.634797	0.892693	-0.000105
1494	1.4855e+02	-19.4882	-68.536435	0.000446	4.458888	1.510712	-0.000179
1495	1.4865e+02	-19.5251	-68.762514	0.000567	5.674948	1.922724	-0.000227
1496	1.4875e+02	-19.5748	-68.839220	0.000193	1.925429	0.652353	-0.000077
1497	1.4885e+02	-19.6101	-69.020891	0.000456	4.560226	1.545046	-0.000183
1498	1.4895e+02	-19.6422	-69.178339	0.000395	3.952196	1.339040	-0.000158
1499	1.4905e+02	-19.6904	-69.319639	0.000355	3.546842	1.201703	-0.000142
1500	1.4915e+02	-19.7337	-69.424605	0.000263	2.634797	0.892693	-0.000105
1501	1.4925e+02	-19.7674	-69.618387	0.000486	4.864241	1.648049	-0.000195
1502	1.4935e+02	-19.8171	-69.812170	0.000486	4.864241	1.648049	-0.000195
1503	1.4945e+02	-19.8508	-69.949432	0.000345	3.445504	1.167368	-0.000138
1504	1.4955e+02	-19.8813	-70.127066	0.000446	4.458888	1.510712	-0.000179
1505	1.4965e+02	-19.9294	-70.232032	0.000263	2.634797	0.892693	-0.000105
1506	1.4975e+02	-19.9759	-70.397554	0.000415	4.154873	1.407709	-0.000166
1507	1.4985e+02	-20.0192	-70.607485	0.000527	5.269594	1.785387	-0.000211
1508	1.4995e+02	-19.9695	-70.704377	-0.000243	-2.432121	-0.824025	-0.000097
1509	1.5005e+02	-19.9374	-70.829528	-0.000314	-3.141489	-1.064365	-0.000126
1510	1.5015e+02	-19.8893	-70.918345	-0.000223	-2.229444	-0.755356	-0.000089
1511	1.5025e+02	-19.8524	-71.039459	-0.000304	-3.040151	-1.030031	-0.000122
1512	1.5034e+02	-19.8123	-71.132313	-0.000233	-2.330782	-0.789690	-0.000093
1513	1.5044e+02	-19.7722	-71.192870	-0.000152	-1.520075	-0.515015	-0.000061
1514	1.5054e+02	-19.7337	-71.241316	-0.000122	-1.216060	-0.412012	-0.000049
1515	1.5064e+02	-19.6936	-71.305910	-0.000162	-1.621414	-0.549350	-0.000065
1516	1.5074e+02	-19.6519	-71.366467	-0.000152	-1.520075	-0.515015	-0.000061
1517	1.5084e+02	-19.6182	-71.374541	-0.000020	-0.202677	-0.068669	-0.000008
1518	1.5094e+02	-19.5700	-71.443173	-0.000172	-1.722752	-0.583684	-0.000069
1519	1.5104e+02	-19.5363	-71.443173	0.000000	0.000000	0.000000	0.000000
1520	1.5114e+02	-19.5043	-71.483544	-0.000101	-1.013384	-0.343344	-0.000041
1521	1.5124e+02	-19.4529	-71.483544	0.000000	0.000000	0.000000	0.000000
1522	1.5134e+02	-19.4128	-71.540064	-0.000142	-1.418737	-0.480681	-0.000057
1523	1.5144e+02	-19.3759	-71.544101	-0.000010	-0.101338	-0.034334	-0.000004
1524	1.5154e+02	-19.3310	-71.556212	-0.000030	-0.304015	-0.103003	-0.000012
1525	1.5164e+02	-19.2909	-71.600621	-0.000111	-1.114722	-0.377678	-0.000045
1526	1.5174e+02	-19.2524	-71.604658	-0.000010	-0.101338	-0.034334	-0.000004
1527	1.5184e+02	-19.2123	-71.608695	-0.000010	-0.101338	-0.034334	-0.000004
1528	1.5194e+02	-19.1738	-71.592547	0.000041	0.405353	0.137337	0.000016
1529	1.5204e+02	-19.1369	-71.616769	-0.000061	-0.608030	-0.206006	-0.000024
1530	1.5214e+02	-19.0920	-71.604658	0.000030	0.304015	0.103003	0.000012
1531	1.5224e+02	-19.0567	-71.645029	-0.000101	-1.013384	-0.343344	-0.000041
1532	1.5233e+02	-19.0118	-71.628881	0.000041	0.405353	0.137337	0.000016
1533	1.5243e+02	-18.9636	-71.661178	-0.000081	-0.810707	-0.274675	-0.000032
1534	1.5253e+02	-18.9396	-71.640992	0.000051	0.506692	0.171672	0.000020
1535	1.5263e+02	-18.8930	-71.681364	-0.000101	-1.013384	-0.343344	-0.000041
1536	1.5273e+02	-18.8594	-71.620807	0.000152	1.520075	0.515015	0.000061
1537	1.5283e+02	-18.8193	-71.640992	-0.000051	-0.506692	-0.171672	-0.000020
1538	1.5293e+02	-18.7775	-71.657141	-0.000041	-0.405353	-0.137337	-0.000016
1539	1.5303e+02	-18.7374	-71.665215	-0.000020	-0.202677	-0.068669	-0.000008
1540	1.5313e+02	-18.6957	-71.632918	0.000081	0.810707	0.274675	0.000032
1541	1.5323e+02	-18.6588	-71.657141	-0.000061	-0.608030	-0.206006	-0.000024
1542	1.5333e+02	-18.6219	-71.665215	-0.000020	-0.202677	-0.068669	-0.000008
1543	1.5343e+02	-18.5786	-71.628881	0.000091	0.912045	0.309009	0.000037
1544	1.5353e+02	-18.5417	-71.649067	-0.000051	-0.506692	-0.171672	-0.000020
1545	1.5363e+02	-18.4984	-71.645029	0.000010	0.101338	0.034334	0.000004
1546	1.5373e+02	-18.4503	-71.612732	0.000081	0.810707	0.274675	0.000032
1547	1.5383e+02	-18.4134	-71.612732	0.000000	0.000000	0.000000	0.000000
1548	1.5393e+02	-18.3733	-71.640992	-0.000071	-0.709368	-0.240341	-0.000028
1549	1.5403e+02	-18.3316	-71.628881	0.000030	0.304015	0.103003	0.000012
1550	1.5413e+02	-18.2995	-71.624844	0.000010	0.101338	0.034334	0.000004
1551	1.5422e+02	-18.2546	-71.649067	-0.000061	-0.608030	-0.206006	-0.000024
1552	1.5432e+02	-18.2209	-71.596584	0.000132	1.317399	0.446347	0.000053
1553	1.5442e+02	-18.1808	-71.608695	-0.000030	-0.304015	-0.103003	-0.000012
1554	1.5452e+02	-18.1359	-71.608695	0.000000	0.000000	0.000000	0.000000
1555	1.5462e+02	-18.0957	-71.588509	0.000051	0.506692	0.171672	0.000020
1556	1.5472e+02	-18.0653	-71.612732	-0.000061	-0.608030	-0.206006	-0.000024
1557	1.5482e+02	-18.0236	-71.640992	-0.000071	-0.709368	-0.240341	-0.000028
1558	1.5492e+02	-17.9770	-71.604658	0.000091	0.912045	0.309009	0.000037
1559	1.5502e+02	-17.9417	-71.540064	0.000162	1.621414	0.549350	0.000065
1560	1.5512e+02	-17.9032	-71.596584	-0.000142	-1.418737	-0.480681	-0.000057
1561	1.5522e+02	-17.8647	-71.580435	0.000041	0.405353	0.137337	0.000016
1562	1.5532e+02	-17.8182	-71.519878	0.000152	1.520075	0.515015	0.000061
1563	1.5542e+02	-17.7925	-71.487581	0.000081	0.810707	0.274675	0.000032
1564	1.5552e+02	-17.7412	-71.463358	0.000061	0.608030	0.206006	0.000024
1565	1.5562e+02	-17.7075	-71.447210	0.000041	0.405353	0.137337	0.000016
1566	1.5572e+02	-17.6642	-71.427024	0.000051	0.506692	0.171672	0.000020
1567	1.5582e+02	-17.6321	-71.374541	0.000132	1.317399	0.446347	0.000053
1568	1.5592e+02	-17.5840	-71.350318	0.000061	0.608030	0.206006	0.000024
1569	1.5602e+02	-17.5471	-71.330133	0.000051	0.506692	0.171672	0.000020
1570	1.5612e+02	-17.4974	-71.297836	0.000081	0.810707	0.274675	0.000032
1571	1.5622e+02	-17.4685	-71.241316	0.000142	1.418737	0.480681	0.000057
1572	1.5631e+02	-17.4204	-71.192870	0.000122	1.216060	0.412012	0.000049
1573	1.5641e+02	-17.3851	-71.132313	0.000152	1.520075	0.515015	0.000061
1574	1.5651e+02	-17.3353	-71.047533	0.000213	2.128105	0.721022	0.000085
1575	1.5661e+02	-17.3049	-70.999088	0.000122	1.216060	0.412012	0.000049
1576	1.5671e+02	-17.2583	-70.974865	0.000061	0.608030	0.206006	0.000024
1577	1.5681e+02	-17.2246	-70.934493	0.000101	1.013384	0.343344	0.000041
1578	1.5691e+02	-17.1733	-70.861825	0.000182	1.824090	0.618019	0.000073
1579	1.5701e+02	-17.1460	-70.781082	0.000203	2.026767	0.686687	0.000081
1580	1.5711e+02	-17.1059	-70.700340	0.000203	2.026767	0.686687	0.000081
1581	1.5721e+02	-17.0642	-70.639783	0.000152	1.520075	0.515015	0.000061
1582	1.5731e+02	-17.0209	-70.579226	0.000152	1.520075	0.515015	0.000061
1583	1.5741e+02	-16.9744	-70.490409	0.000223	2.229444	0.755356	0.000089
1584	1.5751e+02	-16.9487	-70.433889	0.000142	1.418737	0.480681	0.000057
1585	1.5761e+02	-16.8942	-70.336997	0.000243	2.432121	0.824025	0.000097
1586	1.5771e+02	-16.8621	-70.292589	0.000111	1.114722	0.377678	0.000045
1587	1.5781e+02	-16.8284	-70.199735	0.000233	2.330782	0.789690	0.000093
1588	1.5791e+02	-16.7867	-70.114955	0.000213	2.128105	0.721022	0.000085
1589	1.5801e+02	-16.7402	-70.034212	0.000203	2.026767	0.686687	0.000081
1590	1.5811e+02	-16.7081	-69.957507	0.000193	1.925429	0.652353	0.000077
1591	1.5821e+02	-16.6664	-69.876764	0.000203	2.026767	0.686687	0.000081
1592	1.5830e+02	-16.6199	-69.755650	0.000304	3.040151	1.030031	0.000122
1593	1.5840e+02	-16.5814	-69.715278	0.000101	1.013384	0.343344	0.000041
1594	1.5850e+02	-16.5428	-69.626462	0.000223	2.229444	0.755356	0.000089
1595	1.5860e+02	-16.5027	-69.553793	0.000182	1.824090	0.618019	0.000073
1596	1.5870e+02	-16.4723	-69.456902	0.000243	2.432121	0.824025	0.000097
1597	1.5880e+02	-16.4322	-69.376159	0.000203	2.026767	0.686687	0.000081
1598	1.5890e+02	-16.3824	-69.275231	0.000253	2.533459	0.858359	0.000101
1599	1.5900e+02	-16.3439	-69.202562	0.000182	1.824090	0.618019	0.000073
1600	1.5910e+02	-16.3038	-69.158154	0.000111	1.114722	0.377678	0.000045
1601	1.5920e+02	-16.2637	-69.008780	0.000375	3.749519	1.270371	0.000150
1602	1.5930e+02	-16.2316	-68.940148	0.000172	1.722752	0.583684	0.000069
1603	1.5940e+02	-16.1819	-68.851331	0.000223	2.229444	0.755356	0.000089
1604	1.5950e+02	-16.1498	-68.802886	0.000122	1.216060	0.412012	0.000049
1605	1.5960e+02	-16.1081	-68.718106	0.000213	2.128105	0.721022	0.000085
1606	1.5970e+02	-16.0696	-68.588918	0.000324	3.242827	1.098700	0.000130
1607	1.5980e+02	-16.0215	-68.500101	0.000223	2.229444	0.755356	0.000089
1608	1.5990e+02	-15.9878	-68.443581	0.000142	1.418737	0.480681	0.000057
1609	1.6000e+02	-15.9332	-68.342652	0.000253	2.533459	0.858359	0.000101
1610	1.6010e+02	-15.9028	-68.221538	0.000304	3.040151	1.030031	0.000122
1611	1.6019e+02	-15.8723	-68.140796	0.000203	2.026767	0.686687	0.000081
1612	1.6029e+02	-15.8274	-68.060053	0.000203	2.026767	0.686687	0.000081
1613	1.6039e+02	-15.7792	-67.967199	0.000233	2.330782	0.789690	0.000093
1614	1.6049e+02	-15.7488	-67.902605	0.000162	1.621414	0.549350	0.000065
1615	1.6059e+02	-15.7151	-67.781490	0.000304	3.040151	1.030031	0.000122
1616	1.6069e+02	-15.6669	-67.712859	0.000172	1.722752	0.583684	0.000069
1617	1.6079e+02	-15.6381	-67.636154	0.000193	1.925429	0.652353	0.000077
1618	1.6089e+02	-15.5883	-67.535225	0.000253	2.533459	0.858359	0.000101
1619	1.6099e+02	-15.5627	-67.454482	0.000203	2.026767	0.686687	0.000081
1620	1.6109e+02	-15.5113	-67.369703	0.000213	2.128105	0.721022	0.000085
1621	1.6119e+02	-15.4696	-67.240514	0.000324	3.242827	1.098700	0.000130
1622	1.6129e+02	-15.4423	-67.123437	0.000294	2.938812	0.995697	0.000118
1623	1.6139e+02	-15.3894	-67.062880	0.000152	1.520075	0.515015	0.000061
1624	1.6149e+02	-15.3493	-66.913506	0.000375	3.749519	1.270371	0.000150
1625	1.6159e+02	-15.3188	-66.856986	0.000142	1.418737	0.480681	0.000057
1626	1.6169e+02	-15.2579	-66.780281	0.000193	1.925429	0.652353	0.000077
1627	1.6179e+02	-15.2226	-66.659167	0.000304	3.040151	1.030031	0.000122
1628	1.6189e+02	-15.1873	-66.626870	0.000081	0.810707	0.274675	0.000032
1629	1.6199e+02	-15.1536	-66.505756	0.000304	3.040151	1.030031	0.000122
1630	1.6209e+02	-15.1087	-66.416939	0.000223	2.229444	0.755356	0.000089
1631	1.6219e+02	-15.0670	-66.311973	0.000263	2.634797	0.892693	0.000105
1632	1.6228e+02	-15.0285	-66.235267	0.000193	1.925429	0.652353	0.000077
1633	1.6238e+02	-14.9932	-66.130302	0.000263	2.634797	0.892693	0.000105
1634	1.6248e+02	-14.9547	-65.993039	0.000345	3.445504	1.167368	0.000138
1635	1.6258e+02	-14.9194	-65.928445	0.000162	1.621414	0.549350	0.000065
1636	1.6268e+02	-14.8777	-65.855777	0.000182	1.824090	0.618019	0.000073
1637	1.6278e+02	-14.8424	-65.758885	0.000243	2.432121	0.824025	0.000097
1638	1.6288e+02	-14.7942	-65.670068	0.000223	2.229444	0.755356	0.000089
1639	1.6298e+02	-14.7509	-65.544917	0.000314	3.141489	1.064365	0.000126
1640	1.6308e+02	-14.7124	-65.480323	0.000162	1.621414	0.549350	0.000065
1641	1.6318e+02	-14.6771	-65.399580	0.000203	2.026767	0.686687	0.000081
1642	1.6328e+02	-14.6258	-65.290578	0.000274	2.736136	0.927028	0.000110
1643	1.6338e+02	-14.5905	-65.205798	0.000213	2.128105	0.721022	0.000085
1644	1.6348e+02	-14.5504	-65.064498	0.000355	3.546842	1.201703	0.000142
1645	1.6358e+02	-14.5151	-65.024127	0.000101	1.013384	0.343344	0.000041
1646	1.6368e+02	-14.4718	-64.911087	0.000284	2.837474	0.961362	0.000114
1647	1.6378e+02	-14.4349	-64.822270	0.000223	2.229444	0.755356	0.000089
1648	1.6388e+02	-14.3964	-64.668859	0.000385	3.850857	1.304706	0.000154
1649	1.6398e+02	-14.3595	-64.620413	0.000122	1.216060	0.412012	0.000049
1650	1.6408e+02	-14.3210	-64.527559	0.000233	2.330782	0.789690	0.000093
1651	1.6418e+02	-14.2664	-64.414519	0.000284	2.837474	0.961362	0.000114
1652	1.6427e+02	-14.2376	-64.281294	0.000334	3.344166	1.133034	0.000134
1653	1.6437e+02	-14.2071	-64.184403	0.000243	2.432121	0.824025	0.000097
1654	1.6447e+02	-14.1541	-64.123845	0.000152	1.520075	0.515015	0.000061
1655	1.6457e+02	-14.1172	-64.006769	0.000294	2.938812	0.995697	0.000118
1656	1.6467e+02	-14.0836	-63.905840	0.000253	2.533459	0.858359	0.000101
1657	1.6477e+02	-14.0370	-63.817023	0.000223	2.229444	0.755356	0.000089
1658	1.6487e+02	-13.9969	-63.712058	0.000263	2.634797	0.892693	0.000105
1659	1.6497e+02	-13.9520	-63.566721	0.000365	3.648181	1.236037	0.000146
1660	1.6507e+02	-13.9135	-63.498089	0.000172	1.722752	0.583684	0.000069
1661	1.6517e+02	-13.8798	-63.405235	0.000233	2.330782	0.789690	0.000093
1662	1.6527e+02	-13.8349	-63.272010	0.000334	3.344166	1.133034	0.000134
1663	1.6537e+02	-13.7996	-63.219527	0.000132	1.317399	0.446347	0.000053
1664	1.6547e+02	-13.7531	-63.130710	0.000223	2.229444	0.755356	0.000089
1665	1.6557e+02	-13.7226	-63.025745	0.000263	2.634797	0.892693	0.000105
1666	1.6567e+02	-13.6681	-62.900593	0.000314	3.141489	1.064365	0.000126
1667	1.6577e+02	-13.6344	-62.811776	0.000223	2.229444	0.755356	0.000089
1668	1.6587e+02	-13.5830	-62.674514	0.000345	3.445504	1.167368	0.000138
1669	1.6597e+02	-13.5622	-62.589734	0.000213	2.128105	0.721022	0.000085
1670	1.6607e+02	-13.5125	-62.484768	0.000263	2.634797	0.892693	0.000105
1671	1.6616e+02	-13.4884	-62.404026	0.000203	2.026767	0.686687	0.000081
1672	1.6626e+02	-13.4371	-62.274837	0.000324	3.242827	1.098700	0.000130
1673	1.6636e+02	-13.3953	-62.190057	0.000213	2.128105	0.721022	0.000085
1674	1.6646e+02	-13.3520	-62.097203	0.000233	2.330782	0.789690	0.000093
1675	1.6656e+02	-13.3119	-61.951866	0.000365	3.648181	1.236037	0.000146
1676	1.6666e+02	-13.2847	-61.850938	0.000253	2.533459	0.858359	0.000101
1677	1.6676e+02	-13.2445	-61.778270	0.000182	1.824090	0.618019	0.000073
1678	1.6686e+02	-13.2044	-61.689453	0.000223	2.229444	0.755356	0.000089
1679	1.6696e+02	-13.1643	-61.556227	0.000334	3.344166	1.133034	0.000134
1680	1.6706e+02	-13.1178	-61.475484	0.000203	2.026767	0.686687	0.000081
1681	1.6716e+02	-13.0809	-61.386667	0.000223	2.229444	0.755356	0.000089
1682	1.6726e+02	-13.0296	-61.289776	0.000243	2.432121	0.824025	0.000097
1683	1.6736e+02	-12.9991	-61.196922	0.000233	2.330782	0.789690	0.000093
1684	1.6746e+02	-12.9558	-61.112142	0.000213	2.128105	0.721022	0.000085
1685	1.6756e+02	-12.9205	-60.982954	0.000324	3.242827	1.098700	0.000130
1686	1.6766e+02	-12.8788	-60.898174	0.000213	2.128105	0.721022	0.000085
1687	1.6776e+02	-12.8371	-60.781097	0.000294	2.938812	0.995697	0.000118
1688	1.6786e+02	-12.7954	-60.627686	0.000385	3.850857	1.304706	0.000154
1689	1.6796e+02	-12.7633	-60.550980	0.000193	1.925429	0.652353	0.000077
1690	1.6806e+02	-12.7216	-60.482349	0.000172	1.722752	0.583684	0.000069
1691	1.6816e+02	-12.6766	-60.304715	0.000446	4.458888	1.510712	0.000179
1692	1.6825e+02	-12.6414	-60.232047	0.000182	1.824090	0.618019	0.000073
1693	1.6835e+02	-12.5980	-60.135155	0.000243	2.432121	0.824025	0.000097
1694	1.6845e+02	-12.5611	-60.010004	0.000314	3.141489	1.064365	0.000126
1695	1.6855e+02	-12.5242	-59.892927	0.000294	2.938812	0.995697	0.000118
1696	1.6865e+02	-12.4809	-59.767776	0.000314	3.141489	1.064365	0.000126
1697	1.6875e+02	-12.4456	-59.626476	0.000355	3.546842	1.201703	0.000142
1698	1.6885e+02	-12.3975	-59.525548	0.000253	2.533459	0.858359	0.000101
1699	1.6895e+02	-12.3574	-59.448842	0.000193	1.925429	0.652353	0.000077
1700	1.6905e+02	-12.3173	-59.319654	0.000324	3.242827	1.098700	0.000130
1701	1.6915e+02	-12.2804	-59.263134	0.000142	1.418737	0.480681	0.000057
1702	1.6925e+02	-12.2451	-59.166243	0.000243	2.432121	0.824025	0.000097
1703	1.6935e+02	-12.2002	-59.057240	0.000274	2.736136	0.927028	0.000110
1704	1.6945e+02	-12.1617	-58.948237	0.000274	2.736136	0.927028	0.000110
1705	1.6955e+02	-12.1296	-58.823086	0.000314	3.141489	1.064365	0.000126
1706	1.6965e+02	-12.0831	-58.726195	0.000243	2.432121	0.824025	0.000097
1707	1.6975e+02	-12.0446	-58.584895	0.000355	3.546842	1.201703	0.000142
1708	1.6985e+02	-11.9997	-58.500115	0.000213	2.128105	0.721022	0.000085
1709	1.6995e+02	-11.9531	-58.370927	0.000324	3.242827	1.098700	0.000130
1710	1.7005e+02	-11.9162	-58.221553	0.000375	3.749519	1.270371	0.000150
1711	1.7015e+02	-11.8874	-58.173107	0.000122	1.216060	0.412012	0.000049
1712	1.7024e+02	-11.8457	-58.047956	0.000314	3.141489	1.064365	0.000126
1713	1.7034e+02	-11.8104	-57.938954	0.000274	2.736136	0.927028	0.000110
1714	1.7044e+02	-11.7670	-57.809765	0.000324	3.242827	1.098700	0.000130
1715	1.7054e+02	-11.7334	-57.692688	0.000294	2.938812	0.995697	0.000118
1716	1.7064e+02	-11.6916	-57.636168	0.000142	1.418737	0.480681	0.000057
1717	1.7074e+02	-11.6419	-57.511017	0.000314	3.141489	1.064365	0.000126
1718	1.7084e+02	-11.6050	-57.381829	0.000324	3.242827	1.098700	0.000130
1719	1.7094e+02	-11.5697	-57.313198	0.000172	1.722752	0.583684	0.000069
1720	1.7104e+02	-11.5232	-57.188046	0.000314	3.141489	1.064365	0.000126
1721	1.7114e+02	-11.4847	-57.062895	0.000314	3.141489	1.064365	0.000126
1722	1.7124e+02	-11.4462	-56.953892	0.000274	2.736136	0.927028	0.000110
1723	1.7134e+02	-11.4029	-56.865075	0.000223	2.229444	0.755356	0.000089
1724	1.7144e+02	-11.3580	-56.756073	0.000274	2.736136	0.927028	0.000110
1725	1.7154e+02	-11.3323	-56.659182	0.000243	2.432121	0.824025	0.000097
1726	1.7164e+02	-11.2794	-56.521919	0.000345	3.445504	1.167368	0.000138
1727	1.7174e+02	-11.2553	-56.453288	0.000172	1.722752	0.583684	0.000069
1728	1.7184e+02	-11.2136	-56.316025	0.000345	3.445504	1.167368	0.000138
1729	1.7194e+02	-11.1735	-56.178762	0.000345	3.445504	1.167368	0.000138
1730	1.7204e+02	-11.1157	-56.065723	0.000284	2.837474	0.961362	0.000114
1731	1.7213e+02	-11.0869	-55.956720	0.000274	2.736136	0.927028	0.000110
1732	1.7223e+02	-11.0435	-55.884051	0.000182	1.824090	0.618019	0.000073
1733	1.7233e+02	-11.0147	-55.746789	0.000345	3.445504	1.167368	0.000138
1734	1.7243e+02	-10.9778	-55.670083	0.000193	1.925429	0.652353	0.000077
1735	1.7253e+02	-10.9280	-55.581266	0.000223	2.229444	0.755356	0.000089
1736	1.7263e+02	-10.8879	-55.464189	0.000294	2.938812	0.995697	0.000118
1737	1.7273e+02	-10.8446	-55.335001	0.000324	3.242827	1.098700	0.000130
1738	1.7283e+02	-10.7997	-55.250221	0.000213	2.128105	0.721022	0.000085
1739	1.7293e+02	-10.7788	-55.145256	0.000263	2.634797	0.892693	0.000105
1740	1.7303e+02	-10.7339	-55.016067	0.000324	3.242827	1.098700	0.000130
1741	1.7313e+02	-10.6858	-54.935325	0.000203	2.026767	0.686687	0.000081
1742	1.7323e+02	-10.6457	-54.794025	0.000355	3.546842	1.201703	0.000142
1743	1.7333e+02	-10.6056	-54.689059	0.000263	2.634797	0.892693	0.000105
1744	1.7343e+02	-10.5639	-54.620428	0.000172	1.722752	0.583684	0.000069
1745	1.7353e+02	-10.5318	-54.507388	0.000284	2.837474	0.961362	0.000114
1746	1.7363e+02	-10.4965	-54.370126	0.000345	3.445504	1.167368	0.000138
1747	1.7373e+02	-10.4500	-54.269197	0.000253	2.533459	0.858359	0.000101
1748	1.7383e+02	-10.4083	-54.200566	0.000172	1.722752	0.583684	0.000069
1749	1.7393e+02	-10.3762	-54.095600	0.000263	2.634797	0.892693	0.000105
1750	1.7403e+02	-10.3264	-53.970449	0.000314	3.141489	1.064365	0.000126
1751	1.7413e+02	-10.2912	-53.861446	0.000274	2.736136	0.927028	0.000110
1752	1.7422e+02	-10.2446	-53.728221	0.000334	3.344166	1.133034	0.000134
1753	1.7432e+02	-10.2093	-53.623255	0.000263	2.634797	0.892693	0.000105
1754	1.7442e+02	-10.1660	-53.494067	0.000324	3.242827	1.098700	0.000130
1755	1.7452e+02	-10.1420	-53.376990	0.000294	2.938812	0.995697	0.000118
1756	1.7462e+02	-10.1002	-53.247802	0.000324	3.242827	1.098700	0.000130
1757	1.7472e+02	-10.0537	-53.158985	0.000223	2.229444	0.755356	0.000089
1758	1.7482e+02	-10.0024	-53.045945	0.000284	2.837474	0.961362	0.000114
1759	1.7492e+02	-9.9767	-52.920794	0.000314	3.141489	1.064365	0.000126
1760	1.7502e+02	-9.9334	-52.819865	0.000253	2.533459	0.858359	0.000101
1761	1.7512e+02	-9.9029	-52.702788	0.000294	2.938812	0.995697	0.000118
1762	1.7522e+02	-9.8548	-52.597823	0.000263	2.634797	0.892693	0.000105
1763	1.7532e+02	-9.8083	-52.484783	0.000284	2.837474	0.961362	0.000114
1764	1.7542e+02	-9.7746	-52.359632	0.000314	3.141489	1.064365	0.000126
1765	1.7552e+02	-9.7361	-52.246592	0.000284	2.837474	0.961362	0.000114
1766	1.7562e+02	-9.6815	-52.101255	0.000365	3.648181	1.236037	0.000146
1767	1.7572e+02	-9.6575	-52.028587	0.000182	1.824090	0.618019	0.000073
1768	1.7582e+02	-9.6078	-51.891324	0.000345	3.445504	1.167368	0.000138
1769	1.7592e+02	-9.5676	-51.778284	0.000284	2.837474	0.961362	0.000114
1770	1.7602e+02	-9.5372	-51.620836	0.000395	3.952196	1.339040	0.000158
1771	1.7612e+02	-9.4971	-51.540093	0.000203	2.026767	0.686687	0.000081
1772	1.7621e+02	-9.4489	-51.378608	0.000405	4.053534	1.373375	0.000162
1773	1.7631e+02	-9.4136	-51.309977	0.000172	1.722752	0.583684	0.000069
1774	1.7641e+02	-9.3703	-51.180788	0.000324	3.242827	1.098700	0.000130
1775	1.7651e+02	-9.3350	-51.075823	0.000263	2.634797	0.892693	0.000105
1776	1.7661e+02	-9.2965	-50.946634	0.000324	3.242827	1.098700	0.000130
1777	1.7671e+02	-9.2468	-50.857817	0.000223	2.229444	0.755356	0.000089
1778	1.7681e+02	-9.2115	-50.708443	0.000375	3.749519	1.270371	0.000150
1779	1.7691e+02	-9.1762	-50.603478	0.000263	2.634797	0.892693	0.000105
1780	1.7701e+02	-9.1409	-50.498512	0.000263	2.634797	0.892693	0.000105
1781	1.7711e+02	-9.1056	-50.353175	0.000365	3.648181	1.236037	0.000146
1782	1.7721e+02	-9.0591	-50.232061	0.000304	3.040151	1.030031	0.000122
1783	1.7731e+02	-9.0110	-50.070576	0.000405	4.053534	1.373375	0.000162
1784	1.7741e+02	-8.9741	-49.989833	0.000203	2.026767	0.686687	0.000081
1785	1.7751e+02	-8.9436	-49.892942	0.000243	2.432121	0.824025	0.000097
1786	1.7761e+02	-8.9003	-49.723382	0.000426	4.256211	1.442043	0.000170
1787	1.7771e+02	-8.8522	-49.638602	0.000213	2.128105	0.721022	0.000085
1788	1.7781e+02	-8.8185	-49.477117	0.000405	4.053534	1.373375	0.000162
1789	1.7791e+02	-8.7655	-49.424634	0.000132	1.317399	0.446347	0.000053
1790	1.7801e+02	-8.7415	-49.263149	0.000405	4.053534	1.373375	0.000162
1791	1.7810e+02	-8.6901	-49.162220	0.000253	2.533459	0.858359	0.000101
1792	1.7820e+02	-8.6580	-49.061292	0.000253	2.533459	0.858359	0.000101
1793	1.7830e+02	-8.6163	-48.903844	0.000395	3.952196	1.339040	0.000158
1794	1.7840e+02	-8.5746	-48.798878	0.000263	2.634797	0.892693	0.000105
1795	1.7850e+02	-8.5313	-48.677764	0.000304	3.040151	1.030031	0.000122
1796	1.7860e+02	-8.4992	-48.532427	0.000365	3.648181	1.236037	0.000146
1797	1.7870e+02	-8.4639	-48.407276	0.000314	3.141489	1.064365	0.000126
1798	1.7880e+02	-8.4158	-48.249828	0.000395	3.952196	1.339040	0.000158
1799	1.7890e+02	-8.3725	-48.140825	0.000274	2.736136	0.927028	0.000110
1800	1.7900e+02	-8.3420	-48.039897	0.000253	2.533459	0.858359	0.000101
1801	1.7910e+02	-8.2955	-47.898597	0.000355	3.546842	1.201703	0.000142
1802	1.7920e+02	-8.2634	-47.797669	0.000253	2.533459	0.858359	0.000101
1803	1.7930e+02	-8.2105	-47.672517	0.000314	3.141489	1.064365	0.000126
1804	1.7940e+02	-8.1816	-47.527180	0.000365	3.648181	1.236037	0.000146
1805	1.7950e+02	-8.1415	-47.365695	0.000405	4.053534	1.373375	0.000162
1806	1.7960e+02	-8.0901	-47.260730	0.000263	2.634797	0.892693	0.000105
1807	1.7970e+02	-8.0516	-47.119430	0.000355	3.546842	1.201703	0.000142
1808	1.7980e+02	-8.0164	-47.026576	0.000233	2.330782	0.789690	0.000093
1809	1.7990e+02	-7.9859	-46.885276	0.000355	3.546842	1.201703	0.000142
1810	1.8000e+02	-7.9345	-46.727828	0.000395	3.952196	1.339040	0.000158
1811	1.8009e+02	-7.9008	-46.594602	0.000334	3.344166	1.133034	0.000134
1812	1.8019e+02	-7.8543	-46.477525	0.000294	2.938812	0.995697	0.000118
1813	1.8029e+02	-7.8222	-46.303928	0.000436	4.357549	1.476378	0.000174
1814	1.8039e+02	-7.7773	-46.215111	0.000223	2.229444	0.755356	0.000089
1815	1.8049e+02	-7.7436	-46.025366	0.000476	4.762903	1.613715	0.000191
1816	1.8059e+02	-7.7003	-45.912326	0.000284	2.837474	0.961362	0.000114
1817	1.8069e+02	-7.6570	-45.766989	0.000365	3.648181	1.236037	0.000146
1818	1.8079e+02	-7.6169	-45.637801	0.000324	3.242827	1.098700	0.000130
1819	1.8089e+02	-7.5752	-45.476316	0.000405	4.053534	1.373375	0.000162
1820	1.8099e+02	-7.5495	-45.347127	0.000324	3.242827	1.098700	0.000130
1821	1.8109e+02	-7.5158	-45.149308	0.000497	4.965579	1.682384	0.000199
1822	1.8119e+02	-7.4709	-45.064528	0.000213	2.128105	0.721022	0.000085
1823	1.8129e+02	-7.4260	-44.915154	0.000375	3.749519	1.270371	0.000150
1824	1.8139e+02	-7.3698	-44.818262	0.000243	2.432121	0.824025	0.000097
1825	1.8149e+02	-7.3394	-44.608331	0.000527	5.269594	1.785387	0.000211
1826	1.8159e+02	-7.3041	-44.511440	0.000243	2.432121	0.824025	0.000097
1827	1.8169e+02	-7.2527	-44.341880	0.000426	4.256211	1.442043	0.000170
1828	1.8179e+02	-7.2190	-44.236915	0.000263	2.634797	0.892693	0.000105
1829	1.8189e+02	-7.1822	-44.075429	0.000405	4.053534	1.373375	0.000162
1830	1.8199e+02	-7.1436	-43.873573	0.000507	5.066918	1.716718	0.000203
1831	1.8209e+02	-7.1084	-43.740347	0.000334	3.344166	1.133034	0.000134
1832	1.8218e+02	-7.0522	-43.627307	0.000284	2.837474	0.961362	0.000114
1833	1.8228e+02	-7.0201	-43.437562	0.000476	4.762903	1.613715	0.000191
1834	1.8238e+02	-6.9832	-43.276077	0.000405	4.053534	1.373375	0.000162
1835	1.8248e+02	-6.9383	-43.175148	0.000253	2.533459	0.858359	0.000101
1836	1.8258e+02	-6.9078	-42.973291	0.000507	5.066918	1.716718	0.000203
1837	1.8268e+02	-6.8661	-42.852177	0.000304	3.040151	1.030031	0.000122
1838	1.8278e+02	-6.8244	-42.694729	0.000395	3.952196	1.339040	0.000158
1839	1.8288e+02	-6.7827	-42.504984	0.000476	4.762903	1.613715	0.000191
1840	1.8298e+02	-6.7426	-42.424241	0.000203	2.026767	0.686687	0.000081
1841	1.8308e+02	-6.7089	-42.246607	0.000446	4.458888	1.510712	0.000179
1842	1.8318e+02	-6.6640	-42.073010	0.000436	4.357549	1.476378	0.000174
1843	1.8328e+02	-6.6255	-41.951896	0.000304	3.040151	1.030031	0.000122
1844	1.8338e+02	-6.5854	-41.802522	0.000375	3.749519	1.270371	0.000150
1845	1.8348e+02	-6.5437	-41.641037	0.000405	4.053534	1.373375	0.000162
1846	1.8358e+02	-6.5036	-41.523960	0.000294	2.938812	0.995697	0.000118
1847	1.8368e+02	-6.4667	-41.354400	0.000426	4.256211	1.442043	0.000170
1848	1.8378e+02	-6.4314	-41.205026	0.000375	3.749519	1.270371	0.000150
1849	1.8388e+02	-6.3816	-41.055652	0.000375	3.749519	1.270371	0.000150
1850	1.8398e+02	-6.3447	-40.886092	0.000426	4.256211	1.442043	0.000170
1851	1.8407e+02	-6.3127	-40.736718	0.000375	3.749519	1.270371	0.000150
1852	1.8417e+02	-6.2645	-40.575233	0.000405	4.053534	1.373375	0.000162
1853	1.8427e+02	-6.2180	-40.429896	0.000365	3.648181	1.236037	0.000146
1854	1.8437e+02	-6.2068	-40.308782	0.000304	3.040151	1.030031	0.000122
1855	1.8447e+02	-6.1506	-40.147296	0.000405	4.053534	1.373375	0.000162
1856	1.8457e+02	-6.1169	-39.981774	0.000415	4.154873	1.407709	0.000166
1857	1.8467e+02	-6.0736	-39.808177	0.000436	4.357549	1.476378	0.000174
1858	1.8477e+02	-6.0271	-39.662840	0.000365	3.648181	1.236037	0.000146
1859	1.8487e+02	-5.9886	-39.505392	0.000395	3.952196	1.339040	0.000158
1860	1.8497e+02	-5.9453	-39.388315	0.000294	2.938812	0.995697	0.000118
1861	1.8507e+02	-5.9164	-39.242978	0.000365	3.648181	1.236037	0.000146
1862	1.8517e+02	-5.8763	-39.085530	0.000395	3.952196	1.339040	0.000158
1863	1.8527e+02	-5.8394	-38.915970	0.000426	4.256211	1.442043	0.000170
1864	1.8537e+02	-5.7865	-38.774670	0.000355	3.546842	1.201703	0.000142
1865	1.8547e+02	-5.7512	-38.653556	0.000304	3.040151	1.030031	0.000122
1866	1.8557e+02	-5.7111	-38.475922	0.000446	4.458888	1.510712	0.000179
1867	1.8567e+02	-5.6629	-38.306362	0.000426	4.256211	1.442043	0.000170
1868	1.8577e+02	-5.6212	-38.124691	0.000456	4.560226	1.545046	0.000183
1869	1.8587e+02	-5.5972	-38.039911	0.000213	2.128105	0.721022	0.000085
1870	1.8597e+02	-5.5474	-37.858240	0.000456	4.560226	1.545046	0.000183
1871	1.8606e+02	-5.5025	-37.700792	0.000395	3.952196	1.339040	0.000158
1872	1.8616e+02	-5.4720	-37.567567	0.000334	3.344166	1.133034	0.000134
1873	1.8626e+02	-5.4383	-37.418193	0.000375	3.749519	1.270371	0.000150
1874	1.8636e+02	-5.3902	-37.244596	0.000436	4.357549	1.476378	0.000174
1875	1.8646e+02	-5.3533	-37.099259	0.000365	3.648181	1.236037	0.000146
1876	1.8656e+02	-5.3004	-36.893365	0.000517	5.168256	1.751053	0.000207
1877	1.8666e+02	-5.2683	-36.784362	0.000274	2.736136	0.927028	0.000110
1878	1.8676e+02	-5.2266	-36.634988	0.000375	3.749519	1.270371	0.000150
1879	1.8686e+02	-5.1897	-36.465429	0.000426	4.256211	1.442043	0.000170
1880	1.8696e+02	-5.1560	-36.287795	0.000446	4.458888	1.510712	0.000179
1881	1.8706e+02	-5.1143	-36.154569	0.000334	3.344166	1.133034	0.000134
1882	1.8716e+02	-5.0726	-36.025381	0.000324	3.242827	1.098700	0.000130
1883	1.8726e+02	-5.0373	-35.863895	0.000405	4.053534	1.373375	0.000162
1884	1.8736e+02	-4.9844	-35.694336	0.000426	4.256211	1.442043	0.000170
1885	1.8746e+02	-4.9571	-35.561110	0.000334	3.344166	1.133034	0.000134
1886	1.8756e+02	-4.9186	-35.423848	0.000345	3.445504	1.167368	0.000138
1887	1.8766e+02	-4.8672	-35.205842	0.000547	5.472271	1.854056	0.000219
1888	1.8776e+02	-4.8400	-35.088765	0.000294	2.938812	0.995697	0.000118
1889	1.8786e+02	-4.7983	-34.899020	0.000476	4.762903	1.613715	0.000191
1890	1.8796e+02	-4.7517	-34.753683	0.000365	3.648181	1.236037	0.000146
1891	1.8806e+02	-4.7084	-34.576049	0.000446	4.458888	1.510712	0.000179
1892	1.8815e+02	-4.6667	-34.418601	0.000395	3.952196	1.339040	0.000158
1893	1.8825e+02	-4.6330	-34.277301	0.000355	3.546842	1.201703	0.000142
1894	1.8835e+02	-4.6041	-34.148113	0.000324	3.242827	1.098700	0.000130
1895	1.8845e+02	-4.5512	-33.966442	0.000456	4.560226	1.545046	0.000183
1896	1.8855e+02	-4.5127	-33.817068	0.000375	3.749519	1.270371	0.000150
1897	1.8865e+02	-4.4742	-33.695953	0.000304	3.040151	1.030031	0.000122
1898	1.8875e+02	-4.4341	-33.514282	0.000456	4.560226	1.545046	0.000183
1899	1.8885e+02	-4.3876	-33.352797	0.000405	4.053534	1.373375	0.000162
1900	1.8895e+02	-4.3571	-33.146903	0.000517	5.168256	1.751053	0.000207
1901	1.8905e+02	-4.3186	-33.025789	0.000304	3.040151	1.030031	0.000122
1902	1.8915e+02	-4.2801	-32.836044	0.000476	4.762903	1.613715	0.000191
1903	1.8925e+02	-4.2336	-32.666484	0.000426	4.256211	1.442043	0.000170
1904	1.8935e+02	-4.2015	-32.533258	0.000334	3.344166	1.133034	0.000134
1905	1.8945e+02	-4.1582	-32.351587	0.000456	4.560226	1.545046	0.000183
1906	1.8955e+02	-4.1181	-32.206250	0.000365	3.648181	1.236037	0.000146
1907	1.8965e+02	-4.0748	-32.020542	0.000466	4.661564	1.579381	0.000187
1908	1.8975e+02	-4.0395	-31.883279	0.000345	3.445504	1.167368	0.000138
1909	1.8985e+02	-4.0042	-31.709683	0.000436	4.357549	1.476378	0.000174
1910	1.8995e+02	-3.9512	-31.576457	0.000334	3.344166	1.133034	0.000134
1911	1.9004e+02	-3.9191	-31.358452	0.000547	5.472271	1.854056	0.000219
1912	1.9014e+02	-3.8822	-31.261561	0.000243	2.432121	0.824025	0.000097
1913	1.9024e+02	-3.8470	-31.096038	0.000415	4.154873	1.407709	0.000166
1914	1.9034e+02	-3.7972	-30.938590	0.000395	3.952196	1.339040	0.000158
1915	1.9044e+02	-3.7411	-30.789216	0.000375	3.749519	1.270371	0.000150
1916	1.9054e+02	-3.7202	-30.651953	0.000345	3.445504	1.167368	0.000138
1917	1.9064e+02	-3.6801	-30.498542	0.000385	3.850857	1.304706	0.000154
1918	1.9074e+02	-3.6320	-30.312834	0.000466	4.661564	1.579381	0.000187
1919	1.9084e+02	-3.6047	-30.155385	0.000395	3.952196	1.339040	0.000158
1920	1.9094e+02	-3.5550	-29.981789	0.000436	4.357549	1.476378	0.000174
1921	1.9104e+02	-3.5101	-29.856637	0.000314	3.141489	1.064365	0.000126
1922	1.9114e+02	-3.4748	-29.683041	0.000436	4.357549	1.476378	0.000174
1923	1.9124e+02	-3.4363	-29.529629	0.000385	3.850857	1.304706	0.000154
1924	1.9134e+02	-3.3962	-29.388330	0.000355	3.546842	1.201703	0.000142
1925	1.9144e+02	-3.3593	-29.218770	0.000426	4.256211	1.442043	0.000170
1926	1.9154e+02	-3.3256	-29.024987	0.000486	4.864241	1.648049	0.000195
1927	1.9164e+02	-3.2758	-28.883688	0.000355	3.546842	1.201703	0.000142
1928	1.9174e+02	-3.2389	-28.702017	0.000456	4.560226	1.545046	0.000183
1929	1.9184e+02	-3.1940	-28.564754	0.000345	3.445504	1.167368	0.000138
1930	1.9194e+02	-3.1603	-28.379046	0.000466	4.661564	1.579381	0.000187
1931	1.9203e+02	-3.1154	-28.217560	0.000405	4.053534	1.373375	0.000162
1932	1.9213e+02	-3.0817	-28.039926	0.000446	4.458888	1.510712	0.000179
1933	1.9223e+02	-3.0384	-27.906701	0.000334	3.344166	1.133034	0.000134
1934	1.9233e+02	-3.0031	-27.684658	0.000557	5.573610	1.888390	0.000223
1935	1.9243e+02	-2.9598	-27.523173	0.000405	4.053534	1.373375	0.000162
1936	1.9253e+02	-2.9165	-27.389947	0.000334	3.344166	1.133034	0.000134
1937	1.9263e+02	-2.8812	-27.256722	0.000334	3.344166	1.133034	0.000134
1938	1.9273e+02	-2.8491	-27.038717	0.000547	5.472271	1.854056	0.000219
1939	1.9283e+02	-2.8090	-26.913565	0.000314	3.141489	1.064365	0.000126
1940	1.9293e+02	-2.7689	-26.707671	0.000517	5.168256	1.751053	0.000207
1941	1.9303e+02	-2.7160	-26.558297	0.000375	3.749519	1.270371	0.000150
1942	1.9313e+02	-2.6791	-26.388738	0.000426	4.256211	1.442043	0.000170
1943	1.9323e+02	-2.6422	-26.203030	0.000466	4.661564	1.579381	0.000187
1944	1.9333e+02	-2.6085	-26.053655	0.000375	3.749519	1.270371	0.000150
1945	1.9343e+02	-2.5604	-25.871984	0.000456	4.560226	1.545046	0.000183
1946	1.9353e+02	-2.5251	-25.734722	0.000345	3.445504	1.167368	0.000138
1947	1.9363e+02	-2.4850	-25.565162	0.000426	4.256211	1.442043	0.000170
1948	1.9373e+02	-2.4416	-25.391565	0.000436	4.357549	1.476378	0.000174
1949	1.9383e+02	-2.4031	-25.230080	0.000405	4.053534	1.373375	0.000162
1950	1.9393e+02	-2.3678	-25.048409	0.000456	4.560226	1.545046	0.000183
1951	1.9403e+02	-2.3149	-24.911146	0.000345	3.445504	1.167368	0.000138
1952	1.9412e+02	-2.2796	-24.733512	0.000446	4.458888	1.510712	0.000179
1953	1.9422e+02	-2.2507	-24.580101	0.000385	3.850857	1.304706	0.000154
1954	1.9432e+02	-2.1994	-24.370170	0.000527	5.269594	1.785387	0.000211
1955	1.9442e+02	-2.1641	-24.261167	0.000274	2.736136	0.927028	0.000110
1956	1.9452e+02	-2.1224	-24.075459	0.000466	4.661564	1.579381	0.000187
1957	1.9462e+02	-2.0871	-23.922048	0.000385	3.850857	1.304706	0.000154
1958	1.9472e+02	-2.0422	-23.724228	0.000497	4.965579	1.682384	0.000199
1959	1.9482e+02	-2.0069	-23.534483	0.000476	4.762903	1.613715	0.000191
1960	1.9492e+02	-1.9668	-23.381072	0.000385	3.850857	1.304706	0.000154
1961	1.9502e+02	-1.9219	-23.207475	0.000436	4.357549	1.476378	0.000174
1962	1.9512e+02	-1.8930	-23.013692	0.000486	4.864241	1.648049	0.000195
1963	1.9522e+02	-1.8449	-22.908727	0.000263	2.634797	0.892693	0.000105
1964	1.9532e+02	-1.8128	-22.706870	0.000507	5.066918	1.716718	0.000203
1965	1.9542e+02	-1.7614	-22.549422	0.000395	3.952196	1.339040	0.000158
1966	1.9552e+02	-1.7229	-22.396011	0.000385	3.850857	1.304706	0.000154
1967	1.9562e+02	-1.6844	-22.202228	0.000486	4.864241	1.648049	0.000195
1968	1.9572e+02	-1.6427	-22.032668	0.000426	4.256211	1.442043	0.000170
1969	1.9582e+02	-1.6026	-21.859071	0.000436	4.357549	1.476378	0.000174
1970	1.9592e+02	-1.5754	-21.713735	0.000365	3.648181	1.236037	0.000146
1971	1.9601e+02	-1.5288	-21.536101	0.000446	4.458888	1.510712	0.000179
1972	1.9611e+02	-1.4823	-21.362504	0.000436	4.357549	1.476378	0.000174
1973	1.9621e+02	-1.4502	-21.205055	0.000395	3.952196	1.339040	0.000158
1974	1.9631e+02	-1.3973	-21.055681	0.000375	3.749519	1.270371	0.000150
1975	1.9641e+02	-1.3684	-20.894196	0.000405	4.053534	1.373375	0.000162
1976	1.9651e+02	-1.3219	-20.684265	0.000527	5.269594	1.785387	0.000211
1977	1.9661e+02	-1.2866	-20.555077	0.000324	3.242827	1.098700	0.000130
1978	1.9671e+02	-1.2481	-20.357257	0.000497	4.965579	1.682384	0.000199
1979	1.9681e+02	-1.2144	-20.195772	0.000405	4.053534	1.373375	0.000162
1980	1.9691e+02	-1.1711	-20.058509	0.000345	3.445504	1.167368	0.000138
1981	1.9701e+02	-1.1278	-19.860689	0.000497	4.965579	1.682384	0.000199
1982	1.9711e+02	-1.0893	-19.703241	0.000395	3.952196	1.339040	0.000158
1983	1.9721e+02	-1.0395	-19.493310	0.000527	5.269594	1.785387	0.000211
1984	1.9731e+02	-1.0075	-19.360084	0.000334	3.344166	1.133034	0.000134
1985	1.9741e+02	-0.9674	-19.166302	0.000486	4.864241	1.648049	0.000195
1986	1.9751e+02	-0.9224	-19.008854	0.000395	3.952196	1.339040	0.000158
1987	1.9761e+02	-0.8855	-18.839294	0.000426	4.256211	1.442043	0.000170
1988	1.9771e+02	-0.8502	-18.653586	0.000466	4.661564	1.579381	0.000187
1989	1.9781e+02	-0.8150	-18.492100	0.000405	4.053534	1.373375	0.000162
1990	1.9791e+02	-0.7684	-18.310429	0.000456	4.560226	1.545046	0.000183
1991	1.9800e+02	-0.7299	-18.116647	0.000486	4.864241	1.648049	0.000195
1992	1.9810e+02	-0.6834	-17.930938	0.000466	4.661564	1.579381	0.000187
1993	1.9820e+02	-0.6545	-17.781564	0.000375	3.749519	1.270371	0.000150
1994	1.9830e+02	-0.6048	-17.644302	0.000345	3.445504	1.167368	0.000138
1995	1.9840e+02	-0.5679	-17.402074	0.000608	6.080301	2.060062	0.000243
1996	1.9850e+02	-0.5342	-17.248662	0.000385	3.850857	1.304706	0.000154
1997	1.9860e+02	-0.4893	-17.095251	0.000385	3.850857	1.304706	0.000154
1998	1.9870e+02	-0.4508	-16.897432	0.000497	4.965579	1.682384	0.000199
1999	1.9880e+02	-0.4091	-16.727872	0.000426	4.256211	1.442043	0.000170
2000	1.9890e+02	-0.3626	-16.538127	0.000476	4.762903	1.613715	0.000191
2001	1.9900e+02	-0.3273	-16.372604	0.000415	4.154873	1.407709	0.000166
2002	1.9910e+02	-0.2968	-16.199007	0.000436	4.357549	1.476378	0.000174
2003	1.9920e+02	-0.2374	-16.005225	0.000486	4.864241	1.648049	0.000195
2004	1.9930e+02	-0.2069	-15.871999	0.000334	3.344166	1.133034	0.000134
2005	1.9940e+02	-0.1749	-15.702439	0.000426	4.256211	1.442043	0.000170
2006	1.9950e+02	-0.1380	-15.472323	0.000578	5.776286	1.957059	0.000231
2007	1.9960e+02	-0.0866	-15.322949	0.000375	3.749519	1.270371	0.000150
2008	1.9970e+02	-0.0481	-15.165500	0.000395	3.952196	1.339040	0.000158
2009	1.9980e+02	-0.0096	-14.979792	0.000395	3.952196	1.339040	0.000187

Center data before PMax,+/-Pr and +/-Vc Calc.

PMax (uC/cm2):	7.14e+01
Pr (uC/cm2):	8.70e+00
-Pr (uC/cm2):	-1.50e+01
PLoss (uC/cm2):	-1.21e+01
Vc:	1.40e+00
-Vc:	-1.84e+00
C (Max-Eff) (nF):	3.57e-01
K (Eff):	1.21e+03
Vert. (+/-Pr) Shift (uC/cm2):	-3.14e+00
Horiz. Shift (+/-Vc):	-2.22e-01
Offset (uC/cm2):	2.89e+00

A (Loop Area - uC/cm2·Volts):	2.00e-01



Hysteresis Version: 5.48.1 - Radiant Technologies, Inc., 1999 - 9/12/24

