»»»»»»»»»»»»»»»»»»»»»»»»»»»»»»»»»»»» Hysteresis ««««««««««««««««««««««««««««««««««««
»»»  Executed Version:	5.48.1
»»»  Vision Version:	5.48.4 (R)
»»»  Vision Compiled:	9/18/24
»»»  Driver Version:	5.47.0
»»»  Windows Version:	Windows 8 or 8.1
»»»  Processor Information:	x86 (AMD or Intel) - 32 Processors
»»»  Tester Name:	PMF21124-494 (100V)
»»»  Tester S/N:	PMF21124-494
»»»  Internal Amp Type:	100V RevK 270k
»»»  Internal Amp S/N:	iAB2-596/K     
»»»  Execution Count:	1
»»»»»»»»»»»»»»»»»»»»»»»»»»»»»»»»»»»»»»»»»»««««««««««««««««««««««««««««««««««««««««««

Stored:	6/16/2025 - 10:31:51
Configured:	06/16/25 10:13:01 AM
Executed:	06/16/25 10:31:21 AM

»»»»»»»»»»»»»»»»»»»»»»»»»»»»»»»»»»» Sample Info ««««««««««««««««««««««««««««««««««««
Sample Name:	
Lot Name:	
Wafer Name:	
Die Row/Column:	0/0
Capacitor Number:	0
Sample Area (cm2):	1.00e-04
Sample Thickness (microns):	3.00e-01

Amplifier:	Internal

»»»»»»»»»»»»»»»»»»»»»»»»»»»»»»»»»»» Tester Info «««««««««««««««««««««««««««««««««««
Tester Name:	PMF21124-494 (100V)
Tester Serial Number:	PMF21124-494
Return Signal Amp. Level:	0.19 [Index: 3]

»»»»»»»»»»»»»»»»»»»»»»»»»»»»»»»» Hysteresis Info ««««««««««««««««««««««««««««««««««
Task Name:	Hyst-2190
Volts:	20.00
Field:	666.67 (kV/cm)
DCBias:	0.00
DCField:	0.00 (kV/cm)
Hysteresis Period (ms):	2.00e+02
Preset:	Enabled
Preset Delay (ms):	1.00e+03
Profile:	Standard Bipolar

»»»»»»»»»»»»»»»»»»»»»»»»»»»»»»»»»»»»»» Data «««««««««««««««««««««««««««««««««««««««
Points:	2009

Valid Data

Point	Time (ms)	Drive Voltage	Measured Polarization (uC/cm2)	Capacitance (uF)	Normalized Capacitance (uF/cm2)	Dielectric Constant	Instantaneous Current (mA)
   1	0.0000e+00	-0.0096	1.067822	0.000355	3.545847	1.201365	0.000142
   2	9.9500e-02	0.0209	1.209122	0.000355	3.545847	1.201365	0.000142
   3	1.9900e-01	0.0610	1.382719	0.000436	4.356326	1.475963	0.000174
   4	2.9850e-01	0.0995	1.507870	0.000314	3.140607	1.064067	0.000126
   5	3.9800e-01	0.1428	1.713764	0.000517	5.166805	1.750561	0.000207
   6	4.9750e-01	0.1829	1.846990	0.000334	3.343227	1.132716	0.000134
   7	5.9700e-01	0.2166	1.992326	0.000365	3.647157	1.235690	0.000146
   8	6.9650e-01	0.2567	2.169960	0.000446	4.457636	1.510288	0.000179
   9	7.9600e-01	0.2968	2.311260	0.000355	3.545847	1.201365	0.000142
  10	8.9550e-01	0.3513	2.452560	0.000355	3.545847	1.201365	0.000142
  11	9.9500e-01	0.3882	2.605971	0.000385	3.849777	1.304340	0.000154
  12	1.0945e+00	0.4267	2.771494	0.000415	4.153706	1.407314	0.000166
  13	1.1940e+00	0.4668	2.937016	0.000415	4.153706	1.407314	0.000166
  14	1.2935e+00	0.4989	3.114650	0.000446	4.457636	1.510288	0.000179
  15	1.3930e+00	0.5390	3.272099	0.000395	3.951087	1.338664	0.000158
  16	1.4925e+00	0.5839	3.453770	0.000456	4.558946	1.544613	0.000183
  17	1.5920e+00	0.6160	3.570847	0.000294	2.937987	0.995417	0.000118
  18	1.6915e+00	0.6561	3.720221	0.000375	3.748467	1.270015	0.000150
  19	1.7910e+00	0.7027	3.897855	0.000446	4.457636	1.510288	0.000179
  20	1.8905e+00	0.7412	4.047229	0.000375	3.748467	1.270015	0.000150
  21	1.9900e+00	0.7829	4.228900	0.000456	4.558946	1.544613	0.000183
  22	2.0895e+00	0.8230	4.402497	0.000436	4.356326	1.475963	0.000174
  23	2.1890e+00	0.8615	4.588205	0.000466	4.660256	1.578937	0.000187
  24	2.2885e+00	0.9032	4.721430	0.000334	3.343227	1.132716	0.000134
  25	2.3880e+00	0.9337	4.882916	0.000405	4.052396	1.372989	0.000162
  26	2.4875e+00	0.9850	5.040364	0.000395	3.951087	1.338664	0.000158
  27	2.5870e+00	1.0123	5.209924	0.000426	4.255016	1.441639	0.000170
  28	2.6865e+00	1.0540	5.419855	0.000527	5.268115	1.784886	0.000211
  29	2.7860e+00	1.0941	5.573266	0.000385	3.849777	1.304340	0.000154
  30	2.8855e+00	1.1406	5.726677	0.000385	3.849777	1.304340	0.000154
  31	2.9850e+00	1.1823	5.888162	0.000405	4.052396	1.372989	0.000162
  32	3.0845e+00	1.2208	6.037536	0.000375	3.748467	1.270015	0.000150
  33	3.1840e+00	1.2577	6.215170	0.000446	4.457636	1.510288	0.000179
  34	3.2835e+00	1.3042	6.400879	0.000466	4.660256	1.578937	0.000187
  35	3.3830e+00	1.3411	6.538141	0.000344	3.444537	1.167041	0.000138
  36	3.4825e+00	1.3748	6.752110	0.000537	5.369425	1.819211	0.000215
  37	3.5820e+00	1.4165	6.881298	0.000324	3.241917	1.098391	0.000130
  38	3.6815e+00	1.4679	7.087192	0.000517	5.166805	1.750561	0.000207
  39	3.7810e+00	1.4935	7.232529	0.000365	3.647157	1.235690	0.000146
  40	3.8805e+00	1.5401	7.365754	0.000334	3.343227	1.132716	0.000134
  41	3.9800e+00	1.5914	7.587797	0.000557	5.572045	1.887860	0.000223
  42	4.0795e+00	1.6155	7.712948	0.000314	3.140607	1.064067	0.000126
  43	4.1790e+00	1.6588	7.906730	0.000486	4.862876	1.647587	0.000195
  44	4.2785e+00	1.6941	8.092439	0.000466	4.660256	1.578937	0.000187
  45	4.3780e+00	1.7486	8.245850	0.000385	3.849777	1.304340	0.000154
  46	4.4775e+00	1.7791	8.403298	0.000395	3.951087	1.338664	0.000158
  47	4.5770e+00	1.8224	8.580932	0.000446	4.457636	1.510288	0.000179
  48	4.6765e+00	1.8577	8.770677	0.000476	4.761566	1.613262	0.000191
  49	4.7760e+00	1.9026	8.907940	0.000344	3.444537	1.167041	0.000138
  50	4.8755e+00	1.9363	9.073463	0.000415	4.153706	1.407314	0.000166
  51	4.9750e+00	1.9909	9.218799	0.000365	3.647157	1.235690	0.000146
  52	5.0745e+00	2.0213	9.424693	0.000517	5.166805	1.750561	0.000207
  53	5.1740e+00	2.0534	9.602327	0.000446	4.457636	1.510288	0.000179
  54	5.2735e+00	2.0935	9.767850	0.000415	4.153706	1.407314	0.000166
  55	5.3730e+00	2.1320	9.901075	0.000334	3.343227	1.132716	0.000134
  56	5.4725e+00	2.1834	10.106969	0.000517	5.166805	1.750561	0.000207
  57	5.5720e+00	2.2187	10.280566	0.000436	4.356326	1.475963	0.000174
  58	5.6715e+00	2.2620	10.442052	0.000405	4.052396	1.372989	0.000162
  59	5.7710e+00	2.2941	10.595463	0.000385	3.849777	1.304340	0.000154
  60	5.8705e+00	2.3390	10.777134	0.000456	4.558946	1.544613	0.000183
  61	5.9700e+00	2.3807	10.938619	0.000405	4.052396	1.372989	0.000162
  62	6.0695e+00	2.4208	11.132402	0.000486	4.862876	1.647587	0.000195
  63	6.1690e+00	2.4432	11.318110	0.000466	4.660256	1.578937	0.000187
  64	6.2685e+00	2.4834	11.463447	0.000365	3.647157	1.235690	0.000146
  65	6.3680e+00	2.5283	11.604747	0.000355	3.545847	1.201365	0.000142
  66	6.4675e+00	2.5684	11.846975	0.000608	6.078595	2.059484	0.000243
  67	6.5670e+00	2.6133	11.972126	0.000314	3.140607	1.064067	0.000126
  68	6.6665e+00	2.6486	12.165909	0.000486	4.862876	1.647587	0.000195
  69	6.7660e+00	2.6967	12.311245	0.000365	3.647157	1.235690	0.000146
  70	6.8655e+00	2.7304	12.500991	0.000476	4.761566	1.613262	0.000191
  71	6.9650e+00	2.7689	12.642291	0.000355	3.545847	1.201365	0.000142
  72	7.0645e+00	2.8154	12.827999	0.000466	4.660256	1.578937	0.000187
  73	7.1640e+00	2.8523	13.009670	0.000456	4.558946	1.544613	0.000183
  74	7.2635e+00	2.8956	13.219601	0.000527	5.268115	1.784886	0.000211
  75	7.3630e+00	2.9357	13.364938	0.000365	3.647157	1.235690	0.000146
  76	7.4625e+00	2.9662	13.538535	0.000436	4.356326	1.475963	0.000174
  77	7.5620e+00	3.0079	13.724243	0.000466	4.660256	1.578937	0.000187
  78	7.6615e+00	3.0529	13.869580	0.000365	3.647157	1.235690	0.000146
  79	7.7610e+00	3.0930	14.055288	0.000466	4.660256	1.578937	0.000187
  80	7.8605e+00	3.1202	14.220811	0.000415	4.153706	1.407314	0.000166
  81	7.9600e+00	3.1700	14.402482	0.000456	4.558946	1.544613	0.000183
  82	8.0595e+00	3.2181	14.584153	0.000456	4.558946	1.544613	0.000183
  83	8.1590e+00	3.2566	14.765824	0.000456	4.558946	1.544613	0.000183
  84	8.2585e+00	3.2903	14.935384	0.000426	4.255016	1.441639	0.000170
  85	8.3580e+00	3.3288	15.141278	0.000517	5.166805	1.750561	0.000207
  86	8.4575e+00	3.3753	15.270466	0.000324	3.241917	1.098391	0.000130
  87	8.5570e+00	3.4090	15.440026	0.000426	4.255016	1.441639	0.000170
  88	8.6565e+00	3.4587	15.645920	0.000517	5.166805	1.750561	0.000207
  89	8.7560e+00	3.4972	15.819516	0.000436	4.356326	1.475963	0.000174
  90	8.8555e+00	3.5293	15.964853	0.000365	3.647157	1.235690	0.000146
  91	8.9550e+00	3.5710	16.182859	0.000547	5.470735	1.853535	0.000219
  92	9.0545e+00	3.6095	16.352418	0.000426	4.255016	1.441639	0.000170
  93	9.1540e+00	3.6593	16.562349	0.000527	5.268115	1.784886	0.000211
  94	9.2535e+00	3.6897	16.675389	0.000284	2.836678	0.961092	0.000114
  95	9.3530e+00	3.7266	16.861097	0.000466	4.660256	1.578937	0.000187
  96	9.4525e+00	3.7683	17.058917	0.000496	4.964186	1.681912	0.000199
  97	9.5520e+00	3.8117	17.240588	0.000456	4.558946	1.544613	0.000183
  98	9.6515e+00	3.8486	17.414185	0.000436	4.356326	1.475963	0.000174
  99	9.7510e+00	3.8967	17.612005	0.000496	4.964186	1.681912	0.000199
 100	9.8505e+00	3.9256	17.793676	0.000456	4.558946	1.544613	0.000183
 101	9.9500e+00	3.9753	17.955161	0.000405	4.052396	1.372989	0.000162
 102	1.0050e+01	4.0074	18.116647	0.000405	4.052396	1.372989	0.000162
 103	1.0149e+01	4.0475	18.290243	0.000436	4.356326	1.475963	0.000174
 104	1.0248e+01	4.0908	18.463840	0.000436	4.356326	1.475963	0.000174
 105	1.0348e+01	4.1181	18.641474	0.000446	4.457636	1.510288	0.000179
 106	1.0447e+01	4.1726	18.811034	0.000426	4.255016	1.441639	0.000170
 107	1.0547e+01	4.2079	19.020965	0.000527	5.268115	1.784886	0.000211
 108	1.0646e+01	4.2512	19.198599	0.000446	4.457636	1.510288	0.000179
 109	1.0746e+01	4.2817	19.360084	0.000405	4.052396	1.372989	0.000162
 110	1.0845e+01	4.3330	19.557904	0.000496	4.964186	1.681912	0.000199
 111	1.0945e+01	4.3635	19.719390	0.000405	4.052396	1.372989	0.000162
 112	1.1044e+01	4.4052	19.913172	0.000486	4.862876	1.647587	0.000195
 113	1.1144e+01	4.4534	20.090806	0.000446	4.457636	1.510288	0.000179
 114	1.1243e+01	4.4919	20.268440	0.000446	4.457636	1.510288	0.000179
 115	1.1343e+01	4.5352	20.421851	0.000385	3.849777	1.304340	0.000154
 116	1.1443e+01	4.5705	20.599485	0.000446	4.457636	1.510288	0.000179
 117	1.1542e+01	4.6009	20.801342	0.000507	5.065496	1.716236	0.000203
 118	1.1642e+01	4.6587	20.974939	0.000436	4.356326	1.475963	0.000174
 119	1.1741e+01	4.6876	21.140461	0.000415	4.153706	1.407314	0.000166
 120	1.1841e+01	4.7261	21.318095	0.000446	4.457636	1.510288	0.000179
 121	1.1940e+01	4.7646	21.471506	0.000385	3.849777	1.304340	0.000154
 122	1.2040e+01	4.8015	21.669326	0.000496	4.964186	1.681912	0.000199
 123	1.2139e+01	4.8512	21.871183	0.000507	5.065496	1.716236	0.000203
 124	1.2239e+01	4.8961	22.008445	0.000344	3.444537	1.167041	0.000138
 125	1.2338e+01	4.9202	22.222414	0.000537	5.369425	1.819211	0.000215
 126	1.2438e+01	4.9619	22.347565	0.000314	3.140607	1.064067	0.000126
 127	1.2537e+01	5.0132	22.557496	0.000527	5.268115	1.784886	0.000211
 128	1.2636e+01	5.0453	22.747241	0.000476	4.761566	1.613262	0.000191
 129	1.2736e+01	5.0806	22.912764	0.000415	4.153706	1.407314	0.000166
 130	1.2835e+01	5.1175	23.126732	0.000537	5.369425	1.819211	0.000215
 131	1.2935e+01	5.1624	23.259958	0.000334	3.343227	1.132716	0.000134
 132	1.3034e+01	5.2041	23.445666	0.000466	4.660256	1.578937	0.000187
 133	1.3134e+01	5.2426	23.615225	0.000426	4.255016	1.441639	0.000170
 134	1.3233e+01	5.2892	23.780748	0.000415	4.153706	1.407314	0.000166
 135	1.3333e+01	5.3244	23.958382	0.000446	4.457636	1.510288	0.000179
 136	1.3432e+01	5.3678	24.180425	0.000557	5.572045	1.887860	0.000223
 137	1.3532e+01	5.4031	24.329799	0.000375	3.748467	1.270015	0.000150
 138	1.3632e+01	5.4464	24.483210	0.000385	3.849777	1.304340	0.000154
 139	1.3731e+01	5.4897	24.676992	0.000486	4.862876	1.647587	0.000195
 140	1.3831e+01	5.5314	24.894998	0.000547	5.470735	1.853535	0.000219
 141	1.3930e+01	5.5619	25.016112	0.000304	3.039297	1.029742	0.000122
 142	1.4030e+01	5.6004	25.197783	0.000456	4.558946	1.544613	0.000183
 143	1.4129e+01	5.6421	25.387528	0.000476	4.761566	1.613262	0.000191
 144	1.4229e+01	5.6902	25.557088	0.000426	4.255016	1.441639	0.000170
 145	1.4328e+01	5.7175	25.742796	0.000466	4.660256	1.578937	0.000187
 146	1.4428e+01	5.7656	25.924467	0.000456	4.558946	1.544613	0.000183
 147	1.4527e+01	5.8073	26.102101	0.000446	4.457636	1.510288	0.000179
 148	1.4627e+01	5.8394	26.291846	0.000476	4.761566	1.613262	0.000191
 149	1.4726e+01	5.8795	26.469480	0.000446	4.457636	1.510288	0.000179
 150	1.4825e+01	5.9276	26.647114	0.000446	4.457636	1.510288	0.000179
 151	1.4925e+01	5.9629	26.816674	0.000426	4.255016	1.441639	0.000170
 152	1.5024e+01	5.9966	26.966048	0.000375	3.748467	1.270015	0.000150
 153	1.5124e+01	6.0480	27.155794	0.000476	4.761566	1.613262	0.000191
 154	1.5223e+01	6.0800	27.333428	0.000446	4.457636	1.510288	0.000179
 155	1.5323e+01	6.1201	27.486839	0.000385	3.849777	1.304340	0.000154
 156	1.5422e+01	6.1651	27.680621	0.000486	4.862876	1.647587	0.000195
 157	1.5522e+01	6.1988	27.834032	0.000385	3.849777	1.304340	0.000154
 158	1.5621e+01	6.2421	28.060112	0.000567	5.673355	1.922185	0.000227
 159	1.5721e+01	6.2870	28.217560	0.000395	3.951087	1.338664	0.000158
 160	1.5820e+01	6.3303	28.379046	0.000405	4.052396	1.372989	0.000162
 161	1.5920e+01	6.3608	28.568791	0.000476	4.761566	1.613262	0.000191
 162	1.6020e+01	6.3945	28.762574	0.000486	4.862876	1.647587	0.000195
 163	1.6119e+01	6.4442	28.899836	0.000344	3.444537	1.167041	0.000138
 164	1.6218e+01	6.4779	29.069396	0.000426	4.255016	1.441639	0.000170
 165	1.6318e+01	6.5196	29.222807	0.000385	3.849777	1.304340	0.000154
 166	1.6418e+01	6.5533	29.376218	0.000385	3.849777	1.304340	0.000154
 167	1.6517e+01	6.5982	29.553852	0.000446	4.457636	1.510288	0.000179
 168	1.6616e+01	6.6415	29.767820	0.000537	5.369425	1.819211	0.000215
 169	1.6716e+01	6.6800	29.929306	0.000405	4.052396	1.372989	0.000162
 170	1.6816e+01	6.7233	30.094828	0.000415	4.153706	1.407314	0.000166
 171	1.6915e+01	6.7538	30.264388	0.000426	4.255016	1.441639	0.000170
 172	1.7015e+01	6.7971	30.413762	0.000375	3.748467	1.270015	0.000150
 173	1.7114e+01	6.8308	30.595433	0.000456	4.558946	1.544613	0.000183
 174	1.7213e+01	6.8790	30.769030	0.000436	4.356326	1.475963	0.000174
 175	1.7313e+01	6.9255	30.954738	0.000466	4.660256	1.578937	0.000187
 176	1.7413e+01	6.9624	31.104112	0.000375	3.748467	1.270015	0.000150
 177	1.7512e+01	6.9912	31.249449	0.000365	3.647157	1.235690	0.000146
 178	1.7611e+01	7.0410	31.431120	0.000456	4.558946	1.544613	0.000183
 179	1.7711e+01	7.0699	31.624903	0.000486	4.862876	1.647587	0.000195
 180	1.7811e+01	7.1180	31.750054	0.000314	3.140607	1.064067	0.000126
 181	1.7910e+01	7.1597	31.955948	0.000517	5.166805	1.750561	0.000207
 182	1.8009e+01	7.1982	32.113396	0.000395	3.951087	1.338664	0.000158
 183	1.8109e+01	7.2335	32.266807	0.000385	3.849777	1.304340	0.000154
 184	1.8209e+01	7.2784	32.464627	0.000496	4.964186	1.681912	0.000199
 185	1.8308e+01	7.3185	32.605927	0.000355	3.545847	1.201365	0.000142
 186	1.8407e+01	7.3538	32.823932	0.000547	5.470735	1.853535	0.000219
 187	1.8507e+01	7.4003	32.961195	0.000344	3.444537	1.167041	0.000138
 188	1.8607e+01	7.4372	33.098457	0.000344	3.444537	1.167041	0.000138
 189	1.8706e+01	7.4693	33.284166	0.000466	4.660256	1.578937	0.000187
 190	1.8805e+01	7.5158	33.441614	0.000395	3.951087	1.338664	0.000158
 191	1.8905e+01	7.5527	33.603099	0.000405	4.052396	1.372989	0.000162
 192	1.9005e+01	7.5896	33.788808	0.000466	4.660256	1.578937	0.000187
 193	1.9104e+01	7.6329	33.938182	0.000375	3.748467	1.270015	0.000150
 194	1.9203e+01	7.6779	34.111778	0.000436	4.356326	1.475963	0.000174
 195	1.9303e+01	7.7180	34.301524	0.000476	4.761566	1.613262	0.000191
 196	1.9402e+01	7.7581	34.402452	0.000253	2.532748	0.858118	0.000101
 197	1.9502e+01	7.7982	34.588160	0.000466	4.660256	1.578937	0.000187
 198	1.9602e+01	7.8335	34.745609	0.000395	3.951087	1.338664	0.000158
 199	1.9701e+01	7.8752	34.959577	0.000537	5.369425	1.819211	0.000215
 200	1.9800e+01	7.9185	35.088765	0.000324	3.241917	1.098391	0.000130
 201	1.9900e+01	7.9377	35.262362	0.000436	4.356326	1.475963	0.000174
 202	2.0000e+01	7.9939	35.435959	0.000436	4.356326	1.475963	0.000174
 203	2.0099e+01	8.0404	35.593407	0.000395	3.951087	1.338664	0.000158
 204	2.0198e+01	8.0709	35.698373	0.000263	2.634058	0.892443	0.000105
 205	2.0298e+01	8.1190	35.900230	0.000507	5.065496	1.716236	0.000203
 206	2.0398e+01	8.1559	36.053641	0.000385	3.849777	1.304340	0.000154
 207	2.0497e+01	8.1928	36.219163	0.000415	4.153706	1.407314	0.000166
 208	2.0596e+01	8.2313	36.360463	0.000355	3.545847	1.201365	0.000142
 209	2.0696e+01	8.2730	36.542134	0.000456	4.558946	1.544613	0.000183
 210	2.0796e+01	8.3099	36.687471	0.000365	3.647157	1.235690	0.000146
 211	2.0895e+01	8.3516	36.844919	0.000395	3.951087	1.338664	0.000158
 212	2.0994e+01	8.3933	37.034665	0.000476	4.761566	1.613262	0.000191
 213	2.1094e+01	8.4367	37.159816	0.000314	3.140607	1.064067	0.000126
 214	2.1194e+01	8.4752	37.345524	0.000466	4.660256	1.578937	0.000187
 215	2.1293e+01	8.5153	37.511047	0.000415	4.153706	1.407314	0.000166
 216	2.1392e+01	8.5522	37.656384	0.000365	3.647157	1.235690	0.000146
 217	2.1492e+01	8.5907	37.797683	0.000355	3.545847	1.201365	0.000142
 218	2.1591e+01	8.6260	37.983392	0.000466	4.660256	1.578937	0.000187
 219	2.1691e+01	8.6661	38.140840	0.000395	3.951087	1.338664	0.000158
 220	2.1791e+01	8.7110	38.282140	0.000355	3.545847	1.201365	0.000142
 221	2.1890e+01	8.7447	38.455736	0.000436	4.356326	1.475963	0.000174
 222	2.1989e+01	8.7912	38.629333	0.000436	4.356326	1.475963	0.000174
 223	2.2089e+01	8.8233	38.770633	0.000355	3.545847	1.201365	0.000142
 224	2.2189e+01	8.8746	38.928081	0.000395	3.951087	1.338664	0.000158
 225	2.2288e+01	8.9083	39.085530	0.000395	3.951087	1.338664	0.000158
 226	2.2387e+01	8.9500	39.271238	0.000466	4.660256	1.578937	0.000187
 227	2.2487e+01	8.9965	39.351981	0.000203	2.026198	0.686495	0.000081
 228	2.2587e+01	9.0270	39.541726	0.000476	4.761566	1.613262	0.000191
 229	2.2686e+01	9.0784	39.695137	0.000385	3.849777	1.304340	0.000154
 230	2.2785e+01	9.1120	39.848548	0.000385	3.849777	1.304340	0.000154
 231	2.2885e+01	9.1441	39.997922	0.000375	3.748467	1.270015	0.000150
 232	2.2985e+01	9.1939	40.163445	0.000415	4.153706	1.407314	0.000166
 233	2.3084e+01	9.2292	40.333005	0.000426	4.255016	1.441639	0.000170
 234	2.3183e+01	9.2693	40.478341	0.000365	3.647157	1.235690	0.000146
 235	2.3283e+01	9.3062	40.635790	0.000395	3.951087	1.338664	0.000158
 236	2.3383e+01	9.3527	40.777090	0.000355	3.545847	1.201365	0.000142
 237	2.3482e+01	9.3896	40.954723	0.000446	4.457636	1.510288	0.000179
 238	2.3581e+01	9.4345	41.091986	0.000344	3.444537	1.167041	0.000138
 239	2.3681e+01	9.4714	41.245397	0.000385	3.849777	1.304340	0.000154
 240	2.3780e+01	9.5019	41.402846	0.000395	3.951087	1.338664	0.000158
 241	2.3880e+01	9.5516	41.548182	0.000365	3.647157	1.235690	0.000146
 242	2.3980e+01	9.5949	41.697556	0.000375	3.748467	1.270015	0.000150
 243	2.4079e+01	9.6318	41.891339	0.000486	4.862876	1.647587	0.000195
 244	2.4178e+01	9.6623	42.028602	0.000344	3.444537	1.167041	0.000138
 245	2.4278e+01	9.7152	42.161827	0.000334	3.343227	1.132716	0.000134
 246	2.4378e+01	9.7457	42.311201	0.000375	3.748467	1.270015	0.000150
 247	2.4477e+01	9.7842	42.476724	0.000415	4.153706	1.407314	0.000166
 248	2.4576e+01	9.8227	42.650321	0.000436	4.356326	1.475963	0.000174
 249	2.4676e+01	9.8660	42.759323	0.000274	2.735368	0.926768	0.000110
 250	2.4776e+01	9.9110	42.949069	0.000476	4.761566	1.613262	0.000191
 251	2.4875e+01	9.9495	43.086331	0.000344	3.444537	1.167041	0.000138
 252	2.4974e+01	9.9896	43.251854	0.000415	4.153706	1.407314	0.000166
 253	2.5074e+01	10.0313	43.417376	0.000415	4.153706	1.407314	0.000166
 254	2.5174e+01	10.0730	43.546565	0.000324	3.241917	1.098391	0.000130
 255	2.5273e+01	10.1131	43.716124	0.000426	4.255016	1.441639	0.000170
 256	2.5372e+01	10.1468	43.861461	0.000365	3.647157	1.235690	0.000146
 257	2.5472e+01	10.1837	44.002761	0.000355	3.545847	1.201365	0.000142
 258	2.5572e+01	10.2334	44.160209	0.000395	3.951087	1.338664	0.000158
 259	2.5671e+01	10.2559	44.313620	0.000385	3.849777	1.304340	0.000154
 260	2.5770e+01	10.2976	44.503366	0.000476	4.761566	1.613262	0.000191
 261	2.5870e+01	10.3505	44.628517	0.000314	3.140607	1.064067	0.000126
 262	2.5970e+01	10.3762	44.765780	0.000344	3.444537	1.167041	0.000138
 263	2.6069e+01	10.4243	44.935339	0.000426	4.255016	1.441639	0.000170
 264	2.6169e+01	10.4724	45.056453	0.000304	3.039297	1.029742	0.000122
 265	2.6268e+01	10.5157	45.221976	0.000415	4.153706	1.407314	0.000166
 266	2.6367e+01	10.5462	45.391536	0.000426	4.255016	1.441639	0.000170
 267	2.6467e+01	10.5863	45.548984	0.000395	3.951087	1.338664	0.000158
 268	2.6567e+01	10.6313	45.698358	0.000375	3.748467	1.270015	0.000150
 269	2.6666e+01	10.6649	45.847732	0.000375	3.748467	1.270015	0.000150
 270	2.6765e+01	10.7099	45.989032	0.000355	3.545847	1.201365	0.000142
 271	2.6865e+01	10.7355	46.162629	0.000436	4.356326	1.475963	0.000174
 272	2.6965e+01	10.7837	46.320077	0.000395	3.951087	1.338664	0.000158
 273	2.7064e+01	10.8238	46.433117	0.000284	2.836678	0.961092	0.000114
 274	2.7163e+01	10.8639	46.618825	0.000466	4.660256	1.578937	0.000187
 275	2.7263e+01	10.8927	46.796459	0.000446	4.457636	1.510288	0.000179
 276	2.7363e+01	10.9409	46.897387	0.000253	2.532748	0.858118	0.000101
 277	2.7462e+01	10.9858	47.054836	0.000395	3.951087	1.338664	0.000158
 278	2.7561e+01	11.0227	47.224395	0.000426	4.255016	1.441639	0.000170
 279	2.7661e+01	11.0660	47.381844	0.000395	3.951087	1.338664	0.000158
 280	2.7761e+01	11.1061	47.523143	0.000355	3.545847	1.201365	0.000142
 281	2.7860e+01	11.1430	47.660406	0.000344	3.444537	1.167041	0.000138
 282	2.7959e+01	11.1863	47.813817	0.000385	3.849777	1.304340	0.000154
 283	2.8059e+01	11.2184	47.943005	0.000324	3.241917	1.098391	0.000130
 284	2.8159e+01	11.2617	48.112565	0.000426	4.255016	1.441639	0.000170
 285	2.8258e+01	11.3002	48.245791	0.000334	3.343227	1.132716	0.000134
 286	2.8358e+01	11.3435	48.415350	0.000426	4.255016	1.441639	0.000170
 287	2.8457e+01	11.3772	48.552613	0.000344	3.444537	1.167041	0.000138
 288	2.8556e+01	11.4205	48.722173	0.000426	4.255016	1.441639	0.000170
 289	2.8656e+01	11.4703	48.839250	0.000294	2.937987	0.995417	0.000118
 290	2.8756e+01	11.5007	49.012846	0.000436	4.356326	1.475963	0.000174
 291	2.8855e+01	11.5392	49.150109	0.000344	3.444537	1.167041	0.000138
 292	2.8954e+01	11.5826	49.295446	0.000365	3.647157	1.235690	0.000146
 293	2.9054e+01	11.6211	49.493266	0.000496	4.964186	1.681912	0.000199
 294	2.9154e+01	11.6612	49.557860	0.000162	1.620959	0.549196	0.000065
 295	2.9253e+01	11.6933	49.747605	0.000476	4.761566	1.613262	0.000191
 296	2.9352e+01	11.7430	49.876793	0.000324	3.241917	1.098391	0.000130
 297	2.9452e+01	11.7767	50.054427	0.000446	4.457636	1.510288	0.000179
 298	2.9552e+01	11.8216	50.171504	0.000294	2.937987	0.995417	0.000118
 299	2.9651e+01	11.8649	50.357213	0.000466	4.660256	1.578937	0.000187
 300	2.9750e+01	11.9098	50.466215	0.000274	2.735368	0.926768	0.000110
 301	2.9850e+01	11.9371	50.627701	0.000405	4.052396	1.372989	0.000162
 302	2.9950e+01	11.9836	50.817446	0.000476	4.761566	1.613262	0.000191
 303	3.0049e+01	12.0189	50.962783	0.000365	3.647157	1.235690	0.000146
 304	3.0148e+01	12.0590	51.047563	0.000213	2.127508	0.720819	0.000085
 305	3.0248e+01	12.1007	51.221160	0.000436	4.356326	1.475963	0.000174
 306	3.0348e+01	12.1440	51.390719	0.000426	4.255016	1.441639	0.000170
 307	3.0447e+01	12.1793	51.495685	0.000263	2.634058	0.892443	0.000105
 308	3.0547e+01	12.2194	51.689467	0.000486	4.862876	1.647587	0.000195
 309	3.0646e+01	12.2612	51.838841	0.000375	3.748467	1.270015	0.000150
 310	3.0745e+01	12.2948	51.963993	0.000314	3.140607	1.064067	0.000126
 311	3.0845e+01	12.3333	52.125478	0.000405	4.052396	1.372989	0.000162
 312	3.0945e+01	12.3767	52.266778	0.000355	3.545847	1.201365	0.000142
 313	3.1044e+01	12.4200	52.383855	0.000294	2.937987	0.995417	0.000118
 314	3.1143e+01	12.4569	52.561489	0.000446	4.457636	1.510288	0.000179
 315	3.1243e+01	12.4986	52.698751	0.000344	3.444537	1.167041	0.000138
 316	3.1343e+01	12.5403	52.864274	0.000415	4.153706	1.407314	0.000166
 317	3.1442e+01	12.5836	52.993462	0.000324	3.241917	1.098391	0.000130
 318	3.1541e+01	12.6221	53.094391	0.000253	2.532748	0.858118	0.000101
 319	3.1641e+01	12.6606	53.276062	0.000456	4.558946	1.544613	0.000183
 320	3.1741e+01	12.6959	53.441584	0.000415	4.153706	1.407314	0.000166
 321	3.1840e+01	12.7408	53.582884	0.000355	3.545847	1.201365	0.000142
 322	3.1939e+01	12.7809	53.720147	0.000344	3.444537	1.167041	0.000138
 323	3.2039e+01	12.8178	53.869521	0.000375	3.748467	1.270015	0.000150
 324	3.2139e+01	12.8676	53.998709	0.000324	3.241917	1.098391	0.000130
 325	3.2238e+01	12.9012	54.160194	0.000405	4.052396	1.372989	0.000162
 326	3.2337e+01	12.9301	54.293420	0.000334	3.343227	1.132716	0.000134
 327	3.2437e+01	12.9750	54.442794	0.000375	3.748467	1.270015	0.000150
 328	3.2536e+01	13.0103	54.523537	0.000203	2.026198	0.686495	0.000081
 329	3.2636e+01	13.0504	54.729431	0.000517	5.166805	1.750561	0.000207
 330	3.2736e+01	13.0889	54.858619	0.000324	3.241917	1.098391	0.000130
 331	3.2835e+01	13.1322	55.024142	0.000415	4.153706	1.407314	0.000166
 332	3.2934e+01	13.1724	55.145256	0.000304	3.039297	1.029742	0.000122
 333	3.3034e+01	13.2141	55.294630	0.000375	3.748467	1.270015	0.000150
 334	3.3133e+01	13.2558	55.431892	0.000344	3.444537	1.167041	0.000138
 335	3.3233e+01	13.2879	55.561081	0.000324	3.241917	1.098391	0.000130
 336	3.3333e+01	13.3344	55.726603	0.000415	4.153706	1.407314	0.000166
 337	3.3432e+01	13.3697	55.855792	0.000324	3.241917	1.098391	0.000130
 338	3.3532e+01	13.4146	56.037463	0.000456	4.558946	1.544613	0.000183
 339	3.3631e+01	13.4499	56.158577	0.000304	3.039297	1.029742	0.000122
 340	3.3730e+01	13.4996	56.283728	0.000314	3.140607	1.064067	0.000126
 341	3.3830e+01	13.5285	56.416953	0.000334	3.343227	1.132716	0.000134
 342	3.3929e+01	13.5734	56.582476	0.000415	4.153706	1.407314	0.000166
 343	3.4029e+01	13.6167	56.691479	0.000274	2.735368	0.926768	0.000110
 344	3.4129e+01	13.6440	56.828741	0.000344	3.444537	1.167041	0.000138
 345	3.4228e+01	13.6873	56.998301	0.000426	4.255016	1.441639	0.000170
 346	3.4328e+01	13.7290	57.099229	0.000253	2.532748	0.858118	0.000101
 347	3.4427e+01	13.7788	57.248603	0.000375	3.748467	1.270015	0.000150
 348	3.4526e+01	13.8092	57.389903	0.000355	3.545847	1.201365	0.000142
 349	3.4626e+01	13.8542	57.527166	0.000344	3.444537	1.167041	0.000138
 350	3.4725e+01	13.8911	57.700763	0.000436	4.356326	1.475963	0.000174
 351	3.4825e+01	13.9328	57.793617	0.000233	2.330128	0.789469	0.000093
 352	3.4925e+01	13.9665	57.926842	0.000334	3.343227	1.132716	0.000134
 353	3.5024e+01	14.0146	58.108513	0.000456	4.558946	1.544613	0.000183
 354	3.5123e+01	14.0531	58.185219	0.000192	1.924888	0.652170	0.000077
 355	3.5223e+01	14.0868	58.366890	0.000456	4.558946	1.544613	0.000183
 356	3.5322e+01	14.1381	58.479930	0.000284	2.836678	0.961092	0.000114
 357	3.5422e+01	14.1718	58.613155	0.000334	3.343227	1.132716	0.000134
 358	3.5522e+01	14.2135	58.742344	0.000324	3.241917	1.098391	0.000130
 359	3.5621e+01	14.2440	58.911903	0.000426	4.255016	1.441639	0.000170
 360	3.5721e+01	14.2873	59.000720	0.000223	2.228818	0.755144	0.000089
 361	3.5820e+01	14.3322	59.117797	0.000294	2.937987	0.995417	0.000118
 362	3.5919e+01	14.3627	59.279283	0.000405	4.052396	1.372989	0.000162
 363	3.6019e+01	14.4156	59.412508	0.000334	3.343227	1.132716	0.000134
 364	3.6118e+01	14.4493	59.557845	0.000365	3.647157	1.235690	0.000146
 365	3.6218e+01	14.4862	59.678959	0.000304	3.039297	1.029742	0.000122
 366	3.6318e+01	14.5343	59.848519	0.000426	4.255016	1.441639	0.000170
 367	3.6417e+01	14.5664	59.969633	0.000304	3.039297	1.029742	0.000122
 368	3.6517e+01	14.6001	60.102858	0.000334	3.343227	1.132716	0.000134
 369	3.6616e+01	14.6466	60.219935	0.000294	2.937987	0.995417	0.000118
 370	3.6715e+01	14.6835	60.373346	0.000385	3.849777	1.304340	0.000154
 371	3.6815e+01	14.7253	60.530795	0.000395	3.951087	1.338664	0.000158
 372	3.6914e+01	14.7750	60.635760	0.000263	2.634058	0.892443	0.000105
 373	3.7014e+01	14.8023	60.760911	0.000314	3.140607	1.064067	0.000126
 374	3.7114e+01	14.8504	60.922397	0.000405	4.052396	1.372989	0.000162
 375	3.7213e+01	14.8809	61.043511	0.000304	3.039297	1.029742	0.000122
 376	3.7313e+01	14.9274	61.160588	0.000294	2.937987	0.995417	0.000118
 377	3.7412e+01	14.9675	61.301888	0.000355	3.545847	1.201365	0.000142
 378	3.7511e+01	15.0028	61.414927	0.000284	2.836678	0.961092	0.000114
 379	3.7611e+01	15.0477	61.552190	0.000344	3.444537	1.167041	0.000138
 380	3.7711e+01	15.0846	61.693490	0.000355	3.545847	1.201365	0.000142
 381	3.7810e+01	15.1311	61.782307	0.000223	2.228818	0.755144	0.000089
 382	3.7910e+01	15.1760	61.935718	0.000385	3.849777	1.304340	0.000154
 383	3.8009e+01	15.2001	62.052795	0.000294	2.937987	0.995417	0.000118
 384	3.8108e+01	15.2482	62.186020	0.000334	3.343227	1.132716	0.000134
 385	3.8208e+01	15.2723	62.303097	0.000294	2.937987	0.995417	0.000118
 386	3.8307e+01	15.3204	62.456508	0.000385	3.849777	1.304340	0.000154
 387	3.8407e+01	15.3686	62.597808	0.000355	3.545847	1.201365	0.000142
 388	3.8507e+01	15.3990	62.698737	0.000253	2.532748	0.858118	0.000101
 389	3.8606e+01	15.4456	62.860222	0.000405	4.052396	1.372989	0.000162
 390	3.8706e+01	15.4825	62.973262	0.000284	2.836678	0.961092	0.000114
 391	3.8805e+01	15.5258	63.122636	0.000375	3.748467	1.270015	0.000150
 392	3.8904e+01	15.5675	63.247787	0.000314	3.140607	1.064067	0.000126
 393	3.9004e+01	15.6044	63.340641	0.000233	2.330128	0.789469	0.000093
 394	3.9103e+01	15.6493	63.518275	0.000446	4.457636	1.510288	0.000179
 395	3.9203e+01	15.6862	63.631315	0.000284	2.836678	0.961092	0.000114
 396	3.9303e+01	15.7311	63.732243	0.000253	2.532748	0.858118	0.000101
 397	3.9402e+01	15.7680	63.897766	0.000415	4.153706	1.407314	0.000166
 398	3.9502e+01	15.8129	64.022917	0.000314	3.140607	1.064067	0.000126
 399	3.9601e+01	15.8402	64.111734	0.000223	2.228818	0.755144	0.000089
 400	3.9700e+01	15.8755	64.236885	0.000314	3.140607	1.064067	0.000126
 401	3.9800e+01	15.9252	64.386259	0.000375	3.748467	1.270015	0.000150
 402	3.9900e+01	15.9589	64.519485	0.000334	3.343227	1.132716	0.000134
 403	3.9999e+01	16.0054	64.588116	0.000172	1.722268	0.583520	0.000069
 404	4.0099e+01	16.0359	64.737490	0.000375	3.748467	1.270015	0.000150
 405	4.0198e+01	16.0856	64.850530	0.000284	2.836678	0.961092	0.000114
 406	4.0297e+01	16.1274	64.987793	0.000344	3.444537	1.167041	0.000138
 407	4.0397e+01	16.1626	65.104869	0.000294	2.937987	0.995417	0.000118
 408	4.0496e+01	16.2028	65.209835	0.000263	2.634058	0.892443	0.000105
 409	4.0596e+01	16.2429	65.391506	0.000456	4.558946	1.544613	0.000183
 410	4.0696e+01	16.2749	65.536843	0.000365	3.647157	1.235690	0.000146
 411	4.0795e+01	16.3279	65.617586	0.000203	2.026198	0.686495	0.000081
 412	4.0895e+01	16.3632	65.754848	0.000344	3.444537	1.167041	0.000138
 413	4.0994e+01	16.4049	65.928445	0.000436	4.356326	1.475963	0.000174
 414	4.1093e+01	16.4402	66.013225	0.000213	2.127508	0.720819	0.000085
 415	4.1193e+01	16.4787	66.170673	0.000395	3.951087	1.338664	0.000158
 416	4.1292e+01	16.5284	66.247379	0.000192	1.924888	0.652170	0.000077
 417	4.1392e+01	16.5589	66.388679	0.000355	3.545847	1.201365	0.000142
 418	4.1492e+01	16.5958	66.525941	0.000344	3.444537	1.167041	0.000138
 419	4.1591e+01	16.6311	66.614758	0.000223	2.228818	0.755144	0.000089
 420	4.1691e+01	16.6792	66.747984	0.000334	3.343227	1.132716	0.000134
 421	4.1790e+01	16.7273	66.869098	0.000304	3.039297	1.029742	0.000122
 422	4.1889e+01	16.7658	67.042695	0.000436	4.356326	1.475963	0.000174
 423	4.1989e+01	16.7931	67.143623	0.000253	2.532748	0.858118	0.000101
 424	4.2089e+01	16.8300	67.309146	0.000415	4.153706	1.407314	0.000166
 425	4.2188e+01	16.8829	67.381814	0.000182	1.823578	0.617845	0.000073
 426	4.2288e+01	16.9166	67.490817	0.000274	2.735368	0.926768	0.000110
 427	4.2387e+01	16.9583	67.660376	0.000426	4.255016	1.441639	0.000170
 428	4.2486e+01	17.0017	67.805713	0.000365	3.647157	1.235690	0.000146
 429	4.2586e+01	17.0466	67.926827	0.000304	3.039297	1.029742	0.000122
 430	4.2685e+01	17.0787	68.027756	0.000253	2.532748	0.858118	0.000101
 431	4.2785e+01	17.1156	68.152907	0.000314	3.140607	1.064067	0.000126
 432	4.2885e+01	17.1637	68.261910	0.000274	2.735368	0.926768	0.000110
 433	4.2984e+01	17.1974	68.378987	0.000294	2.937987	0.995417	0.000118
 434	4.3084e+01	17.2311	68.516249	0.000344	3.444537	1.167041	0.000138
 435	4.3183e+01	17.2824	68.645438	0.000324	3.241917	1.098391	0.000130
 436	4.3282e+01	17.3161	68.794812	0.000375	3.748467	1.270015	0.000150
 437	4.3382e+01	17.3514	68.891703	0.000243	2.431438	0.823793	0.000097
 438	4.3481e+01	17.3963	69.045114	0.000385	3.849777	1.304340	0.000154
 439	4.3581e+01	17.4460	69.178339	0.000334	3.343227	1.132716	0.000134
 440	4.3681e+01	17.4733	69.307528	0.000324	3.241917	1.098391	0.000130
 441	4.3780e+01	17.5166	69.416530	0.000274	2.735368	0.926768	0.000110
 442	4.3880e+01	17.5487	69.537645	0.000304	3.039297	1.029742	0.000122
 443	4.3979e+01	17.6000	69.662796	0.000314	3.140607	1.064067	0.000126
 444	4.4078e+01	17.6369	69.767761	0.000263	2.634058	0.892443	0.000105
 445	4.4178e+01	17.6851	69.921172	0.000385	3.849777	1.304340	0.000154
 446	4.4278e+01	17.7188	70.038249	0.000294	2.937987	0.995417	0.000118
 447	4.4377e+01	17.7589	70.139178	0.000253	2.532748	0.858118	0.000101
 448	4.4477e+01	17.7925	70.264329	0.000314	3.140607	1.064067	0.000126
 449	4.4576e+01	17.8439	70.417740	0.000385	3.849777	1.304340	0.000154
 450	4.4675e+01	17.8792	70.550966	0.000334	3.343227	1.132716	0.000134
 451	4.4775e+01	17.9129	70.676117	0.000314	3.140607	1.064067	0.000126
 452	4.4874e+01	17.9514	70.764934	0.000223	2.228818	0.755144	0.000089
 453	4.4974e+01	18.0011	70.922382	0.000395	3.951087	1.338664	0.000158
 454	4.5074e+01	18.0380	71.019273	0.000243	2.431438	0.823793	0.000097
 455	4.5173e+01	18.0685	71.116165	0.000243	2.431438	0.823793	0.000097
 456	4.5273e+01	18.1198	71.241316	0.000314	3.140607	1.064067	0.000126
 457	4.5372e+01	18.1471	71.394727	0.000385	3.849777	1.304340	0.000154
 458	4.5471e+01	18.2048	71.523915	0.000324	3.241917	1.098391	0.000130
 459	4.5571e+01	18.2353	71.632918	0.000274	2.735368	0.926768	0.000110
 460	4.5670e+01	18.2722	71.749995	0.000294	2.937987	0.995417	0.000118
 461	4.5770e+01	18.3155	71.915517	0.000415	4.153706	1.407314	0.000166
 462	4.5870e+01	18.3508	71.984149	0.000172	1.722268	0.583520	0.000069
 463	4.5969e+01	18.3957	72.149671	0.000415	4.153706	1.407314	0.000166
 464	4.6069e+01	18.4358	72.270785	0.000304	3.039297	1.029742	0.000122
 465	4.6168e+01	18.4711	72.363640	0.000233	2.330128	0.789469	0.000093
 466	4.6267e+01	18.5080	72.500902	0.000344	3.444537	1.167041	0.000138
 467	4.6367e+01	18.5481	72.630090	0.000324	3.241917	1.098391	0.000130
 468	4.6467e+01	18.5834	72.747167	0.000294	2.937987	0.995417	0.000118
 469	4.6566e+01	18.6348	72.856170	0.000274	2.735368	0.926768	0.000110
 470	4.6666e+01	18.6749	73.009581	0.000385	3.849777	1.304340	0.000154
 471	4.6765e+01	18.7166	73.102435	0.000233	2.330128	0.789469	0.000093
 472	4.6864e+01	18.7439	73.247772	0.000365	3.647157	1.235690	0.000146
 473	4.6964e+01	18.7872	73.364849	0.000294	2.937987	0.995417	0.000118
 474	4.7063e+01	18.8369	73.477889	0.000284	2.836678	0.961092	0.000114
 475	4.7163e+01	18.8706	73.599003	0.000304	3.039297	1.029742	0.000122
 476	4.7263e+01	18.9155	73.752414	0.000385	3.849777	1.304340	0.000154
 477	4.7362e+01	18.9476	73.841231	0.000223	2.228818	0.755144	0.000089
 478	4.7462e+01	18.9941	73.994642	0.000385	3.849777	1.304340	0.000154
 479	4.7561e+01	19.0230	74.091534	0.000243	2.431438	0.823793	0.000097
 480	4.7660e+01	19.0599	74.220722	0.000324	3.241917	1.098391	0.000130
 481	4.7760e+01	19.1064	74.341836	0.000304	3.039297	1.029742	0.000122
 482	4.7859e+01	19.1642	74.491210	0.000375	3.748467	1.270015	0.000150
 483	4.7959e+01	19.1818	74.584064	0.000233	2.330128	0.789469	0.000093
 484	4.8059e+01	19.2331	74.697104	0.000284	2.836678	0.961092	0.000114
 485	4.8158e+01	19.2684	74.818218	0.000304	3.039297	1.029742	0.000122
 486	4.8258e+01	19.3085	74.963555	0.000365	3.647157	1.235690	0.000146
 487	4.8357e+01	19.3406	75.096780	0.000334	3.343227	1.132716	0.000134
 488	4.8456e+01	19.3888	75.189635	0.000233	2.330128	0.789469	0.000093
 489	4.8556e+01	19.4305	75.314786	0.000314	3.140607	1.064067	0.000126
 490	4.8656e+01	19.4658	75.439937	0.000314	3.140607	1.064067	0.000126
 491	4.8755e+01	19.5139	75.561051	0.000304	3.039297	1.029742	0.000122
 492	4.8855e+01	19.5460	75.674091	0.000284	2.836678	0.961092	0.000114
 493	4.8954e+01	19.6021	75.779056	0.000263	2.634058	0.892443	0.000105
 494	4.9053e+01	19.6262	75.908245	0.000324	3.241917	1.098391	0.000130
 495	4.9153e+01	19.6599	76.045507	0.000344	3.444537	1.167041	0.000138
 496	4.9252e+01	19.7096	76.178733	0.000334	3.343227	1.132716	0.000134
 497	4.9352e+01	19.7593	76.324070	0.000365	3.647157	1.235690	0.000146
 498	4.9452e+01	19.7914	76.400775	0.000192	1.924888	0.652170	0.000077
 499	4.9551e+01	19.8267	76.525926	0.000314	3.140607	1.064067	0.000126
 500	4.9651e+01	19.8668	76.630892	0.000263	2.634058	0.892443	0.000105
 501	4.9750e+01	19.9037	76.764117	0.000334	3.343227	1.132716	0.000134
 502	4.9849e+01	19.9438	76.865046	0.000253	2.532748	0.858118	0.000101
 503	4.9949e+01	19.9839	76.998271	0.000334	3.343227	1.132716	0.000134
 504	5.0048e+01	19.9438	76.909454	0.000223	2.228818	0.755144	-0.000089
 505	5.0148e+01	19.9117	76.856972	0.000132	1.317029	0.446221	-0.000053
 506	5.0248e+01	19.8620	76.699523	0.000395	3.951087	1.338664	-0.000158
 507	5.0347e+01	19.8251	76.671263	0.000071	0.709169	0.240273	-0.000028
 508	5.0447e+01	19.7786	76.594558	0.000192	1.924888	0.652170	-0.000077
 509	5.0546e+01	19.7481	76.509778	0.000213	2.127508	0.720819	-0.000085
 510	5.0645e+01	19.7192	76.412887	0.000243	2.431438	0.823793	-0.000097
 511	5.0745e+01	19.6727	76.336181	0.000192	1.924888	0.652170	-0.000077
 512	5.0844e+01	19.6230	76.243327	0.000233	2.330128	0.789469	-0.000093
 513	5.0944e+01	19.5829	76.154510	0.000223	2.228818	0.755144	-0.000089
 514	5.1044e+01	19.5412	76.102027	0.000132	1.317029	0.446221	-0.000053
 515	5.1143e+01	19.5059	75.988987	0.000284	2.836678	0.961092	-0.000114
 516	5.1242e+01	19.4626	75.924393	0.000162	1.620959	0.549196	-0.000065
 517	5.1342e+01	19.4273	75.779056	0.000365	3.647157	1.235690	-0.000146
 518	5.1441e+01	19.3791	75.718499	0.000152	1.519649	0.514871	-0.000061
 519	5.1541e+01	19.3470	75.629682	0.000223	2.228818	0.755144	-0.000089
 520	5.1641e+01	19.3134	75.536828	0.000233	2.330128	0.789469	-0.000093
 521	5.1740e+01	19.2636	75.435900	0.000253	2.532748	0.858118	-0.000101
 522	5.1840e+01	19.2331	75.334971	0.000253	2.532748	0.858118	-0.000101
 523	5.1939e+01	19.1962	75.266340	0.000172	1.722268	0.583520	-0.000069
 524	5.2038e+01	19.1577	75.145226	0.000304	3.039297	1.029742	-0.000122
 525	5.2138e+01	19.1225	75.064483	0.000203	2.026198	0.686495	-0.000081
 526	5.2237e+01	19.0695	74.975666	0.000223	2.228818	0.755144	-0.000089
 527	5.2337e+01	19.0406	74.882812	0.000233	2.330128	0.789469	-0.000093
 528	5.2437e+01	18.9941	74.773810	0.000274	2.735368	0.926768	-0.000110
 529	5.2536e+01	18.9540	74.668844	0.000263	2.634058	0.892443	-0.000105
 530	5.2636e+01	18.9187	74.600213	0.000172	1.722268	0.583520	-0.000069
 531	5.2735e+01	18.8770	74.446802	0.000385	3.849777	1.304340	-0.000154
 532	5.2834e+01	18.8337	74.406430	0.000101	1.013099	0.343247	-0.000041
 533	5.2934e+01	18.7984	74.317613	0.000223	2.228818	0.755144	-0.000089
 534	5.3033e+01	18.7567	74.212648	0.000263	2.634058	0.892443	-0.000105
 535	5.3133e+01	18.7102	74.119794	0.000233	2.330128	0.789469	-0.000093
 536	5.3233e+01	18.6749	74.010791	0.000274	2.735368	0.926768	-0.000110
 537	5.3332e+01	18.6396	73.901788	0.000274	2.735368	0.926768	-0.000110
 538	5.3431e+01	18.5931	73.817008	0.000213	2.127508	0.720819	-0.000085
 539	5.3531e+01	18.5497	73.728191	0.000223	2.228818	0.755144	-0.000089
 540	5.3630e+01	18.5209	73.599003	0.000324	3.241917	1.098391	-0.000130
 541	5.3730e+01	18.4743	73.510186	0.000223	2.228818	0.755144	-0.000089
 542	5.3830e+01	18.4294	73.429443	0.000203	2.026198	0.686495	-0.000081
 543	5.3929e+01	18.3925	73.340626	0.000223	2.228818	0.755144	-0.000089
 544	5.4029e+01	18.3588	73.239698	0.000253	2.532748	0.858118	-0.000101
 545	5.4128e+01	18.3139	73.142807	0.000243	2.431438	0.823793	-0.000097
 546	5.4227e+01	18.2802	73.001507	0.000355	3.545847	1.201365	-0.000142
 547	5.4327e+01	18.2305	72.920764	0.000203	2.026198	0.686495	-0.000081
 548	5.4426e+01	18.1872	72.811762	0.000274	2.735368	0.926768	-0.000110
 549	5.4526e+01	18.1487	72.702759	0.000274	2.735368	0.926768	-0.000110
 550	5.4626e+01	18.1150	72.569533	0.000334	3.343227	1.132716	-0.000134
 551	5.4725e+01	18.0733	72.480716	0.000223	2.228818	0.755144	-0.000089
 552	5.4825e+01	18.0316	72.387862	0.000233	2.330128	0.789469	-0.000093
 553	5.4924e+01	17.9963	72.290971	0.000243	2.431438	0.823793	-0.000097
 554	5.5023e+01	17.9514	72.206191	0.000213	2.127508	0.720819	-0.000085
 555	5.5123e+01	17.9145	72.113337	0.000233	2.330128	0.789469	-0.000093
 556	5.5222e+01	17.8792	71.968000	0.000365	3.647157	1.235690	-0.000146
 557	5.5322e+01	17.8359	71.891295	0.000192	1.924888	0.652170	-0.000077
 558	5.5422e+01	17.7958	71.806515	0.000213	2.127508	0.720819	-0.000085
 559	5.5521e+01	17.7460	71.649067	0.000395	3.951087	1.338664	-0.000158
 560	5.5620e+01	17.7123	71.568324	0.000203	2.026198	0.686495	-0.000081
 561	5.5720e+01	17.6819	71.479507	0.000223	2.228818	0.755144	-0.000089
 562	5.5819e+01	17.6482	71.354356	0.000314	3.140607	1.064067	-0.000126
 563	5.5919e+01	17.6000	71.269576	0.000213	2.127508	0.720819	-0.000085
 564	5.6019e+01	17.5551	71.136350	0.000334	3.343227	1.132716	-0.000134
 565	5.6118e+01	17.5230	71.043496	0.000233	2.330128	0.789469	-0.000093
 566	5.6218e+01	17.4797	70.930456	0.000284	2.836678	0.961092	-0.000114
 567	5.6317e+01	17.4364	70.869899	0.000152	1.519649	0.514871	-0.000061
 568	5.6416e+01	17.3915	70.692265	0.000446	4.457636	1.510288	-0.000179
 569	5.6516e+01	17.3610	70.627671	0.000162	1.620959	0.549196	-0.000065
 570	5.6615e+01	17.3241	70.498483	0.000324	3.241917	1.098391	-0.000130
 571	5.6715e+01	17.2760	70.413703	0.000213	2.127508	0.720819	-0.000085
 572	5.6815e+01	17.2375	70.236069	0.000446	4.457636	1.510288	-0.000179
 573	5.6914e+01	17.1990	70.187623	0.000122	1.215719	0.411897	-0.000049
 574	5.7014e+01	17.1557	70.074584	0.000284	2.836678	0.961092	-0.000114
 575	5.7113e+01	17.1140	69.937321	0.000344	3.444537	1.167041	-0.000138
 576	5.7212e+01	17.0803	69.856578	0.000203	2.026198	0.686495	-0.000081
 577	5.7312e+01	17.0353	69.759687	0.000243	2.431438	0.823793	-0.000097
 578	5.7411e+01	17.0017	69.630499	0.000324	3.241917	1.098391	-0.000130
 579	5.7511e+01	16.9567	69.521496	0.000274	2.735368	0.926768	-0.000110
 580	5.7611e+01	16.9295	69.436716	0.000213	2.127508	0.720819	-0.000085
 581	5.7710e+01	16.8797	69.303491	0.000334	3.343227	1.132716	-0.000134
 582	5.7809e+01	16.8428	69.218711	0.000213	2.127508	0.720819	-0.000085
 583	5.7909e+01	16.7931	69.069337	0.000375	3.748467	1.270015	-0.000150
 584	5.8008e+01	16.7594	69.016854	0.000132	1.317029	0.446221	-0.000053
 585	5.8108e+01	16.7129	68.883629	0.000334	3.343227	1.132716	-0.000134
 586	5.8208e+01	16.6776	68.762514	0.000304	3.039297	1.029742	-0.000122
 587	5.8307e+01	16.6391	68.645438	0.000294	2.937987	0.995417	-0.000118
 588	5.8407e+01	16.5958	68.588918	0.000142	1.418339	0.480546	-0.000057
 589	5.8506e+01	16.5637	68.423395	0.000415	4.153706	1.407314	-0.000166
 590	5.8605e+01	16.5172	68.350727	0.000182	1.823578	0.617845	-0.000073
 591	5.8705e+01	16.4771	68.261910	0.000223	2.228818	0.755144	-0.000089
 592	5.8804e+01	16.4514	68.128684	0.000334	3.343227	1.132716	-0.000134
 593	5.8904e+01	16.4017	68.043904	0.000213	2.127508	0.720819	-0.000085
 594	5.9004e+01	16.3632	67.874345	0.000426	4.255016	1.441639	-0.000170
 595	5.9103e+01	16.3279	67.797639	0.000192	1.924888	0.652170	-0.000077
 596	5.9203e+01	16.2798	67.660376	0.000344	3.444537	1.167041	-0.000138
 597	5.9302e+01	16.2413	67.535225	0.000314	3.140607	1.064067	-0.000126
 598	5.9401e+01	16.2028	67.466594	0.000172	1.722268	0.583520	-0.000069
 599	5.9501e+01	16.1514	67.333368	0.000334	3.343227	1.132716	-0.000134
 600	5.9600e+01	16.1241	67.264737	0.000172	1.722268	0.583520	-0.000069
 601	5.9700e+01	16.0872	67.131512	0.000334	3.343227	1.132716	-0.000134
 602	5.9800e+01	16.0375	67.006360	0.000314	3.140607	1.064067	-0.000126
 603	5.9899e+01	16.0135	66.909469	0.000243	2.431438	0.823793	-0.000097
 604	5.9998e+01	15.9653	66.824689	0.000213	2.127508	0.720819	-0.000085
 605	6.0098e+01	15.9316	66.675315	0.000375	3.748467	1.270015	-0.000150
 606	6.0197e+01	15.8771	66.570350	0.000263	2.634058	0.892443	-0.000105
 607	6.0297e+01	15.8466	66.489607	0.000203	2.026198	0.686495	-0.000081
 608	6.0397e+01	15.8033	66.392716	0.000243	2.431438	0.823793	-0.000097
 609	6.0496e+01	15.7744	66.279676	0.000284	2.836678	0.961092	-0.000114
 610	6.0596e+01	15.7167	66.166636	0.000284	2.836678	0.961092	-0.000114
 611	6.0695e+01	15.6798	66.033411	0.000334	3.343227	1.132716	-0.000134
 612	6.0794e+01	15.6477	65.928445	0.000263	2.634058	0.892443	-0.000105
 613	6.0894e+01	15.6028	65.803294	0.000314	3.140607	1.064067	-0.000126
 614	6.0993e+01	15.5691	65.726588	0.000192	1.924888	0.652170	-0.000077
 615	6.1093e+01	15.5226	65.589326	0.000344	3.444537	1.167041	-0.000138
 616	6.1193e+01	15.4825	65.476286	0.000284	2.836678	0.961092	-0.000114
 617	6.1292e+01	15.4439	65.387469	0.000223	2.228818	0.755144	-0.000089
 618	6.1392e+01	15.3958	65.278466	0.000274	2.735368	0.926768	-0.000110
 619	6.1491e+01	15.3669	65.169464	0.000274	2.735368	0.926768	-0.000110
 620	6.1590e+01	15.3284	65.048350	0.000304	3.039297	1.029742	-0.000122
 621	6.1690e+01	15.2932	64.903013	0.000365	3.647157	1.235690	-0.000146
 622	6.1789e+01	15.2482	64.806121	0.000243	2.431438	0.823793	-0.000097
 623	6.1889e+01	15.1985	64.660785	0.000365	3.647157	1.235690	-0.000146
 624	6.1989e+01	15.1744	64.563893	0.000243	2.431438	0.823793	-0.000097
 625	6.2088e+01	15.1247	64.471039	0.000233	2.330128	0.789469	-0.000093
 626	6.2188e+01	15.0894	64.370111	0.000253	2.532748	0.858118	-0.000101
 627	6.2287e+01	15.0429	64.253034	0.000294	2.937987	0.995417	-0.000118
 628	6.2386e+01	15.0092	64.144031	0.000274	2.735368	0.926768	-0.000110
 629	6.2486e+01	14.9627	64.022917	0.000304	3.039297	1.029742	-0.000122
 630	6.2586e+01	14.9306	63.917952	0.000263	2.634058	0.892443	-0.000105
 631	6.2685e+01	14.8841	63.817023	0.000253	2.532748	0.858118	-0.000101
 632	6.2785e+01	14.8552	63.683798	0.000334	3.343227	1.132716	-0.000134
 633	6.2884e+01	14.8135	63.582869	0.000253	2.532748	0.858118	-0.000101
 634	6.2983e+01	14.7734	63.425421	0.000395	3.951087	1.338664	-0.000158
 635	6.3083e+01	14.7236	63.320455	0.000263	2.634058	0.892443	-0.000105
 636	6.3182e+01	14.6916	63.231638	0.000223	2.228818	0.755144	-0.000089
 637	6.3282e+01	14.6450	63.126673	0.000263	2.634058	0.892443	-0.000105
 638	6.3382e+01	14.6081	63.037856	0.000223	2.228818	0.755144	-0.000089
 639	6.3481e+01	14.5664	62.908668	0.000324	3.241917	1.098391	-0.000130
 640	6.3581e+01	14.5279	62.783516	0.000314	3.140607	1.064067	-0.000126
 641	6.3680e+01	14.4942	62.646254	0.000344	3.444537	1.167041	-0.000138
 642	6.3779e+01	14.4509	62.565511	0.000203	2.026198	0.686495	-0.000081
 643	6.3879e+01	14.4028	62.460546	0.000263	2.634058	0.892443	-0.000105
 644	6.3978e+01	14.3803	62.323283	0.000344	3.444537	1.167041	-0.000138
 645	6.4078e+01	14.3354	62.181983	0.000355	3.545847	1.201365	-0.000142
 646	6.4177e+01	14.2905	62.145649	0.000091	0.911789	0.308923	-0.000037
 647	6.4277e+01	14.2504	61.976089	0.000426	4.255016	1.441639	-0.000170
 648	6.4376e+01	14.2071	61.838827	0.000344	3.444537	1.167041	-0.000138
 649	6.4476e+01	14.1750	61.750010	0.000223	2.228818	0.755144	-0.000089
 650	6.4576e+01	14.1349	61.616784	0.000334	3.343227	1.132716	-0.000134
 651	6.4675e+01	14.0884	61.519893	0.000243	2.431438	0.823793	-0.000097
 652	6.4775e+01	14.0386	61.394742	0.000314	3.140607	1.064067	-0.000126
 653	6.4874e+01	14.0130	61.277665	0.000294	2.937987	0.995417	-0.000118
 654	6.4974e+01	13.9713	61.192885	0.000213	2.127508	0.720819	-0.000085
 655	6.5073e+01	13.9263	61.047548	0.000365	3.647157	1.235690	-0.000146
 656	6.5172e+01	13.8878	60.938545	0.000274	2.735368	0.926768	-0.000110
 657	6.5272e+01	13.8558	60.841654	0.000243	2.431438	0.823793	-0.000097
 658	6.5371e+01	13.8076	60.724577	0.000294	2.937987	0.995417	-0.000118
 659	6.5471e+01	13.7755	60.571166	0.000385	3.849777	1.304340	-0.000154
 660	6.5570e+01	13.7306	60.478312	0.000233	2.330128	0.789469	-0.000093
 661	6.5670e+01	13.6841	60.345086	0.000334	3.343227	1.132716	-0.000134
 662	6.5769e+01	13.6536	60.256269	0.000223	2.228818	0.755144	-0.000089
 663	6.5869e+01	13.6151	60.123044	0.000334	3.343227	1.132716	-0.000134
 664	6.5969e+01	13.5734	59.989818	0.000334	3.343227	1.132716	-0.000134
 665	6.6068e+01	13.5285	59.901002	0.000223	2.228818	0.755144	-0.000089
 666	6.6168e+01	13.4900	59.759702	0.000355	3.545847	1.201365	-0.000142
 667	6.6267e+01	13.4547	59.642625	0.000294	2.937987	0.995417	-0.000118
 668	6.6367e+01	13.4130	59.529585	0.000284	2.836678	0.961092	-0.000114
 669	6.6466e+01	13.3681	59.392322	0.000344	3.444537	1.167041	-0.000138
 670	6.6566e+01	13.3280	59.291394	0.000253	2.532748	0.858118	-0.000101
 671	6.6665e+01	13.2927	59.182391	0.000274	2.735368	0.926768	-0.000110
 672	6.6764e+01	13.2510	59.057240	0.000314	3.140607	1.064067	-0.000126
 673	6.6864e+01	13.2269	58.944200	0.000284	2.836678	0.961092	-0.000114
 674	6.6963e+01	13.1820	58.806938	0.000344	3.444537	1.167041	-0.000138
 675	6.7063e+01	13.1387	58.669675	0.000344	3.444537	1.167041	-0.000138
 676	6.7162e+01	13.0889	58.540487	0.000324	3.241917	1.098391	-0.000130
 677	6.7262e+01	13.0569	58.391113	0.000375	3.748467	1.270015	-0.000150
 678	6.7362e+01	13.0151	58.286147	0.000263	2.634058	0.892443	-0.000105
 679	6.7461e+01	12.9798	58.213479	0.000182	1.823578	0.617845	-0.000073
 680	6.7561e+01	12.9349	58.080253	0.000334	3.343227	1.132716	-0.000134
 681	6.7660e+01	12.8868	57.918768	0.000405	4.052396	1.372989	-0.000162
 682	6.7760e+01	12.8483	57.801691	0.000294	2.937987	0.995417	-0.000118
 683	6.7859e+01	12.8146	57.676540	0.000314	3.140607	1.064067	-0.000126
 684	6.7959e+01	12.7761	57.571574	0.000263	2.634058	0.892443	-0.000105
 685	6.8058e+01	12.7376	57.434312	0.000344	3.444537	1.167041	-0.000138
 686	6.8157e+01	12.6943	57.341457	0.000233	2.330128	0.789469	-0.000093
 687	6.8257e+01	12.6558	57.196121	0.000365	3.647157	1.235690	-0.000146
 688	6.8356e+01	12.6157	57.054821	0.000355	3.545847	1.201365	-0.000142
 689	6.8456e+01	12.5820	56.961967	0.000233	2.330128	0.789469	-0.000093
 690	6.8555e+01	12.5467	56.820667	0.000355	3.545847	1.201365	-0.000142
 691	6.8655e+01	12.4922	56.695516	0.000314	3.140607	1.064067	-0.000126
 692	6.8754e+01	12.4553	56.542105	0.000385	3.849777	1.304340	-0.000154
 693	6.8854e+01	12.4232	56.425028	0.000294	2.937987	0.995417	-0.000118
 694	6.8954e+01	12.3815	56.271616	0.000385	3.849777	1.304340	-0.000154
 695	6.9053e+01	12.3430	56.186837	0.000213	2.127508	0.720819	-0.000085
 696	6.9153e+01	12.2980	56.037463	0.000375	3.748467	1.270015	-0.000150
 697	6.9252e+01	12.2676	55.936534	0.000253	2.532748	0.858118	-0.000101
 698	6.9352e+01	12.2210	55.811383	0.000314	3.140607	1.064067	-0.000126
 699	6.9451e+01	12.1761	55.682195	0.000324	3.241917	1.098391	-0.000130
 700	6.9550e+01	12.1328	55.540895	0.000355	3.545847	1.201365	-0.000142
 701	6.9650e+01	12.0943	55.355187	0.000466	4.660256	1.578937	-0.000187
 702	6.9749e+01	12.0574	55.270407	0.000213	2.127508	0.720819	-0.000085
 703	6.9849e+01	12.0205	55.137181	0.000334	3.343227	1.132716	-0.000134
 704	6.9948e+01	11.9852	55.024142	0.000284	2.836678	0.961092	-0.000114
 705	7.0048e+01	11.9451	54.866693	0.000395	3.951087	1.338664	-0.000158
 706	7.0147e+01	11.9018	54.769802	0.000243	2.431438	0.823793	-0.000097
 707	7.0247e+01	11.8649	54.640614	0.000324	3.241917	1.098391	-0.000130
 708	7.0347e+01	11.8216	54.507388	0.000334	3.343227	1.132716	-0.000134
 709	7.0446e+01	11.7751	54.374163	0.000334	3.343227	1.132716	-0.000134
 710	7.0546e+01	11.7382	54.200566	0.000436	4.356326	1.475963	-0.000174
 711	7.0645e+01	11.6981	54.127897	0.000182	1.823578	0.617845	-0.000073
 712	7.0745e+01	11.6596	53.978523	0.000375	3.748467	1.270015	-0.000150
 713	7.0844e+01	11.6195	53.841261	0.000344	3.444537	1.167041	-0.000138
 714	7.0944e+01	11.5842	53.695924	0.000365	3.647157	1.235690	-0.000146
 715	7.1043e+01	11.5392	53.594995	0.000253	2.532748	0.858118	-0.000101
 716	7.1142e+01	11.4975	53.441584	0.000385	3.849777	1.304340	-0.000154
 717	7.1242e+01	11.4606	53.312396	0.000324	3.241917	1.098391	-0.000130
 718	7.1341e+01	11.4237	53.158985	0.000385	3.849777	1.304340	-0.000154
 719	7.1441e+01	11.3868	53.041908	0.000294	2.937987	0.995417	-0.000118
 720	7.1540e+01	11.3387	52.936942	0.000263	2.634058	0.892443	-0.000105
 721	7.1640e+01	11.3050	52.771420	0.000415	4.153706	1.407314	-0.000166
 722	7.1740e+01	11.2633	52.626083	0.000365	3.647157	1.235690	-0.000146
 723	7.1839e+01	11.2184	52.513043	0.000284	2.836678	0.961092	-0.000114
 724	7.1939e+01	11.1863	52.375780	0.000344	3.444537	1.167041	-0.000138
 725	7.2038e+01	11.1446	52.214295	0.000405	4.052396	1.372989	-0.000162
 726	7.2138e+01	11.1173	52.081070	0.000334	3.343227	1.132716	-0.000134
 727	7.2237e+01	11.0660	51.951881	0.000324	3.241917	1.098391	-0.000130
 728	7.2337e+01	11.0275	51.826730	0.000314	3.140607	1.064067	-0.000126
 729	7.2436e+01	10.9826	51.665245	0.000405	4.052396	1.372989	-0.000162
 730	7.2535e+01	10.9393	51.523945	0.000355	3.545847	1.201365	-0.000142
 731	7.2635e+01	10.9040	51.386682	0.000344	3.444537	1.167041	-0.000138
 732	7.2734e+01	10.8591	51.273642	0.000284	2.836678	0.961092	-0.000114
 733	7.2834e+01	10.8254	51.104083	0.000426	4.255016	1.441639	-0.000170
 734	7.2933e+01	10.7804	51.015266	0.000223	2.228818	0.755144	-0.000089
 735	7.3033e+01	10.7435	50.801298	0.000537	5.369425	1.819211	-0.000215
 736	7.3132e+01	10.7083	50.680183	0.000304	3.039297	1.029742	-0.000122
 737	7.3232e+01	10.6585	50.567144	0.000284	2.836678	0.961092	-0.000114
 738	7.3332e+01	10.6296	50.462178	0.000263	2.634058	0.892443	-0.000105
 739	7.3431e+01	10.5799	50.288581	0.000436	4.356326	1.475963	-0.000174
 740	7.3531e+01	10.5414	50.195727	0.000233	2.330128	0.789469	-0.000093
 741	7.3630e+01	10.5109	50.030205	0.000415	4.153706	1.407314	-0.000166
 742	7.3730e+01	10.4628	49.864682	0.000415	4.153706	1.407314	-0.000166
 743	7.3829e+01	10.4195	49.763754	0.000253	2.532748	0.858118	-0.000101
 744	7.3928e+01	10.3890	49.610343	0.000385	3.849777	1.304340	-0.000154
 745	7.4028e+01	10.3441	49.469043	0.000355	3.545847	1.201365	-0.000142
 746	7.4127e+01	10.3072	49.331780	0.000344	3.444537	1.167041	-0.000138
 747	7.4227e+01	10.2671	49.206629	0.000314	3.140607	1.064067	-0.000126
 748	7.4326e+01	10.2174	49.061292	0.000365	3.647157	1.235690	-0.000146
 749	7.4426e+01	10.1853	48.919992	0.000355	3.545847	1.201365	-0.000142
 750	7.4525e+01	10.1404	48.786767	0.000334	3.343227	1.132716	-0.000134
 751	7.4625e+01	10.1035	48.633356	0.000385	3.849777	1.304340	-0.000154
 752	7.4725e+01	10.0650	48.471870	0.000405	4.052396	1.372989	-0.000162
 753	7.4824e+01	10.0345	48.379016	0.000233	2.330128	0.789469	-0.000093
 754	7.4924e+01	9.9880	48.205419	0.000436	4.356326	1.475963	-0.000174
 755	7.5023e+01	9.9462	48.108528	0.000243	2.431438	0.823793	-0.000097
 756	7.5123e+01	9.9045	47.955117	0.000385	3.849777	1.304340	-0.000154
 757	7.5222e+01	9.8612	47.797669	0.000395	3.951087	1.338664	-0.000158
 758	7.5322e+01	9.8291	47.672517	0.000314	3.140607	1.064067	-0.000126
 759	7.5421e+01	9.7858	47.527180	0.000365	3.647157	1.235690	-0.000146
 760	7.5520e+01	9.7505	47.365695	0.000405	4.052396	1.372989	-0.000162
 761	7.5620e+01	9.7088	47.236507	0.000324	3.241917	1.098391	-0.000130
 762	7.5719e+01	9.6639	47.111355	0.000314	3.140607	1.064067	-0.000126
 763	7.5819e+01	9.6334	46.961981	0.000375	3.748467	1.270015	-0.000150
 764	7.5918e+01	9.5837	46.857016	0.000263	2.634058	0.892443	-0.000105
 765	7.6018e+01	9.5484	46.711679	0.000365	3.647157	1.235690	-0.000146
 766	7.6118e+01	9.5019	46.534045	0.000446	4.457636	1.510288	-0.000179
 767	7.6217e+01	9.4602	46.400820	0.000334	3.343227	1.132716	-0.000134
 768	7.6317e+01	9.4297	46.247408	0.000385	3.849777	1.304340	-0.000154
 769	7.6416e+01	9.3848	46.098034	0.000375	3.748467	1.270015	-0.000150
 770	7.6516e+01	9.3414	45.972883	0.000314	3.140607	1.064067	-0.000126
 771	7.6615e+01	9.3126	45.859843	0.000284	2.836678	0.961092	-0.000114
 772	7.6715e+01	9.2725	45.690284	0.000426	4.255016	1.441639	-0.000170
 773	7.6814e+01	9.2243	45.569170	0.000304	3.039297	1.029742	-0.000122
 774	7.6913e+01	9.2003	45.407684	0.000405	4.052396	1.372989	-0.000162
 775	7.7013e+01	9.1489	45.286570	0.000304	3.039297	1.029742	-0.000122
 776	7.7112e+01	9.1136	45.125085	0.000405	4.052396	1.372989	-0.000162
 777	7.7212e+01	9.0735	44.979748	0.000365	3.647157	1.235690	-0.000146
 778	7.7311e+01	9.0334	44.834411	0.000365	3.647157	1.235690	-0.000146
 779	7.7411e+01	8.9821	44.709260	0.000314	3.140607	1.064067	-0.000126
 780	7.7510e+01	8.9436	44.567960	0.000355	3.545847	1.201365	-0.000142
 781	7.7610e+01	8.9099	44.454920	0.000284	2.836678	0.961092	-0.000114
 782	7.7710e+01	8.8778	44.285360	0.000426	4.255016	1.441639	-0.000170
 783	7.7809e+01	8.8265	44.123875	0.000405	4.052396	1.372989	-0.000162
 784	7.7909e+01	8.7880	43.970464	0.000385	3.849777	1.304340	-0.000154
 785	7.8008e+01	8.7431	43.837238	0.000334	3.343227	1.132716	-0.000134
 786	7.8108e+01	8.7062	43.699976	0.000344	3.444537	1.167041	-0.000138
 787	7.8207e+01	8.6725	43.566750	0.000334	3.343227	1.132716	-0.000134
 788	7.8306e+01	8.6356	43.449673	0.000294	2.937987	0.995417	-0.000118
 789	7.8406e+01	8.5891	43.308374	0.000355	3.545847	1.201365	-0.000142
 790	7.8505e+01	8.5490	43.110554	0.000496	4.964186	1.681912	-0.000199
 791	7.8605e+01	8.5153	43.001551	0.000274	2.735368	0.926768	-0.000110
 792	7.8704e+01	8.4752	42.803732	0.000496	4.964186	1.681912	-0.000199
 793	7.8804e+01	8.4335	42.690692	0.000284	2.836678	0.961092	-0.000114
 794	7.8903e+01	8.3933	42.545355	0.000365	3.647157	1.235690	-0.000146
 795	7.9003e+01	8.3468	42.424241	0.000304	3.039297	1.029742	-0.000122
 796	7.9103e+01	8.3115	42.242570	0.000456	4.558946	1.544613	-0.000183
 797	7.9202e+01	8.2778	42.097233	0.000365	3.647157	1.235690	-0.000146
 798	7.9302e+01	8.2281	41.943822	0.000385	3.849777	1.304340	-0.000154
 799	7.9401e+01	8.1896	41.822708	0.000304	3.039297	1.029742	-0.000122
 800	7.9501e+01	8.1495	41.653148	0.000426	4.255016	1.441639	-0.000170
 801	7.9600e+01	8.1174	41.544145	0.000274	2.735368	0.926768	-0.000110
 802	7.9700e+01	8.0693	41.378623	0.000415	4.153706	1.407314	-0.000166
 803	7.9799e+01	8.0292	41.257509	0.000304	3.039297	1.029742	-0.000122
 804	7.9898e+01	7.9891	41.075838	0.000456	4.558946	1.544613	-0.000183
 805	7.9998e+01	7.9522	40.922426	0.000385	3.849777	1.304340	-0.000154
 806	8.0097e+01	7.9137	40.785164	0.000344	3.444537	1.167041	-0.000138
 807	8.0197e+01	7.8800	40.635790	0.000375	3.748467	1.270015	-0.000150
 808	8.0296e+01	7.8383	40.506601	0.000324	3.241917	1.098391	-0.000130
 809	8.0396e+01	7.7853	40.373376	0.000334	3.343227	1.132716	-0.000134
 810	8.0496e+01	7.7565	40.232076	0.000355	3.545847	1.201365	-0.000142
 811	8.0595e+01	7.7212	40.046368	0.000466	4.660256	1.578937	-0.000187
 812	8.0695e+01	7.6714	39.901031	0.000365	3.647157	1.235690	-0.000146
 813	8.0794e+01	7.6361	39.767806	0.000334	3.343227	1.132716	-0.000134
 814	8.0894e+01	7.5944	39.646692	0.000304	3.039297	1.029742	-0.000122
 815	8.0993e+01	7.5559	39.481169	0.000415	4.153706	1.407314	-0.000166
 816	8.1093e+01	7.5190	39.303535	0.000446	4.457636	1.510288	-0.000179
 817	8.1192e+01	7.4773	39.174347	0.000324	3.241917	1.098391	-0.000130
 818	8.1291e+01	7.4324	39.008824	0.000415	4.153706	1.407314	-0.000166
 819	8.1391e+01	7.3955	38.871561	0.000344	3.444537	1.167041	-0.000138
 820	8.1490e+01	7.3474	38.734299	0.000344	3.444537	1.167041	-0.000138
 821	8.1590e+01	7.3185	38.597036	0.000344	3.444537	1.167041	-0.000138
 822	8.1689e+01	7.2752	38.419402	0.000446	4.457636	1.510288	-0.000179
 823	8.1789e+01	7.2287	38.282140	0.000344	3.444537	1.167041	-0.000138
 824	8.1888e+01	7.1918	38.136803	0.000365	3.647157	1.235690	-0.000146
 825	8.1988e+01	7.1485	37.971280	0.000415	4.153706	1.407314	-0.000166
 826	8.2088e+01	7.1148	37.801720	0.000426	4.255016	1.441639	-0.000170
 827	8.2187e+01	7.0747	37.664458	0.000344	3.444537	1.167041	-0.000138
 828	8.2287e+01	7.0330	37.547381	0.000294	2.937987	0.995417	-0.000118
 829	8.2386e+01	6.9977	37.389933	0.000395	3.951087	1.338664	-0.000158
 830	8.2486e+01	6.9656	37.216336	0.000436	4.356326	1.475963	-0.000174
 831	8.2585e+01	6.9175	37.070999	0.000365	3.647157	1.235690	-0.000146
 832	8.2684e+01	6.8741	36.929699	0.000355	3.545847	1.201365	-0.000142
 833	8.2784e+01	6.8340	36.739954	0.000476	4.761566	1.613262	-0.000191
 834	8.2883e+01	6.8003	36.634988	0.000263	2.634058	0.892443	-0.000105
 835	8.2983e+01	6.7602	36.453317	0.000456	4.558946	1.544613	-0.000183
 836	8.3082e+01	6.7121	36.287795	0.000415	4.153706	1.407314	-0.000166
 837	8.3182e+01	6.6816	36.142458	0.000365	3.647157	1.235690	-0.000146
 838	8.3281e+01	6.6335	36.017306	0.000314	3.140607	1.064067	-0.000126
 839	8.3381e+01	6.5998	35.811413	0.000517	5.166805	1.750561	-0.000207
 840	8.3481e+01	6.5597	35.686261	0.000314	3.140607	1.064067	-0.000126
 841	8.3580e+01	6.5132	35.524776	0.000405	4.052396	1.372989	-0.000162
 842	8.3680e+01	6.4827	35.403662	0.000304	3.039297	1.029742	-0.000122
 843	8.3779e+01	6.4474	35.242176	0.000405	4.052396	1.372989	-0.000162
 844	8.3879e+01	6.4025	35.100877	0.000355	3.545847	1.201365	-0.000142
 845	8.3978e+01	6.3576	34.907094	0.000486	4.862876	1.647587	-0.000195
 846	8.4078e+01	6.3255	34.765794	0.000355	3.545847	1.201365	-0.000142
 847	8.4177e+01	6.2806	34.600272	0.000415	4.153706	1.407314	-0.000166
 848	8.4276e+01	6.2405	34.450898	0.000375	3.748467	1.270015	-0.000150
 849	8.4376e+01	6.2004	34.305561	0.000365	3.647157	1.235690	-0.000146
 850	8.4475e+01	6.1635	34.127927	0.000446	4.457636	1.510288	-0.000179
 851	8.4575e+01	6.1314	33.970479	0.000395	3.951087	1.338664	-0.000158
 852	8.4674e+01	6.0833	33.813030	0.000395	3.951087	1.338664	-0.000158
 853	8.4774e+01	6.0383	33.643471	0.000426	4.255016	1.441639	-0.000170
 854	8.4874e+01	6.0062	33.518319	0.000314	3.140607	1.064067	-0.000126
 855	8.4973e+01	5.9613	33.324537	0.000486	4.862876	1.647587	-0.000195
 856	8.5073e+01	5.9100	33.142866	0.000456	4.558946	1.544613	-0.000183
 857	8.5172e+01	5.8875	33.001566	0.000355	3.545847	1.201365	-0.000142
 858	8.5272e+01	5.8298	32.836044	0.000415	4.153706	1.407314	-0.000166
 859	8.5371e+01	5.8009	32.702818	0.000334	3.343227	1.132716	-0.000134
 860	8.5471e+01	5.7656	32.517110	0.000466	4.660256	1.578937	-0.000187
 861	8.5570e+01	5.7287	32.355624	0.000405	4.052396	1.372989	-0.000162
 862	8.5669e+01	5.6806	32.173953	0.000456	4.558946	1.544613	-0.000183
 863	8.5769e+01	5.6405	32.052839	0.000304	3.039297	1.029742	-0.000122
 864	8.5868e+01	5.6020	31.863094	0.000476	4.761566	1.613262	-0.000191
 865	8.5968e+01	5.5635	31.709683	0.000385	3.849777	1.304340	-0.000154
 866	8.6067e+01	5.5266	31.540123	0.000426	4.255016	1.441639	-0.000170
 867	8.6167e+01	5.4897	31.390749	0.000375	3.748467	1.270015	-0.000150
 868	8.6266e+01	5.4512	31.196966	0.000486	4.862876	1.647587	-0.000195
 869	8.6366e+01	5.3966	31.051630	0.000365	3.647157	1.235690	-0.000146
 870	8.6466e+01	5.3678	30.857847	0.000486	4.862876	1.647587	-0.000195
 871	8.6565e+01	5.3277	30.716547	0.000355	3.545847	1.201365	-0.000142
 872	8.6665e+01	5.2924	30.571210	0.000365	3.647157	1.235690	-0.000146
 873	8.6764e+01	5.2523	30.385502	0.000466	4.660256	1.578937	-0.000187
 874	8.6864e+01	5.2025	30.244202	0.000355	3.545847	1.201365	-0.000142
 875	8.6963e+01	5.1608	30.042346	0.000507	5.065496	1.716236	-0.000203
 876	8.7063e+01	5.1335	29.880860	0.000405	4.052396	1.372989	-0.000162
 877	8.7162e+01	5.0918	29.715338	0.000415	4.153706	1.407314	-0.000166
 878	8.7261e+01	5.0437	29.561926	0.000385	3.849777	1.304340	-0.000154
 879	8.7361e+01	5.0004	29.364107	0.000496	4.964186	1.681912	-0.000199
 880	8.7460e+01	4.9587	29.222807	0.000355	3.545847	1.201365	-0.000142
 881	8.7560e+01	4.9250	29.049210	0.000436	4.356326	1.475963	-0.000174
 882	8.7659e+01	4.8865	28.903873	0.000365	3.647157	1.235690	-0.000146
 883	8.7759e+01	4.8512	28.746425	0.000395	3.951087	1.338664	-0.000158
 884	8.7859e+01	4.8095	28.556680	0.000476	4.761566	1.613262	-0.000191
 885	8.7958e+01	4.7598	28.354823	0.000507	5.065496	1.716236	-0.000203
 886	8.8058e+01	4.7293	28.233709	0.000304	3.039297	1.029742	-0.000122
 887	8.8157e+01	4.6844	28.064149	0.000426	4.255016	1.441639	-0.000170
 888	8.8257e+01	4.6491	27.862292	0.000507	5.065496	1.716236	-0.000203
 889	8.8356e+01	4.6106	27.708881	0.000385	3.849777	1.304340	-0.000154
 890	8.8456e+01	4.5705	27.539321	0.000426	4.255016	1.441639	-0.000170
 891	8.8555e+01	4.5223	27.365725	0.000436	4.356326	1.475963	-0.000174
 892	8.8654e+01	4.4838	27.196165	0.000426	4.255016	1.441639	-0.000170
 893	8.8754e+01	4.4517	27.014494	0.000456	4.558946	1.544613	-0.000183
 894	8.8853e+01	4.4116	26.836860	0.000446	4.457636	1.510288	-0.000179
 895	8.8953e+01	4.3651	26.683449	0.000385	3.849777	1.304340	-0.000154
 896	8.9052e+01	4.3234	26.530038	0.000385	3.849777	1.304340	-0.000154
 897	8.9152e+01	4.2913	26.312032	0.000547	5.470735	1.853535	-0.000219
 898	8.9251e+01	4.2496	26.126324	0.000466	4.660256	1.578937	-0.000187
 899	8.9351e+01	4.2047	25.972913	0.000385	3.849777	1.304340	-0.000154
 900	8.9451e+01	4.1662	25.811427	0.000405	4.052396	1.372989	-0.000162
 901	8.9550e+01	4.1309	25.666090	0.000365	3.647157	1.235690	-0.000146
 902	8.9650e+01	4.0876	25.440011	0.000567	5.673355	1.922185	-0.000227
 903	8.9749e+01	4.0491	25.306785	0.000334	3.343227	1.132716	-0.000134
 904	8.9849e+01	4.0122	25.145300	0.000405	4.052396	1.372989	-0.000162
 905	8.9948e+01	3.9705	24.959592	0.000466	4.660256	1.578937	-0.000187
 906	9.0047e+01	3.9223	24.745624	0.000537	5.369425	1.819211	-0.000215
 907	9.0147e+01	3.8983	24.567990	0.000446	4.457636	1.510288	-0.000179
 908	9.0246e+01	3.8357	24.414578	0.000385	3.849777	1.304340	-0.000154
 909	9.0346e+01	3.8052	24.257130	0.000395	3.951087	1.338664	-0.000158
 910	9.0445e+01	3.7667	24.103719	0.000385	3.849777	1.304340	-0.000154
 911	9.0545e+01	3.7298	23.930122	0.000436	4.356326	1.475963	-0.000174
 912	9.0644e+01	3.6913	23.744414	0.000466	4.660256	1.578937	-0.000187
 913	9.0744e+01	3.6448	23.558706	0.000466	4.660256	1.578937	-0.000187
 914	9.0844e+01	3.6063	23.393183	0.000415	4.153706	1.407314	-0.000166
 915	9.0943e+01	3.5742	23.219586	0.000436	4.356326	1.475963	-0.000174
 916	9.1043e+01	3.5389	23.045989	0.000436	4.356326	1.475963	-0.000174
 917	9.1142e+01	3.4892	22.892578	0.000385	3.849777	1.304340	-0.000154
 918	9.1242e+01	3.4555	22.694759	0.000496	4.964186	1.681912	-0.000199
 919	9.1341e+01	3.4202	22.549422	0.000365	3.647157	1.235690	-0.000146
 920	9.1441e+01	3.3705	22.347565	0.000507	5.065496	1.716236	-0.000203
 921	9.1540e+01	3.3224	22.169931	0.000446	4.457636	1.510288	-0.000179
 922	9.1639e+01	3.2951	21.992297	0.000446	4.457636	1.510288	-0.000179
 923	9.1739e+01	3.2502	21.822737	0.000426	4.255016	1.441639	-0.000170
 924	9.1838e+01	3.2133	21.632992	0.000476	4.761566	1.613262	-0.000191
 925	9.1938e+01	3.1684	21.487655	0.000365	3.647157	1.235690	-0.000146
 926	9.2037e+01	3.1315	21.277724	0.000527	5.268115	1.784886	-0.000211
 927	9.2137e+01	3.0914	21.120276	0.000395	3.951087	1.338664	-0.000158
 928	9.2237e+01	3.0464	20.910345	0.000527	5.268115	1.784886	-0.000211
 929	9.2336e+01	3.0127	20.765008	0.000365	3.647157	1.235690	-0.000146
 930	9.2436e+01	2.9710	20.583337	0.000456	4.558946	1.544613	-0.000183
 931	9.2535e+01	2.9245	20.413777	0.000426	4.255016	1.441639	-0.000170
 932	9.2635e+01	2.8988	20.256329	0.000395	3.951087	1.338664	-0.000158
 933	9.2734e+01	2.8539	20.074657	0.000456	4.558946	1.544613	-0.000183
 934	9.2834e+01	2.8186	19.909135	0.000415	4.153706	1.407314	-0.000166
 935	9.2933e+01	2.7801	19.699204	0.000527	5.268115	1.784886	-0.000211
 936	9.3032e+01	2.7272	19.529644	0.000426	4.255016	1.441639	-0.000170
 937	9.3132e+01	2.6999	19.352010	0.000446	4.457636	1.510288	-0.000179
 938	9.3231e+01	2.6550	19.198599	0.000385	3.849777	1.304340	-0.000154
 939	9.3331e+01	2.6181	19.045188	0.000385	3.849777	1.304340	-0.000154
 940	9.3430e+01	2.5764	18.863517	0.000456	4.558946	1.544613	-0.000183
 941	9.3530e+01	2.5379	18.625326	0.000598	5.977285	2.025159	-0.000239
 942	9.3629e+01	2.4817	18.488063	0.000344	3.444537	1.167041	-0.000138
 943	9.3729e+01	2.4561	18.314466	0.000436	4.356326	1.475963	-0.000174
 944	9.3829e+01	2.4112	18.161055	0.000385	3.849777	1.304340	-0.000154
 945	9.3928e+01	2.3695	17.979384	0.000456	4.558946	1.544613	-0.000183
 946	9.4028e+01	2.3277	17.769453	0.000527	5.268115	1.784886	-0.000211
 947	9.4127e+01	2.2941	17.583745	0.000466	4.660256	1.578937	-0.000187
 948	9.4227e+01	2.2556	17.422259	0.000405	4.052396	1.372989	-0.000162
 949	9.4326e+01	2.2138	17.236551	0.000466	4.660256	1.578937	-0.000187
 950	9.4425e+01	2.1834	17.079103	0.000395	3.951087	1.338664	-0.000158
 951	9.4525e+01	2.1368	16.873209	0.000517	5.166805	1.750561	-0.000207
 952	9.4624e+01	2.0983	16.711723	0.000405	4.052396	1.372989	-0.000162
 953	9.4724e+01	2.0582	16.542164	0.000426	4.255016	1.441639	-0.000170
 954	9.4823e+01	2.0069	16.348381	0.000486	4.862876	1.647587	-0.000195
 955	9.4923e+01	1.9716	16.194970	0.000385	3.849777	1.304340	-0.000154
 956	9.5022e+01	1.9315	15.985039	0.000527	5.268115	1.784886	-0.000211
 957	9.5122e+01	1.8946	15.815479	0.000426	4.255016	1.441639	-0.000170
 958	9.5222e+01	1.8625	15.613622	0.000507	5.065496	1.716236	-0.000203
 959	9.5321e+01	1.8224	15.468286	0.000365	3.647157	1.235690	-0.000146
 960	9.5421e+01	1.7791	15.298726	0.000426	4.255016	1.441639	-0.000170
 961	9.5520e+01	1.7374	15.096869	0.000507	5.065496	1.716236	-0.000203
 962	9.5620e+01	1.6957	14.951532	0.000365	3.647157	1.235690	-0.000146
 963	9.5719e+01	1.6475	14.765824	0.000466	4.660256	1.578937	-0.000187
 964	9.5819e+01	1.6251	14.563967	0.000507	5.065496	1.716236	-0.000203
 965	9.5918e+01	1.5705	14.386333	0.000446	4.457636	1.510288	-0.000179
 966	9.6017e+01	1.5353	14.261182	0.000314	3.140607	1.064067	-0.000126
 967	9.6117e+01	1.5016	14.051251	0.000527	5.268115	1.784886	-0.000211
 968	9.6216e+01	1.4582	13.845357	0.000517	5.166805	1.750561	-0.000207
 969	9.6316e+01	1.4181	13.708094	0.000344	3.444537	1.167041	-0.000138
 970	9.6415e+01	1.3780	13.506238	0.000507	5.065496	1.716236	-0.000203
 971	9.6515e+01	1.3379	13.288232	0.000547	5.470735	1.853535	-0.000219
 972	9.6615e+01	1.2962	13.175192	0.000284	2.836678	0.961092	-0.000114
 973	9.6714e+01	1.2577	12.981410	0.000486	4.862876	1.647587	-0.000195
 974	9.6814e+01	1.2208	12.795702	0.000466	4.660256	1.578937	-0.000187
 975	9.6913e+01	1.1839	12.646328	0.000375	3.748467	1.270015	-0.000150
 976	9.7013e+01	1.1358	12.456582	0.000476	4.761566	1.613262	-0.000191
 977	9.7112e+01	1.0973	12.266837	0.000476	4.761566	1.613262	-0.000191
 978	9.7212e+01	1.0540	12.125537	0.000355	3.545847	1.201365	-0.000142
 979	9.7311e+01	1.0235	11.899458	0.000567	5.673355	1.922185	-0.000227
 980	9.7410e+01	0.9850	11.742009	0.000395	3.951087	1.338664	-0.000158
 981	9.7510e+01	0.9385	11.540153	0.000507	5.065496	1.716236	-0.000203
 982	9.7609e+01	0.9016	11.354444	0.000466	4.660256	1.578937	-0.000187
 983	9.7709e+01	0.8583	11.188922	0.000415	4.153706	1.407314	-0.000166
 984	9.7808e+01	0.8262	11.035511	0.000385	3.849777	1.304340	-0.000154
 985	9.7908e+01	0.7813	10.801357	0.000588	5.875975	1.990834	-0.000235
 986	9.8007e+01	0.7412	10.668131	0.000334	3.343227	1.132716	-0.000134
 987	9.8107e+01	0.6962	10.486460	0.000456	4.558946	1.544613	-0.000183
 988	9.8207e+01	0.6658	10.292678	0.000486	4.862876	1.647587	-0.000195
 989	9.8306e+01	0.6224	10.127155	0.000415	4.153706	1.407314	-0.000166
 990	9.8406e+01	0.5888	9.949521	0.000446	4.457636	1.510288	-0.000179
 991	9.8505e+01	0.5438	9.759776	0.000476	4.761566	1.613262	-0.000191
 992	9.8605e+01	0.4989	9.557919	0.000507	5.065496	1.716236	-0.000203
 993	9.8704e+01	0.4572	9.384322	0.000436	4.356326	1.475963	-0.000174
 994	9.8803e+01	0.4267	9.206688	0.000446	4.457636	1.510288	-0.000179
 995	9.8903e+01	0.3834	9.037128	0.000426	4.255016	1.441639	-0.000170
 996	9.9002e+01	0.3433	8.847383	0.000476	4.761566	1.613262	-0.000191
 997	9.9102e+01	0.3032	8.673786	0.000436	4.356326	1.475963	-0.000174
 998	9.9201e+01	0.2679	8.480004	0.000486	4.862876	1.647587	-0.000195
 999	9.9301e+01	0.2230	8.306407	0.000436	4.356326	1.475963	-0.000174
1000	9.9400e+01	0.1829	8.132810	0.000436	4.356326	1.475963	-0.000174
1001	9.9500e+01	0.1444	7.947102	0.000466	4.660256	1.578937	-0.000187
1002	9.9600e+01	0.1027	7.753319	0.000486	4.862876	1.647587	-0.000195
1003	9.9699e+01	0.0626	7.567611	0.000466	4.660256	1.578937	-0.000187
1004	9.9799e+01	0.0209	7.394014	0.000436	4.356326	1.475963	-0.000174
1005	9.9898e+01	-0.0128	7.248677	0.000365	3.647157	1.235690	-0.000146
1006	9.9998e+01	-0.0497	7.115452	0.000334	3.343227	1.132716	-0.000134
1007	1.0010e+02	-0.0882	6.877261	0.000598	5.977285	2.025159	-0.000239
1008	1.0020e+02	-0.1235	6.719812	0.000395	3.951087	1.338664	-0.000158
1009	1.0030e+02	-0.1700	6.546216	0.000436	4.356326	1.475963	-0.000174
1010	1.0040e+02	-0.2086	6.324173	0.000557	5.572045	1.887860	-0.000223
1011	1.0050e+02	-0.2454	6.138465	0.000466	4.660256	1.578937	-0.000187
1012	1.0059e+02	-0.2952	5.960831	0.000446	4.457636	1.510288	-0.000179
1013	1.0069e+02	-0.3305	5.771086	0.000476	4.761566	1.613262	-0.000191
1014	1.0079e+02	-0.3561	5.593452	0.000446	4.457636	1.510288	-0.000179
1015	1.0089e+02	-0.4075	5.423892	0.000426	4.255016	1.441639	-0.000170
1016	1.0099e+02	-0.4428	5.222035	0.000507	5.065496	1.716236	-0.000203
1017	1.0109e+02	-0.4893	5.080735	0.000355	3.545847	1.201365	-0.000142
1018	1.0119e+02	-0.5310	4.846581	0.000588	5.875975	1.990834	-0.000235
1019	1.0129e+02	-0.5631	4.689133	0.000395	3.951087	1.338664	-0.000158
1020	1.0139e+02	-0.6032	4.495351	0.000486	4.862876	1.647587	-0.000195
1021	1.0149e+02	-0.6449	4.297531	0.000496	4.964186	1.681912	-0.000199
1022	1.0159e+02	-0.6882	4.119897	0.000446	4.457636	1.510288	-0.000179
1023	1.0169e+02	-0.7299	3.950337	0.000426	4.255016	1.441639	-0.000170
1024	1.0179e+02	-0.7604	3.716183	0.000588	5.875975	1.990834	-0.000235
1025	1.0189e+02	-0.8069	3.554698	0.000405	4.052396	1.372989	-0.000162
1026	1.0199e+02	-0.8470	3.397250	0.000395	3.951087	1.338664	-0.000158
1027	1.0209e+02	-0.8839	3.203467	0.000486	4.862876	1.647587	-0.000195
1028	1.0219e+02	-0.9321	3.025833	0.000446	4.457636	1.510288	-0.000179
1029	1.0229e+02	-0.9641	2.832051	0.000486	4.862876	1.647587	-0.000195
1030	1.0239e+02	-1.0091	2.626157	0.000517	5.166805	1.750561	-0.000207
1031	1.0248e+02	-1.0460	2.460634	0.000415	4.153706	1.407314	-0.000166
1032	1.0258e+02	-1.0748	2.303186	0.000395	3.951087	1.338664	-0.000158
1033	1.0268e+02	-1.1294	2.085181	0.000547	5.470735	1.853535	-0.000219
1034	1.0278e+02	-1.1631	1.927732	0.000395	3.951087	1.338664	-0.000158
1035	1.0288e+02	-1.2080	1.701653	0.000567	5.673355	1.922185	-0.000227
1036	1.0298e+02	-1.2353	1.495759	0.000517	5.166805	1.750561	-0.000207
1037	1.0308e+02	-1.2818	1.338310	0.000395	3.951087	1.338664	-0.000158
1038	1.0318e+02	-1.3203	1.148565	0.000476	4.761566	1.613262	-0.000191
1039	1.0328e+02	-1.3764	0.987080	0.000405	4.052396	1.372989	-0.000162
1040	1.0338e+02	-1.4069	0.769074	0.000547	5.470735	1.853535	-0.000219
1041	1.0348e+02	-1.4518	0.611626	0.000395	3.951087	1.338664	-0.000158
1042	1.0358e+02	-1.4887	0.349212	0.000659	6.585144	2.231107	-0.000264
1043	1.0368e+02	-1.5304	0.220024	0.000324	3.241917	1.098391	-0.000130
1044	1.0378e+02	-1.5657	0.054501	0.000415	4.153706	1.407314	-0.000166
1045	1.0388e+02	-1.6090	-0.123133	0.000446	4.457636	1.510288	-0.000179
1046	1.0398e+02	-1.6363	-0.333064	0.000527	5.268115	1.784886	-0.000211
1047	1.0408e+02	-1.6796	-0.502623	0.000426	4.255016	1.441639	-0.000170
1048	1.0418e+02	-1.7229	-0.732740	0.000577	5.774665	1.956509	-0.000231
1049	1.0428e+02	-1.7647	-0.882114	0.000375	3.748467	1.270015	-0.000150
1050	1.0438e+02	-1.7967	-1.075897	0.000486	4.862876	1.647587	-0.000195
1051	1.0447e+02	-1.8449	-1.257568	0.000456	4.558946	1.544613	-0.000183
1052	1.0457e+02	-1.8753	-1.423090	0.000415	4.153706	1.407314	-0.000166
1053	1.0467e+02	-1.9267	-1.637059	0.000537	5.369425	1.819211	-0.000215
1054	1.0477e+02	-1.9652	-1.806618	0.000426	4.255016	1.441639	-0.000170
1055	1.0487e+02	-2.0021	-2.020586	0.000537	5.369425	1.819211	-0.000215
1056	1.0497e+02	-2.0454	-2.198220	0.000446	4.457636	1.510288	-0.000179
1057	1.0507e+02	-2.0871	-2.367780	0.000426	4.255016	1.441639	-0.000170
1058	1.0517e+02	-2.1176	-2.565600	0.000496	4.964186	1.681912	-0.000199
1059	1.0527e+02	-2.1609	-2.747271	0.000456	4.558946	1.544613	-0.000183
1060	1.0537e+02	-2.1978	-2.937016	0.000476	4.761566	1.613262	-0.000191
1061	1.0547e+02	-2.2475	-3.155022	0.000547	5.470735	1.853535	-0.000219
1062	1.0557e+02	-2.2796	-3.336693	0.000456	4.558946	1.544613	-0.000183
1063	1.0567e+02	-2.3261	-3.469918	0.000334	3.343227	1.132716	-0.000134
1064	1.0577e+02	-2.3614	-3.720221	0.000628	6.281214	2.128133	-0.000252
1065	1.0587e+02	-2.4080	-3.869595	0.000375	3.748467	1.270015	-0.000150
1066	1.0597e+02	-2.4400	-4.071451	0.000507	5.065496	1.716236	-0.000203
1067	1.0607e+02	-2.4801	-4.253123	0.000456	4.558946	1.544613	-0.000183
1068	1.0617e+02	-2.5267	-4.398459	0.000365	3.647157	1.235690	-0.000146
1069	1.0627e+02	-2.5604	-4.640688	0.000608	6.078595	2.059484	-0.000243
1070	1.0637e+02	-2.6005	-4.765839	0.000314	3.140607	1.064067	-0.000126
1071	1.0647e+02	-2.6309	-4.983844	0.000547	5.470735	1.853535	-0.000219
1072	1.0656e+02	-2.6839	-5.153404	0.000426	4.255016	1.441639	-0.000170
1073	1.0666e+02	-2.7240	-5.355261	0.000507	5.065496	1.716236	-0.000203
1074	1.0676e+02	-2.7529	-5.545006	0.000476	4.761566	1.613262	-0.000191
1075	1.0686e+02	-2.7962	-5.738788	0.000486	4.862876	1.647587	-0.000195
1076	1.0696e+02	-2.8411	-5.928534	0.000476	4.761566	1.613262	-0.000191
1077	1.0706e+02	-2.8780	-6.110205	0.000456	4.558946	1.544613	-0.000183
1078	1.0716e+02	-2.9149	-6.267653	0.000395	3.951087	1.338664	-0.000158
1079	1.0726e+02	-2.9534	-6.481621	0.000537	5.369425	1.819211	-0.000215
1080	1.0736e+02	-2.9935	-6.663293	0.000456	4.558946	1.544613	-0.000183
1081	1.0746e+02	-3.0480	-6.832852	0.000426	4.255016	1.441639	-0.000170
1082	1.0756e+02	-3.0785	-7.030672	0.000496	4.964186	1.681912	-0.000199
1083	1.0766e+02	-3.1138	-7.200232	0.000426	4.255016	1.441639	-0.000170
1084	1.0776e+02	-3.1587	-7.434385	0.000588	5.875975	1.990834	-0.000235
1085	1.0786e+02	-3.2004	-7.587797	0.000385	3.849777	1.304340	-0.000154
1086	1.0796e+02	-3.2341	-7.749282	0.000405	4.052396	1.372989	-0.000162
1087	1.0806e+02	-3.2774	-7.934990	0.000466	4.660256	1.578937	-0.000187
1088	1.0816e+02	-3.3192	-8.096476	0.000405	4.052396	1.372989	-0.000162
1089	1.0826e+02	-3.3593	-8.294295	0.000496	4.964186	1.681912	-0.000199
1090	1.0836e+02	-3.3913	-8.471929	0.000446	4.457636	1.510288	-0.000179
1091	1.0845e+02	-3.4347	-8.629378	0.000395	3.951087	1.338664	-0.000158
1092	1.0855e+02	-3.4748	-8.863532	0.000588	5.875975	1.990834	-0.000235
1093	1.0865e+02	-3.5181	-9.020980	0.000395	3.951087	1.338664	-0.000158
1094	1.0875e+02	-3.5486	-9.198614	0.000446	4.457636	1.510288	-0.000179
1095	1.0885e+02	-3.5967	-9.400471	0.000507	5.065496	1.716236	-0.000203
1096	1.0895e+02	-3.6336	-9.565993	0.000415	4.153706	1.407314	-0.000166
1097	1.0905e+02	-3.6817	-9.735553	0.000426	4.255016	1.441639	-0.000170
1098	1.0915e+02	-3.7074	-9.949521	0.000537	5.369425	1.819211	-0.000215
1099	1.0925e+02	-3.7555	-10.050449	0.000253	2.532748	0.858118	-0.000101
1100	1.0935e+02	-3.7908	-10.260380	0.000527	5.268115	1.784886	-0.000211
1101	1.0945e+02	-3.8309	-10.458200	0.000496	4.964186	1.681912	-0.000199
1102	1.0955e+02	-3.8694	-10.615648	0.000395	3.951087	1.338664	-0.000158
1103	1.0965e+02	-3.9159	-10.797320	0.000456	4.558946	1.544613	-0.000183
1104	1.0975e+02	-3.9560	-10.962842	0.000415	4.153706	1.407314	-0.000166
1105	1.0985e+02	-3.9913	-11.176810	0.000537	5.369425	1.819211	-0.000215
1106	1.0995e+02	-4.0395	-11.314073	0.000344	3.444537	1.167041	-0.000138
1107	1.1005e+02	-4.0731	-11.524004	0.000527	5.268115	1.784886	-0.000211
1108	1.1015e+02	-4.1165	-11.681452	0.000395	3.951087	1.338664	-0.000158
1109	1.1025e+02	-4.1518	-11.846975	0.000415	4.153706	1.407314	-0.000166
1110	1.1035e+02	-4.1919	-12.069017	0.000557	5.572045	1.887860	-0.000223
1111	1.1044e+02	-4.2288	-12.194168	0.000314	3.140607	1.064067	-0.000126
1112	1.1054e+02	-4.2737	-12.391988	0.000496	4.964186	1.681912	-0.000199
1113	1.1064e+02	-4.3074	-12.545399	0.000385	3.849777	1.304340	-0.000154
1114	1.1074e+02	-4.3475	-12.723033	0.000446	4.457636	1.510288	-0.000179
1115	1.1084e+02	-4.3828	-12.928927	0.000517	5.166805	1.750561	-0.000207
1116	1.1094e+02	-4.4325	-13.094450	0.000415	4.153706	1.407314	-0.000166
1117	1.1104e+02	-4.4758	-13.259972	0.000415	4.153706	1.407314	-0.000166
1118	1.1114e+02	-4.5143	-13.441643	0.000456	4.558946	1.544613	-0.000183
1119	1.1124e+02	-4.5576	-13.582943	0.000355	3.545847	1.201365	-0.000142
1120	1.1134e+02	-4.5881	-13.784800	0.000507	5.065496	1.716236	-0.000203
1121	1.1144e+02	-4.6314	-13.958397	0.000436	4.356326	1.475963	-0.000174
1122	1.1154e+02	-4.6779	-14.111808	0.000385	3.849777	1.304340	-0.000154
1123	1.1164e+02	-4.7084	-14.245033	0.000334	3.343227	1.132716	-0.000134
1124	1.1174e+02	-4.7549	-14.454965	0.000527	5.268115	1.784886	-0.000211
1125	1.1184e+02	-4.7918	-14.636636	0.000456	4.558946	1.544613	-0.000183
1126	1.1194e+02	-4.8303	-14.814270	0.000446	4.457636	1.510288	-0.000179
1127	1.1204e+02	-4.8737	-14.999978	0.000466	4.660256	1.578937	-0.000187
1128	1.1214e+02	-4.9073	-15.149352	0.000375	3.748467	1.270015	-0.000150
1129	1.1224e+02	-4.9555	-15.331023	0.000456	4.558946	1.544613	-0.000183
1130	1.1234e+02	-4.9876	-15.500583	0.000426	4.255016	1.441639	-0.000170
1131	1.1244e+02	-5.0325	-15.633808	0.000334	3.343227	1.132716	-0.000134
1132	1.1253e+02	-5.0694	-15.831628	0.000496	4.964186	1.681912	-0.000199
1133	1.1263e+02	-5.1143	-15.997150	0.000415	4.153706	1.407314	-0.000166
1134	1.1273e+02	-5.1528	-16.162673	0.000415	4.153706	1.407314	-0.000166
1135	1.1283e+02	-5.1913	-16.356455	0.000486	4.862876	1.647587	-0.000195
1136	1.1293e+02	-5.2330	-16.489681	0.000334	3.343227	1.132716	-0.000134
1137	1.1303e+02	-5.2651	-16.643092	0.000385	3.849777	1.304340	-0.000154
1138	1.1313e+02	-5.3084	-16.828800	0.000466	4.660256	1.578937	-0.000187
1139	1.1323e+02	-5.3533	-17.026620	0.000496	4.964186	1.681912	-0.000199
1140	1.1333e+02	-5.3774	-17.184068	0.000395	3.951087	1.338664	-0.000158
1141	1.1343e+02	-5.4351	-17.313257	0.000324	3.241917	1.098391	-0.000130
1142	1.1353e+02	-5.4672	-17.494928	0.000456	4.558946	1.544613	-0.000183
1143	1.1363e+02	-5.5105	-17.700822	0.000517	5.166805	1.750561	-0.000207
1144	1.1373e+02	-5.5555	-17.825973	0.000314	3.140607	1.064067	-0.000126
1145	1.1383e+02	-5.5924	-18.007644	0.000456	4.558946	1.544613	-0.000183
1146	1.1393e+02	-5.6196	-18.169129	0.000405	4.052396	1.372989	-0.000162
1147	1.1403e+02	-5.6645	-18.342726	0.000436	4.356326	1.475963	-0.000174
1148	1.1413e+02	-5.7111	-18.524397	0.000456	4.558946	1.544613	-0.000183
1149	1.1423e+02	-5.7448	-18.702031	0.000446	4.457636	1.510288	-0.000179
1150	1.1433e+02	-5.7801	-18.827183	0.000314	3.140607	1.064067	-0.000126
1151	1.1442e+02	-5.8298	-18.976557	0.000375	3.748467	1.270015	-0.000150
1152	1.1452e+02	-5.8715	-19.146116	0.000426	4.255016	1.441639	-0.000170
1153	1.1462e+02	-5.9132	-19.343936	0.000496	4.964186	1.681912	-0.000199
1154	1.1472e+02	-5.9453	-19.452939	0.000274	2.735368	0.926768	-0.000110
1155	1.1482e+02	-5.9822	-19.634610	0.000456	4.558946	1.544613	-0.000183
1156	1.1492e+02	-6.0335	-19.836466	0.000507	5.065496	1.716236	-0.000203
1157	1.1502e+02	-6.0688	-19.977766	0.000355	3.545847	1.201365	-0.000142
1158	1.1512e+02	-6.1121	-20.123103	0.000365	3.647157	1.235690	-0.000146
1159	1.1522e+02	-6.1538	-20.284589	0.000405	4.052396	1.372989	-0.000162
1160	1.1532e+02	-6.1843	-20.438000	0.000385	3.849777	1.304340	-0.000154
1161	1.1542e+02	-6.2260	-20.627745	0.000476	4.761566	1.613262	-0.000191
1162	1.1552e+02	-6.2549	-20.813453	0.000466	4.660256	1.578937	-0.000187
1163	1.1562e+02	-6.3062	-20.962827	0.000375	3.748467	1.270015	-0.000150
1164	1.1572e+02	-6.3463	-21.152573	0.000476	4.761566	1.613262	-0.000191
1165	1.1582e+02	-6.3961	-21.257538	0.000263	2.634058	0.892443	-0.000105
1166	1.1592e+02	-6.4185	-21.406912	0.000375	3.748467	1.270015	-0.000150
1167	1.1602e+02	-6.4618	-21.560323	0.000385	3.849777	1.304340	-0.000154
1168	1.1612e+02	-6.4987	-21.717772	0.000395	3.951087	1.338664	-0.000158
1169	1.1622e+02	-6.5405	-21.887331	0.000426	4.255016	1.441639	-0.000170
1170	1.1632e+02	-6.5822	-22.101300	0.000537	5.369425	1.819211	-0.000215
1171	1.1642e+02	-6.6255	-22.218377	0.000294	2.937987	0.995417	-0.000118
1172	1.1651e+02	-6.6624	-22.359676	0.000355	3.545847	1.201365	-0.000142
1173	1.1661e+02	-6.6913	-22.492902	0.000334	3.343227	1.132716	-0.000134
1174	1.1671e+02	-6.7378	-22.727056	0.000588	5.875975	1.990834	-0.000235
1175	1.1681e+02	-6.7763	-22.880467	0.000385	3.849777	1.304340	-0.000154
1176	1.1691e+02	-6.8164	-23.037915	0.000395	3.951087	1.338664	-0.000158
1177	1.1701e+02	-6.8645	-23.207475	0.000426	4.255016	1.441639	-0.000170
1178	1.1711e+02	-6.9014	-23.324552	0.000294	2.937987	0.995417	-0.000118
1179	1.1721e+02	-6.9271	-23.490074	0.000415	4.153706	1.407314	-0.000166
1180	1.1731e+02	-6.9800	-23.667708	0.000446	4.457636	1.510288	-0.000179
1181	1.1741e+02	-7.0185	-23.792859	0.000314	3.140607	1.064067	-0.000126
1182	1.1751e+02	-7.0586	-23.982605	0.000476	4.761566	1.613262	-0.000191
1183	1.1761e+02	-7.1035	-24.180425	0.000496	4.964186	1.681912	-0.000199
1184	1.1771e+02	-7.1404	-24.333836	0.000385	3.849777	1.304340	-0.000154
1185	1.1781e+02	-7.1838	-24.491284	0.000395	3.951087	1.338664	-0.000158
1186	1.1791e+02	-7.2174	-24.600287	0.000274	2.735368	0.926768	-0.000110
1187	1.1801e+02	-7.2575	-24.777921	0.000446	4.457636	1.510288	-0.000179
1188	1.1811e+02	-7.2993	-24.939406	0.000405	4.052396	1.372989	-0.000162
1189	1.1821e+02	-7.3506	-25.117040	0.000446	4.457636	1.510288	-0.000179
1190	1.1831e+02	-7.3859	-25.290637	0.000436	4.356326	1.475963	-0.000174
1191	1.1841e+02	-7.4180	-25.423862	0.000334	3.343227	1.132716	-0.000134
1192	1.1850e+02	-7.4549	-25.565162	0.000355	3.545847	1.201365	-0.000142
1193	1.1860e+02	-7.5014	-25.750870	0.000466	4.660256	1.578937	-0.000187
1194	1.1870e+02	-7.5351	-25.916393	0.000415	4.153706	1.407314	-0.000166
1195	1.1880e+02	-7.5704	-26.098064	0.000456	4.558946	1.544613	-0.000183
1196	1.1890e+02	-7.6185	-26.211104	0.000284	2.836678	0.961092	-0.000114
1197	1.1900e+02	-7.6634	-26.433146	0.000557	5.572045	1.887860	-0.000223
1198	1.1910e+02	-7.7099	-26.530038	0.000243	2.431438	0.823793	-0.000097
1199	1.1920e+02	-7.7356	-26.707671	0.000446	4.457636	1.510288	-0.000179
1200	1.1930e+02	-7.7757	-26.840897	0.000334	3.343227	1.132716	-0.000134
1201	1.1940e+02	-7.8254	-26.998345	0.000395	3.951087	1.338664	-0.000158
1202	1.1950e+02	-7.8639	-27.163868	0.000415	4.153706	1.407314	-0.000166
1203	1.1960e+02	-7.8896	-27.301130	0.000344	3.444537	1.167041	-0.000138
1204	1.1970e+02	-7.9329	-27.511061	0.000527	5.268115	1.784886	-0.000211
1205	1.1980e+02	-7.9843	-27.607953	0.000243	2.431438	0.823793	-0.000097
1206	1.1990e+02	-8.0164	-27.821921	0.000537	5.369425	1.819211	-0.000215
1207	1.2000e+02	-8.0565	-27.951109	0.000324	3.241917	1.098391	-0.000130
1208	1.2010e+02	-8.0901	-28.104520	0.000385	3.849777	1.304340	-0.000154
1209	1.2020e+02	-8.1383	-28.282154	0.000446	4.457636	1.510288	-0.000179
1210	1.2030e+02	-8.1704	-28.395194	0.000284	2.836678	0.961092	-0.000114
1211	1.2039e+02	-8.2185	-28.540531	0.000365	3.647157	1.235690	-0.000146
1212	1.2049e+02	-8.2586	-28.742388	0.000507	5.065496	1.716236	-0.000203
1213	1.2059e+02	-8.3051	-28.875613	0.000334	3.343227	1.132716	-0.000134
1214	1.2069e+02	-8.3436	-29.057284	0.000456	4.558946	1.544613	-0.000183
1215	1.2079e+02	-8.3853	-29.206658	0.000375	3.748467	1.270015	-0.000150
1216	1.2089e+02	-8.4238	-29.380255	0.000436	4.356326	1.475963	-0.000174
1217	1.2099e+02	-8.4607	-29.485221	0.000263	2.634058	0.892443	-0.000105
1218	1.2109e+02	-8.4896	-29.638632	0.000385	3.849777	1.304340	-0.000154
1219	1.2119e+02	-8.5425	-29.796080	0.000395	3.951087	1.338664	-0.000158
1220	1.2129e+02	-8.5810	-29.973714	0.000446	4.457636	1.510288	-0.000179
1221	1.2139e+02	-8.6067	-30.086754	0.000284	2.836678	0.961092	-0.000114
1222	1.2149e+02	-8.6548	-30.312834	0.000567	5.673355	1.922185	-0.000227
1223	1.2159e+02	-8.6965	-30.446059	0.000334	3.343227	1.132716	-0.000134
1224	1.2169e+02	-8.7447	-30.619656	0.000436	4.356326	1.475963	-0.000174
1225	1.2179e+02	-8.7735	-30.744807	0.000314	3.140607	1.064067	-0.000126
1226	1.2189e+02	-8.8217	-30.906293	0.000405	4.052396	1.372989	-0.000162
1227	1.2199e+02	-8.8489	-31.039518	0.000334	3.343227	1.132716	-0.000134
1228	1.2209e+02	-8.8907	-31.213115	0.000436	4.356326	1.475963	-0.000174
1229	1.2219e+02	-8.9324	-31.338266	0.000314	3.140607	1.064067	-0.000126
1230	1.2229e+02	-8.9725	-31.503789	0.000415	4.153706	1.407314	-0.000166
1231	1.2239e+02	-9.0142	-31.653163	0.000375	3.748467	1.270015	-0.000150
1232	1.2248e+02	-9.0543	-31.798500	0.000365	3.647157	1.235690	-0.000146
1233	1.2258e+02	-9.0944	-31.980171	0.000456	4.558946	1.544613	-0.000183
1234	1.2268e+02	-9.1361	-32.125508	0.000365	3.647157	1.235690	-0.000146
1235	1.2278e+02	-9.1698	-32.278919	0.000385	3.849777	1.304340	-0.000154
1236	1.2288e+02	-9.2179	-32.436367	0.000395	3.951087	1.338664	-0.000158
1237	1.2298e+02	-9.2468	-32.561518	0.000314	3.140607	1.064067	-0.000126
1238	1.2308e+02	-9.2981	-32.743189	0.000456	4.558946	1.544613	-0.000183
1239	1.2318e+02	-9.3350	-32.892563	0.000375	3.748467	1.270015	-0.000150
1240	1.2328e+02	-9.3639	-33.025789	0.000334	3.343227	1.132716	-0.000134
1241	1.2338e+02	-9.4185	-33.203423	0.000446	4.457636	1.510288	-0.000179
1242	1.2348e+02	-9.4553	-33.344723	0.000355	3.545847	1.201365	-0.000142
1243	1.2358e+02	-9.4858	-33.498134	0.000385	3.849777	1.304340	-0.000154
1244	1.2368e+02	-9.5356	-33.635396	0.000344	3.444537	1.167041	-0.000138
1245	1.2378e+02	-9.5692	-33.784770	0.000375	3.748467	1.270015	-0.000150
1246	1.2388e+02	-9.6206	-33.926070	0.000355	3.545847	1.201365	-0.000142
1247	1.2398e+02	-9.6511	-34.087556	0.000405	4.052396	1.372989	-0.000162
1248	1.2408e+02	-9.6848	-34.249041	0.000405	4.052396	1.372989	-0.000162
1249	1.2418e+02	-9.7329	-34.366118	0.000294	2.937987	0.995417	-0.000118
1250	1.2428e+02	-9.7730	-34.458972	0.000233	2.330128	0.789469	-0.000093
1251	1.2438e+02	-9.8131	-34.648717	0.000476	4.761566	1.613262	-0.000191
1252	1.2447e+02	-9.8484	-34.806166	0.000395	3.951087	1.338664	-0.000158
1253	1.2457e+02	-9.8997	-34.923243	0.000294	2.937987	0.995417	-0.000118
1254	1.2467e+02	-9.9414	-35.149322	0.000567	5.673355	1.922185	-0.000227
1255	1.2477e+02	-9.9703	-35.278511	0.000324	3.241917	1.098391	-0.000130
1256	1.2487e+02	-10.0104	-35.383476	0.000263	2.634058	0.892443	-0.000105
1257	1.2497e+02	-10.0473	-35.548999	0.000415	4.153706	1.407314	-0.000166
1258	1.2507e+02	-10.0954	-35.722596	0.000436	4.356326	1.475963	-0.000174
1259	1.2517e+02	-10.1291	-35.835635	0.000284	2.836678	0.961092	-0.000114
1260	1.2527e+02	-10.1676	-35.980972	0.000365	3.647157	1.235690	-0.000146
1261	1.2537e+02	-10.2093	-36.138421	0.000395	3.951087	1.338664	-0.000158
1262	1.2547e+02	-10.2446	-36.251460	0.000284	2.836678	0.961092	-0.000114
1263	1.2557e+02	-10.2912	-36.416983	0.000415	4.153706	1.407314	-0.000166
1264	1.2567e+02	-10.3281	-36.546171	0.000324	3.241917	1.098391	-0.000130
1265	1.2577e+02	-10.3649	-36.647100	0.000253	2.532748	0.858118	-0.000101
1266	1.2587e+02	-10.4147	-36.865105	0.000547	5.470735	1.853535	-0.000219
1267	1.2597e+02	-10.4500	-37.010442	0.000365	3.647157	1.235690	-0.000146
1268	1.2607e+02	-10.4949	-37.107333	0.000243	2.431438	0.823793	-0.000097
1269	1.2617e+02	-10.5302	-37.305153	0.000496	4.964186	1.681912	-0.000199
1270	1.2627e+02	-10.5703	-37.402044	0.000243	2.431438	0.823793	-0.000097
1271	1.2636e+02	-10.6120	-37.571604	0.000426	4.255016	1.441639	-0.000170
1272	1.2646e+02	-10.6473	-37.660421	0.000223	2.228818	0.755144	-0.000089
1273	1.2656e+02	-10.6826	-37.846129	0.000466	4.660256	1.578937	-0.000187
1274	1.2666e+02	-10.7275	-38.019726	0.000436	4.356326	1.475963	-0.000174
1275	1.2676e+02	-10.7644	-38.124691	0.000263	2.634058	0.892443	-0.000105
1276	1.2686e+02	-10.8093	-38.302325	0.000446	4.457636	1.510288	-0.000179
1277	1.2696e+02	-10.8398	-38.419402	0.000294	2.937987	0.995417	-0.000118
1278	1.2706e+02	-10.8815	-38.532442	0.000284	2.836678	0.961092	-0.000114
1279	1.2716e+02	-10.9232	-38.685853	0.000385	3.849777	1.304340	-0.000154
1280	1.2726e+02	-10.9697	-38.815042	0.000324	3.241917	1.098391	-0.000130
1281	1.2736e+02	-11.0082	-38.964416	0.000375	3.748467	1.270015	-0.000150
1282	1.2746e+02	-11.0435	-39.089567	0.000314	3.140607	1.064067	-0.000126
1283	1.2756e+02	-11.0852	-39.275275	0.000466	4.660256	1.578937	-0.000187
1284	1.2766e+02	-11.1221	-39.384278	0.000274	2.735368	0.926768	-0.000110
1285	1.2776e+02	-11.1639	-39.586134	0.000507	5.065496	1.716236	-0.000203
1286	1.2786e+02	-11.2072	-39.699174	0.000284	2.836678	0.961092	-0.000114
1287	1.2796e+02	-11.2441	-39.836437	0.000344	3.444537	1.167041	-0.000138
1288	1.2806e+02	-11.2842	-39.981774	0.000365	3.647157	1.235690	-0.000146
1289	1.2816e+02	-11.3275	-40.119036	0.000344	3.444537	1.167041	-0.000138
1290	1.2826e+02	-11.3580	-40.236113	0.000294	2.937987	0.995417	-0.000118
1291	1.2835e+02	-11.3965	-40.377413	0.000355	3.545847	1.201365	-0.000142
1292	1.2845e+02	-11.4446	-40.466230	0.000223	2.228818	0.755144	-0.000089
1293	1.2855e+02	-11.4767	-40.651938	0.000466	4.660256	1.578937	-0.000187
1294	1.2865e+02	-11.5248	-40.789201	0.000344	3.444537	1.167041	-0.000138
1295	1.2875e+02	-11.5665	-40.906278	0.000294	2.937987	0.995417	-0.000118
1296	1.2885e+02	-11.6162	-41.120246	0.000537	5.369425	1.819211	-0.000215
1297	1.2895e+02	-11.6499	-41.221174	0.000253	2.532748	0.858118	-0.000101
1298	1.2905e+02	-11.6788	-41.386697	0.000415	4.153706	1.407314	-0.000166
1299	1.2915e+02	-11.7269	-41.495700	0.000274	2.735368	0.926768	-0.000110
1300	1.2925e+02	-11.7622	-41.653148	0.000395	3.951087	1.338664	-0.000158
1301	1.2935e+02	-11.8072	-41.826745	0.000436	4.356326	1.475963	-0.000174
1302	1.2945e+02	-11.8457	-41.923636	0.000243	2.431438	0.823793	-0.000097
1303	1.2955e+02	-11.8874	-42.097233	0.000436	4.356326	1.475963	-0.000174
1304	1.2965e+02	-11.9227	-42.206236	0.000274	2.735368	0.926768	-0.000110
1305	1.2975e+02	-11.9628	-42.355610	0.000375	3.748467	1.270015	-0.000150
1306	1.2985e+02	-12.0045	-42.460575	0.000263	2.634058	0.892443	-0.000105
1307	1.2995e+02	-12.0446	-42.626098	0.000415	4.153706	1.407314	-0.000166
1308	1.3005e+02	-12.0879	-42.771435	0.000365	3.647157	1.235690	-0.000146
1309	1.3015e+02	-12.1200	-42.896586	0.000314	3.140607	1.064067	-0.000126
1310	1.3025e+02	-12.1681	-43.049997	0.000385	3.849777	1.304340	-0.000154
1311	1.3034e+02	-12.2034	-43.183222	0.000334	3.343227	1.132716	-0.000134
1312	1.3044e+02	-12.2451	-43.360856	0.000446	4.457636	1.510288	-0.000179
1313	1.3054e+02	-12.2932	-43.486008	0.000314	3.140607	1.064067	-0.000126
1314	1.3064e+02	-12.3221	-43.619233	0.000334	3.343227	1.132716	-0.000134
1315	1.3074e+02	-12.3574	-43.780719	0.000405	4.052396	1.372989	-0.000162
1316	1.3084e+02	-12.3943	-43.901833	0.000304	3.039297	1.029742	-0.000122
1317	1.3094e+02	-12.4440	-44.059281	0.000395	3.951087	1.338664	-0.000158
1318	1.3104e+02	-12.4793	-44.156172	0.000243	2.431438	0.823793	-0.000097
1319	1.3114e+02	-12.5258	-44.345918	0.000476	4.761566	1.613262	-0.000191
1320	1.3124e+02	-12.5611	-44.479143	0.000334	3.343227	1.132716	-0.000134
1321	1.3134e+02	-12.5964	-44.592183	0.000284	2.836678	0.961092	-0.000114
1322	1.3144e+02	-12.6365	-44.757705	0.000415	4.153706	1.407314	-0.000166
1323	1.3154e+02	-12.6766	-44.866708	0.000274	2.735368	0.926768	-0.000110
1324	1.3164e+02	-12.7200	-44.995896	0.000324	3.241917	1.098391	-0.000130
1325	1.3174e+02	-12.7585	-45.149308	0.000385	3.849777	1.304340	-0.000154
1326	1.3184e+02	-12.8002	-45.298682	0.000375	3.748467	1.270015	-0.000150
1327	1.3194e+02	-12.8355	-45.464204	0.000415	4.153706	1.407314	-0.000166
1328	1.3204e+02	-12.8820	-45.589355	0.000314	3.140607	1.064067	-0.000126
1329	1.3214e+02	-12.9189	-45.738729	0.000375	3.748467	1.270015	-0.000150
1330	1.3224e+02	-12.9622	-45.896178	0.000395	3.951087	1.338664	-0.000158
1331	1.3234e+02	-12.9879	-46.009217	0.000284	2.836678	0.961092	-0.000114
1332	1.3243e+02	-13.0344	-46.166666	0.000395	3.951087	1.338664	-0.000158
1333	1.3253e+02	-13.0809	-46.291817	0.000314	3.140607	1.064067	-0.000126
1334	1.3263e+02	-13.1162	-46.437154	0.000365	3.647157	1.235690	-0.000146
1335	1.3273e+02	-13.1643	-46.582491	0.000365	3.647157	1.235690	-0.000146
1336	1.3283e+02	-13.1916	-46.756088	0.000436	4.356326	1.475963	-0.000174
1337	1.3293e+02	-13.2397	-46.873164	0.000294	2.937987	0.995417	-0.000118
1338	1.3303e+02	-13.2750	-47.014464	0.000355	3.545847	1.201365	-0.000142
1339	1.3313e+02	-13.3215	-47.123467	0.000274	2.735368	0.926768	-0.000110
1340	1.3323e+02	-13.3584	-47.293027	0.000426	4.255016	1.441639	-0.000170
1341	1.3333e+02	-13.3889	-47.410104	0.000294	2.937987	0.995417	-0.000118
1342	1.3343e+02	-13.4274	-47.559478	0.000375	3.748467	1.270015	-0.000150
1343	1.3353e+02	-13.4820	-47.708852	0.000375	3.748467	1.270015	-0.000150
1344	1.3363e+02	-13.5108	-47.874374	0.000415	4.153706	1.407314	-0.000166
1345	1.3373e+02	-13.5510	-47.971265	0.000243	2.431438	0.823793	-0.000097
1346	1.3383e+02	-13.5895	-48.148899	0.000446	4.457636	1.510288	-0.000179
1347	1.3393e+02	-13.6312	-48.253865	0.000263	2.634058	0.892443	-0.000105
1348	1.3403e+02	-13.6681	-48.463796	0.000527	5.268115	1.784886	-0.000211
1349	1.3413e+02	-13.7098	-48.605096	0.000355	3.545847	1.201365	-0.000142
1350	1.3423e+02	-13.7451	-48.758507	0.000385	3.849777	1.304340	-0.000154
1351	1.3432e+02	-13.8028	-48.883658	0.000314	3.140607	1.064067	-0.000126
1352	1.3442e+02	-13.8365	-49.028995	0.000365	3.647157	1.235690	-0.000146
1353	1.3452e+02	-13.8686	-49.146072	0.000294	2.937987	0.995417	-0.000118
1354	1.3462e+02	-13.9151	-49.267186	0.000304	3.039297	1.029742	-0.000122
1355	1.3472e+02	-13.9616	-49.424634	0.000395	3.951087	1.338664	-0.000158
1356	1.3482e+02	-13.9969	-49.634565	0.000527	5.268115	1.784886	-0.000211
1357	1.3492e+02	-14.0402	-49.759717	0.000314	3.140607	1.064067	-0.000126
1358	1.3502e+02	-14.0627	-49.929276	0.000426	4.255016	1.441639	-0.000170
1359	1.3512e+02	-14.1124	-50.034242	0.000263	2.634058	0.892443	-0.000105
1360	1.3522e+02	-14.1525	-50.219950	0.000466	4.660256	1.578937	-0.000187
1361	1.3532e+02	-14.1959	-50.337027	0.000294	2.937987	0.995417	-0.000118
1362	1.3542e+02	-14.2360	-50.490438	0.000385	3.849777	1.304340	-0.000154
1363	1.3552e+02	-14.2680	-50.664035	0.000436	4.356326	1.475963	-0.000174
1364	1.3562e+02	-14.3098	-50.793223	0.000324	3.241917	1.098391	-0.000130
1365	1.3572e+02	-14.3547	-50.954709	0.000405	4.052396	1.372989	-0.000162
1366	1.3582e+02	-14.3852	-51.108120	0.000385	3.849777	1.304340	-0.000154
1367	1.3592e+02	-14.4349	-51.257494	0.000375	3.748467	1.270015	-0.000150
1368	1.3602e+02	-14.4718	-51.394757	0.000344	3.444537	1.167041	-0.000138
1369	1.3612e+02	-14.5103	-51.576428	0.000456	4.558946	1.544613	-0.000183
1370	1.3622e+02	-14.5552	-51.693505	0.000294	2.937987	0.995417	-0.000118
1371	1.3631e+02	-14.5873	-51.850953	0.000395	3.951087	1.338664	-0.000158
1372	1.3641e+02	-14.6306	-51.968030	0.000294	2.937987	0.995417	-0.000118
1373	1.3651e+02	-14.6771	-52.137589	0.000426	4.255016	1.441639	-0.000170
1374	1.3661e+02	-14.7172	-52.282926	0.000365	3.647157	1.235690	-0.000146
1375	1.3671e+02	-14.7509	-52.416152	0.000334	3.343227	1.132716	-0.000134
1376	1.3681e+02	-14.7958	-52.597823	0.000456	4.558946	1.544613	-0.000183
1377	1.3691e+02	-14.8295	-52.755271	0.000395	3.951087	1.338664	-0.000158
1378	1.3701e+02	-14.8680	-52.908682	0.000385	3.849777	1.304340	-0.000154
1379	1.3711e+02	-14.9017	-53.041908	0.000334	3.343227	1.132716	-0.000134
1380	1.3721e+02	-14.9466	-53.187245	0.000365	3.647157	1.235690	-0.000146
1381	1.3731e+02	-14.9819	-53.340656	0.000385	3.849777	1.304340	-0.000154
1382	1.3741e+02	-15.0301	-53.502141	0.000405	4.052396	1.372989	-0.000162
1383	1.3751e+02	-15.0734	-53.639404	0.000344	3.444537	1.167041	-0.000138
1384	1.3761e+02	-15.1135	-53.800889	0.000405	4.052396	1.372989	-0.000162
1385	1.3771e+02	-15.1536	-53.926041	0.000314	3.140607	1.064067	-0.000126
1386	1.3781e+02	-15.1905	-54.115786	0.000476	4.761566	1.613262	-0.000191
1387	1.3791e+02	-15.2354	-54.277271	0.000405	4.052396	1.372989	-0.000162
1388	1.3801e+02	-15.2755	-54.418571	0.000355	3.545847	1.201365	-0.000142
1389	1.3811e+02	-15.3060	-54.539685	0.000304	3.039297	1.029742	-0.000122
1390	1.3821e+02	-15.3461	-54.721356	0.000456	4.558946	1.544613	-0.000183
1391	1.3831e+02	-15.3974	-54.919176	0.000496	4.964186	1.681912	-0.000199
1392	1.3840e+02	-15.4311	-55.040290	0.000304	3.039297	1.029742	-0.000122
1393	1.3850e+02	-15.4648	-55.169478	0.000324	3.241917	1.098391	-0.000130
1394	1.3860e+02	-15.5017	-55.343075	0.000436	4.356326	1.475963	-0.000174
1395	1.3870e+02	-15.5498	-55.544932	0.000507	5.065496	1.716236	-0.000203
1396	1.3880e+02	-15.5851	-55.670083	0.000314	3.140607	1.064067	-0.000126
1397	1.3890e+02	-15.6252	-55.803309	0.000334	3.343227	1.132716	-0.000134
1398	1.3900e+02	-15.6605	-55.993054	0.000476	4.761566	1.613262	-0.000191
1399	1.3910e+02	-15.7038	-56.154540	0.000405	4.052396	1.372989	-0.000162
1400	1.3920e+02	-15.7488	-56.299876	0.000365	3.647157	1.235690	-0.000146
1401	1.3930e+02	-15.7873	-56.489622	0.000476	4.761566	1.613262	-0.000191
1402	1.3940e+02	-15.8258	-56.638996	0.000375	3.748467	1.270015	-0.000150
1403	1.3950e+02	-15.8707	-56.760110	0.000304	3.039297	1.029742	-0.000122
1404	1.3960e+02	-15.9012	-56.933707	0.000436	4.356326	1.475963	-0.000174
1405	1.3970e+02	-15.9477	-57.111341	0.000446	4.457636	1.510288	-0.000179
1406	1.3980e+02	-15.9878	-57.272826	0.000405	4.052396	1.372989	-0.000162
1407	1.3990e+02	-16.0343	-57.414126	0.000355	3.545847	1.201365	-0.000142
1408	1.4000e+02	-16.0648	-57.615983	0.000507	5.065496	1.716236	-0.000203
1409	1.4010e+02	-16.1065	-57.753245	0.000344	3.444537	1.167041	-0.000138
1410	1.4020e+02	-16.1466	-57.890508	0.000344	3.444537	1.167041	-0.000138
1411	1.4029e+02	-16.1739	-58.100439	0.000527	5.268115	1.784886	-0.000211
1412	1.4039e+02	-16.2188	-58.237702	0.000344	3.444537	1.167041	-0.000138
1413	1.4049e+02	-16.2557	-58.346704	0.000274	2.735368	0.926768	-0.000110
1414	1.4059e+02	-16.3006	-58.556635	0.000527	5.268115	1.784886	-0.000211
1415	1.4069e+02	-16.3455	-58.730232	0.000436	4.356326	1.475963	-0.000174
1416	1.4079e+02	-16.3728	-58.875569	0.000365	3.647157	1.235690	-0.000146
1417	1.4089e+02	-16.4177	-59.061277	0.000466	4.660256	1.578937	-0.000187
1418	1.4099e+02	-16.4594	-59.206614	0.000365	3.647157	1.235690	-0.000146
1419	1.4109e+02	-16.5043	-59.355988	0.000375	3.748467	1.270015	-0.000150
1420	1.4119e+02	-16.5509	-59.549771	0.000486	4.862876	1.647587	-0.000195
1421	1.4129e+02	-16.5830	-59.687033	0.000344	3.444537	1.167041	-0.000138
1422	1.4139e+02	-16.6215	-59.913113	0.000567	5.673355	1.922185	-0.000227
1423	1.4149e+02	-16.6632	-60.034227	0.000304	3.039297	1.029742	-0.000122
1424	1.4159e+02	-16.7129	-60.199750	0.000415	4.153706	1.407314	-0.000166
1425	1.4169e+02	-16.7466	-60.369309	0.000426	4.255016	1.441639	-0.000170
1426	1.4179e+02	-16.7851	-60.550980	0.000456	4.558946	1.544613	-0.000183
1427	1.4189e+02	-16.8252	-60.688243	0.000344	3.444537	1.167041	-0.000138
1428	1.4199e+02	-16.8653	-60.841654	0.000385	3.849777	1.304340	-0.000154
1429	1.4209e+02	-16.9070	-61.015251	0.000436	4.356326	1.475963	-0.000174
1430	1.4219e+02	-16.9439	-61.233256	0.000547	5.470735	1.853535	-0.000219
1431	1.4228e+02	-16.9776	-61.378593	0.000365	3.647157	1.235690	-0.000146
1432	1.4238e+02	-17.0161	-61.564301	0.000466	4.660256	1.578937	-0.000187
1433	1.4248e+02	-17.0626	-61.729824	0.000415	4.153706	1.407314	-0.000166
1434	1.4258e+02	-17.1043	-61.871124	0.000355	3.545847	1.201365	-0.000142
1435	1.4268e+02	-17.1509	-62.052795	0.000456	4.558946	1.544613	-0.000183
1436	1.4278e+02	-17.1845	-62.230429	0.000446	4.457636	1.510288	-0.000179
1437	1.4288e+02	-17.2214	-62.391914	0.000405	4.052396	1.372989	-0.000162
1438	1.4298e+02	-17.2631	-62.565511	0.000436	4.356326	1.475963	-0.000174
1439	1.4308e+02	-17.3033	-62.722959	0.000395	3.951087	1.338664	-0.000158
1440	1.4318e+02	-17.3402	-62.916742	0.000486	4.862876	1.647587	-0.000195
1441	1.4328e+02	-17.3835	-63.102450	0.000466	4.660256	1.578937	-0.000187
1442	1.4338e+02	-17.4156	-63.288158	0.000466	4.660256	1.578937	-0.000187
1443	1.4348e+02	-17.4541	-63.421384	0.000334	3.343227	1.132716	-0.000134
1444	1.4358e+02	-17.4958	-63.607092	0.000466	4.660256	1.578937	-0.000187
1445	1.4368e+02	-17.5391	-63.788763	0.000456	4.558946	1.544613	-0.000183
1446	1.4378e+02	-17.5792	-63.986583	0.000496	4.964186	1.681912	-0.000199
1447	1.4388e+02	-17.6209	-64.168254	0.000456	4.558946	1.544613	-0.000183
1448	1.4398e+02	-17.6578	-64.321665	0.000385	3.849777	1.304340	-0.000154
1449	1.4408e+02	-17.7027	-64.523522	0.000507	5.065496	1.716236	-0.000203
1450	1.4418e+02	-17.7524	-64.672896	0.000375	3.748467	1.270015	-0.000150
1451	1.4428e+02	-17.7781	-64.870716	0.000496	4.964186	1.681912	-0.000199
1452	1.4437e+02	-17.8150	-65.072572	0.000507	5.065496	1.716236	-0.000203
1453	1.4447e+02	-17.8551	-65.242132	0.000426	4.255016	1.441639	-0.000170
1454	1.4457e+02	-17.8936	-65.423803	0.000456	4.558946	1.544613	-0.000183
1455	1.4467e+02	-17.9369	-65.625660	0.000507	5.065496	1.716236	-0.000203
1456	1.4477e+02	-17.9802	-65.779071	0.000385	3.849777	1.304340	-0.000154
1457	1.4487e+02	-18.0203	-66.009188	0.000577	5.774665	1.956509	-0.000231
1458	1.4497e+02	-18.0588	-66.170673	0.000405	4.052396	1.372989	-0.000162
1459	1.4507e+02	-18.0974	-66.324084	0.000385	3.849777	1.304340	-0.000154
1460	1.4517e+02	-18.1391	-66.521904	0.000496	4.964186	1.681912	-0.000199
1461	1.4527e+02	-18.1760	-66.731835	0.000527	5.268115	1.784886	-0.000211
1462	1.4537e+02	-18.2209	-66.921581	0.000476	4.761566	1.613262	-0.000191
1463	1.4547e+02	-18.2514	-67.083066	0.000405	4.052396	1.372989	-0.000162
1464	1.4557e+02	-18.3059	-67.297034	0.000537	5.369425	1.819211	-0.000215
1465	1.4567e+02	-18.3332	-67.502928	0.000517	5.166805	1.750561	-0.000207
1466	1.4577e+02	-18.3765	-67.724971	0.000557	5.572045	1.887860	-0.000223
1467	1.4587e+02	-18.4198	-67.874345	0.000375	3.748467	1.270015	-0.000150
1468	1.4597e+02	-18.4487	-68.064090	0.000476	4.761566	1.613262	-0.000191
1469	1.4607e+02	-18.4936	-68.261910	0.000496	4.964186	1.681912	-0.000199
1470	1.4617e+02	-18.5353	-68.487989	0.000567	5.673355	1.922185	-0.000227
1471	1.4626e+02	-18.5674	-68.665623	0.000446	4.457636	1.510288	-0.000179
1472	1.4636e+02	-18.6107	-68.839220	0.000436	4.356326	1.475963	-0.000174
1473	1.4646e+02	-18.6636	-69.061263	0.000557	5.572045	1.887860	-0.000223
1474	1.4656e+02	-18.6925	-69.246971	0.000466	4.660256	1.578937	-0.000187
1475	1.4666e+02	-18.7406	-69.464976	0.000547	5.470735	1.853535	-0.000219
1476	1.4676e+02	-18.7791	-69.646647	0.000456	4.558946	1.544613	-0.000183
1477	1.4686e+02	-18.8177	-69.900987	0.000638	6.382524	2.162458	-0.000256
1478	1.4696e+02	-18.8578	-70.050361	0.000375	3.748467	1.270015	-0.000150
1479	1.4706e+02	-18.8963	-70.248180	0.000496	4.964186	1.681912	-0.000199
1480	1.4716e+02	-18.9444	-70.514631	0.000669	6.686454	2.265432	-0.000268
1481	1.4726e+02	-18.9701	-70.752822	0.000598	5.977285	2.025159	-0.000239
1482	1.4736e+02	-19.0166	-70.934493	0.000456	4.558946	1.544613	-0.000183
1483	1.4746e+02	-19.0519	-71.124239	0.000476	4.761566	1.613262	-0.000191
1484	1.4756e+02	-19.0968	-71.354356	0.000577	5.774665	1.956509	-0.000231
1485	1.4766e+02	-19.1433	-71.544101	0.000476	4.761566	1.613262	-0.000191
1486	1.4776e+02	-19.1706	-71.774218	0.000577	5.774665	1.956509	-0.000231
1487	1.4786e+02	-19.2155	-71.963963	0.000476	4.761566	1.613262	-0.000191
1488	1.4796e+02	-19.2588	-72.234451	0.000679	6.787764	2.299757	-0.000272
1489	1.4806e+02	-19.2925	-72.436308	0.000507	5.065496	1.716236	-0.000203
1490	1.4816e+02	-19.3358	-72.613942	0.000446	4.457636	1.510288	-0.000179
1491	1.4825e+02	-19.3759	-72.892504	0.000699	6.990384	2.368406	-0.000280
1492	1.4835e+02	-19.4112	-73.094361	0.000507	5.065496	1.716236	-0.000203
1493	1.4845e+02	-19.4593	-73.276032	0.000456	4.558946	1.544613	-0.000183
1494	1.4855e+02	-19.4898	-73.550557	0.000689	6.889074	2.334081	-0.000276
1495	1.4865e+02	-19.5219	-73.756451	0.000517	5.166805	1.750561	-0.000207
1496	1.4875e+02	-19.5748	-73.994642	0.000598	5.977285	2.025159	-0.000239
1497	1.4885e+02	-19.6182	-74.240908	0.000618	6.179905	2.093808	-0.000248
1498	1.4895e+02	-19.6502	-74.442764	0.000507	5.065496	1.716236	-0.000203
1499	1.4905e+02	-19.6936	-74.689030	0.000618	6.179905	2.093808	-0.000248
1500	1.4915e+02	-19.7385	-74.979703	0.000729	7.294314	2.471380	-0.000292
1501	1.4925e+02	-19.7722	-75.193672	0.000537	5.369425	1.819211	-0.000215
1502	1.4935e+02	-19.8091	-75.399566	0.000517	5.166805	1.750561	-0.000207
1503	1.4945e+02	-19.8572	-75.649868	0.000628	6.281214	2.128133	-0.000252
1504	1.4955e+02	-19.8925	-75.900170	0.000628	6.281214	2.128133	-0.000252
1505	1.4965e+02	-19.9278	-76.154510	0.000638	6.382524	2.162458	-0.000256
1506	1.4975e+02	-19.9727	-76.352330	0.000496	4.964186	1.681912	-0.000199
1507	1.4985e+02	-20.0192	-76.626855	0.000689	6.889074	2.334081	-0.000276
1508	1.4995e+02	-19.9631	-76.671263	-0.000111	-1.114409	-0.377572	-0.000045
1509	1.5005e+02	-19.9294	-76.752006	-0.000203	-2.026198	-0.686495	-0.000081
1510	1.5015e+02	-19.8941	-76.812563	-0.000152	-1.519649	-0.514871	-0.000061
1511	1.5025e+02	-19.8540	-76.816600	-0.000010	-0.101310	-0.034325	-0.000004
1512	1.5034e+02	-19.8059	-76.877157	-0.000152	-1.519649	-0.514871	-0.000061
1513	1.5044e+02	-19.7754	-76.889269	-0.000030	-0.303930	-0.102974	-0.000012
1514	1.5054e+02	-19.7273	-76.917529	-0.000071	-0.709169	-0.240273	-0.000028
1515	1.5064e+02	-19.6920	-76.957900	-0.000101	-1.013099	-0.343247	-0.000041
1516	1.5074e+02	-19.6486	-76.945789	0.000030	0.303930	0.102974	0.000012
1517	1.5084e+02	-19.6101	-76.929640	0.000041	0.405240	0.137299	0.000016
1518	1.5094e+02	-19.5700	-76.929640	0.000000	0.000000	0.000000	0.000000
1519	1.5104e+02	-19.5347	-76.998271	-0.000172	-1.722268	-0.583520	-0.000069
1520	1.5114e+02	-19.4962	-76.953863	0.000111	1.114409	0.377572	0.000045
1521	1.5124e+02	-19.4433	-76.921566	0.000081	0.810479	0.274598	0.000032
1522	1.5134e+02	-19.4080	-76.941751	-0.000051	-0.506550	-0.171624	-0.000020
1523	1.5144e+02	-19.3807	-76.945789	-0.000010	-0.101310	-0.034325	-0.000004
1524	1.5154e+02	-19.3358	-76.905417	0.000101	1.013099	0.343247	0.000041
1525	1.5164e+02	-19.2813	-76.865046	0.000101	1.013099	0.343247	0.000041
1526	1.5174e+02	-19.2540	-76.869083	-0.000010	-0.101310	-0.034325	-0.000004
1527	1.5184e+02	-19.2187	-76.848897	0.000051	0.506550	0.171624	0.000020
1528	1.5194e+02	-19.1706	-76.832749	0.000041	0.405240	0.137299	0.000016
1529	1.5204e+02	-19.1353	-76.784303	0.000122	1.215719	0.411897	0.000049
1530	1.5214e+02	-19.0936	-76.776229	0.000020	0.202620	0.068649	0.000008
1531	1.5224e+02	-19.0631	-76.760080	0.000041	0.405240	0.137299	0.000016
1532	1.5233e+02	-19.0230	-76.731820	0.000071	0.709169	0.240273	0.000028
1533	1.5243e+02	-18.9733	-76.651078	0.000203	2.026198	0.686495	0.000081
1534	1.5253e+02	-18.9332	-76.630892	0.000051	0.506550	0.171624	0.000020
1535	1.5263e+02	-18.8979	-76.606669	0.000061	0.607859	0.205948	0.000024
1536	1.5273e+02	-18.8642	-76.521889	0.000213	2.127508	0.720819	0.000085
1537	1.5283e+02	-18.8144	-76.493629	0.000071	0.709169	0.240273	0.000028
1538	1.5293e+02	-18.7759	-76.469407	0.000061	0.607859	0.205948	0.000024
1539	1.5303e+02	-18.7310	-76.404812	0.000162	1.620959	0.549196	0.000065
1540	1.5313e+02	-18.7005	-76.344255	0.000152	1.519649	0.514871	0.000061
1541	1.5323e+02	-18.6476	-76.336181	0.000020	0.202620	0.068649	0.000008
1542	1.5333e+02	-18.6235	-76.275624	0.000152	1.519649	0.514871	0.000061
1543	1.5343e+02	-18.5738	-76.223141	0.000132	1.317029	0.446221	0.000053
1544	1.5353e+02	-18.5401	-76.190844	0.000081	0.810479	0.274598	0.000032
1545	1.5363e+02	-18.5016	-76.102027	0.000223	2.228818	0.755144	0.000089
1546	1.5373e+02	-18.4519	-76.081842	0.000051	0.506550	0.171624	0.000020
1547	1.5383e+02	-18.4166	-75.997062	0.000213	2.127508	0.720819	0.000085
1548	1.5393e+02	-18.3813	-75.960727	0.000091	0.911789	0.308923	0.000037
1549	1.5403e+02	-18.3412	-75.884022	0.000192	1.924888	0.652170	0.000077
1550	1.5413e+02	-18.2979	-75.803279	0.000203	2.026198	0.686495	0.000081
1551	1.5422e+02	-18.2610	-75.791168	0.000030	0.303930	0.102974	0.000012
1552	1.5432e+02	-18.2161	-75.718499	0.000182	1.823578	0.617845	0.000073
1553	1.5442e+02	-18.1776	-75.670054	0.000122	1.215719	0.411897	0.000049
1554	1.5452e+02	-18.1310	-75.573162	0.000243	2.431438	0.823793	0.000097
1555	1.5462e+02	-18.1134	-75.548940	0.000061	0.607859	0.205948	0.000024
1556	1.5472e+02	-18.0621	-75.439937	0.000274	2.735368	0.926768	0.000110
1557	1.5482e+02	-18.0203	-75.403603	0.000091	0.911789	0.308923	0.000037
1558	1.5492e+02	-17.9851	-75.351120	0.000132	1.317029	0.446221	0.000053
1559	1.5502e+02	-17.9449	-75.262303	0.000223	2.228818	0.755144	0.000089
1560	1.5512e+02	-17.8984	-75.189635	0.000182	1.823578	0.617845	0.000073
1561	1.5522e+02	-17.8647	-75.157337	0.000081	0.810479	0.274598	0.000032
1562	1.5532e+02	-17.8214	-75.068520	0.000223	2.228818	0.755144	0.000089
1563	1.5542e+02	-17.7701	-75.003926	0.000162	1.620959	0.549196	0.000065
1564	1.5552e+02	-17.7444	-74.919146	0.000213	2.127508	0.720819	0.000085
1565	1.5562e+02	-17.7027	-74.882812	0.000091	0.911789	0.308923	0.000037
1566	1.5572e+02	-17.6546	-74.757661	0.000314	3.140607	1.064067	0.000126
1567	1.5582e+02	-17.6209	-74.713253	0.000111	1.114409	0.377572	0.000045
1568	1.5592e+02	-17.5776	-74.636547	0.000192	1.924888	0.652170	0.000077
1569	1.5602e+02	-17.5471	-74.551767	0.000213	2.127508	0.720819	0.000085
1570	1.5612e+02	-17.5038	-74.511396	0.000101	1.013099	0.343247	0.000041
1571	1.5622e+02	-17.4589	-74.430653	0.000203	2.026198	0.686495	0.000081
1572	1.5631e+02	-17.4236	-74.353947	0.000192	1.924888	0.652170	0.000077
1573	1.5641e+02	-17.3819	-74.248982	0.000263	2.634058	0.892443	0.000105
1574	1.5651e+02	-17.3353	-74.273205	-0.000061	-0.607859	-0.205948	-0.000024
1575	1.5661e+02	-17.3081	-74.123831	0.000375	3.748467	1.270015	0.000150
1576	1.5671e+02	-17.2615	-74.087496	0.000091	0.911789	0.308923	0.000037
1577	1.5681e+02	-17.2166	-73.978494	0.000274	2.735368	0.926768	0.000110
1578	1.5691e+02	-17.1829	-73.897751	0.000203	2.026198	0.686495	0.000081
1579	1.5701e+02	-17.1380	-73.784711	0.000284	2.836678	0.961092	0.000114
1580	1.5711e+02	-17.1059	-73.716080	0.000172	1.722268	0.583520	0.000069
1581	1.5721e+02	-17.0658	-73.667634	0.000122	1.215719	0.411897	0.000049
1582	1.5731e+02	-17.0289	-73.574780	0.000233	2.330128	0.789469	0.000093
1583	1.5741e+02	-16.9872	-73.506149	0.000172	1.722268	0.583520	0.000069
1584	1.5751e+02	-16.9407	-73.433481	0.000182	1.823578	0.617845	0.000073
1585	1.5761e+02	-16.8942	-73.368886	0.000162	1.620959	0.549196	0.000065
1586	1.5771e+02	-16.8717	-73.304292	0.000162	1.620959	0.549196	0.000065
1587	1.5781e+02	-16.8284	-73.183178	0.000304	3.039297	1.029742	0.000122
1588	1.5791e+02	-16.7819	-73.130695	0.000132	1.317029	0.446221	0.000053
1589	1.5801e+02	-16.7370	-73.005544	0.000314	3.140607	1.064067	0.000126
1590	1.5811e+02	-16.6969	-72.953061	0.000132	1.317029	0.446221	0.000053
1591	1.5821e+02	-16.6632	-72.868282	0.000213	2.127508	0.720819	0.000085
1592	1.5830e+02	-16.6311	-72.763316	0.000263	2.634058	0.892443	0.000105
1593	1.5840e+02	-16.5814	-72.666425	0.000243	2.431438	0.823793	0.000097
1594	1.5850e+02	-16.5412	-72.589719	0.000192	1.924888	0.652170	0.000077
1595	1.5860e+02	-16.5140	-72.480716	0.000274	2.735368	0.926768	0.000110
1596	1.5870e+02	-16.4610	-72.391899	0.000223	2.228818	0.755144	0.000089
1597	1.5880e+02	-16.4161	-72.347491	0.000111	1.114409	0.377572	0.000045
1598	1.5890e+02	-16.3824	-72.254637	0.000233	2.330128	0.789469	0.000093
1599	1.5900e+02	-16.3455	-72.137560	0.000294	2.937987	0.995417	0.000118
1600	1.5910e+02	-16.3022	-72.012409	0.000314	3.140607	1.064067	0.000126
1601	1.5920e+02	-16.2685	-71.947815	0.000162	1.620959	0.549196	0.000065
1602	1.5930e+02	-16.2284	-71.858998	0.000223	2.228818	0.755144	0.000089
1603	1.5940e+02	-16.1883	-71.786329	0.000182	1.823578	0.617845	0.000073
1604	1.5950e+02	-16.1386	-71.689438	0.000243	2.431438	0.823793	0.000097
1605	1.5960e+02	-16.1049	-71.620807	0.000172	1.722268	0.583520	0.000069
1606	1.5970e+02	-16.0712	-71.519878	0.000253	2.532748	0.858118	0.000101
1607	1.5980e+02	-16.0247	-71.427024	0.000233	2.330128	0.789469	0.000093
1608	1.5990e+02	-15.9814	-71.322059	0.000263	2.634058	0.892443	0.000105
1609	1.6000e+02	-15.9509	-71.261501	0.000152	1.519649	0.514871	0.000061
1610	1.6010e+02	-15.9012	-71.164610	0.000243	2.431438	0.823793	0.000097
1611	1.6019e+02	-15.8707	-71.035422	0.000324	3.241917	1.098391	0.000130
1612	1.6029e+02	-15.8225	-70.910271	0.000314	3.140607	1.064067	0.000126
1613	1.6039e+02	-15.7857	-70.902196	0.000020	0.202620	0.068649	0.000008
1614	1.6049e+02	-15.7552	-70.797231	0.000263	2.634058	0.892443	0.000105
1615	1.6059e+02	-15.7135	-70.664005	0.000334	3.343227	1.132716	0.000134
1616	1.6069e+02	-15.6621	-70.583263	0.000203	2.026198	0.686495	0.000081
1617	1.6079e+02	-15.6284	-70.482334	0.000253	2.532748	0.858118	0.000101
1618	1.6089e+02	-15.5867	-70.393517	0.000223	2.228818	0.755144	0.000089
1619	1.6099e+02	-15.5450	-70.316812	0.000192	1.924888	0.652170	0.000077
1620	1.6109e+02	-15.5081	-70.223958	0.000233	2.330128	0.789469	0.000093
1621	1.6119e+02	-15.4680	-70.118992	0.000263	2.634058	0.892443	0.000105
1622	1.6129e+02	-15.4263	-69.977692	0.000355	3.545847	1.201365	0.000142
1623	1.6139e+02	-15.3798	-69.900987	0.000192	1.924888	0.652170	0.000077
1624	1.6149e+02	-15.3509	-69.783910	0.000294	2.937987	0.995417	0.000118
1625	1.6159e+02	-15.3092	-69.715278	0.000172	1.722268	0.583520	0.000069
1626	1.6169e+02	-15.2755	-69.630499	0.000213	2.127508	0.720819	0.000085
1627	1.6179e+02	-15.2322	-69.521496	0.000274	2.735368	0.926768	0.000110
1628	1.6189e+02	-15.1953	-69.448828	0.000182	1.823578	0.617845	0.000073
1629	1.6199e+02	-15.1536	-69.343862	0.000263	2.634058	0.892443	0.000105
1630	1.6209e+02	-15.1103	-69.255045	0.000223	2.228818	0.755144	0.000089
1631	1.6219e+02	-15.0750	-69.117782	0.000344	3.444537	1.167041	0.000138
1632	1.6228e+02	-15.0301	-69.016854	0.000253	2.532748	0.858118	0.000101
1633	1.6238e+02	-14.9900	-68.936111	0.000203	2.026198	0.686495	0.000081
1634	1.6248e+02	-14.9466	-68.851331	0.000213	2.127508	0.720819	0.000085
1635	1.6258e+02	-14.9097	-68.689846	0.000405	4.052396	1.372989	0.000162
1636	1.6268e+02	-14.8744	-68.637363	0.000132	1.317029	0.446221	0.000053
1637	1.6278e+02	-14.8311	-68.540472	0.000243	2.431438	0.823793	0.000097
1638	1.6288e+02	-14.7910	-68.399172	0.000355	3.545847	1.201365	0.000142
1639	1.6298e+02	-14.7493	-68.322467	0.000192	1.924888	0.652170	0.000077
1640	1.6308e+02	-14.7092	-68.217501	0.000263	2.634058	0.892443	0.000105
1641	1.6318e+02	-14.6643	-68.108498	0.000274	2.735368	0.926768	0.000110
1642	1.6328e+02	-14.6386	-67.995459	0.000284	2.836678	0.961092	0.000114
1643	1.6338e+02	-14.5905	-67.930864	0.000162	1.620959	0.549196	0.000065
1644	1.6348e+02	-14.5488	-67.829936	0.000253	2.532748	0.858118	0.000101
1645	1.6358e+02	-14.5151	-67.704785	0.000314	3.140607	1.064067	0.000126
1646	1.6368e+02	-14.4702	-67.571559	0.000334	3.343227	1.132716	0.000134
1647	1.6378e+02	-14.4365	-67.478705	0.000233	2.330128	0.789469	0.000093
1648	1.6388e+02	-14.3964	-67.393925	0.000213	2.127508	0.720819	0.000085
1649	1.6398e+02	-14.3563	-67.268774	0.000314	3.140607	1.064067	0.000126
1650	1.6408e+02	-14.3290	-67.188032	0.000203	2.026198	0.686495	0.000081
1651	1.6418e+02	-14.2729	-67.058843	0.000324	3.241917	1.098391	0.000130
1652	1.6427e+02	-14.2279	-66.970026	0.000223	2.228818	0.755144	0.000089
1653	1.6437e+02	-14.1959	-66.905432	0.000162	1.620959	0.549196	0.000065
1654	1.6447e+02	-14.1541	-66.756058	0.000375	3.748467	1.270015	0.000150
1655	1.6457e+02	-14.1140	-66.659167	0.000243	2.431438	0.823793	0.000097
1656	1.6467e+02	-14.0707	-66.521904	0.000344	3.444537	1.167041	0.000138
1657	1.6477e+02	-14.0402	-66.453273	0.000172	1.722268	0.583520	0.000069
1658	1.6487e+02	-14.0017	-66.332159	0.000304	3.039297	1.029742	0.000122
1659	1.6497e+02	-13.9552	-66.211045	0.000304	3.039297	1.029742	0.000122
1660	1.6507e+02	-13.9119	-66.098005	0.000284	2.836678	0.961092	0.000114
1661	1.6517e+02	-13.8830	-66.017262	0.000203	2.026198	0.686495	0.000081
1662	1.6527e+02	-13.8333	-65.924408	0.000233	2.330128	0.789469	0.000093
1663	1.6537e+02	-13.7916	-65.807331	0.000294	2.937987	0.995417	0.000118
1664	1.6547e+02	-13.7563	-65.649883	0.000395	3.951087	1.338664	0.000158
1665	1.6557e+02	-13.7210	-65.633734	0.000041	0.405240	0.137299	0.000016
1666	1.6567e+02	-13.6793	-65.484360	0.000375	3.748467	1.270015	0.000150
1667	1.6577e+02	-13.6360	-65.363246	0.000304	3.039297	1.029742	0.000122
1668	1.6587e+02	-13.5895	-65.278466	0.000213	2.127508	0.720819	0.000085
1669	1.6597e+02	-13.5542	-65.137167	0.000355	3.545847	1.201365	0.000142
1670	1.6607e+02	-13.5141	-65.040275	0.000243	2.431438	0.823793	0.000097
1671	1.6616e+02	-13.4756	-64.919161	0.000304	3.039297	1.029742	0.000122
1672	1.6626e+02	-13.4451	-64.830344	0.000223	2.228818	0.755144	0.000089
1673	1.6636e+02	-13.4002	-64.693082	0.000344	3.444537	1.167041	0.000138
1674	1.6646e+02	-13.3601	-64.600228	0.000233	2.330128	0.789469	0.000093
1675	1.6656e+02	-13.3215	-64.515448	0.000213	2.127508	0.720819	0.000085
1676	1.6666e+02	-13.2734	-64.418556	0.000243	2.431438	0.823793	0.000097
1677	1.6676e+02	-13.2349	-64.273220	0.000365	3.647157	1.235690	0.000146
1678	1.6686e+02	-13.2028	-64.139994	0.000334	3.343227	1.132716	0.000134
1679	1.6696e+02	-13.1531	-64.071363	0.000172	1.722268	0.583520	0.000069
1680	1.6706e+02	-13.1114	-63.954286	0.000294	2.937987	0.995417	0.000118
1681	1.6716e+02	-13.0777	-63.845283	0.000274	2.735368	0.926768	0.000110
1682	1.6726e+02	-13.0376	-63.752429	0.000233	2.330128	0.789469	0.000093
1683	1.6736e+02	-12.9975	-63.615166	0.000344	3.444537	1.167041	0.000138
1684	1.6746e+02	-12.9574	-63.546535	0.000172	1.722268	0.583520	0.000069
1685	1.6756e+02	-12.9221	-63.429458	0.000294	2.937987	0.995417	0.000118
1686	1.6766e+02	-12.8692	-63.312381	0.000294	2.937987	0.995417	0.000118
1687	1.6776e+02	-12.8403	-63.191267	0.000304	3.039297	1.029742	0.000122
1688	1.6786e+02	-12.8002	-63.074190	0.000294	2.937987	0.995417	0.000118
1689	1.6796e+02	-12.7633	-62.981336	0.000233	2.330128	0.789469	0.000093
1690	1.6806e+02	-12.7280	-62.868296	0.000284	2.836678	0.961092	0.000114
1691	1.6816e+02	-12.6783	-62.791591	0.000192	1.924888	0.652170	0.000077
1692	1.6825e+02	-12.6398	-62.622031	0.000426	4.255016	1.441639	0.000170
1693	1.6835e+02	-12.6061	-62.525140	0.000243	2.431438	0.823793	0.000097
1694	1.6845e+02	-12.5627	-62.412100	0.000284	2.836678	0.961092	0.000114
1695	1.6855e+02	-12.5146	-62.278874	0.000334	3.343227	1.132716	0.000134
1696	1.6865e+02	-12.4825	-62.181983	0.000243	2.431438	0.823793	0.000097
1697	1.6875e+02	-12.4488	-62.105278	0.000192	1.924888	0.652170	0.000077
1698	1.6885e+02	-12.3975	-61.980126	0.000314	3.140607	1.064067	0.000126
1699	1.6895e+02	-12.3558	-61.875161	0.000263	2.634058	0.892443	0.000105
1700	1.6905e+02	-12.3173	-61.741935	0.000334	3.343227	1.132716	0.000134
1701	1.6915e+02	-12.2900	-61.665230	0.000192	1.924888	0.652170	0.000077
1702	1.6925e+02	-12.2371	-61.532004	0.000334	3.343227	1.132716	0.000134
1703	1.6935e+02	-12.2002	-61.418965	0.000284	2.836678	0.961092	0.000114
1704	1.6945e+02	-12.1649	-61.277665	0.000355	3.545847	1.201365	0.000142
1705	1.6955e+02	-12.1200	-61.200959	0.000192	1.924888	0.652170	0.000077
1706	1.6965e+02	-12.0847	-61.108105	0.000233	2.330128	0.789469	0.000093
1707	1.6975e+02	-12.0446	-60.974880	0.000334	3.343227	1.132716	0.000134
1708	1.6985e+02	-11.9981	-60.833580	0.000355	3.545847	1.201365	0.000142
1709	1.6995e+02	-11.9580	-60.764949	0.000172	1.722268	0.583520	0.000069
1710	1.7005e+02	-11.9178	-60.619612	0.000365	3.647157	1.235690	0.000146
1711	1.7015e+02	-11.8793	-60.510609	0.000274	2.735368	0.926768	0.000110
1712	1.7024e+02	-11.8441	-60.389495	0.000304	3.039297	1.029742	0.000122
1713	1.7034e+02	-11.8039	-60.300678	0.000223	2.228818	0.755144	0.000089
1714	1.7044e+02	-11.7574	-60.195712	0.000263	2.634058	0.892443	0.000105
1715	1.7054e+02	-11.7237	-60.050376	0.000365	3.647157	1.235690	0.000146
1716	1.7064e+02	-11.6868	-59.973670	0.000192	1.924888	0.652170	0.000077
1717	1.7074e+02	-11.6355	-59.824296	0.000375	3.748467	1.270015	0.000150
1718	1.7084e+02	-11.6002	-59.739516	0.000213	2.127508	0.720819	0.000085
1719	1.7094e+02	-11.5649	-59.614365	0.000314	3.140607	1.064067	0.000126
1720	1.7104e+02	-11.5248	-59.481139	0.000334	3.343227	1.132716	0.000134
1721	1.7114e+02	-11.4831	-59.380211	0.000253	2.532748	0.858118	0.000101
1722	1.7124e+02	-11.4414	-59.279283	0.000253	2.532748	0.858118	0.000101
1723	1.7134e+02	-11.4109	-59.174317	0.000263	2.634058	0.892443	0.000105
1724	1.7144e+02	-11.3644	-59.033017	0.000355	3.545847	1.201365	0.000142
1725	1.7154e+02	-11.3195	-58.944200	0.000223	2.228818	0.755144	0.000089
1726	1.7164e+02	-11.3018	-58.815012	0.000324	3.241917	1.098391	0.000130
1727	1.7174e+02	-11.2441	-58.693898	0.000304	3.039297	1.029742	0.000122
1728	1.7184e+02	-11.1991	-58.588932	0.000263	2.634058	0.892443	0.000105
1729	1.7194e+02	-11.1655	-58.459744	0.000324	3.241917	1.098391	0.000130
1730	1.7204e+02	-11.1189	-58.358816	0.000253	2.532748	0.858118	0.000101
1731	1.7213e+02	-11.0820	-58.217516	0.000355	3.545847	1.201365	0.000142
1732	1.7223e+02	-11.0532	-58.144847	0.000182	1.823578	0.617845	0.000073
1733	1.7233e+02	-11.0098	-58.060068	0.000213	2.127508	0.720819	0.000085
1734	1.7243e+02	-10.9617	-57.886471	0.000436	4.356326	1.475963	0.000174
1735	1.7253e+02	-10.9216	-57.765357	0.000304	3.039297	1.029742	0.000122
1736	1.7263e+02	-10.8847	-57.676540	0.000223	2.228818	0.755144	0.000089
1737	1.7273e+02	-10.8478	-57.587723	0.000223	2.228818	0.755144	0.000089
1738	1.7283e+02	-10.8013	-57.418163	0.000426	4.255016	1.441639	0.000170
1739	1.7293e+02	-10.7628	-57.317235	0.000253	2.532748	0.858118	0.000101
1740	1.7303e+02	-10.7259	-57.216306	0.000253	2.532748	0.858118	0.000101
1741	1.7313e+02	-10.6842	-57.091155	0.000314	3.140607	1.064067	0.000126
1742	1.7323e+02	-10.6473	-57.002338	0.000223	2.228818	0.755144	0.000089
1743	1.7333e+02	-10.6008	-56.877187	0.000314	3.140607	1.064067	0.000126
1744	1.7343e+02	-10.5623	-56.752036	0.000314	3.140607	1.064067	0.000126
1745	1.7353e+02	-10.5286	-56.634959	0.000294	2.937987	0.995417	0.000118
1746	1.7363e+02	-10.4837	-56.501733	0.000334	3.343227	1.132716	0.000134
1747	1.7373e+02	-10.4452	-56.372545	0.000324	3.241917	1.098391	0.000130
1748	1.7383e+02	-10.4018	-56.243357	0.000324	3.241917	1.098391	0.000130
1749	1.7393e+02	-10.3666	-56.102057	0.000355	3.545847	1.201365	0.000142
1750	1.7403e+02	-10.3361	-56.005166	0.000243	2.431438	0.823793	0.000097
1751	1.7413e+02	-10.2879	-55.916349	0.000223	2.228818	0.755144	0.000089
1752	1.7422e+02	-10.2510	-55.775049	0.000355	3.545847	1.201365	0.000142
1753	1.7432e+02	-10.2109	-55.662009	0.000284	2.836678	0.961092	0.000114
1754	1.7442e+02	-10.1660	-55.516672	0.000365	3.647157	1.235690	0.000146
1755	1.7452e+02	-10.1307	-55.407669	0.000274	2.735368	0.926768	0.000110
1756	1.7462e+02	-10.1035	-55.258295	0.000375	3.748467	1.270015	0.000150
1757	1.7472e+02	-10.0457	-55.157367	0.000253	2.532748	0.858118	0.000101
1758	1.7482e+02	-10.0088	-54.991844	0.000415	4.153706	1.407314	0.000166
1759	1.7492e+02	-9.9655	-54.947436	0.000111	1.114409	0.377572	0.000045
1760	1.7502e+02	-9.9174	-54.794025	0.000385	3.849777	1.304340	0.000154
1761	1.7512e+02	-9.8901	-54.697134	0.000243	2.431438	0.823793	0.000097
1762	1.7522e+02	-9.8468	-54.515462	0.000456	4.558946	1.544613	0.000183
1763	1.7532e+02	-9.8003	-54.454905	0.000152	1.519649	0.514871	0.000061
1764	1.7542e+02	-9.7762	-54.257086	0.000496	4.964186	1.681912	0.000199
1765	1.7552e+02	-9.7361	-54.127897	0.000324	3.241917	1.098391	0.000130
1766	1.7562e+02	-9.6864	-54.018895	0.000274	2.735368	0.926768	0.000110
1767	1.7572e+02	-9.6527	-53.909892	0.000274	2.735368	0.926768	0.000110
1768	1.7582e+02	-9.6222	-53.780704	0.000324	3.241917	1.098391	0.000130
1769	1.7592e+02	-9.5741	-53.663627	0.000294	2.937987	0.995417	0.000118
1770	1.7602e+02	-9.5291	-53.558661	0.000263	2.634058	0.892443	0.000105
1771	1.7612e+02	-9.4906	-53.441584	0.000294	2.937987	0.995417	0.000118
1772	1.7621e+02	-9.4521	-53.251839	0.000476	4.761566	1.613262	0.000191
1773	1.7631e+02	-9.4088	-53.191282	0.000152	1.519649	0.514871	0.000061
1774	1.7641e+02	-9.3703	-53.005574	0.000466	4.660256	1.578937	0.000187
1775	1.7651e+02	-9.3302	-52.900608	0.000263	2.634058	0.892443	0.000105
1776	1.7661e+02	-9.2901	-52.783531	0.000294	2.937987	0.995417	0.000118
1777	1.7671e+02	-9.2628	-52.658380	0.000314	3.140607	1.064067	0.000126
1778	1.7681e+02	-9.2131	-52.500932	0.000395	3.951087	1.338664	0.000158
1779	1.7691e+02	-9.1698	-52.387892	0.000284	2.836678	0.961092	0.000114
1780	1.7701e+02	-9.1329	-52.246592	0.000355	3.545847	1.201365	0.000142
1781	1.7711e+02	-9.0992	-52.117404	0.000324	3.241917	1.098391	0.000130
1782	1.7721e+02	-9.0543	-52.000327	0.000294	2.937987	0.995417	0.000118
1783	1.7731e+02	-9.0142	-51.854990	0.000365	3.647157	1.235690	0.000146
1784	1.7741e+02	-8.9757	-51.709653	0.000365	3.647157	1.235690	0.000146
1785	1.7751e+02	-8.9420	-51.576428	0.000334	3.343227	1.132716	0.000134
1786	1.7761e+02	-8.8987	-51.487611	0.000223	2.228818	0.755144	0.000089
1787	1.7771e+02	-8.8618	-51.354385	0.000334	3.343227	1.132716	0.000134
1788	1.7781e+02	-8.8153	-51.237308	0.000294	2.937987	0.995417	0.000118
1789	1.7791e+02	-8.7687	-51.096008	0.000355	3.545847	1.201365	0.000142
1790	1.7801e+02	-8.7415	-50.966820	0.000324	3.241917	1.098391	0.000130
1791	1.7810e+02	-8.6869	-50.797260	0.000426	4.255016	1.441639	0.000170
1792	1.7820e+02	-8.6532	-50.680183	0.000294	2.937987	0.995417	0.000118
1793	1.7830e+02	-8.6308	-50.550995	0.000324	3.241917	1.098391	0.000130
1794	1.7840e+02	-8.5698	-50.389510	0.000405	4.052396	1.372989	0.000162
1795	1.7850e+02	-8.5345	-50.284544	0.000263	2.634058	0.892443	0.000105
1796	1.7860e+02	-8.4944	-50.147282	0.000344	3.444537	1.167041	0.000138
1797	1.7870e+02	-8.4543	-50.018093	0.000324	3.241917	1.098391	0.000130
1798	1.7880e+02	-8.4206	-49.901016	0.000294	2.937987	0.995417	0.000118
1799	1.7890e+02	-8.3741	-49.747605	0.000385	3.849777	1.304340	0.000154
1800	1.7900e+02	-8.3388	-49.614380	0.000334	3.343227	1.132716	0.000134
1801	1.7910e+02	-8.2971	-49.448857	0.000415	4.153706	1.407314	0.000166
1802	1.7920e+02	-8.2618	-49.339854	0.000274	2.735368	0.926768	0.000110
1803	1.7930e+02	-8.2201	-49.206629	0.000334	3.343227	1.132716	0.000134
1804	1.7940e+02	-8.1784	-49.045144	0.000405	4.052396	1.372989	0.000162
1805	1.7950e+02	-8.1383	-48.948252	0.000243	2.431438	0.823793	0.000097
1806	1.7960e+02	-8.0950	-48.819064	0.000324	3.241917	1.098391	0.000130
1807	1.7970e+02	-8.0532	-48.665653	0.000385	3.849777	1.304340	0.000154
1808	1.7980e+02	-8.0180	-48.532427	0.000334	3.343227	1.132716	0.000134
1809	1.7990e+02	-7.9762	-48.370942	0.000405	4.052396	1.372989	0.000162
1810	1.8000e+02	-7.9313	-48.221568	0.000375	3.748467	1.270015	0.000150
1811	1.8009e+02	-7.8976	-48.100454	0.000304	3.039297	1.029742	0.000122
1812	1.8019e+02	-7.8607	-47.955117	0.000365	3.647157	1.235690	0.000146
1813	1.8029e+02	-7.8351	-47.817854	0.000344	3.444537	1.167041	0.000138
1814	1.8039e+02	-7.7805	-47.700777	0.000294	2.937987	0.995417	0.000118
1815	1.8049e+02	-7.7356	-47.515069	0.000466	4.660256	1.578937	0.000187
1816	1.8059e+02	-7.7035	-47.406066	0.000274	2.735368	0.926768	0.000110
1817	1.8069e+02	-7.6634	-47.252655	0.000385	3.849777	1.304340	0.000154
1818	1.8079e+02	-7.6137	-47.123467	0.000324	3.241917	1.098391	0.000130
1819	1.8089e+02	-7.5816	-47.002353	0.000304	3.039297	1.029742	0.000122
1820	1.8099e+02	-7.5367	-46.844905	0.000395	3.951087	1.338664	0.000158
1821	1.8109e+02	-7.4982	-46.695531	0.000375	3.748467	1.270015	0.000150
1822	1.8119e+02	-7.4645	-46.534045	0.000405	4.052396	1.372989	0.000162
1823	1.8129e+02	-7.4196	-46.396782	0.000344	3.444537	1.167041	0.000138
1824	1.8139e+02	-7.3682	-46.267594	0.000324	3.241917	1.098391	0.000130
1825	1.8149e+02	-7.3410	-46.122257	0.000365	3.647157	1.235690	0.000146
1826	1.8159e+02	-7.3025	-45.984995	0.000344	3.444537	1.167041	0.000138
1827	1.8169e+02	-7.2592	-45.843695	0.000355	3.545847	1.201365	0.000142
1828	1.8179e+02	-7.2142	-45.710469	0.000334	3.343227	1.132716	0.000134
1829	1.8189e+02	-7.1822	-45.561095	0.000375	3.748467	1.270015	0.000150
1830	1.8199e+02	-7.1436	-45.399610	0.000405	4.052396	1.372989	0.000162
1831	1.8209e+02	-7.1019	-45.298682	0.000253	2.532748	0.858118	0.000101
1832	1.8218e+02	-7.0554	-45.108936	0.000476	4.761566	1.613262	0.000191
1833	1.8228e+02	-7.0169	-45.020119	0.000223	2.228818	0.755144	0.000089
1834	1.8238e+02	-6.9736	-44.826337	0.000486	4.862876	1.647587	0.000195
1835	1.8248e+02	-6.9399	-44.701185	0.000314	3.140607	1.064067	0.000126
1836	1.8258e+02	-6.9014	-44.576034	0.000314	3.140607	1.064067	0.000126
1837	1.8268e+02	-6.8677	-44.398400	0.000446	4.457636	1.510288	0.000179
1838	1.8278e+02	-6.8164	-44.269212	0.000324	3.241917	1.098391	0.000130
1839	1.8288e+02	-6.7843	-44.119838	0.000375	3.748467	1.270015	0.000150
1840	1.8298e+02	-6.7442	-43.962390	0.000395	3.951087	1.338664	0.000158
1841	1.8308e+02	-6.7009	-43.825127	0.000344	3.444537	1.167041	0.000138
1842	1.8318e+02	-6.6608	-43.683827	0.000355	3.545847	1.201365	0.000142
1843	1.8328e+02	-6.6239	-43.542528	0.000355	3.545847	1.201365	0.000142
1844	1.8338e+02	-6.5902	-43.425451	0.000294	2.937987	0.995417	0.000118
1845	1.8348e+02	-6.5356	-43.231668	0.000486	4.862876	1.647587	0.000195
1846	1.8358e+02	-6.5052	-43.118628	0.000284	2.836678	0.961092	0.000114
1847	1.8368e+02	-6.4683	-42.949069	0.000426	4.255016	1.441639	0.000170
1848	1.8378e+02	-6.4314	-42.819880	0.000324	3.241917	1.098391	0.000130
1849	1.8388e+02	-6.3848	-42.658395	0.000405	4.052396	1.372989	0.000162
1850	1.8398e+02	-6.3447	-42.557466	0.000253	2.532748	0.858118	0.000101
1851	1.8407e+02	-6.3094	-42.412129	0.000365	3.647157	1.235690	0.000146
1852	1.8417e+02	-6.2709	-42.238533	0.000436	4.356326	1.475963	0.000174
1853	1.8427e+02	-6.2212	-42.125493	0.000284	2.836678	0.961092	0.000114
1854	1.8437e+02	-6.1923	-41.984193	0.000355	3.545847	1.201365	0.000142
1855	1.8447e+02	-6.1506	-41.842893	0.000355	3.545847	1.201365	0.000142
1856	1.8457e+02	-6.1089	-41.705631	0.000344	3.444537	1.167041	0.000138
1857	1.8467e+02	-6.0624	-41.503774	0.000507	5.065496	1.716236	0.000203
1858	1.8477e+02	-6.0303	-41.378623	0.000314	3.140607	1.064067	0.000126
1859	1.8487e+02	-5.9838	-41.253472	0.000314	3.140607	1.064067	0.000126
1860	1.8497e+02	-5.9437	-41.087949	0.000415	4.153706	1.407314	0.000166
1861	1.8507e+02	-5.9052	-40.954723	0.000334	3.343227	1.132716	0.000134
1862	1.8517e+02	-5.8683	-40.785164	0.000426	4.255016	1.441639	0.000170
1863	1.8527e+02	-5.8298	-40.635790	0.000375	3.748467	1.270015	0.000150
1864	1.8537e+02	-5.7833	-40.474304	0.000405	4.052396	1.372989	0.000162
1865	1.8547e+02	-5.7480	-40.337042	0.000344	3.444537	1.167041	0.000138
1866	1.8557e+02	-5.7047	-40.252262	0.000213	2.127508	0.720819	0.000085
1867	1.8567e+02	-5.6694	-40.070591	0.000456	4.558946	1.544613	0.000183
1868	1.8577e+02	-5.6293	-39.921217	0.000375	3.748467	1.270015	0.000150
1869	1.8587e+02	-5.5875	-39.763768	0.000395	3.951087	1.338664	0.000158
1870	1.8597e+02	-5.5442	-39.606320	0.000395	3.951087	1.338664	0.000158
1871	1.8606e+02	-5.5137	-39.460983	0.000365	3.647157	1.235690	0.000146
1872	1.8616e+02	-5.4688	-39.295461	0.000415	4.153706	1.407314	0.000166
1873	1.8626e+02	-5.4303	-39.186458	0.000274	2.735368	0.926768	0.000110
1874	1.8636e+02	-5.3902	-38.984601	0.000507	5.065496	1.716236	0.000203
1875	1.8646e+02	-5.3469	-38.859450	0.000314	3.140607	1.064067	0.000126
1876	1.8656e+02	-5.3084	-38.750447	0.000274	2.735368	0.926768	0.000110
1877	1.8666e+02	-5.2619	-38.572813	0.000446	4.457636	1.510288	0.000179
1878	1.8676e+02	-5.2298	-38.419402	0.000385	3.849777	1.304340	0.000154
1879	1.8686e+02	-5.2009	-38.274065	0.000365	3.647157	1.235690	0.000146
1880	1.8696e+02	-5.1528	-38.096431	0.000446	4.457636	1.510288	0.000179
1881	1.8706e+02	-5.1095	-37.914760	0.000456	4.558946	1.544613	0.000183
1882	1.8716e+02	-5.0662	-37.821906	0.000233	2.330128	0.789469	0.000093
1883	1.8726e+02	-5.0357	-37.640235	0.000456	4.558946	1.544613	0.000183
1884	1.8736e+02	-4.9956	-37.486824	0.000385	3.849777	1.304340	0.000154
1885	1.8746e+02	-4.9442	-37.341487	0.000365	3.647157	1.235690	0.000146
1886	1.8756e+02	-4.9009	-37.208262	0.000334	3.343227	1.132716	0.000134
1887	1.8766e+02	-4.8705	-37.034665	0.000436	4.356326	1.475963	0.000174
1888	1.8776e+02	-4.8368	-36.917588	0.000294	2.937987	0.995417	0.000118
1889	1.8786e+02	-4.8015	-36.727842	0.000476	4.761566	1.613262	0.000191
1890	1.8796e+02	-4.7501	-36.582505	0.000365	3.647157	1.235690	0.000146
1891	1.8806e+02	-4.7132	-36.425057	0.000395	3.951087	1.338664	0.000158
1892	1.8815e+02	-4.6763	-36.271646	0.000385	3.849777	1.304340	0.000154
1893	1.8825e+02	-4.6266	-36.114198	0.000395	3.951087	1.338664	0.000158
1894	1.8835e+02	-4.5897	-35.968861	0.000365	3.647157	1.235690	0.000146
1895	1.8845e+02	-4.5528	-35.831598	0.000344	3.444537	1.167041	0.000138
1896	1.8855e+02	-4.5143	-35.662039	0.000426	4.255016	1.441639	0.000170
1897	1.8865e+02	-4.4790	-35.544962	0.000294	2.937987	0.995417	0.000118
1898	1.8875e+02	-4.4277	-35.339068	0.000517	5.166805	1.750561	0.000207
1899	1.8885e+02	-4.3860	-35.226028	0.000284	2.836678	0.961092	0.000114
1900	1.8895e+02	-4.3539	-35.028208	0.000496	4.964186	1.681912	0.000199
1901	1.8905e+02	-4.3202	-34.870760	0.000395	3.951087	1.338664	0.000158
1902	1.8915e+02	-4.2753	-34.745609	0.000314	3.140607	1.064067	0.000126
1903	1.8925e+02	-4.2336	-34.596235	0.000375	3.748467	1.270015	0.000150
1904	1.8935e+02	-4.1983	-34.434749	0.000405	4.052396	1.372989	0.000162
1905	1.8945e+02	-4.1534	-34.257115	0.000446	4.457636	1.510288	0.000179
1906	1.8955e+02	-4.1100	-34.148113	0.000274	2.735368	0.926768	0.000110
1907	1.8965e+02	-4.0683	-33.974516	0.000436	4.356326	1.475963	0.000174
1908	1.8975e+02	-4.0346	-33.780733	0.000486	4.862876	1.647587	0.000195
1909	1.8985e+02	-3.9913	-33.651545	0.000324	3.241917	1.098391	0.000130
1910	1.8995e+02	-3.9609	-33.514282	0.000344	3.444537	1.167041	0.000138
1911	1.9004e+02	-3.9127	-33.372983	0.000355	3.545847	1.201365	0.000142
1912	1.9014e+02	-3.8646	-33.203423	0.000426	4.255016	1.441639	0.000170
1913	1.9024e+02	-3.8357	-33.033863	0.000426	4.255016	1.441639	0.000170
1914	1.9034e+02	-3.7956	-32.880452	0.000385	3.849777	1.304340	0.000154
1915	1.9044e+02	-3.7587	-32.723004	0.000395	3.951087	1.338664	0.000158
1916	1.9054e+02	-3.7170	-32.569593	0.000385	3.849777	1.304340	0.000154
1917	1.9064e+02	-3.6801	-32.359662	0.000527	5.268115	1.784886	0.000211
1918	1.9074e+02	-3.6448	-32.230473	0.000324	3.241917	1.098391	0.000130
1919	1.9084e+02	-3.6015	-32.089173	0.000355	3.545847	1.201365	0.000142
1920	1.9094e+02	-3.5566	-31.915577	0.000436	4.356326	1.475963	0.000174
1921	1.9104e+02	-3.5181	-31.737943	0.000446	4.457636	1.510288	0.000179
1922	1.9114e+02	-3.4716	-31.576457	0.000405	4.052396	1.372989	0.000162
1923	1.9124e+02	-3.4459	-31.435157	0.000355	3.545847	1.201365	0.000142
1924	1.9134e+02	-3.4026	-31.253486	0.000456	4.558946	1.544613	0.000183
1925	1.9144e+02	-3.3641	-31.087964	0.000415	4.153706	1.407314	0.000166
1926	1.9154e+02	-3.3047	-30.950701	0.000344	3.444537	1.167041	0.000138
1927	1.9164e+02	-3.2807	-30.769030	0.000456	4.558946	1.544613	0.000183
1928	1.9174e+02	-3.2373	-30.603507	0.000415	4.153706	1.407314	0.000166
1929	1.9184e+02	-3.1924	-30.421836	0.000456	4.558946	1.544613	0.000183
1930	1.9194e+02	-3.1603	-30.284574	0.000344	3.444537	1.167041	0.000138
1931	1.9203e+02	-3.1106	-30.131163	0.000385	3.849777	1.304340	0.000154
1932	1.9213e+02	-3.0849	-29.973714	0.000395	3.951087	1.338664	0.000158
1933	1.9223e+02	-3.0416	-29.727449	0.000618	6.179905	2.093808	0.000248
1934	1.9233e+02	-3.0031	-29.614409	0.000284	2.836678	0.961092	0.000114
1935	1.9243e+02	-2.9678	-29.460998	0.000385	3.849777	1.304340	0.000154
1936	1.9253e+02	-2.9149	-29.287401	0.000436	4.356326	1.475963	0.000174
1937	1.9263e+02	-2.8812	-29.101693	0.000466	4.660256	1.578937	0.000187
1938	1.9273e+02	-2.8363	-28.988653	0.000284	2.836678	0.961092	0.000114
1939	1.9283e+02	-2.8090	-28.750462	0.000598	5.977285	2.025159	0.000239
1940	1.9293e+02	-2.7561	-28.641459	0.000274	2.735368	0.926768	0.000110
1941	1.9303e+02	-2.7144	-28.435566	0.000517	5.166805	1.750561	0.000207
1942	1.9313e+02	-2.6727	-28.249857	0.000466	4.660256	1.578937	0.000187
1943	1.9323e+02	-2.6390	-28.084335	0.000415	4.153706	1.407314	0.000166
1944	1.9333e+02	-2.5956	-27.934961	0.000375	3.748467	1.270015	0.000150
1945	1.9343e+02	-2.5539	-27.765401	0.000426	4.255016	1.441639	0.000170
1946	1.9353e+02	-2.5219	-27.624101	0.000355	3.545847	1.201365	0.000142
1947	1.9363e+02	-2.4801	-27.377836	0.000618	6.179905	2.093808	0.000248
1948	1.9373e+02	-2.4400	-27.301130	0.000192	1.924888	0.652170	0.000077
1949	1.9383e+02	-2.3951	-27.091199	0.000527	5.268115	1.784886	0.000211
1950	1.9393e+02	-2.3630	-26.917603	0.000436	4.356326	1.475963	0.000174
1951	1.9403e+02	-2.3261	-26.756117	0.000405	4.052396	1.372989	0.000162
1952	1.9412e+02	-2.2764	-26.606743	0.000375	3.748467	1.270015	0.000150
1953	1.9422e+02	-2.2475	-26.392775	0.000537	5.369425	1.819211	0.000215
1954	1.9432e+02	-2.1978	-26.239364	0.000385	3.849777	1.304340	0.000154
1955	1.9442e+02	-2.1641	-26.025396	0.000537	5.369425	1.819211	0.000215
1956	1.9452e+02	-2.1176	-25.928504	0.000243	2.431438	0.823793	0.000097
1957	1.9462e+02	-2.0855	-25.706462	0.000557	5.572045	1.887860	0.000223
1958	1.9472e+02	-2.0454	-25.532865	0.000436	4.356326	1.475963	0.000174
1959	1.9482e+02	-1.9973	-25.379454	0.000385	3.849777	1.304340	0.000154
1960	1.9492e+02	-1.9620	-25.177597	0.000507	5.065496	1.716236	0.000203
1961	1.9502e+02	-1.9203	-25.036297	0.000355	3.545847	1.201365	0.000142
1962	1.9512e+02	-1.8802	-24.838478	0.000496	4.964186	1.681912	0.000199
1963	1.9522e+02	-1.8433	-24.656807	0.000456	4.558946	1.544613	0.000183
1964	1.9532e+02	-1.7951	-24.463024	0.000486	4.862876	1.647587	0.000195
1965	1.9542e+02	-1.7614	-24.309613	0.000385	3.849777	1.304340	0.000154
1966	1.9552e+02	-1.7165	-24.123905	0.000466	4.660256	1.578937	0.000187
1967	1.9562e+02	-1.6860	-23.946271	0.000446	4.457636	1.510288	0.000179
1968	1.9572e+02	-1.6492	-23.776711	0.000426	4.255016	1.441639	0.000170
1969	1.9582e+02	-1.5946	-23.591003	0.000466	4.660256	1.578937	0.000187
1970	1.9592e+02	-1.5673	-23.449703	0.000355	3.545847	1.201365	0.000142
1971	1.9601e+02	-1.5272	-23.247846	0.000507	5.065496	1.716236	0.000203
1972	1.9611e+02	-1.4807	-23.070212	0.000446	4.457636	1.510288	0.000179
1973	1.9621e+02	-1.4486	-22.924875	0.000365	3.647157	1.235690	0.000146
1974	1.9631e+02	-1.4069	-22.723019	0.000507	5.065496	1.716236	0.000203
1975	1.9641e+02	-1.3572	-22.553459	0.000426	4.255016	1.441639	0.000170
1976	1.9651e+02	-1.3251	-22.367751	0.000466	4.660256	1.578937	0.000187
1977	1.9661e+02	-1.2850	-22.161857	0.000517	5.166805	1.750561	0.000207
1978	1.9671e+02	-1.2385	-22.000371	0.000405	4.052396	1.372989	0.000162
1979	1.9681e+02	-1.2000	-21.810626	0.000476	4.761566	1.613262	0.000191
1980	1.9691e+02	-1.1743	-21.612806	0.000496	4.964186	1.681912	0.000199
1981	1.9701e+02	-1.1214	-21.487655	0.000314	3.140607	1.064067	0.000126
1982	1.9711e+02	-1.0861	-21.301947	0.000466	4.660256	1.578937	0.000187
1983	1.9721e+02	-1.0492	-21.112201	0.000476	4.761566	1.613262	0.000191
1984	1.9731e+02	-1.0075	-20.918419	0.000486	4.862876	1.647587	0.000195
1985	1.9741e+02	-0.9641	-20.724636	0.000486	4.862876	1.647587	0.000195
1986	1.9751e+02	-0.9224	-20.563151	0.000405	4.052396	1.372989	0.000162
1987	1.9761e+02	-0.8791	-20.381480	0.000456	4.558946	1.544613	0.000183
1988	1.9771e+02	-0.8470	-20.203846	0.000446	4.457636	1.510288	0.000179
1989	1.9781e+02	-0.7989	-20.006026	0.000496	4.964186	1.681912	0.000199
1990	1.9791e+02	-0.7604	-19.836466	0.000426	4.255016	1.441639	0.000170
1991	1.9800e+02	-0.7267	-19.618461	0.000547	5.470735	1.853535	0.000219
1992	1.9810e+02	-0.6850	-19.461013	0.000395	3.951087	1.338664	0.000158
1993	1.9820e+02	-0.6481	-19.291453	0.000426	4.255016	1.441639	0.000170
1994	1.9830e+02	-0.6048	-19.069411	0.000557	5.572045	1.887860	0.000223
1995	1.9840e+02	-0.5599	-18.911962	0.000395	3.951087	1.338664	0.000158
1996	1.9850e+02	-0.5326	-18.738366	0.000436	4.356326	1.475963	0.000174
1997	1.9860e+02	-0.4893	-18.552657	0.000466	4.660256	1.578937	0.000187
1998	1.9870e+02	-0.4396	-18.350800	0.000507	5.065496	1.716236	0.000203
1999	1.9880e+02	-0.4011	-18.144907	0.000517	5.166805	1.750561	0.000207
2000	1.9890e+02	-0.3690	-17.979384	0.000415	4.153706	1.407314	0.000166
2001	1.9900e+02	-0.3273	-17.834047	0.000365	3.647157	1.235690	0.000146
2002	1.9910e+02	-0.2904	-17.644302	0.000476	4.761566	1.613262	0.000191
2003	1.9920e+02	-0.2535	-17.446482	0.000496	4.964186	1.681912	0.000199
2004	1.9930e+02	-0.2053	-17.268848	0.000446	4.457636	1.510288	0.000179
2005	1.9940e+02	-0.1700	-17.095251	0.000436	4.356326	1.475963	0.000174
2006	1.9950e+02	-0.1219	-16.909543	0.000466	4.660256	1.578937	0.000187
2007	1.9960e+02	-0.0898	-16.711723	0.000496	4.964186	1.681912	0.000199
2008	1.9970e+02	-0.0545	-16.550238	0.000405	4.052396	1.372989	0.000162
2009	1.9980e+02	0.0016	-16.372604	0.000405	4.052396	1.372989	0.000179

Center data before PMax,+/-Pr and +/-Vc Calc.

PMax (uC/cm2):	7.70e+01
Pr (uC/cm2):	7.30e+00
-Pr (uC/cm2):	-1.64e+01
PLoss (uC/cm2):	-1.74e+01
-Vc:	-1.58e+00
C (Max-Eff) (nF):	3.85e-01
K (Eff):	1.31e+03
Vert. (+/-Pr) Shift (uC/cm2):	-4.53e+00
Offset (uC/cm2):	-1.08e+00

A (Loop Area - uC/cm2·Volts):	3.23e-01



Hysteresis Version: 5.48.1 - Radiant Technologies, Inc., 1999 - 9/12/24

