»»»»»»»»»»»»»»»»»»»»»»»»»»»»»»»»»»»» Hysteresis ««««««««««««««««««««««««««««««««««««
»»»  Executed Version:	5.48.1
»»»  Vision Version:	5.48.4 (R)
»»»  Vision Compiled:	9/18/24
»»»  Driver Version:	5.47.0
»»»  Windows Version:	Windows 8 or 8.1
»»»  Processor Information:	x86 (AMD or Intel) - 32 Processors
»»»  Tester Name:	PMF21124-494 (100V)
»»»  Tester S/N:	PMF21124-494
»»»  Internal Amp Type:	100V RevK 270k
»»»  Internal Amp S/N:	iAB2-596/K     
»»»  Execution Count:	1
»»»»»»»»»»»»»»»»»»»»»»»»»»»»»»»»»»»»»»»»»»««««««««««««««««««««««««««««««««««««««««««

Stored:	6/16/2025 - 10:26:1
Configured:	06/16/25 10:13:01 AM
Executed:	06/16/25 10:25:16 AM

»»»»»»»»»»»»»»»»»»»»»»»»»»»»»»»»»»» Sample Info ««««««««««««««««««««««««««««««««««««
Sample Name:	
Lot Name:	
Wafer Name:	
Die Row/Column:	0/0
Capacitor Number:	0
Sample Area (cm2):	1.00e-04
Sample Thickness (microns):	3.00e-01

Amplifier:	Internal

»»»»»»»»»»»»»»»»»»»»»»»»»»»»»»»»»»» Tester Info «««««««««««««««««««««««««««««««««««
Tester Name:	PMF21124-494 (100V)
Tester Serial Number:	PMF21124-494
Return Signal Amp. Level:	0.19 [Index: 3]

»»»»»»»»»»»»»»»»»»»»»»»»»»»»»»»» Hysteresis Info ««««««««««««««««««««««««««««««««««
Task Name:	Hyst-2190
Volts:	20.00
Field:	666.67 (kV/cm)
DCBias:	0.00
DCField:	0.00 (kV/cm)
Hysteresis Period (ms):	2.00e+02
Preset:	Enabled
Preset Delay (ms):	1.00e+03
Profile:	Standard Bipolar

»»»»»»»»»»»»»»»»»»»»»»»»»»»»»»»»»»»»»» Data «««««««««««««««««««««««««««««««««««««««
Points:	2009

Valid Data

Point	Time (ms)	Drive Voltage	Measured Polarization (uC/cm2)	Capacitance (uF)	Normalized Capacitance (uF/cm2)	Dielectric Constant	Instantaneous Current (mA)
   1	0.0000e+00	-0.0160	-0.143318	0.000253	2.533154	0.858256	0.000101
   2	9.9500e-02	0.0160	-0.042390	0.000253	2.533154	0.858256	0.000101
   3	1.9900e-01	0.0545	0.070650	0.000284	2.837133	0.961247	0.000114
   4	2.9850e-01	0.0979	0.248284	0.000446	4.458351	1.510530	0.000179
   5	3.9800e-01	0.1364	0.405732	0.000395	3.951720	1.338879	0.000158
   6	4.9750e-01	0.1749	0.591440	0.000466	4.661003	1.579191	0.000187
   7	5.9700e-01	0.2198	0.696406	0.000263	2.634480	0.892586	0.000105
   8	6.9650e-01	0.2599	0.886151	0.000476	4.762330	1.613521	0.000191
   9	7.9600e-01	0.3032	1.023414	0.000345	3.445090	1.167228	0.000138
  10	8.9550e-01	0.3385	1.144528	0.000304	3.039785	1.029907	0.000122
  11	9.9500e-01	0.3706	1.342348	0.000496	4.964982	1.682181	0.000199
  12	1.0945e+00	0.4219	1.471536	0.000324	3.242437	1.098567	0.000130
  13	1.1940e+00	0.4540	1.604761	0.000334	3.343763	1.132898	0.000134
  14	1.2935e+00	0.4989	1.822767	0.000547	5.471613	1.853833	0.000219
  15	1.3930e+00	0.5326	1.923695	0.000253	2.533154	0.858256	0.000101
  16	1.4925e+00	0.5775	2.125552	0.000507	5.066308	1.716512	0.000203
  17	1.5920e+00	0.6224	2.246666	0.000304	3.039785	1.029907	0.000122
  18	1.6915e+00	0.6545	2.383929	0.000345	3.445090	1.167228	0.000138
  19	1.7910e+00	0.6978	2.545414	0.000405	4.053047	1.373209	0.000162
  20	1.8905e+00	0.7347	2.686714	0.000355	3.546416	1.201558	0.000142
  21	1.9900e+00	0.7716	2.848199	0.000405	4.053047	1.373209	0.000162
  22	2.0895e+00	0.8069	2.997573	0.000375	3.749068	1.270219	0.000150
  23	2.1890e+00	0.8535	3.171170	0.000436	4.357025	1.476200	0.000174
  24	2.2885e+00	0.8887	3.336693	0.000415	4.154373	1.407540	0.000166
  25	2.3880e+00	0.9449	3.494141	0.000395	3.951720	1.338879	0.000158
  26	2.4875e+00	0.9770	3.643515	0.000375	3.749068	1.270219	0.000150
  27	2.5870e+00	1.0171	3.776740	0.000334	3.343763	1.132898	0.000134
  28	2.6865e+00	1.0524	3.938226	0.000405	4.053047	1.373209	0.000162
  29	2.7860e+00	1.0973	4.027043	0.000223	2.229176	0.755265	0.000089
  30	2.8855e+00	1.1278	4.313680	0.000719	7.194158	2.437447	0.000288
  31	2.9850e+00	1.1743	4.442868	0.000324	3.242437	1.098567	0.000130
  32	3.0845e+00	1.2144	4.580130	0.000345	3.445090	1.167228	0.000138
  33	3.1840e+00	1.2497	4.749690	0.000426	4.255699	1.441870	0.000170
  34	3.2835e+00	1.2962	4.878879	0.000324	3.242437	1.098567	0.000130
  35	3.3830e+00	1.3363	5.040364	0.000405	4.053047	1.373209	0.000162
  36	3.4825e+00	1.3748	5.181664	0.000355	3.546416	1.201558	0.000142
  37	3.5820e+00	1.4085	5.331038	0.000375	3.749068	1.270219	0.000150
  38	3.6815e+00	1.4470	5.524820	0.000486	4.863656	1.647851	0.000195
  39	3.7810e+00	1.4935	5.726677	0.000507	5.066308	1.716512	0.000203
  40	3.8805e+00	1.5336	5.880088	0.000385	3.850394	1.304549	0.000154
  41	3.9800e+00	1.5721	5.985054	0.000263	2.634480	0.892586	0.000105
  42	4.0795e+00	1.6155	6.166725	0.000456	4.559677	1.544860	0.000183
  43	4.1790e+00	1.6508	6.308025	0.000355	3.546416	1.201558	0.000142
  44	4.2785e+00	1.6860	6.477584	0.000426	4.255699	1.441870	0.000170
  45	4.3780e+00	1.7390	6.622921	0.000365	3.647742	1.235888	0.000146
  46	4.4775e+00	1.7711	6.760184	0.000345	3.445090	1.167228	0.000138
  47	4.5770e+00	1.8112	6.933781	0.000436	4.357025	1.476200	0.000174
  48	4.6765e+00	1.8465	7.119489	0.000466	4.661003	1.579191	0.000187
  49	4.7760e+00	1.8978	7.256751	0.000345	3.445090	1.167228	0.000138
  50	4.8755e+00	1.9299	7.450534	0.000486	4.863656	1.647851	0.000195
  51	4.9750e+00	1.9684	7.579722	0.000324	3.242437	1.098567	0.000130
  52	5.0745e+00	2.0197	7.753319	0.000436	4.357025	1.476200	0.000174
  53	5.1740e+00	2.0502	7.930953	0.000446	4.458351	1.510530	0.000179
  54	5.2735e+00	2.0791	8.076290	0.000365	3.647742	1.235888	0.000146
  55	5.3730e+00	2.1256	8.225664	0.000375	3.749068	1.270219	0.000150
  56	5.4725e+00	2.1689	8.395224	0.000426	4.255699	1.441870	0.000170
  57	5.5720e+00	2.2138	8.500189	0.000263	2.634480	0.892586	0.000105
  58	5.6715e+00	2.2491	8.762603	0.000659	6.586201	2.231465	0.000264
  59	5.7710e+00	2.2844	8.871606	0.000274	2.735806	0.926916	0.000110
  60	5.8705e+00	2.3261	9.049240	0.000446	4.458351	1.510530	0.000179
  61	5.9700e+00	2.3646	9.206688	0.000395	3.951720	1.338879	0.000158
  62	6.0695e+00	2.4112	9.392396	0.000466	4.661003	1.579191	0.000187
  63	6.1690e+00	2.4577	9.517548	0.000314	3.141111	1.064237	0.000126
  64	6.2685e+00	2.4898	9.715367	0.000496	4.964982	1.682181	0.000199
  65	6.3680e+00	2.5363	9.856667	0.000355	3.546416	1.201558	0.000142
  66	6.4675e+00	2.5716	10.014115	0.000395	3.951720	1.338879	0.000158
  67	6.5670e+00	2.6165	10.171563	0.000395	3.951720	1.338879	0.000158
  68	6.6665e+00	2.6502	10.341123	0.000426	4.255699	1.441870	0.000170
  69	6.7660e+00	2.6951	10.502609	0.000405	4.053047	1.373209	0.000162
  70	6.8655e+00	2.7288	10.664094	0.000405	4.053047	1.373209	0.000162
  71	6.9650e+00	2.7769	10.829617	0.000415	4.154373	1.407540	0.000166
  72	7.0645e+00	2.8074	10.974954	0.000365	3.647742	1.235888	0.000146
  73	7.1640e+00	2.8491	11.152587	0.000446	4.458351	1.510530	0.000179
  74	7.2635e+00	2.8908	11.318110	0.000415	4.154373	1.407540	0.000166
  75	7.3630e+00	2.9213	11.439224	0.000304	3.039785	1.029907	0.000122
  76	7.4625e+00	2.9630	11.612821	0.000436	4.357025	1.476200	0.000174
  77	7.5620e+00	3.0111	11.754121	0.000355	3.546416	1.201558	0.000142
  78	7.6615e+00	3.0448	11.935792	0.000456	4.559677	1.544860	0.000183
  79	7.7610e+00	3.0801	12.105352	0.000426	4.255699	1.441870	0.000170
  80	7.8605e+00	3.1331	12.287023	0.000456	4.559677	1.544860	0.000183
  81	7.9600e+00	3.1587	12.391988	0.000263	2.634480	0.892586	0.000105
  82	8.0595e+00	3.2020	12.589808	0.000496	4.964982	1.682181	0.000199
  83	8.1590e+00	3.2470	12.763405	0.000436	4.357025	1.476200	0.000174
  84	8.2585e+00	3.2919	12.904704	0.000355	3.546416	1.201558	0.000142
  85	8.3580e+00	3.3208	13.090413	0.000466	4.661003	1.579191	0.000187
  86	8.4575e+00	3.3721	13.239787	0.000375	3.749068	1.270219	0.000150
  87	8.5570e+00	3.4106	13.381086	0.000355	3.546416	1.201558	0.000142
  88	8.6565e+00	3.4491	13.526423	0.000365	3.647742	1.235888	0.000146
  89	8.7560e+00	3.4908	13.716169	0.000476	4.762330	1.613521	0.000191
  90	8.8555e+00	3.5149	13.901877	0.000466	4.661003	1.579191	0.000187
  91	8.9550e+00	3.5678	14.031065	0.000324	3.242437	1.098567	0.000130
  92	9.0545e+00	3.6079	14.208699	0.000446	4.458351	1.510530	0.000179
  93	9.1540e+00	3.6560	14.366148	0.000395	3.951720	1.338879	0.000158
  94	9.2535e+00	3.6865	14.535707	0.000426	4.255699	1.441870	0.000170
  95	9.3530e+00	3.7250	14.672970	0.000345	3.445090	1.167228	0.000138
  96	9.4525e+00	3.7699	14.870789	0.000496	4.964982	1.682181	0.000199
  97	9.5520e+00	3.8084	15.032275	0.000405	4.053047	1.373209	0.000162
  98	9.6515e+00	3.8421	15.217983	0.000466	4.661003	1.579191	0.000187
  99	9.7510e+00	3.8887	15.343134	0.000314	3.141111	1.064237	0.000126
 100	9.8505e+00	3.9304	15.532880	0.000476	4.762330	1.613521	0.000191
 101	9.9500e+00	3.9576	15.702439	0.000426	4.255699	1.441870	0.000170
 102	1.0050e+01	4.0042	15.851813	0.000375	3.749068	1.270219	0.000150
 103	1.0149e+01	4.0523	16.009262	0.000395	3.951720	1.338879	0.000158
 104	1.0248e+01	4.0796	16.215156	0.000517	5.167634	1.750842	0.000207
 105	1.0348e+01	4.1277	16.356455	0.000355	3.546416	1.201558	0.000142
 106	1.0447e+01	4.1678	16.501792	0.000365	3.647742	1.235888	0.000146
 107	1.0547e+01	4.2095	16.683463	0.000456	4.559677	1.544860	0.000183
 108	1.0646e+01	4.2432	16.853023	0.000426	4.255699	1.441870	0.000170
 109	1.0746e+01	4.2753	16.994323	0.000355	3.546416	1.201558	0.000142
 110	1.0845e+01	4.3186	17.212328	0.000547	5.471613	1.853833	0.000219
 111	1.0945e+01	4.3667	17.369777	0.000395	3.951720	1.338879	0.000158
 112	1.1044e+01	4.4004	17.503002	0.000334	3.343763	1.132898	0.000134
 113	1.1144e+01	4.4325	17.688710	0.000466	4.661003	1.579191	0.000187
 114	1.1243e+01	4.4758	17.825973	0.000345	3.445090	1.167228	0.000138
 115	1.1343e+01	4.5159	17.959198	0.000334	3.343763	1.132898	0.000134
 116	1.1443e+01	4.5640	18.157018	0.000496	4.964982	1.682181	0.000199
 117	1.1542e+01	4.6074	18.334652	0.000446	4.458351	1.510530	0.000179
 118	1.1642e+01	4.6491	18.520360	0.000466	4.661003	1.579191	0.000187
 119	1.1741e+01	4.6795	18.685883	0.000415	4.154373	1.407540	0.000166
 120	1.1841e+01	4.7277	18.827183	0.000355	3.546416	1.201558	0.000142
 121	1.1940e+01	4.7566	19.020965	0.000486	4.863656	1.647851	0.000195
 122	1.2040e+01	4.8063	19.166302	0.000365	3.647742	1.235888	0.000146
 123	1.2139e+01	4.8352	19.303565	0.000345	3.445090	1.167228	0.000138
 124	1.2239e+01	4.8801	19.501384	0.000496	4.964982	1.682181	0.000199
 125	1.2338e+01	4.9170	19.646721	0.000365	3.647742	1.235888	0.000146
 126	1.2438e+01	4.9523	19.836466	0.000476	4.762330	1.613521	0.000191
 127	1.2537e+01	4.9876	19.997952	0.000405	4.053047	1.373209	0.000162
 128	1.2636e+01	5.0325	20.191734	0.000486	4.863656	1.647851	0.000195
 129	1.2736e+01	5.0822	20.361294	0.000426	4.255699	1.441870	0.000170
 130	1.2835e+01	5.1223	20.462222	0.000253	2.533154	0.858256	0.000101
 131	1.2935e+01	5.1656	20.668116	0.000517	5.167634	1.750842	0.000207
 132	1.3034e+01	5.1993	20.805379	0.000345	3.445090	1.167228	0.000138
 133	1.3134e+01	5.2507	20.987050	0.000456	4.559677	1.544860	0.000183
 134	1.3233e+01	5.2779	21.188907	0.000507	5.066308	1.716512	0.000203
 135	1.3333e+01	5.3196	21.314058	0.000314	3.141111	1.064237	0.000126
 136	1.3432e+01	5.3678	21.483618	0.000426	4.255699	1.441870	0.000170
 137	1.3532e+01	5.3950	21.653178	0.000426	4.255699	1.441870	0.000170
 138	1.3632e+01	5.4351	21.802552	0.000375	3.749068	1.270219	0.000150
 139	1.3731e+01	5.4801	21.951926	0.000375	3.749068	1.270219	0.000150
 140	1.3831e+01	5.5121	22.169931	0.000547	5.471613	1.853833	0.000219
 141	1.3930e+01	5.5619	22.295082	0.000314	3.141111	1.064237	0.000126
 142	1.4030e+01	5.5988	22.472716	0.000446	4.458351	1.510530	0.000179
 143	1.4129e+01	5.6357	22.618053	0.000365	3.647742	1.235888	0.000146
 144	1.4229e+01	5.6854	22.803761	0.000466	4.661003	1.579191	0.000187
 145	1.4328e+01	5.7159	22.977358	0.000436	4.357025	1.476200	0.000174
 146	1.4428e+01	5.7528	23.134806	0.000395	3.951720	1.338879	0.000158
 147	1.4527e+01	5.7945	23.304366	0.000426	4.255699	1.441870	0.000170
 148	1.4627e+01	5.8362	23.437592	0.000334	3.343763	1.132898	0.000134
 149	1.4726e+01	5.8811	23.627337	0.000476	4.762330	1.613521	0.000191
 150	1.4825e+01	5.9276	23.796897	0.000426	4.255699	1.441870	0.000170
 151	1.4925e+01	5.9645	23.946271	0.000375	3.749068	1.270219	0.000150
 152	1.5024e+01	5.9982	24.119867	0.000436	4.357025	1.476200	0.000174
 153	1.5124e+01	6.0447	24.261167	0.000355	3.546416	1.201558	0.000142
 154	1.5223e+01	6.0720	24.398430	0.000345	3.445090	1.167228	0.000138
 155	1.5323e+01	6.1234	24.600287	0.000507	5.066308	1.716512	0.000203
 156	1.5422e+01	6.1458	24.749661	0.000375	3.749068	1.270219	0.000150
 157	1.5522e+01	6.1955	24.935369	0.000466	4.661003	1.579191	0.000187
 158	1.5621e+01	6.2357	25.113003	0.000446	4.458351	1.510530	0.000179
 159	1.5721e+01	6.2742	25.262377	0.000375	3.749068	1.270219	0.000150
 160	1.5820e+01	6.3143	25.423862	0.000405	4.053047	1.373209	0.000162
 161	1.5920e+01	6.3560	25.549014	0.000314	3.141111	1.064237	0.000126
 162	1.6020e+01	6.4041	25.779130	0.000578	5.775591	1.956823	0.000231
 163	1.6119e+01	6.4426	25.952727	0.000436	4.357025	1.476200	0.000174
 164	1.6218e+01	6.4699	26.061730	0.000274	2.735806	0.926916	0.000110
 165	1.6318e+01	6.5196	26.227252	0.000415	4.154373	1.407540	0.000166
 166	1.6418e+01	6.5597	26.396812	0.000426	4.255699	1.441870	0.000170
 167	1.6517e+01	6.5918	26.586557	0.000476	4.762330	1.613521	0.000191
 168	1.6616e+01	6.6319	26.707671	0.000304	3.039785	1.029907	0.000122
 169	1.6716e+01	6.6704	26.897417	0.000476	4.762330	1.613521	0.000191
 170	1.6816e+01	6.7169	27.034679	0.000345	3.445090	1.167228	0.000138
 171	1.6915e+01	6.7378	27.212313	0.000446	4.458351	1.510530	0.000179
 172	1.7015e+01	6.7923	27.385910	0.000436	4.357025	1.476200	0.000174
 173	1.7114e+01	6.8276	27.511061	0.000314	3.141111	1.064237	0.000126
 174	1.7213e+01	6.8838	27.680621	0.000426	4.255699	1.441870	0.000170
 175	1.7313e+01	6.9046	27.854218	0.000436	4.357025	1.476200	0.000174
 176	1.7413e+01	6.9543	28.056075	0.000507	5.066308	1.716512	0.000203
 177	1.7512e+01	6.9929	28.201412	0.000365	3.647742	1.235888	0.000146
 178	1.7611e+01	7.0233	28.330600	0.000324	3.242437	1.098567	0.000130
 179	1.7711e+01	7.0763	28.479974	0.000375	3.749068	1.270219	0.000150
 180	1.7811e+01	7.1116	28.637422	0.000395	3.951720	1.338879	0.000158
 181	1.7910e+01	7.1517	28.823131	0.000466	4.661003	1.579191	0.000187
 182	1.8009e+01	7.1870	28.944245	0.000304	3.039785	1.029907	0.000122
 183	1.8109e+01	7.2367	29.162250	0.000547	5.471613	1.853833	0.000219
 184	1.8209e+01	7.2736	29.303550	0.000355	3.546416	1.201558	0.000142
 185	1.8308e+01	7.3153	29.456961	0.000385	3.850394	1.304549	0.000154
 186	1.8407e+01	7.3490	29.549815	0.000233	2.330502	0.789595	0.000093
 187	1.8507e+01	7.3891	29.747635	0.000496	4.964982	1.682181	0.000199
 188	1.8607e+01	7.4324	29.888934	0.000355	3.546416	1.201558	0.000142
 189	1.8706e+01	7.4709	30.066568	0.000446	4.458351	1.510530	0.000179
 190	1.8805e+01	7.5110	30.203831	0.000345	3.445090	1.167228	0.000138
 191	1.8905e+01	7.5575	30.361279	0.000395	3.951720	1.338879	0.000158
 192	1.9005e+01	7.5800	30.506616	0.000365	3.647742	1.235888	0.000146
 193	1.9104e+01	7.6297	30.660027	0.000385	3.850394	1.304549	0.000154
 194	1.9203e+01	7.6618	30.833624	0.000436	4.357025	1.476200	0.000174
 195	1.9303e+01	7.7099	30.966850	0.000334	3.343763	1.132898	0.000134
 196	1.9402e+01	7.7388	31.092001	0.000314	3.141111	1.064237	0.000126
 197	1.9502e+01	7.7837	31.281746	0.000476	4.762330	1.613521	0.000191
 198	1.9602e+01	7.8319	31.419009	0.000345	3.445090	1.167228	0.000138
 199	1.9701e+01	7.8672	31.616829	0.000496	4.964982	1.682181	0.000199
 200	1.9800e+01	7.9121	31.754091	0.000345	3.445090	1.167228	0.000138
 201	1.9900e+01	7.9442	31.871168	0.000294	2.938459	0.995577	0.000118
 202	2.0000e+01	7.9875	32.032654	0.000405	4.053047	1.373209	0.000162
 203	2.0099e+01	8.0260	32.190102	0.000395	3.951720	1.338879	0.000158
 204	2.0198e+01	8.0709	32.363699	0.000436	4.357025	1.476200	0.000174
 205	2.0298e+01	8.1030	32.500961	0.000345	3.445090	1.167228	0.000138
 206	2.0398e+01	8.1463	32.642261	0.000355	3.546416	1.201558	0.000142
 207	2.0497e+01	8.1944	32.791635	0.000375	3.749068	1.270219	0.000150
 208	2.0596e+01	8.2297	32.953120	0.000405	4.053047	1.373209	0.000162
 209	2.0696e+01	8.2682	33.082309	0.000324	3.242437	1.098567	0.000130
 210	2.0796e+01	8.3051	33.272054	0.000476	4.762330	1.613521	0.000191
 211	2.0895e+01	8.3436	33.417391	0.000365	3.647742	1.235888	0.000146
 212	2.0994e+01	8.3853	33.562728	0.000365	3.647742	1.235888	0.000146
 213	2.1094e+01	8.4254	33.708065	0.000365	3.647742	1.235888	0.000146
 214	2.1194e+01	8.4687	33.877625	0.000426	4.255699	1.441870	0.000170
 215	2.1293e+01	8.5089	33.986627	0.000274	2.735806	0.926916	0.000110
 216	2.1392e+01	8.5409	34.180410	0.000486	4.863656	1.647851	0.000195
 217	2.1492e+01	8.5971	34.253078	0.000182	1.823871	0.617944	0.000073
 218	2.1591e+01	8.6340	34.479158	0.000567	5.674265	1.922493	0.000227
 219	2.1691e+01	8.6645	34.588160	0.000274	2.735806	0.926916	0.000110
 220	2.1791e+01	8.7014	34.725423	0.000345	3.445090	1.167228	0.000138
 221	2.1890e+01	8.7479	34.886908	0.000405	4.053047	1.373209	0.000162
 222	2.1989e+01	8.7800	35.040320	0.000385	3.850394	1.304549	0.000154
 223	2.2089e+01	8.8201	35.201805	0.000405	4.053047	1.373209	0.000162
 224	2.2189e+01	8.8730	35.330993	0.000324	3.242437	1.098567	0.000130
 225	2.2288e+01	8.9035	35.484405	0.000385	3.850394	1.304549	0.000154
 226	2.2387e+01	8.9500	35.617630	0.000334	3.343763	1.132898	0.000134
 227	2.2487e+01	8.9789	35.791227	0.000436	4.357025	1.476200	0.000174
 228	2.2587e+01	9.0350	35.940601	0.000375	3.749068	1.270219	0.000150
 229	2.2686e+01	9.0655	36.081901	0.000355	3.546416	1.201558	0.000142
 230	2.2785e+01	9.1008	36.259535	0.000446	4.458351	1.510530	0.000179
 231	2.2885e+01	9.1441	36.332203	0.000182	1.823871	0.617944	0.000073
 232	2.2985e+01	9.1778	36.534060	0.000507	5.066308	1.716512	0.000203
 233	2.3084e+01	9.2195	36.651137	0.000294	2.938459	0.995577	0.000118
 234	2.3183e+01	9.2677	36.840882	0.000476	4.762330	1.613521	0.000191
 235	2.3283e+01	9.3029	36.953922	0.000284	2.837133	0.961247	0.000114
 236	2.3383e+01	9.3511	37.066962	0.000284	2.837133	0.961247	0.000114
 237	2.3482e+01	9.3816	37.244596	0.000446	4.458351	1.510530	0.000179
 238	2.3581e+01	9.4265	37.389933	0.000365	3.647742	1.235888	0.000146
 239	2.3681e+01	9.4650	37.490861	0.000253	2.533154	0.858256	0.000101
 240	2.3780e+01	9.5051	37.624087	0.000334	3.343763	1.132898	0.000134
 241	2.3880e+01	9.5388	37.813832	0.000476	4.762330	1.613521	0.000191
 242	2.3980e+01	9.5853	37.926872	0.000284	2.837133	0.961247	0.000114
 243	2.4079e+01	9.6222	38.092394	0.000415	4.154373	1.407540	0.000166
 244	2.4178e+01	9.6591	38.197360	0.000263	2.634480	0.892586	0.000105
 245	2.4278e+01	9.7008	38.350771	0.000385	3.850394	1.304549	0.000154
 246	2.4378e+01	9.7361	38.488034	0.000345	3.445090	1.167228	0.000138
 247	2.4477e+01	9.7810	38.629333	0.000355	3.546416	1.201558	0.000142
 248	2.4576e+01	9.8211	38.798893	0.000426	4.255699	1.441870	0.000170
 249	2.4676e+01	9.8644	38.932118	0.000334	3.343763	1.132898	0.000134
 250	2.4776e+01	9.8949	39.065344	0.000334	3.343763	1.132898	0.000134
 251	2.4875e+01	9.9414	39.178384	0.000284	2.837133	0.961247	0.000114
 252	2.4974e+01	9.9880	39.319684	0.000355	3.546416	1.201558	0.000142
 253	2.5074e+01	10.0232	39.481169	0.000405	4.053047	1.373209	0.000162
 254	2.5174e+01	10.0585	39.590172	0.000274	2.735806	0.926916	0.000110
 255	2.5273e+01	10.1035	39.763768	0.000436	4.357025	1.476200	0.000174
 256	2.5372e+01	10.1452	39.901031	0.000345	3.445090	1.167228	0.000138
 257	2.5472e+01	10.1789	40.001959	0.000253	2.533154	0.858256	0.000101
 258	2.5572e+01	10.2125	40.187668	0.000466	4.661003	1.579191	0.000187
 259	2.5671e+01	10.2607	40.284559	0.000243	2.431828	0.823926	0.000097
 260	2.5770e+01	10.2992	40.462193	0.000446	4.458351	1.510530	0.000179
 261	2.5870e+01	10.3329	40.599456	0.000345	3.445090	1.167228	0.000138
 262	2.5970e+01	10.3842	40.728644	0.000324	3.242437	1.098567	0.000130
 263	2.6069e+01	10.4179	40.886092	0.000395	3.951720	1.338879	0.000158
 264	2.6169e+01	10.4548	41.035466	0.000375	3.749068	1.270219	0.000150
 265	2.6268e+01	10.4949	41.180803	0.000365	3.647742	1.235888	0.000146
 266	2.6367e+01	10.5382	41.305954	0.000314	3.141111	1.064237	0.000126
 267	2.6467e+01	10.5735	41.431106	0.000314	3.141111	1.064237	0.000126
 268	2.6567e+01	10.6216	41.584517	0.000385	3.850394	1.304549	0.000154
 269	2.6666e+01	10.6633	41.758114	0.000436	4.357025	1.476200	0.000174
 270	2.6765e+01	10.6970	41.867116	0.000274	2.735806	0.926916	0.000110
 271	2.6865e+01	10.7387	42.016490	0.000375	3.749068	1.270219	0.000150
 272	2.6965e+01	10.7740	42.169901	0.000385	3.850394	1.304549	0.000154
 273	2.7064e+01	10.8254	42.303127	0.000334	3.343763	1.132898	0.000134
 274	2.7163e+01	10.8591	42.404055	0.000253	2.533154	0.858256	0.000101
 275	2.7263e+01	10.8959	42.557466	0.000385	3.850394	1.304549	0.000154
 276	2.7363e+01	10.9361	42.710878	0.000385	3.850394	1.304549	0.000154
 277	2.7462e+01	10.9794	42.848140	0.000345	3.445090	1.167228	0.000138
 278	2.7561e+01	11.0179	42.961180	0.000284	2.837133	0.961247	0.000114
 279	2.7661e+01	11.0580	43.122665	0.000405	4.053047	1.373209	0.000162
 280	2.7761e+01	11.0885	43.292225	0.000426	4.255699	1.441870	0.000170
 281	2.7860e+01	11.1366	43.381042	0.000223	2.229176	0.755265	0.000089
 282	2.7959e+01	11.1799	43.510230	0.000324	3.242437	1.098567	0.000130
 283	2.8059e+01	11.2152	43.691902	0.000456	4.559677	1.544860	0.000183
 284	2.8159e+01	11.2505	43.817053	0.000314	3.141111	1.064237	0.000126
 285	2.8258e+01	11.2906	43.966427	0.000375	3.749068	1.270219	0.000150
 286	2.8358e+01	11.3307	44.079467	0.000284	2.837133	0.961247	0.000114
 287	2.8457e+01	11.3708	44.244989	0.000415	4.154373	1.407540	0.000166
 288	2.8556e+01	11.4237	44.370140	0.000314	3.141111	1.064237	0.000126
 289	2.8656e+01	11.4606	44.519514	0.000375	3.749068	1.270219	0.000150
 290	2.8756e+01	11.5007	44.668888	0.000375	3.749068	1.270219	0.000150
 291	2.8855e+01	11.5232	44.794040	0.000314	3.141111	1.064237	0.000126
 292	2.8954e+01	11.5729	44.911117	0.000294	2.938459	0.995577	0.000118
 293	2.9054e+01	11.6195	45.048379	0.000345	3.445090	1.167228	0.000138
 294	2.9154e+01	11.6596	45.185642	0.000345	3.445090	1.167228	0.000138
 295	2.9253e+01	11.6965	45.343090	0.000395	3.951720	1.338879	0.000158
 296	2.9352e+01	11.7398	45.496501	0.000385	3.850394	1.304549	0.000154
 297	2.9452e+01	11.7703	45.581281	0.000213	2.127849	0.720935	0.000085
 298	2.9552e+01	11.8200	45.750841	0.000426	4.255699	1.441870	0.000170
 299	2.9651e+01	11.8553	45.908289	0.000395	3.951720	1.338879	0.000158
 300	2.9750e+01	11.8922	46.017292	0.000274	2.735806	0.926916	0.000110
 301	2.9850e+01	11.9307	46.174740	0.000395	3.951720	1.338879	0.000158
 302	2.9950e+01	11.9740	46.324114	0.000375	3.749068	1.270219	0.000150
 303	3.0049e+01	12.0093	46.449265	0.000314	3.141111	1.064237	0.000126
 304	3.0148e+01	12.0558	46.590565	0.000355	3.546416	1.201558	0.000142
 305	3.0248e+01	12.0927	46.723790	0.000334	3.343763	1.132898	0.000134
 306	3.0348e+01	12.1248	46.828756	0.000263	2.634480	0.892586	0.000105
 307	3.0447e+01	12.1761	46.941796	0.000284	2.837133	0.961247	0.000114
 308	3.0547e+01	12.2194	47.135578	0.000486	4.863656	1.647851	0.000195
 309	3.0646e+01	12.2547	47.268804	0.000334	3.343763	1.132898	0.000134
 310	3.0745e+01	12.3029	47.361658	0.000233	2.330502	0.789595	0.000093
 311	3.0845e+01	12.3237	47.511032	0.000375	3.749068	1.270219	0.000150
 312	3.0945e+01	12.3702	47.656369	0.000365	3.647742	1.235888	0.000146
 313	3.1044e+01	12.4168	47.801706	0.000365	3.647742	1.235888	0.000146
 314	3.1143e+01	12.4521	47.943005	0.000355	3.546416	1.201558	0.000142
 315	3.1243e+01	12.5034	48.052008	0.000274	2.735806	0.926916	0.000110
 316	3.1343e+01	12.5323	48.169085	0.000294	2.938459	0.995577	0.000118
 317	3.1442e+01	12.5708	48.302311	0.000334	3.343763	1.132898	0.000134
 318	3.1541e+01	12.6109	48.479945	0.000446	4.458351	1.510530	0.000179
 319	3.1641e+01	12.6478	48.609133	0.000324	3.242437	1.098567	0.000130
 320	3.1741e+01	12.6943	48.722173	0.000284	2.837133	0.961247	0.000114
 321	3.1840e+01	12.7296	48.887695	0.000415	4.154373	1.407540	0.000166
 322	3.1939e+01	12.7761	48.996698	0.000274	2.735806	0.926916	0.000110
 323	3.2039e+01	12.8146	49.137998	0.000355	3.546416	1.201558	0.000142
 324	3.2139e+01	12.8531	49.255075	0.000294	2.938459	0.995577	0.000118
 325	3.2238e+01	12.8916	49.380226	0.000314	3.141111	1.064237	0.000126
 326	3.2337e+01	12.9301	49.545748	0.000415	4.154373	1.407540	0.000166
 327	3.2437e+01	12.9606	49.626491	0.000203	2.026523	0.686605	0.000081
 328	3.2536e+01	12.9959	49.775865	0.000375	3.749068	1.270219	0.000150
 329	3.2636e+01	13.0440	49.929276	0.000385	3.850394	1.304549	0.000154
 330	3.2736e+01	13.0873	50.058465	0.000324	3.242437	1.098567	0.000130
 331	3.2835e+01	13.1226	50.236099	0.000446	4.458351	1.510530	0.000179
 332	3.2934e+01	13.1643	50.324916	0.000223	2.229176	0.755265	0.000089
 333	3.3034e+01	13.2060	50.474290	0.000375	3.749068	1.270219	0.000150
 334	3.3133e+01	13.2494	50.599441	0.000314	3.141111	1.064237	0.000126
 335	3.3233e+01	13.2814	50.748815	0.000375	3.749068	1.270219	0.000150
 336	3.3333e+01	13.3344	50.882040	0.000334	3.343763	1.132898	0.000134
 337	3.3432e+01	13.3617	51.007191	0.000314	3.141111	1.064237	0.000126
 338	3.3532e+01	13.4002	51.108120	0.000253	2.533154	0.858256	0.000101
 339	3.3631e+01	13.4515	51.245382	0.000345	3.445090	1.167228	0.000138
 340	3.3730e+01	13.4852	51.398794	0.000385	3.850394	1.304549	0.000154
 341	3.3830e+01	13.5317	51.544131	0.000365	3.647742	1.235888	0.000146
 342	3.3929e+01	13.5718	51.665245	0.000304	3.039785	1.029907	0.000122
 343	3.4029e+01	13.6039	51.770210	0.000263	2.634480	0.892586	0.000105
 344	3.4129e+01	13.6440	51.923621	0.000385	3.850394	1.304549	0.000154
 345	3.4228e+01	13.6793	52.028587	0.000263	2.634480	0.892586	0.000105
 346	3.4328e+01	13.7178	52.149701	0.000304	3.039785	1.029907	0.000122
 347	3.4427e+01	13.7531	52.274852	0.000314	3.141111	1.064237	0.000126
 348	3.4526e+01	13.8140	52.428263	0.000385	3.850394	1.304549	0.000154
 349	3.4626e+01	13.8381	52.565526	0.000345	3.445090	1.167228	0.000138
 350	3.4725e+01	13.8846	52.670491	0.000263	2.634480	0.892586	0.000105
 351	3.4825e+01	13.9263	52.831977	0.000405	4.053047	1.373209	0.000162
 352	3.4925e+01	13.9648	52.936942	0.000263	2.634480	0.892586	0.000105
 353	3.5024e+01	13.9969	53.078242	0.000355	3.546416	1.201558	0.000142
 354	3.5123e+01	14.0451	53.179171	0.000253	2.533154	0.858256	0.000101
 355	3.5223e+01	14.0771	53.340656	0.000405	4.053047	1.373209	0.000162
 356	3.5322e+01	14.1285	53.433510	0.000233	2.330502	0.789595	0.000093
 357	3.5422e+01	14.1670	53.570773	0.000345	3.445090	1.167228	0.000138
 358	3.5522e+01	14.2087	53.667664	0.000243	2.431828	0.823926	0.000097
 359	3.5621e+01	14.2328	53.829149	0.000405	4.053047	1.373209	0.000162
 360	3.5721e+01	14.2873	53.934115	0.000263	2.634480	0.892586	0.000105
 361	3.5820e+01	14.3194	54.095600	0.000405	4.053047	1.373209	0.000162
 362	3.5919e+01	14.3643	54.208640	0.000284	2.837133	0.961247	0.000114
 363	3.6019e+01	14.4012	54.366088	0.000395	3.951720	1.338879	0.000158
 364	3.6118e+01	14.4509	54.471054	0.000263	2.634480	0.892586	0.000105
 365	3.6218e+01	14.4718	54.567945	0.000243	2.431828	0.823926	0.000097
 366	3.6318e+01	14.5295	54.717319	0.000375	3.749068	1.270219	0.000150
 367	3.6417e+01	14.5616	54.814210	0.000243	2.431828	0.823926	0.000097
 368	3.6517e+01	14.6065	54.935325	0.000304	3.039785	1.029907	0.000122
 369	3.6616e+01	14.6354	55.048364	0.000284	2.837133	0.961247	0.000114
 370	3.6715e+01	14.6835	55.209850	0.000405	4.053047	1.373209	0.000162
 371	3.6815e+01	14.7269	55.330964	0.000304	3.039785	1.029907	0.000122
 372	3.6914e+01	14.7622	55.460152	0.000324	3.242437	1.098567	0.000130
 373	3.7014e+01	14.8119	55.561081	0.000253	2.533154	0.858256	0.000101
 374	3.7114e+01	14.8424	55.694306	0.000334	3.343763	1.132898	0.000134
 375	3.7213e+01	14.8825	55.803309	0.000274	2.735806	0.926916	0.000110
 376	3.7313e+01	14.9178	55.920386	0.000294	2.938459	0.995577	0.000118
 377	3.7412e+01	14.9595	56.045537	0.000314	3.141111	1.064237	0.000126
 378	3.7511e+01	15.0092	56.190874	0.000365	3.647742	1.235888	0.000146
 379	3.7611e+01	15.0365	56.316025	0.000314	3.141111	1.064237	0.000126
 380	3.7711e+01	15.0798	56.404842	0.000223	2.229176	0.755265	0.000089
 381	3.7810e+01	15.1151	56.505770	0.000253	2.533154	0.858256	0.000101
 382	3.7910e+01	15.1600	56.651107	0.000365	3.647742	1.235888	0.000146
 383	3.8009e+01	15.1985	56.796444	0.000365	3.647742	1.235888	0.000146
 384	3.8108e+01	15.2466	56.901410	0.000263	2.634480	0.892586	0.000105
 385	3.8208e+01	15.2739	57.034635	0.000334	3.343763	1.132898	0.000134
 386	3.8307e+01	15.3268	57.131526	0.000243	2.431828	0.823926	0.000097
 387	3.8407e+01	15.3621	57.280900	0.000375	3.749068	1.270219	0.000150
 388	3.8507e+01	15.4006	57.385866	0.000263	2.634480	0.892586	0.000105
 389	3.8606e+01	15.4343	57.466609	0.000203	2.026523	0.686605	0.000081
 390	3.8706e+01	15.4744	57.595797	0.000324	3.242437	1.098567	0.000130
 391	3.8805e+01	15.5129	57.733060	0.000345	3.445090	1.167228	0.000138
 392	3.8904e+01	15.5562	57.890508	0.000395	3.951720	1.338879	0.000158
 393	3.9004e+01	15.6044	57.963176	0.000182	1.823871	0.617944	0.000073
 394	3.9103e+01	15.6397	58.116588	0.000385	3.850394	1.304549	0.000154
 395	3.9203e+01	15.6830	58.225590	0.000274	2.735806	0.926916	0.000110
 396	3.9303e+01	15.7103	58.342667	0.000294	2.938459	0.995577	0.000118
 397	3.9402e+01	15.7616	58.431484	0.000223	2.229176	0.755265	0.000089
 398	3.9502e+01	15.7985	58.560672	0.000324	3.242437	1.098567	0.000130
 399	3.9601e+01	15.8386	58.693898	0.000334	3.343763	1.132898	0.000134
 400	3.9700e+01	15.8755	58.778678	0.000213	2.127849	0.720935	0.000085
 401	3.9800e+01	15.9140	58.911903	0.000334	3.343763	1.132898	0.000134
 402	3.9900e+01	15.9557	59.045129	0.000334	3.343763	1.132898	0.000134
 403	3.9999e+01	15.9942	59.142020	0.000243	2.431828	0.823926	0.000097
 404	4.0099e+01	16.0311	59.295431	0.000385	3.850394	1.304549	0.000154
 405	4.0198e+01	16.0776	59.428657	0.000334	3.343763	1.132898	0.000134
 406	4.0297e+01	16.1145	59.521511	0.000233	2.330502	0.789595	0.000093
 407	4.0397e+01	16.1530	59.610328	0.000223	2.229176	0.755265	0.000089
 408	4.0496e+01	16.1995	59.735479	0.000314	3.141111	1.064237	0.000126
 409	4.0596e+01	16.2380	59.844482	0.000274	2.735806	0.926916	0.000110
 410	4.0696e+01	16.2733	59.941373	0.000243	2.431828	0.823926	0.000097
 411	4.0795e+01	16.3167	60.086710	0.000365	3.647742	1.235888	0.000146
 412	4.0895e+01	16.3584	60.215898	0.000324	3.242437	1.098567	0.000130
 413	4.0994e+01	16.3985	60.308752	0.000233	2.330502	0.789595	0.000093
 414	4.1093e+01	16.4338	60.441978	0.000334	3.343763	1.132898	0.000134
 415	4.1193e+01	16.4658	60.555018	0.000284	2.837133	0.961247	0.000114
 416	4.1292e+01	16.5220	60.647872	0.000233	2.330502	0.789595	0.000093
 417	4.1392e+01	16.5589	60.760911	0.000284	2.837133	0.961247	0.000114
 418	4.1492e+01	16.6070	60.877988	0.000294	2.938459	0.995577	0.000118
 419	4.1591e+01	16.6311	60.982954	0.000263	2.634480	0.892586	0.000105
 420	4.1691e+01	16.6728	61.104068	0.000304	3.039785	1.029907	0.000122
 421	4.1790e+01	16.7177	61.221145	0.000294	2.938459	0.995577	0.000118
 422	4.1889e+01	16.7450	61.334185	0.000284	2.837133	0.961247	0.000114
 423	4.1989e+01	16.7915	61.423002	0.000223	2.229176	0.755265	0.000089
 424	4.2089e+01	16.8300	61.552190	0.000324	3.242437	1.098567	0.000130
 425	4.2188e+01	16.8765	61.665230	0.000284	2.837133	0.961247	0.000114
 426	4.2288e+01	16.9134	61.778270	0.000284	2.837133	0.961247	0.000114
 427	4.2387e+01	16.9567	61.863049	0.000213	2.127849	0.720935	0.000085
 428	4.2486e+01	16.9936	62.016461	0.000385	3.850394	1.304549	0.000154
 429	4.2586e+01	17.0386	62.137575	0.000304	3.039785	1.029907	0.000122
 430	4.2685e+01	17.0706	62.258689	0.000304	3.039785	1.029907	0.000122
 431	4.2785e+01	17.1107	62.391914	0.000334	3.343763	1.132898	0.000134
 432	4.2885e+01	17.1557	62.452471	0.000152	1.519892	0.514953	0.000061
 433	4.2984e+01	17.1926	62.553400	0.000253	2.533154	0.858256	0.000101
 434	4.3084e+01	17.2327	62.710848	0.000395	3.951720	1.338879	0.000158
 435	4.3183e+01	17.2728	62.807739	0.000243	2.431828	0.823926	0.000097
 436	4.3282e+01	17.3113	62.953076	0.000365	3.647742	1.235888	0.000146
 437	4.3382e+01	17.3514	63.037856	0.000213	2.127849	0.720935	0.000085
 438	4.3481e+01	17.3931	63.171081	0.000334	3.343763	1.132898	0.000134
 439	4.3581e+01	17.4316	63.276047	0.000263	2.634480	0.892586	0.000105
 440	4.3681e+01	17.4685	63.413310	0.000345	3.445090	1.167228	0.000138
 441	4.3780e+01	17.5182	63.514238	0.000253	2.533154	0.858256	0.000101
 442	4.3880e+01	17.5455	63.615166	0.000253	2.533154	0.858256	0.000101
 443	4.3979e+01	17.5920	63.732243	0.000294	2.938459	0.995577	0.000118
 444	4.4078e+01	17.6289	63.877580	0.000365	3.647742	1.235888	0.000146
 445	4.4178e+01	17.6658	63.942174	0.000162	1.621219	0.549284	0.000065
 446	4.4278e+01	17.7123	64.083474	0.000355	3.546416	1.201558	0.000142
 447	4.4377e+01	17.7524	64.156143	0.000182	1.823871	0.617944	0.000073
 448	4.4477e+01	17.7925	64.305517	0.000375	3.749068	1.270219	0.000150
 449	4.4576e+01	17.8246	64.471039	0.000415	4.154373	1.407540	0.000166
 450	4.4675e+01	17.8663	64.535633	0.000162	1.621219	0.549284	0.000065
 451	4.4775e+01	17.9161	64.652710	0.000294	2.938459	0.995577	0.000118
 452	4.4874e+01	17.9449	64.741527	0.000223	2.229176	0.755265	0.000089
 453	4.4974e+01	17.9899	64.866678	0.000314	3.141111	1.064237	0.000126
 454	4.5074e+01	18.0268	64.971644	0.000263	2.634480	0.892586	0.000105
 455	4.5173e+01	18.0733	65.084684	0.000284	2.837133	0.961247	0.000114
 456	4.5273e+01	18.1054	65.221946	0.000345	3.445090	1.167228	0.000138
 457	4.5372e+01	18.1487	65.359209	0.000345	3.445090	1.167228	0.000138
 458	4.5471e+01	18.1904	65.464175	0.000263	2.634480	0.892586	0.000105
 459	4.5571e+01	18.2273	65.561066	0.000243	2.431828	0.823926	0.000097
 460	4.5670e+01	18.2738	65.694291	0.000334	3.343763	1.132898	0.000134
 461	4.5770e+01	18.3075	65.787145	0.000233	2.330502	0.789595	0.000093
 462	4.5870e+01	18.3492	65.892111	0.000263	2.634480	0.892586	0.000105
 463	4.5969e+01	18.3861	66.005151	0.000284	2.837133	0.961247	0.000114
 464	4.6069e+01	18.4294	66.154525	0.000375	3.749068	1.270219	0.000150
 465	4.6168e+01	18.4695	66.267565	0.000284	2.837133	0.961247	0.000114
 466	4.6267e+01	18.5128	66.352344	0.000213	2.127849	0.720935	0.000085
 467	4.6367e+01	18.5513	66.457310	0.000263	2.634480	0.892586	0.000105
 468	4.6467e+01	18.5818	66.566313	0.000274	2.735806	0.926916	0.000110
 469	4.6566e+01	18.6251	66.695501	0.000324	3.242437	1.098567	0.000130
 470	4.6666e+01	18.6604	66.816615	0.000304	3.039785	1.029907	0.000122
 471	4.6765e+01	18.7038	66.913506	0.000243	2.431828	0.823926	0.000097
 472	4.6864e+01	18.7487	67.022509	0.000274	2.735806	0.926916	0.000110
 473	4.6964e+01	18.7920	67.115363	0.000233	2.330502	0.789595	0.000093
 474	4.7063e+01	18.8321	67.264737	0.000375	3.749068	1.270219	0.000150
 475	4.7163e+01	18.8690	67.381814	0.000294	2.938459	0.995577	0.000118
 476	4.7263e+01	18.9075	67.478705	0.000243	2.431828	0.823926	0.000097
 477	4.7362e+01	18.9444	67.591745	0.000284	2.837133	0.961247	0.000114
 478	4.7462e+01	18.9893	67.708822	0.000294	2.938459	0.995577	0.000118
 479	4.7561e+01	19.0262	67.829936	0.000304	3.039785	1.029907	0.000122
 480	4.7660e+01	19.0631	67.930864	0.000253	2.533154	0.858256	0.000101
 481	4.7760e+01	19.1032	68.023719	0.000233	2.330502	0.789595	0.000093
 482	4.7859e+01	19.1433	68.197315	0.000436	4.357025	1.476200	0.000174
 483	4.7959e+01	19.1834	68.253835	0.000142	1.418566	0.480623	0.000057
 484	4.8059e+01	19.2267	68.411284	0.000395	3.951720	1.338879	0.000158
 485	4.8158e+01	19.2700	68.492026	0.000203	2.026523	0.686605	0.000081
 486	4.8258e+01	19.3069	68.601029	0.000274	2.735806	0.926916	0.000110
 487	4.8357e+01	19.3406	68.718106	0.000294	2.938459	0.995577	0.000118
 488	4.8456e+01	19.3904	68.802886	0.000213	2.127849	0.720935	0.000085
 489	4.8556e+01	19.4224	68.944186	0.000355	3.546416	1.201558	0.000142
 490	4.8656e+01	19.4561	69.053188	0.000274	2.735806	0.926916	0.000110
 491	4.8755e+01	19.5107	69.129894	0.000193	1.925197	0.652274	0.000077
 492	4.8855e+01	19.5508	69.263119	0.000334	3.343763	1.132898	0.000134
 493	4.8954e+01	19.5845	69.380196	0.000294	2.938459	0.995577	0.000118
 494	4.9053e+01	19.6230	69.477087	0.000243	2.431828	0.823926	0.000097
 495	4.9153e+01	19.6647	69.650684	0.000436	4.357025	1.476200	0.000174
 496	4.9252e+01	19.7064	69.707204	0.000142	1.418566	0.480623	0.000057
 497	4.9352e+01	19.7385	69.828318	0.000304	3.039785	1.029907	0.000122
 498	4.9452e+01	19.7818	69.957507	0.000324	3.242437	1.098567	0.000130
 499	4.9551e+01	19.8187	70.070546	0.000284	2.837133	0.961247	0.000114
 500	4.9651e+01	19.8620	70.179549	0.000274	2.735806	0.926916	0.000110
 501	4.9750e+01	19.8989	70.300663	0.000304	3.039785	1.029907	0.000122
 502	4.9849e+01	19.9358	70.437926	0.000345	3.445090	1.167228	0.000138
 503	4.9949e+01	19.9823	70.490409	0.000132	1.317240	0.446293	0.000053
 504	5.0048e+01	19.9374	70.458111	0.000081	0.810609	0.274642	-0.000032
 505	5.0148e+01	19.8989	70.385443	0.000182	1.823871	0.617944	-0.000073
 506	5.0248e+01	19.8652	70.256255	0.000324	3.242437	1.098567	-0.000130
 507	5.0347e+01	19.8315	70.227995	0.000071	0.709283	0.240312	-0.000028
 508	5.0447e+01	19.7898	70.139178	0.000223	2.229176	0.755265	-0.000089
 509	5.0546e+01	19.7353	70.066509	0.000182	1.823871	0.617944	-0.000073
 510	5.0645e+01	19.6968	70.018064	0.000122	1.215914	0.411963	-0.000049
 511	5.0745e+01	19.6583	69.905024	0.000284	2.837133	0.961247	-0.000114
 512	5.0844e+01	19.6262	69.832355	0.000182	1.823871	0.617944	-0.000073
 513	5.0944e+01	19.5861	69.763724	0.000172	1.722545	0.583614	-0.000069
 514	5.1044e+01	19.5412	69.678944	0.000213	2.127849	0.720935	-0.000085
 515	5.1143e+01	19.5027	69.602239	0.000193	1.925197	0.652274	-0.000077
 516	5.1242e+01	19.4626	69.513422	0.000223	2.229176	0.755265	-0.000089
 517	5.1342e+01	19.4208	69.424605	0.000223	2.229176	0.755265	-0.000089
 518	5.1441e+01	19.3791	69.339825	0.000213	2.127849	0.720935	-0.000085
 519	5.1541e+01	19.3406	69.259082	0.000203	2.026523	0.686605	-0.000081
 520	5.1641e+01	19.3037	69.174302	0.000213	2.127849	0.720935	-0.000085
 521	5.1740e+01	19.2700	69.073374	0.000253	2.533154	0.858256	-0.000101
 522	5.1840e+01	19.2283	69.000705	0.000182	1.823871	0.617944	-0.000073
 523	5.1939e+01	19.1818	68.895740	0.000263	2.634480	0.892586	-0.000105
 524	5.2038e+01	19.1433	68.806923	0.000223	2.229176	0.755265	-0.000089
 525	5.2138e+01	19.1048	68.714069	0.000233	2.330502	0.789595	-0.000093
 526	5.2237e+01	19.0663	68.637363	0.000193	1.925197	0.652274	-0.000077
 527	5.2337e+01	19.0182	68.552583	0.000213	2.127849	0.720935	-0.000085
 528	5.2437e+01	18.9813	68.443581	0.000274	2.735806	0.926916	-0.000110
 529	5.2536e+01	18.9508	68.383024	0.000152	1.519892	0.514953	-0.000061
 530	5.2636e+01	18.9011	68.269984	0.000284	2.837133	0.961247	-0.000114
 531	5.2735e+01	18.8578	68.165018	0.000263	2.634480	0.892586	-0.000105
 532	5.2834e+01	18.8257	68.124647	0.000101	1.013262	0.343302	-0.000041
 533	5.2934e+01	18.7872	67.999496	0.000314	3.141111	1.064237	-0.000126
 534	5.3033e+01	18.7503	67.922790	0.000193	1.925197	0.652274	-0.000077
 535	5.3133e+01	18.7070	67.829936	0.000233	2.330502	0.789595	-0.000093
 536	5.3233e+01	18.6636	67.745156	0.000213	2.127849	0.720935	-0.000085
 537	5.3332e+01	18.6187	67.611931	0.000334	3.343763	1.132898	-0.000134
 538	5.3431e+01	18.5866	67.563485	0.000122	1.215914	0.411963	-0.000049
 539	5.3531e+01	18.5497	67.486780	0.000193	1.925197	0.652274	-0.000077
 540	5.3630e+01	18.5048	67.353554	0.000334	3.343763	1.132898	-0.000134
 541	5.3730e+01	18.4679	67.276849	0.000193	1.925197	0.652274	-0.000077
 542	5.3830e+01	18.4262	67.183994	0.000233	2.330502	0.789595	-0.000093
 543	5.3929e+01	18.3845	67.054806	0.000324	3.242437	1.098567	-0.000130
 544	5.4029e+01	18.3476	67.010398	0.000111	1.114588	0.377633	-0.000045
 545	5.4128e+01	18.3171	66.913506	0.000243	2.431828	0.823926	-0.000097
 546	5.4227e+01	18.2610	66.780281	0.000334	3.343763	1.132898	-0.000134
 547	5.4327e+01	18.2337	66.695501	0.000213	2.127849	0.720935	-0.000085
 548	5.4426e+01	18.1792	66.598610	0.000243	2.431828	0.823926	-0.000097
 549	5.4526e+01	18.1487	66.534016	0.000162	1.621219	0.549284	-0.000065
 550	5.4626e+01	18.1118	66.437124	0.000243	2.431828	0.823926	-0.000097
 551	5.4725e+01	18.0669	66.316010	0.000304	3.039785	1.029907	-0.000122
 552	5.4825e+01	18.0252	66.198933	0.000294	2.938459	0.995577	-0.000118
 553	5.4924e+01	17.9802	66.142413	0.000142	1.418566	0.480623	-0.000057
 554	5.5023e+01	17.9498	66.073782	0.000172	1.722545	0.583614	-0.000069
 555	5.5123e+01	17.9064	65.932482	0.000355	3.546416	1.201558	-0.000142
 556	5.5222e+01	17.8712	65.843665	0.000223	2.229176	0.755265	-0.000089
 557	5.5322e+01	17.8246	65.722551	0.000304	3.039785	1.029907	-0.000122
 558	5.5422e+01	17.7845	65.629697	0.000233	2.330502	0.789595	-0.000093
 559	5.5521e+01	17.7396	65.557029	0.000182	1.823871	0.617944	-0.000073
 560	5.5620e+01	17.7043	65.472249	0.000213	2.127849	0.720935	-0.000085
 561	5.5720e+01	17.6722	65.343060	0.000324	3.242437	1.098567	-0.000130
 562	5.5819e+01	17.6321	65.286541	0.000142	1.418566	0.480623	-0.000057
 563	5.5919e+01	17.5888	65.173501	0.000284	2.837133	0.961247	-0.000114
 564	5.6019e+01	17.5519	65.072572	0.000253	2.533154	0.858256	-0.000101
 565	5.6118e+01	17.5166	64.983755	0.000223	2.229176	0.755265	-0.000089
 566	5.6218e+01	17.4653	64.862641	0.000304	3.039785	1.029907	-0.000122
 567	5.6317e+01	17.4348	64.729416	0.000334	3.343763	1.132898	-0.000134
 568	5.6416e+01	17.3963	64.660785	0.000172	1.722545	0.583614	-0.000069
 569	5.6516e+01	17.3466	64.555819	0.000263	2.634480	0.892586	-0.000105
 570	5.6615e+01	17.3097	64.495262	0.000152	1.519892	0.514953	-0.000061
 571	5.6715e+01	17.2760	64.370111	0.000314	3.141111	1.064237	-0.000126
 572	5.6815e+01	17.2343	64.257071	0.000284	2.837133	0.961247	-0.000114
 573	5.6914e+01	17.1926	64.160180	0.000243	2.431828	0.823926	-0.000097
 574	5.7014e+01	17.1621	64.022917	0.000345	3.445090	1.167228	-0.000138
 575	5.7113e+01	17.1107	63.942174	0.000203	2.026523	0.686605	-0.000081
 576	5.7212e+01	17.0803	63.845283	0.000243	2.431828	0.823926	-0.000097
 577	5.7312e+01	17.0225	63.792800	0.000132	1.317240	0.446293	-0.000053
 578	5.7411e+01	16.9920	63.695909	0.000243	2.431828	0.823926	-0.000097
 579	5.7511e+01	16.9519	63.530387	0.000415	4.154373	1.407540	-0.000166
 580	5.7611e+01	16.9118	63.425421	0.000263	2.634480	0.892586	-0.000105
 581	5.7710e+01	16.8701	63.324493	0.000253	2.533154	0.858256	-0.000101
 582	5.7809e+01	16.8348	63.243750	0.000203	2.026523	0.686605	-0.000081
 583	5.7909e+01	16.7947	63.146859	0.000243	2.431828	0.823926	-0.000097
 584	5.8008e+01	16.7546	63.033819	0.000284	2.837133	0.961247	-0.000114
 585	5.8108e+01	16.7177	62.908668	0.000314	3.141111	1.064237	-0.000126
 586	5.8208e+01	16.6776	62.819851	0.000223	2.229176	0.755265	-0.000089
 587	5.8307e+01	16.6263	62.726997	0.000233	2.330502	0.789595	-0.000093
 588	5.8407e+01	16.6006	62.605882	0.000304	3.039785	1.029907	-0.000122
 589	5.8506e+01	16.5557	62.508991	0.000243	2.431828	0.823926	-0.000097
 590	5.8605e+01	16.5268	62.428248	0.000203	2.026523	0.686605	-0.000081
 591	5.8705e+01	16.4642	62.303097	0.000314	3.141111	1.064237	-0.000126
 592	5.8804e+01	16.4273	62.186020	0.000294	2.938459	0.995577	-0.000118
 593	5.8904e+01	16.4001	62.089129	0.000243	2.431828	0.823926	-0.000097
 594	5.9004e+01	16.3503	62.000312	0.000223	2.229176	0.755265	-0.000089
 595	5.9103e+01	16.3070	61.915532	0.000213	2.127849	0.720935	-0.000085
 596	5.9203e+01	16.2653	61.766158	0.000375	3.749068	1.270219	-0.000150
 597	5.9302e+01	16.2413	61.705601	0.000152	1.519892	0.514953	-0.000061
 598	5.9401e+01	16.1947	61.592561	0.000284	2.837133	0.961247	-0.000114
 599	5.9501e+01	16.1546	61.471447	0.000304	3.039785	1.029907	-0.000122
 600	5.9600e+01	16.1225	61.394742	0.000193	1.925197	0.652274	-0.000077
 601	5.9700e+01	16.0712	61.233256	0.000405	4.053047	1.373209	-0.000162
 602	5.9800e+01	16.0343	61.160588	0.000182	1.823871	0.617944	-0.000073
 603	5.9899e+01	16.0038	61.063697	0.000243	2.431828	0.823926	-0.000097
 604	5.9998e+01	15.9637	60.942583	0.000304	3.039785	1.029907	-0.000122
 605	6.0098e+01	15.9188	60.849728	0.000233	2.330502	0.789595	-0.000093
 606	6.0197e+01	15.8755	60.724577	0.000314	3.141111	1.064237	-0.000126
 607	6.0297e+01	15.8498	60.664020	0.000152	1.519892	0.514953	-0.000061
 608	6.0397e+01	15.7969	60.530795	0.000334	3.343763	1.132898	-0.000134
 609	6.0496e+01	15.7568	60.401606	0.000324	3.242437	1.098567	-0.000130
 610	6.0596e+01	15.7279	60.361235	0.000101	1.013262	0.343302	-0.000041
 611	6.0695e+01	15.6798	60.228010	0.000334	3.343763	1.132898	-0.000134
 612	6.0794e+01	15.6332	60.114970	0.000284	2.837133	0.961247	-0.000114
 613	6.0894e+01	15.6012	60.054413	0.000152	1.519892	0.514953	-0.000061
 614	6.0993e+01	15.5643	59.925224	0.000324	3.242437	1.098567	-0.000130
 615	6.1093e+01	15.5226	59.840444	0.000213	2.127849	0.720935	-0.000085
 616	6.1193e+01	15.4744	59.682996	0.000395	3.951720	1.338879	-0.000158
 617	6.1292e+01	15.4391	59.602253	0.000203	2.026523	0.686605	-0.000081
 618	6.1392e+01	15.4006	59.485177	0.000294	2.938459	0.995577	-0.000118
 619	6.1491e+01	15.3637	59.424619	0.000152	1.519892	0.514953	-0.000061
 620	6.1590e+01	15.3204	59.279283	0.000365	3.647742	1.235888	-0.000146
 621	6.1690e+01	15.2739	59.202577	0.000193	1.925197	0.652274	-0.000077
 622	6.1789e+01	15.2450	59.085500	0.000294	2.938459	0.995577	-0.000118
 623	6.1889e+01	15.1969	58.960349	0.000314	3.141111	1.064237	-0.000126
 624	6.1989e+01	15.1552	58.823086	0.000345	3.445090	1.167228	-0.000138
 625	6.2088e+01	15.1199	58.778678	0.000111	1.114588	0.377633	-0.000045
 626	6.2188e+01	15.0798	58.653527	0.000314	3.141111	1.064237	-0.000126
 627	6.2287e+01	15.0365	58.544524	0.000274	2.735806	0.926916	-0.000110
 628	6.2386e+01	15.0044	58.463781	0.000203	2.026523	0.686605	-0.000081
 629	6.2486e+01	14.9611	58.366890	0.000243	2.431828	0.823926	-0.000097
 630	6.2586e+01	14.9210	58.233664	0.000334	3.343763	1.132898	-0.000134
 631	6.2685e+01	14.8809	58.112550	0.000304	3.039785	1.029907	-0.000122
 632	6.2785e+01	14.8408	58.023733	0.000223	2.229176	0.755265	-0.000089
 633	6.2884e+01	14.8071	57.918768	0.000263	2.634480	0.892586	-0.000105
 634	6.2983e+01	14.7589	57.793617	0.000314	3.141111	1.064237	-0.000126
 635	6.3083e+01	14.7172	57.712874	0.000203	2.026523	0.686605	-0.000081
 636	6.3182e+01	14.6884	57.624057	0.000223	2.229176	0.755265	-0.000089
 637	6.3282e+01	14.6418	57.502943	0.000304	3.039785	1.029907	-0.000122
 638	6.3382e+01	14.5985	57.397977	0.000263	2.634480	0.892586	-0.000105
 639	6.3481e+01	14.5664	57.313198	0.000213	2.127849	0.720935	-0.000085
 640	6.3581e+01	14.5151	57.208232	0.000263	2.634480	0.892586	-0.000105
 641	6.3680e+01	14.4814	57.083081	0.000314	3.141111	1.064237	-0.000126
 642	6.3779e+01	14.4413	56.982152	0.000253	2.533154	0.858256	-0.000101
 643	6.3879e+01	14.3932	56.881224	0.000253	2.533154	0.858256	-0.000101
 644	6.3978e+01	14.3611	56.743961	0.000345	3.445090	1.167228	-0.000138
 645	6.4078e+01	14.3226	56.643033	0.000253	2.533154	0.858256	-0.000101
 646	6.4177e+01	14.2873	56.521919	0.000304	3.039785	1.029907	-0.000122
 647	6.4277e+01	14.2488	56.412916	0.000274	2.735806	0.926916	-0.000110
 648	6.4376e+01	14.2055	56.316025	0.000243	2.431828	0.823926	-0.000097
 649	6.4476e+01	14.1670	56.227208	0.000223	2.229176	0.755265	-0.000089
 650	6.4576e+01	14.1253	56.102057	0.000314	3.141111	1.064237	-0.000126
 651	6.4675e+01	14.0852	55.976906	0.000314	3.141111	1.064237	-0.000126
 652	6.4775e+01	14.0483	55.863866	0.000284	2.837133	0.961247	-0.000114
 653	6.4874e+01	14.0130	55.758900	0.000263	2.634480	0.892586	-0.000105
 654	6.4974e+01	13.9648	55.653935	0.000263	2.634480	0.892586	-0.000105
 655	6.5073e+01	13.9263	55.540895	0.000284	2.837133	0.961247	-0.000114
 656	6.5172e+01	13.8830	55.427855	0.000284	2.837133	0.961247	-0.000114
 657	6.5272e+01	13.8349	55.322890	0.000263	2.634480	0.892586	-0.000105
 658	6.5371e+01	13.8012	55.185627	0.000345	3.445090	1.167228	-0.000138
 659	6.5471e+01	13.7627	55.100847	0.000213	2.127849	0.720935	-0.000085
 660	6.5570e+01	13.7178	55.007993	0.000233	2.330502	0.789595	-0.000093
 661	6.5670e+01	13.6905	54.870730	0.000345	3.445090	1.167228	-0.000138
 662	6.5769e+01	13.6472	54.810173	0.000152	1.519892	0.514953	-0.000061
 663	6.5869e+01	13.6103	54.680985	0.000324	3.242437	1.098567	-0.000130
 664	6.5969e+01	13.5686	54.567945	0.000284	2.837133	0.961247	-0.000114
 665	6.6068e+01	13.5301	54.450868	0.000294	2.938459	0.995577	-0.000118
 666	6.6168e+01	13.4884	54.386274	0.000162	1.621219	0.549284	-0.000065
 667	6.6267e+01	13.4387	54.216714	0.000426	4.255699	1.441870	-0.000170
 668	6.6367e+01	13.4114	54.164232	0.000132	1.317240	0.446293	-0.000053
 669	6.6466e+01	13.3697	54.026969	0.000345	3.445090	1.167228	-0.000138
 670	6.6566e+01	13.3312	53.905855	0.000304	3.039785	1.029907	-0.000122
 671	6.6665e+01	13.2895	53.792815	0.000284	2.837133	0.961247	-0.000114
 672	6.6764e+01	13.2413	53.699961	0.000233	2.330502	0.789595	-0.000093
 673	6.6864e+01	13.2060	53.570773	0.000324	3.242437	1.098567	-0.000130
 674	6.6963e+01	13.1643	53.506179	0.000162	1.621219	0.549284	-0.000065
 675	6.7063e+01	13.1339	53.372953	0.000334	3.343763	1.132898	-0.000134
 676	6.7162e+01	13.0841	53.235690	0.000345	3.445090	1.167228	-0.000138
 677	6.7262e+01	13.0424	53.138799	0.000243	2.431828	0.823926	-0.000097
 678	6.7362e+01	13.0039	53.025759	0.000284	2.837133	0.961247	-0.000114
 679	6.7461e+01	12.9638	52.900608	0.000314	3.141111	1.064237	-0.000126
 680	6.7561e+01	12.9365	52.799680	0.000253	2.533154	0.858256	-0.000101
 681	6.7660e+01	12.8916	52.654343	0.000365	3.647742	1.235888	-0.000146
 682	6.7760e+01	12.8499	52.597823	0.000142	1.418566	0.480623	-0.000057
 683	6.7859e+01	12.8066	52.448449	0.000375	3.749068	1.270219	-0.000150
 684	6.7959e+01	12.7649	52.335409	0.000284	2.837133	0.961247	-0.000114
 685	6.8058e+01	12.7424	52.238518	0.000243	2.431828	0.823926	-0.000097
 686	6.8157e+01	12.6959	52.133552	0.000263	2.634480	0.892586	-0.000105
 687	6.8257e+01	12.6462	51.984178	0.000375	3.749068	1.270219	-0.000150
 688	6.8356e+01	12.6253	51.871139	0.000284	2.837133	0.961247	-0.000114
 689	6.8456e+01	12.5820	51.758099	0.000284	2.837133	0.961247	-0.000114
 690	6.8555e+01	12.5355	51.628910	0.000324	3.242437	1.098567	-0.000130
 691	6.8655e+01	12.4938	51.527982	0.000253	2.533154	0.858256	-0.000101
 692	6.8754e+01	12.4505	51.390719	0.000345	3.445090	1.167228	-0.000138
 693	6.8854e+01	12.4119	51.334199	0.000142	1.418566	0.480623	-0.000057
 694	6.8954e+01	12.3783	51.148491	0.000466	4.661003	1.579191	-0.000187
 695	6.9053e+01	12.3349	51.091971	0.000142	1.418566	0.480623	-0.000057
 696	6.9153e+01	12.2852	50.918374	0.000436	4.357025	1.476200	-0.000174
 697	6.9252e+01	12.2483	50.813409	0.000263	2.634480	0.892586	-0.000105
 698	6.9352e+01	12.2194	50.692295	0.000304	3.039785	1.029907	-0.000122
 699	6.9451e+01	12.1729	50.583292	0.000274	2.735806	0.926916	-0.000110
 700	6.9550e+01	12.1296	50.458141	0.000314	3.141111	1.064237	-0.000126
 701	6.9650e+01	12.0895	50.332990	0.000314	3.141111	1.064237	-0.000126
 702	6.9749e+01	12.0542	50.195727	0.000345	3.445090	1.167228	-0.000138
 703	6.9849e+01	12.0109	50.106910	0.000223	2.229176	0.755265	-0.000089
 704	6.9948e+01	11.9676	49.953499	0.000385	3.850394	1.304549	-0.000154
 705	7.0048e+01	11.9355	49.836422	0.000294	2.938459	0.995577	-0.000118
 706	7.0147e+01	11.8890	49.731457	0.000263	2.634480	0.892586	-0.000105
 707	7.0247e+01	11.8553	49.618417	0.000284	2.837133	0.961247	-0.000114
 708	7.0347e+01	11.8152	49.477117	0.000355	3.546416	1.201558	-0.000142
 709	7.0446e+01	11.7687	49.392337	0.000213	2.127849	0.720935	-0.000085
 710	7.0546e+01	11.7302	49.194518	0.000496	4.964982	1.682181	-0.000199
 711	7.0645e+01	11.6884	49.121849	0.000182	1.823871	0.617944	-0.000073
 712	7.0745e+01	11.6467	48.988624	0.000334	3.343763	1.132898	-0.000134
 713	7.0844e+01	11.6114	48.871547	0.000294	2.938459	0.995577	-0.000118
 714	7.0944e+01	11.5810	48.746395	0.000314	3.141111	1.064237	-0.000126
 715	7.1043e+01	11.5328	48.601059	0.000365	3.647742	1.235888	-0.000146
 716	7.1142e+01	11.4847	48.492056	0.000274	2.735806	0.926916	-0.000110
 717	7.1242e+01	11.4590	48.431499	0.000152	1.519892	0.514953	-0.000061
 718	7.1341e+01	11.4157	48.282125	0.000375	3.749068	1.270219	-0.000150
 719	7.1441e+01	11.3692	48.120639	0.000405	4.053047	1.373209	-0.000162
 720	7.1540e+01	11.3355	48.027785	0.000233	2.330502	0.789595	-0.000093
 721	7.1640e+01	11.2922	47.874374	0.000385	3.850394	1.304549	-0.000154
 722	7.1740e+01	11.2505	47.741149	0.000334	3.343763	1.132898	-0.000134
 723	7.1839e+01	11.2120	47.620035	0.000304	3.039785	1.029907	-0.000122
 724	7.1939e+01	11.1735	47.535255	0.000213	2.127849	0.720935	-0.000085
 725	7.2038e+01	11.1366	47.406066	0.000324	3.242437	1.098567	-0.000130
 726	7.2138e+01	11.0901	47.288989	0.000294	2.938459	0.995577	-0.000118
 727	7.2237e+01	11.0628	47.135578	0.000385	3.850394	1.304549	-0.000154
 728	7.2337e+01	11.0163	47.026576	0.000274	2.735806	0.926916	-0.000110
 729	7.2436e+01	10.9778	46.881239	0.000365	3.647742	1.235888	-0.000146
 730	7.2535e+01	10.9328	46.764162	0.000294	2.938459	0.995577	-0.000118
 731	7.2635e+01	10.9040	46.647085	0.000294	2.938459	0.995577	-0.000118
 732	7.2734e+01	10.8607	46.521934	0.000314	3.141111	1.064237	-0.000126
 733	7.2834e+01	10.8141	46.384671	0.000345	3.445090	1.167228	-0.000138
 734	7.2933e+01	10.7869	46.255483	0.000324	3.242437	1.098567	-0.000130
 735	7.3033e+01	10.7419	46.150517	0.000263	2.634480	0.892586	-0.000105
 736	7.3132e+01	10.6970	46.029403	0.000304	3.039785	1.029907	-0.000122
 737	7.3232e+01	10.6457	45.855806	0.000436	4.357025	1.476200	-0.000174
 738	7.3332e+01	10.6248	45.726618	0.000324	3.242437	1.098567	-0.000130
 739	7.3431e+01	10.5815	45.617615	0.000274	2.735806	0.926916	-0.000110
 740	7.3531e+01	10.5494	45.524761	0.000233	2.330502	0.789595	-0.000093
 741	7.3630e+01	10.4981	45.335016	0.000476	4.762330	1.613521	-0.000191
 742	7.3730e+01	10.4660	45.209865	0.000314	3.141111	1.064237	-0.000126
 743	7.3829e+01	10.4211	45.133159	0.000193	1.925197	0.652274	-0.000077
 744	7.3928e+01	10.3762	44.959562	0.000436	4.357025	1.476200	-0.000174
 745	7.4028e+01	10.3329	44.785965	0.000436	4.357025	1.476200	-0.000174
 746	7.4127e+01	10.2928	44.717334	0.000172	1.722545	0.583614	-0.000069
 747	7.4227e+01	10.2559	44.604294	0.000284	2.837133	0.961247	-0.000114
 748	7.4326e+01	10.2222	44.422623	0.000456	4.559677	1.544860	-0.000183
 749	7.4426e+01	10.1773	44.317658	0.000263	2.634480	0.892586	-0.000105
 750	7.4525e+01	10.1452	44.160209	0.000395	3.951720	1.338879	-0.000158
 751	7.4625e+01	10.1067	44.059281	0.000253	2.533154	0.858256	-0.000101
 752	7.4725e+01	10.0553	43.901833	0.000395	3.951720	1.338879	-0.000158
 753	7.4824e+01	10.0200	43.796867	0.000263	2.634480	0.892586	-0.000105
 754	7.4924e+01	9.9815	43.619233	0.000446	4.458351	1.510530	-0.000179
 755	7.5023e+01	9.9350	43.506193	0.000284	2.837133	0.961247	-0.000114
 756	7.5123e+01	9.9013	43.377005	0.000324	3.242437	1.098567	-0.000130
 757	7.5222e+01	9.8612	43.243779	0.000334	3.343763	1.132898	-0.000134
 758	7.5322e+01	9.8179	43.074220	0.000426	4.255699	1.441870	-0.000170
 759	7.5421e+01	9.7826	43.017700	0.000142	1.418566	0.480623	-0.000057
 760	7.5520e+01	9.7409	42.864289	0.000385	3.850394	1.304549	-0.000154
 761	7.5620e+01	9.7088	42.714915	0.000375	3.749068	1.270219	-0.000150
 762	7.5719e+01	9.6559	42.581689	0.000334	3.343763	1.132898	-0.000134
 763	7.5819e+01	9.6174	42.440389	0.000355	3.546416	1.201558	-0.000142
 764	7.5918e+01	9.5741	42.335424	0.000263	2.634480	0.892586	-0.000105
 765	7.6018e+01	9.5484	42.190087	0.000365	3.647742	1.235888	-0.000146
 766	7.6118e+01	9.5019	42.020527	0.000426	4.255699	1.441870	-0.000170
 767	7.6217e+01	9.4698	41.911525	0.000274	2.735806	0.926916	-0.000110
 768	7.6317e+01	9.4265	41.770225	0.000355	3.546416	1.201558	-0.000142
 769	7.6416e+01	9.3816	41.669297	0.000253	2.533154	0.858256	-0.000101
 770	7.6516e+01	9.3447	41.523960	0.000365	3.647742	1.235888	-0.000146
 771	7.6615e+01	9.3062	41.342289	0.000456	4.559677	1.544860	-0.000183
 772	7.6715e+01	9.2644	41.261546	0.000203	2.026523	0.686605	-0.000081
 773	7.6814e+01	9.2275	41.100060	0.000405	4.053047	1.373209	-0.000162
 774	7.6913e+01	9.1842	40.987021	0.000284	2.837133	0.961247	-0.000114
 775	7.7013e+01	9.1505	40.861869	0.000314	3.141111	1.064237	-0.000126
 776	7.7112e+01	9.1040	40.716532	0.000365	3.647742	1.235888	-0.000146
 777	7.7212e+01	9.0591	40.615604	0.000253	2.533154	0.858256	-0.000101
 778	7.7311e+01	9.0174	40.462193	0.000385	3.850394	1.304549	-0.000154
 779	7.7411e+01	8.9853	40.341079	0.000304	3.039785	1.029907	-0.000122
 780	7.7510e+01	8.9516	40.207853	0.000334	3.343763	1.132898	-0.000134
 781	7.7610e+01	8.9051	40.086739	0.000304	3.039785	1.029907	-0.000122
 782	7.7710e+01	8.8682	39.921217	0.000415	4.154373	1.407540	-0.000166
 783	7.7809e+01	8.8233	39.783954	0.000345	3.445090	1.167228	-0.000138
 784	7.7909e+01	8.7800	39.670914	0.000284	2.837133	0.961247	-0.000114
 785	7.8008e+01	8.7415	39.513466	0.000395	3.951720	1.338879	-0.000158
 786	7.8108e+01	8.7126	39.404463	0.000274	2.735806	0.926916	-0.000110
 787	7.8207e+01	8.6661	39.255089	0.000375	3.749068	1.270219	-0.000150
 788	7.8306e+01	8.6163	39.073418	0.000456	4.559677	1.544860	-0.000183
 789	7.8406e+01	8.5859	38.996713	0.000193	1.925197	0.652274	-0.000077
 790	7.8505e+01	8.5457	38.811004	0.000466	4.661003	1.579191	-0.000187
 791	7.8605e+01	8.5008	38.673742	0.000345	3.445090	1.167228	-0.000138
 792	7.8704e+01	8.4671	38.560702	0.000284	2.837133	0.961247	-0.000114
 793	7.8804e+01	8.4286	38.455736	0.000263	2.634480	0.892586	-0.000105
 794	7.8903e+01	8.3950	38.342697	0.000284	2.837133	0.961247	-0.000114
 795	7.9003e+01	8.3388	38.148914	0.000486	4.863656	1.647851	-0.000195
 796	7.9103e+01	8.3035	38.043949	0.000263	2.634480	0.892586	-0.000105
 797	7.9202e+01	8.2682	37.866315	0.000446	4.458351	1.510530	-0.000179
 798	7.9302e+01	8.2313	37.785572	0.000203	2.026523	0.686605	-0.000081
 799	7.9401e+01	8.1848	37.648309	0.000345	3.445090	1.167228	-0.000138
 800	7.9501e+01	8.1447	37.470675	0.000446	4.458351	1.510530	-0.000179
 801	7.9600e+01	8.1094	37.341487	0.000324	3.242437	1.098567	-0.000130
 802	7.9700e+01	8.0693	37.216336	0.000314	3.141111	1.064237	-0.000126
 803	7.9799e+01	8.0372	37.058888	0.000395	3.951720	1.338879	-0.000158
 804	7.9898e+01	7.9907	36.901439	0.000395	3.951720	1.338879	-0.000158
 805	7.9998e+01	7.9458	36.792437	0.000274	2.735806	0.926916	-0.000110
 806	8.0097e+01	7.9025	36.651137	0.000355	3.546416	1.201558	-0.000142
 807	8.0197e+01	7.8736	36.525986	0.000314	3.141111	1.064237	-0.000126
 808	8.0296e+01	7.8287	36.404872	0.000304	3.039785	1.029907	-0.000122
 809	8.0396e+01	7.7950	36.303943	0.000253	2.533154	0.858256	-0.000101
 810	8.0496e+01	7.7420	36.110161	0.000486	4.863656	1.647851	-0.000195
 811	8.0595e+01	7.7083	35.956749	0.000385	3.850394	1.304549	-0.000154
 812	8.0695e+01	7.6634	35.819487	0.000345	3.445090	1.167228	-0.000138
 813	8.0794e+01	7.6313	35.666076	0.000385	3.850394	1.304549	-0.000154
 814	8.0894e+01	7.5848	35.557073	0.000274	2.735806	0.926916	-0.000110
 815	8.0993e+01	7.5399	35.419810	0.000345	3.445090	1.167228	-0.000138
 816	8.1093e+01	7.5078	35.238139	0.000456	4.559677	1.544860	-0.000183
 817	8.1192e+01	7.4661	35.137211	0.000253	2.533154	0.858256	-0.000101
 818	8.1291e+01	7.4308	35.024171	0.000284	2.837133	0.961247	-0.000114
 819	8.1391e+01	7.3923	34.866723	0.000395	3.951720	1.338879	-0.000158
 820	8.1490e+01	7.3538	34.705237	0.000405	4.053047	1.373209	-0.000162
 821	8.1590e+01	7.3105	34.572012	0.000334	3.343763	1.132898	-0.000134
 822	8.1689e+01	7.2704	34.406489	0.000415	4.154373	1.407540	-0.000166
 823	8.1789e+01	7.2287	34.269227	0.000345	3.445090	1.167228	-0.000138
 824	8.1888e+01	7.1934	34.160224	0.000274	2.735806	0.926916	-0.000110
 825	8.1988e+01	7.1597	34.047184	0.000284	2.837133	0.961247	-0.000114
 826	8.2088e+01	7.1164	33.881662	0.000415	4.154373	1.407540	-0.000166
 827	8.2187e+01	7.0731	33.744399	0.000345	3.445090	1.167228	-0.000138
 828	8.2287e+01	7.0249	33.590988	0.000385	3.850394	1.304549	-0.000154
 829	8.2386e+01	6.9961	33.409317	0.000456	4.559677	1.544860	-0.000183
 830	8.2486e+01	6.9495	33.332611	0.000193	1.925197	0.652274	-0.000077
 831	8.2585e+01	6.9046	33.150940	0.000456	4.559677	1.544860	-0.000183
 832	8.2684e+01	6.8790	33.054049	0.000243	2.431828	0.823926	-0.000097
 833	8.2784e+01	6.8292	32.864303	0.000476	4.762330	1.613521	-0.000191
 834	8.2883e+01	6.7907	32.791635	0.000182	1.823871	0.617944	-0.000073
 835	8.2983e+01	6.7474	32.622075	0.000426	4.255699	1.441870	-0.000170
 836	8.3082e+01	6.7185	32.448478	0.000436	4.357025	1.476200	-0.000174
 837	8.3182e+01	6.6816	32.331402	0.000294	2.938459	0.995577	-0.000118
 838	8.3281e+01	6.6319	32.173953	0.000395	3.951720	1.338879	-0.000158
 839	8.3381e+01	6.5854	32.068988	0.000263	2.634480	0.892586	-0.000105
 840	8.3481e+01	6.5661	31.883279	0.000466	4.661003	1.579191	-0.000187
 841	8.3580e+01	6.5100	31.754091	0.000324	3.242437	1.098567	-0.000130
 842	8.3680e+01	6.4683	31.612791	0.000355	3.546416	1.201558	-0.000142
 843	8.3779e+01	6.4426	31.487640	0.000314	3.141111	1.064237	-0.000126
 844	8.3879e+01	6.3993	31.370563	0.000294	2.938459	0.995577	-0.000118
 845	8.3978e+01	6.3560	31.152558	0.000547	5.471613	1.853833	-0.000219
 846	8.4078e+01	6.3175	31.051630	0.000253	2.533154	0.858256	-0.000101
 847	8.4177e+01	6.2758	30.894181	0.000395	3.951720	1.338879	-0.000158
 848	8.4276e+01	6.2340	30.732696	0.000405	4.053047	1.373209	-0.000162
 849	8.4376e+01	6.1955	30.619656	0.000284	2.837133	0.961247	-0.000114
 850	8.4475e+01	6.1570	30.454133	0.000415	4.154373	1.407540	-0.000166
 851	8.4575e+01	6.1169	30.288611	0.000415	4.154373	1.407540	-0.000166
 852	8.4674e+01	6.0816	30.179608	0.000274	2.735806	0.926916	-0.000110
 853	8.4774e+01	6.0319	30.022160	0.000395	3.951720	1.338879	-0.000158
 854	8.4874e+01	6.0046	29.864712	0.000395	3.951720	1.338879	-0.000158
 855	8.4973e+01	5.9469	29.727449	0.000345	3.445090	1.167228	-0.000138
 856	8.5073e+01	5.9164	29.574038	0.000385	3.850394	1.304549	-0.000154
 857	8.5172e+01	5.8811	29.404478	0.000426	4.255699	1.441870	-0.000170
 858	8.5272e+01	5.8346	29.263178	0.000355	3.546416	1.201558	-0.000142
 859	8.5371e+01	5.7961	29.113804	0.000375	3.749068	1.270219	-0.000150
 860	8.5471e+01	5.7528	28.968467	0.000365	3.647742	1.235888	-0.000146
 861	8.5570e+01	5.7287	28.843316	0.000314	3.141111	1.064237	-0.000126
 862	8.5669e+01	5.6806	28.661645	0.000456	4.559677	1.544860	-0.000183
 863	8.5769e+01	5.6405	28.516308	0.000365	3.647742	1.235888	-0.000146
 864	8.5868e+01	5.6020	28.342711	0.000436	4.357025	1.476200	-0.000174
 865	8.5968e+01	5.5571	28.225635	0.000294	2.938459	0.995577	-0.000118
 866	8.6067e+01	5.5073	28.060112	0.000415	4.154373	1.407540	-0.000166
 867	8.6167e+01	5.4704	27.906701	0.000385	3.850394	1.304549	-0.000154
 868	8.6266e+01	5.4335	27.733104	0.000436	4.357025	1.476200	-0.000174
 869	8.6366e+01	5.3934	27.607953	0.000314	3.141111	1.064237	-0.000126
 870	8.6466e+01	5.3581	27.426282	0.000456	4.559677	1.544860	-0.000183
 871	8.6565e+01	5.3212	27.293056	0.000334	3.343763	1.132898	-0.000134
 872	8.6665e+01	5.2747	27.123496	0.000426	4.255699	1.441870	-0.000170
 873	8.6764e+01	5.2346	26.966048	0.000395	3.951720	1.338879	-0.000158
 874	8.6864e+01	5.2025	26.816674	0.000375	3.749068	1.270219	-0.000150
 875	8.6963e+01	5.1640	26.651152	0.000415	4.154373	1.407540	-0.000166
 876	8.7063e+01	5.1239	26.505815	0.000365	3.647742	1.235888	-0.000146
 877	8.7162e+01	5.0774	26.360478	0.000365	3.647742	1.235888	-0.000146
 878	8.7261e+01	5.0437	26.211104	0.000375	3.749068	1.270219	-0.000150
 879	8.7361e+01	5.0036	26.033470	0.000446	4.458351	1.510530	-0.000179
 880	8.7460e+01	4.9747	25.888133	0.000365	3.647742	1.235888	-0.000146
 881	8.7560e+01	4.9202	25.750870	0.000345	3.445090	1.167228	-0.000138
 882	8.7659e+01	4.8833	25.577273	0.000436	4.357025	1.476200	-0.000174
 883	8.7759e+01	4.8416	25.431937	0.000365	3.647742	1.235888	-0.000146
 884	8.7859e+01	4.7999	25.258340	0.000436	4.357025	1.476200	-0.000174
 885	8.7958e+01	4.7549	25.117040	0.000355	3.546416	1.201558	-0.000142
 886	8.8058e+01	4.7229	24.971703	0.000365	3.647742	1.235888	-0.000146
 887	8.8157e+01	4.6812	24.806181	0.000415	4.154373	1.407540	-0.000166
 888	8.8257e+01	4.6426	24.624509	0.000456	4.559677	1.544860	-0.000183
 889	8.8356e+01	4.6009	24.463024	0.000405	4.053047	1.373209	-0.000162
 890	8.8456e+01	4.5705	24.313650	0.000375	3.749068	1.270219	-0.000150
 891	8.8555e+01	4.5223	24.140053	0.000436	4.357025	1.476200	-0.000174
 892	8.8654e+01	4.4838	23.986642	0.000385	3.850394	1.304549	-0.000154
 893	8.8754e+01	4.4501	23.804971	0.000456	4.559677	1.544860	-0.000183
 894	8.8853e+01	4.4036	23.691931	0.000284	2.837133	0.961247	-0.000114
 895	8.8953e+01	4.3699	23.554668	0.000345	3.445090	1.167228	-0.000138
 896	8.9052e+01	4.3218	23.393183	0.000405	4.053047	1.373209	-0.000162
 897	8.9152e+01	4.2897	23.235735	0.000395	3.951720	1.338879	-0.000158
 898	8.9251e+01	4.2448	23.037915	0.000496	4.964982	1.682181	-0.000199
 899	8.9351e+01	4.2095	22.880467	0.000395	3.951720	1.338879	-0.000158
 900	8.9451e+01	4.1582	22.743204	0.000345	3.445090	1.167228	-0.000138
 901	8.9550e+01	4.1213	22.605942	0.000345	3.445090	1.167228	-0.000138
 902	8.9650e+01	4.0780	22.375825	0.000578	5.775591	1.956823	-0.000231
 903	8.9749e+01	4.0362	22.274896	0.000253	2.533154	0.858256	-0.000101
 904	8.9849e+01	4.0090	22.097262	0.000446	4.458351	1.510530	-0.000179
 905	8.9948e+01	3.9544	21.899443	0.000496	4.964982	1.682181	-0.000199
 906	9.0047e+01	3.9240	21.758143	0.000355	3.546416	1.201558	-0.000142
 907	9.0147e+01	3.8855	21.564361	0.000486	4.863656	1.647851	-0.000195
 908	9.0246e+01	3.8405	21.406912	0.000395	3.951720	1.338879	-0.000158
 909	9.0346e+01	3.8052	21.293872	0.000284	2.837133	0.961247	-0.000114
 910	9.0445e+01	3.7635	21.112201	0.000456	4.559677	1.544860	-0.000183
 911	9.0545e+01	3.7250	20.930530	0.000456	4.559677	1.544860	-0.000183
 912	9.0644e+01	3.6929	20.785193	0.000365	3.647742	1.235888	-0.000146
 913	9.0744e+01	3.6416	20.619671	0.000415	4.154373	1.407540	-0.000166
 914	9.0844e+01	3.6031	20.478371	0.000355	3.546416	1.201558	-0.000142
 915	9.0943e+01	3.5646	20.276514	0.000507	5.066308	1.716512	-0.000203
 916	9.1043e+01	3.5197	20.151363	0.000314	3.141111	1.064237	-0.000126
 917	9.1142e+01	3.4892	19.977766	0.000436	4.357025	1.476200	-0.000174
 918	9.1242e+01	3.4459	19.788021	0.000476	4.762330	1.613521	-0.000191
 919	9.1341e+01	3.4090	19.642684	0.000365	3.647742	1.235888	-0.000146
 920	9.1441e+01	3.3721	19.493310	0.000375	3.749068	1.270219	-0.000150
 921	9.1540e+01	3.3192	19.307602	0.000466	4.661003	1.579191	-0.000187
 922	9.1639e+01	3.2935	19.150153	0.000395	3.951720	1.338879	-0.000158
 923	9.1739e+01	3.2486	18.956371	0.000486	4.863656	1.647851	-0.000195
 924	9.1838e+01	3.1956	18.839294	0.000294	2.938459	0.995577	-0.000118
 925	9.1938e+01	3.1716	18.629363	0.000527	5.268960	1.785172	-0.000211
 926	9.2037e+01	3.1315	18.488063	0.000355	3.546416	1.201558	-0.000142
 927	9.2137e+01	3.0865	18.290243	0.000496	4.964982	1.682181	-0.000199
 928	9.2237e+01	3.0529	18.140869	0.000375	3.749068	1.270219	-0.000150
 929	9.2336e+01	3.0079	17.975347	0.000415	4.154373	1.407540	-0.000166
 930	9.2436e+01	2.9646	17.813861	0.000405	4.053047	1.373209	-0.000162
 931	9.2535e+01	2.9293	17.640265	0.000436	4.357025	1.476200	-0.000174
 932	9.2635e+01	2.8860	17.450519	0.000476	4.762330	1.613521	-0.000191
 933	9.2734e+01	2.8475	17.353628	0.000243	2.431828	0.823926	-0.000097
 934	9.2834e+01	2.8010	17.151771	0.000507	5.066308	1.716512	-0.000203
 935	9.2933e+01	2.7625	16.945877	0.000517	5.167634	1.750842	-0.000207
 936	9.3032e+01	2.7240	16.820726	0.000314	3.141111	1.064237	-0.000126
 937	9.3132e+01	2.6887	16.635018	0.000466	4.661003	1.579191	-0.000187
 938	9.3231e+01	2.6422	16.469495	0.000415	4.154373	1.407540	-0.000166
 939	9.3331e+01	2.6101	16.360493	0.000274	2.735806	0.926916	-0.000110
 940	9.3430e+01	2.5604	16.162673	0.000496	4.964982	1.682181	-0.000199
 941	9.3530e+01	2.5235	15.972928	0.000476	4.762330	1.613521	-0.000191
 942	9.3629e+01	2.4962	15.827591	0.000365	3.647742	1.235888	-0.000146
 943	9.3729e+01	2.4497	15.674180	0.000385	3.850394	1.304549	-0.000154
 944	9.3829e+01	2.4144	15.496546	0.000446	4.458351	1.510530	-0.000179
 945	9.3928e+01	2.3711	15.343134	0.000385	3.850394	1.304549	-0.000154
 946	9.4028e+01	2.3293	15.157426	0.000466	4.661003	1.579191	-0.000187
 947	9.4127e+01	2.2908	15.012089	0.000365	3.647742	1.235888	-0.000146
 948	9.4227e+01	2.2620	14.826381	0.000466	4.661003	1.579191	-0.000187
 949	9.4326e+01	2.2026	14.656821	0.000426	4.255699	1.441870	-0.000170
 950	9.4425e+01	2.1737	14.523596	0.000334	3.343763	1.132898	-0.000134
 951	9.4525e+01	2.1288	14.337888	0.000466	4.661003	1.579191	-0.000187
 952	9.4624e+01	2.0983	14.164291	0.000436	4.357025	1.476200	-0.000174
 953	9.4724e+01	2.0534	13.986657	0.000446	4.458351	1.510530	-0.000179
 954	9.4823e+01	2.0149	13.817097	0.000426	4.255699	1.441870	-0.000170
 955	9.4923e+01	1.9748	13.687909	0.000324	3.242437	1.098567	-0.000130
 956	9.5022e+01	1.9379	13.530460	0.000395	3.951720	1.338879	-0.000158
 957	9.5122e+01	1.8946	13.364938	0.000415	4.154373	1.407540	-0.000166
 958	9.5222e+01	1.8545	13.203452	0.000405	4.053047	1.373209	-0.000162
 959	9.5321e+01	1.8096	13.054078	0.000375	3.749068	1.270219	-0.000150
 960	9.5421e+01	1.7711	12.864333	0.000476	4.762330	1.613521	-0.000191
 961	9.5520e+01	1.7310	12.678625	0.000466	4.661003	1.579191	-0.000187
 962	9.5620e+01	1.6893	12.513102	0.000415	4.154373	1.407540	-0.000166
 963	9.5719e+01	1.6540	12.347580	0.000415	4.154373	1.407540	-0.000166
 964	9.5819e+01	1.6042	12.153797	0.000486	4.863656	1.647851	-0.000195
 965	9.5918e+01	1.5802	11.964052	0.000476	4.762330	1.613521	-0.000191
 966	9.6017e+01	1.5224	11.867161	0.000243	2.431828	0.823926	-0.000097
 967	9.6117e+01	1.4984	11.669341	0.000496	4.964982	1.682181	-0.000199
 968	9.6216e+01	1.4599	11.507855	0.000405	4.053047	1.373209	-0.000162
 969	9.6316e+01	1.4053	11.358481	0.000375	3.749068	1.270219	-0.000150
 970	9.6415e+01	1.3780	11.172773	0.000466	4.661003	1.579191	-0.000187
 971	9.6515e+01	1.3299	11.015325	0.000395	3.951720	1.338879	-0.000158
 972	9.6615e+01	1.2914	10.833654	0.000456	4.559677	1.544860	-0.000183
 973	9.6714e+01	1.2545	10.656020	0.000446	4.458351	1.510530	-0.000179
 974	9.6814e+01	1.2224	10.490497	0.000415	4.154373	1.407540	-0.000166
 975	9.6913e+01	1.1695	10.333049	0.000395	3.951720	1.338879	-0.000158
 976	9.7013e+01	1.1342	10.191749	0.000355	3.546416	1.201558	-0.000142
 977	9.7112e+01	1.0861	9.981818	0.000527	5.268960	1.785172	-0.000211
 978	9.7212e+01	1.0524	9.820333	0.000405	4.053047	1.373209	-0.000162
 979	9.7311e+01	1.0171	9.674996	0.000365	3.647742	1.235888	-0.000146
 980	9.7410e+01	0.9722	9.481213	0.000486	4.863656	1.647851	-0.000195
 981	9.7510e+01	0.9224	9.339914	0.000355	3.546416	1.201558	-0.000142
 982	9.7609e+01	0.8984	9.162280	0.000446	4.458351	1.510530	-0.000179
 983	9.7709e+01	0.8502	8.992720	0.000426	4.255699	1.441870	-0.000170
 984	9.7808e+01	0.8133	8.827197	0.000415	4.154373	1.407540	-0.000166
 985	9.7908e+01	0.7748	8.665712	0.000405	4.053047	1.373209	-0.000162
 986	9.8007e+01	0.7363	8.496152	0.000426	4.255699	1.441870	-0.000170
 987	9.8107e+01	0.6946	8.314481	0.000456	4.559677	1.544860	-0.000183
 988	9.8207e+01	0.6545	8.148958	0.000415	4.154373	1.407540	-0.000166
 989	9.8306e+01	0.6208	7.983436	0.000415	4.154373	1.407540	-0.000166
 990	9.8406e+01	0.5647	7.789653	0.000486	4.863656	1.647851	-0.000195
 991	9.8505e+01	0.5294	7.648354	0.000355	3.546416	1.201558	-0.000142
 992	9.8605e+01	0.5005	7.478794	0.000426	4.255699	1.441870	-0.000170
 993	9.8704e+01	0.4684	7.301160	0.000446	4.458351	1.510530	-0.000179
 994	9.8803e+01	0.4107	7.135637	0.000415	4.154373	1.407540	-0.000166
 995	9.8903e+01	0.3722	6.958003	0.000446	4.458351	1.510530	-0.000179
 996	9.9002e+01	0.3385	6.784407	0.000436	4.357025	1.476200	-0.000174
 997	9.9102e+01	0.3016	6.667330	0.000294	2.938459	0.995577	-0.000118
 998	9.9201e+01	0.2519	6.485659	0.000456	4.559677	1.544860	-0.000183
 999	9.9301e+01	0.2150	6.303987	0.000456	4.559677	1.544860	-0.000183
1000	9.9400e+01	0.1781	6.098094	0.000517	5.167634	1.750842	-0.000207
1001	9.9500e+01	0.1348	5.972942	0.000314	3.141111	1.064237	-0.000126
1002	9.9600e+01	0.1011	5.807420	0.000415	4.154373	1.407540	-0.000166
1003	9.9699e+01	0.0465	5.658046	0.000375	3.749068	1.270219	-0.000150
1004	9.9799e+01	0.0209	5.472337	0.000466	4.661003	1.579191	-0.000187
1005	9.9898e+01	-0.0080	5.306815	0.000415	4.154373	1.407540	-0.000166
1006	9.9998e+01	-0.0513	5.185701	0.000304	3.039785	1.029907	-0.000122
1007	1.0010e+02	-0.0914	4.975770	0.000527	5.268960	1.785172	-0.000211
1008	1.0020e+02	-0.1332	4.802173	0.000436	4.357025	1.476200	-0.000174
1009	1.0030e+02	-0.1749	4.644725	0.000395	3.951720	1.338879	-0.000158
1010	1.0040e+02	-0.2214	4.450942	0.000486	4.863656	1.647851	-0.000195
1011	1.0050e+02	-0.2551	4.293494	0.000395	3.951720	1.338879	-0.000158
1012	1.0059e+02	-0.2920	4.127971	0.000415	4.154373	1.407540	-0.000166
1013	1.0069e+02	-0.3353	3.990709	0.000345	3.445090	1.167228	-0.000138
1014	1.0079e+02	-0.3658	3.768666	0.000557	5.572939	1.888163	-0.000223
1015	1.0089e+02	-0.4155	3.623329	0.000365	3.647742	1.235888	-0.000146
1016	1.0099e+02	-0.4524	3.465881	0.000395	3.951720	1.338879	-0.000158
1017	1.0109e+02	-0.4909	3.288247	0.000446	4.458351	1.510530	-0.000179
1018	1.0119e+02	-0.5278	3.122724	0.000415	4.154373	1.407540	-0.000166
1019	1.0129e+02	-0.5727	2.932979	0.000476	4.762330	1.613521	-0.000191
1020	1.0139e+02	-0.6192	2.747271	0.000466	4.661003	1.579191	-0.000187
1021	1.0149e+02	-0.6481	2.593860	0.000385	3.850394	1.304549	-0.000154
1022	1.0159e+02	-0.6866	2.408151	0.000466	4.661003	1.579191	-0.000187
1023	1.0169e+02	-0.7331	2.254740	0.000385	3.850394	1.304549	-0.000154
1024	1.0179e+02	-0.7668	2.105366	0.000375	3.749068	1.270219	-0.000150
1025	1.0189e+02	-0.8133	1.907547	0.000496	4.964982	1.682181	-0.000199
1026	1.0199e+02	-0.8454	1.721838	0.000466	4.661003	1.579191	-0.000187
1027	1.0209e+02	-0.8775	1.596687	0.000314	3.141111	1.064237	-0.000126
1028	1.0219e+02	-0.9417	1.402905	0.000486	4.863656	1.647851	-0.000195
1029	1.0229e+02	-0.9690	1.253531	0.000375	3.749068	1.270219	-0.000150
1030	1.0239e+02	-1.0042	1.043600	0.000527	5.268960	1.785172	-0.000211
1031	1.0248e+02	-1.0428	0.878077	0.000415	4.154373	1.407540	-0.000166
1032	1.0258e+02	-1.0877	0.744852	0.000334	3.343763	1.132898	-0.000134
1033	1.0268e+02	-1.1278	0.518772	0.000567	5.674265	1.922493	-0.000227
1034	1.0278e+02	-1.1695	0.361324	0.000395	3.951720	1.338879	-0.000158
1035	1.0288e+02	-1.2112	0.203875	0.000395	3.951720	1.338879	-0.000158
1036	1.0298e+02	-1.2497	0.050464	0.000385	3.850394	1.304549	-0.000154
1037	1.0308e+02	-1.2834	-0.183690	0.000588	5.876917	1.991154	-0.000235
1038	1.0318e+02	-1.3251	-0.353249	0.000426	4.255699	1.441870	-0.000170
1039	1.0328e+02	-1.3700	-0.526846	0.000436	4.357025	1.476200	-0.000174
1040	1.0338e+02	-1.4117	-0.716592	0.000476	4.762330	1.613521	-0.000191
1041	1.0348e+02	-1.4422	-0.833669	0.000294	2.938459	0.995577	-0.000118
1042	1.0358e+02	-1.4887	-1.035525	0.000507	5.066308	1.716512	-0.000203
1043	1.0368e+02	-1.5336	-1.205085	0.000426	4.255699	1.441870	-0.000170
1044	1.0378e+02	-1.5705	-1.390793	0.000466	4.661003	1.579191	-0.000187
1045	1.0388e+02	-1.6139	-1.548242	0.000395	3.951720	1.338879	-0.000158
1046	1.0398e+02	-1.6508	-1.701653	0.000385	3.850394	1.304549	-0.000154
1047	1.0408e+02	-1.6812	-1.899472	0.000496	4.964982	1.682181	-0.000199
1048	1.0418e+02	-1.7229	-2.056921	0.000395	3.951720	1.338879	-0.000158
1049	1.0428e+02	-1.7663	-2.246666	0.000476	4.762330	1.613521	-0.000191
1050	1.0438e+02	-1.8112	-2.448523	0.000507	5.066308	1.716512	-0.000203
1051	1.0447e+02	-1.8497	-2.618083	0.000426	4.255699	1.441870	-0.000170
1052	1.0457e+02	-1.8914	-2.787642	0.000426	4.255699	1.441870	-0.000170
1053	1.0467e+02	-1.9331	-2.969313	0.000456	4.559677	1.544860	-0.000183
1054	1.0477e+02	-1.9636	-3.146947	0.000446	4.458351	1.510530	-0.000179
1055	1.0487e+02	-2.0085	-3.292284	0.000365	3.647742	1.235888	-0.000146
1056	1.0497e+02	-2.0438	-3.473955	0.000456	4.559677	1.544860	-0.000183
1057	1.0507e+02	-2.0839	-3.623329	0.000375	3.749068	1.270219	-0.000150
1058	1.0517e+02	-2.1240	-3.853446	0.000578	5.775591	1.956823	-0.000231
1059	1.0527e+02	-2.1641	-3.986672	0.000334	3.343763	1.132898	-0.000134
1060	1.0537e+02	-2.2106	-4.152194	0.000415	4.154373	1.407540	-0.000166
1061	1.0547e+02	-2.2443	-4.317717	0.000415	4.154373	1.407540	-0.000166
1062	1.0557e+02	-2.2876	-4.511499	0.000486	4.863656	1.647851	-0.000195
1063	1.0567e+02	-2.3245	-4.709319	0.000496	4.964982	1.682181	-0.000199
1064	1.0577e+02	-2.3727	-4.866767	0.000395	3.951720	1.338879	-0.000158
1065	1.0587e+02	-2.4015	-5.024215	0.000395	3.951720	1.338879	-0.000158
1066	1.0597e+02	-2.4465	-5.185701	0.000405	4.053047	1.373209	-0.000162
1067	1.0607e+02	-2.4850	-5.395632	0.000527	5.268960	1.785172	-0.000211
1068	1.0617e+02	-2.5267	-5.573266	0.000446	4.458351	1.510530	-0.000179
1069	1.0627e+02	-2.5796	-5.718603	0.000365	3.647742	1.235888	-0.000146
1070	1.0637e+02	-2.6085	-5.880088	0.000405	4.053047	1.373209	-0.000162
1071	1.0647e+02	-2.6406	-6.037536	0.000395	3.951720	1.338879	-0.000158
1072	1.0656e+02	-2.6919	-6.247468	0.000527	5.268960	1.785172	-0.000211
1073	1.0666e+02	-2.7208	-6.412990	0.000415	4.154373	1.407540	-0.000166
1074	1.0676e+02	-2.7689	-6.578513	0.000415	4.154373	1.407540	-0.000166
1075	1.0686e+02	-2.8010	-6.780369	0.000507	5.066308	1.716512	-0.000203
1076	1.0696e+02	-2.8427	-6.949929	0.000426	4.255699	1.441870	-0.000170
1077	1.0706e+02	-2.8876	-7.155823	0.000517	5.167634	1.750842	-0.000207
1078	1.0716e+02	-2.9261	-7.276937	0.000304	3.039785	1.029907	-0.000122
1079	1.0726e+02	-2.9646	-7.450534	0.000436	4.357025	1.476200	-0.000174
1080	1.0736e+02	-3.0031	-7.656428	0.000517	5.167634	1.750842	-0.000207
1081	1.0746e+02	-3.0561	-7.813876	0.000395	3.951720	1.338879	-0.000158
1082	1.0756e+02	-3.0833	-7.979399	0.000415	4.154373	1.407540	-0.000166
1083	1.0766e+02	-3.1218	-8.169144	0.000476	4.762330	1.613521	-0.000191
1084	1.0776e+02	-3.1571	-8.346778	0.000446	4.458351	1.510530	-0.000179
1085	1.0786e+02	-3.1972	-8.524412	0.000446	4.458351	1.510530	-0.000179
1086	1.0796e+02	-3.2486	-8.669749	0.000365	3.647742	1.235888	-0.000146
1087	1.0806e+02	-3.2871	-8.883717	0.000537	5.370287	1.819502	-0.000215
1088	1.0816e+02	-3.3256	-9.037128	0.000385	3.850394	1.304549	-0.000154
1089	1.0826e+02	-3.3641	-9.226874	0.000476	4.762330	1.613521	-0.000191
1090	1.0836e+02	-3.4074	-9.339914	0.000284	2.837133	0.961247	-0.000114
1091	1.0845e+02	-3.4475	-9.553882	0.000537	5.370287	1.819502	-0.000215
1092	1.0855e+02	-3.4764	-9.703256	0.000375	3.749068	1.270219	-0.000150
1093	1.0865e+02	-3.5181	-9.880890	0.000446	4.458351	1.510530	-0.000179
1094	1.0875e+02	-3.5582	-10.062561	0.000456	4.559677	1.544860	-0.000183
1095	1.0885e+02	-3.5967	-10.195786	0.000334	3.343763	1.132898	-0.000134
1096	1.0895e+02	-3.6464	-10.397643	0.000507	5.066308	1.716512	-0.000203
1097	1.0905e+02	-3.6817	-10.571240	0.000436	4.357025	1.476200	-0.000174
1098	1.0915e+02	-3.7186	-10.728688	0.000395	3.951720	1.338879	-0.000158
1099	1.0925e+02	-3.7619	-10.898248	0.000426	4.255699	1.441870	-0.000170
1100	1.0935e+02	-3.8020	-11.051659	0.000385	3.850394	1.304549	-0.000154
1101	1.0945e+02	-3.8341	-11.261590	0.000527	5.268960	1.785172	-0.000211
1102	1.0955e+02	-3.8774	-11.423076	0.000405	4.053047	1.373209	-0.000162
1103	1.0965e+02	-3.9223	-11.592635	0.000426	4.255699	1.441870	-0.000170
1104	1.0975e+02	-3.9673	-11.733935	0.000355	3.546416	1.201558	-0.000142
1105	1.0985e+02	-4.0026	-11.923680	0.000476	4.762330	1.613521	-0.000191
1106	1.0995e+02	-4.0379	-12.073054	0.000375	3.749068	1.270219	-0.000150
1107	1.1005e+02	-4.0731	-12.242614	0.000426	4.255699	1.441870	-0.000170
1108	1.1015e+02	-4.1116	-12.367765	0.000314	3.141111	1.064237	-0.000126
1109	1.1025e+02	-4.1630	-12.573659	0.000517	5.167634	1.750842	-0.000207
1110	1.1035e+02	-4.2015	-12.735145	0.000405	4.053047	1.373209	-0.000162
1111	1.1044e+02	-4.2368	-12.908742	0.000436	4.357025	1.476200	-0.000174
1112	1.1054e+02	-4.2705	-13.033893	0.000314	3.141111	1.064237	-0.000126
1113	1.1064e+02	-4.3202	-13.175192	0.000355	3.546416	1.201558	-0.000142
1114	1.1074e+02	-4.3635	-13.405309	0.000578	5.775591	1.956823	-0.000231
1115	1.1084e+02	-4.3940	-13.530460	0.000314	3.141111	1.064237	-0.000126
1116	1.1094e+02	-4.4421	-13.704057	0.000436	4.357025	1.476200	-0.000174
1117	1.1104e+02	-4.4838	-13.849394	0.000365	3.647742	1.235888	-0.000146
1118	1.1114e+02	-4.5287	-14.031065	0.000456	4.559677	1.544860	-0.000183
1119	1.1124e+02	-4.5544	-14.188514	0.000395	3.951720	1.338879	-0.000158
1120	1.1134e+02	-4.6025	-14.358073	0.000426	4.255699	1.441870	-0.000170
1121	1.1144e+02	-4.6346	-14.539744	0.000456	4.559677	1.544860	-0.000183
1122	1.1154e+02	-4.6715	-14.693156	0.000385	3.850394	1.304549	-0.000154
1123	1.1164e+02	-4.7116	-14.846567	0.000385	3.850394	1.304549	-0.000154
1124	1.1174e+02	-4.7533	-15.008052	0.000405	4.053047	1.373209	-0.000162
1125	1.1184e+02	-4.7902	-15.141278	0.000334	3.343763	1.132898	-0.000134
1126	1.1194e+02	-4.8400	-15.314874	0.000436	4.357025	1.476200	-0.000174
1127	1.1204e+02	-4.8785	-15.464248	0.000375	3.749068	1.270219	-0.000150
1128	1.1214e+02	-4.9106	-15.637845	0.000436	4.357025	1.476200	-0.000174
1129	1.1224e+02	-4.9523	-15.762996	0.000314	3.141111	1.064237	-0.000126
1130	1.1234e+02	-5.0004	-15.989076	0.000567	5.674265	1.922493	-0.000227
1131	1.1244e+02	-5.0373	-16.126339	0.000345	3.445090	1.167228	-0.000138
1132	1.1253e+02	-5.0838	-16.287824	0.000405	4.053047	1.373209	-0.000162
1133	1.1263e+02	-5.1159	-16.469495	0.000456	4.559677	1.544860	-0.000183
1134	1.1273e+02	-5.1576	-16.566387	0.000243	2.431828	0.823926	-0.000097
1135	1.1283e+02	-5.1945	-16.784392	0.000547	5.471613	1.853833	-0.000219
1136	1.1293e+02	-5.2362	-16.873209	0.000223	2.229176	0.755265	-0.000089
1137	1.1303e+02	-5.2795	-17.026620	0.000385	3.850394	1.304549	-0.000154
1138	1.1313e+02	-5.3100	-17.232514	0.000517	5.167634	1.750842	-0.000207
1139	1.1323e+02	-5.3613	-17.406111	0.000436	4.357025	1.476200	-0.000174
1140	1.1333e+02	-5.3918	-17.559522	0.000385	3.850394	1.304549	-0.000154
1141	1.1343e+02	-5.4383	-17.684673	0.000314	3.141111	1.064237	-0.000126
1142	1.1353e+02	-5.4736	-17.862307	0.000446	4.458351	1.510530	-0.000179
1143	1.1363e+02	-5.5234	-18.023793	0.000405	4.053047	1.373209	-0.000162
1144	1.1373e+02	-5.5490	-18.108572	0.000213	2.127849	0.720935	-0.000085
1145	1.1383e+02	-5.5972	-18.338689	0.000578	5.775591	1.956823	-0.000231
1146	1.1393e+02	-5.6341	-18.439617	0.000253	2.533154	0.858256	-0.000101
1147	1.1403e+02	-5.6790	-18.621289	0.000456	4.559677	1.544860	-0.000183
1148	1.1413e+02	-5.7175	-18.770663	0.000375	3.749068	1.270219	-0.000150
1149	1.1423e+02	-5.7592	-18.920037	0.000375	3.749068	1.270219	-0.000150
1150	1.1433e+02	-5.7945	-19.077485	0.000395	3.951720	1.338879	-0.000158
1151	1.1442e+02	-5.8314	-19.238970	0.000405	4.053047	1.373209	-0.000162
1152	1.1452e+02	-5.8763	-19.408530	0.000426	4.255699	1.441870	-0.000170
1153	1.1462e+02	-5.9164	-19.565978	0.000395	3.951720	1.338879	-0.000158
1154	1.1472e+02	-5.9565	-19.687092	0.000304	3.039785	1.029907	-0.000122
1155	1.1482e+02	-6.0014	-19.836466	0.000375	3.749068	1.270219	-0.000150
1156	1.1492e+02	-6.0303	-19.997952	0.000405	4.053047	1.373209	-0.000162
1157	1.1502e+02	-6.0768	-20.151363	0.000385	3.850394	1.304549	-0.000154
1158	1.1512e+02	-6.1121	-20.284589	0.000334	3.343763	1.132898	-0.000134
1159	1.1522e+02	-6.1474	-20.429925	0.000365	3.647742	1.235888	-0.000146
1160	1.1532e+02	-6.1907	-20.603522	0.000436	4.357025	1.476200	-0.000174
1161	1.1542e+02	-6.2357	-20.752896	0.000375	3.749068	1.270219	-0.000150
1162	1.1552e+02	-6.2693	-20.857862	0.000263	2.634480	0.892586	-0.000105
1163	1.1562e+02	-6.3111	-21.071830	0.000537	5.370287	1.819502	-0.000215
1164	1.1572e+02	-6.3496	-21.196981	0.000314	3.141111	1.064237	-0.000126
1165	1.1582e+02	-6.3945	-21.358467	0.000405	4.053047	1.373209	-0.000162
1166	1.1592e+02	-6.4282	-21.507841	0.000375	3.749068	1.270219	-0.000150
1167	1.1602e+02	-6.4683	-21.600695	0.000233	2.330502	0.789595	-0.000093
1168	1.1612e+02	-6.5068	-21.810626	0.000527	5.268960	1.785172	-0.000211
1169	1.1622e+02	-6.5501	-21.931740	0.000304	3.039785	1.029907	-0.000122
1170	1.1632e+02	-6.5790	-22.060928	0.000324	3.242437	1.098567	-0.000130
1171	1.1642e+02	-6.6335	-22.222414	0.000405	4.053047	1.373209	-0.000162
1172	1.1651e+02	-6.6704	-22.387936	0.000415	4.154373	1.407540	-0.000166
1173	1.1661e+02	-6.7089	-22.505013	0.000294	2.938459	0.995577	-0.000118
1174	1.1671e+02	-6.7458	-22.670536	0.000415	4.154373	1.407540	-0.000166
1175	1.1681e+02	-6.7811	-22.799724	0.000324	3.242437	1.098567	-0.000130
1176	1.1691e+02	-6.8308	-22.985432	0.000466	4.661003	1.579191	-0.000187
1177	1.1701e+02	-6.8709	-23.074249	0.000223	2.229176	0.755265	-0.000089
1178	1.1711e+02	-6.9078	-23.243809	0.000426	4.255699	1.441870	-0.000170
1179	1.1721e+02	-6.9479	-23.413369	0.000426	4.255699	1.441870	-0.000170
1180	1.1731e+02	-6.9800	-23.558706	0.000365	3.647742	1.235888	-0.000146
1181	1.1741e+02	-7.0297	-23.695968	0.000345	3.445090	1.167228	-0.000138
1182	1.1751e+02	-7.0634	-23.873602	0.000446	4.458351	1.510530	-0.000179
1183	1.1761e+02	-7.1035	-23.966456	0.000233	2.330502	0.789595	-0.000093
1184	1.1771e+02	-7.1485	-24.144090	0.000446	4.458351	1.510530	-0.000179
1185	1.1781e+02	-7.1838	-24.297501	0.000385	3.850394	1.304549	-0.000154
1186	1.1791e+02	-7.2174	-24.430727	0.000334	3.343763	1.132898	-0.000134
1187	1.1801e+02	-7.2592	-24.592212	0.000405	4.053047	1.373209	-0.000162
1188	1.1811e+02	-7.3041	-24.697178	0.000263	2.634480	0.892586	-0.000105
1189	1.1821e+02	-7.3474	-24.894998	0.000496	4.964982	1.682181	-0.000199
1190	1.1831e+02	-7.3763	-24.999963	0.000263	2.634480	0.892586	-0.000105
1191	1.1841e+02	-7.4196	-25.157411	0.000395	3.951720	1.338879	-0.000158
1192	1.1850e+02	-7.4629	-25.286600	0.000324	3.242437	1.098567	-0.000130
1193	1.1860e+02	-7.5062	-25.464234	0.000446	4.458351	1.510530	-0.000179
1194	1.1870e+02	-7.5447	-25.609571	0.000365	3.647742	1.235888	-0.000146
1195	1.1880e+02	-7.5832	-25.726647	0.000294	2.938459	0.995577	-0.000118
1196	1.1890e+02	-7.6281	-25.855836	0.000324	3.242437	1.098567	-0.000130
1197	1.1900e+02	-7.6634	-26.021358	0.000415	4.154373	1.407540	-0.000166
1198	1.1910e+02	-7.7019	-26.170732	0.000375	3.749068	1.270219	-0.000150
1199	1.1920e+02	-7.7452	-26.332218	0.000405	4.053047	1.373209	-0.000162
1200	1.1930e+02	-7.7869	-26.501778	0.000426	4.255699	1.441870	-0.000170
1201	1.1940e+02	-7.8158	-26.602706	0.000253	2.533154	0.858256	-0.000101
1202	1.1950e+02	-7.8623	-26.772266	0.000426	4.255699	1.441870	-0.000170
1203	1.1960e+02	-7.9057	-26.913565	0.000355	3.546416	1.201558	-0.000142
1204	1.1970e+02	-7.9393	-27.042754	0.000324	3.242437	1.098567	-0.000130
1205	1.1980e+02	-7.9859	-27.196165	0.000385	3.850394	1.304549	-0.000154
1206	1.1990e+02	-8.0164	-27.369762	0.000436	4.357025	1.476200	-0.000174
1207	1.2000e+02	-8.0613	-27.450504	0.000203	2.026523	0.686605	-0.000081
1208	1.2010e+02	-8.1014	-27.632176	0.000456	4.559677	1.544860	-0.000183
1209	1.2020e+02	-8.1463	-27.801735	0.000426	4.255699	1.441870	-0.000170
1210	1.2030e+02	-8.1912	-27.926886	0.000314	3.141111	1.064237	-0.000126
1211	1.2039e+02	-8.2201	-28.056075	0.000324	3.242437	1.098567	-0.000130
1212	1.2049e+02	-8.2666	-28.193337	0.000345	3.445090	1.167228	-0.000138
1213	1.2059e+02	-8.3067	-28.346749	0.000385	3.850394	1.304549	-0.000154
1214	1.2069e+02	-8.3452	-28.500160	0.000385	3.850394	1.304549	-0.000154
1215	1.2079e+02	-8.3789	-28.609162	0.000274	2.735806	0.926916	-0.000110
1216	1.2089e+02	-8.4206	-28.762574	0.000385	3.850394	1.304549	-0.000154
1217	1.2099e+02	-8.4639	-28.895799	0.000334	3.343763	1.132898	-0.000134
1218	1.2109e+02	-8.5056	-29.065359	0.000426	4.255699	1.441870	-0.000170
1219	1.2119e+02	-8.5425	-29.202621	0.000345	3.445090	1.167228	-0.000138
1220	1.2129e+02	-8.5794	-29.360070	0.000395	3.951720	1.338879	-0.000158
1221	1.2139e+02	-8.6083	-29.501369	0.000355	3.546416	1.201558	-0.000142
1222	1.2149e+02	-8.6613	-29.602298	0.000253	2.533154	0.858256	-0.000101
1223	1.2159e+02	-8.6965	-29.771858	0.000426	4.255699	1.441870	-0.000170
1224	1.2169e+02	-8.7399	-29.933343	0.000405	4.053047	1.373209	-0.000162
1225	1.2179e+02	-8.7816	-30.054457	0.000304	3.039785	1.029907	-0.000122
1226	1.2189e+02	-8.8233	-30.219980	0.000415	4.154373	1.407540	-0.000166
1227	1.2199e+02	-8.8586	-30.365316	0.000365	3.647742	1.235888	-0.000146
1228	1.2209e+02	-8.9003	-30.470282	0.000263	2.634480	0.892586	-0.000105
1229	1.2219e+02	-8.9388	-30.631767	0.000405	4.053047	1.373209	-0.000162
1230	1.2229e+02	-8.9789	-30.736733	0.000263	2.634480	0.892586	-0.000105
1231	1.2239e+02	-9.0222	-30.926478	0.000476	4.762330	1.613521	-0.000191
1232	1.2248e+02	-9.0559	-31.047592	0.000304	3.039785	1.029907	-0.000122
1233	1.2258e+02	-9.0928	-31.168706	0.000304	3.039785	1.029907	-0.000122
1234	1.2268e+02	-9.1281	-31.310006	0.000355	3.546416	1.201558	-0.000142
1235	1.2278e+02	-9.1874	-31.443232	0.000334	3.343763	1.132898	-0.000134
1236	1.2288e+02	-9.2099	-31.592606	0.000375	3.749068	1.270219	-0.000150
1237	1.2298e+02	-9.2580	-31.721794	0.000324	3.242437	1.098567	-0.000130
1238	1.2308e+02	-9.3062	-31.879242	0.000395	3.951720	1.338879	-0.000158
1239	1.2318e+02	-9.3414	-32.024579	0.000365	3.647742	1.235888	-0.000146
1240	1.2328e+02	-9.3799	-32.186065	0.000405	4.053047	1.373209	-0.000162
1241	1.2338e+02	-9.4152	-32.270845	0.000213	2.127849	0.720935	-0.000085
1242	1.2348e+02	-9.4570	-32.428293	0.000395	3.951720	1.338879	-0.000158
1243	1.2358e+02	-9.5035	-32.573630	0.000365	3.647742	1.235888	-0.000146
1244	1.2368e+02	-9.5227	-32.714929	0.000355	3.546416	1.201558	-0.000142
1245	1.2378e+02	-9.5741	-32.844118	0.000324	3.242437	1.098567	-0.000130
1246	1.2388e+02	-9.6094	-32.985418	0.000355	3.546416	1.201558	-0.000142
1247	1.2398e+02	-9.6591	-33.167089	0.000456	4.559677	1.544860	-0.000183
1248	1.2408e+02	-9.6960	-33.268017	0.000253	2.533154	0.858256	-0.000101
1249	1.2418e+02	-9.7345	-33.368945	0.000253	2.533154	0.858256	-0.000101
1250	1.2428e+02	-9.7730	-33.518319	0.000375	3.749068	1.270219	-0.000150
1251	1.2438e+02	-9.8131	-33.683842	0.000415	4.154373	1.407540	-0.000166
1252	1.2447e+02	-9.8564	-33.853402	0.000426	4.255699	1.441870	-0.000170
1253	1.2457e+02	-9.8965	-33.942219	0.000223	2.229176	0.755265	-0.000089
1254	1.2467e+02	-9.9270	-34.144076	0.000507	5.066308	1.716512	-0.000203
1255	1.2477e+02	-9.9703	-34.253078	0.000274	2.735806	0.926916	-0.000110
1256	1.2487e+02	-10.0088	-34.366118	0.000284	2.837133	0.961247	-0.000114
1257	1.2497e+02	-10.0537	-34.535678	0.000426	4.255699	1.441870	-0.000170
1258	1.2507e+02	-10.0874	-34.632569	0.000243	2.431828	0.823926	-0.000097
1259	1.2517e+02	-10.1484	-34.790017	0.000395	3.951720	1.338879	-0.000158
1260	1.2527e+02	-10.1740	-34.915168	0.000314	3.141111	1.064237	-0.000126
1261	1.2537e+02	-10.2045	-35.008023	0.000233	2.330502	0.789595	-0.000093
1262	1.2547e+02	-10.2623	-35.189694	0.000456	4.559677	1.544860	-0.000183
1263	1.2557e+02	-10.2895	-35.339068	0.000375	3.749068	1.270219	-0.000150
1264	1.2567e+02	-10.3361	-35.468256	0.000324	3.242437	1.098567	-0.000130
1265	1.2577e+02	-10.3714	-35.581296	0.000284	2.837133	0.961247	-0.000114
1266	1.2587e+02	-10.4179	-35.750856	0.000426	4.255699	1.441870	-0.000170
1267	1.2597e+02	-10.4548	-35.867932	0.000294	2.938459	0.995577	-0.000118
1268	1.2607e+02	-10.4965	-36.025381	0.000395	3.951720	1.338879	-0.000158
1269	1.2617e+02	-10.5398	-36.110161	0.000213	2.127849	0.720935	-0.000085
1270	1.2627e+02	-10.5751	-36.259535	0.000375	3.749068	1.270219	-0.000150
1271	1.2636e+02	-10.6136	-36.384686	0.000314	3.141111	1.064237	-0.000126
1272	1.2646e+02	-10.6601	-36.550208	0.000415	4.154373	1.407540	-0.000166
1273	1.2656e+02	-10.6922	-36.671322	0.000304	3.039785	1.029907	-0.000122
1274	1.2666e+02	-10.7307	-36.768214	0.000243	2.431828	0.823926	-0.000097
1275	1.2676e+02	-10.7708	-36.986219	0.000547	5.471613	1.853833	-0.000219
1276	1.2686e+02	-10.8125	-37.018516	0.000081	0.810609	0.274642	-0.000032
1277	1.2696e+02	-10.8494	-37.159816	0.000355	3.546416	1.201558	-0.000142
1278	1.2706e+02	-10.8943	-37.313227	0.000385	3.850394	1.304549	-0.000154
1279	1.2716e+02	-10.9361	-37.446453	0.000334	3.343763	1.132898	-0.000134
1280	1.2726e+02	-10.9713	-37.575641	0.000324	3.242437	1.098567	-0.000130
1281	1.2736e+02	-11.0066	-37.680606	0.000263	2.634480	0.892586	-0.000105
1282	1.2746e+02	-11.0548	-37.850166	0.000426	4.255699	1.441870	-0.000170
1283	1.2756e+02	-11.0917	-37.955132	0.000263	2.634480	0.892586	-0.000105
1284	1.2766e+02	-11.1334	-38.104506	0.000375	3.749068	1.270219	-0.000150
1285	1.2776e+02	-11.1703	-38.241768	0.000345	3.445090	1.167228	-0.000138
1286	1.2786e+02	-11.2088	-38.366919	0.000314	3.141111	1.064237	-0.000126
1287	1.2796e+02	-11.2473	-38.475922	0.000274	2.735806	0.926916	-0.000110
1288	1.2806e+02	-11.2842	-38.617222	0.000355	3.546416	1.201558	-0.000142
1289	1.2816e+02	-11.3387	-38.754485	0.000345	3.445090	1.167228	-0.000138
1290	1.2826e+02	-11.3692	-38.847339	0.000233	2.330502	0.789595	-0.000093
1291	1.2835e+02	-11.4077	-38.992676	0.000365	3.647742	1.235888	-0.000146
1292	1.2845e+02	-11.4574	-39.154161	0.000405	4.053047	1.373209	-0.000162
1293	1.2855e+02	-11.4895	-39.234904	0.000203	2.026523	0.686605	-0.000081
1294	1.2865e+02	-11.5280	-39.392352	0.000395	3.951720	1.338879	-0.000158
1295	1.2875e+02	-11.5697	-39.533652	0.000355	3.546416	1.201558	-0.000142
1296	1.2885e+02	-11.6066	-39.654766	0.000304	3.039785	1.029907	-0.000122
1297	1.2895e+02	-11.6531	-39.820288	0.000415	4.154373	1.407540	-0.000166
1298	1.2905e+02	-11.6836	-39.896994	0.000193	1.925197	0.652274	-0.000077
1299	1.2915e+02	-11.7334	-40.038294	0.000355	3.546416	1.201558	-0.000142
1300	1.2925e+02	-11.7654	-40.159408	0.000304	3.039785	1.029907	-0.000122
1301	1.2935e+02	-11.8023	-40.300708	0.000355	3.546416	1.201558	-0.000142
1302	1.2945e+02	-11.8473	-40.421822	0.000304	3.039785	1.029907	-0.000122
1303	1.2955e+02	-11.8954	-40.530824	0.000274	2.735806	0.926916	-0.000110
1304	1.2965e+02	-11.9291	-40.655975	0.000314	3.141111	1.064237	-0.000126
1305	1.2975e+02	-11.9660	-40.773052	0.000294	2.938459	0.995577	-0.000118
1306	1.2985e+02	-12.0013	-40.926464	0.000385	3.850394	1.304549	-0.000154
1307	1.2995e+02	-12.0542	-41.063726	0.000345	3.445090	1.167228	-0.000138
1308	1.3005e+02	-12.0815	-41.184840	0.000304	3.039785	1.029907	-0.000122
1309	1.3015e+02	-12.1216	-41.297880	0.000284	2.837133	0.961247	-0.000114
1310	1.3025e+02	-12.1649	-41.451291	0.000385	3.850394	1.304549	-0.000154
1311	1.3034e+02	-12.1970	-41.580480	0.000324	3.242437	1.098567	-0.000130
1312	1.3044e+02	-12.2451	-41.729854	0.000375	3.749068	1.270219	-0.000150
1313	1.3054e+02	-12.2772	-41.838856	0.000274	2.735806	0.926916	-0.000110
1314	1.3064e+02	-12.3301	-42.000342	0.000405	4.053047	1.373209	-0.000162
1315	1.3074e+02	-12.3734	-42.121456	0.000304	3.039785	1.029907	-0.000122
1316	1.3084e+02	-12.4119	-42.250644	0.000324	3.242437	1.098567	-0.000130
1317	1.3094e+02	-12.4505	-42.355610	0.000263	2.634480	0.892586	-0.000105
1318	1.3104e+02	-12.4890	-42.488835	0.000334	3.343763	1.132898	-0.000134
1319	1.3114e+02	-12.5258	-42.581689	0.000233	2.330502	0.789595	-0.000093
1320	1.3124e+02	-12.5724	-42.722989	0.000355	3.546416	1.201558	-0.000142
1321	1.3134e+02	-12.6012	-42.868326	0.000365	3.647742	1.235888	-0.000146
1322	1.3144e+02	-12.6414	-42.957143	0.000223	2.229176	0.755265	-0.000089
1323	1.3154e+02	-12.6831	-43.114591	0.000395	3.951720	1.338879	-0.000158
1324	1.3164e+02	-12.7151	-43.243779	0.000324	3.242437	1.098567	-0.000130
1325	1.3174e+02	-12.7633	-43.332596	0.000223	2.229176	0.755265	-0.000089
1326	1.3184e+02	-12.8114	-43.461785	0.000324	3.242437	1.098567	-0.000130
1327	1.3194e+02	-12.8451	-43.627307	0.000415	4.154373	1.407540	-0.000166
1328	1.3204e+02	-12.8852	-43.708050	0.000203	2.026523	0.686605	-0.000081
1329	1.3214e+02	-12.9205	-43.845313	0.000345	3.445090	1.167228	-0.000138
1330	1.3224e+02	-12.9574	-43.974501	0.000324	3.242437	1.098567	-0.000130
1331	1.3234e+02	-13.0007	-44.099652	0.000314	3.141111	1.064237	-0.000126
1332	1.3243e+02	-13.0392	-44.212692	0.000284	2.837133	0.961247	-0.000114
1333	1.3253e+02	-13.0841	-44.333806	0.000304	3.039785	1.029907	-0.000122
1334	1.3263e+02	-13.1162	-44.483180	0.000375	3.749068	1.270219	-0.000150
1335	1.3273e+02	-13.1579	-44.608331	0.000314	3.141111	1.064237	-0.000126
1336	1.3283e+02	-13.1900	-44.717334	0.000274	2.735806	0.926916	-0.000110
1337	1.3293e+02	-13.2462	-44.882857	0.000415	4.154373	1.407540	-0.000166
1338	1.3303e+02	-13.2814	-44.975711	0.000233	2.330502	0.789595	-0.000093
1339	1.3313e+02	-13.3296	-45.092788	0.000294	2.938459	0.995577	-0.000118
1340	1.3323e+02	-13.3633	-45.242162	0.000375	3.749068	1.270219	-0.000150
1341	1.3333e+02	-13.3986	-45.330979	0.000223	2.229176	0.755265	-0.000089
1342	1.3343e+02	-13.4435	-45.476316	0.000365	3.647742	1.235888	-0.000146
1343	1.3353e+02	-13.4788	-45.613578	0.000345	3.445090	1.167228	-0.000138
1344	1.3363e+02	-13.5253	-45.726618	0.000284	2.837133	0.961247	-0.000114
1345	1.3373e+02	-13.5574	-45.847732	0.000304	3.039785	1.029907	-0.000122
1346	1.3383e+02	-13.5943	-45.960772	0.000284	2.837133	0.961247	-0.000114
1347	1.3393e+02	-13.6488	-46.126294	0.000415	4.154373	1.407540	-0.000166
1348	1.3403e+02	-13.6825	-46.215111	0.000223	2.229176	0.755265	-0.000089
1349	1.3413e+02	-13.7290	-46.372560	0.000395	3.951720	1.338879	-0.000158
1350	1.3423e+02	-13.7515	-46.473488	0.000253	2.533154	0.858256	-0.000101
1351	1.3432e+02	-13.8060	-46.618825	0.000365	3.647742	1.235888	-0.000146
1352	1.3442e+02	-13.8397	-46.760125	0.000355	3.546416	1.201558	-0.000142
1353	1.3452e+02	-13.8814	-46.861053	0.000253	2.533154	0.858256	-0.000101
1354	1.3462e+02	-13.9247	-47.042724	0.000456	4.559677	1.544860	-0.000183
1355	1.3472e+02	-13.9584	-47.131541	0.000223	2.229176	0.755265	-0.000089
1356	1.3482e+02	-13.9889	-47.228432	0.000243	2.431828	0.823926	-0.000097
1357	1.3492e+02	-14.0338	-47.446438	0.000547	5.471613	1.853833	-0.000219
1358	1.3502e+02	-14.0723	-47.519106	0.000182	1.823871	0.617944	-0.000073
1359	1.3512e+02	-14.1172	-47.672517	0.000385	3.850394	1.304549	-0.000154
1360	1.3522e+02	-14.1606	-47.813817	0.000355	3.546416	1.201558	-0.000142
1361	1.3532e+02	-14.1943	-47.930894	0.000294	2.938459	0.995577	-0.000118
1362	1.3542e+02	-14.2376	-48.019711	0.000223	2.229176	0.755265	-0.000089
1363	1.3552e+02	-14.2680	-48.221568	0.000507	5.066308	1.716512	-0.000203
1364	1.3562e+02	-14.3178	-48.338645	0.000294	2.938459	0.995577	-0.000118
1365	1.3572e+02	-14.3531	-48.451685	0.000284	2.837133	0.961247	-0.000114
1366	1.3582e+02	-14.3996	-48.568761	0.000294	2.938459	0.995577	-0.000118
1367	1.3592e+02	-14.4349	-48.742358	0.000436	4.357025	1.476200	-0.000174
1368	1.3602e+02	-14.4782	-48.863472	0.000304	3.039785	1.029907	-0.000122
1369	1.3612e+02	-14.5199	-48.960364	0.000243	2.431828	0.823926	-0.000097
1370	1.3622e+02	-14.5568	-49.121849	0.000405	4.053047	1.373209	-0.000162
1371	1.3631e+02	-14.5889	-49.234889	0.000284	2.837133	0.961247	-0.000114
1372	1.3641e+02	-14.6290	-49.380226	0.000365	3.647742	1.235888	-0.000146
1373	1.3651e+02	-14.6787	-49.501340	0.000304	3.039785	1.029907	-0.000122
1374	1.3661e+02	-14.7188	-49.646677	0.000365	3.647742	1.235888	-0.000146
1375	1.3671e+02	-14.7573	-49.808162	0.000405	4.053047	1.373209	-0.000162
1376	1.3681e+02	-14.7878	-49.884868	0.000193	1.925197	0.652274	-0.000077
1377	1.3691e+02	-14.8295	-50.070576	0.000466	4.661003	1.579191	-0.000187
1378	1.3701e+02	-14.8728	-50.143244	0.000182	1.823871	0.617944	-0.000073
1379	1.3711e+02	-14.9097	-50.296656	0.000385	3.850394	1.304549	-0.000154
1380	1.3721e+02	-14.9547	-50.466215	0.000426	4.255699	1.441870	-0.000170
1381	1.3731e+02	-15.0012	-50.599441	0.000334	3.343763	1.132898	-0.000134
1382	1.3741e+02	-15.0365	-50.712481	0.000284	2.837133	0.961247	-0.000114
1383	1.3751e+02	-15.0734	-50.825520	0.000284	2.837133	0.961247	-0.000114
1384	1.3761e+02	-15.1135	-50.999117	0.000436	4.357025	1.476200	-0.000174
1385	1.3771e+02	-15.1552	-51.144454	0.000365	3.647742	1.235888	-0.000146
1386	1.3781e+02	-15.1921	-51.249420	0.000263	2.634480	0.892586	-0.000105
1387	1.3791e+02	-15.2386	-51.423016	0.000436	4.357025	1.476200	-0.000174
1388	1.3801e+02	-15.2787	-51.532019	0.000274	2.735806	0.926916	-0.000110
1389	1.3811e+02	-15.3172	-51.649096	0.000294	2.938459	0.995577	-0.000118
1390	1.3821e+02	-15.3557	-51.802507	0.000385	3.850394	1.304549	-0.000154
1391	1.3831e+02	-15.3958	-51.980141	0.000446	4.458351	1.510530	-0.000179
1392	1.3840e+02	-15.4343	-52.036661	0.000142	1.418566	0.480623	-0.000057
1393	1.3850e+02	-15.4744	-52.242555	0.000517	5.167634	1.750842	-0.000207
1394	1.3860e+02	-15.5145	-52.315223	0.000182	1.823871	0.617944	-0.000073
1395	1.3870e+02	-15.5611	-52.460560	0.000365	3.647742	1.235888	-0.000146
1396	1.3880e+02	-15.5980	-52.577637	0.000294	2.938459	0.995577	-0.000118
1397	1.3890e+02	-15.6300	-52.775457	0.000496	4.964982	1.682181	-0.000199
1398	1.3900e+02	-15.6734	-52.924831	0.000375	3.749068	1.270219	-0.000150
1399	1.3910e+02	-15.7151	-53.045945	0.000304	3.039785	1.029907	-0.000122
1400	1.3920e+02	-15.7536	-53.146873	0.000253	2.533154	0.858256	-0.000101
1401	1.3930e+02	-15.7969	-53.300285	0.000385	3.850394	1.304549	-0.000154
1402	1.3940e+02	-15.8258	-53.429473	0.000324	3.242437	1.098567	-0.000130
1403	1.3950e+02	-15.8691	-53.578847	0.000375	3.749068	1.270219	-0.000150
1404	1.3960e+02	-15.9108	-53.720147	0.000355	3.546416	1.201558	-0.000142
1405	1.3970e+02	-15.9493	-53.889706	0.000426	4.255699	1.441870	-0.000170
1406	1.3980e+02	-15.9926	-54.018895	0.000324	3.242437	1.098567	-0.000130
1407	1.3990e+02	-16.0295	-54.148083	0.000324	3.242437	1.098567	-0.000130
1408	1.4000e+02	-16.0632	-54.285346	0.000345	3.445090	1.167228	-0.000138
1409	1.4010e+02	-16.1113	-54.450868	0.000415	4.154373	1.407540	-0.000166
1410	1.4020e+02	-16.1610	-54.571982	0.000304	3.039785	1.029907	-0.000122
1411	1.4029e+02	-16.1899	-54.721356	0.000375	3.749068	1.270219	-0.000150
1412	1.4039e+02	-16.2252	-54.854582	0.000334	3.343763	1.132898	-0.000134
1413	1.4049e+02	-16.2685	-54.999919	0.000365	3.647742	1.235888	-0.000146
1414	1.4059e+02	-16.3134	-55.116996	0.000294	2.938459	0.995577	-0.000118
1415	1.4069e+02	-16.3535	-55.274444	0.000395	3.951720	1.338879	-0.000158
1416	1.4079e+02	-16.3904	-55.444004	0.000426	4.255699	1.441870	-0.000170
1417	1.4089e+02	-16.4338	-55.528784	0.000213	2.127849	0.720935	-0.000085
1418	1.4099e+02	-16.4787	-55.714492	0.000466	4.661003	1.579191	-0.000187
1419	1.4109e+02	-16.4979	-55.896163	0.000456	4.559677	1.544860	-0.000183
1420	1.4119e+02	-16.5493	-56.021314	0.000314	3.141111	1.064237	-0.000126
1421	1.4129e+02	-16.5958	-56.178762	0.000395	3.951720	1.338879	-0.000158
1422	1.4139e+02	-16.6263	-56.311988	0.000334	3.343763	1.132898	-0.000134
1423	1.4149e+02	-16.6728	-56.441176	0.000324	3.242437	1.098567	-0.000130
1424	1.4159e+02	-16.7145	-56.626884	0.000466	4.661003	1.579191	-0.000187
1425	1.4169e+02	-16.7450	-56.752036	0.000314	3.141111	1.064237	-0.000126
1426	1.4179e+02	-16.7835	-56.905447	0.000385	3.850394	1.304549	-0.000154
1427	1.4189e+02	-16.8252	-57.066932	0.000405	4.053047	1.373209	-0.000162
1428	1.4199e+02	-16.8653	-57.179972	0.000284	2.837133	0.961247	-0.000114
1429	1.4209e+02	-16.9054	-57.333383	0.000385	3.850394	1.304549	-0.000154
1430	1.4219e+02	-16.9503	-57.458534	0.000314	3.141111	1.064237	-0.000126
1431	1.4228e+02	-16.9904	-57.620020	0.000405	4.053047	1.373209	-0.000162
1432	1.4238e+02	-17.0289	-57.785542	0.000415	4.154373	1.407540	-0.000166
1433	1.4248e+02	-17.0706	-57.902619	0.000294	2.938459	0.995577	-0.000118
1434	1.4258e+02	-17.1124	-58.076216	0.000436	4.357025	1.476200	-0.000174
1435	1.4268e+02	-17.1492	-58.213479	0.000345	3.445090	1.167228	-0.000138
1436	1.4278e+02	-17.1829	-58.346704	0.000334	3.343763	1.132898	-0.000134
1437	1.4288e+02	-17.2230	-58.524338	0.000446	4.458351	1.510530	-0.000179
1438	1.4298e+02	-17.2696	-58.689861	0.000415	4.154373	1.407540	-0.000166
1439	1.4308e+02	-17.3081	-58.798863	0.000274	2.735806	0.926916	-0.000110
1440	1.4318e+02	-17.3482	-58.976497	0.000446	4.458351	1.510530	-0.000179
1441	1.4328e+02	-17.3851	-59.133946	0.000395	3.951720	1.338879	-0.000158
1442	1.4338e+02	-17.4236	-59.267171	0.000334	3.343763	1.132898	-0.000134
1443	1.4348e+02	-17.4733	-59.456917	0.000476	4.762330	1.613521	-0.000191
1444	1.4358e+02	-17.4958	-59.606291	0.000375	3.749068	1.270219	-0.000150
1445	1.4368e+02	-17.5519	-59.735479	0.000324	3.242437	1.098567	-0.000130
1446	1.4378e+02	-17.5904	-59.888890	0.000385	3.850394	1.304549	-0.000154
1447	1.4388e+02	-17.6193	-60.018078	0.000324	3.242437	1.098567	-0.000130
1448	1.4398e+02	-17.6658	-60.191675	0.000436	4.357025	1.476200	-0.000174
1449	1.4408e+02	-17.7075	-60.332975	0.000355	3.546416	1.201558	-0.000142
1450	1.4418e+02	-17.7396	-60.446015	0.000284	2.837133	0.961247	-0.000114
1451	1.4428e+02	-17.7893	-60.647872	0.000507	5.066308	1.716512	-0.000203
1452	1.4437e+02	-17.8310	-60.789171	0.000355	3.546416	1.201558	-0.000142
1453	1.4447e+02	-17.8663	-60.958731	0.000426	4.255699	1.441870	-0.000170
1454	1.4457e+02	-17.9016	-61.128291	0.000426	4.255699	1.441870	-0.000170
1455	1.4467e+02	-17.9401	-61.277665	0.000375	3.749068	1.270219	-0.000150
1456	1.4477e+02	-17.9899	-61.451262	0.000436	4.357025	1.476200	-0.000174
1457	1.4487e+02	-18.0268	-61.604673	0.000385	3.850394	1.304549	-0.000154
1458	1.4497e+02	-18.0717	-61.733861	0.000324	3.242437	1.098567	-0.000130
1459	1.4507e+02	-18.1038	-61.887272	0.000385	3.850394	1.304549	-0.000154
1460	1.4517e+02	-18.1487	-62.040683	0.000385	3.850394	1.304549	-0.000154
1461	1.4527e+02	-18.1808	-62.214280	0.000436	4.357025	1.476200	-0.000174
1462	1.4537e+02	-18.2289	-62.395951	0.000456	4.559677	1.544860	-0.000183
1463	1.4547e+02	-18.2562	-62.541288	0.000365	3.647742	1.235888	-0.000146
1464	1.4557e+02	-18.2963	-62.666439	0.000314	3.141111	1.064237	-0.000126
1465	1.4567e+02	-18.3396	-62.880408	0.000537	5.370287	1.819502	-0.000215
1466	1.4577e+02	-18.3829	-63.054005	0.000436	4.357025	1.476200	-0.000174
1467	1.4587e+02	-18.4262	-63.219527	0.000415	4.154373	1.407540	-0.000166
1468	1.4597e+02	-18.4663	-63.356790	0.000345	3.445090	1.167228	-0.000138
1469	1.4607e+02	-18.5016	-63.522312	0.000415	4.154373	1.407540	-0.000166
1470	1.4617e+02	-18.5369	-63.712058	0.000476	4.762330	1.613521	-0.000191
1471	1.4626e+02	-18.5850	-63.881617	0.000426	4.255699	1.441870	-0.000170
1472	1.4636e+02	-18.6219	-63.998694	0.000294	2.938459	0.995577	-0.000118
1473	1.4646e+02	-18.6556	-64.200551	0.000507	5.066308	1.716512	-0.000203
1474	1.4656e+02	-18.7118	-64.345888	0.000365	3.647742	1.235888	-0.000146
1475	1.4666e+02	-18.7455	-64.503336	0.000395	3.951720	1.338879	-0.000158
1476	1.4676e+02	-18.7856	-64.717304	0.000537	5.370287	1.819502	-0.000215
1477	1.4686e+02	-18.8064	-64.890901	0.000436	4.357025	1.476200	-0.000174
1478	1.4696e+02	-18.8578	-65.032201	0.000355	3.546416	1.201558	-0.000142
1479	1.4706e+02	-18.8947	-65.177538	0.000365	3.647742	1.235888	-0.000146
1480	1.4716e+02	-18.9364	-65.371320	0.000486	4.863656	1.647851	-0.000195
1481	1.4726e+02	-18.9765	-65.561066	0.000476	4.762330	1.613521	-0.000191
1482	1.4736e+02	-19.0214	-65.762923	0.000507	5.066308	1.716512	-0.000203
1483	1.4746e+02	-19.0711	-65.952668	0.000476	4.762330	1.613521	-0.000191
1484	1.4756e+02	-19.1032	-66.118191	0.000415	4.154373	1.407540	-0.000166
1485	1.4766e+02	-19.1353	-66.287750	0.000426	4.255699	1.441870	-0.000170
1486	1.4776e+02	-19.1818	-66.469421	0.000456	4.559677	1.544860	-0.000183
1487	1.4786e+02	-19.2171	-66.622833	0.000385	3.850394	1.304549	-0.000154
1488	1.4796e+02	-19.2572	-66.804504	0.000456	4.559677	1.544860	-0.000183
1489	1.4806e+02	-19.3037	-67.002323	0.000496	4.964982	1.682181	-0.000199
1490	1.4816e+02	-19.3342	-67.167846	0.000415	4.154373	1.407540	-0.000166
1491	1.4825e+02	-19.3775	-67.369703	0.000507	5.066308	1.716512	-0.000203
1492	1.4835e+02	-19.4128	-67.575597	0.000517	5.167634	1.750842	-0.000207
1493	1.4845e+02	-19.4609	-67.704785	0.000324	3.242437	1.098567	-0.000130
1494	1.4855e+02	-19.4930	-67.938939	0.000588	5.876917	1.991154	-0.000235
1495	1.4865e+02	-19.5363	-68.096387	0.000395	3.951720	1.338879	-0.000158
1496	1.4875e+02	-19.5813	-68.278058	0.000456	4.559677	1.544860	-0.000183
1497	1.4885e+02	-19.6246	-68.447618	0.000426	4.255699	1.441870	-0.000170
1498	1.4895e+02	-19.6551	-68.697920	0.000628	6.282222	2.128474	-0.000252
1499	1.4905e+02	-19.7000	-68.871517	0.000436	4.357025	1.476200	-0.000174
1500	1.4915e+02	-19.7305	-69.069337	0.000496	4.964982	1.682181	-0.000199
1501	1.4925e+02	-19.7786	-69.255045	0.000466	4.661003	1.579191	-0.000187
1502	1.4935e+02	-19.8139	-69.452865	0.000496	4.964982	1.682181	-0.000199
1503	1.4945e+02	-19.8588	-69.646647	0.000486	4.863656	1.647851	-0.000195
1504	1.4955e+02	-19.8957	-69.808133	0.000405	4.053047	1.373209	-0.000162
1505	1.4965e+02	-19.9262	-69.969618	0.000405	4.053047	1.373209	-0.000162
1506	1.4975e+02	-19.9759	-70.191661	0.000557	5.572939	1.888163	-0.000223
1507	1.4985e+02	-20.0224	-70.413703	0.000557	5.572939	1.888163	-0.000223
1508	1.4995e+02	-19.9759	-70.446000	-0.000081	-0.810609	-0.274642	-0.000032
1509	1.5005e+02	-19.9390	-70.462149	-0.000041	-0.405305	-0.137321	-0.000016
1510	1.5015e+02	-19.8877	-70.490409	-0.000071	-0.709283	-0.240312	-0.000028
1511	1.5025e+02	-19.8428	-70.474260	0.000041	0.405305	0.137321	0.000016
1512	1.5034e+02	-19.8235	-70.478297	-0.000010	-0.101326	-0.034330	-0.000004
1513	1.5044e+02	-19.7770	-70.462149	0.000041	0.405305	0.137321	0.000016
1514	1.5054e+02	-19.7305	-70.466186	-0.000010	-0.101326	-0.034330	-0.000004
1515	1.5064e+02	-19.6887	-70.470223	-0.000010	-0.101326	-0.034330	-0.000004
1516	1.5074e+02	-19.6502	-70.474260	-0.000010	-0.101326	-0.034330	-0.000004
1517	1.5084e+02	-19.6150	-70.421777	0.000132	1.317240	0.446293	0.000053
1518	1.5094e+02	-19.5925	-70.409666	0.000030	0.303978	0.102991	0.000012
1519	1.5104e+02	-19.5363	-70.393517	0.000041	0.405305	0.137321	0.000016
1520	1.5114e+02	-19.4914	-70.389480	0.000010	0.101326	0.034330	0.000004
1521	1.5124e+02	-19.4577	-70.385443	0.000010	0.101326	0.034330	0.000004
1522	1.5134e+02	-19.4112	-70.324886	0.000152	1.519892	0.514953	0.000061
1523	1.5144e+02	-19.3791	-70.312775	0.000030	0.303978	0.102991	0.000012
1524	1.5154e+02	-19.3422	-70.280477	0.000081	0.810609	0.274642	0.000032
1525	1.5164e+02	-19.3021	-70.268366	0.000030	0.303978	0.102991	0.000012
1526	1.5174e+02	-19.2684	-70.215883	0.000132	1.317240	0.446293	0.000053
1527	1.5184e+02	-19.2107	-70.147252	0.000172	1.722545	0.583614	0.000069
1528	1.5194e+02	-19.1770	-70.163401	-0.000041	-0.405305	-0.137321	-0.000016
1529	1.5204e+02	-19.1385	-70.058435	0.000263	2.634480	0.892586	0.000105
1530	1.5214e+02	-19.1000	-70.042286	0.000041	0.405305	0.137321	0.000016
1531	1.5224e+02	-19.0615	-70.001915	0.000101	1.013262	0.343302	0.000041
1532	1.5233e+02	-19.0262	-69.997878	0.000010	0.101326	0.034330	0.000004
1533	1.5243e+02	-18.9797	-69.880801	0.000294	2.938459	0.995577	0.000118
1534	1.5253e+02	-18.9364	-69.900987	-0.000051	-0.506631	-0.171651	-0.000020
1535	1.5263e+02	-18.9043	-69.812170	0.000223	2.229176	0.755265	0.000089
1536	1.5273e+02	-18.8610	-69.796021	0.000041	0.405305	0.137321	0.000016
1537	1.5283e+02	-18.8241	-69.711241	0.000213	2.127849	0.720935	0.000085
1538	1.5293e+02	-18.7791	-69.678944	0.000081	0.810609	0.274642	0.000032
1539	1.5303e+02	-18.7471	-69.646647	0.000081	0.810609	0.274642	0.000032
1540	1.5313e+02	-18.7054	-69.561867	0.000213	2.127849	0.720935	0.000085
1541	1.5323e+02	-18.6588	-69.481125	0.000203	2.026523	0.686605	0.000081
1542	1.5333e+02	-18.6300	-69.485162	-0.000010	-0.101326	-0.034330	-0.000004
1543	1.5343e+02	-18.5706	-69.452865	0.000081	0.810609	0.274642	0.000032
1544	1.5353e+02	-18.5385	-69.368085	0.000213	2.127849	0.720935	0.000085
1545	1.5363e+02	-18.5000	-69.283305	0.000213	2.127849	0.720935	0.000085
1546	1.5373e+02	-18.4663	-69.259082	0.000061	0.607957	0.205981	0.000024
1547	1.5383e+02	-18.4230	-69.186414	0.000182	1.823871	0.617944	0.000073
1548	1.5393e+02	-18.3797	-69.101634	0.000213	2.127849	0.720935	0.000085
1549	1.5403e+02	-18.3444	-69.012817	0.000223	2.229176	0.755265	0.000089
1550	1.5413e+02	-18.3011	-68.932074	0.000203	2.026523	0.686605	0.000081
1551	1.5422e+02	-18.2658	-68.924000	0.000020	0.202652	0.068660	0.000008
1552	1.5432e+02	-18.2257	-68.879591	0.000111	1.114588	0.377633	0.000045
1553	1.5442e+02	-18.1840	-68.810960	0.000172	1.722545	0.583614	0.000069
1554	1.5452e+02	-18.1471	-68.734255	0.000193	1.925197	0.652274	0.000077
1555	1.5462e+02	-18.1150	-68.673697	0.000152	1.519892	0.514953	0.000061
1556	1.5472e+02	-18.0637	-68.592955	0.000203	2.026523	0.686605	0.000081
1557	1.5482e+02	-18.0332	-68.560658	0.000081	0.810609	0.274642	0.000032
1558	1.5492e+02	-17.9867	-68.443581	0.000294	2.938459	0.995577	0.000118
1559	1.5502e+02	-17.9433	-68.415321	0.000071	0.709283	0.240312	0.000028
1560	1.5512e+02	-17.9097	-68.350727	0.000162	1.621219	0.549284	0.000065
1561	1.5522e+02	-17.8599	-68.265947	0.000213	2.127849	0.720935	0.000085
1562	1.5532e+02	-17.8230	-68.185204	0.000203	2.026523	0.686605	0.000081
1563	1.5542e+02	-17.7829	-68.116573	0.000172	1.722545	0.583614	0.000069
1564	1.5552e+02	-17.7428	-68.031793	0.000213	2.127849	0.720935	0.000085
1565	1.5562e+02	-17.7011	-67.967199	0.000162	1.621219	0.549284	0.000065
1566	1.5572e+02	-17.6674	-67.947013	0.000051	0.506631	0.171651	0.000020
1567	1.5582e+02	-17.6353	-67.829936	0.000294	2.938459	0.995577	0.000118
1568	1.5592e+02	-17.5840	-67.757268	0.000182	1.823871	0.617944	0.000073
1569	1.5602e+02	-17.5439	-67.708822	0.000122	1.215914	0.411963	0.000049
1570	1.5612e+02	-17.5070	-67.624042	0.000213	2.127849	0.720935	0.000085
1571	1.5622e+02	-17.4669	-67.571559	0.000132	1.317240	0.446293	0.000053
1572	1.5631e+02	-17.4316	-67.486780	0.000213	2.127849	0.720935	0.000085
1573	1.5641e+02	-17.3915	-67.361628	0.000314	3.141111	1.064237	0.000126
1574	1.5651e+02	-17.3530	-67.349517	0.000030	0.303978	0.102991	0.000012
1575	1.5661e+02	-17.3081	-67.236477	0.000284	2.837133	0.961247	0.000114
1576	1.5671e+02	-17.2680	-67.175920	0.000152	1.519892	0.514953	0.000061
1577	1.5681e+02	-17.2279	-67.099215	0.000193	1.925197	0.652274	0.000077
1578	1.5691e+02	-17.1926	-67.058843	0.000101	1.013262	0.343302	0.000041
1579	1.5701e+02	-17.1476	-66.953878	0.000263	2.634480	0.892586	0.000105
1580	1.5711e+02	-17.1091	-66.893321	0.000152	1.519892	0.514953	0.000061
1581	1.5721e+02	-17.0706	-66.792392	0.000253	2.533154	0.858256	0.000101
1582	1.5731e+02	-17.0193	-66.747984	0.000111	1.114588	0.377633	0.000045
1583	1.5741e+02	-16.9936	-66.655130	0.000233	2.330502	0.789595	0.000093
1584	1.5751e+02	-16.9487	-66.578424	0.000193	1.925197	0.652274	0.000077
1585	1.5761e+02	-16.9102	-66.525941	0.000132	1.317240	0.446293	0.000053
1586	1.5771e+02	-16.8685	-66.445199	0.000203	2.026523	0.686605	0.000081
1587	1.5781e+02	-16.8236	-66.340233	0.000263	2.634480	0.892586	0.000105
1588	1.5791e+02	-16.7867	-66.283713	0.000142	1.418566	0.480623	0.000057
1589	1.5801e+02	-16.7530	-66.235267	0.000122	1.215914	0.411963	0.000049
1590	1.5811e+02	-16.7113	-66.138376	0.000243	2.431828	0.823926	0.000097
1591	1.5821e+02	-16.6632	-66.029374	0.000274	2.735806	0.926916	0.000110
1592	1.5830e+02	-16.6311	-65.956705	0.000182	1.823871	0.617944	0.000073
1593	1.5840e+02	-16.5814	-65.871925	0.000213	2.127849	0.720935	0.000085
1594	1.5850e+02	-16.5364	-65.819443	0.000132	1.317240	0.446293	0.000053
1595	1.5860e+02	-16.5140	-65.722551	0.000243	2.431828	0.823926	0.000097
1596	1.5870e+02	-16.4691	-65.653920	0.000172	1.722545	0.583614	0.000069
1597	1.5880e+02	-16.4322	-65.561066	0.000233	2.330502	0.789595	0.000093
1598	1.5890e+02	-16.3904	-65.464175	0.000243	2.431828	0.823926	0.000097
1599	1.5900e+02	-16.3535	-65.431877	0.000081	0.810609	0.274642	0.000032
1600	1.5910e+02	-16.3022	-65.290578	0.000355	3.546416	1.201558	0.000142
1601	1.5920e+02	-16.2701	-65.238095	0.000132	1.317240	0.446293	0.000053
1602	1.5930e+02	-16.2380	-65.169464	0.000172	1.722545	0.583614	0.000069
1603	1.5940e+02	-16.1883	-65.084684	0.000213	2.127849	0.720935	0.000085
1604	1.5950e+02	-16.1626	-65.016052	0.000172	1.722545	0.583614	0.000069
1605	1.5960e+02	-16.1081	-64.866678	0.000375	3.749068	1.270219	0.000150
1606	1.5970e+02	-16.0680	-64.794010	0.000182	1.823871	0.617944	0.000073
1607	1.5980e+02	-16.0295	-64.725379	0.000172	1.722545	0.583614	0.000069
1608	1.5990e+02	-15.9878	-64.644636	0.000203	2.026523	0.686605	0.000081
1609	1.6000e+02	-15.9477	-64.535633	0.000274	2.735806	0.926916	0.000110
1610	1.6010e+02	-15.9108	-64.487188	0.000122	1.215914	0.411963	0.000049
1611	1.6019e+02	-15.8610	-64.325702	0.000405	4.053047	1.373209	0.000162
1612	1.6029e+02	-15.8306	-64.293405	0.000081	0.810609	0.274642	0.000032
1613	1.6039e+02	-15.7921	-64.192477	0.000253	2.533154	0.858256	0.000101
1614	1.6049e+02	-15.7520	-64.107697	0.000213	2.127849	0.720935	0.000085
1615	1.6059e+02	-15.7167	-64.030991	0.000193	1.925197	0.652274	0.000077
1616	1.6069e+02	-15.6637	-63.913914	0.000294	2.938459	0.995577	0.000118
1617	1.6079e+02	-15.6365	-63.861432	0.000132	1.317240	0.446293	0.000053
1618	1.6089e+02	-15.5996	-63.720132	0.000355	3.546416	1.201558	0.000142
1619	1.6099e+02	-15.5466	-63.691872	0.000071	0.709283	0.240312	0.000028
1620	1.6109e+02	-15.5161	-63.582869	0.000274	2.735806	0.926916	0.000110
1621	1.6119e+02	-15.4760	-63.481941	0.000253	2.533154	0.858256	0.000101
1622	1.6129e+02	-15.4391	-63.405235	0.000193	1.925197	0.652274	0.000077
1623	1.6139e+02	-15.3958	-63.284121	0.000304	3.039785	1.029907	0.000122
1624	1.6149e+02	-15.3509	-63.215490	0.000172	1.722545	0.583614	0.000069
1625	1.6159e+02	-15.3140	-63.114562	0.000253	2.533154	0.858256	0.000101
1626	1.6169e+02	-15.2675	-63.033819	0.000203	2.026523	0.686605	0.000081
1627	1.6179e+02	-15.2274	-62.977299	0.000142	1.418566	0.480623	0.000057
1628	1.6189e+02	-15.1985	-62.823888	0.000385	3.850394	1.304549	0.000154
1629	1.6199e+02	-15.1616	-62.751219	0.000182	1.823871	0.617944	0.000073
1630	1.6209e+02	-15.1183	-62.666439	0.000213	2.127849	0.720935	0.000085
1631	1.6219e+02	-15.0702	-62.533214	0.000334	3.343763	1.132898	0.000134
1632	1.6228e+02	-15.0381	-62.472657	0.000152	1.519892	0.514953	0.000061
1633	1.6238e+02	-15.0012	-62.343469	0.000324	3.242437	1.098567	0.000130
1634	1.6248e+02	-14.9611	-62.282912	0.000152	1.519892	0.514953	0.000061
1635	1.6258e+02	-14.9162	-62.210243	0.000182	1.823871	0.617944	0.000073
1636	1.6268e+02	-14.8857	-62.129500	0.000203	2.026523	0.686605	0.000081
1637	1.6278e+02	-14.8392	-61.984164	0.000365	3.647742	1.235888	0.000146
1638	1.6288e+02	-14.8007	-61.927644	0.000142	1.418566	0.480623	0.000057
1639	1.6298e+02	-14.7509	-61.782307	0.000365	3.647742	1.235888	0.000146
1640	1.6308e+02	-14.7108	-61.721750	0.000152	1.519892	0.514953	0.000061
1641	1.6318e+02	-14.6739	-61.604673	0.000294	2.938459	0.995577	0.000118
1642	1.6328e+02	-14.6306	-61.519893	0.000213	2.127849	0.720935	0.000085
1643	1.6338e+02	-14.5985	-61.402816	0.000294	2.938459	0.995577	0.000118
1644	1.6348e+02	-14.5552	-61.326110	0.000193	1.925197	0.652274	0.000077
1645	1.6358e+02	-14.5135	-61.229219	0.000243	2.431828	0.823926	0.000097
1646	1.6368e+02	-14.4846	-61.180774	0.000122	1.215914	0.411963	0.000049
1647	1.6378e+02	-14.4333	-61.039474	0.000355	3.546416	1.201558	0.000142
1648	1.6388e+02	-14.3980	-60.946620	0.000233	2.330502	0.789595	0.000093
1649	1.6398e+02	-14.3499	-60.853766	0.000233	2.330502	0.789595	0.000093
1650	1.6408e+02	-14.3162	-60.740726	0.000284	2.837133	0.961247	0.000114
1651	1.6418e+02	-14.2761	-60.619612	0.000304	3.039785	1.029907	0.000122
1652	1.6427e+02	-14.2424	-60.546943	0.000182	1.823871	0.617944	0.000073
1653	1.6437e+02	-14.2007	-60.441978	0.000263	2.634480	0.892586	0.000105
1654	1.6447e+02	-14.1590	-60.353161	0.000223	2.229176	0.755265	0.000089
1655	1.6457e+02	-14.1237	-60.244158	0.000274	2.735806	0.926916	0.000110
1656	1.6467e+02	-14.0771	-60.143230	0.000253	2.533154	0.858256	0.000101
1657	1.6477e+02	-14.0451	-60.066524	0.000193	1.925197	0.652274	0.000077
1658	1.6487e+02	-13.9969	-59.969633	0.000243	2.431828	0.823926	0.000097
1659	1.6497e+02	-13.9568	-59.848519	0.000304	3.039785	1.029907	0.000122
1660	1.6507e+02	-13.9199	-59.775850	0.000182	1.823871	0.617944	0.000073
1661	1.6517e+02	-13.8718	-59.610328	0.000415	4.154373	1.407540	0.000166
1662	1.6527e+02	-13.8381	-59.578031	0.000081	0.810609	0.274642	0.000032
1663	1.6537e+02	-13.8108	-59.440768	0.000345	3.445090	1.167228	0.000138
1664	1.6547e+02	-13.7499	-59.364062	0.000193	1.925197	0.652274	0.000077
1665	1.6557e+02	-13.7178	-59.263134	0.000253	2.533154	0.858256	0.000101
1666	1.6567e+02	-13.6809	-59.154131	0.000274	2.735806	0.926916	0.000110
1667	1.6577e+02	-13.6360	-59.073389	0.000203	2.026523	0.686605	0.000081
1668	1.6587e+02	-13.6071	-58.964386	0.000274	2.735806	0.926916	0.000110
1669	1.6597e+02	-13.5590	-58.843272	0.000304	3.039785	1.029907	0.000122
1670	1.6607e+02	-13.5205	-58.701972	0.000355	3.546416	1.201558	0.000142
1671	1.6616e+02	-13.4868	-58.653527	0.000122	1.215914	0.411963	0.000049
1672	1.6626e+02	-13.4435	-58.475893	0.000446	4.458351	1.510530	0.000179
1673	1.6636e+02	-13.4002	-58.415336	0.000152	1.519892	0.514953	0.000061
1674	1.6646e+02	-13.3681	-58.318444	0.000243	2.431828	0.823926	0.000097
1675	1.6656e+02	-13.3135	-58.173107	0.000365	3.647742	1.235888	0.000146
1676	1.6666e+02	-13.2766	-58.120625	0.000132	1.317240	0.446293	0.000053
1677	1.6676e+02	-13.2413	-58.007585	0.000284	2.837133	0.961247	0.000114
1678	1.6686e+02	-13.1900	-57.910694	0.000243	2.431828	0.823926	0.000097
1679	1.6696e+02	-13.1691	-57.801691	0.000274	2.735806	0.926916	0.000110
1680	1.6706e+02	-13.1146	-57.676540	0.000314	3.141111	1.064237	0.000126
1681	1.6716e+02	-13.0681	-57.583686	0.000233	2.330502	0.789595	0.000093
1682	1.6726e+02	-13.0408	-57.482757	0.000253	2.533154	0.858256	0.000101
1683	1.6736e+02	-13.0039	-57.365680	0.000294	2.938459	0.995577	0.000118
1684	1.6746e+02	-12.9686	-57.252640	0.000284	2.837133	0.961247	0.000114
1685	1.6756e+02	-12.9141	-57.135564	0.000294	2.938459	0.995577	0.000118
1686	1.6766e+02	-12.8852	-57.107304	0.000071	0.709283	0.240312	0.000028
1687	1.6776e+02	-12.8419	-56.998301	0.000274	2.735806	0.926916	0.000110
1688	1.6786e+02	-12.8034	-56.852964	0.000365	3.647742	1.235888	0.000146
1689	1.6796e+02	-12.7585	-56.788370	0.000162	1.621219	0.549284	0.000065
1690	1.6806e+02	-12.7296	-56.695516	0.000233	2.330502	0.789595	0.000093
1691	1.6816e+02	-12.6831	-56.529993	0.000415	4.154373	1.407540	0.000166
1692	1.6825e+02	-12.6446	-56.465399	0.000162	1.621219	0.549284	0.000065
1693	1.6835e+02	-12.6061	-56.324099	0.000355	3.546416	1.201558	0.000142
1694	1.6845e+02	-12.5692	-56.231245	0.000233	2.330502	0.789595	0.000093
1695	1.6855e+02	-12.5258	-56.098020	0.000334	3.343763	1.132898	0.000134
1696	1.6865e+02	-12.4825	-56.077834	0.000051	0.506631	0.171651	0.000020
1697	1.6875e+02	-12.4505	-55.940571	0.000345	3.445090	1.167228	0.000138
1698	1.6885e+02	-12.4039	-55.803309	0.000345	3.445090	1.167228	0.000138
1699	1.6895e+02	-12.3686	-55.742752	0.000152	1.519892	0.514953	0.000061
1700	1.6905e+02	-12.3333	-55.625675	0.000294	2.938459	0.995577	0.000118
1701	1.6915e+02	-12.2916	-55.496486	0.000324	3.242437	1.098567	0.000130
1702	1.6925e+02	-12.2499	-55.391521	0.000263	2.634480	0.892586	0.000105
1703	1.6935e+02	-12.2066	-55.286555	0.000263	2.634480	0.892586	0.000105
1704	1.6945e+02	-12.1649	-55.185627	0.000253	2.533154	0.858256	0.000101
1705	1.6955e+02	-12.1296	-55.112959	0.000182	1.823871	0.617944	0.000073
1706	1.6965e+02	-12.0815	-54.943399	0.000426	4.255699	1.441870	0.000170
1707	1.6975e+02	-12.0494	-54.850545	0.000233	2.330502	0.789595	0.000093
1708	1.6985e+02	-12.0077	-54.725393	0.000314	3.141111	1.064237	0.000126
1709	1.6995e+02	-11.9660	-54.636577	0.000223	2.229176	0.755265	0.000089
1710	1.7005e+02	-11.9291	-54.571982	0.000162	1.621219	0.549284	0.000065
1711	1.7015e+02	-11.8842	-54.483165	0.000223	2.229176	0.755265	0.000089
1712	1.7024e+02	-11.8505	-54.337828	0.000365	3.647742	1.235888	0.000146
1713	1.7034e+02	-11.8023	-54.269197	0.000172	1.722545	0.583614	0.000069
1714	1.7044e+02	-11.7670	-54.095600	0.000436	4.357025	1.476200	0.000174
1715	1.7054e+02	-11.7318	-54.051192	0.000111	1.114588	0.377633	0.000045
1716	1.7064e+02	-11.6852	-53.922003	0.000324	3.242437	1.098567	0.000130
1717	1.7074e+02	-11.6467	-53.821075	0.000253	2.533154	0.858256	0.000101
1718	1.7084e+02	-11.6098	-53.736295	0.000213	2.127849	0.720935	0.000085
1719	1.7094e+02	-11.5665	-53.566736	0.000426	4.255699	1.441870	0.000170
1720	1.7104e+02	-11.5200	-53.498104	0.000172	1.722545	0.583614	0.000069
1721	1.7114e+02	-11.4895	-53.356804	0.000355	3.546416	1.201558	0.000142
1722	1.7124e+02	-11.4558	-53.296247	0.000152	1.519892	0.514953	0.000061
1723	1.7134e+02	-11.4109	-53.183208	0.000284	2.837133	0.961247	0.000114
1724	1.7144e+02	-11.3692	-53.062094	0.000304	3.039785	1.029907	0.000122
1725	1.7154e+02	-11.3243	-52.945017	0.000294	2.938459	0.995577	0.000118
1726	1.7164e+02	-11.2970	-52.836014	0.000274	2.735806	0.926916	0.000110
1727	1.7174e+02	-11.2441	-52.727011	0.000274	2.735806	0.926916	0.000110
1728	1.7184e+02	-11.2104	-52.601860	0.000314	3.141111	1.064237	0.000126
1729	1.7194e+02	-11.1735	-52.541303	0.000152	1.519892	0.514953	0.000061
1730	1.7204e+02	-11.1366	-52.404040	0.000345	3.445090	1.167228	0.000138
1731	1.7213e+02	-11.0949	-52.307149	0.000243	2.431828	0.823926	0.000097
1732	1.7223e+02	-11.0548	-52.165849	0.000355	3.546416	1.201558	0.000142
1733	1.7233e+02	-11.0147	-52.064921	0.000253	2.533154	0.858256	0.000101
1734	1.7243e+02	-10.9713	-51.947844	0.000294	2.938459	0.995577	0.000118
1735	1.7253e+02	-10.9280	-51.854990	0.000233	2.330502	0.789595	0.000093
1736	1.7263e+02	-10.8911	-51.729839	0.000314	3.141111	1.064237	0.000126
1737	1.7273e+02	-10.8623	-51.628910	0.000253	2.533154	0.858256	0.000101
1738	1.7283e+02	-10.8093	-51.495685	0.000334	3.343763	1.132898	0.000134
1739	1.7293e+02	-10.7660	-51.394757	0.000253	2.533154	0.858256	0.000101
1740	1.7303e+02	-10.7371	-51.269605	0.000314	3.141111	1.064237	0.000126
1741	1.7313e+02	-10.6986	-51.205011	0.000162	1.621219	0.549284	0.000065
1742	1.7323e+02	-10.6489	-51.128306	0.000193	1.925197	0.652274	0.000077
1743	1.7333e+02	-10.6120	-50.987006	0.000355	3.546416	1.201558	0.000142
1744	1.7343e+02	-10.5751	-50.845706	0.000355	3.546416	1.201558	0.000142
1745	1.7353e+02	-10.5286	-50.748815	0.000243	2.431828	0.823926	0.000097
1746	1.7363e+02	-10.4821	-50.607515	0.000355	3.546416	1.201558	0.000142
1747	1.7373e+02	-10.4532	-50.530809	0.000193	1.925197	0.652274	0.000077
1748	1.7383e+02	-10.4115	-50.441992	0.000223	2.229176	0.755265	0.000089
1749	1.7393e+02	-10.3649	-50.349138	0.000233	2.330502	0.789595	0.000093
1750	1.7403e+02	-10.3313	-50.219950	0.000324	3.242437	1.098567	0.000130
1751	1.7413e+02	-10.2912	-50.102873	0.000294	2.938459	0.995577	0.000118
1752	1.7422e+02	-10.2575	-49.989833	0.000284	2.837133	0.961247	0.000114
1753	1.7432e+02	-10.2142	-49.872756	0.000294	2.938459	0.995577	0.000118
1754	1.7442e+02	-10.1789	-49.771828	0.000253	2.533154	0.858256	0.000101
1755	1.7452e+02	-10.1339	-49.650714	0.000304	3.039785	1.029907	0.000122
1756	1.7462e+02	-10.0874	-49.537674	0.000284	2.837133	0.961247	0.000114
1757	1.7472e+02	-10.0634	-49.404449	0.000334	3.343763	1.132898	0.000134
1758	1.7482e+02	-10.0168	-49.335817	0.000172	1.722545	0.583614	0.000069
1759	1.7492e+02	-9.9751	-49.206629	0.000324	3.242437	1.098567	0.000130
1760	1.7502e+02	-9.9350	-49.113775	0.000233	2.330502	0.789595	0.000093
1761	1.7512e+02	-9.8981	-48.948252	0.000415	4.154373	1.407540	0.000166
1762	1.7522e+02	-9.8516	-48.855398	0.000233	2.330502	0.789595	0.000093
1763	1.7532e+02	-9.8227	-48.726210	0.000324	3.242437	1.098567	0.000130
1764	1.7542e+02	-9.7730	-48.621244	0.000263	2.634480	0.892586	0.000105
1765	1.7552e+02	-9.7313	-48.492056	0.000324	3.242437	1.098567	0.000130
1766	1.7562e+02	-9.6960	-48.407276	0.000213	2.127849	0.720935	0.000085
1767	1.7572e+02	-9.6382	-48.278088	0.000324	3.242437	1.098567	0.000130
1768	1.7582e+02	-9.6158	-48.209456	0.000172	1.722545	0.583614	0.000069
1769	1.7592e+02	-9.5757	-48.088342	0.000304	3.039785	1.029907	0.000122
1770	1.7602e+02	-9.5388	-47.943005	0.000365	3.647742	1.235888	0.000146
1771	1.7612e+02	-9.4922	-47.813817	0.000324	3.242437	1.098567	0.000130
1772	1.7621e+02	-9.4650	-47.708852	0.000263	2.634480	0.892586	0.000105
1773	1.7631e+02	-9.4217	-47.595812	0.000284	2.837133	0.961247	0.000114
1774	1.7641e+02	-9.3767	-47.458549	0.000345	3.445090	1.167228	0.000138
1775	1.7651e+02	-9.3382	-47.353584	0.000263	2.634480	0.892586	0.000105
1776	1.7661e+02	-9.2981	-47.244581	0.000274	2.735806	0.926916	0.000110
1777	1.7671e+02	-9.2580	-47.123467	0.000304	3.039785	1.029907	0.000122
1778	1.7681e+02	-9.2211	-47.010427	0.000284	2.837133	0.961247	0.000114
1779	1.7691e+02	-9.1810	-46.877202	0.000334	3.343763	1.132898	0.000134
1780	1.7701e+02	-9.1393	-46.727828	0.000375	3.749068	1.270219	0.000150
1781	1.7711e+02	-9.0960	-46.606714	0.000304	3.039785	1.029907	0.000122
1782	1.7721e+02	-9.0527	-46.501748	0.000263	2.634480	0.892586	0.000105
1783	1.7731e+02	-9.0190	-46.360448	0.000355	3.546416	1.201558	0.000142
1784	1.7741e+02	-8.9757	-46.243371	0.000294	2.938459	0.995577	0.000118
1785	1.7751e+02	-8.9356	-46.114183	0.000324	3.242437	1.098567	0.000130
1786	1.7761e+02	-8.8923	-46.033440	0.000203	2.026523	0.686605	0.000081
1787	1.7771e+02	-8.8618	-45.888103	0.000365	3.647742	1.235888	0.000146
1788	1.7781e+02	-8.8201	-45.787175	0.000253	2.533154	0.858256	0.000101
1789	1.7791e+02	-8.7784	-45.633764	0.000385	3.850394	1.304549	0.000154
1790	1.7801e+02	-8.7431	-45.496501	0.000345	3.445090	1.167228	0.000138
1791	1.7810e+02	-8.6982	-45.395573	0.000253	2.533154	0.858256	0.000101
1792	1.7820e+02	-8.6564	-45.242162	0.000385	3.850394	1.304549	0.000154
1793	1.7830e+02	-8.6211	-45.125085	0.000294	2.938459	0.995577	0.000118
1794	1.7840e+02	-8.5826	-45.008008	0.000294	2.938459	0.995577	0.000118
1795	1.7850e+02	-8.5409	-44.886894	0.000304	3.039785	1.029907	0.000122
1796	1.7860e+02	-8.5121	-44.753668	0.000334	3.343763	1.132898	0.000134
1797	1.7870e+02	-8.4639	-44.648703	0.000263	2.634480	0.892586	0.000105
1798	1.7880e+02	-8.4286	-44.511440	0.000345	3.445090	1.167228	0.000138
1799	1.7890e+02	-8.3821	-44.398400	0.000284	2.837133	0.961247	0.000114
1800	1.7900e+02	-8.3388	-44.257101	0.000355	3.546416	1.201558	0.000142
1801	1.7910e+02	-8.2987	-44.140024	0.000294	2.938459	0.995577	0.000118
1802	1.7920e+02	-8.2682	-44.014872	0.000314	3.141111	1.064237	0.000126
1803	1.7930e+02	-8.2217	-43.885684	0.000324	3.242437	1.098567	0.000130
1804	1.7940e+02	-8.1816	-43.821090	0.000162	1.621219	0.549284	0.000065
1805	1.7950e+02	-8.1367	-43.647493	0.000436	4.357025	1.476200	0.000174
1806	1.7960e+02	-8.0966	-43.538490	0.000274	2.735806	0.926916	0.000110
1807	1.7970e+02	-8.0645	-43.413339	0.000314	3.141111	1.064237	0.000126
1808	1.7980e+02	-8.0244	-43.268002	0.000365	3.647742	1.235888	0.000146
1809	1.7990e+02	-7.9859	-43.150925	0.000294	2.938459	0.995577	0.000118
1810	1.8000e+02	-7.9345	-42.973291	0.000446	4.458351	1.510530	0.000179
1811	1.8009e+02	-7.8976	-42.860252	0.000284	2.837133	0.961247	0.000114
1812	1.8019e+02	-7.8463	-42.763360	0.000243	2.431828	0.823926	0.000097
1813	1.8029e+02	-7.8174	-42.630135	0.000334	3.343763	1.132898	0.000134
1814	1.8039e+02	-7.7886	-42.488835	0.000355	3.546416	1.201558	0.000142
1815	1.8049e+02	-7.7372	-42.367721	0.000304	3.039785	1.029907	0.000122
1816	1.8059e+02	-7.7003	-42.218347	0.000375	3.749068	1.270219	0.000150
1817	1.8069e+02	-7.6634	-42.097233	0.000304	3.039785	1.029907	0.000122
1818	1.8079e+02	-7.6185	-41.968045	0.000324	3.242437	1.098567	0.000130
1819	1.8089e+02	-7.5784	-41.846930	0.000304	3.039785	1.029907	0.000122
1820	1.8099e+02	-7.5415	-41.701594	0.000365	3.647742	1.235888	0.000146
1821	1.8109e+02	-7.4966	-41.552220	0.000375	3.749068	1.270219	0.000150
1822	1.8119e+02	-7.4629	-41.463403	0.000223	2.229176	0.755265	0.000089
1823	1.8129e+02	-7.4292	-41.334214	0.000324	3.242437	1.098567	0.000130
1824	1.8139e+02	-7.3698	-41.160617	0.000436	4.357025	1.476200	0.000174
1825	1.8149e+02	-7.3474	-41.067763	0.000233	2.330502	0.789595	0.000093
1826	1.8159e+02	-7.3041	-40.902241	0.000415	4.154373	1.407540	0.000166
1827	1.8169e+02	-7.2656	-40.789201	0.000284	2.837133	0.961247	0.000114
1828	1.8179e+02	-7.2271	-40.664050	0.000314	3.141111	1.064237	0.000126
1829	1.8189e+02	-7.1918	-40.522750	0.000355	3.546416	1.201558	0.000142
1830	1.8199e+02	-7.1533	-40.381450	0.000355	3.546416	1.201558	0.000142
1831	1.8209e+02	-7.1068	-40.248225	0.000334	3.343763	1.132898	0.000134
1832	1.8218e+02	-7.0634	-40.090776	0.000395	3.951720	1.338879	0.000158
1833	1.8228e+02	-7.0249	-39.981774	0.000274	2.735806	0.926916	0.000110
1834	1.8238e+02	-6.9752	-39.844511	0.000345	3.445090	1.167228	0.000138
1835	1.8248e+02	-6.9495	-39.695137	0.000375	3.749068	1.270219	0.000150
1836	1.8258e+02	-6.8982	-39.545763	0.000375	3.749068	1.270219	0.000150
1837	1.8268e+02	-6.8597	-39.408501	0.000345	3.445090	1.167228	0.000138
1838	1.8278e+02	-6.8180	-39.299498	0.000274	2.735806	0.926916	0.000110
1839	1.8288e+02	-6.7811	-39.138012	0.000405	4.053047	1.373209	0.000162
1840	1.8298e+02	-6.7410	-38.988638	0.000375	3.749068	1.270219	0.000150
1841	1.8308e+02	-6.7009	-38.879636	0.000274	2.735806	0.926916	0.000110
1842	1.8318e+02	-6.6720	-38.750447	0.000324	3.242437	1.098567	0.000130
1843	1.8328e+02	-6.6319	-38.568776	0.000456	4.559677	1.544860	0.000183
1844	1.8338e+02	-6.5918	-38.459774	0.000274	2.735806	0.926916	0.000110
1845	1.8348e+02	-6.5421	-38.334622	0.000314	3.141111	1.064237	0.000126
1846	1.8358e+02	-6.5068	-38.189286	0.000365	3.647742	1.235888	0.000146
1847	1.8368e+02	-6.4618	-38.031837	0.000395	3.951720	1.338879	0.000158
1848	1.8378e+02	-6.4250	-37.934946	0.000243	2.431828	0.823926	0.000097
1849	1.8388e+02	-6.3881	-37.777498	0.000395	3.951720	1.338879	0.000158
1850	1.8398e+02	-6.3576	-37.640235	0.000345	3.445090	1.167228	0.000138
1851	1.8407e+02	-6.3014	-37.511047	0.000324	3.242437	1.098567	0.000130
1852	1.8417e+02	-6.2774	-37.389933	0.000304	3.039785	1.029907	0.000122
1853	1.8427e+02	-6.2244	-37.232484	0.000395	3.951720	1.338879	0.000158
1854	1.8437e+02	-6.1988	-37.135593	0.000243	2.431828	0.823926	0.000097
1855	1.8447e+02	-6.1522	-36.945848	0.000476	4.762330	1.613521	0.000191
1856	1.8457e+02	-6.1121	-36.832808	0.000284	2.837133	0.961247	0.000114
1857	1.8467e+02	-6.0672	-36.691508	0.000355	3.546416	1.201558	0.000142
1858	1.8477e+02	-6.0335	-36.550208	0.000355	3.546416	1.201558	0.000142
1859	1.8487e+02	-5.9934	-36.408909	0.000355	3.546416	1.201558	0.000142
1860	1.8497e+02	-5.9501	-36.295869	0.000284	2.837133	0.961247	0.000114
1861	1.8507e+02	-5.9132	-36.102086	0.000486	4.863656	1.647851	0.000195
1862	1.8517e+02	-5.8731	-36.001158	0.000253	2.533154	0.858256	0.000101
1863	1.8527e+02	-5.8234	-35.859858	0.000355	3.546416	1.201558	0.000142
1864	1.8537e+02	-5.7897	-35.698373	0.000405	4.053047	1.373209	0.000162
1865	1.8547e+02	-5.7576	-35.597444	0.000253	2.533154	0.858256	0.000101
1866	1.8557e+02	-5.7159	-35.444033	0.000385	3.850394	1.304549	0.000154
1867	1.8567e+02	-5.6742	-35.294659	0.000375	3.749068	1.270219	0.000150
1868	1.8577e+02	-5.6373	-35.145285	0.000375	3.749068	1.270219	0.000150
1869	1.8587e+02	-5.5940	-35.052431	0.000233	2.330502	0.789595	0.000093
1870	1.8597e+02	-5.5571	-34.886908	0.000415	4.154373	1.407540	0.000166
1871	1.8606e+02	-5.5041	-34.753683	0.000334	3.343763	1.132898	0.000134
1872	1.8616e+02	-5.4688	-34.620458	0.000334	3.343763	1.132898	0.000134
1873	1.8626e+02	-5.4319	-34.434749	0.000466	4.661003	1.579191	0.000187
1874	1.8636e+02	-5.3918	-34.309598	0.000314	3.141111	1.064237	0.000126
1875	1.8646e+02	-5.3565	-34.176373	0.000334	3.343763	1.132898	0.000134
1876	1.8656e+02	-5.3196	-34.022961	0.000385	3.850394	1.304549	0.000154
1877	1.8666e+02	-5.2795	-33.873587	0.000375	3.749068	1.270219	0.000150
1878	1.8676e+02	-5.2234	-33.748436	0.000314	3.141111	1.064237	0.000126
1879	1.8686e+02	-5.1897	-33.590988	0.000395	3.951720	1.338879	0.000158
1880	1.8696e+02	-5.1544	-33.421428	0.000426	4.255699	1.441870	0.000170
1881	1.8706e+02	-5.1079	-33.332611	0.000223	2.229176	0.755265	0.000089
1882	1.8716e+02	-5.0742	-33.183237	0.000375	3.749068	1.270219	0.000150
1883	1.8726e+02	-5.0309	-33.058086	0.000314	3.141111	1.064237	0.000126
1884	1.8736e+02	-4.9956	-32.888526	0.000426	4.255699	1.441870	0.000170
1885	1.8746e+02	-4.9507	-32.739152	0.000375	3.749068	1.270219	0.000150
1886	1.8756e+02	-4.9218	-32.577667	0.000405	4.053047	1.373209	0.000162
1887	1.8766e+02	-4.8785	-32.504998	0.000182	1.823871	0.617944	0.000073
1888	1.8776e+02	-4.8336	-32.303142	0.000507	5.066308	1.716512	0.000203
1889	1.8786e+02	-4.7934	-32.186065	0.000294	2.938459	0.995577	0.000118
1890	1.8796e+02	-4.7517	-32.040728	0.000365	3.647742	1.235888	0.000146
1891	1.8806e+02	-4.7132	-31.899428	0.000355	3.546416	1.201558	0.000142
1892	1.8815e+02	-4.6812	-31.733905	0.000415	4.154373	1.407540	0.000166
1893	1.8825e+02	-4.6394	-31.576457	0.000395	3.951720	1.338879	0.000158
1894	1.8835e+02	-4.5977	-31.451306	0.000314	3.141111	1.064237	0.000126
1895	1.8845e+02	-4.5656	-31.297895	0.000385	3.850394	1.304549	0.000154
1896	1.8855e+02	-4.5143	-31.176781	0.000304	3.039785	1.029907	0.000122
1897	1.8865e+02	-4.4838	-31.039518	0.000345	3.445090	1.167228	0.000138
1898	1.8875e+02	-4.4373	-30.906293	0.000334	3.343763	1.132898	0.000134
1899	1.8885e+02	-4.4020	-30.720584	0.000466	4.661003	1.579191	0.000187
1900	1.8895e+02	-4.3587	-30.587359	0.000334	3.343763	1.132898	0.000134
1901	1.8905e+02	-4.3186	-30.417799	0.000426	4.255699	1.441870	0.000170
1902	1.8915e+02	-4.2801	-30.272462	0.000365	3.647742	1.235888	0.000146
1903	1.8925e+02	-4.2336	-30.131163	0.000355	3.546416	1.201558	0.000142
1904	1.8935e+02	-4.2031	-30.001974	0.000324	3.242437	1.098567	0.000130
1905	1.8945e+02	-4.1598	-29.848563	0.000385	3.850394	1.304549	0.000154
1906	1.8955e+02	-4.1116	-29.695152	0.000385	3.850394	1.304549	0.000154
1907	1.8965e+02	-4.0699	-29.565964	0.000324	3.242437	1.098567	0.000130
1908	1.8975e+02	-4.0427	-29.420627	0.000365	3.647742	1.235888	0.000146
1909	1.8985e+02	-4.0074	-29.275290	0.000365	3.647742	1.235888	0.000146
1910	1.8995e+02	-3.9592	-29.089582	0.000466	4.661003	1.579191	0.000187
1911	1.9004e+02	-3.9207	-28.972505	0.000294	2.938459	0.995577	0.000118
1912	1.9014e+02	-3.8710	-28.802945	0.000426	4.255699	1.441870	0.000170
1913	1.9024e+02	-3.8405	-28.657608	0.000365	3.647742	1.235888	0.000146
1914	1.9034e+02	-3.7988	-28.528420	0.000324	3.242437	1.098567	0.000130
1915	1.9044e+02	-3.7651	-28.346749	0.000456	4.559677	1.544860	0.000183
1916	1.9054e+02	-3.7202	-28.221597	0.000314	3.141111	1.064237	0.000126
1917	1.9064e+02	-3.6737	-28.080298	0.000355	3.546416	1.201558	0.000142
1918	1.9074e+02	-3.6432	-27.914775	0.000415	4.154373	1.407540	0.000166
1919	1.9084e+02	-3.6063	-27.777512	0.000345	3.445090	1.167228	0.000138
1920	1.9094e+02	-3.5614	-27.628138	0.000375	3.749068	1.270219	0.000150
1921	1.9104e+02	-3.5245	-27.494913	0.000334	3.343763	1.132898	0.000134
1922	1.9114e+02	-3.4796	-27.309205	0.000466	4.661003	1.579191	0.000187
1923	1.9124e+02	-3.4363	-27.196165	0.000284	2.837133	0.961247	0.000114
1924	1.9134e+02	-3.4010	-27.014494	0.000456	4.559677	1.544860	0.000183
1925	1.9144e+02	-3.3609	-26.853008	0.000405	4.053047	1.373209	0.000162
1926	1.9154e+02	-3.3256	-26.748043	0.000263	2.634480	0.892586	0.000105
1927	1.9164e+02	-3.2839	-26.590595	0.000395	3.951720	1.338879	0.000158
1928	1.9174e+02	-3.2454	-26.445258	0.000365	3.647742	1.235888	0.000146
1929	1.9184e+02	-3.2053	-26.283772	0.000405	4.053047	1.373209	0.000162
1930	1.9194e+02	-3.1652	-26.085953	0.000496	4.964982	1.682181	0.000199
1931	1.9203e+02	-3.1202	-26.025396	0.000152	1.519892	0.514953	0.000061
1932	1.9213e+02	-3.0865	-25.807390	0.000547	5.471613	1.853833	0.000219
1933	1.9223e+02	-3.0496	-25.674165	0.000334	3.343763	1.132898	0.000134
1934	1.9233e+02	-2.9983	-25.520754	0.000385	3.850394	1.304549	0.000154
1935	1.9243e+02	-2.9630	-25.343120	0.000446	4.458351	1.510530	0.000179
1936	1.9253e+02	-2.9245	-25.213931	0.000324	3.242437	1.098567	0.000130
1937	1.9263e+02	-2.8812	-25.032260	0.000456	4.559677	1.544860	0.000183
1938	1.9273e+02	-2.8379	-24.907109	0.000314	3.141111	1.064237	0.000126
1939	1.9283e+02	-2.7978	-24.705252	0.000507	5.066308	1.716512	0.000203
1940	1.9293e+02	-2.7641	-24.592212	0.000284	2.837133	0.961247	0.000114
1941	1.9303e+02	-2.7224	-24.414578	0.000446	4.458351	1.510530	0.000179
1942	1.9313e+02	-2.6807	-24.240982	0.000436	4.357025	1.476200	0.000174
1943	1.9323e+02	-2.6358	-24.095645	0.000365	3.647742	1.235888	0.000146
1944	1.9333e+02	-2.6037	-23.954345	0.000355	3.546416	1.201558	0.000142
1945	1.9343e+02	-2.5684	-23.768637	0.000466	4.661003	1.579191	0.000187
1946	1.9353e+02	-2.5219	-23.631374	0.000345	3.445090	1.167228	0.000138
1947	1.9363e+02	-2.4769	-23.457777	0.000436	4.357025	1.476200	0.000174
1948	1.9373e+02	-2.4481	-23.316477	0.000355	3.546416	1.201558	0.000142
1949	1.9383e+02	-2.4063	-23.159029	0.000395	3.951720	1.338879	0.000158
1950	1.9393e+02	-2.3695	-22.985432	0.000436	4.357025	1.476200	0.000174
1951	1.9403e+02	-2.3277	-22.811835	0.000436	4.357025	1.476200	0.000174
1952	1.9412e+02	-2.2892	-22.694759	0.000294	2.938459	0.995577	0.000118
1953	1.9422e+02	-2.2443	-22.529236	0.000415	4.154373	1.407540	0.000166
1954	1.9432e+02	-2.2154	-22.339491	0.000476	4.762330	1.613521	0.000191
1955	1.9442e+02	-2.1593	-22.173968	0.000415	4.154373	1.407540	0.000166
1956	1.9452e+02	-2.1240	-22.016520	0.000395	3.951720	1.338879	0.000158
1957	1.9462e+02	-2.0855	-21.842923	0.000436	4.357025	1.476200	0.000174
1958	1.9472e+02	-2.0502	-21.673363	0.000426	4.255699	1.441870	0.000170
1959	1.9482e+02	-2.0069	-21.523989	0.000375	3.749068	1.270219	0.000150
1960	1.9492e+02	-1.9620	-21.342318	0.000456	4.559677	1.544860	0.000183
1961	1.9502e+02	-1.9219	-21.209093	0.000334	3.343763	1.132898	0.000134
1962	1.9512e+02	-1.8882	-21.023384	0.000466	4.661003	1.579191	0.000187
1963	1.9522e+02	-1.8417	-20.882085	0.000355	3.546416	1.201558	0.000142
1964	1.9532e+02	-1.8064	-20.692339	0.000476	4.762330	1.613521	0.000191
1965	1.9542e+02	-1.7631	-20.538928	0.000385	3.850394	1.304549	0.000154
1966	1.9552e+02	-1.7294	-20.341108	0.000496	4.964982	1.682181	0.000199
1967	1.9562e+02	-1.6860	-20.195772	0.000365	3.647742	1.235888	0.000146
1968	1.9572e+02	-1.6475	-20.054472	0.000355	3.546416	1.201558	0.000142
1969	1.9582e+02	-1.6074	-19.888949	0.000415	4.154373	1.407540	0.000166
1970	1.9592e+02	-1.5705	-19.735538	0.000385	3.850394	1.304549	0.000154
1971	1.9601e+02	-1.5240	-19.557904	0.000446	4.458351	1.510530	0.000179
1972	1.9611e+02	-1.4887	-19.368159	0.000476	4.762330	1.613521	0.000191
1973	1.9621e+02	-1.4486	-19.186488	0.000456	4.559677	1.544860	0.000183
1974	1.9631e+02	-1.4085	-19.041151	0.000365	3.647742	1.235888	0.000146
1975	1.9641e+02	-1.3716	-18.883702	0.000395	3.951720	1.338879	0.000158
1976	1.9651e+02	-1.3299	-18.734328	0.000375	3.749068	1.270219	0.000150
1977	1.9661e+02	-1.2914	-18.544583	0.000476	4.762330	1.613521	0.000191
1978	1.9671e+02	-1.2449	-18.395209	0.000375	3.749068	1.270219	0.000150
1979	1.9681e+02	-1.2080	-18.221612	0.000436	4.357025	1.476200	0.000174
1980	1.9691e+02	-1.1759	-18.056090	0.000415	4.154373	1.407540	0.000166
1981	1.9701e+02	-1.1294	-17.858270	0.000496	4.964982	1.682181	0.000199
1982	1.9711e+02	-1.0893	-17.688710	0.000426	4.255699	1.441870	0.000170
1983	1.9721e+02	-1.0492	-17.511076	0.000446	4.458351	1.510530	0.000179
1984	1.9731e+02	-1.0026	-17.389962	0.000304	3.039785	1.029907	0.000122
1985	1.9741e+02	-0.9722	-17.208291	0.000456	4.559677	1.544860	0.000183
1986	1.9751e+02	-0.9353	-17.014509	0.000486	4.863656	1.647851	0.000195
1987	1.9761e+02	-0.8887	-16.865135	0.000375	3.749068	1.270219	0.000150
1988	1.9771e+02	-0.8406	-16.707686	0.000395	3.951720	1.338879	0.000158
1989	1.9781e+02	-0.8053	-16.517941	0.000476	4.762330	1.613521	0.000191
1990	1.9791e+02	-0.7700	-16.376641	0.000355	3.546416	1.201558	0.000142
1991	1.9800e+02	-0.7331	-16.158636	0.000547	5.471613	1.853833	0.000219
1992	1.9810e+02	-0.6914	-16.033485	0.000314	3.141111	1.064237	0.000126
1993	1.9820e+02	-0.6513	-15.859888	0.000436	4.357025	1.476200	0.000174
1994	1.9830e+02	-0.6112	-15.621697	0.000598	5.978244	2.025484	0.000239
1995	1.9840e+02	-0.5711	-15.492508	0.000324	3.242437	1.098567	0.000130
1996	1.9850e+02	-0.5294	-15.302763	0.000476	4.762330	1.613521	0.000191
1997	1.9860e+02	-0.4957	-15.145315	0.000395	3.951720	1.338879	0.000158
1998	1.9870e+02	-0.4508	-14.939421	0.000517	5.167634	1.750842	0.000207
1999	1.9880e+02	-0.4107	-14.802158	0.000345	3.445090	1.167228	0.000138
2000	1.9890e+02	-0.3738	-14.620487	0.000456	4.559677	1.544860	0.000183
2001	1.9900e+02	-0.3257	-14.430742	0.000476	4.762330	1.613521	0.000191
2002	1.9910e+02	-0.2872	-14.301553	0.000324	3.242437	1.098567	0.000130
2003	1.9920e+02	-0.2535	-14.111808	0.000476	4.762330	1.613521	0.000191
2004	1.9930e+02	-0.2118	-13.909951	0.000507	5.066308	1.716512	0.000203
2005	1.9940e+02	-0.1733	-13.784800	0.000314	3.141111	1.064237	0.000126
2006	1.9950e+02	-0.1332	-13.574869	0.000527	5.268960	1.785172	0.000211
2007	1.9960e+02	-0.0914	-13.405309	0.000426	4.255699	1.441870	0.000170
2008	1.9970e+02	-0.0545	-13.235750	0.000426	4.255699	1.441870	0.000170
2009	1.9980e+02	-0.0209	-13.037930	0.000426	4.255699	1.441870	0.000199

Center data before PMax,+/-Pr and +/-Vc Calc.

PMax (uC/cm2):	7.05e+01
Pr (uC/cm2):	5.35e+00
-Pr (uC/cm2):	-1.30e+01
PLoss (uC/cm2):	-1.29e+01
-Vc:	-1.26e+00
C (Max-Eff) (nF):	3.53e-01
K (Eff):	1.20e+03
Vert. (+/-Pr) Shift (uC/cm2):	-3.84e+00
Offset (uC/cm2):	1.88e-01

A (Loop Area - uC/cm2·Volts):	5.12e-02



Hysteresis Version: 5.48.1 - Radiant Technologies, Inc., 1999 - 9/12/24

