»»»»»»»»»»»»»»»»»»»»»»»»»»»»»»»»»»»» Hysteresis ««««««««««««««««««««««««««««««««««««
»»»  Executed Version:	5.48.1
»»»  Vision Version:	5.48.4 (R)
»»»  Vision Compiled:	9/18/24
»»»  Driver Version:	5.47.0
»»»  Windows Version:	Windows 8 or 8.1
»»»  Processor Information:	x86 (AMD or Intel) - 32 Processors
»»»  Tester Name:	PMF21124-494 (100V)
»»»  Tester S/N:	PMF21124-494
»»»  Internal Amp Type:	100V RevK 270k
»»»  Internal Amp S/N:	iAB2-596/K     
»»»  Execution Count:	1
»»»»»»»»»»»»»»»»»»»»»»»»»»»»»»»»»»»»»»»»»»««««««««««««««««««««««««««««««««««««««««««

Stored:	6/16/2025 - 10:54:39
Configured:	06/16/25 10:13:01 AM
Executed:	06/16/25 10:54:08 AM

»»»»»»»»»»»»»»»»»»»»»»»»»»»»»»»»»»» Sample Info ««««««««««««««««««««««««««««««««««««
Sample Name:	
Lot Name:	
Wafer Name:	
Die Row/Column:	0/0
Capacitor Number:	0
Sample Area (cm2):	1.00e-04
Sample Thickness (microns):	3.00e-01

Amplifier:	Internal

»»»»»»»»»»»»»»»»»»»»»»»»»»»»»»»»»»» Tester Info «««««««««««««««««««««««««««««««««««
Tester Name:	PMF21124-494 (100V)
Tester Serial Number:	PMF21124-494
Return Signal Amp. Level:	0.19 [Index: 3]

»»»»»»»»»»»»»»»»»»»»»»»»»»»»»»»» Hysteresis Info ««««««««««««««««««««««««««««««««««
Task Name:	Hyst-2190
Volts:	20.00
Field:	666.67 (kV/cm)
DCBias:	0.00
DCField:	0.00 (kV/cm)
Hysteresis Period (ms):	2.00e+02
Preset:	Enabled
Preset Delay (ms):	1.00e+03
Profile:	Standard Bipolar

»»»»»»»»»»»»»»»»»»»»»»»»»»»»»»»»»»»»»» Data «««««««««««««««««««««««««««««««««««««««
Points:	2009

Valid Data

Point	Time (ms)	Drive Voltage	Measured Polarization (uC/cm2)	Capacitance (uF)	Normalized Capacitance (uF/cm2)	Dielectric Constant	Instantaneous Current (mA)
   1	0.0000e+00	0.0064	-0.522809	0.000041	0.405663	0.137442	0.000016
   2	9.9500e-02	0.0257	-0.506661	0.000041	0.405663	0.137442	0.000016
   3	1.9900e-01	0.0738	-0.514735	-0.000020	-0.202831	-0.068721	-0.000008
   4	2.9850e-01	0.1091	-0.490512	0.000061	0.608494	0.206163	0.000024
   5	3.9800e-01	0.1508	-0.433992	0.000142	1.419819	0.481048	0.000057
   6	4.9750e-01	0.1893	-0.482438	-0.000122	-1.216988	-0.412327	-0.000049
   7	5.9700e-01	0.2198	-0.462252	0.000051	0.507078	0.171803	0.000020
   8	6.9650e-01	0.2663	-0.510698	-0.000122	-1.216988	-0.412327	-0.000049
   9	7.9600e-01	0.3144	-0.494549	0.000041	0.405663	0.137442	0.000016
  10	8.9550e-01	0.3529	-0.486475	0.000020	0.202831	0.068721	0.000008
  11	9.9500e-01	0.3866	-0.470326	0.000041	0.405663	0.137442	0.000016
  12	1.0945e+00	0.4283	-0.442066	0.000071	0.709909	0.240524	0.000028
  13	1.1940e+00	0.4668	-0.433992	0.000020	0.202831	0.068721	0.000008
  14	1.2935e+00	0.5037	-0.421881	0.000030	0.304247	0.103082	0.000012
  15	1.3930e+00	0.5486	-0.393621	0.000071	0.709909	0.240524	0.000028
  16	1.4925e+00	0.5904	-0.381509	0.000030	0.304247	0.103082	0.000012
  17	1.5920e+00	0.6257	-0.369398	0.000030	0.304247	0.103082	0.000012
  18	1.6915e+00	0.6770	-0.300767	0.000172	1.724066	0.584129	0.000069
  19	1.7910e+00	0.6994	-0.272507	0.000071	0.709909	0.240524	0.000028
  20	1.8905e+00	0.7476	-0.143318	0.000325	3.245300	1.099538	0.000130
  21	1.9900e+00	0.7861	-0.038353	0.000264	2.636807	0.893374	0.000105
  22	2.0895e+00	0.8310	0.022204	0.000152	1.521235	0.515408	0.000061
  23	2.1890e+00	0.8727	0.151393	0.000325	3.245300	1.099538	0.000130
  24	2.2885e+00	0.9032	0.280581	0.000325	3.245300	1.099538	0.000130
  25	2.3880e+00	0.9401	0.381509	0.000254	2.535391	0.859014	0.000101
  26	2.4875e+00	0.9946	0.490512	0.000274	2.738222	0.927735	0.000110
  27	2.5870e+00	1.0331	0.680257	0.000477	4.766535	1.614946	0.000191
  28	2.6865e+00	1.0652	0.785223	0.000264	2.636807	0.893374	0.000105
  29	2.7860e+00	1.0989	0.954783	0.000426	4.259457	1.443143	0.000170
  30	2.8855e+00	1.1454	1.067822	0.000284	2.839638	0.962095	0.000114
  31	2.9850e+00	1.1871	1.237382	0.000426	4.259457	1.443143	0.000170
  32	3.0845e+00	1.2304	1.410979	0.000436	4.360872	1.477504	0.000174
  33	3.1840e+00	1.2754	1.556316	0.000365	3.650963	1.236980	0.000146
  34	3.2835e+00	1.3026	1.709727	0.000385	3.853794	1.305701	0.000154
  35	3.3830e+00	1.3524	1.931769	0.000558	5.577860	1.889830	0.000223
  36	3.4825e+00	1.3828	2.101329	0.000426	4.259457	1.443143	0.000170
  37	3.5820e+00	1.4262	2.258777	0.000396	3.955210	1.340061	0.000158
  38	3.6815e+00	1.4679	2.444486	0.000467	4.665119	1.580585	0.000187
  39	3.7810e+00	1.5032	2.605971	0.000406	4.056626	1.374422	0.000162
  40	3.8805e+00	1.5465	2.811865	0.000517	5.172198	1.752388	0.000207
  41	3.9800e+00	1.5914	2.977388	0.000416	4.158041	1.408782	0.000166
  42	4.0795e+00	1.6251	3.183282	0.000517	5.172198	1.752388	0.000207
  43	4.1790e+00	1.6700	3.352841	0.000426	4.259457	1.443143	0.000170
  44	4.2785e+00	1.7165	3.558735	0.000517	5.172198	1.752388	0.000207
  45	4.3780e+00	1.7438	3.716183	0.000396	3.955210	1.340061	0.000158
  46	4.4775e+00	1.7823	3.918040	0.000507	5.070782	1.718027	0.000203
  47	4.5770e+00	1.8288	4.099711	0.000456	4.563704	1.546225	0.000183
  48	4.6765e+00	1.8577	4.309642	0.000527	5.273613	1.786749	0.000211
  49	4.7760e+00	1.8994	4.535722	0.000568	5.679276	1.924191	0.000227
  50	4.8755e+00	1.9379	4.701245	0.000416	4.158041	1.408782	0.000166
  51	4.9750e+00	1.9828	4.895027	0.000487	4.867951	1.649306	0.000195
  52	5.0745e+00	2.0197	5.092847	0.000497	4.969366	1.683667	0.000199
  53	5.1740e+00	2.0550	5.286629	0.000487	4.867951	1.649306	0.000195
  54	5.2735e+00	2.1112	5.512709	0.000568	5.679276	1.924191	0.000227
  55	5.3730e+00	2.1400	5.702454	0.000477	4.766535	1.614946	0.000191
  56	5.4725e+00	2.1850	5.851828	0.000375	3.752379	1.271340	0.000150
  57	5.5720e+00	2.2219	6.041574	0.000477	4.766535	1.614946	0.000191
  58	5.6715e+00	2.2620	6.190948	0.000375	3.752379	1.271340	0.000150
  59	5.7710e+00	2.3005	6.408953	0.000548	5.476445	1.855470	0.000219
  60	5.8705e+00	2.3422	6.606773	0.000497	4.969366	1.683667	0.000199
  61	5.9700e+00	2.3839	6.869186	0.000659	6.592017	2.233436	0.000264
  62	6.0695e+00	2.4256	7.002412	0.000335	3.346716	1.133898	0.000134
  63	6.1690e+00	2.4641	7.200232	0.000497	4.969366	1.683667	0.000199
  64	6.2685e+00	2.5042	7.418237	0.000548	5.476445	1.855470	0.000219
  65	6.3680e+00	2.5379	7.607982	0.000477	4.766535	1.614946	0.000191
  66	6.4675e+00	2.5876	7.817913	0.000527	5.273613	1.786749	0.000211
  67	6.5670e+00	2.6229	8.019770	0.000507	5.070782	1.718027	0.000203
  68	6.6665e+00	2.6710	8.233738	0.000538	5.375029	1.821109	0.000215
  69	6.7660e+00	2.7031	8.411372	0.000446	4.462288	1.511864	0.000179
  70	6.8655e+00	2.7352	8.589006	0.000446	4.462288	1.511864	0.000179
  71	6.9650e+00	2.7849	8.802974	0.000538	5.375029	1.821109	0.000215
  72	7.0645e+00	2.8186	8.960423	0.000396	3.955210	1.340061	0.000158
  73	7.1640e+00	2.8620	9.162280	0.000507	5.070782	1.718027	0.000203
  74	7.2635e+00	2.9005	9.396433	0.000588	5.882107	1.992912	0.000235
  75	7.3630e+00	2.9454	9.578105	0.000456	4.563704	1.546225	0.000183
  76	7.4625e+00	2.9775	9.763813	0.000467	4.665119	1.580585	0.000187
  77	7.5620e+00	3.0272	10.010078	0.000619	6.186354	2.095993	0.000248
  78	7.6615e+00	3.0593	10.199823	0.000477	4.766535	1.614946	0.000191
  79	7.7610e+00	3.0946	10.413792	0.000538	5.375029	1.821109	0.000215
  80	7.8605e+00	3.1363	10.587388	0.000436	4.360872	1.477504	0.000174
  81	7.9600e+00	3.1844	10.809431	0.000558	5.577860	1.889830	0.000223
  82	8.0595e+00	3.2149	11.031473	0.000558	5.577860	1.889830	0.000223
  83	8.1590e+00	3.2614	11.249479	0.000548	5.476445	1.855470	0.000219
  84	8.2585e+00	3.2967	11.447298	0.000497	4.969366	1.683667	0.000199
  85	8.3580e+00	3.3400	11.661267	0.000538	5.375029	1.821109	0.000215
  86	8.4575e+00	3.3769	11.899458	0.000598	5.983523	2.027272	0.000239
  87	8.5570e+00	3.4138	12.101314	0.000507	5.070782	1.718027	0.000203
  88	8.6565e+00	3.4571	12.315283	0.000538	5.375029	1.821109	0.000215
  89	8.7560e+00	3.4972	12.541362	0.000568	5.679276	1.924191	0.000227
  90	8.8555e+00	3.5405	12.755330	0.000538	5.375029	1.821109	0.000215
  91	8.9550e+00	3.5806	12.928927	0.000436	4.360872	1.477504	0.000174
  92	9.0545e+00	3.6191	13.150970	0.000558	5.577860	1.889830	0.000223
  93	9.1540e+00	3.6528	13.397235	0.000619	6.186354	2.095993	0.000248
  94	9.2535e+00	3.7042	13.558720	0.000406	4.056626	1.374422	0.000162
  95	9.3530e+00	3.7379	13.744429	0.000467	4.665119	1.580585	0.000187
  96	9.4525e+00	3.7651	13.958397	0.000538	5.375029	1.821109	0.000215
  97	9.5520e+00	3.8181	14.152179	0.000487	4.867951	1.649306	0.000195
  98	9.6515e+00	3.8598	14.386333	0.000588	5.882107	1.992912	0.000235
  99	9.7510e+00	3.8903	14.543781	0.000396	3.955210	1.340061	0.000158
 100	9.8505e+00	3.9416	14.769861	0.000568	5.679276	1.924191	0.000227
 101	9.9500e+00	3.9801	14.947495	0.000446	4.462288	1.511864	0.000179
 102	1.0050e+01	4.0106	15.157426	0.000527	5.273613	1.786749	0.000211
 103	1.0149e+01	4.0411	15.351209	0.000487	4.867951	1.649306	0.000195
 104	1.0248e+01	4.0924	15.585363	0.000588	5.882107	1.992912	0.000235
 105	1.0348e+01	4.1389	15.762996	0.000446	4.462288	1.511864	0.000179
 106	1.0447e+01	4.1790	15.960816	0.000497	4.969366	1.683667	0.000199
 107	1.0547e+01	4.2143	16.162673	0.000507	5.070782	1.718027	0.000203
 108	1.0646e+01	4.2544	16.392790	0.000578	5.780691	1.958551	0.000231
 109	1.0746e+01	4.2993	16.538127	0.000365	3.650963	1.236980	0.000146
 110	1.0845e+01	4.3298	16.780355	0.000608	6.084938	2.061633	0.000243
 111	1.0945e+01	4.3683	16.945877	0.000416	4.158041	1.408782	0.000166
 112	1.1044e+01	4.4197	17.143697	0.000497	4.969366	1.683667	0.000199
 113	1.1144e+01	4.4534	17.373814	0.000578	5.780691	1.958551	0.000231
 114	1.1243e+01	4.4983	17.599893	0.000568	5.679276	1.924191	0.000227
 115	1.1343e+01	4.5400	17.789639	0.000477	4.766535	1.614946	0.000191
 116	1.1443e+01	4.5705	17.999570	0.000527	5.273613	1.786749	0.000211
 117	1.1542e+01	4.6106	18.193352	0.000487	4.867951	1.649306	0.000195
 118	1.1642e+01	4.6555	18.403283	0.000527	5.273613	1.786749	0.000211
 119	1.1741e+01	4.6844	18.629363	0.000568	5.679276	1.924191	0.000227
 120	1.1841e+01	4.7293	18.790848	0.000406	4.056626	1.374422	0.000162
 121	1.1940e+01	4.7758	18.992705	0.000507	5.070782	1.718027	0.000203
 122	1.2040e+01	4.8175	19.222822	0.000578	5.780691	1.958551	0.000231
 123	1.2139e+01	4.8560	19.428716	0.000517	5.172198	1.752388	0.000207
 124	1.2239e+01	4.8945	19.602313	0.000436	4.360872	1.477504	0.000174
 125	1.2338e+01	4.9346	19.808206	0.000517	5.172198	1.752388	0.000207
 126	1.2438e+01	4.9779	20.014100	0.000517	5.172198	1.752388	0.000207
 127	1.2537e+01	5.0148	20.175586	0.000406	4.056626	1.374422	0.000162
 128	1.2636e+01	5.0533	20.401665	0.000568	5.679276	1.924191	0.000227
 129	1.2736e+01	5.0983	20.603522	0.000507	5.070782	1.718027	0.000203
 130	1.2835e+01	5.1287	20.777119	0.000436	4.360872	1.477504	0.000174
 131	1.2935e+01	5.1785	20.978976	0.000507	5.070782	1.718027	0.000203
 132	1.3034e+01	5.2073	21.184870	0.000517	5.172198	1.752388	0.000207
 133	1.3134e+01	5.2523	21.406912	0.000558	5.577860	1.889830	0.000223
 134	1.3233e+01	5.2876	21.600695	0.000487	4.867951	1.649306	0.000195
 135	1.3333e+01	5.3389	21.818700	0.000548	5.476445	1.855470	0.000219
 136	1.3432e+01	5.3710	22.024594	0.000517	5.172198	1.752388	0.000207
 137	1.3532e+01	5.4063	22.238562	0.000538	5.375029	1.821109	0.000215
 138	1.3632e+01	5.4480	22.444456	0.000517	5.172198	1.752388	0.000207
 139	1.3731e+01	5.4865	22.694759	0.000629	6.287770	2.130354	0.000252
 140	1.3831e+01	5.5298	22.880467	0.000467	4.665119	1.580585	0.000187
 141	1.3930e+01	5.5667	23.122695	0.000608	6.084938	2.061633	0.000243
 142	1.4030e+01	5.6084	23.312440	0.000477	4.766535	1.614946	0.000191
 143	1.4129e+01	5.6517	23.490074	0.000446	4.462288	1.511864	0.000179
 144	1.4229e+01	5.6902	23.712117	0.000558	5.577860	1.889830	0.000223
 145	1.4328e+01	5.7271	23.946271	0.000588	5.882107	1.992912	0.000235
 146	1.4428e+01	5.7720	24.115830	0.000426	4.259457	1.443143	0.000170
 147	1.4527e+01	5.8169	24.317687	0.000507	5.070782	1.718027	0.000203
 148	1.4627e+01	5.8426	24.511470	0.000487	4.867951	1.649306	0.000195
 149	1.4726e+01	5.8907	24.749661	0.000598	5.983523	2.027272	0.000239
 150	1.4825e+01	5.9244	24.947480	0.000497	4.969366	1.683667	0.000199
 151	1.4925e+01	5.9677	25.104929	0.000396	3.955210	1.340061	0.000158
 152	1.5024e+01	6.0127	25.335045	0.000578	5.780691	1.958551	0.000231
 153	1.5124e+01	6.0512	25.488456	0.000385	3.853794	1.305701	0.000154
 154	1.5223e+01	6.0913	25.726647	0.000598	5.983523	2.027272	0.000239
 155	1.5323e+01	6.1330	25.876022	0.000375	3.752379	1.271340	0.000150
 156	1.5422e+01	6.1603	26.065767	0.000477	4.766535	1.614946	0.000191
 157	1.5522e+01	6.2148	26.255512	0.000477	4.766535	1.614946	0.000191
 158	1.5621e+01	6.2517	26.457369	0.000507	5.070782	1.718027	0.000203
 159	1.5721e+01	6.2918	26.651152	0.000487	4.867951	1.649306	0.000195
 160	1.5820e+01	6.3239	26.853008	0.000507	5.070782	1.718027	0.000203
 161	1.5920e+01	6.3688	27.058902	0.000517	5.172198	1.752388	0.000207
 162	1.6020e+01	6.4121	27.224425	0.000416	4.158041	1.408782	0.000166
 163	1.6119e+01	6.4426	27.402059	0.000446	4.462288	1.511864	0.000179
 164	1.6218e+01	6.4859	27.611990	0.000527	5.273613	1.786749	0.000211
 165	1.6318e+01	6.5196	27.821921	0.000527	5.273613	1.786749	0.000211
 166	1.6418e+01	6.5629	28.031852	0.000527	5.273613	1.786749	0.000211
 167	1.6517e+01	6.6062	28.213523	0.000456	4.563704	1.546225	0.000183
 168	1.6616e+01	6.6431	28.391157	0.000446	4.462288	1.511864	0.000179
 169	1.6716e+01	6.6913	28.621274	0.000578	5.780691	1.958551	0.000231
 170	1.6816e+01	6.7314	28.794871	0.000436	4.360872	1.477504	0.000174
 171	1.6915e+01	6.7667	29.000765	0.000517	5.172198	1.752388	0.000207
 172	1.7015e+01	6.8068	29.206658	0.000517	5.172198	1.752388	0.000207
 173	1.7114e+01	6.8501	29.396404	0.000477	4.766535	1.614946	0.000191
 174	1.7213e+01	6.8854	29.634595	0.000598	5.983523	2.027272	0.000239
 175	1.7313e+01	6.9367	29.759746	0.000314	3.143885	1.065177	0.000126
 176	1.7413e+01	6.9592	30.006011	0.000619	6.186354	2.095993	0.000248
 177	1.7512e+01	7.0105	30.187682	0.000456	4.563704	1.546225	0.000183
 178	1.7611e+01	7.0362	30.328982	0.000355	3.549547	1.202619	0.000142
 179	1.7711e+01	7.0731	30.494505	0.000416	4.158041	1.408782	0.000166
 180	1.7811e+01	7.1292	30.708473	0.000538	5.375029	1.821109	0.000215
 181	1.7910e+01	7.1549	30.865921	0.000396	3.955210	1.340061	0.000158
 182	1.8009e+01	7.2078	31.071815	0.000517	5.172198	1.752388	0.000207
 183	1.8109e+01	7.2399	31.265598	0.000487	4.867951	1.649306	0.000195
 184	1.8209e+01	7.2816	31.447269	0.000456	4.563704	1.546225	0.000183
 185	1.8308e+01	7.3233	31.620866	0.000436	4.360872	1.477504	0.000174
 186	1.8407e+01	7.3602	31.810611	0.000477	4.766535	1.614946	0.000191
 187	1.8507e+01	7.4003	32.012468	0.000507	5.070782	1.718027	0.000203
 188	1.8607e+01	7.4436	32.145693	0.000335	3.346716	1.133898	0.000134
 189	1.8706e+01	7.4837	32.351587	0.000517	5.172198	1.752388	0.000207
 190	1.8805e+01	7.5206	32.529221	0.000446	4.462288	1.511864	0.000179
 191	1.8905e+01	7.5640	32.787598	0.000649	6.490601	2.199075	0.000260
 192	1.9005e+01	7.5928	32.945046	0.000396	3.955210	1.340061	0.000158
 193	1.9104e+01	7.6442	33.106532	0.000406	4.056626	1.374422	0.000162
 194	1.9203e+01	7.6859	33.320500	0.000538	5.375029	1.821109	0.000215
 195	1.9303e+01	7.7228	33.445651	0.000314	3.143885	1.065177	0.000126
 196	1.9402e+01	7.7549	33.619248	0.000436	4.360872	1.477504	0.000174
 197	1.9502e+01	7.8078	33.833216	0.000538	5.375029	1.821109	0.000215
 198	1.9602e+01	7.8367	33.958367	0.000314	3.143885	1.065177	0.000126
 199	1.9701e+01	7.8800	34.140038	0.000456	4.563704	1.546225	0.000183
 200	1.9800e+01	7.9217	34.333821	0.000487	4.867951	1.649306	0.000195
 201	1.9900e+01	7.9586	34.495306	0.000406	4.056626	1.374422	0.000162
 202	2.0000e+01	8.0019	34.697163	0.000507	5.070782	1.718027	0.000203
 203	2.0099e+01	8.0436	34.894983	0.000497	4.969366	1.683667	0.000199
 204	2.0198e+01	8.0821	35.088765	0.000487	4.867951	1.649306	0.000195
 205	2.0298e+01	8.1254	35.230065	0.000355	3.549547	1.202619	0.000142
 206	2.0398e+01	8.1543	35.407699	0.000446	4.462288	1.511864	0.000179
 207	2.0497e+01	8.1992	35.585333	0.000446	4.462288	1.511864	0.000179
 208	2.0596e+01	8.2313	35.787190	0.000507	5.070782	1.718027	0.000203
 209	2.0696e+01	8.2730	36.005195	0.000548	5.476445	1.855470	0.000219
 210	2.0796e+01	8.3099	36.150532	0.000365	3.650963	1.236980	0.000146
 211	2.0895e+01	8.3597	36.324129	0.000436	4.360872	1.477504	0.000174
 212	2.0994e+01	8.4014	36.517911	0.000487	4.867951	1.649306	0.000195
 213	2.1094e+01	8.4447	36.691508	0.000436	4.360872	1.477504	0.000174
 214	2.1194e+01	8.4864	36.857031	0.000416	4.158041	1.408782	0.000166
 215	2.1293e+01	8.5217	37.058888	0.000507	5.070782	1.718027	0.000203
 216	2.1392e+01	8.5538	37.216336	0.000396	3.955210	1.340061	0.000158
 217	2.1492e+01	8.5971	37.402044	0.000467	4.665119	1.580585	0.000187
 218	2.1591e+01	8.6308	37.583715	0.000456	4.563704	1.546225	0.000183
 219	2.1691e+01	8.6869	37.769423	0.000467	4.665119	1.580585	0.000187
 220	2.1791e+01	8.7206	37.955132	0.000467	4.665119	1.580585	0.000187
 221	2.1890e+01	8.7559	38.124691	0.000426	4.259457	1.443143	0.000170
 222	2.1989e+01	8.7976	38.318474	0.000487	4.867951	1.649306	0.000195
 223	2.2089e+01	8.8345	38.479959	0.000406	4.056626	1.374422	0.000162
 224	2.2189e+01	8.8794	38.661630	0.000456	4.563704	1.546225	0.000183
 225	2.2288e+01	8.9147	38.819079	0.000396	3.955210	1.340061	0.000158
 226	2.2387e+01	8.9596	39.029010	0.000527	5.273613	1.786749	0.000211
 227	2.2487e+01	9.0014	39.178384	0.000375	3.752379	1.271340	0.000150
 228	2.2587e+01	9.0447	39.368129	0.000477	4.766535	1.614946	0.000191
 229	2.2686e+01	9.0703	39.525577	0.000396	3.955210	1.340061	0.000158
 230	2.2785e+01	9.1201	39.711286	0.000467	4.665119	1.580585	0.000187
 231	2.2885e+01	9.1570	39.888920	0.000446	4.462288	1.511864	0.000179
 232	2.2985e+01	9.1971	40.082702	0.000487	4.867951	1.649306	0.000195
 233	2.3084e+01	9.2404	40.280522	0.000497	4.969366	1.683667	0.000199
 234	2.3183e+01	9.2757	40.421822	0.000355	3.549547	1.202619	0.000142
 235	2.3283e+01	9.3174	40.595418	0.000436	4.360872	1.477504	0.000174
 236	2.3383e+01	9.3479	40.777090	0.000456	4.563704	1.546225	0.000183
 237	2.3482e+01	9.4008	40.894166	0.000294	2.941054	0.996456	0.000118
 238	2.3581e+01	9.4457	41.087949	0.000487	4.867951	1.649306	0.000195
 239	2.3681e+01	9.4762	41.265583	0.000446	4.462288	1.511864	0.000179
 240	2.3780e+01	9.5099	41.439180	0.000436	4.360872	1.477504	0.000174
 241	2.3880e+01	9.5532	41.628925	0.000477	4.766535	1.614946	0.000191
 242	2.3980e+01	9.5949	41.794448	0.000416	4.158041	1.408782	0.000166
 243	2.4079e+01	9.6302	41.947859	0.000385	3.853794	1.305701	0.000154
 244	2.4178e+01	9.6767	42.149716	0.000507	5.070782	1.718027	0.000203
 245	2.4278e+01	9.7056	42.363684	0.000538	5.375029	1.821109	0.000215
 246	2.4378e+01	9.7569	42.476724	0.000284	2.839638	0.962095	0.000114
 247	2.4477e+01	9.7906	42.674543	0.000497	4.969366	1.683667	0.000199
 248	2.4576e+01	9.8275	42.856214	0.000456	4.563704	1.546225	0.000183
 249	2.4676e+01	9.8757	43.005588	0.000375	3.752379	1.271340	0.000150
 250	2.4776e+01	9.9093	43.146888	0.000355	3.549547	1.202619	0.000142
 251	2.4875e+01	9.9527	43.364894	0.000548	5.476445	1.855470	0.000219
 252	2.4974e+01	9.9976	43.554639	0.000477	4.766535	1.614946	0.000191
 253	2.5074e+01	10.0377	43.683827	0.000325	3.245300	1.099538	0.000130
 254	2.5174e+01	10.0714	43.857424	0.000436	4.360872	1.477504	0.000174
 255	2.5273e+01	10.1131	44.026984	0.000426	4.259457	1.443143	0.000170
 256	2.5372e+01	10.1516	44.184432	0.000396	3.955210	1.340061	0.000158
 257	2.5472e+01	10.1901	44.370140	0.000467	4.665119	1.580585	0.000187
 258	2.5572e+01	10.2270	44.555849	0.000467	4.665119	1.580585	0.000187
 259	2.5671e+01	10.2767	44.709260	0.000385	3.853794	1.305701	0.000154
 260	2.5770e+01	10.3152	44.903042	0.000487	4.867951	1.649306	0.000195
 261	2.5870e+01	10.3505	45.084713	0.000456	4.563704	1.546225	0.000183
 262	2.5970e+01	10.3938	45.246199	0.000406	4.056626	1.374422	0.000162
 263	2.6069e+01	10.4339	45.403647	0.000396	3.955210	1.340061	0.000158
 264	2.6169e+01	10.4740	45.565133	0.000406	4.056626	1.374422	0.000162
 265	2.6268e+01	10.5045	45.766989	0.000507	5.070782	1.718027	0.000203
 266	2.6367e+01	10.5526	45.912326	0.000365	3.650963	1.236980	0.000146
 267	2.6467e+01	10.5911	46.069774	0.000396	3.955210	1.340061	0.000158
 268	2.6567e+01	10.6377	46.271631	0.000507	5.070782	1.718027	0.000203
 269	2.6666e+01	10.6762	46.396782	0.000314	3.143885	1.065177	0.000126
 270	2.6765e+01	10.7083	46.610751	0.000538	5.375029	1.821109	0.000215
 271	2.6865e+01	10.7435	46.748013	0.000345	3.448132	1.168259	0.000138
 272	2.6965e+01	10.7885	46.961981	0.000538	5.375029	1.821109	0.000215
 273	2.7064e+01	10.8414	47.103281	0.000355	3.549547	1.202619	0.000142
 274	2.7163e+01	10.8751	47.220358	0.000294	2.941054	0.996456	0.000118
 275	2.7263e+01	10.9072	47.389918	0.000426	4.259457	1.443143	0.000170
 276	2.7363e+01	10.9585	47.575626	0.000467	4.665119	1.580585	0.000187
 277	2.7462e+01	11.0018	47.725000	0.000375	3.752379	1.271340	0.000150
 278	2.7561e+01	11.0307	47.878411	0.000385	3.853794	1.305701	0.000154
 279	2.7661e+01	11.0724	48.064120	0.000467	4.665119	1.580585	0.000187
 280	2.7761e+01	11.1093	48.205419	0.000355	3.549547	1.202619	0.000142
 281	2.7860e+01	11.1526	48.395165	0.000477	4.766535	1.614946	0.000191
 282	2.7959e+01	11.1991	48.548576	0.000385	3.853794	1.305701	0.000154
 283	2.8059e+01	11.2184	48.718136	0.000426	4.259457	1.443143	0.000170
 284	2.8159e+01	11.2713	48.879621	0.000406	4.056626	1.374422	0.000162
 285	2.8258e+01	11.3082	49.037069	0.000396	3.955210	1.340061	0.000158
 286	2.8358e+01	11.3419	49.238926	0.000507	5.070782	1.718027	0.000203
 287	2.8457e+01	11.3901	49.364077	0.000314	3.143885	1.065177	0.000126
 288	2.8556e+01	11.4286	49.505377	0.000355	3.549547	1.202619	0.000142
 289	2.8656e+01	11.4719	49.707234	0.000507	5.070782	1.718027	0.000203
 290	2.8756e+01	11.4991	49.901016	0.000487	4.867951	1.649306	0.000195
 291	2.8855e+01	11.5505	50.030205	0.000325	3.245300	1.099538	0.000130
 292	2.8954e+01	11.5890	50.203801	0.000436	4.360872	1.477504	0.000174
 293	2.9054e+01	11.6275	50.361250	0.000396	3.955210	1.340061	0.000158
 294	2.9154e+01	11.6772	50.522735	0.000406	4.056626	1.374422	0.000162
 295	2.9253e+01	11.7109	50.672109	0.000375	3.752379	1.271340	0.000150
 296	2.9352e+01	11.7494	50.829558	0.000396	3.955210	1.340061	0.000158
 297	2.9452e+01	11.7831	50.974894	0.000365	3.650963	1.236980	0.000146
 298	2.9552e+01	11.8280	51.144454	0.000426	4.259457	1.443143	0.000170
 299	2.9651e+01	11.8601	51.346311	0.000507	5.070782	1.718027	0.000203
 300	2.9750e+01	11.9050	51.451276	0.000264	2.636807	0.893374	0.000105
 301	2.9850e+01	11.9483	51.600650	0.000375	3.752379	1.271340	0.000150
 302	2.9950e+01	11.9916	51.762136	0.000406	4.056626	1.374422	0.000162
 303	3.0049e+01	12.0285	51.923621	0.000406	4.056626	1.374422	0.000162
 304	3.0148e+01	12.0686	52.072995	0.000375	3.752379	1.271340	0.000150
 305	3.0248e+01	12.1071	52.250629	0.000446	4.462288	1.511864	0.000179
 306	3.0348e+01	12.1473	52.412115	0.000406	4.056626	1.374422	0.000162
 307	3.0447e+01	12.1745	52.569563	0.000396	3.955210	1.340061	0.000158
 308	3.0547e+01	12.2243	52.702788	0.000335	3.346716	1.133898	0.000134
 309	3.0646e+01	12.2563	52.908682	0.000517	5.172198	1.752388	0.000207
 310	3.0745e+01	12.3061	53.021722	0.000284	2.839638	0.962095	0.000114
 311	3.0845e+01	12.3414	53.191282	0.000426	4.259457	1.443143	0.000170
 312	3.0945e+01	12.3895	53.340656	0.000375	3.752379	1.271340	0.000150
 313	3.1044e+01	12.4248	53.506179	0.000416	4.158041	1.408782	0.000166
 314	3.1143e+01	12.4665	53.659590	0.000385	3.853794	1.305701	0.000154
 315	3.1243e+01	12.5130	53.808964	0.000375	3.752379	1.271340	0.000150
 316	3.1343e+01	12.5467	54.006783	0.000497	4.969366	1.683667	0.000199
 317	3.1442e+01	12.5820	54.115786	0.000274	2.738222	0.927735	0.000110
 318	3.1541e+01	12.6173	54.305531	0.000477	4.766535	1.614946	0.000191
 319	3.1641e+01	12.6670	54.446831	0.000355	3.549547	1.202619	0.000142
 320	3.1741e+01	12.7071	54.596205	0.000375	3.752379	1.271340	0.000150
 321	3.1840e+01	12.7424	54.721356	0.000314	3.143885	1.065177	0.000126
 322	3.1939e+01	12.7825	54.898990	0.000446	4.462288	1.511864	0.000179
 323	3.2039e+01	12.8098	55.064513	0.000416	4.158041	1.408782	0.000166
 324	3.2139e+01	12.8595	55.213887	0.000375	3.752379	1.271340	0.000150
 325	3.2238e+01	12.8948	55.306741	0.000233	2.332560	0.790293	0.000093
 326	3.2337e+01	12.9381	55.468226	0.000406	4.056626	1.374422	0.000162
 327	3.2437e+01	12.9847	55.637786	0.000426	4.259457	1.443143	0.000170
 328	3.2536e+01	13.0200	55.811383	0.000436	4.360872	1.477504	0.000174
 329	3.2636e+01	13.0585	55.948646	0.000345	3.448132	1.168259	0.000138
 330	3.2736e+01	13.1018	56.134354	0.000467	4.665119	1.580585	0.000187
 331	3.2835e+01	13.1274	56.243357	0.000274	2.738222	0.927735	0.000110
 332	3.2934e+01	13.1724	56.404842	0.000406	4.056626	1.374422	0.000162
 333	3.3034e+01	13.2189	56.525956	0.000304	3.042469	1.030816	0.000122
 334	3.3133e+01	13.2622	56.711664	0.000467	4.665119	1.580585	0.000187
 335	3.3233e+01	13.3119	56.844890	0.000335	3.346716	1.133898	0.000134
 336	3.3333e+01	13.3328	56.986190	0.000355	3.549547	1.202619	0.000142
 337	3.3432e+01	13.3777	57.123452	0.000345	3.448132	1.168259	0.000138
 338	3.3532e+01	13.4226	57.333383	0.000527	5.273613	1.786749	0.000211
 339	3.3631e+01	13.4579	57.482757	0.000375	3.752379	1.271340	0.000150
 340	3.3730e+01	13.5012	57.611946	0.000325	3.245300	1.099538	0.000130
 341	3.3830e+01	13.5317	57.757282	0.000365	3.650963	1.236980	0.000146
 342	3.3929e+01	13.5766	57.894545	0.000345	3.448132	1.168259	0.000138
 343	3.4029e+01	13.6151	57.999511	0.000264	2.636807	0.893374	0.000105
 344	3.4129e+01	13.6552	58.156959	0.000396	3.955210	1.340061	0.000158
 345	3.4228e+01	13.7034	58.366890	0.000527	5.273613	1.786749	0.000211
 346	3.4328e+01	13.7419	58.488004	0.000304	3.042469	1.030816	0.000122
 347	3.4427e+01	13.7723	58.661601	0.000436	4.360872	1.477504	0.000174
 348	3.4526e+01	13.8237	58.782715	0.000304	3.042469	1.030816	0.000122
 349	3.4626e+01	13.8638	58.952275	0.000426	4.259457	1.443143	0.000170
 350	3.4725e+01	13.8943	59.097612	0.000365	3.650963	1.236980	0.000146
 351	3.4825e+01	13.9312	59.226800	0.000325	3.245300	1.099538	0.000130
 352	3.4925e+01	13.9857	59.368100	0.000355	3.549547	1.202619	0.000142
 353	3.5024e+01	14.0194	59.537659	0.000426	4.259457	1.443143	0.000170
 354	3.5123e+01	14.0595	59.670885	0.000335	3.346716	1.133898	0.000134
 355	3.5223e+01	14.0948	59.800073	0.000325	3.245300	1.099538	0.000130
 356	3.5322e+01	14.1333	59.925224	0.000314	3.143885	1.065177	0.000126
 357	3.5422e+01	14.1686	60.066524	0.000355	3.549547	1.202619	0.000142
 358	3.5522e+01	14.2135	60.223972	0.000396	3.955210	1.340061	0.000158
 359	3.5621e+01	14.2600	60.353161	0.000325	3.245300	1.099538	0.000130
 360	3.5721e+01	14.2921	60.518683	0.000416	4.158041	1.408782	0.000166
 361	3.5820e+01	14.3338	60.668057	0.000375	3.752379	1.271340	0.000150
 362	3.5919e+01	14.3787	60.764949	0.000243	2.433975	0.824653	0.000097
 363	3.6019e+01	14.4124	60.902211	0.000345	3.448132	1.168259	0.000138
 364	3.6118e+01	14.4573	61.071771	0.000426	4.259457	1.443143	0.000170
 365	3.6218e+01	14.4894	61.176736	0.000264	2.636807	0.893374	0.000105
 366	3.6318e+01	14.5392	61.338222	0.000406	4.056626	1.374422	0.000162
 367	3.6417e+01	14.5729	61.499707	0.000406	4.056626	1.374422	0.000162
 368	3.6517e+01	14.6162	61.608710	0.000274	2.738222	0.927735	0.000110
 369	3.6616e+01	14.6627	61.758084	0.000375	3.752379	1.271340	0.000150
 370	3.6715e+01	14.6948	61.887272	0.000325	3.245300	1.099538	0.000130
 371	3.6815e+01	14.7269	62.040683	0.000385	3.853794	1.305701	0.000154
 372	3.6914e+01	14.7718	62.121426	0.000203	2.028313	0.687211	0.000081
 373	3.7014e+01	14.8087	62.290986	0.000426	4.259457	1.443143	0.000170
 374	3.7114e+01	14.8472	62.424211	0.000335	3.346716	1.133898	0.000134
 375	3.7213e+01	14.8969	62.565511	0.000355	3.549547	1.202619	0.000142
 376	3.7313e+01	14.9306	62.718922	0.000385	3.853794	1.305701	0.000154
 377	3.7412e+01	14.9675	62.835999	0.000294	2.941054	0.996456	0.000118
 378	3.7511e+01	15.0220	62.973262	0.000345	3.448132	1.168259	0.000138
 379	3.7611e+01	15.0493	63.098413	0.000314	3.143885	1.065177	0.000126
 380	3.7711e+01	15.0926	63.276047	0.000446	4.462288	1.511864	0.000179
 381	3.7810e+01	15.1391	63.389087	0.000284	2.839638	0.962095	0.000114
 382	3.7910e+01	15.1825	63.530387	0.000355	3.549547	1.202619	0.000142
 383	3.8009e+01	15.2113	63.712058	0.000456	4.563704	1.546225	0.000183
 384	3.8108e+01	15.2530	63.825097	0.000284	2.839638	0.962095	0.000114
 385	3.8208e+01	15.2899	63.934100	0.000274	2.738222	0.927735	0.000110
 386	3.8307e+01	15.3349	64.091548	0.000396	3.955210	1.340061	0.000158
 387	3.8407e+01	15.3782	64.232848	0.000355	3.549547	1.202619	0.000142
 388	3.8507e+01	15.4038	64.349925	0.000294	2.941054	0.996456	0.000118
 389	3.8606e+01	15.4568	64.511411	0.000406	4.056626	1.374422	0.000162
 390	3.8706e+01	15.4857	64.612339	0.000254	2.535391	0.859014	0.000101
 391	3.8805e+01	15.5258	64.794010	0.000456	4.563704	1.546225	0.000183
 392	3.8904e+01	15.5739	64.907050	0.000284	2.839638	0.962095	0.000114
 393	3.9004e+01	15.6108	65.032201	0.000314	3.143885	1.065177	0.000126
 394	3.9103e+01	15.6525	65.181575	0.000375	3.752379	1.271340	0.000150
 395	3.9203e+01	15.6926	65.266355	0.000213	2.129728	0.721572	0.000085
 396	3.9303e+01	15.7327	65.423803	0.000396	3.955210	1.340061	0.000158
 397	3.9402e+01	15.7808	65.544917	0.000304	3.042469	1.030816	0.000122
 398	3.9502e+01	15.8065	65.706403	0.000406	4.056626	1.374422	0.000162
 399	3.9601e+01	15.8546	65.823480	0.000294	2.941054	0.996456	0.000118
 400	3.9700e+01	15.8947	65.972854	0.000375	3.752379	1.271340	0.000150
 401	3.9800e+01	15.9300	66.126265	0.000385	3.853794	1.305701	0.000154
 402	3.9900e+01	15.9701	66.271602	0.000365	3.650963	1.236980	0.000146
 403	3.9999e+01	16.0006	66.388679	0.000294	2.941054	0.996456	0.000118
 404	4.0099e+01	16.0407	66.517867	0.000325	3.245300	1.099538	0.000130
 405	4.0198e+01	16.0872	66.643018	0.000314	3.143885	1.065177	0.000126
 406	4.0297e+01	16.1338	66.788355	0.000365	3.650963	1.236980	0.000146
 407	4.0397e+01	16.1659	66.909469	0.000304	3.042469	1.030816	0.000122
 408	4.0496e+01	16.2156	67.070955	0.000406	4.056626	1.374422	0.000162
 409	4.0596e+01	16.2557	67.208217	0.000345	3.448132	1.168259	0.000138
 410	4.0696e+01	16.2830	67.341443	0.000335	3.346716	1.133898	0.000134
 411	4.0795e+01	16.3167	67.462557	0.000304	3.042469	1.030816	0.000122
 412	4.0895e+01	16.3680	67.611931	0.000375	3.752379	1.271340	0.000150
 413	4.0994e+01	16.4033	67.724971	0.000284	2.839638	0.962095	0.000114
 414	4.1093e+01	16.4466	67.850122	0.000314	3.143885	1.065177	0.000126
 415	4.1193e+01	16.4899	68.019681	0.000426	4.259457	1.443143	0.000170
 416	4.1292e+01	16.5172	68.148870	0.000325	3.245300	1.099538	0.000130
 417	4.1392e+01	16.5621	68.245761	0.000243	2.433975	0.824653	0.000097
 418	4.1492e+01	16.5974	68.366875	0.000304	3.042469	1.030816	0.000122
 419	4.1591e+01	16.6471	68.528361	0.000406	4.056626	1.374422	0.000162
 420	4.1691e+01	16.6824	68.693883	0.000416	4.158041	1.408782	0.000166
 421	4.1790e+01	16.7257	68.823071	0.000325	3.245300	1.099538	0.000130
 422	4.1889e+01	16.7787	68.928037	0.000264	2.636807	0.893374	0.000105
 423	4.1989e+01	16.7995	69.097597	0.000426	4.259457	1.443143	0.000170
 424	4.2089e+01	16.8428	69.210637	0.000284	2.839638	0.962095	0.000114
 425	4.2188e+01	16.8926	69.339825	0.000325	3.245300	1.099538	0.000130
 426	4.2288e+01	16.9263	69.428642	0.000223	2.231144	0.755932	0.000089
 427	4.2387e+01	16.9648	69.598202	0.000426	4.259457	1.443143	0.000170
 428	4.2486e+01	17.0001	69.739501	0.000355	3.549547	1.202619	0.000142
 429	4.2586e+01	17.0402	69.783910	0.000112	1.115572	0.377966	0.000045
 430	4.2685e+01	17.0851	69.973655	0.000477	4.766535	1.614946	0.000191
 431	4.2785e+01	17.1268	70.042286	0.000172	1.724066	0.584129	0.000069
 432	4.2885e+01	17.1637	70.236069	0.000487	4.867951	1.649306	0.000195
 433	4.2984e+01	17.1990	70.373332	0.000345	3.448132	1.168259	0.000138
 434	4.3084e+01	17.2439	70.510594	0.000345	3.448132	1.168259	0.000138
 435	4.3183e+01	17.2824	70.639783	0.000325	3.245300	1.099538	0.000130
 436	4.3282e+01	17.3161	70.748785	0.000274	2.738222	0.927735	0.000110
 437	4.3382e+01	17.3578	70.906234	0.000396	3.955210	1.340061	0.000158
 438	4.3481e+01	17.3963	71.051570	0.000365	3.650963	1.236980	0.000146
 439	4.3581e+01	17.4573	71.172684	0.000304	3.042469	1.030816	0.000122
 440	4.3681e+01	17.4910	71.277650	0.000264	2.636807	0.893374	0.000105
 441	4.3780e+01	17.5246	71.443173	0.000416	4.158041	1.408782	0.000166
 442	4.3880e+01	17.5535	71.572361	0.000325	3.245300	1.099538	0.000130
 443	4.3979e+01	17.6000	71.689438	0.000294	2.941054	0.996456	0.000118
 444	4.4078e+01	17.6466	71.826700	0.000345	3.448132	1.168259	0.000138
 445	4.4178e+01	17.6835	71.984149	0.000396	3.955210	1.340061	0.000158
 446	4.4278e+01	17.7188	72.077003	0.000233	2.332560	0.790293	0.000093
 447	4.4377e+01	17.7589	72.246563	0.000426	4.259457	1.443143	0.000170
 448	4.4477e+01	17.8038	72.343454	0.000243	2.433975	0.824653	0.000097
 449	4.4576e+01	17.8471	72.480716	0.000345	3.448132	1.168259	0.000138
 450	4.4675e+01	17.8904	72.617979	0.000345	3.448132	1.168259	0.000138
 451	4.4775e+01	17.9193	72.743130	0.000314	3.143885	1.065177	0.000126
 452	4.4874e+01	17.9690	72.868282	0.000314	3.143885	1.065177	0.000126
 453	4.4974e+01	18.0059	73.021693	0.000385	3.853794	1.305701	0.000154
 454	4.5074e+01	18.0348	73.134732	0.000284	2.839638	0.962095	0.000114
 455	4.5173e+01	18.0733	73.251809	0.000294	2.941054	0.996456	0.000118
 456	4.5273e+01	18.1278	73.364849	0.000284	2.839638	0.962095	0.000114
 457	4.5372e+01	18.1679	73.538446	0.000436	4.360872	1.477504	0.000174
 458	4.5471e+01	18.1952	73.675709	0.000345	3.448132	1.168259	0.000138
 459	4.5571e+01	18.2433	73.788748	0.000284	2.839638	0.962095	0.000114
 460	4.5670e+01	18.2786	73.917937	0.000325	3.245300	1.099538	0.000130
 461	4.5770e+01	18.3123	74.055199	0.000345	3.448132	1.168259	0.000138
 462	4.5870e+01	18.3620	74.156128	0.000254	2.535391	0.859014	0.000101
 463	4.5969e+01	18.4022	74.297428	0.000355	3.549547	1.202619	0.000142
 464	4.6069e+01	18.4423	74.378170	0.000203	2.028313	0.687211	0.000081
 465	4.6168e+01	18.4776	74.551767	0.000436	4.360872	1.477504	0.000174
 466	4.6267e+01	18.5145	74.664807	0.000284	2.839638	0.962095	0.000114
 467	4.6367e+01	18.5578	74.781884	0.000294	2.941054	0.996456	0.000118
 468	4.6467e+01	18.6027	74.911072	0.000325	3.245300	1.099538	0.000130
 469	4.6566e+01	18.6348	75.056409	0.000365	3.650963	1.236980	0.000146
 470	4.6666e+01	18.6829	75.165412	0.000274	2.738222	0.927735	0.000110
 471	4.6765e+01	18.7198	75.314786	0.000375	3.752379	1.271340	0.000150
 472	4.6864e+01	18.7599	75.415714	0.000254	2.535391	0.859014	0.000101
 473	4.6964e+01	18.7952	75.585274	0.000426	4.259457	1.443143	0.000170
 474	4.7063e+01	18.8353	75.682165	0.000243	2.433975	0.824653	0.000097
 475	4.7163e+01	18.8802	75.791168	0.000274	2.738222	0.927735	0.000110
 476	4.7263e+01	18.9203	75.960727	0.000426	4.259457	1.443143	0.000170
 477	4.7362e+01	18.9556	76.053582	0.000233	2.332560	0.790293	0.000093
 478	4.7462e+01	19.0005	76.194881	0.000355	3.549547	1.202619	0.000142
 479	4.7561e+01	19.0374	76.291773	0.000243	2.433975	0.824653	0.000097
 480	4.7660e+01	19.0856	76.449221	0.000396	3.955210	1.340061	0.000158
 481	4.7760e+01	19.1176	76.546112	0.000243	2.433975	0.824653	0.000097
 482	4.7859e+01	19.1545	76.683375	0.000345	3.448132	1.168259	0.000138
 483	4.7959e+01	19.1930	76.788340	0.000264	2.636807	0.893374	0.000105
 484	4.8059e+01	19.2412	76.917529	0.000325	3.245300	1.099538	0.000130
 485	4.8158e+01	19.2829	77.022494	0.000264	2.636807	0.893374	0.000105
 486	4.8258e+01	19.3166	77.192054	0.000426	4.259457	1.443143	0.000170
 487	4.8357e+01	19.3535	77.256648	0.000162	1.622650	0.549769	0.000065
 488	4.8456e+01	19.3968	77.442356	0.000467	4.665119	1.580585	0.000187
 489	4.8556e+01	19.4337	77.555396	0.000284	2.839638	0.962095	0.000114
 490	4.8656e+01	19.4690	77.680547	0.000314	3.143885	1.065177	0.000126
 491	4.8755e+01	19.5155	77.773401	0.000233	2.332560	0.790293	0.000093
 492	4.8855e+01	19.5540	77.890478	0.000294	2.941054	0.996456	0.000118
 493	4.8954e+01	19.5957	78.003518	0.000284	2.839638	0.962095	0.000114
 494	4.9053e+01	19.6342	78.140781	0.000345	3.448132	1.168259	0.000138
 495	4.9153e+01	19.6759	78.290155	0.000375	3.752379	1.271340	0.000150
 496	4.9252e+01	19.7192	78.383009	0.000233	2.332560	0.790293	0.000093
 497	4.9352e+01	19.7545	78.487974	0.000264	2.636807	0.893374	0.000105
 498	4.9452e+01	19.7914	78.637348	0.000375	3.752379	1.271340	0.000150
 499	4.9551e+01	19.8428	78.770574	0.000335	3.346716	1.133898	0.000134
 500	4.9651e+01	19.8764	78.887651	0.000294	2.941054	0.996456	0.000118
 501	4.9750e+01	19.9101	79.016839	0.000325	3.245300	1.099538	0.000130
 502	4.9849e+01	19.9567	79.129879	0.000284	2.839638	0.962095	0.000114
 503	4.9949e+01	19.9807	79.295402	0.000416	4.158041	1.408782	0.000166
 504	5.0048e+01	19.9567	79.339810	-0.000112	-1.115572	-0.377966	0.000045
 505	5.0148e+01	19.9085	79.408441	-0.000172	-1.724066	-0.584129	0.000069
 506	5.0248e+01	19.8732	79.436701	-0.000071	-0.709909	-0.240524	0.000028
 507	5.0347e+01	19.8347	79.456887	-0.000051	-0.507078	-0.171803	0.000020
 508	5.0447e+01	19.7930	79.448813	0.000020	0.202831	0.068721	-0.000008
 509	5.0546e+01	19.7481	79.468998	-0.000051	-0.507078	-0.171803	0.000020
 510	5.0645e+01	19.7208	79.473036	-0.000010	-0.101416	-0.034361	0.000004
 511	5.0745e+01	19.6679	79.473036	-0.000000	-0.000000	-0.000000	0.000000
 512	5.0844e+01	19.6358	79.489184	-0.000041	-0.405663	-0.137442	0.000016
 513	5.0944e+01	19.5941	79.481110	0.000020	0.202831	0.068721	-0.000008
 514	5.1044e+01	19.5444	79.485147	-0.000010	-0.101416	-0.034361	0.000004
 515	5.1143e+01	19.5155	79.485147	-0.000000	-0.000000	-0.000000	0.000000
 516	5.1242e+01	19.4690	79.489184	-0.000010	-0.101416	-0.034361	0.000004
 517	5.1342e+01	19.4353	79.481110	0.000020	0.202831	0.068721	-0.000008
 518	5.1441e+01	19.3904	79.493221	-0.000030	-0.304247	-0.103082	0.000012
 519	5.1541e+01	19.3551	79.497258	-0.000010	-0.101416	-0.034361	0.000004
 520	5.1641e+01	19.3182	79.501296	-0.000010	-0.101416	-0.034361	0.000004
 521	5.1740e+01	19.2733	79.525518	-0.000061	-0.608494	-0.206163	0.000024
 522	5.1840e+01	19.2380	79.497258	0.000071	0.709909	0.240524	-0.000028
 523	5.1939e+01	19.1930	79.485147	0.000030	0.304247	0.103082	-0.000012
 524	5.2038e+01	19.1561	79.481110	0.000010	0.101416	0.034361	-0.000004
 525	5.2138e+01	19.1160	79.468998	0.000030	0.304247	0.103082	-0.000012
 526	5.2237e+01	19.0679	79.513407	-0.000112	-1.115572	-0.377966	0.000045
 527	5.2337e+01	19.0326	79.452850	0.000152	1.521235	0.515408	-0.000061
 528	5.2437e+01	19.0037	79.468998	-0.000041	-0.405663	-0.137442	0.000016
 529	5.2536e+01	18.9556	79.452850	0.000041	0.405663	0.137442	-0.000016
 530	5.2636e+01	18.9203	79.444776	0.000020	0.202831	0.068721	-0.000008
 531	5.2735e+01	18.8770	79.440738	0.000010	0.101416	0.034361	-0.000004
 532	5.2834e+01	18.8465	79.448813	-0.000020	-0.202831	-0.068721	0.000008
 533	5.2934e+01	18.7984	79.444776	0.000010	0.101416	0.034361	-0.000004
 534	5.3033e+01	18.7519	79.420553	0.000061	0.608494	0.206163	-0.000024
 535	5.3133e+01	18.7198	79.436701	-0.000041	-0.405663	-0.137442	0.000016
 536	5.3233e+01	18.6797	79.396330	0.000101	1.014156	0.343605	-0.000041
 537	5.3332e+01	18.6412	79.432664	-0.000091	-0.912741	-0.309245	0.000037
 538	5.3431e+01	18.6027	79.420553	0.000030	0.304247	0.103082	-0.000012
 539	5.3531e+01	18.5658	79.420553	-0.000000	-0.000000	-0.000000	0.000000
 540	5.3630e+01	18.5193	79.412479	0.000020	0.202831	0.068721	-0.000008
 541	5.3730e+01	18.4711	79.368070	0.000112	1.115572	0.377966	-0.000045
 542	5.3830e+01	18.4439	79.396330	-0.000071	-0.709909	-0.240524	0.000028
 543	5.3929e+01	18.4086	79.368070	0.000071	0.709909	0.240524	-0.000028
 544	5.4029e+01	18.3588	79.319624	0.000122	1.216988	0.412327	-0.000049
 545	5.4128e+01	18.3203	79.291364	0.000071	0.709909	0.240524	-0.000028
 546	5.4227e+01	18.2802	79.347884	-0.000142	-1.419819	-0.481048	0.000057
 547	5.4327e+01	18.2385	79.323662	0.000061	0.608494	0.206163	-0.000024
 548	5.4426e+01	18.1984	79.275216	0.000122	1.216988	0.412327	-0.000049
 549	5.4526e+01	18.1599	79.263105	0.000030	0.304247	0.103082	-0.000012
 550	5.4626e+01	18.1214	79.259067	0.000010	0.101416	0.034361	-0.000004
 551	5.4725e+01	18.0829	79.230807	0.000071	0.709909	0.240524	-0.000028
 552	5.4825e+01	18.0380	79.218696	0.000030	0.304247	0.103082	-0.000012
 553	5.4924e+01	18.0027	79.174288	0.000112	1.115572	0.377966	-0.000045
 554	5.5023e+01	17.9626	79.133916	0.000101	1.014156	0.343605	-0.000041
 555	5.5123e+01	17.9129	79.057211	0.000193	1.926897	0.652850	-0.000077
 556	5.5222e+01	17.8776	79.037025	0.000051	0.507078	0.171803	-0.000020
 557	5.5322e+01	17.8471	78.976468	0.000152	1.521235	0.515408	-0.000061
 558	5.5422e+01	17.8086	78.903799	0.000183	1.825482	0.618490	-0.000073
 559	5.5521e+01	17.7589	78.839205	0.000162	1.622650	0.549769	-0.000065
 560	5.5620e+01	17.7252	78.714054	0.000314	3.143885	1.065177	-0.000126
 561	5.5720e+01	17.6835	78.661571	0.000132	1.318403	0.446687	-0.000053
 562	5.5819e+01	17.6434	78.560643	0.000254	2.535391	0.859014	-0.000101
 563	5.5919e+01	17.6000	78.492012	0.000172	1.724066	0.584129	-0.000069
 564	5.6019e+01	17.5583	78.378972	0.000284	2.839638	0.962095	-0.000114
 565	5.6118e+01	17.5198	78.302266	0.000193	1.926897	0.652850	-0.000077
 566	5.6218e+01	17.4893	78.205375	0.000243	2.433975	0.824653	-0.000097
 567	5.6317e+01	17.4396	78.084261	0.000304	3.042469	1.030816	-0.000122
 568	5.6416e+01	17.4043	77.959110	0.000314	3.143885	1.065177	-0.000126
 569	5.6516e+01	17.3706	77.854144	0.000264	2.636807	0.893374	-0.000105
 570	5.6615e+01	17.3241	77.733030	0.000304	3.042469	1.030816	-0.000122
 571	5.6715e+01	17.2792	77.640176	0.000233	2.332560	0.790293	-0.000093
 572	5.6815e+01	17.2327	77.527136	0.000284	2.839638	0.962095	-0.000114
 573	5.6914e+01	17.2054	77.422171	0.000264	2.636807	0.893374	-0.000105
 574	5.7014e+01	17.1717	77.292982	0.000325	3.245300	1.099538	-0.000130
 575	5.7113e+01	17.1268	77.188017	0.000264	2.636807	0.893374	-0.000105
 576	5.7212e+01	17.0963	77.054791	0.000335	3.346716	1.133898	-0.000134
 577	5.7312e+01	17.0386	76.957900	0.000243	2.433975	0.824653	-0.000097
 578	5.7411e+01	17.0033	76.852934	0.000264	2.636807	0.893374	-0.000105
 579	5.7511e+01	16.9616	76.776229	0.000193	1.926897	0.652850	-0.000077
 580	5.7611e+01	16.9198	76.622818	0.000385	3.853794	1.305701	-0.000154
 581	5.7710e+01	16.8926	76.538038	0.000213	2.129728	0.721572	-0.000085
 582	5.7809e+01	16.8428	76.400775	0.000345	3.448132	1.168259	-0.000138
 583	5.7909e+01	16.8059	76.279661	0.000304	3.042469	1.030816	-0.000122
 584	5.8008e+01	16.7706	76.158547	0.000304	3.042469	1.030816	-0.000122
 585	5.8108e+01	16.7289	76.029359	0.000325	3.245300	1.099538	-0.000130
 586	5.8208e+01	16.6904	75.960727	0.000172	1.724066	0.584129	-0.000069
 587	5.8307e+01	16.6471	75.799242	0.000406	4.056626	1.374422	-0.000162
 588	5.8407e+01	16.6054	75.726574	0.000183	1.825482	0.618490	-0.000073
 589	5.8506e+01	16.5701	75.657942	0.000172	1.724066	0.584129	-0.000069
 590	5.8605e+01	16.5268	75.548940	0.000274	2.738222	0.927735	-0.000110
 591	5.8705e+01	16.4835	75.435900	0.000284	2.839638	0.962095	-0.000114
 592	5.8804e+01	16.4482	75.343046	0.000233	2.332560	0.790293	-0.000093
 593	5.8904e+01	16.4177	75.217895	0.000314	3.143885	1.065177	-0.000126
 594	5.9004e+01	16.3648	75.125040	0.000233	2.332560	0.790293	-0.000093
 595	5.9103e+01	16.3263	74.959518	0.000416	4.158041	1.408782	-0.000166
 596	5.9203e+01	16.2958	74.842441	0.000294	2.941054	0.996456	-0.000118
 597	5.9302e+01	16.2461	74.761698	0.000203	2.028313	0.687211	-0.000081
 598	5.9401e+01	16.2092	74.632510	0.000325	3.245300	1.099538	-0.000130
 599	5.9501e+01	16.1594	74.531581	0.000254	2.535391	0.859014	-0.000101
 600	5.9600e+01	16.1241	74.414504	0.000294	2.941054	0.996456	-0.000118
 601	5.9700e+01	16.0905	74.353947	0.000152	1.521235	0.515408	-0.000061
 602	5.9800e+01	16.0520	74.216685	0.000345	3.448132	1.168259	-0.000138
 603	5.9899e+01	16.0070	74.119794	0.000243	2.433975	0.824653	-0.000097
 604	5.9998e+01	15.9733	74.026939	0.000233	2.332560	0.790293	-0.000093
 605	6.0098e+01	15.9268	73.921974	0.000264	2.636807	0.893374	-0.000105
 606	6.0197e+01	15.8867	73.792786	0.000325	3.245300	1.099538	-0.000130
 607	6.0297e+01	15.8466	73.699931	0.000233	2.332560	0.790293	-0.000093
 608	6.0397e+01	15.8033	73.607077	0.000233	2.332560	0.790293	-0.000093
 609	6.0496e+01	15.7744	73.494038	0.000284	2.839638	0.962095	-0.000114
 610	6.0596e+01	15.7391	73.397146	0.000243	2.433975	0.824653	-0.000097
 611	6.0695e+01	15.6910	73.316404	0.000203	2.028313	0.687211	-0.000081
 612	6.0794e+01	15.6477	73.203364	0.000284	2.839638	0.962095	-0.000114
 613	6.0894e+01	15.6140	73.086287	0.000294	2.941054	0.996456	-0.000118
 614	6.0993e+01	15.5771	73.013618	0.000183	1.825482	0.618490	-0.000073
 615	6.1093e+01	15.5354	72.868282	0.000365	3.650963	1.236980	-0.000146
 616	6.1193e+01	15.4937	72.795613	0.000183	1.825482	0.618490	-0.000073
 617	6.1292e+01	15.4616	72.626053	0.000426	4.259457	1.443143	-0.000170
 618	6.1392e+01	15.4135	72.500902	0.000314	3.143885	1.065177	-0.000126
 619	6.1491e+01	15.3734	72.379788	0.000304	3.042469	1.030816	-0.000122
 620	6.1590e+01	15.3284	72.307120	0.000183	1.825482	0.618490	-0.000073
 621	6.1690e+01	15.2867	72.177931	0.000325	3.245300	1.099538	-0.000130
 622	6.1789e+01	15.2466	72.089114	0.000223	2.231144	0.755932	-0.000089
 623	6.1889e+01	15.2033	72.008372	0.000203	2.028313	0.687211	-0.000081
 624	6.1989e+01	15.1744	71.911480	0.000243	2.433975	0.824653	-0.000097
 625	6.2088e+01	15.1295	71.834775	0.000193	1.926897	0.652850	-0.000077
 626	6.2188e+01	15.1006	71.749995	0.000213	2.129728	0.721572	-0.000085
 627	6.2287e+01	15.0477	71.649067	0.000254	2.535391	0.859014	-0.000101
 628	6.2386e+01	15.0108	71.495655	0.000385	3.853794	1.305701	-0.000154
 629	6.2486e+01	14.9723	71.414913	0.000203	2.028313	0.687211	-0.000081
 630	6.2586e+01	14.9370	71.301873	0.000284	2.839638	0.962095	-0.000114
 631	6.2685e+01	14.8969	71.213056	0.000223	2.231144	0.755932	-0.000089
 632	6.2785e+01	14.8536	71.075793	0.000345	3.448132	1.168259	-0.000138
 633	6.2884e+01	14.8167	70.958716	0.000294	2.941054	0.996456	-0.000118
 634	6.2983e+01	14.7782	70.833565	0.000314	3.143885	1.065177	-0.000126
 635	6.3083e+01	14.7477	70.716488	0.000294	2.941054	0.996456	-0.000118
 636	6.3182e+01	14.6932	70.631708	0.000213	2.129728	0.721572	-0.000085
 637	6.3282e+01	14.6482	70.462149	0.000426	4.259457	1.443143	-0.000170
 638	6.3382e+01	14.6226	70.353146	0.000274	2.738222	0.927735	-0.000110
 639	6.3481e+01	14.5712	70.240106	0.000284	2.839638	0.962095	-0.000114
 640	6.3581e+01	14.5231	70.127066	0.000284	2.839638	0.962095	-0.000114
 641	6.3680e+01	14.4910	69.993841	0.000335	3.346716	1.133898	-0.000134
 642	6.3779e+01	14.4590	69.848504	0.000365	3.650963	1.236980	-0.000146
 643	6.3879e+01	14.4204	69.715278	0.000335	3.346716	1.133898	-0.000134
 644	6.3978e+01	14.3707	69.650684	0.000162	1.622650	0.549769	-0.000065
 645	6.4078e+01	14.3418	69.501310	0.000375	3.752379	1.271340	-0.000150
 646	6.4177e+01	14.2953	69.400382	0.000254	2.535391	0.859014	-0.000101
 647	6.4277e+01	14.2536	69.287342	0.000284	2.839638	0.962095	-0.000114
 648	6.4376e+01	14.2071	69.170265	0.000294	2.941054	0.996456	-0.000118
 649	6.4476e+01	14.1766	69.037040	0.000335	3.346716	1.133898	-0.000134
 650	6.4576e+01	14.1429	68.891703	0.000365	3.650963	1.236980	-0.000146
 651	6.4675e+01	14.0980	68.770589	0.000304	3.042469	1.030816	-0.000122
 652	6.4775e+01	14.0595	68.693883	0.000193	1.926897	0.652850	-0.000077
 653	6.4874e+01	14.0162	68.580843	0.000284	2.839638	0.962095	-0.000114
 654	6.4974e+01	13.9857	68.479915	0.000254	2.535391	0.859014	-0.000101
 655	6.5073e+01	13.9376	68.318430	0.000406	4.056626	1.374422	-0.000162
 656	6.5172e+01	13.8894	68.274021	0.000112	1.115572	0.377966	-0.000045
 657	6.5272e+01	13.8558	68.148870	0.000314	3.143885	1.065177	-0.000126
 658	6.5371e+01	13.8157	67.999496	0.000375	3.752379	1.271340	-0.000150
 659	6.5471e+01	13.7772	67.866270	0.000335	3.346716	1.133898	-0.000134
 660	6.5570e+01	13.7338	67.801676	0.000162	1.622650	0.549769	-0.000065
 661	6.5670e+01	13.6969	67.692673	0.000274	2.738222	0.927735	-0.000110
 662	6.5769e+01	13.6552	67.611931	0.000203	2.028313	0.687211	-0.000081
 663	6.5869e+01	13.6167	67.470631	0.000355	3.549547	1.202619	-0.000142
 664	6.5969e+01	13.5846	67.365665	0.000264	2.636807	0.893374	-0.000105
 665	6.6068e+01	13.5349	67.268774	0.000243	2.433975	0.824653	-0.000097
 666	6.6168e+01	13.4996	67.131512	0.000345	3.448132	1.168259	-0.000138
 667	6.6267e+01	13.4627	66.990212	0.000355	3.549547	1.202619	-0.000142
 668	6.6367e+01	13.4130	66.873135	0.000294	2.941054	0.996456	-0.000118
 669	6.6466e+01	13.3777	66.756058	0.000294	2.941054	0.996456	-0.000118
 670	6.6566e+01	13.3376	66.663204	0.000233	2.332560	0.790293	-0.000093
 671	6.6665e+01	13.3071	66.489607	0.000436	4.360872	1.477504	-0.000174
 672	6.6764e+01	13.2638	66.441161	0.000122	1.216988	0.412327	-0.000049
 673	6.6864e+01	13.2093	66.287750	0.000385	3.853794	1.305701	-0.000154
 674	6.6963e+01	13.1788	66.215082	0.000183	1.825482	0.618490	-0.000073
 675	6.7063e+01	13.1419	66.089931	0.000314	3.143885	1.065177	-0.000126
 676	6.7162e+01	13.0986	65.972854	0.000294	2.941054	0.996456	-0.000118
 677	6.7262e+01	13.0665	65.807331	0.000416	4.158041	1.408782	-0.000166
 678	6.7362e+01	13.0167	65.686217	0.000304	3.042469	1.030816	-0.000122
 679	6.7461e+01	12.9766	65.557029	0.000325	3.245300	1.099538	-0.000130
 680	6.7561e+01	12.9333	65.452063	0.000264	2.636807	0.893374	-0.000105
 681	6.7660e+01	12.8980	65.326912	0.000314	3.143885	1.065177	-0.000126
 682	6.7760e+01	12.8676	65.230021	0.000243	2.433975	0.824653	-0.000097
 683	6.7859e+01	12.8242	65.068535	0.000406	4.056626	1.374422	-0.000162
 684	6.7959e+01	12.7857	65.003941	0.000162	1.622650	0.549769	-0.000065
 685	6.8058e+01	12.7440	64.830344	0.000436	4.360872	1.477504	-0.000174
 686	6.8157e+01	12.7039	64.701156	0.000325	3.245300	1.099538	-0.000130
 687	6.8257e+01	12.6558	64.567930	0.000335	3.346716	1.133898	-0.000134
 688	6.8356e+01	12.6221	64.471039	0.000243	2.433975	0.824653	-0.000097
 689	6.8456e+01	12.5820	64.362037	0.000274	2.738222	0.927735	-0.000110
 690	6.8555e+01	12.5387	64.216700	0.000365	3.650963	1.236980	-0.000146
 691	6.8655e+01	12.5018	64.075400	0.000355	3.549547	1.202619	-0.000142
 692	6.8754e+01	12.4537	63.966397	0.000274	2.738222	0.927735	-0.000110
 693	6.8854e+01	12.4296	63.845283	0.000304	3.042469	1.030816	-0.000122
 694	6.8954e+01	12.3799	63.740318	0.000264	2.636807	0.893374	-0.000105
 695	6.9053e+01	12.3462	63.558646	0.000456	4.563704	1.546225	-0.000183
 696	6.9153e+01	12.3045	63.449644	0.000274	2.738222	0.927735	-0.000110
 697	6.9252e+01	12.2660	63.300270	0.000375	3.752379	1.271340	-0.000150
 698	6.9352e+01	12.2259	63.207416	0.000233	2.332560	0.790293	-0.000093
 699	6.9451e+01	12.1825	63.078227	0.000325	3.245300	1.099538	-0.000130
 700	6.9550e+01	12.1440	62.936928	0.000355	3.549547	1.202619	-0.000142
 701	6.9650e+01	12.1087	62.827925	0.000274	2.738222	0.927735	-0.000110
 702	6.9749e+01	12.0638	62.718922	0.000274	2.738222	0.927735	-0.000110
 703	6.9849e+01	12.0317	62.545325	0.000436	4.360872	1.477504	-0.000174
 704	6.9948e+01	11.9916	62.420174	0.000314	3.143885	1.065177	-0.000126
 705	7.0048e+01	11.9403	62.319246	0.000254	2.535391	0.859014	-0.000101
 706	7.0147e+01	11.9130	62.181983	0.000345	3.448132	1.168259	-0.000138
 707	7.0247e+01	11.8681	62.052795	0.000325	3.245300	1.099538	-0.000130
 708	7.0347e+01	11.8344	61.923607	0.000325	3.245300	1.099538	-0.000130
 709	7.0446e+01	11.7815	61.806530	0.000294	2.941054	0.996456	-0.000118
 710	7.0546e+01	11.7526	61.681378	0.000314	3.143885	1.065177	-0.000126
 711	7.0645e+01	11.7077	61.519893	0.000406	4.056626	1.374422	-0.000162
 712	7.0745e+01	11.6676	61.366482	0.000385	3.853794	1.305701	-0.000154
 713	7.0844e+01	11.6307	61.249405	0.000294	2.941054	0.996456	-0.000118
 714	7.0944e+01	11.5954	61.112142	0.000345	3.448132	1.168259	-0.000138
 715	7.1043e+01	11.5553	60.966805	0.000365	3.650963	1.236980	-0.000146
 716	7.1142e+01	11.5104	60.805320	0.000406	4.056626	1.374422	-0.000162
 717	7.1242e+01	11.4703	60.668057	0.000345	3.448132	1.168259	-0.000138
 718	7.1341e+01	11.4366	60.546943	0.000304	3.042469	1.030816	-0.000122
 719	7.1441e+01	11.3933	60.409681	0.000345	3.448132	1.168259	-0.000138
 720	7.1540e+01	11.3435	60.276455	0.000335	3.346716	1.133898	-0.000134
 721	7.1640e+01	11.3082	60.131118	0.000365	3.650963	1.236980	-0.000146
 722	7.1740e+01	11.2681	59.989818	0.000355	3.549547	1.202619	-0.000142
 723	7.1839e+01	11.2248	59.852556	0.000345	3.448132	1.168259	-0.000138
 724	7.1939e+01	11.1863	59.775850	0.000193	1.926897	0.652850	-0.000077
 725	7.2038e+01	11.1510	59.626476	0.000375	3.752379	1.271340	-0.000150
 726	7.2138e+01	11.1093	59.549771	0.000193	1.926897	0.652850	-0.000077
 727	7.2237e+01	11.0644	59.404434	0.000365	3.650963	1.236980	-0.000146
 728	7.2337e+01	11.0323	59.271208	0.000335	3.346716	1.133898	-0.000134
 729	7.2436e+01	10.9874	59.154131	0.000294	2.941054	0.996456	-0.000118
 730	7.2535e+01	10.9441	59.037054	0.000294	2.941054	0.996456	-0.000118
 731	7.2635e+01	10.9008	58.895755	0.000355	3.549547	1.202619	-0.000142
 732	7.2734e+01	10.8639	58.790789	0.000264	2.636807	0.893374	-0.000105
 733	7.2834e+01	10.8286	58.629304	0.000406	4.056626	1.374422	-0.000162
 734	7.2933e+01	10.7949	58.524338	0.000264	2.636807	0.893374	-0.000105
 735	7.3033e+01	10.7500	58.399187	0.000314	3.143885	1.065177	-0.000126
 736	7.3132e+01	10.7275	58.229627	0.000426	4.259457	1.443143	-0.000170
 737	7.3232e+01	10.6762	58.108513	0.000304	3.042469	1.030816	-0.000122
 738	7.3332e+01	10.6296	58.027771	0.000203	2.028313	0.687211	-0.000081
 739	7.3431e+01	10.5895	57.854174	0.000436	4.360872	1.477504	-0.000174
 740	7.3531e+01	10.5510	57.765357	0.000223	2.231144	0.755932	-0.000089
 741	7.3630e+01	10.5174	57.615983	0.000375	3.752379	1.271340	-0.000150
 742	7.3730e+01	10.4676	57.466609	0.000375	3.752379	1.271340	-0.000150
 743	7.3829e+01	10.4323	57.325309	0.000355	3.549547	1.202619	-0.000142
 744	7.3928e+01	10.3970	57.216306	0.000274	2.738222	0.927735	-0.000110
 745	7.4028e+01	10.3505	57.066932	0.000375	3.752379	1.271340	-0.000150
 746	7.4127e+01	10.3072	56.957930	0.000274	2.738222	0.927735	-0.000110
 747	7.4227e+01	10.2671	56.844890	0.000284	2.839638	0.962095	-0.000114
 748	7.4326e+01	10.2318	56.723776	0.000304	3.042469	1.030816	-0.000122
 749	7.4426e+01	10.1949	56.578439	0.000365	3.650963	1.236980	-0.000146
 750	7.4525e+01	10.1516	56.445213	0.000335	3.346716	1.133898	-0.000134
 751	7.4625e+01	10.1147	56.263542	0.000456	4.563704	1.546225	-0.000183
 752	7.4725e+01	10.0762	56.106094	0.000396	3.955210	1.340061	-0.000158
 753	7.4824e+01	10.0313	55.976906	0.000325	3.245300	1.099538	-0.000130
 754	7.4924e+01	9.9896	55.884051	0.000233	2.332560	0.790293	-0.000093
 755	7.5023e+01	9.9495	55.730640	0.000385	3.853794	1.305701	-0.000154
 756	7.5123e+01	9.9126	55.617600	0.000284	2.839638	0.962095	-0.000114
 757	7.5222e+01	9.8724	55.444004	0.000436	4.360872	1.477504	-0.000174
 758	7.5322e+01	9.8323	55.286555	0.000396	3.955210	1.340061	-0.000158
 759	7.5421e+01	9.7890	55.084699	0.000507	5.070782	1.718027	-0.000203
 760	7.5520e+01	9.7569	54.971659	0.000284	2.839638	0.962095	-0.000114
 761	7.5620e+01	9.7152	54.814210	0.000396	3.955210	1.340061	-0.000158
 762	7.5719e+01	9.6767	54.644651	0.000426	4.259457	1.443143	-0.000170
 763	7.5819e+01	9.6414	54.523537	0.000304	3.042469	1.030816	-0.000122
 764	7.5918e+01	9.5965	54.362051	0.000406	4.056626	1.374422	-0.000162
 765	7.6018e+01	9.5532	54.240937	0.000304	3.042469	1.030816	-0.000122
 766	7.6118e+01	9.5115	54.111749	0.000325	3.245300	1.099538	-0.000130
 767	7.6217e+01	9.4746	53.946226	0.000416	4.158041	1.408782	-0.000166
 768	7.6317e+01	9.4377	53.829149	0.000294	2.941054	0.996456	-0.000118
 769	7.6416e+01	9.3928	53.659590	0.000426	4.259457	1.443143	-0.000170
 770	7.6516e+01	9.3559	53.550587	0.000274	2.738222	0.927735	-0.000110
 771	7.6615e+01	9.3094	53.381027	0.000426	4.259457	1.443143	-0.000170
 772	7.6715e+01	9.2709	53.276062	0.000264	2.636807	0.893374	-0.000105
 773	7.6814e+01	9.2372	53.146873	0.000325	3.245300	1.099538	-0.000130
 774	7.6913e+01	9.1971	52.985388	0.000406	4.056626	1.374422	-0.000162
 775	7.7013e+01	9.1618	52.819865	0.000416	4.158041	1.408782	-0.000166
 776	7.7112e+01	9.1153	52.686640	0.000335	3.346716	1.133898	-0.000134
 777	7.7212e+01	9.0751	52.577637	0.000274	2.738222	0.927735	-0.000110
 778	7.7311e+01	9.0399	52.404040	0.000436	4.360872	1.477504	-0.000174
 779	7.7411e+01	8.9949	52.295038	0.000274	2.738222	0.927735	-0.000110
 780	7.7510e+01	8.9548	52.157775	0.000345	3.448132	1.168259	-0.000138
 781	7.7610e+01	8.9131	52.020513	0.000345	3.448132	1.168259	-0.000138
 782	7.7710e+01	8.8714	51.822693	0.000497	4.969366	1.683667	-0.000199
 783	7.7809e+01	8.8361	51.733876	0.000223	2.231144	0.755932	-0.000089
 784	7.7909e+01	8.7976	51.556242	0.000446	4.462288	1.511864	-0.000179
 785	7.8008e+01	8.7559	51.427054	0.000325	3.245300	1.099538	-0.000130
 786	7.8108e+01	8.7206	51.289791	0.000345	3.448132	1.168259	-0.000138
 787	7.8207e+01	8.6853	51.156566	0.000335	3.346716	1.133898	-0.000134
 788	7.8306e+01	8.6436	50.982969	0.000436	4.360872	1.477504	-0.000174
 789	7.8406e+01	8.6035	50.886077	0.000243	2.433975	0.824653	-0.000097
 790	7.8505e+01	8.5457	50.712481	0.000436	4.360872	1.477504	-0.000174
 791	7.8605e+01	8.5185	50.603478	0.000274	2.738222	0.927735	-0.000110
 792	7.8704e+01	8.4784	50.470252	0.000335	3.346716	1.133898	-0.000134
 793	7.8804e+01	8.4383	50.324916	0.000365	3.650963	1.236980	-0.000146
 794	7.8903e+01	8.3998	50.179579	0.000365	3.650963	1.236980	-0.000146
 795	7.9003e+01	8.3516	50.074613	0.000264	2.636807	0.893374	-0.000105
 796	7.9103e+01	8.3212	49.953499	0.000304	3.042469	1.030816	-0.000122
 797	7.9202e+01	8.2891	49.783939	0.000426	4.259457	1.443143	-0.000170
 798	7.9302e+01	8.2329	49.687048	0.000243	2.433975	0.824653	-0.000097
 799	7.9401e+01	8.1912	49.509414	0.000446	4.462288	1.511864	-0.000179
 800	7.9501e+01	8.1591	49.376189	0.000335	3.346716	1.133898	-0.000134
 801	7.9600e+01	8.1286	49.226815	0.000375	3.752379	1.271340	-0.000150
 802	7.9700e+01	8.0837	49.101663	0.000314	3.143885	1.065177	-0.000126
 803	7.9799e+01	8.0324	48.952289	0.000375	3.752379	1.271340	-0.000150
 804	7.9898e+01	8.0019	48.778693	0.000436	4.360872	1.477504	-0.000174
 805	7.9998e+01	7.9618	48.710061	0.000172	1.724066	0.584129	-0.000069
 806	8.0097e+01	7.9185	48.536464	0.000436	4.360872	1.477504	-0.000174
 807	8.0197e+01	7.8688	48.346719	0.000477	4.766535	1.614946	-0.000191
 808	8.0296e+01	7.8399	48.270013	0.000193	1.926897	0.652850	-0.000077
 809	8.0396e+01	7.8030	48.096417	0.000436	4.360872	1.477504	-0.000174
 810	8.0496e+01	7.7677	47.959154	0.000345	3.448132	1.168259	-0.000138
 811	8.0595e+01	7.7164	47.793631	0.000416	4.158041	1.408782	-0.000166
 812	8.0695e+01	7.6779	47.664443	0.000325	3.245300	1.099538	-0.000130
 813	8.0794e+01	7.6458	47.511032	0.000385	3.853794	1.305701	-0.000154
 814	8.0894e+01	7.6057	47.369732	0.000355	3.549547	1.202619	-0.000142
 815	8.0993e+01	7.5688	47.204210	0.000416	4.158041	1.408782	-0.000166
 816	8.1093e+01	7.5271	47.066947	0.000345	3.448132	1.168259	-0.000138
 817	8.1192e+01	7.4821	46.921610	0.000365	3.650963	1.236980	-0.000146
 818	8.1291e+01	7.4501	46.764162	0.000396	3.955210	1.340061	-0.000158
 819	8.1391e+01	7.4003	46.691493	0.000183	1.825482	0.618490	-0.000073
 820	8.1490e+01	7.3650	46.493674	0.000497	4.969366	1.683667	-0.000199
 821	8.1590e+01	7.3281	46.356411	0.000345	3.448132	1.168259	-0.000138
 822	8.1689e+01	7.2832	46.186851	0.000426	4.259457	1.443143	-0.000170
 823	8.1789e+01	7.2383	46.077849	0.000274	2.738222	0.927735	-0.000110
 824	8.1888e+01	7.2046	45.908289	0.000426	4.259457	1.443143	-0.000170
 825	8.1988e+01	7.1565	45.787175	0.000304	3.042469	1.030816	-0.000122
 826	8.2088e+01	7.1212	45.629727	0.000396	3.955210	1.340061	-0.000158
 827	8.2187e+01	7.0843	45.476316	0.000385	3.853794	1.305701	-0.000154
 828	8.2287e+01	7.0458	45.347127	0.000325	3.245300	1.099538	-0.000130
 829	8.2386e+01	6.9912	45.177567	0.000426	4.259457	1.443143	-0.000170
 830	8.2486e+01	6.9672	45.036268	0.000355	3.549547	1.202619	-0.000142
 831	8.2585e+01	6.9126	44.915154	0.000304	3.042469	1.030816	-0.000122
 832	8.2684e+01	6.8822	44.737520	0.000446	4.462288	1.511864	-0.000179
 833	8.2784e+01	6.8356	44.608331	0.000325	3.245300	1.099538	-0.000130
 834	8.2883e+01	6.8132	44.422623	0.000467	4.665119	1.580585	-0.000187
 835	8.2983e+01	6.7634	44.281323	0.000355	3.549547	1.202619	-0.000142
 836	8.3082e+01	6.7201	44.119838	0.000406	4.056626	1.374422	-0.000162
 837	8.3182e+01	6.6720	43.990650	0.000325	3.245300	1.099538	-0.000130
 838	8.3281e+01	6.6431	43.780719	0.000527	5.273613	1.786749	-0.000211
 839	8.3381e+01	6.6110	43.607122	0.000436	4.360872	1.477504	-0.000174
 840	8.3481e+01	6.5709	43.477933	0.000325	3.245300	1.099538	-0.000130
 841	8.3580e+01	6.5260	43.296262	0.000456	4.563704	1.546225	-0.000183
 842	8.3680e+01	6.4779	43.126703	0.000426	4.259457	1.443143	-0.000170
 843	8.3779e+01	6.4394	43.001551	0.000314	3.143885	1.065177	-0.000126
 844	8.3879e+01	6.4057	42.827954	0.000436	4.360872	1.477504	-0.000174
 845	8.3978e+01	6.3688	42.666469	0.000406	4.056626	1.374422	-0.000162
 846	8.4078e+01	6.3319	42.521132	0.000365	3.650963	1.236980	-0.000146
 847	8.4177e+01	6.2918	42.363684	0.000396	3.955210	1.340061	-0.000158
 848	8.4276e+01	6.2469	42.202198	0.000406	4.056626	1.374422	-0.000162
 849	8.4376e+01	6.2036	42.044750	0.000396	3.955210	1.340061	-0.000158
 850	8.4475e+01	6.1715	41.911525	0.000335	3.346716	1.133898	-0.000134
 851	8.4575e+01	6.1298	41.717742	0.000487	4.867951	1.649306	-0.000195
 852	8.4674e+01	6.0929	41.580480	0.000345	3.448132	1.168259	-0.000138
 853	8.4774e+01	6.0560	41.431106	0.000375	3.752379	1.271340	-0.000150
 854	8.4874e+01	6.0127	41.265583	0.000416	4.158041	1.408782	-0.000166
 855	8.4973e+01	5.9694	41.132357	0.000335	3.346716	1.133898	-0.000134
 856	8.5073e+01	5.9276	40.934538	0.000497	4.969366	1.683667	-0.000199
 857	8.5172e+01	5.8956	40.805349	0.000325	3.245300	1.099538	-0.000130
 858	8.5272e+01	5.8474	40.639827	0.000416	4.158041	1.408782	-0.000166
 859	8.5371e+01	5.8105	40.466230	0.000436	4.360872	1.477504	-0.000174
 860	8.5471e+01	5.7656	40.292633	0.000436	4.360872	1.477504	-0.000174
 861	8.5570e+01	5.7383	40.175556	0.000294	2.941054	0.996456	-0.000118
 862	8.5669e+01	5.6902	39.981774	0.000487	4.867951	1.649306	-0.000195
 863	8.5769e+01	5.6517	39.800103	0.000456	4.563704	1.546225	-0.000183
 864	8.5868e+01	5.6148	39.650729	0.000375	3.752379	1.271340	-0.000150
 865	8.5968e+01	5.5763	39.485206	0.000416	4.158041	1.408782	-0.000166
 866	8.6067e+01	5.5314	39.315646	0.000426	4.259457	1.443143	-0.000170
 867	8.6167e+01	5.4785	39.178384	0.000345	3.448132	1.168259	-0.000138
 868	8.6266e+01	5.4512	39.033047	0.000365	3.650963	1.236980	-0.000146
 869	8.6366e+01	5.4063	38.839264	0.000487	4.867951	1.649306	-0.000195
 870	8.6466e+01	5.3758	38.669705	0.000426	4.259457	1.443143	-0.000170
 871	8.6565e+01	5.3325	38.504182	0.000416	4.158041	1.408782	-0.000166
 872	8.6665e+01	5.2892	38.358845	0.000365	3.650963	1.236980	-0.000146
 873	8.6764e+01	5.2571	38.177174	0.000456	4.563704	1.546225	-0.000183
 874	8.6864e+01	5.2089	38.031837	0.000365	3.650963	1.236980	-0.000146
 875	8.6963e+01	5.1785	37.846129	0.000467	4.665119	1.580585	-0.000187
 876	8.7063e+01	5.1335	37.660421	0.000467	4.665119	1.580585	-0.000187
 877	8.7162e+01	5.0918	37.519121	0.000355	3.549547	1.202619	-0.000142
 878	8.7261e+01	5.0581	37.341487	0.000446	4.462288	1.511864	-0.000179
 879	8.7361e+01	5.0116	37.167890	0.000436	4.360872	1.477504	-0.000174
 880	8.7460e+01	4.9683	37.042739	0.000314	3.143885	1.065177	-0.000126
 881	8.7560e+01	4.9282	36.881254	0.000406	4.056626	1.374422	-0.000162
 882	8.7659e+01	4.8961	36.715731	0.000416	4.158041	1.408782	-0.000166
 883	8.7759e+01	4.8544	36.542134	0.000436	4.360872	1.477504	-0.000174
 884	8.7859e+01	4.8191	36.360463	0.000456	4.563704	1.546225	-0.000183
 885	8.7958e+01	4.7758	36.186866	0.000436	4.360872	1.477504	-0.000174
 886	8.8058e+01	4.7389	35.993084	0.000487	4.867951	1.649306	-0.000195
 887	8.8157e+01	4.6924	35.815450	0.000446	4.462288	1.511864	-0.000179
 888	8.8257e+01	4.6523	35.629741	0.000467	4.665119	1.580585	-0.000187
 889	8.8356e+01	4.6202	35.468256	0.000406	4.056626	1.374422	-0.000162
 890	8.8456e+01	4.5656	35.270436	0.000497	4.969366	1.683667	-0.000199
 891	8.8555e+01	4.5304	35.112988	0.000396	3.955210	1.340061	-0.000158
 892	8.8654e+01	4.4951	34.939391	0.000436	4.360872	1.477504	-0.000174
 893	8.8754e+01	4.4630	34.745609	0.000487	4.867951	1.649306	-0.000195
 894	8.8853e+01	4.4084	34.572012	0.000436	4.360872	1.477504	-0.000174
 895	8.8953e+01	4.3796	34.386304	0.000467	4.665119	1.580585	-0.000187
 896	8.9052e+01	4.3394	34.172335	0.000538	5.375029	1.821109	-0.000215
 897	8.9152e+01	4.2929	34.010850	0.000406	4.056626	1.374422	-0.000162
 898	8.9251e+01	4.2528	33.873587	0.000345	3.448132	1.168259	-0.000138
 899	8.9351e+01	4.2239	33.647508	0.000568	5.679276	1.924191	-0.000227
 900	8.9451e+01	4.1694	33.514282	0.000335	3.346716	1.133898	-0.000134
 901	8.9550e+01	4.1357	33.231683	0.000710	7.099095	2.405238	-0.000284
 902	8.9650e+01	4.0908	33.082309	0.000375	3.752379	1.271340	-0.000150
 903	8.9749e+01	4.0539	32.860266	0.000558	5.577860	1.889830	-0.000223
 904	8.9849e+01	4.0202	32.686670	0.000436	4.360872	1.477504	-0.000174
 905	8.9948e+01	3.9817	32.513073	0.000436	4.360872	1.477504	-0.000174
 906	9.0047e+01	3.9288	32.339476	0.000436	4.360872	1.477504	-0.000174
 907	9.0147e+01	3.8822	32.165879	0.000436	4.360872	1.477504	-0.000174
 908	9.0246e+01	3.8614	32.016505	0.000375	3.752379	1.271340	-0.000150
 909	9.0346e+01	3.8181	31.826760	0.000477	4.766535	1.614946	-0.000191
 910	9.0445e+01	3.7764	31.637014	0.000477	4.766535	1.614946	-0.000191
 911	9.0545e+01	3.7379	31.471492	0.000416	4.158041	1.408782	-0.000166
 912	9.0644e+01	3.6994	31.297895	0.000436	4.360872	1.477504	-0.000174
 913	9.0744e+01	3.6593	31.152558	0.000365	3.650963	1.236980	-0.000146
 914	9.0844e+01	3.6191	30.938590	0.000538	5.375029	1.821109	-0.000215
 915	9.0943e+01	3.5758	30.797290	0.000355	3.549547	1.202619	-0.000142
 916	9.1043e+01	3.5341	30.635805	0.000406	4.056626	1.374422	-0.000162
 917	9.1142e+01	3.5052	30.458171	0.000446	4.462288	1.511864	-0.000179
 918	9.1242e+01	3.4603	30.268425	0.000477	4.766535	1.614946	-0.000191
 919	9.1341e+01	3.4186	30.098865	0.000426	4.259457	1.443143	-0.000170
 920	9.1441e+01	3.3769	29.945454	0.000385	3.853794	1.305701	-0.000154
 921	9.1540e+01	3.3416	29.755709	0.000477	4.766535	1.614946	-0.000191
 922	9.1639e+01	3.2919	29.574038	0.000456	4.563704	1.546225	-0.000183
 923	9.1739e+01	3.2534	29.424664	0.000375	3.752379	1.271340	-0.000150
 924	9.1838e+01	3.2149	29.198584	0.000568	5.679276	1.924191	-0.000227
 925	9.1938e+01	3.1828	29.045173	0.000385	3.853794	1.305701	-0.000154
 926	9.2037e+01	3.1411	28.903873	0.000355	3.549547	1.202619	-0.000142
 927	9.2137e+01	3.0930	28.702017	0.000507	5.070782	1.718027	-0.000203
 928	9.2237e+01	3.0545	28.504197	0.000497	4.969366	1.683667	-0.000199
 929	9.2336e+01	3.0240	28.306377	0.000497	4.969366	1.683667	-0.000199
 930	9.2436e+01	2.9823	28.157003	0.000375	3.752379	1.271340	-0.000150
 931	9.2535e+01	2.9566	27.947072	0.000527	5.273613	1.786749	-0.000211
 932	9.2635e+01	2.9101	27.781550	0.000416	4.158041	1.408782	-0.000166
 933	9.2734e+01	2.8571	27.595841	0.000467	4.665119	1.580585	-0.000187
 934	9.2834e+01	2.8283	27.422245	0.000436	4.360872	1.477504	-0.000174
 935	9.2933e+01	2.7882	27.228462	0.000487	4.867951	1.649306	-0.000195
 936	9.3032e+01	2.7352	27.002382	0.000568	5.679276	1.924191	-0.000227
 937	9.3132e+01	2.7047	26.832823	0.000426	4.259457	1.443143	-0.000170
 938	9.3231e+01	2.6566	26.667300	0.000416	4.158041	1.408782	-0.000166
 939	9.3331e+01	2.6165	26.461406	0.000517	5.172198	1.752388	-0.000207
 940	9.3430e+01	2.5796	26.324144	0.000345	3.448132	1.168259	-0.000138
 941	9.3530e+01	2.5443	26.126324	0.000497	4.969366	1.683667	-0.000199
 942	9.3629e+01	2.5170	25.908319	0.000548	5.476445	1.855470	-0.000219
 943	9.3729e+01	2.4737	25.762982	0.000365	3.650963	1.236980	-0.000146
 944	9.3829e+01	2.4176	25.569199	0.000487	4.867951	1.649306	-0.000195
 945	9.3928e+01	2.3807	25.375417	0.000487	4.867951	1.649306	-0.000195
 946	9.4028e+01	2.3406	25.238154	0.000345	3.448132	1.168259	-0.000138
 947	9.4127e+01	2.3037	25.032260	0.000517	5.172198	1.752388	-0.000207
 948	9.4227e+01	2.2604	24.854626	0.000446	4.462288	1.511864	-0.000179
 949	9.4326e+01	2.2251	24.697178	0.000396	3.955210	1.340061	-0.000158
 950	9.4425e+01	2.1834	24.471098	0.000568	5.679276	1.924191	-0.000227
 951	9.4525e+01	2.1400	24.305576	0.000416	4.158041	1.408782	-0.000166
 952	9.4624e+01	2.1048	24.111793	0.000487	4.867951	1.649306	-0.000195
 953	9.4724e+01	2.0695	23.946271	0.000416	4.158041	1.408782	-0.000166
 954	9.4823e+01	2.0101	23.752488	0.000487	4.867951	1.649306	-0.000195
 955	9.4923e+01	1.9844	23.574854	0.000446	4.462288	1.511864	-0.000179
 956	9.5022e+01	1.9459	23.385109	0.000477	4.766535	1.614946	-0.000191
 957	9.5122e+01	1.9122	23.183252	0.000507	5.070782	1.718027	-0.000203
 958	9.5222e+01	1.8657	22.957172	0.000568	5.679276	1.924191	-0.000227
 959	9.5321e+01	1.8192	22.811835	0.000365	3.650963	1.236980	-0.000146
 960	9.5421e+01	1.7759	22.593830	0.000548	5.476445	1.855470	-0.000219
 961	9.5520e+01	1.7390	22.408122	0.000467	4.665119	1.580585	-0.000187
 962	9.5620e+01	1.7021	22.190117	0.000548	5.476445	1.855470	-0.000219
 963	9.5719e+01	1.6556	22.008445	0.000456	4.563704	1.546225	-0.000183
 964	9.5819e+01	1.6251	21.810626	0.000497	4.969366	1.683667	-0.000199
 965	9.5918e+01	1.5802	21.665289	0.000365	3.650963	1.236980	-0.000146
 966	9.6017e+01	1.5481	21.394801	0.000679	6.794848	2.302157	-0.000272
 967	9.6117e+01	1.5064	21.237353	0.000396	3.955210	1.340061	-0.000158
 968	9.6216e+01	1.4647	21.047607	0.000477	4.766535	1.614946	-0.000191
 969	9.6316e+01	1.4165	20.869973	0.000446	4.462288	1.511864	-0.000179
 970	9.6415e+01	1.3861	20.651968	0.000548	5.476445	1.855470	-0.000219
 971	9.6515e+01	1.3411	20.470297	0.000456	4.563704	1.546225	-0.000183
 972	9.6615e+01	1.2994	20.308811	0.000406	4.056626	1.374422	-0.000162
 973	9.6714e+01	1.2706	20.082732	0.000568	5.679276	1.924191	-0.000227
 974	9.6814e+01	1.2256	19.917209	0.000416	4.158041	1.408782	-0.000166
 975	9.6913e+01	1.1984	19.743612	0.000436	4.360872	1.477504	-0.000174
 976	9.7013e+01	1.1390	19.509458	0.000588	5.882107	1.992912	-0.000235
 977	9.7112e+01	1.1053	19.360084	0.000375	3.752379	1.271340	-0.000150
 978	9.7212e+01	1.0620	19.150153	0.000527	5.273613	1.786749	-0.000211
 979	9.7311e+01	1.0315	18.988668	0.000406	4.056626	1.374422	-0.000162
 980	9.7410e+01	0.9930	18.766625	0.000558	5.577860	1.889830	-0.000223
 981	9.7510e+01	0.9481	18.580917	0.000467	4.665119	1.580585	-0.000187
 982	9.7609e+01	0.8984	18.366949	0.000538	5.375029	1.821109	-0.000215
 983	9.7709e+01	0.8663	18.161055	0.000517	5.172198	1.752388	-0.000207
 984	9.7808e+01	0.8406	18.043978	0.000294	2.941054	0.996456	-0.000118
 985	9.7908e+01	0.7925	17.842121	0.000507	5.070782	1.718027	-0.000203
 986	9.8007e+01	0.7428	17.628153	0.000538	5.375029	1.821109	-0.000215
 987	9.8107e+01	0.7123	17.426296	0.000507	5.070782	1.718027	-0.000203
 988	9.8207e+01	0.6706	17.284997	0.000355	3.549547	1.202619	-0.000142
 989	9.8306e+01	0.6208	17.091214	0.000487	4.867951	1.649306	-0.000195
 990	9.8406e+01	0.5855	16.857060	0.000588	5.882107	1.992912	-0.000235
 991	9.8505e+01	0.5567	16.727872	0.000325	3.245300	1.099538	-0.000130
 992	9.8605e+01	0.5069	16.465458	0.000659	6.592017	2.233436	-0.000264
 993	9.8704e+01	0.4684	16.324158	0.000355	3.549547	1.202619	-0.000142
 994	9.8803e+01	0.4396	16.114227	0.000527	5.273613	1.786749	-0.000211
 995	9.8903e+01	0.3770	15.904296	0.000527	5.273613	1.786749	-0.000211
 996	9.9002e+01	0.3481	15.730699	0.000436	4.360872	1.477504	-0.000174
 997	9.9102e+01	0.3064	15.553065	0.000446	4.462288	1.511864	-0.000179
 998	9.9201e+01	0.2695	15.383506	0.000426	4.259457	1.443143	-0.000170
 999	9.9301e+01	0.2342	15.197797	0.000467	4.665119	1.580585	-0.000187
1000	9.9400e+01	0.1909	14.999978	0.000497	4.969366	1.683667	-0.000199
1001	9.9500e+01	0.1428	14.761787	0.000598	5.983523	2.027272	-0.000239
1002	9.9600e+01	0.1107	14.584153	0.000446	4.462288	1.511864	-0.000179
1003	9.9699e+01	0.0754	14.349999	0.000588	5.882107	1.992912	-0.000235
1004	9.9799e+01	0.0273	14.160254	0.000477	4.766535	1.614946	-0.000191
1005	9.9898e+01	0.0000	13.922063	0.000598	5.983523	2.027272	-0.000239
1006	9.9998e+01	-0.0481	13.728280	0.000487	4.867951	1.649306	-0.000195
1007	1.0010e+02	-0.0802	13.542572	0.000467	4.665119	1.580585	-0.000187
1008	1.0020e+02	-0.1235	13.304381	0.000598	5.983523	2.027272	-0.000239
1009	1.0030e+02	-0.1684	13.122710	0.000456	4.563704	1.546225	-0.000183
1010	1.0040e+02	-0.1989	12.908742	0.000538	5.375029	1.821109	-0.000215
1011	1.0050e+02	-0.2374	12.702848	0.000517	5.172198	1.752388	-0.000207
1012	1.0059e+02	-0.2711	12.533288	0.000426	4.259457	1.443143	-0.000170
1013	1.0069e+02	-0.3289	12.274911	0.000649	6.490601	2.199075	-0.000260
1014	1.0079e+02	-0.3577	12.052869	0.000558	5.577860	1.889830	-0.000223
1015	1.0089e+02	-0.4043	11.875235	0.000446	4.462288	1.511864	-0.000179
1016	1.0099e+02	-0.4396	11.645118	0.000578	5.780691	1.958551	-0.000231
1017	1.0109e+02	-0.4845	11.455373	0.000477	4.766535	1.614946	-0.000191
1018	1.0119e+02	-0.5294	11.229293	0.000568	5.679276	1.924191	-0.000227
1019	1.0129e+02	-0.5615	11.043585	0.000467	4.665119	1.580585	-0.000187
1020	1.0139e+02	-0.5984	10.849802	0.000487	4.867951	1.649306	-0.000195
1021	1.0149e+02	-0.6353	10.591426	0.000649	6.490601	2.199075	-0.000260
1022	1.0159e+02	-0.6818	10.429940	0.000406	4.056626	1.374422	-0.000162
1023	1.0169e+02	-0.7251	10.203861	0.000568	5.679276	1.924191	-0.000227
1024	1.0179e+02	-0.7668	9.993930	0.000527	5.273613	1.786749	-0.000211
1025	1.0189e+02	-0.7925	9.755739	0.000598	5.983523	2.027272	-0.000239
1026	1.0199e+02	-0.8390	9.598290	0.000396	3.955210	1.340061	-0.000158
1027	1.0209e+02	-0.8743	9.360099	0.000598	5.983523	2.027272	-0.000239
1028	1.0219e+02	-0.9224	9.129982	0.000578	5.780691	1.958551	-0.000231
1029	1.0229e+02	-0.9577	8.924089	0.000517	5.172198	1.752388	-0.000207
1030	1.0239e+02	-0.9978	8.734343	0.000477	4.766535	1.614946	-0.000191
1031	1.0248e+02	-1.0476	8.516338	0.000548	5.476445	1.855470	-0.000219
1032	1.0258e+02	-1.0716	8.354852	0.000406	4.056626	1.374422	-0.000162
1033	1.0268e+02	-1.1246	8.144921	0.000527	5.273613	1.786749	-0.000211
1034	1.0278e+02	-1.1550	7.918842	0.000568	5.679276	1.924191	-0.000227
1035	1.0288e+02	-1.1952	7.737171	0.000456	4.563704	1.546225	-0.000183
1036	1.0298e+02	-1.2337	7.478794	0.000649	6.490601	2.199075	-0.000260
1037	1.0308e+02	-1.2738	7.313271	0.000416	4.158041	1.408782	-0.000166
1038	1.0318e+02	-1.3235	7.139675	0.000436	4.360872	1.477504	-0.000174
1039	1.0328e+02	-1.3508	6.901484	0.000598	5.983523	2.027272	-0.000239
1040	1.0338e+02	-1.4005	6.683478	0.000548	5.476445	1.855470	-0.000219
1041	1.0348e+02	-1.4294	6.509881	0.000436	4.360872	1.477504	-0.000174
1042	1.0358e+02	-1.4839	6.283802	0.000568	5.679276	1.924191	-0.000227
1043	1.0368e+02	-1.5112	6.073871	0.000527	5.273613	1.786749	-0.000211
1044	1.0378e+02	-1.5625	5.908348	0.000416	4.158041	1.408782	-0.000166
1045	1.0388e+02	-1.5978	5.658046	0.000629	6.287770	2.130354	-0.000252
1046	1.0398e+02	-1.6315	5.452152	0.000517	5.172198	1.752388	-0.000207
1047	1.0408e+02	-1.6764	5.222035	0.000578	5.780691	1.958551	-0.000231
1048	1.0418e+02	-1.7181	5.032290	0.000477	4.766535	1.614946	-0.000191
1049	1.0428e+02	-1.7598	4.814284	0.000548	5.476445	1.855470	-0.000219
1050	1.0438e+02	-1.7855	4.648762	0.000416	4.158041	1.408782	-0.000166
1051	1.0447e+02	-1.8368	4.426719	0.000558	5.577860	1.889830	-0.000223
1052	1.0457e+02	-1.8770	4.212751	0.000538	5.375029	1.821109	-0.000215
1053	1.0467e+02	-1.9187	4.079526	0.000335	3.346716	1.133898	-0.000134
1054	1.0477e+02	-1.9491	3.837298	0.000608	6.084938	2.061633	-0.000243
1055	1.0487e+02	-1.9973	3.647552	0.000477	4.766535	1.614946	-0.000191
1056	1.0497e+02	-2.0310	3.453770	0.000487	4.867951	1.649306	-0.000195
1057	1.0507e+02	-2.0759	3.227690	0.000568	5.679276	1.924191	-0.000227
1058	1.0517e+02	-2.1192	3.021796	0.000517	5.172198	1.752388	-0.000207
1059	1.0527e+02	-2.1513	2.840125	0.000456	4.563704	1.546225	-0.000183
1060	1.0537e+02	-2.1978	2.614045	0.000568	5.679276	1.924191	-0.000227
1061	1.0547e+02	-2.2299	2.408151	0.000517	5.172198	1.752388	-0.000207
1062	1.0557e+02	-2.2764	2.165923	0.000608	6.084938	2.061633	-0.000243
1063	1.0567e+02	-2.3101	1.951955	0.000538	5.375029	1.821109	-0.000215
1064	1.0577e+02	-2.3502	1.770284	0.000456	4.563704	1.546225	-0.000183
1065	1.0587e+02	-2.4015	1.560353	0.000527	5.273613	1.786749	-0.000211
1066	1.0597e+02	-2.4384	1.330236	0.000578	5.780691	1.958551	-0.000231
1067	1.0607e+02	-2.4737	1.144528	0.000467	4.665119	1.580585	-0.000187
1068	1.0617e+02	-2.5026	0.966894	0.000446	4.462288	1.511864	-0.000179
1069	1.0627e+02	-2.5539	0.704480	0.000659	6.592017	2.233436	-0.000264
1070	1.0637e+02	-2.5940	0.502623	0.000507	5.070782	1.718027	-0.000203
1071	1.0647e+02	-2.6293	0.292692	0.000527	5.273613	1.786749	-0.000211
1072	1.0656e+02	-2.6710	0.082761	0.000527	5.273613	1.786749	-0.000211
1073	1.0666e+02	-2.7047	-0.106984	0.000477	4.766535	1.614946	-0.000191
1074	1.0676e+02	-2.7545	-0.345175	0.000598	5.983523	2.027272	-0.000239
1075	1.0686e+02	-2.7930	-0.526846	0.000456	4.563704	1.546225	-0.000183
1076	1.0696e+02	-2.8299	-0.752926	0.000568	5.679276	1.924191	-0.000227
1077	1.0706e+02	-2.8732	-0.950745	0.000497	4.969366	1.683667	-0.000199
1078	1.0716e+02	-2.9117	-1.144528	0.000487	4.867951	1.649306	-0.000195
1079	1.0726e+02	-2.9486	-1.366570	0.000558	5.577860	1.889830	-0.000223
1080	1.0736e+02	-2.9887	-1.564390	0.000497	4.969366	1.683667	-0.000199
1081	1.0746e+02	-3.0320	-1.806618	0.000608	6.084938	2.061633	-0.000243
1082	1.0756e+02	-3.0673	-2.000401	0.000487	4.867951	1.649306	-0.000195
1083	1.0766e+02	-3.1154	-2.202258	0.000507	5.070782	1.718027	-0.000203
1084	1.0776e+02	-3.1507	-2.424300	0.000558	5.577860	1.889830	-0.000223
1085	1.0786e+02	-3.1860	-2.626157	0.000507	5.070782	1.718027	-0.000203
1086	1.0796e+02	-3.2325	-2.807828	0.000456	4.563704	1.546225	-0.000183
1087	1.0806e+02	-3.2774	-3.058130	0.000629	6.287770	2.130354	-0.000252
1088	1.0816e+02	-3.3015	-3.251913	0.000487	4.867951	1.649306	-0.000195
1089	1.0826e+02	-3.3496	-3.417435	0.000416	4.158041	1.408782	-0.000166
1090	1.0836e+02	-3.3897	-3.647552	0.000578	5.780691	1.958551	-0.000231
1091	1.0845e+02	-3.4363	-3.857483	0.000527	5.273613	1.786749	-0.000211
1092	1.0855e+02	-3.4619	-4.075489	0.000548	5.476445	1.855470	-0.000219
1093	1.0865e+02	-3.5101	-4.297531	0.000558	5.577860	1.889830	-0.000223
1094	1.0875e+02	-3.5454	-4.471128	0.000436	4.360872	1.477504	-0.000174
1095	1.0885e+02	-3.5839	-4.668947	0.000497	4.969366	1.683667	-0.000199
1096	1.0895e+02	-3.6240	-4.919250	0.000629	6.287770	2.130354	-0.000252
1097	1.0905e+02	-3.6785	-5.096884	0.000446	4.462288	1.511864	-0.000179
1098	1.0915e+02	-3.6978	-5.294704	0.000497	4.969366	1.683667	-0.000199
1099	1.0925e+02	-3.7491	-5.496560	0.000507	5.070782	1.718027	-0.000203
1100	1.0935e+02	-3.7876	-5.722640	0.000568	5.679276	1.924191	-0.000227
1101	1.0945e+02	-3.8245	-5.948720	0.000568	5.679276	1.924191	-0.000227
1102	1.0955e+02	-3.8694	-6.134428	0.000467	4.665119	1.580585	-0.000187
1103	1.0965e+02	-3.9095	-6.332247	0.000497	4.969366	1.683667	-0.000199
1104	1.0975e+02	-3.9400	-6.590624	0.000649	6.490601	2.199075	-0.000260
1105	1.0985e+02	-3.9817	-6.808629	0.000548	5.476445	1.855470	-0.000219
1106	1.0995e+02	-4.0234	-7.030672	0.000558	5.577860	1.889830	-0.000223
1107	1.1005e+02	-4.0619	-7.232529	0.000507	5.070782	1.718027	-0.000203
1108	1.1015e+02	-4.1149	-7.446497	0.000538	5.375029	1.821109	-0.000215
1109	1.1025e+02	-4.1518	-7.664502	0.000548	5.476445	1.855470	-0.000219
1110	1.1035e+02	-4.1983	-7.866359	0.000507	5.070782	1.718027	-0.000203
1111	1.1044e+02	-4.2255	-8.084364	0.000548	5.476445	1.855470	-0.000219
1112	1.1054e+02	-4.2737	-8.249887	0.000416	4.158041	1.408782	-0.000166
1113	1.1064e+02	-4.3058	-8.512301	0.000659	6.592017	2.233436	-0.000264
1114	1.1074e+02	-4.3491	-8.677823	0.000416	4.158041	1.408782	-0.000166
1115	1.1084e+02	-4.3780	-8.883717	0.000517	5.172198	1.752388	-0.000207
1116	1.1094e+02	-4.4325	-9.093648	0.000527	5.273613	1.786749	-0.000211
1117	1.1104e+02	-4.4614	-9.315691	0.000558	5.577860	1.889830	-0.000223
1118	1.1114e+02	-4.5031	-9.521585	0.000517	5.172198	1.752388	-0.000207
1119	1.1124e+02	-4.5416	-9.723441	0.000507	5.070782	1.718027	-0.000203
1120	1.1134e+02	-4.5849	-9.941447	0.000548	5.476445	1.855470	-0.000219
1121	1.1144e+02	-4.6250	-10.131192	0.000477	4.766535	1.614946	-0.000191
1122	1.1154e+02	-4.6571	-10.329012	0.000497	4.969366	1.683667	-0.000199
1123	1.1164e+02	-4.7036	-10.478386	0.000375	3.752379	1.271340	-0.000150
1124	1.1174e+02	-4.7405	-10.712540	0.000588	5.882107	1.992912	-0.000235
1125	1.1184e+02	-4.7854	-10.886137	0.000436	4.360872	1.477504	-0.000174
1126	1.1194e+02	-4.8159	-11.116253	0.000578	5.780691	1.958551	-0.000231
1127	1.1204e+02	-4.8624	-11.277739	0.000406	4.056626	1.374422	-0.000162
1128	1.1214e+02	-4.9041	-11.511893	0.000588	5.882107	1.992912	-0.000235
1129	1.1224e+02	-4.9458	-11.677415	0.000416	4.158041	1.408782	-0.000166
1130	1.1234e+02	-4.9827	-11.915606	0.000598	5.983523	2.027272	-0.000239
1131	1.1244e+02	-5.0164	-12.109389	0.000487	4.867951	1.649306	-0.000195
1132	1.1253e+02	-5.0614	-12.291060	0.000456	4.563704	1.546225	-0.000183
1133	1.1263e+02	-5.1031	-12.509065	0.000548	5.476445	1.855470	-0.000219
1134	1.1273e+02	-5.1528	-12.690736	0.000456	4.563704	1.546225	-0.000183
1135	1.1283e+02	-5.1929	-12.872407	0.000456	4.563704	1.546225	-0.000183
1136	1.1293e+02	-5.2298	-13.110598	0.000598	5.983523	2.027272	-0.000239
1137	1.1303e+02	-5.2667	-13.280158	0.000426	4.259457	1.443143	-0.000170
1138	1.1313e+02	-5.3020	-13.502200	0.000558	5.577860	1.889830	-0.000223
1139	1.1323e+02	-5.3421	-13.667723	0.000416	4.158041	1.408782	-0.000166
1140	1.1333e+02	-5.3790	-13.889766	0.000558	5.577860	1.889830	-0.000223
1141	1.1343e+02	-5.4255	-14.075474	0.000467	4.665119	1.580585	-0.000187
1142	1.1353e+02	-5.4544	-14.285405	0.000527	5.273613	1.786749	-0.000211
1143	1.1363e+02	-5.5041	-14.487262	0.000507	5.070782	1.718027	-0.000203
1144	1.1373e+02	-5.5362	-14.660858	0.000436	4.360872	1.477504	-0.000174
1145	1.1383e+02	-5.5859	-14.850604	0.000477	4.766535	1.614946	-0.000191
1146	1.1393e+02	-5.6148	-15.056498	0.000517	5.172198	1.752388	-0.000207
1147	1.1403e+02	-5.6645	-15.270466	0.000538	5.375029	1.821109	-0.000215
1148	1.1413e+02	-5.6998	-15.444063	0.000436	4.360872	1.477504	-0.000174
1149	1.1423e+02	-5.7335	-15.633808	0.000477	4.766535	1.614946	-0.000191
1150	1.1433e+02	-5.7833	-15.827591	0.000487	4.867951	1.649306	-0.000195
1151	1.1442e+02	-5.8121	-16.049633	0.000558	5.577860	1.889830	-0.000223
1152	1.1452e+02	-5.8635	-16.287824	0.000598	5.983523	2.027272	-0.000239
1153	1.1462e+02	-5.8940	-16.429124	0.000355	3.549547	1.202619	-0.000142
1154	1.1472e+02	-5.9453	-16.671352	0.000608	6.084938	2.061633	-0.000243
1155	1.1482e+02	-5.9790	-16.865135	0.000487	4.867951	1.649306	-0.000195
1156	1.1492e+02	-6.0191	-17.087177	0.000558	5.577860	1.889830	-0.000223
1157	1.1502e+02	-6.0640	-17.260774	0.000436	4.360872	1.477504	-0.000174
1158	1.1512e+02	-6.1009	-17.498965	0.000598	5.983523	2.027272	-0.000239
1159	1.1522e+02	-6.1362	-17.712933	0.000538	5.375029	1.821109	-0.000215
1160	1.1532e+02	-6.1811	-17.886530	0.000436	4.360872	1.477504	-0.000174
1161	1.1542e+02	-6.2196	-18.064164	0.000446	4.462288	1.511864	-0.000179
1162	1.1552e+02	-6.2613	-18.270058	0.000517	5.172198	1.752388	-0.000207
1163	1.1562e+02	-6.2950	-18.492100	0.000558	5.577860	1.889830	-0.000223
1164	1.1572e+02	-6.3383	-18.661660	0.000426	4.259457	1.443143	-0.000170
1165	1.1582e+02	-6.3768	-18.867554	0.000517	5.172198	1.752388	-0.000207
1166	1.1592e+02	-6.4217	-19.113819	0.000619	6.186354	2.095993	-0.000248
1167	1.1602e+02	-6.4667	-19.291453	0.000446	4.462288	1.511864	-0.000179
1168	1.1612e+02	-6.4955	-19.501384	0.000527	5.273613	1.786749	-0.000211
1169	1.1622e+02	-6.5324	-19.711315	0.000527	5.273613	1.786749	-0.000211
1170	1.1632e+02	-6.5661	-19.860689	0.000375	3.752379	1.271340	-0.000150
1171	1.1642e+02	-6.6126	-20.102917	0.000608	6.084938	2.061633	-0.000243
1172	1.1651e+02	-6.6576	-20.280551	0.000446	4.462288	1.511864	-0.000179
1173	1.1661e+02	-6.6929	-20.462222	0.000456	4.563704	1.546225	-0.000183
1174	1.1671e+02	-6.7282	-20.712525	0.000629	6.287770	2.130354	-0.000252
1175	1.1681e+02	-6.7763	-20.869973	0.000396	3.955210	1.340061	-0.000158
1176	1.1691e+02	-6.8276	-21.039533	0.000426	4.259457	1.443143	-0.000170
1177	1.1701e+02	-6.8517	-21.201018	0.000406	4.056626	1.374422	-0.000162
1178	1.1711e+02	-6.8950	-21.455358	0.000639	6.389185	2.164715	-0.000256
1179	1.1721e+02	-6.9223	-21.637029	0.000456	4.563704	1.546225	-0.000183
1180	1.1731e+02	-6.9768	-21.859071	0.000558	5.577860	1.889830	-0.000223
1181	1.1741e+02	-7.0185	-22.024594	0.000416	4.158041	1.408782	-0.000166
1182	1.1751e+02	-7.0618	-22.194154	0.000426	4.259457	1.443143	-0.000170
1183	1.1761e+02	-7.0891	-22.375825	0.000456	4.563704	1.546225	-0.000183
1184	1.1771e+02	-7.1292	-22.605942	0.000578	5.780691	1.958551	-0.000231
1185	1.1781e+02	-7.1757	-22.819910	0.000538	5.375029	1.821109	-0.000215
1186	1.1791e+02	-7.2030	-22.969284	0.000375	3.752379	1.271340	-0.000150
1187	1.1801e+02	-7.2495	-23.154992	0.000467	4.665119	1.580585	-0.000187
1188	1.1811e+02	-7.2848	-23.312440	0.000396	3.955210	1.340061	-0.000158
1189	1.1821e+02	-7.3297	-23.514297	0.000507	5.070782	1.718027	-0.000203
1190	1.1831e+02	-7.3779	-23.700005	0.000467	4.665119	1.580585	-0.000187
1191	1.1841e+02	-7.4212	-23.913974	0.000538	5.375029	1.821109	-0.000215
1192	1.1850e+02	-7.4565	-24.087570	0.000436	4.360872	1.477504	-0.000174
1193	1.1860e+02	-7.4918	-24.253093	0.000416	4.158041	1.408782	-0.000166
1194	1.1870e+02	-7.5255	-24.458987	0.000517	5.172198	1.752388	-0.000207
1195	1.1880e+02	-7.5736	-24.628547	0.000426	4.259457	1.443143	-0.000170
1196	1.1890e+02	-7.6105	-24.818292	0.000477	4.766535	1.614946	-0.000191
1197	1.1900e+02	-7.6570	-25.024186	0.000517	5.172198	1.752388	-0.000207
1198	1.1910e+02	-7.6907	-25.205857	0.000456	4.563704	1.546225	-0.000183
1199	1.1920e+02	-7.7292	-25.391565	0.000467	4.665119	1.580585	-0.000187
1200	1.1930e+02	-7.7725	-25.605533	0.000538	5.375029	1.821109	-0.000215
1201	1.1940e+02	-7.8110	-25.775093	0.000426	4.259457	1.443143	-0.000170
1202	1.1950e+02	-7.8527	-25.993098	0.000548	5.476445	1.855470	-0.000219
1203	1.1960e+02	-7.8896	-26.142472	0.000375	3.752379	1.271340	-0.000150
1204	1.1970e+02	-7.9265	-26.352404	0.000527	5.273613	1.786749	-0.000211
1205	1.1980e+02	-7.9666	-26.558297	0.000517	5.172198	1.752388	-0.000207
1206	1.1990e+02	-8.0180	-26.739969	0.000456	4.563704	1.546225	-0.000183
1207	1.2000e+02	-8.0500	-26.885305	0.000365	3.650963	1.236980	-0.000146
1208	1.2010e+02	-8.0901	-27.095237	0.000527	5.273613	1.786749	-0.000211
1209	1.2020e+02	-8.1303	-27.240573	0.000365	3.650963	1.236980	-0.000146
1210	1.2030e+02	-8.1768	-27.450504	0.000527	5.273613	1.786749	-0.000211
1211	1.2039e+02	-8.2089	-27.636213	0.000467	4.665119	1.580585	-0.000187
1212	1.2049e+02	-8.2474	-27.862292	0.000568	5.679276	1.924191	-0.000227
1213	1.2059e+02	-8.2843	-28.015703	0.000385	3.853794	1.305701	-0.000154
1214	1.2069e+02	-8.3324	-28.169115	0.000385	3.853794	1.305701	-0.000154
1215	1.2079e+02	-8.3725	-28.403268	0.000588	5.882107	1.992912	-0.000235
1216	1.2089e+02	-8.4078	-28.593014	0.000477	4.766535	1.614946	-0.000191
1217	1.2099e+02	-8.4495	-28.718165	0.000314	3.143885	1.065177	-0.000126
1218	1.2109e+02	-8.4752	-28.956356	0.000598	5.983523	2.027272	-0.000239
1219	1.2119e+02	-8.5233	-29.117842	0.000406	4.056626	1.374422	-0.000162
1220	1.2129e+02	-8.5730	-29.263178	0.000365	3.650963	1.236980	-0.000146
1221	1.2139e+02	-8.6051	-29.456961	0.000487	4.867951	1.649306	-0.000195
1222	1.2149e+02	-8.6420	-29.666892	0.000527	5.273613	1.786749	-0.000211
1223	1.2159e+02	-8.6869	-29.836452	0.000426	4.259457	1.443143	-0.000170
1224	1.2169e+02	-8.7254	-30.034271	0.000497	4.969366	1.683667	-0.000199
1225	1.2179e+02	-8.7768	-30.207868	0.000436	4.360872	1.477504	-0.000174
1226	1.2189e+02	-8.8024	-30.357242	0.000375	3.752379	1.271340	-0.000150
1227	1.2199e+02	-8.8361	-30.567173	0.000527	5.273613	1.786749	-0.000211
1228	1.2209e+02	-8.8907	-30.732696	0.000416	4.158041	1.408782	-0.000166
1229	1.2219e+02	-8.9260	-30.910330	0.000446	4.462288	1.511864	-0.000179
1230	1.2229e+02	-8.9709	-31.112187	0.000507	5.070782	1.718027	-0.000203
1231	1.2239e+02	-8.9997	-31.277709	0.000416	4.158041	1.408782	-0.000166
1232	1.2248e+02	-9.0431	-31.439195	0.000406	4.056626	1.374422	-0.000162
1233	1.2258e+02	-9.0816	-31.649126	0.000527	5.273613	1.786749	-0.000211
1234	1.2268e+02	-9.1233	-31.754091	0.000264	2.636807	0.893374	-0.000105
1235	1.2278e+02	-9.1714	-31.955948	0.000507	5.070782	1.718027	-0.000203
1236	1.2288e+02	-9.2099	-32.113396	0.000396	3.955210	1.340061	-0.000158
1237	1.2298e+02	-9.2500	-32.319290	0.000517	5.172198	1.752388	-0.000207
1238	1.2308e+02	-9.2981	-32.492887	0.000436	4.360872	1.477504	-0.000174
1239	1.2318e+02	-9.3238	-32.666484	0.000436	4.360872	1.477504	-0.000174
1240	1.2328e+02	-9.3639	-32.787598	0.000304	3.042469	1.030816	-0.000122
1241	1.2338e+02	-9.4040	-33.045975	0.000649	6.490601	2.199075	-0.000260
1242	1.2348e+02	-9.4409	-33.175163	0.000325	3.245300	1.099538	-0.000130
1243	1.2358e+02	-9.4858	-33.280128	0.000264	2.636807	0.893374	-0.000105
1244	1.2368e+02	-9.5211	-33.469874	0.000477	4.766535	1.614946	-0.000191
1245	1.2378e+02	-9.5692	-33.635396	0.000416	4.158041	1.408782	-0.000166
1246	1.2388e+02	-9.6078	-33.792845	0.000396	3.955210	1.340061	-0.000158
1247	1.2398e+02	-9.6543	-33.990664	0.000497	4.969366	1.683667	-0.000199
1248	1.2408e+02	-9.6815	-34.140038	0.000375	3.752379	1.271340	-0.000150
1249	1.2418e+02	-9.7200	-34.313635	0.000436	4.360872	1.477504	-0.000174
1250	1.2428e+02	-9.7618	-34.467046	0.000385	3.853794	1.305701	-0.000154
1251	1.2438e+02	-9.7954	-34.644680	0.000446	4.462288	1.511864	-0.000179
1252	1.2447e+02	-9.8372	-34.830389	0.000467	4.665119	1.580585	-0.000187
1253	1.2457e+02	-9.8789	-35.003985	0.000436	4.360872	1.477504	-0.000174
1254	1.2467e+02	-9.9174	-35.181619	0.000446	4.462288	1.511864	-0.000179
1255	1.2477e+02	-9.9591	-35.355216	0.000436	4.360872	1.477504	-0.000174
1256	1.2487e+02	-9.9944	-35.504590	0.000375	3.752379	1.271340	-0.000150
1257	1.2497e+02	-10.0425	-35.714521	0.000527	5.273613	1.786749	-0.000211
1258	1.2507e+02	-10.0954	-35.871970	0.000396	3.955210	1.340061	-0.000158
1259	1.2517e+02	-10.1275	-36.045566	0.000436	4.360872	1.477504	-0.000174
1260	1.2527e+02	-10.1564	-36.219163	0.000436	4.360872	1.477504	-0.000174
1261	1.2537e+02	-10.2045	-36.344314	0.000314	3.143885	1.065177	-0.000126
1262	1.2547e+02	-10.2462	-36.517911	0.000436	4.360872	1.477504	-0.000174
1263	1.2557e+02	-10.2799	-36.715731	0.000497	4.969366	1.683667	-0.000199
1264	1.2567e+02	-10.3264	-36.844919	0.000325	3.245300	1.099538	-0.000130
1265	1.2577e+02	-10.3633	-37.058888	0.000538	5.375029	1.821109	-0.000215
1266	1.2587e+02	-10.4131	-37.240559	0.000456	4.563704	1.546225	-0.000183
1267	1.2597e+02	-10.4436	-37.333413	0.000233	2.332560	0.790293	-0.000093
1268	1.2607e+02	-10.4837	-37.543344	0.000527	5.273613	1.786749	-0.000211
1269	1.2617e+02	-10.5125	-37.680606	0.000345	3.448132	1.168259	-0.000138
1270	1.2627e+02	-10.5494	-37.890537	0.000527	5.273613	1.786749	-0.000211
1271	1.2636e+02	-10.6008	-38.039911	0.000375	3.752379	1.271340	-0.000150
1272	1.2646e+02	-10.6409	-38.193323	0.000385	3.853794	1.305701	-0.000154
1273	1.2656e+02	-10.6794	-38.366919	0.000436	4.360872	1.477504	-0.000174
1274	1.2666e+02	-10.7259	-38.524368	0.000396	3.955210	1.340061	-0.000158
1275	1.2676e+02	-10.7596	-38.669705	0.000365	3.650963	1.236980	-0.000146
1276	1.2686e+02	-10.8045	-38.879636	0.000527	5.273613	1.786749	-0.000211
1277	1.2696e+02	-10.8414	-39.008824	0.000325	3.245300	1.099538	-0.000130
1278	1.2706e+02	-10.8783	-39.198569	0.000477	4.766535	1.614946	-0.000191
1279	1.2716e+02	-10.9200	-39.364092	0.000416	4.158041	1.408782	-0.000166
1280	1.2726e+02	-10.9537	-39.481169	0.000294	2.941054	0.996456	-0.000118
1281	1.2736e+02	-10.9954	-39.646692	0.000416	4.158041	1.408782	-0.000166
1282	1.2746e+02	-11.0403	-39.800103	0.000385	3.853794	1.305701	-0.000154
1283	1.2756e+02	-11.0852	-40.018108	0.000548	5.476445	1.855470	-0.000219
1284	1.2766e+02	-11.1189	-40.131148	0.000284	2.839638	0.962095	-0.000114
1285	1.2776e+02	-11.1574	-40.280522	0.000375	3.752379	1.271340	-0.000150
1286	1.2786e+02	-11.1975	-40.498527	0.000548	5.476445	1.855470	-0.000219
1287	1.2796e+02	-11.2377	-40.611567	0.000284	2.839638	0.962095	-0.000114
1288	1.2806e+02	-11.2874	-40.756904	0.000365	3.650963	1.236980	-0.000146
1289	1.2816e+02	-11.3275	-40.918389	0.000406	4.056626	1.374422	-0.000162
1290	1.2826e+02	-11.3628	-41.063726	0.000365	3.650963	1.236980	-0.000146
1291	1.2835e+02	-11.4045	-41.261546	0.000497	4.969366	1.683667	-0.000199
1292	1.2845e+02	-11.4334	-41.386697	0.000314	3.143885	1.065177	-0.000126
1293	1.2855e+02	-11.4735	-41.548182	0.000406	4.056626	1.374422	-0.000162
1294	1.2865e+02	-11.5152	-41.709668	0.000406	4.056626	1.374422	-0.000162
1295	1.2875e+02	-11.5697	-41.875190	0.000416	4.158041	1.408782	-0.000166
1296	1.2885e+02	-11.5922	-42.028602	0.000385	3.853794	1.305701	-0.000154
1297	1.2895e+02	-11.6435	-42.161827	0.000335	3.346716	1.133898	-0.000134
1298	1.2905e+02	-11.6804	-42.299090	0.000345	3.448132	1.168259	-0.000138
1299	1.2915e+02	-11.7157	-42.460575	0.000406	4.056626	1.374422	-0.000162
1300	1.2925e+02	-11.7494	-42.654358	0.000487	4.867951	1.649306	-0.000195
1301	1.2935e+02	-11.7975	-42.811806	0.000396	3.955210	1.340061	-0.000158
1302	1.2945e+02	-11.8392	-42.945031	0.000335	3.346716	1.133898	-0.000134
1303	1.2955e+02	-11.8745	-43.146888	0.000507	5.070782	1.718027	-0.000203
1304	1.2965e+02	-11.9162	-43.255891	0.000274	2.738222	0.927735	-0.000110
1305	1.2975e+02	-11.9547	-43.457748	0.000507	5.070782	1.718027	-0.000203
1306	1.2985e+02	-11.9948	-43.607122	0.000375	3.752379	1.271340	-0.000150
1307	1.2995e+02	-12.0334	-43.776681	0.000426	4.259457	1.443143	-0.000170
1308	1.3005e+02	-12.0783	-43.950278	0.000436	4.360872	1.477504	-0.000174
1309	1.3015e+02	-12.1136	-44.107727	0.000396	3.955210	1.340061	-0.000158
1310	1.3025e+02	-12.1537	-44.232878	0.000314	3.143885	1.065177	-0.000126
1311	1.3034e+02	-12.1906	-44.366103	0.000335	3.346716	1.133898	-0.000134
1312	1.3044e+02	-12.2339	-44.539700	0.000436	4.360872	1.477504	-0.000174
1313	1.3054e+02	-12.2756	-44.721371	0.000456	4.563704	1.546225	-0.000183
1314	1.3064e+02	-12.3173	-44.850559	0.000325	3.245300	1.099538	-0.000130
1315	1.3074e+02	-12.3446	-45.008008	0.000396	3.955210	1.340061	-0.000158
1316	1.3084e+02	-12.3943	-45.153345	0.000365	3.650963	1.236980	-0.000146
1317	1.3094e+02	-12.4424	-45.306756	0.000385	3.853794	1.305701	-0.000154
1318	1.3104e+02	-12.4665	-45.468241	0.000406	4.056626	1.374422	-0.000162
1319	1.3114e+02	-12.5178	-45.637801	0.000426	4.259457	1.443143	-0.000170
1320	1.3124e+02	-12.5531	-45.795249	0.000396	3.955210	1.340061	-0.000158
1321	1.3134e+02	-12.5964	-45.948660	0.000385	3.853794	1.305701	-0.000154
1322	1.3144e+02	-12.6365	-46.029403	0.000203	2.028313	0.687211	-0.000081
1323	1.3154e+02	-12.6734	-46.231260	0.000507	5.070782	1.718027	-0.000203
1324	1.3164e+02	-12.7184	-46.408894	0.000446	4.462288	1.511864	-0.000179
1325	1.3174e+02	-12.7537	-46.534045	0.000314	3.143885	1.065177	-0.000126
1326	1.3184e+02	-12.7938	-46.667271	0.000335	3.346716	1.133898	-0.000134
1327	1.3194e+02	-12.8355	-46.800496	0.000335	3.346716	1.133898	-0.000134
1328	1.3204e+02	-12.8676	-46.990241	0.000477	4.766535	1.614946	-0.000191
1329	1.3214e+02	-12.9028	-47.135578	0.000365	3.650963	1.236980	-0.000146
1330	1.3224e+02	-12.9462	-47.268804	0.000335	3.346716	1.133898	-0.000134
1331	1.3234e+02	-12.9927	-47.397992	0.000325	3.245300	1.099538	-0.000130
1332	1.3243e+02	-13.0248	-47.591775	0.000487	4.867951	1.649306	-0.000195
1333	1.3253e+02	-13.0665	-47.716926	0.000314	3.143885	1.065177	-0.000126
1334	1.3263e+02	-13.1066	-47.890523	0.000436	4.360872	1.477504	-0.000174
1335	1.3273e+02	-13.1467	-48.064120	0.000436	4.360872	1.477504	-0.000174
1336	1.3283e+02	-13.1884	-48.177159	0.000284	2.839638	0.962095	-0.000114
1337	1.3293e+02	-13.2333	-48.370942	0.000487	4.867951	1.649306	-0.000195
1338	1.3303e+02	-13.2638	-48.483982	0.000284	2.839638	0.962095	-0.000114
1339	1.3313e+02	-13.3103	-48.633356	0.000375	3.752379	1.271340	-0.000150
1340	1.3323e+02	-13.3488	-48.802915	0.000426	4.259457	1.443143	-0.000170
1341	1.3333e+02	-13.3986	-48.980549	0.000446	4.462288	1.511864	-0.000179
1342	1.3343e+02	-13.4226	-49.154146	0.000436	4.360872	1.477504	-0.000174
1343	1.3353e+02	-13.4707	-49.218740	0.000162	1.622650	0.549769	-0.000065
1344	1.3363e+02	-13.4996	-49.428671	0.000527	5.273613	1.786749	-0.000211
1345	1.3373e+02	-13.5429	-49.565934	0.000345	3.448132	1.168259	-0.000138
1346	1.3383e+02	-13.5798	-49.691085	0.000314	3.143885	1.065177	-0.000126
1347	1.3393e+02	-13.6264	-49.844496	0.000385	3.853794	1.305701	-0.000154
1348	1.3403e+02	-13.6681	-49.985796	0.000355	3.549547	1.202619	-0.000142
1349	1.3413e+02	-13.7178	-50.163430	0.000446	4.462288	1.511864	-0.000179
1350	1.3423e+02	-13.7435	-50.304730	0.000355	3.549547	1.202619	-0.000142
1351	1.3432e+02	-13.7900	-50.450067	0.000365	3.650963	1.236980	-0.000146
1352	1.3442e+02	-13.8301	-50.631738	0.000456	4.563704	1.546225	-0.000183
1353	1.3452e+02	-13.8718	-50.785149	0.000385	3.853794	1.305701	-0.000154
1354	1.3462e+02	-13.9007	-50.914337	0.000325	3.245300	1.099538	-0.000130
1355	1.3472e+02	-13.9488	-51.055637	0.000355	3.549547	1.202619	-0.000142
1356	1.3482e+02	-13.9857	-51.209048	0.000385	3.853794	1.305701	-0.000154
1357	1.3492e+02	-14.0258	-51.358422	0.000375	3.752379	1.271340	-0.000150
1358	1.3502e+02	-14.0675	-51.519908	0.000406	4.056626	1.374422	-0.000162
1359	1.3512e+02	-14.1044	-51.657170	0.000345	3.448132	1.168259	-0.000138
1360	1.3522e+02	-14.1429	-51.818656	0.000406	4.056626	1.374422	-0.000162
1361	1.3532e+02	-14.1894	-51.976104	0.000396	3.955210	1.340061	-0.000158
1362	1.3542e+02	-14.2215	-52.085107	0.000274	2.738222	0.927735	-0.000110
1363	1.3552e+02	-14.2632	-52.266778	0.000456	4.563704	1.546225	-0.000183
1364	1.3562e+02	-14.3017	-52.452486	0.000467	4.665119	1.580585	-0.000187
1365	1.3572e+02	-14.3467	-52.569563	0.000294	2.941054	0.996456	-0.000118
1366	1.3582e+02	-14.3932	-52.731048	0.000406	4.056626	1.374422	-0.000162
1367	1.3592e+02	-14.4124	-52.840051	0.000274	2.738222	0.927735	-0.000110
1368	1.3602e+02	-14.4670	-52.993462	0.000385	3.853794	1.305701	-0.000154
1369	1.3612e+02	-14.4942	-53.171096	0.000446	4.462288	1.511864	-0.000179
1370	1.3622e+02	-14.5456	-53.356804	0.000467	4.665119	1.580585	-0.000187
1371	1.3631e+02	-14.5841	-53.469844	0.000284	2.839638	0.962095	-0.000114
1372	1.3641e+02	-14.6258	-53.627293	0.000396	3.955210	1.340061	-0.000158
1373	1.3651e+02	-14.6675	-53.800889	0.000436	4.360872	1.477504	-0.000174
1374	1.3661e+02	-14.7060	-53.946226	0.000365	3.650963	1.236980	-0.000146
1375	1.3671e+02	-14.7397	-54.067340	0.000304	3.042469	1.030816	-0.000122
1376	1.3681e+02	-14.7830	-54.273234	0.000517	5.172198	1.752388	-0.000207
1377	1.3691e+02	-14.8247	-54.382237	0.000274	2.738222	0.927735	-0.000110
1378	1.3701e+02	-14.8632	-54.551797	0.000426	4.259457	1.443143	-0.000170
1379	1.3711e+02	-14.8937	-54.697134	0.000365	3.650963	1.236980	-0.000146
1380	1.3721e+02	-14.9402	-54.826322	0.000325	3.245300	1.099538	-0.000130
1381	1.3731e+02	-14.9867	-55.040290	0.000538	5.375029	1.821109	-0.000215
1382	1.3741e+02	-15.0172	-55.157367	0.000294	2.941054	0.996456	-0.000118
1383	1.3751e+02	-15.0702	-55.347112	0.000477	4.766535	1.614946	-0.000191
1384	1.3761e+02	-15.0958	-55.484375	0.000345	3.448132	1.168259	-0.000138
1385	1.3771e+02	-15.1407	-55.633749	0.000375	3.752379	1.271340	-0.000150
1386	1.3781e+02	-15.1857	-55.779086	0.000365	3.650963	1.236980	-0.000146
1387	1.3791e+02	-15.2210	-55.968831	0.000477	4.766535	1.614946	-0.000191
1388	1.3801e+02	-15.2595	-56.118205	0.000375	3.752379	1.271340	-0.000150
1389	1.3811e+02	-15.3060	-56.255468	0.000345	3.448132	1.168259	-0.000138
1390	1.3821e+02	-15.3445	-56.360433	0.000264	2.636807	0.893374	-0.000105
1391	1.3831e+02	-15.3878	-56.546142	0.000467	4.665119	1.580585	-0.000187
1392	1.3840e+02	-15.4247	-56.671293	0.000314	3.143885	1.065177	-0.000126
1393	1.3850e+02	-15.4616	-56.877187	0.000517	5.172198	1.752388	-0.000207
1394	1.3860e+02	-15.4969	-57.014449	0.000345	3.448132	1.168259	-0.000138
1395	1.3870e+02	-15.5514	-57.155749	0.000355	3.549547	1.202619	-0.000142
1396	1.3880e+02	-15.5835	-57.337420	0.000456	4.563704	1.546225	-0.000183
1397	1.3890e+02	-15.6204	-57.474683	0.000345	3.448132	1.168259	-0.000138
1398	1.3900e+02	-15.6621	-57.611946	0.000345	3.448132	1.168259	-0.000138
1399	1.3910e+02	-15.6990	-57.757282	0.000365	3.650963	1.236980	-0.000146
1400	1.3920e+02	-15.7455	-57.894545	0.000345	3.448132	1.168259	-0.000138
1401	1.3930e+02	-15.7824	-58.100439	0.000517	5.172198	1.752388	-0.000207
1402	1.3940e+02	-15.8274	-58.209442	0.000274	2.738222	0.927735	-0.000110
1403	1.3950e+02	-15.8562	-58.370927	0.000406	4.056626	1.374422	-0.000162
1404	1.3960e+02	-15.8899	-58.556635	0.000467	4.665119	1.580585	-0.000187
1405	1.3970e+02	-15.9493	-58.701972	0.000365	3.650963	1.236980	-0.000146
1406	1.3980e+02	-15.9750	-58.863458	0.000406	4.056626	1.374422	-0.000162
1407	1.3990e+02	-16.0135	-59.024943	0.000406	4.056626	1.374422	-0.000162
1408	1.4000e+02	-16.0584	-59.174317	0.000375	3.752379	1.271340	-0.000150
1409	1.4010e+02	-16.0953	-59.323691	0.000375	3.752379	1.271340	-0.000150
1410	1.4020e+02	-16.1402	-59.440768	0.000294	2.941054	0.996456	-0.000118
1411	1.4029e+02	-16.1739	-59.602253	0.000406	4.056626	1.374422	-0.000162
1412	1.4039e+02	-16.2108	-59.743553	0.000355	3.549547	1.202619	-0.000142
1413	1.4049e+02	-16.2573	-59.937336	0.000487	4.867951	1.649306	-0.000195
1414	1.4059e+02	-16.2974	-60.078635	0.000355	3.549547	1.202619	-0.000142
1415	1.4069e+02	-16.3391	-60.228010	0.000375	3.752379	1.271340	-0.000150
1416	1.4079e+02	-16.3744	-60.385458	0.000396	3.955210	1.340061	-0.000158
1417	1.4089e+02	-16.4145	-60.534832	0.000375	3.752379	1.271340	-0.000150
1418	1.4099e+02	-16.4498	-60.664020	0.000325	3.245300	1.099538	-0.000130
1419	1.4109e+02	-16.4963	-60.841654	0.000446	4.462288	1.511864	-0.000179
1420	1.4119e+02	-16.5396	-60.999102	0.000396	3.955210	1.340061	-0.000158
1421	1.4129e+02	-16.5685	-61.188848	0.000477	4.766535	1.614946	-0.000191
1422	1.4139e+02	-16.6150	-61.277665	0.000223	2.231144	0.755932	-0.000089
1423	1.4149e+02	-16.6519	-61.475484	0.000497	4.969366	1.683667	-0.000199
1424	1.4159e+02	-16.7049	-61.604673	0.000325	3.245300	1.099538	-0.000130
1425	1.4169e+02	-16.7241	-61.774232	0.000426	4.259457	1.443143	-0.000170
1426	1.4179e+02	-16.7803	-61.915532	0.000355	3.549547	1.202619	-0.000142
1427	1.4189e+02	-16.8156	-62.060869	0.000365	3.650963	1.236980	-0.000146
1428	1.4199e+02	-16.8493	-62.258689	0.000497	4.969366	1.683667	-0.000199
1429	1.4209e+02	-16.9038	-62.416137	0.000396	3.955210	1.340061	-0.000158
1430	1.4219e+02	-16.9375	-62.569548	0.000385	3.853794	1.305701	-0.000154
1431	1.4228e+02	-16.9776	-62.759294	0.000477	4.766535	1.614946	-0.000191
1432	1.4238e+02	-17.0113	-62.904631	0.000365	3.650963	1.236980	-0.000146
1433	1.4248e+02	-17.0498	-63.070153	0.000416	4.158041	1.408782	-0.000166
1434	1.4258e+02	-17.0915	-63.231638	0.000406	4.056626	1.374422	-0.000162
1435	1.4268e+02	-17.1444	-63.389087	0.000396	3.955210	1.340061	-0.000158
1436	1.4278e+02	-17.1781	-63.550572	0.000406	4.056626	1.374422	-0.000162
1437	1.4288e+02	-17.2230	-63.703983	0.000385	3.853794	1.305701	-0.000154
1438	1.4298e+02	-17.2583	-63.861432	0.000396	3.955210	1.340061	-0.000158
1439	1.4308e+02	-17.2984	-64.035029	0.000436	4.360872	1.477504	-0.000174
1440	1.4318e+02	-17.3337	-64.200551	0.000416	4.158041	1.408782	-0.000166
1441	1.4328e+02	-17.3706	-64.374148	0.000436	4.360872	1.477504	-0.000174
1442	1.4338e+02	-17.4091	-64.531596	0.000396	3.955210	1.340061	-0.000158
1443	1.4348e+02	-17.4541	-64.697119	0.000416	4.158041	1.408782	-0.000166
1444	1.4358e+02	-17.4877	-64.858604	0.000406	4.056626	1.374422	-0.000162
1445	1.4368e+02	-17.5246	-65.003941	0.000365	3.650963	1.236980	-0.000146
1446	1.4378e+02	-17.5712	-65.161389	0.000396	3.955210	1.340061	-0.000158
1447	1.4388e+02	-17.6113	-65.367283	0.000517	5.172198	1.752388	-0.000207
1448	1.4398e+02	-17.6594	-65.484360	0.000294	2.941054	0.996456	-0.000118
1449	1.4408e+02	-17.6931	-65.674106	0.000477	4.766535	1.614946	-0.000191
1450	1.4418e+02	-17.7316	-65.851740	0.000446	4.462288	1.511864	-0.000179
1451	1.4428e+02	-17.7765	-65.997076	0.000365	3.650963	1.236980	-0.000146
1452	1.4437e+02	-17.8086	-66.170673	0.000436	4.360872	1.477504	-0.000174
1453	1.4447e+02	-17.8631	-66.299862	0.000325	3.245300	1.099538	-0.000130
1454	1.4457e+02	-17.8920	-66.477496	0.000446	4.462288	1.511864	-0.000179
1455	1.4467e+02	-17.9257	-66.687427	0.000527	5.273613	1.786749	-0.000211
1456	1.4477e+02	-17.9786	-66.824689	0.000345	3.448132	1.168259	-0.000138
1457	1.4487e+02	-18.0107	-66.961952	0.000345	3.448132	1.168259	-0.000138
1458	1.4497e+02	-18.0476	-67.147660	0.000467	4.665119	1.580585	-0.000187
1459	1.4507e+02	-18.0974	-67.325294	0.000446	4.462288	1.511864	-0.000179
1460	1.4517e+02	-18.1342	-67.490817	0.000416	4.158041	1.408782	-0.000166
1461	1.4527e+02	-18.1760	-67.660376	0.000426	4.259457	1.443143	-0.000170
1462	1.4537e+02	-18.2064	-67.874345	0.000538	5.375029	1.821109	-0.000215
1463	1.4547e+02	-18.2514	-68.047941	0.000436	4.360872	1.477504	-0.000174
1464	1.4557e+02	-18.2947	-68.213464	0.000416	4.158041	1.408782	-0.000166
1465	1.4567e+02	-18.3284	-68.374949	0.000406	4.056626	1.374422	-0.000162
1466	1.4577e+02	-18.3733	-68.568732	0.000487	4.867951	1.649306	-0.000195
1467	1.4587e+02	-18.4182	-68.742329	0.000436	4.360872	1.477504	-0.000174
1468	1.4597e+02	-18.4551	-68.924000	0.000456	4.563704	1.546225	-0.000183
1469	1.4607e+02	-18.4872	-69.085485	0.000406	4.056626	1.374422	-0.000162
1470	1.4617e+02	-18.5321	-69.246971	0.000406	4.056626	1.374422	-0.000162
1471	1.4626e+02	-18.5738	-69.428642	0.000456	4.563704	1.546225	-0.000183
1472	1.4636e+02	-18.6059	-69.634536	0.000517	5.172198	1.752388	-0.000207
1473	1.4646e+02	-18.6492	-69.816207	0.000456	4.563704	1.546225	-0.000183
1474	1.4656e+02	-18.6861	-70.026138	0.000527	5.273613	1.786749	-0.000211
1475	1.4666e+02	-18.7246	-70.179549	0.000385	3.853794	1.305701	-0.000154
1476	1.4676e+02	-18.7711	-70.385443	0.000517	5.172198	1.752388	-0.000207
1477	1.4686e+02	-18.8112	-70.599411	0.000538	5.375029	1.821109	-0.000215
1478	1.4696e+02	-18.8513	-70.748785	0.000375	3.752379	1.271340	-0.000150
1479	1.4706e+02	-18.8882	-70.954679	0.000517	5.172198	1.752388	-0.000207
1480	1.4716e+02	-18.9187	-71.184796	0.000578	5.780691	1.958551	-0.000231
1481	1.4726e+02	-18.9652	-71.374541	0.000477	4.766535	1.614946	-0.000191
1482	1.4736e+02	-19.0005	-71.544101	0.000426	4.259457	1.443143	-0.000170
1483	1.4746e+02	-19.0374	-71.798441	0.000639	6.389185	2.164715	-0.000256
1484	1.4756e+02	-19.0904	-71.923592	0.000314	3.143885	1.065177	-0.000126
1485	1.4766e+02	-19.1241	-72.157746	0.000588	5.882107	1.992912	-0.000235
1486	1.4776e+02	-19.1722	-72.347491	0.000477	4.766535	1.614946	-0.000191
1487	1.4786e+02	-19.2091	-72.517051	0.000426	4.259457	1.443143	-0.000170
1488	1.4796e+02	-19.2524	-72.726982	0.000527	5.273613	1.786749	-0.000211
1489	1.4806e+02	-19.2909	-72.940950	0.000538	5.375029	1.821109	-0.000215
1490	1.4816e+02	-19.3342	-73.142807	0.000507	5.070782	1.718027	-0.000203
1491	1.4825e+02	-19.3599	-73.356775	0.000538	5.375029	1.821109	-0.000215
1492	1.4835e+02	-19.4096	-73.526335	0.000426	4.259457	1.443143	-0.000170
1493	1.4845e+02	-19.4481	-73.740303	0.000538	5.375029	1.821109	-0.000215
1494	1.4855e+02	-19.4882	-73.978494	0.000598	5.983523	2.027272	-0.000239
1495	1.4865e+02	-19.5331	-74.188425	0.000527	5.273613	1.786749	-0.000211
1496	1.4875e+02	-19.5588	-74.374133	0.000467	4.665119	1.580585	-0.000187
1497	1.4885e+02	-19.6053	-74.567916	0.000487	4.867951	1.649306	-0.000195
1498	1.4895e+02	-19.6454	-74.806107	0.000598	5.983523	2.027272	-0.000239
1499	1.4905e+02	-19.6887	-74.979703	0.000436	4.360872	1.477504	-0.000174
1500	1.4915e+02	-19.7224	-75.201746	0.000558	5.577860	1.889830	-0.000223
1501	1.4925e+02	-19.7706	-75.448011	0.000619	6.186354	2.095993	-0.000248
1502	1.4935e+02	-19.7994	-75.702351	0.000639	6.389185	2.164715	-0.000256
1503	1.4945e+02	-19.8347	-75.908245	0.000517	5.172198	1.752388	-0.000207
1504	1.4955e+02	-19.8909	-76.150473	0.000608	6.084938	2.061633	-0.000243
1505	1.4965e+02	-19.9326	-76.384627	0.000588	5.882107	1.992912	-0.000235
1506	1.4975e+02	-19.9679	-76.610706	0.000568	5.679276	1.924191	-0.000227
1507	1.4985e+02	-19.9919	-76.820637	0.000527	5.273613	1.786749	-0.000211
1508	1.4995e+02	-19.9567	-77.026531	-0.000517	-5.172198	-1.752388	-0.000207
1509	1.5005e+02	-19.9326	-77.272797	-0.000619	-6.186354	-2.095993	-0.000248
1510	1.5015e+02	-19.8909	-77.430245	-0.000396	-3.955210	-1.340061	-0.000158
1511	1.5025e+02	-19.8347	-77.559433	-0.000325	-3.245300	-1.099538	-0.000130
1512	1.5034e+02	-19.8091	-77.728993	-0.000426	-4.259457	-1.443143	-0.000170
1513	1.5044e+02	-19.7690	-77.842033	-0.000284	-2.839638	-0.962095	-0.000114
1514	1.5054e+02	-19.7192	-77.967184	-0.000314	-3.143885	-1.065177	-0.000126
1515	1.5064e+02	-19.6839	-78.027741	-0.000152	-1.521235	-0.515408	-0.000061
1516	1.5074e+02	-19.6470	-78.140781	-0.000284	-2.839638	-0.962095	-0.000114
1517	1.5084e+02	-19.6053	-78.229598	-0.000223	-2.231144	-0.755932	-0.000089
1518	1.5094e+02	-19.5652	-78.334563	-0.000264	-2.636807	-0.893374	-0.000105
1519	1.5104e+02	-19.5219	-78.403195	-0.000172	-1.724066	-0.584129	-0.000069
1520	1.5114e+02	-19.4834	-78.487974	-0.000213	-2.129728	-0.721572	-0.000085
1521	1.5124e+02	-19.4577	-78.572754	-0.000213	-2.129728	-0.721572	-0.000085
1522	1.5134e+02	-19.4064	-78.677720	-0.000264	-2.636807	-0.893374	-0.000105
1523	1.5144e+02	-19.3711	-78.718091	-0.000101	-1.014156	-0.343605	-0.000041
1524	1.5154e+02	-19.3246	-78.762500	-0.000112	-1.115572	-0.377966	-0.000045
1525	1.5164e+02	-19.2909	-78.847280	-0.000213	-2.129728	-0.721572	-0.000085
1526	1.5174e+02	-19.2460	-78.887651	-0.000101	-1.014156	-0.343605	-0.000041
1527	1.5184e+02	-19.2027	-78.928022	-0.000101	-1.014156	-0.343605	-0.000041
1528	1.5194e+02	-19.1722	-78.996654	-0.000172	-1.724066	-0.584129	-0.000069
1529	1.5204e+02	-19.1257	-79.024914	-0.000071	-0.709909	-0.240524	-0.000028
1530	1.5214e+02	-19.0807	-79.053173	-0.000071	-0.709909	-0.240524	-0.000028
1531	1.5224e+02	-19.0503	-79.089508	-0.000091	-0.912741	-0.309245	-0.000037
1532	1.5233e+02	-19.0086	-79.101619	-0.000030	-0.304247	-0.103082	-0.000012
1533	1.5243e+02	-18.9749	-79.166213	-0.000162	-1.622650	-0.549769	-0.000065
1534	1.5253e+02	-18.9283	-79.259067	-0.000233	-2.332560	-0.790293	-0.000093
1535	1.5263e+02	-18.8834	-79.238882	0.000051	0.507078	0.171803	0.000020
1536	1.5273e+02	-18.8449	-79.287327	-0.000122	-1.216988	-0.412327	-0.000049
1537	1.5283e+02	-18.8096	-79.291364	-0.000010	-0.101416	-0.034361	-0.000004
1538	1.5293e+02	-18.7551	-79.250993	0.000101	1.014156	0.343605	0.000041
1539	1.5303e+02	-18.7198	-79.291364	-0.000101	-1.014156	-0.343605	-0.000041
1540	1.5313e+02	-18.6941	-79.335773	-0.000112	-1.115572	-0.377966	-0.000045
1541	1.5323e+02	-18.6508	-79.327699	0.000020	0.202831	0.068721	0.000008
1542	1.5333e+02	-18.6059	-79.372107	-0.000112	-1.115572	-0.377966	-0.000045
1543	1.5343e+02	-18.5722	-79.380181	-0.000020	-0.202831	-0.068721	-0.000008
1544	1.5353e+02	-18.5337	-79.396330	-0.000041	-0.405663	-0.137442	-0.000016
1545	1.5363e+02	-18.4904	-79.408441	-0.000030	-0.304247	-0.103082	-0.000012
1546	1.5373e+02	-18.4503	-79.396330	0.000030	0.304247	0.103082	0.000012
1547	1.5383e+02	-18.4054	-79.452850	-0.000142	-1.419819	-0.481048	-0.000057
1548	1.5393e+02	-18.3653	-79.428627	0.000061	0.608494	0.206163	0.000024
1549	1.5403e+02	-18.3268	-79.428627	0.000000	0.000000	0.000000	0.000000
1550	1.5413e+02	-18.2834	-79.440738	-0.000030	-0.304247	-0.103082	-0.000012
1551	1.5422e+02	-18.2465	-79.448813	-0.000020	-0.202831	-0.068721	-0.000008
1552	1.5432e+02	-18.2161	-79.452850	-0.000010	-0.101416	-0.034361	-0.000004
1553	1.5442e+02	-18.1776	-79.452850	0.000000	0.000000	0.000000	0.000000
1554	1.5452e+02	-18.1262	-79.493221	-0.000101	-1.014156	-0.343605	-0.000041
1555	1.5462e+02	-18.0893	-79.481110	0.000030	0.304247	0.103082	0.000012
1556	1.5472e+02	-18.0444	-79.493221	-0.000030	-0.304247	-0.103082	-0.000012
1557	1.5482e+02	-18.0187	-79.468998	0.000061	0.608494	0.206163	0.000024
1558	1.5492e+02	-17.9754	-79.505333	-0.000091	-0.912741	-0.309245	-0.000037
1559	1.5502e+02	-17.9337	-79.505333	0.000000	0.000000	0.000000	0.000000
1560	1.5512e+02	-17.8888	-79.489184	0.000041	0.405663	0.137442	0.000016
1561	1.5522e+02	-17.8551	-79.493221	-0.000010	-0.101416	-0.034361	-0.000004
1562	1.5532e+02	-17.8054	-79.464961	0.000071	0.709909	0.240524	0.000028
1563	1.5542e+02	-17.7765	-79.493221	-0.000071	-0.709909	-0.240524	-0.000028
1564	1.5552e+02	-17.7268	-79.525518	-0.000081	-0.811325	-0.274884	-0.000032
1565	1.5562e+02	-17.6995	-79.521481	0.000010	0.101416	0.034361	0.000004
1566	1.5572e+02	-17.6498	-79.501296	0.000051	0.507078	0.171803	0.000020
1567	1.5582e+02	-17.6241	-79.485147	0.000041	0.405663	0.137442	0.000016
1568	1.5592e+02	-17.5744	-79.493221	-0.000020	-0.202831	-0.068721	-0.000008
1569	1.5602e+02	-17.5311	-79.489184	0.000010	0.101416	0.034361	0.000004
1570	1.5612e+02	-17.5006	-79.481110	0.000020	0.202831	0.068721	0.000008
1571	1.5622e+02	-17.4541	-79.416516	0.000162	1.622650	0.549769	0.000065
1572	1.5631e+02	-17.4075	-79.412479	0.000010	0.101416	0.034361	0.000004
1573	1.5641e+02	-17.3787	-79.380181	0.000081	0.811325	0.274884	0.000032
1574	1.5651e+02	-17.3337	-79.359996	0.000051	0.507078	0.171803	0.000020
1575	1.5661e+02	-17.3033	-79.355959	0.000010	0.101416	0.034361	0.000004
1576	1.5671e+02	-17.2551	-79.307513	0.000122	1.216988	0.412327	0.000049
1577	1.5681e+02	-17.2150	-79.311550	-0.000010	-0.101416	-0.034361	-0.000004
1578	1.5691e+02	-17.1765	-79.255030	0.000142	1.419819	0.481048	0.000057
1579	1.5701e+02	-17.1412	-79.186399	0.000172	1.724066	0.584129	0.000069
1580	1.5711e+02	-17.0963	-79.190436	-0.000010	-0.101416	-0.034361	-0.000004
1581	1.5721e+02	-17.0514	-79.146028	0.000112	1.115572	0.377966	0.000045
1582	1.5731e+02	-17.0161	-79.081433	0.000162	1.622650	0.549769	0.000065
1583	1.5741e+02	-16.9808	-79.028951	0.000132	1.318403	0.446687	0.000053
1584	1.5751e+02	-16.9407	-78.960319	0.000172	1.724066	0.584129	0.000069
1585	1.5761e+02	-16.8894	-78.944171	0.000041	0.405663	0.137442	0.000016
1586	1.5771e+02	-16.8589	-78.863428	0.000203	2.028313	0.687211	0.000081
1587	1.5781e+02	-16.8075	-78.810945	0.000132	1.318403	0.446687	0.000053
1588	1.5791e+02	-16.7642	-78.774611	0.000091	0.912741	0.309245	0.000037
1589	1.5801e+02	-16.7402	-78.677720	0.000243	2.433975	0.824653	0.000097
1590	1.5811e+02	-16.6953	-78.617163	0.000152	1.521235	0.515408	0.000061
1591	1.5821e+02	-16.6567	-78.528346	0.000223	2.231144	0.755932	0.000089
1592	1.5830e+02	-16.6215	-78.508160	0.000051	0.507078	0.171803	0.000020
1593	1.5840e+02	-16.5733	-78.427417	0.000203	2.028313	0.687211	0.000081
1594	1.5850e+02	-16.5364	-78.362823	0.000162	1.622650	0.549769	0.000065
1595	1.5860e+02	-16.4915	-78.330526	0.000081	0.811325	0.274884	0.000032
1596	1.5870e+02	-16.4562	-78.253821	0.000193	1.926897	0.652850	0.000077
1597	1.5880e+02	-16.4177	-78.177115	0.000193	1.926897	0.652850	0.000077
1598	1.5890e+02	-16.3792	-78.108484	0.000172	1.724066	0.584129	0.000069
1599	1.5900e+02	-16.3391	-78.060038	0.000122	1.216988	0.412327	0.000049
1600	1.5910e+02	-16.3038	-77.959110	0.000254	2.535391	0.859014	0.000101
1601	1.5920e+02	-16.2573	-77.842033	0.000294	2.941054	0.996456	0.000118
1602	1.5930e+02	-16.2188	-77.777439	0.000162	1.622650	0.549769	0.000065
1603	1.5940e+02	-16.1707	-77.749179	0.000071	0.709909	0.240524	0.000028
1604	1.5950e+02	-16.1402	-77.656324	0.000233	2.332560	0.790293	0.000093
1605	1.5960e+02	-16.0953	-77.575582	0.000203	2.028313	0.687211	0.000081
1606	1.5970e+02	-16.0600	-77.539248	0.000091	0.912741	0.309245	0.000037
1607	1.5980e+02	-16.0118	-77.410059	0.000325	3.245300	1.099538	0.000130
1608	1.5990e+02	-15.9782	-77.288945	0.000304	3.042469	1.030816	0.000122
1609	1.6000e+02	-15.9477	-77.268759	0.000051	0.507078	0.171803	0.000020
1610	1.6010e+02	-15.8979	-77.159757	0.000274	2.738222	0.927735	0.000110
1611	1.6019e+02	-15.8675	-77.107274	0.000132	1.318403	0.446687	0.000053
1612	1.6029e+02	-15.8145	-76.937714	0.000426	4.259457	1.443143	0.000170
1613	1.6039e+02	-15.7760	-76.945789	-0.000020	-0.202831	-0.068721	-0.000008
1614	1.6049e+02	-15.7391	-76.784303	0.000406	4.056626	1.374422	0.000162
1615	1.6059e+02	-15.6910	-76.772192	0.000030	0.304247	0.103082	0.000012
1616	1.6069e+02	-15.6669	-76.683375	0.000223	2.231144	0.755932	0.000089
1617	1.6079e+02	-15.6204	-76.590521	0.000233	2.332560	0.790293	0.000093
1618	1.6089e+02	-15.5803	-76.525926	0.000162	1.622650	0.549769	0.000065
1619	1.6099e+02	-15.5434	-76.420961	0.000264	2.636807	0.893374	0.000105
1620	1.6109e+02	-15.5033	-76.344255	0.000193	1.926897	0.652850	0.000077
1621	1.6119e+02	-15.4616	-76.251401	0.000233	2.332560	0.790293	0.000093
1622	1.6129e+02	-15.4167	-76.154510	0.000243	2.433975	0.824653	0.000097
1623	1.6139e+02	-15.3814	-76.073767	0.000203	2.028313	0.687211	0.000081
1624	1.6149e+02	-15.3317	-75.944579	0.000325	3.245300	1.099538	0.000130
1625	1.6159e+02	-15.2980	-75.908245	0.000091	0.912741	0.309245	0.000037
1626	1.6169e+02	-15.2643	-75.803279	0.000264	2.636807	0.893374	0.000105
1627	1.6179e+02	-15.2194	-75.738685	0.000162	1.622650	0.549769	0.000065
1628	1.6189e+02	-15.1841	-75.617571	0.000304	3.042469	1.030816	0.000122
1629	1.6199e+02	-15.1472	-75.552977	0.000162	1.622650	0.549769	0.000065
1630	1.6209e+02	-15.0990	-75.435900	0.000294	2.941054	0.996456	0.000118
1631	1.6219e+02	-15.0670	-75.334971	0.000254	2.535391	0.859014	0.000101
1632	1.6228e+02	-15.0220	-75.286526	0.000122	1.216988	0.412327	0.000049
1633	1.6238e+02	-14.9851	-75.205783	0.000203	2.028313	0.687211	0.000081
1634	1.6248e+02	-14.9418	-75.080632	0.000314	3.143885	1.065177	0.000126
1635	1.6258e+02	-14.8969	-74.975666	0.000264	2.636807	0.893374	0.000105
1636	1.6268e+02	-14.8632	-74.870701	0.000264	2.636807	0.893374	0.000105
1637	1.6278e+02	-14.8215	-74.802070	0.000172	1.724066	0.584129	0.000069
1638	1.6288e+02	-14.7830	-74.697104	0.000264	2.636807	0.893374	0.000105
1639	1.6298e+02	-14.7381	-74.640584	0.000142	1.419819	0.481048	0.000057
1640	1.6308e+02	-14.7028	-74.575990	0.000162	1.622650	0.549769	0.000065
1641	1.6318e+02	-14.6707	-74.462950	0.000284	2.839638	0.962095	0.000114
1642	1.6328e+02	-14.6242	-74.434690	0.000071	0.709909	0.240524	0.000028
1643	1.6338e+02	-14.5777	-74.349910	0.000213	2.129728	0.721572	0.000085
1644	1.6348e+02	-14.5440	-74.253019	0.000243	2.433975	0.824653	0.000097
1645	1.6358e+02	-14.4926	-74.164202	0.000223	2.231144	0.755932	0.000089
1646	1.6368e+02	-14.4686	-74.075385	0.000223	2.231144	0.755932	0.000089
1647	1.6378e+02	-14.4317	-73.954271	0.000304	3.042469	1.030816	0.000122
1648	1.6388e+02	-14.3884	-73.873528	0.000203	2.028313	0.687211	0.000081
1649	1.6398e+02	-14.3402	-73.772600	0.000254	2.535391	0.859014	0.000101
1650	1.6408e+02	-14.3130	-73.703969	0.000172	1.724066	0.584129	0.000069
1651	1.6418e+02	-14.2632	-73.578817	0.000314	3.143885	1.065177	0.000126
1652	1.6427e+02	-14.2199	-73.554595	0.000061	0.608494	0.206163	0.000024
1653	1.6437e+02	-14.1862	-73.433481	0.000304	3.042469	1.030816	0.000122
1654	1.6447e+02	-14.1461	-73.352738	0.000203	2.028313	0.687211	0.000081
1655	1.6457e+02	-14.1044	-73.243735	0.000274	2.738222	0.927735	0.000110
1656	1.6467e+02	-14.0739	-73.171067	0.000183	1.825482	0.618490	0.000073
1657	1.6477e+02	-14.0242	-73.029767	0.000355	3.549547	1.202619	0.000142
1658	1.6487e+02	-13.9809	-72.965173	0.000162	1.622650	0.549769	0.000065
1659	1.6497e+02	-13.9472	-72.864244	0.000254	2.535391	0.859014	0.000101
1660	1.6507e+02	-13.9023	-72.787539	0.000193	1.926897	0.652850	0.000077
1661	1.6517e+02	-13.8702	-72.718907	0.000172	1.724066	0.584129	0.000069
1662	1.6527e+02	-13.8221	-72.613942	0.000264	2.636807	0.893374	0.000105
1663	1.6537e+02	-13.7836	-72.460531	0.000385	3.853794	1.305701	0.000154
1664	1.6547e+02	-13.7467	-72.444382	0.000041	0.405663	0.137442	0.000016
1665	1.6557e+02	-13.7130	-72.319231	0.000314	3.143885	1.065177	0.000126
1666	1.6567e+02	-13.6745	-72.206191	0.000284	2.839638	0.962095	0.000114
1667	1.6577e+02	-13.6376	-72.149671	0.000142	1.419819	0.481048	0.000057
1668	1.6587e+02	-13.5895	-72.020483	0.000325	3.245300	1.099538	0.000130
1669	1.6597e+02	-13.5461	-71.903406	0.000294	2.941054	0.996456	0.000118
1670	1.6607e+02	-13.5028	-71.770181	0.000335	3.346716	1.133898	0.000134
1671	1.6616e+02	-13.4675	-71.653104	0.000294	2.941054	0.996456	0.000118
1672	1.6626e+02	-13.4322	-71.588509	0.000162	1.622650	0.549769	0.000065
1673	1.6636e+02	-13.3953	-71.527952	0.000152	1.521235	0.515408	0.000061
1674	1.6646e+02	-13.3472	-71.390690	0.000345	3.448132	1.168259	0.000138
1675	1.6656e+02	-13.2991	-71.281687	0.000274	2.738222	0.927735	0.000110
1676	1.6666e+02	-13.2702	-71.229204	0.000132	1.318403	0.446687	0.000053
1677	1.6676e+02	-13.2397	-71.124239	0.000264	2.636807	0.893374	0.000105
1678	1.6686e+02	-13.1836	-71.019273	0.000264	2.636807	0.893374	0.000105
1679	1.6696e+02	-13.1499	-70.926419	0.000233	2.332560	0.790293	0.000093
1680	1.6706e+02	-13.1098	-70.789157	0.000345	3.448132	1.168259	0.000138
1681	1.6716e+02	-13.0697	-70.740711	0.000122	1.216988	0.412327	0.000049
1682	1.6726e+02	-13.0360	-70.615560	0.000314	3.143885	1.065177	0.000126
1683	1.6736e+02	-12.9863	-70.514631	0.000254	2.535391	0.859014	0.000101
1684	1.6746e+02	-12.9574	-70.446000	0.000172	1.724066	0.584129	0.000069
1685	1.6756e+02	-12.9109	-70.304700	0.000355	3.549547	1.202619	0.000142
1686	1.6766e+02	-12.8692	-70.240106	0.000162	1.622650	0.549769	0.000065
1687	1.6776e+02	-12.8371	-70.123029	0.000294	2.941054	0.996456	0.000118
1688	1.6786e+02	-12.7889	-70.026138	0.000243	2.433975	0.824653	0.000097
1689	1.6796e+02	-12.7520	-69.957507	0.000172	1.724066	0.584129	0.000069
1690	1.6806e+02	-12.7087	-69.812170	0.000365	3.650963	1.236980	0.000146
1691	1.6816e+02	-12.6686	-69.703167	0.000274	2.738222	0.927735	0.000110
1692	1.6825e+02	-12.6398	-69.618387	0.000213	2.129728	0.721572	0.000085
1693	1.6835e+02	-12.5900	-69.505347	0.000284	2.839638	0.962095	0.000114
1694	1.6845e+02	-12.5547	-69.428642	0.000193	1.926897	0.652850	0.000077
1695	1.6855e+02	-12.5130	-69.303491	0.000314	3.143885	1.065177	0.000126
1696	1.6865e+02	-12.4745	-69.210637	0.000233	2.332560	0.790293	0.000093
1697	1.6875e+02	-12.4200	-69.129894	0.000203	2.028313	0.687211	0.000081
1698	1.6885e+02	-12.3975	-69.000705	0.000325	3.245300	1.099538	0.000130
1699	1.6895e+02	-12.3558	-68.883629	0.000294	2.941054	0.996456	0.000118
1700	1.6905e+02	-12.3189	-68.798849	0.000213	2.129728	0.721572	0.000085
1701	1.6915e+02	-12.2660	-68.710032	0.000223	2.231144	0.755932	0.000089
1702	1.6925e+02	-12.2323	-68.605066	0.000264	2.636807	0.893374	0.000105
1703	1.6935e+02	-12.1954	-68.500101	0.000264	2.636807	0.893374	0.000105
1704	1.6945e+02	-12.1617	-68.370912	0.000325	3.245300	1.099538	0.000130
1705	1.6955e+02	-12.1071	-68.294207	0.000193	1.926897	0.652850	0.000077
1706	1.6965e+02	-12.0767	-68.173093	0.000304	3.042469	1.030816	0.000122
1707	1.6975e+02	-12.0317	-68.043904	0.000325	3.245300	1.099538	0.000130
1708	1.6985e+02	-11.9997	-67.951050	0.000233	2.332560	0.790293	0.000093
1709	1.6995e+02	-11.9467	-67.813788	0.000345	3.448132	1.168259	0.000138
1710	1.7005e+02	-11.9194	-67.720933	0.000233	2.332560	0.790293	0.000093
1711	1.7015e+02	-11.8729	-67.632116	0.000223	2.231144	0.755932	0.000089
1712	1.7024e+02	-11.8360	-67.474668	0.000396	3.955210	1.340061	0.000158
1713	1.7034e+02	-11.7959	-67.357591	0.000294	2.941054	0.996456	0.000118
1714	1.7044e+02	-11.7462	-67.301071	0.000142	1.419819	0.481048	0.000057
1715	1.7054e+02	-11.7141	-67.163809	0.000345	3.448132	1.168259	0.000138
1716	1.7064e+02	-11.6772	-67.026546	0.000345	3.448132	1.168259	0.000138
1717	1.7074e+02	-11.6467	-66.945803	0.000203	2.028313	0.687211	0.000081
1718	1.7084e+02	-11.5874	-66.873135	0.000183	1.825482	0.618490	0.000073
1719	1.7094e+02	-11.5553	-66.731835	0.000355	3.549547	1.202619	0.000142
1720	1.7104e+02	-11.5200	-66.610721	0.000304	3.042469	1.030816	0.000122
1721	1.7114e+02	-11.4799	-66.525941	0.000213	2.129728	0.721572	0.000085
1722	1.7124e+02	-11.4382	-66.445199	0.000203	2.028313	0.687211	0.000081
1723	1.7134e+02	-11.3949	-66.336196	0.000274	2.738222	0.927735	0.000110
1724	1.7144e+02	-11.3548	-66.215082	0.000304	3.042469	1.030816	0.000122
1725	1.7154e+02	-11.3243	-66.098005	0.000294	2.941054	0.996456	0.000118
1726	1.7164e+02	-11.2810	-65.984965	0.000284	2.839638	0.962095	0.000114
1727	1.7174e+02	-11.2328	-65.839628	0.000365	3.650963	1.236980	0.000146
1728	1.7184e+02	-11.1943	-65.726588	0.000284	2.839638	0.962095	0.000114
1729	1.7194e+02	-11.1623	-65.653920	0.000183	1.825482	0.618490	0.000073
1730	1.7204e+02	-11.1141	-65.524732	0.000325	3.245300	1.099538	0.000130
1731	1.7213e+02	-11.0852	-65.456100	0.000172	1.724066	0.584129	0.000069
1732	1.7223e+02	-11.0371	-65.274429	0.000456	4.563704	1.546225	0.000183
1733	1.7233e+02	-11.0034	-65.173501	0.000254	2.535391	0.859014	0.000101
1734	1.7243e+02	-10.9537	-65.060461	0.000284	2.839638	0.962095	0.000114
1735	1.7253e+02	-10.9232	-64.975681	0.000213	2.129728	0.721572	0.000085
1736	1.7263e+02	-10.8767	-64.838419	0.000345	3.448132	1.168259	0.000138
1737	1.7273e+02	-10.8334	-64.705193	0.000335	3.346716	1.133898	0.000134
1738	1.7283e+02	-10.8013	-64.628487	0.000193	1.926897	0.652850	0.000077
1739	1.7293e+02	-10.7612	-64.471039	0.000396	3.955210	1.340061	0.000158
1740	1.7303e+02	-10.7275	-64.366074	0.000264	2.636807	0.893374	0.000105
1741	1.7313e+02	-10.6714	-64.305517	0.000152	1.521235	0.515408	0.000061
1742	1.7323e+02	-10.6377	-64.184403	0.000304	3.042469	1.030816	0.000122
1743	1.7333e+02	-10.6024	-64.043103	0.000355	3.549547	1.202619	0.000142
1744	1.7343e+02	-10.5559	-63.954286	0.000223	2.231144	0.755932	0.000089
1745	1.7353e+02	-10.5238	-63.845283	0.000274	2.738222	0.927735	0.000110
1746	1.7363e+02	-10.4805	-63.712058	0.000335	3.346716	1.133898	0.000134
1747	1.7373e+02	-10.4420	-63.562684	0.000375	3.752379	1.271340	0.000150
1748	1.7383e+02	-10.4051	-63.502127	0.000152	1.521235	0.515408	0.000061
1749	1.7393e+02	-10.3569	-63.320455	0.000456	4.563704	1.546225	0.000183
1750	1.7403e+02	-10.3248	-63.243750	0.000193	1.926897	0.652850	0.000077
1751	1.7413e+02	-10.2831	-63.110524	0.000335	3.346716	1.133898	0.000134
1752	1.7422e+02	-10.2398	-62.969225	0.000355	3.549547	1.202619	0.000142
1753	1.7432e+02	-10.2045	-62.844073	0.000314	3.143885	1.065177	0.000126
1754	1.7442e+02	-10.1644	-62.702774	0.000355	3.549547	1.202619	0.000142
1755	1.7452e+02	-10.1243	-62.589734	0.000284	2.839638	0.962095	0.000114
1756	1.7462e+02	-10.0810	-62.456508	0.000335	3.346716	1.133898	0.000134
1757	1.7472e+02	-10.0441	-62.335394	0.000304	3.042469	1.030816	0.000122
1758	1.7482e+02	-10.0072	-62.238503	0.000243	2.433975	0.824653	0.000097
1759	1.7492e+02	-9.9607	-62.105278	0.000335	3.346716	1.133898	0.000134
1760	1.7502e+02	-9.9286	-61.951866	0.000385	3.853794	1.305701	0.000154
1761	1.7512e+02	-9.8853	-61.859012	0.000233	2.332560	0.790293	0.000093
1762	1.7522e+02	-9.8388	-61.741935	0.000294	2.941054	0.996456	0.000118
1763	1.7532e+02	-9.8019	-61.612747	0.000325	3.245300	1.099538	0.000130
1764	1.7542e+02	-9.7585	-61.443187	0.000426	4.259457	1.443143	0.000170
1765	1.7552e+02	-9.7168	-61.378593	0.000162	1.622650	0.549769	0.000065
1766	1.7562e+02	-9.6848	-61.225182	0.000385	3.853794	1.305701	0.000154
1767	1.7572e+02	-9.6382	-61.120217	0.000264	2.636807	0.893374	0.000105
1768	1.7582e+02	-9.6029	-60.978917	0.000355	3.549547	1.202619	0.000142
1769	1.7592e+02	-9.5725	-60.857803	0.000304	3.042469	1.030816	0.000122
1770	1.7602e+02	-9.5340	-60.764949	0.000233	2.332560	0.790293	0.000093
1771	1.7612e+02	-9.4842	-60.607500	0.000396	3.955210	1.340061	0.000158
1772	1.7621e+02	-9.4473	-60.494460	0.000284	2.839638	0.962095	0.000114
1773	1.7631e+02	-9.4056	-60.365272	0.000325	3.245300	1.099538	0.000130
1774	1.7641e+02	-9.3687	-60.195712	0.000426	4.259457	1.443143	0.000170
1775	1.7651e+02	-9.3302	-60.074598	0.000304	3.042469	1.030816	0.000122
1776	1.7661e+02	-9.2837	-59.941373	0.000335	3.346716	1.133898	0.000134
1777	1.7671e+02	-9.2436	-59.840444	0.000254	2.535391	0.859014	0.000101
1778	1.7681e+02	-9.2035	-59.723368	0.000294	2.941054	0.996456	0.000118
1779	1.7691e+02	-9.1618	-59.569956	0.000385	3.853794	1.305701	0.000154
1780	1.7701e+02	-9.1265	-59.448842	0.000304	3.042469	1.030816	0.000122
1781	1.7711e+02	-9.0912	-59.291394	0.000396	3.955210	1.340061	0.000158
1782	1.7721e+02	-9.0479	-59.194503	0.000243	2.433975	0.824653	0.000097
1783	1.7731e+02	-9.0110	-59.045129	0.000375	3.752379	1.271340	0.000150
1784	1.7741e+02	-8.9612	-58.911903	0.000335	3.346716	1.133898	0.000134
1785	1.7751e+02	-8.9276	-58.786752	0.000314	3.143885	1.065177	0.000126
1786	1.7761e+02	-8.8891	-58.665638	0.000304	3.042469	1.030816	0.000122
1787	1.7771e+02	-8.8570	-58.548561	0.000294	2.941054	0.996456	0.000118
1788	1.7781e+02	-8.8153	-58.383038	0.000416	4.158041	1.408782	0.000166
1789	1.7791e+02	-8.7607	-58.286147	0.000243	2.433975	0.824653	0.000097
1790	1.7801e+02	-8.7254	-58.140810	0.000365	3.650963	1.236980	0.000146
1791	1.7810e+02	-8.6789	-57.991436	0.000375	3.752379	1.271340	0.000150
1792	1.7820e+02	-8.6484	-57.829951	0.000406	4.056626	1.374422	0.000162
1793	1.7830e+02	-8.6147	-57.716911	0.000284	2.839638	0.962095	0.000114
1794	1.7840e+02	-8.5746	-57.603871	0.000284	2.839638	0.962095	0.000114
1795	1.7850e+02	-8.5297	-57.486794	0.000294	2.941054	0.996456	0.000118
1796	1.7860e+02	-8.4864	-57.333383	0.000385	3.853794	1.305701	0.000154
1797	1.7870e+02	-8.4447	-57.260715	0.000183	1.825482	0.618490	0.000073
1798	1.7880e+02	-8.4126	-57.111341	0.000375	3.752379	1.271340	0.000150
1799	1.7890e+02	-8.3709	-56.945818	0.000416	4.158041	1.408782	0.000166
1800	1.7900e+02	-8.3244	-56.840853	0.000264	2.636807	0.893374	0.000105
1801	1.7910e+02	-8.2939	-56.679367	0.000406	4.056626	1.374422	0.000162
1802	1.7920e+02	-8.2522	-56.566327	0.000284	2.839638	0.962095	0.000114
1803	1.7930e+02	-8.2089	-56.392731	0.000436	4.360872	1.477504	0.000174
1804	1.7940e+02	-8.1688	-56.303914	0.000223	2.231144	0.755932	0.000089
1805	1.7950e+02	-8.1303	-56.142428	0.000406	4.056626	1.374422	0.000162
1806	1.7960e+02	-8.0950	-56.009203	0.000335	3.346716	1.133898	0.000134
1807	1.7970e+02	-8.0484	-55.863866	0.000365	3.650963	1.236980	0.000146
1808	1.7980e+02	-8.0099	-55.762937	0.000254	2.535391	0.859014	0.000101
1809	1.7990e+02	-7.9795	-55.601452	0.000406	4.056626	1.374422	0.000162
1810	1.8000e+02	-7.9313	-55.435929	0.000416	4.158041	1.408782	0.000166
1811	1.8009e+02	-7.8800	-55.347112	0.000223	2.231144	0.755932	0.000089
1812	1.8019e+02	-7.8543	-55.205813	0.000355	3.549547	1.202619	0.000142
1813	1.8029e+02	-7.8126	-55.076624	0.000325	3.245300	1.099538	0.000130
1814	1.8039e+02	-7.7661	-54.923213	0.000385	3.853794	1.305701	0.000154
1815	1.8049e+02	-7.7276	-54.769802	0.000385	3.853794	1.305701	0.000154
1816	1.8059e+02	-7.6891	-54.616391	0.000385	3.853794	1.305701	0.000154
1817	1.8069e+02	-7.6586	-54.511425	0.000264	2.636807	0.893374	0.000105
1818	1.8079e+02	-7.6137	-54.362051	0.000375	3.752379	1.271340	0.000150
1819	1.8089e+02	-7.5736	-54.228826	0.000335	3.346716	1.133898	0.000134
1820	1.8099e+02	-7.5239	-54.103675	0.000314	3.143885	1.065177	0.000126
1821	1.8109e+02	-7.4854	-53.958338	0.000365	3.650963	1.236980	0.000146
1822	1.8119e+02	-7.4581	-53.804927	0.000385	3.853794	1.305701	0.000154
1823	1.8129e+02	-7.4116	-53.703998	0.000254	2.535391	0.859014	0.000101
1824	1.8139e+02	-7.3666	-53.530401	0.000436	4.360872	1.477504	0.000174
1825	1.8149e+02	-7.3249	-53.433510	0.000243	2.433975	0.824653	0.000097
1826	1.8159e+02	-7.2928	-53.272025	0.000406	4.056626	1.374422	0.000162
1827	1.8169e+02	-7.2592	-53.150911	0.000304	3.042469	1.030816	0.000122
1828	1.8179e+02	-7.2126	-52.973277	0.000446	4.462288	1.511864	0.000179
1829	1.8189e+02	-7.1773	-52.844088	0.000325	3.245300	1.099538	0.000130
1830	1.8199e+02	-7.1260	-52.686640	0.000396	3.955210	1.340061	0.000158
1831	1.8209e+02	-7.0907	-52.521117	0.000416	4.158041	1.408782	0.000166
1832	1.8218e+02	-7.0506	-52.432300	0.000223	2.231144	0.755932	0.000089
1833	1.8228e+02	-7.0121	-52.266778	0.000416	4.158041	1.408782	0.000166
1834	1.8238e+02	-6.9736	-52.101255	0.000416	4.158041	1.408782	0.000166
1835	1.8248e+02	-6.9319	-51.931696	0.000426	4.259457	1.443143	0.000170
1836	1.8258e+02	-6.8998	-51.842879	0.000223	2.231144	0.755932	0.000089
1837	1.8268e+02	-6.8485	-51.665245	0.000446	4.462288	1.511864	0.000179
1838	1.8278e+02	-6.8148	-51.503759	0.000406	4.056626	1.374422	0.000162
1839	1.8288e+02	-6.7779	-51.378608	0.000314	3.143885	1.065177	0.000126
1840	1.8298e+02	-6.7362	-51.277680	0.000254	2.535391	0.859014	0.000101
1841	1.8308e+02	-6.6816	-51.087934	0.000477	4.766535	1.614946	0.000191
1842	1.8318e+02	-6.6560	-50.934523	0.000385	3.853794	1.305701	0.000154
1843	1.8328e+02	-6.6094	-50.809372	0.000314	3.143885	1.065177	0.000126
1844	1.8338e+02	-6.5725	-50.659998	0.000375	3.752379	1.271340	0.000150
1845	1.8348e+02	-6.5372	-50.546958	0.000284	2.839638	0.962095	0.000114
1846	1.8358e+02	-6.4955	-50.369324	0.000446	4.462288	1.511864	0.000179
1847	1.8368e+02	-6.4538	-50.232061	0.000345	3.448132	1.168259	0.000138
1848	1.8378e+02	-6.4185	-50.046353	0.000467	4.665119	1.580585	0.000187
1849	1.8388e+02	-6.3816	-49.941388	0.000264	2.636807	0.893374	0.000105
1850	1.8398e+02	-6.3319	-49.808162	0.000335	3.346716	1.133898	0.000134
1851	1.8407e+02	-6.3030	-49.638602	0.000426	4.259457	1.443143	0.000170
1852	1.8417e+02	-6.2581	-49.505377	0.000335	3.346716	1.133898	0.000134
1853	1.8427e+02	-6.2228	-49.351966	0.000385	3.853794	1.305701	0.000154
1854	1.8437e+02	-6.1779	-49.238926	0.000284	2.839638	0.962095	0.000114
1855	1.8447e+02	-6.1314	-49.077441	0.000406	4.056626	1.374422	0.000162
1856	1.8457e+02	-6.1025	-48.924029	0.000385	3.853794	1.305701	0.000154
1857	1.8467e+02	-6.0592	-48.758507	0.000416	4.158041	1.408782	0.000166
1858	1.8477e+02	-6.0143	-48.637393	0.000304	3.042469	1.030816	0.000122
1859	1.8487e+02	-5.9774	-48.483982	0.000385	3.853794	1.305701	0.000154
1860	1.8497e+02	-5.9469	-48.306348	0.000446	4.462288	1.511864	0.000179
1861	1.8507e+02	-5.9004	-48.189271	0.000294	2.941054	0.996456	0.000118
1862	1.8517e+02	-5.8619	-48.031822	0.000396	3.955210	1.340061	0.000158
1863	1.8527e+02	-5.8169	-47.914746	0.000294	2.941054	0.996456	0.000118
1864	1.8537e+02	-5.7817	-47.753260	0.000406	4.056626	1.374422	0.000162
1865	1.8547e+02	-5.7351	-47.603886	0.000375	3.752379	1.271340	0.000150
1866	1.8557e+02	-5.6982	-47.462586	0.000355	3.549547	1.202619	0.000142
1867	1.8567e+02	-5.6662	-47.276878	0.000467	4.665119	1.580585	0.000187
1868	1.8577e+02	-5.6148	-47.167875	0.000274	2.738222	0.927735	0.000110
1869	1.8587e+02	-5.5763	-47.022539	0.000365	3.650963	1.236980	0.000146
1870	1.8597e+02	-5.5298	-46.893350	0.000325	3.245300	1.099538	0.000130
1871	1.8606e+02	-5.5025	-46.727828	0.000416	4.158041	1.408782	0.000166
1872	1.8616e+02	-5.4592	-46.554231	0.000436	4.360872	1.477504	0.000174
1873	1.8626e+02	-5.4271	-46.465414	0.000223	2.231144	0.755932	0.000089
1874	1.8636e+02	-5.3838	-46.299891	0.000416	4.158041	1.408782	0.000166
1875	1.8646e+02	-5.3405	-46.170703	0.000325	3.245300	1.099538	0.000130
1876	1.8656e+02	-5.2988	-45.980957	0.000477	4.766535	1.614946	0.000191
1877	1.8666e+02	-5.2603	-45.851769	0.000325	3.245300	1.099538	0.000130
1878	1.8676e+02	-5.2218	-45.694321	0.000396	3.955210	1.340061	0.000158
1879	1.8686e+02	-5.1833	-45.561095	0.000335	3.346716	1.133898	0.000134
1880	1.8696e+02	-5.1432	-45.387499	0.000436	4.360872	1.477504	0.000174
1881	1.8706e+02	-5.1047	-45.250236	0.000345	3.448132	1.168259	0.000138
1882	1.8716e+02	-5.0678	-45.068565	0.000456	4.563704	1.546225	0.000183
1883	1.8726e+02	-5.0293	-44.939376	0.000325	3.245300	1.099538	0.000130
1884	1.8736e+02	-4.9892	-44.753668	0.000467	4.665119	1.580585	0.000187
1885	1.8746e+02	-4.9442	-44.580071	0.000436	4.360872	1.477504	0.000174
1886	1.8756e+02	-4.9009	-44.450883	0.000325	3.245300	1.099538	0.000130
1887	1.8766e+02	-4.8624	-44.277286	0.000436	4.360872	1.477504	0.000174
1888	1.8776e+02	-4.8239	-44.131949	0.000365	3.650963	1.236980	0.000146
1889	1.8786e+02	-4.7806	-43.986612	0.000365	3.650963	1.236980	0.000146
1890	1.8796e+02	-4.7469	-43.821090	0.000416	4.158041	1.408782	0.000166
1891	1.8806e+02	-4.7132	-43.647493	0.000436	4.360872	1.477504	0.000174
1892	1.8815e+02	-4.6651	-43.510230	0.000345	3.448132	1.168259	0.000138
1893	1.8825e+02	-4.6218	-43.296262	0.000538	5.375029	1.821109	0.000215
1894	1.8835e+02	-4.5817	-43.142851	0.000385	3.853794	1.305701	0.000154
1895	1.8845e+02	-4.5480	-42.989440	0.000385	3.853794	1.305701	0.000154
1896	1.8855e+02	-4.5095	-42.823917	0.000416	4.158041	1.408782	0.000166
1897	1.8865e+02	-4.4630	-42.706840	0.000294	2.941054	0.996456	0.000118
1898	1.8875e+02	-4.4213	-42.561504	0.000365	3.650963	1.236980	0.000146
1899	1.8885e+02	-4.3892	-42.387907	0.000436	4.360872	1.477504	0.000174
1900	1.8895e+02	-4.3475	-42.226421	0.000406	4.056626	1.374422	0.000162
1901	1.8905e+02	-4.3090	-42.048787	0.000446	4.462288	1.511864	0.000179
1902	1.8915e+02	-4.2705	-41.867116	0.000456	4.563704	1.546225	0.000183
1903	1.8925e+02	-4.2223	-41.774262	0.000233	2.332560	0.790293	0.000093
1904	1.8935e+02	-4.2015	-41.560294	0.000538	5.375029	1.821109	0.000215
1905	1.8945e+02	-4.1502	-41.439180	0.000304	3.042469	1.030816	0.000122
1906	1.8955e+02	-4.1100	-41.241360	0.000497	4.969366	1.683667	0.000199
1907	1.8965e+02	-4.0571	-41.100060	0.000355	3.549547	1.202619	0.000142
1908	1.8975e+02	-4.0266	-40.918389	0.000456	4.563704	1.546225	0.000183
1909	1.8985e+02	-3.9833	-40.789201	0.000325	3.245300	1.099538	0.000130
1910	1.8995e+02	-3.9528	-40.639827	0.000375	3.752379	1.271340	0.000150
1911	1.9004e+02	-3.9063	-40.454119	0.000467	4.665119	1.580585	0.000187
1912	1.9014e+02	-3.8694	-40.276485	0.000446	4.462288	1.511864	0.000179
1913	1.9024e+02	-3.8325	-40.147296	0.000325	3.245300	1.099538	0.000130
1914	1.9034e+02	-3.7876	-39.973700	0.000436	4.360872	1.477504	0.000174
1915	1.9044e+02	-3.7443	-39.808177	0.000416	4.158041	1.408782	0.000166
1916	1.9054e+02	-3.7058	-39.610357	0.000497	4.969366	1.683667	0.000199
1917	1.9064e+02	-3.6753	-39.489243	0.000304	3.042469	1.030816	0.000122
1918	1.9074e+02	-3.6384	-39.287386	0.000507	5.070782	1.718027	0.000203
1919	1.9084e+02	-3.5871	-39.138012	0.000375	3.752379	1.271340	0.000150
1920	1.9094e+02	-3.5454	-38.956341	0.000456	4.563704	1.546225	0.000183
1921	1.9104e+02	-3.5101	-38.762559	0.000487	4.867951	1.649306	0.000195
1922	1.9114e+02	-3.4684	-38.609148	0.000385	3.853794	1.305701	0.000154
1923	1.9124e+02	-3.4315	-38.395179	0.000538	5.375029	1.821109	0.000215
1924	1.9134e+02	-3.3946	-38.225620	0.000426	4.259457	1.443143	0.000170
1925	1.9144e+02	-3.3545	-38.076246	0.000375	3.752379	1.271340	0.000150
1926	1.9154e+02	-3.3047	-37.854203	0.000558	5.577860	1.889830	0.000223
1927	1.9164e+02	-3.2758	-37.696755	0.000396	3.955210	1.340061	0.000158
1928	1.9174e+02	-3.2309	-37.555455	0.000355	3.549547	1.202619	0.000142
1929	1.9184e+02	-3.1860	-37.345524	0.000527	5.273613	1.786749	0.000211
1930	1.9194e+02	-3.1475	-37.163853	0.000456	4.563704	1.546225	0.000183
1931	1.9203e+02	-3.1074	-36.998330	0.000416	4.158041	1.408782	0.000166
1932	1.9213e+02	-3.0641	-36.812622	0.000467	4.665119	1.580585	0.000187
1933	1.9223e+02	-3.0384	-36.634988	0.000446	4.462288	1.511864	0.000179
1934	1.9233e+02	-2.9919	-36.449280	0.000467	4.665119	1.580585	0.000187
1935	1.9243e+02	-2.9422	-36.215126	0.000588	5.882107	1.992912	0.000235
1936	1.9253e+02	-2.9229	-36.085938	0.000325	3.245300	1.099538	0.000130
1937	1.9263e+02	-2.8764	-35.863895	0.000558	5.577860	1.889830	0.000223
1938	1.9273e+02	-2.8251	-35.710484	0.000385	3.853794	1.305701	0.000154
1939	1.9283e+02	-2.7962	-35.492479	0.000548	5.476445	1.855470	0.000219
1940	1.9293e+02	-2.7609	-35.367328	0.000314	3.143885	1.065177	0.000126
1941	1.9303e+02	-2.7192	-35.137211	0.000578	5.780691	1.958551	0.000231
1942	1.9313e+02	-2.6662	-34.995911	0.000355	3.549547	1.202619	0.000142
1943	1.9323e+02	-2.6277	-34.794054	0.000507	5.070782	1.718027	0.000203
1944	1.9333e+02	-2.6005	-34.632569	0.000406	4.056626	1.374422	0.000162
1945	1.9343e+02	-2.5427	-34.426675	0.000517	5.172198	1.752388	0.000207
1946	1.9353e+02	-2.5010	-34.289412	0.000345	3.448132	1.168259	0.000138
1947	1.9363e+02	-2.4673	-34.067370	0.000558	5.577860	1.889830	0.000223
1948	1.9373e+02	-2.4352	-33.934144	0.000335	3.346716	1.133898	0.000134
1949	1.9383e+02	-2.3999	-33.716139	0.000548	5.476445	1.855470	0.000219
1950	1.9393e+02	-2.3486	-33.538505	0.000446	4.462288	1.511864	0.000179
1951	1.9403e+02	-2.3149	-33.328574	0.000527	5.273613	1.786749	0.000211
1952	1.9412e+02	-2.2812	-33.171126	0.000396	3.955210	1.340061	0.000158
1953	1.9422e+02	-2.2331	-32.977343	0.000487	4.867951	1.649306	0.000195
1954	1.9432e+02	-2.1930	-32.783561	0.000487	4.867951	1.649306	0.000195
1955	1.9442e+02	-2.1577	-32.585741	0.000497	4.969366	1.683667	0.000199
1956	1.9452e+02	-2.1064	-32.432330	0.000385	3.853794	1.305701	0.000154
1957	1.9462e+02	-2.0775	-32.250659	0.000456	4.563704	1.546225	0.000183
1958	1.9472e+02	-2.0454	-32.052839	0.000497	4.969366	1.683667	0.000199
1959	1.9482e+02	-1.9941	-31.879242	0.000436	4.360872	1.477504	0.000174
1960	1.9492e+02	-1.9588	-31.649126	0.000578	5.780691	1.958551	0.000231
1961	1.9502e+02	-1.9203	-31.495714	0.000385	3.853794	1.305701	0.000154
1962	1.9512e+02	-1.8689	-31.277709	0.000548	5.476445	1.855470	0.000219
1963	1.9522e+02	-1.8352	-31.051630	0.000568	5.679276	1.924191	0.000227
1964	1.9532e+02	-1.7951	-30.886107	0.000416	4.158041	1.408782	0.000166
1965	1.9542e+02	-1.7582	-30.647916	0.000598	5.983523	2.027272	0.000239
1966	1.9552e+02	-1.7197	-30.490468	0.000396	3.955210	1.340061	0.000158
1967	1.9562e+02	-1.6684	-30.333019	0.000396	3.955210	1.340061	0.000158
1968	1.9572e+02	-1.6411	-30.090791	0.000608	6.084938	2.061633	0.000243
1969	1.9582e+02	-1.6074	-29.856637	0.000588	5.882107	1.992912	0.000235
1970	1.9592e+02	-1.5529	-29.674966	0.000456	4.563704	1.546225	0.000183
1971	1.9601e+02	-1.5192	-29.505407	0.000426	4.259457	1.443143	0.000170
1972	1.9611e+02	-1.4727	-29.295475	0.000527	5.273613	1.786749	0.000211
1973	1.9621e+02	-1.4390	-29.089582	0.000517	5.172198	1.752388	0.000207
1974	1.9631e+02	-1.4069	-28.879651	0.000527	5.273613	1.786749	0.000211
1975	1.9641e+02	-1.3652	-28.742388	0.000345	3.448132	1.168259	0.000138
1976	1.9651e+02	-1.3042	-28.528420	0.000538	5.375029	1.821109	0.000215
1977	1.9661e+02	-1.2754	-28.318489	0.000527	5.273613	1.786749	0.000211
1978	1.9671e+02	-1.2353	-28.161040	0.000396	3.955210	1.340061	0.000158
1979	1.9681e+02	-1.1968	-27.926886	0.000588	5.882107	1.992912	0.000235
1980	1.9691e+02	-1.1550	-27.745215	0.000456	4.563704	1.546225	0.000183
1981	1.9701e+02	-1.1246	-27.511061	0.000588	5.882107	1.992912	0.000235
1982	1.9711e+02	-1.0813	-27.297093	0.000538	5.375029	1.821109	0.000215
1983	1.9721e+02	-1.0363	-27.079088	0.000548	5.476445	1.855470	0.000219
1984	1.9731e+02	-1.0026	-26.885305	0.000487	4.867951	1.649306	0.000195
1985	1.9741e+02	-0.9545	-26.703634	0.000456	4.563704	1.546225	0.000183
1986	1.9751e+02	-0.9160	-26.501778	0.000507	5.070782	1.718027	0.000203
1987	1.9761e+02	-0.8823	-26.307995	0.000487	4.867951	1.649306	0.000195
1988	1.9771e+02	-0.8422	-26.089990	0.000548	5.476445	1.855470	0.000219
1989	1.9781e+02	-0.7973	-25.884096	0.000517	5.172198	1.752388	0.000207
1990	1.9791e+02	-0.7588	-25.726647	0.000396	3.955210	1.340061	0.000158
1991	1.9800e+02	-0.7219	-25.504605	0.000558	5.577860	1.889830	0.000223
1992	1.9810e+02	-0.6834	-25.306785	0.000497	4.969366	1.683667	0.000199
1993	1.9820e+02	-0.6401	-25.064557	0.000608	6.084938	2.061633	0.000243
1994	1.9830e+02	-0.5920	-24.899035	0.000416	4.158041	1.408782	0.000166
1995	1.9840e+02	-0.5583	-24.701215	0.000497	4.969366	1.683667	0.000199
1996	1.9850e+02	-0.5134	-24.479173	0.000558	5.577860	1.889830	0.000223
1997	1.9860e+02	-0.4845	-24.273279	0.000517	5.172198	1.752388	0.000207
1998	1.9870e+02	-0.4460	-24.103719	0.000426	4.259457	1.443143	0.000170
1999	1.9880e+02	-0.4043	-23.901862	0.000507	5.070782	1.718027	0.000203
2000	1.9890e+02	-0.3610	-23.724228	0.000446	4.462288	1.511864	0.000179
2001	1.9900e+02	-0.3289	-23.514297	0.000527	5.273613	1.786749	0.000211
2002	1.9910e+02	-0.2839	-23.272069	0.000608	6.084938	2.061633	0.000243
2003	1.9920e+02	-0.2454	-23.045989	0.000568	5.679276	1.924191	0.000227
2004	1.9930e+02	-0.2005	-22.807798	0.000598	5.983523	2.027272	0.000239
2005	1.9940e+02	-0.1572	-22.601904	0.000517	5.172198	1.752388	0.000207
2006	1.9950e+02	-0.1251	-22.428308	0.000436	4.360872	1.477504	0.000174
2007	1.9960e+02	-0.0882	-22.169931	0.000649	6.490601	2.199075	0.000260
2008	1.9970e+02	-0.0433	-21.935777	0.000588	5.882107	1.992912	0.000235
2009	1.9980e+02	-0.0048	-21.721809	0.000588	5.882107	1.992912	0.000215

Center data before PMax,+/-Pr and +/-Vc Calc.

PMax (uC/cm2):	7.93e+01
Pr (uC/cm2):	1.39e+01
-Pr (uC/cm2):	-2.17e+01
PLoss (uC/cm2):	-2.12e+01
Vc:	8.15e-01
-Vc:	-2.69e+00
C (Max-Eff) (nF):	3.97e-01
K (Eff):	1.34e+03
Vert. (+/-Pr) Shift (uC/cm2):	-3.90e+00
Horiz. Shift (+/-Vc):	-9.36e-01
Offset (uC/cm2):	4.91e-01

A (Loop Area - uC/cm2·Volts):	-1.03e-02



Hysteresis Version: 5.48.1 - Radiant Technologies, Inc., 1999 - 9/12/24

