»»»»»»»»»»»»»»»»»»»»»»»»»»»»»»»»»»»» Hysteresis ««««««««««««««««««««««««««««««««««««
»»»  Executed Version:	5.48.1
»»»  Vision Version:	5.48.4 (R)
»»»  Vision Compiled:	9/18/24
»»»  Driver Version:	5.47.0
»»»  Windows Version:	Windows 8 or 8.1
»»»  Processor Information:	x86 (AMD or Intel) - 32 Processors
»»»  Tester Name:	PMF21124-494 (100V)
»»»  Tester S/N:	PMF21124-494
»»»  Internal Amp Type:	100V RevK 270k
»»»  Internal Amp S/N:	iAB2-596/K     
»»»  Execution Count:	1
»»»»»»»»»»»»»»»»»»»»»»»»»»»»»»»»»»»»»»»»»»««««««««««««««««««««««««««««««««««««««««««

Stored:	6/16/2025 - 10:50:31
Configured:	06/16/25 10:13:01 AM
Executed:	06/16/25 10:49:35 AM

»»»»»»»»»»»»»»»»»»»»»»»»»»»»»»»»»»» Sample Info ««««««««««««««««««««««««««««««««««««
Sample Name:	
Lot Name:	
Wafer Name:	
Die Row/Column:	0/0
Capacitor Number:	0
Sample Area (cm2):	1.00e-04
Sample Thickness (microns):	3.00e-01

Amplifier:	Internal

»»»»»»»»»»»»»»»»»»»»»»»»»»»»»»»»»»» Tester Info «««««««««««««««««««««««««««««««««««
Tester Name:	PMF21124-494 (100V)
Tester Serial Number:	PMF21124-494
Return Signal Amp. Level:	0.19 [Index: 3]

»»»»»»»»»»»»»»»»»»»»»»»»»»»»»»»» Hysteresis Info ««««««««««««««««««««««««««««««««««
Task Name:	Hyst-2190
Volts:	20.00
Field:	666.67 (kV/cm)
DCBias:	0.00
DCField:	0.00 (kV/cm)
Hysteresis Period (ms):	2.00e+02
Preset:	Enabled
Preset Delay (ms):	1.00e+03
Profile:	Standard Bipolar

»»»»»»»»»»»»»»»»»»»»»»»»»»»»»»»»»»»»»» Data «««««««««««««««««««««««««««««««««««««««
Points:	2009

Valid Data

Point	Time (ms)	Drive Voltage	Measured Polarization (uC/cm2)	Capacitance (uF)	Normalized Capacitance (uF/cm2)	Dielectric Constant	Instantaneous Current (mA)
   1	0.0000e+00	0.0064	9.545807	0.000213	2.128789	0.721253	0.000085
   2	9.9500e-02	0.0289	9.630587	0.000213	2.128789	0.721253	0.000085
   3	1.9900e-01	0.0658	9.824370	0.000487	4.865802	1.648578	0.000195
   4	2.9850e-01	0.1171	9.953558	0.000324	3.243868	1.099052	0.000130
   5	3.9800e-01	0.1588	10.098895	0.000365	3.649352	1.236434	0.000146
   6	4.9750e-01	0.1925	10.288640	0.000476	4.764431	1.614233	0.000191
   7	5.9700e-01	0.2294	10.454163	0.000416	4.156206	1.408161	0.000166
   8	6.9650e-01	0.2759	10.668131	0.000537	5.372657	1.820305	0.000215
   9	7.9600e-01	0.3064	10.789245	0.000304	3.041126	1.030362	0.000122
  10	8.9550e-01	0.3417	10.922471	0.000335	3.345239	1.133398	0.000134
  11	9.9500e-01	0.3866	11.136439	0.000537	5.372657	1.820305	0.000215
  12	1.0945e+00	0.4331	11.293887	0.000395	3.953464	1.339470	0.000158
  13	1.1940e+00	0.4684	11.451336	0.000395	3.953464	1.339470	0.000158
  14	1.2935e+00	0.5021	11.576487	0.000314	3.142497	1.064707	0.000126
  15	1.3930e+00	0.5454	11.774306	0.000497	4.967173	1.682924	0.000199
  16	1.4925e+00	0.5904	11.955977	0.000456	4.561690	1.545542	0.000183
  17	1.5920e+00	0.6176	12.109389	0.000385	3.852093	1.305125	0.000154
  18	1.6915e+00	0.6706	12.270874	0.000405	4.054835	1.373815	0.000162
  19	1.7910e+00	0.7075	12.440434	0.000426	4.257577	1.442506	0.000170
  20	1.8905e+00	0.7444	12.605956	0.000416	4.156206	1.408161	0.000166
  21	1.9900e+00	0.7861	12.791665	0.000466	4.663061	1.579888	0.000187
  22	2.0895e+00	0.8278	12.977373	0.000466	4.663061	1.579888	0.000187
  23	2.1890e+00	0.8743	13.175192	0.000497	4.967173	1.682924	0.000199
  24	2.2885e+00	0.9048	13.304381	0.000324	3.243868	1.099052	0.000130
  25	2.3880e+00	0.9401	13.465866	0.000405	4.054835	1.373815	0.000162
  26	2.4875e+00	0.9786	13.659649	0.000487	4.865802	1.648578	0.000195
  27	2.5870e+00	1.0235	13.804986	0.000365	3.649352	1.236434	0.000146
  28	2.6865e+00	1.0668	13.962434	0.000395	3.953464	1.339470	0.000158
  29	2.7860e+00	1.1053	14.184476	0.000558	5.575398	1.888996	0.000223
  30	2.8855e+00	1.1567	14.341925	0.000395	3.953464	1.339470	0.000158
  31	2.9850e+00	1.1855	14.499373	0.000395	3.953464	1.339470	0.000158
  32	3.0845e+00	1.2240	14.725453	0.000568	5.676769	1.923342	0.000227
  33	3.1840e+00	1.2689	14.846567	0.000304	3.041126	1.030362	0.000122
  34	3.2835e+00	1.2994	15.004015	0.000395	3.953464	1.339470	0.000158
  35	3.3830e+00	1.3508	15.185686	0.000456	4.561690	1.545542	0.000183
  36	3.4825e+00	1.3845	15.383506	0.000497	4.967173	1.682924	0.000199
  37	3.5820e+00	1.4133	15.516731	0.000335	3.345239	1.133398	0.000134
  38	3.6815e+00	1.4663	15.730699	0.000537	5.372657	1.820305	0.000215
  39	3.7810e+00	1.5000	15.892185	0.000405	4.054835	1.373815	0.000162
  40	3.8805e+00	1.5497	16.041559	0.000375	3.750723	1.270779	0.000150
  41	3.9800e+00	1.5818	16.227267	0.000466	4.663061	1.579888	0.000187
  42	4.0795e+00	1.6267	16.404901	0.000446	4.460319	1.511197	0.000179
  43	4.1790e+00	1.6716	16.602721	0.000497	4.967173	1.682924	0.000199
  44	4.2785e+00	1.7037	16.731909	0.000324	3.243868	1.099052	0.000130
  45	4.3780e+00	1.7390	16.921654	0.000476	4.764431	1.614233	0.000191
  46	4.4775e+00	1.7871	17.151771	0.000578	5.778140	1.957687	0.000231
  47	4.5770e+00	1.8208	17.293071	0.000355	3.547981	1.202088	0.000142
  48	4.6765e+00	1.8577	17.446482	0.000385	3.852093	1.305125	0.000154
  49	4.7760e+00	1.9090	17.648339	0.000507	5.068544	1.717269	0.000203
  50	4.8755e+00	1.9443	17.797713	0.000375	3.750723	1.270779	0.000150
  51	4.9750e+00	1.9909	17.995533	0.000497	4.967173	1.682924	0.000199
  52	5.0745e+00	2.0229	18.165092	0.000426	4.257577	1.442506	0.000170
  53	5.1740e+00	2.0582	18.326578	0.000405	4.054835	1.373815	0.000162
  54	5.2735e+00	2.1048	18.508249	0.000456	4.561690	1.545542	0.000183
  55	5.3730e+00	2.1417	18.689920	0.000456	4.561690	1.545542	0.000183
  56	5.4725e+00	2.1914	18.879665	0.000476	4.764431	1.614233	0.000191
  57	5.5720e+00	2.2331	19.061336	0.000456	4.561690	1.545542	0.000183
  58	5.6715e+00	2.2604	19.210710	0.000375	3.750723	1.270779	0.000150
  59	5.7710e+00	2.3021	19.392382	0.000456	4.561690	1.545542	0.000183
  60	5.8705e+00	2.3502	19.578090	0.000466	4.663061	1.579888	0.000187
  61	5.9700e+00	2.3839	19.739575	0.000405	4.054835	1.373815	0.000162
  62	6.0695e+00	2.4240	19.929321	0.000476	4.764431	1.614233	0.000191
  63	6.1690e+00	2.4721	20.094843	0.000416	4.156206	1.408161	0.000166
  64	6.2685e+00	2.5090	20.256329	0.000405	4.054835	1.373815	0.000162
  65	6.3680e+00	2.5507	20.450111	0.000487	4.865802	1.648578	0.000195
  66	6.4675e+00	2.5828	20.631782	0.000456	4.561690	1.545542	0.000183
  67	6.5670e+00	2.6165	20.789230	0.000395	3.953464	1.339470	0.000158
  68	6.6665e+00	2.6614	20.983013	0.000487	4.865802	1.648578	0.000195
  69	6.7660e+00	2.7015	21.128350	0.000365	3.649352	1.236434	0.000146
  70	6.8655e+00	2.7368	21.374615	0.000618	6.183624	2.095068	0.000248
  71	6.9650e+00	2.7737	21.536101	0.000405	4.054835	1.373815	0.000162
  72	7.0645e+00	2.8202	21.689512	0.000385	3.852093	1.305125	0.000154
  73	7.1640e+00	2.8571	21.867146	0.000446	4.460319	1.511197	0.000179
  74	7.2635e+00	2.8956	22.052854	0.000466	4.663061	1.579888	0.000187
  75	7.3630e+00	2.9390	22.226451	0.000436	4.358948	1.476852	0.000174
  76	7.4625e+00	2.9791	22.359676	0.000335	3.345239	1.133398	0.000134
  77	7.5620e+00	3.0176	22.577682	0.000547	5.474028	1.854651	0.000219
  78	7.6615e+00	3.0673	22.723019	0.000365	3.649352	1.236434	0.000146
  79	7.7610e+00	3.1042	22.900652	0.000446	4.460319	1.511197	0.000179
  80	7.8605e+00	3.1443	23.078286	0.000446	4.460319	1.511197	0.000179
  81	7.9600e+00	3.1780	23.284180	0.000517	5.169915	1.751615	0.000207
  82	8.0595e+00	3.2181	23.425480	0.000355	3.547981	1.202088	0.000142
  83	8.1590e+00	3.2550	23.619263	0.000487	4.865802	1.648578	0.000195
  84	8.2585e+00	3.2983	23.792859	0.000436	4.358948	1.476852	0.000174
  85	8.3580e+00	3.3384	23.974531	0.000456	4.561690	1.545542	0.000183
  86	8.4575e+00	3.3817	24.152165	0.000446	4.460319	1.511197	0.000179
  87	8.5570e+00	3.4122	24.354021	0.000507	5.068544	1.717269	0.000203
  88	8.6565e+00	3.4700	24.483210	0.000324	3.243868	1.099052	0.000130
  89	8.7560e+00	3.4988	24.689104	0.000517	5.169915	1.751615	0.000207
  90	8.8555e+00	3.5405	24.866738	0.000446	4.460319	1.511197	0.000179
  91	8.9550e+00	3.5742	25.020149	0.000385	3.852093	1.305125	0.000154
  92	9.0545e+00	3.6143	25.193746	0.000436	4.358948	1.476852	0.000174
  93	9.1540e+00	3.6625	25.399639	0.000517	5.169915	1.751615	0.000207
  94	9.2535e+00	3.6913	25.569199	0.000426	4.257577	1.442506	0.000170
  95	9.3530e+00	3.7347	25.734722	0.000416	4.156206	1.408161	0.000166
  96	9.4525e+00	3.7796	25.900244	0.000416	4.156206	1.408161	0.000166
  97	9.5520e+00	3.8084	26.081915	0.000456	4.561690	1.545542	0.000183
  98	9.6515e+00	3.8518	26.243401	0.000405	4.054835	1.373815	0.000162
  99	9.7510e+00	3.8887	26.400849	0.000395	3.953464	1.339470	0.000158
 100	9.8505e+00	3.9320	26.630966	0.000578	5.778140	1.957687	0.000231
 101	9.9500e+00	3.9657	26.764191	0.000335	3.345239	1.133398	0.000134
 102	1.0050e+01	4.0074	26.917603	0.000385	3.852093	1.305125	0.000154
 103	1.0149e+01	4.0507	27.151756	0.000588	5.879511	1.992032	0.000235
 104	1.0248e+01	4.0892	27.349576	0.000497	4.967173	1.682924	0.000199
 105	1.0348e+01	4.1357	27.474727	0.000314	3.142497	1.064707	0.000126
 106	1.0447e+01	4.1678	27.640250	0.000416	4.156206	1.408161	0.000166
 107	1.0547e+01	4.2159	27.813847	0.000436	4.358948	1.476852	0.000174
 108	1.0646e+01	4.2464	27.999555	0.000466	4.663061	1.579888	0.000187
 109	1.0746e+01	4.2945	28.209486	0.000527	5.271286	1.785960	0.000211
 110	1.0845e+01	4.3330	28.387120	0.000446	4.460319	1.511197	0.000179
 111	1.0945e+01	4.3780	28.548605	0.000405	4.054835	1.373815	0.000162
 112	1.1044e+01	4.4132	28.722202	0.000436	4.358948	1.476852	0.000174
 113	1.1144e+01	4.4550	28.871576	0.000375	3.750723	1.270779	0.000150
 114	1.1243e+01	4.4951	29.065359	0.000487	4.865802	1.648578	0.000195
 115	1.1343e+01	4.5304	29.230881	0.000416	4.156206	1.408161	0.000166
 116	1.1443e+01	4.5753	29.380255	0.000375	3.750723	1.270779	0.000150
 117	1.1542e+01	4.6122	29.565964	0.000466	4.663061	1.579888	0.000187
 118	1.1642e+01	4.6507	29.739560	0.000436	4.358948	1.476852	0.000174
 119	1.1741e+01	4.6876	29.888934	0.000375	3.750723	1.270779	0.000150
 120	1.1841e+01	4.7325	30.098865	0.000527	5.271286	1.785960	0.000211
 121	1.1940e+01	4.7678	30.236128	0.000345	3.446610	1.167743	0.000138
 122	1.2040e+01	4.8143	30.442022	0.000517	5.169915	1.751615	0.000207
 123	1.2139e+01	4.8560	30.611582	0.000426	4.257577	1.442506	0.000170
 124	1.2239e+01	4.8913	30.769030	0.000395	3.953464	1.339470	0.000158
 125	1.2338e+01	4.9266	30.946664	0.000446	4.460319	1.511197	0.000179
 126	1.2438e+01	4.9699	31.140447	0.000487	4.865802	1.648578	0.000195
 127	1.2537e+01	5.0132	31.301932	0.000405	4.054835	1.373815	0.000162
 128	1.2636e+01	5.0549	31.427083	0.000314	3.142497	1.064707	0.000126
 129	1.2736e+01	5.0902	31.653163	0.000568	5.676769	1.923342	0.000227
 130	1.2835e+01	5.1271	31.814648	0.000405	4.054835	1.373815	0.000162
 131	1.2935e+01	5.1737	31.996319	0.000456	4.561690	1.545542	0.000183
 132	1.3034e+01	5.2154	32.125508	0.000324	3.243868	1.099052	0.000130
 133	1.3134e+01	5.2490	32.339476	0.000537	5.372657	1.820305	0.000215
 134	1.3233e+01	5.2988	32.488850	0.000375	3.750723	1.270779	0.000150
 135	1.3333e+01	5.3325	32.690707	0.000507	5.068544	1.717269	0.000203
 136	1.3432e+01	5.3710	32.848155	0.000395	3.953464	1.339470	0.000158
 137	1.3532e+01	5.4111	32.989455	0.000355	3.547981	1.202088	0.000142
 138	1.3632e+01	5.4512	33.203423	0.000537	5.372657	1.820305	0.000215
 139	1.3731e+01	5.4961	33.352797	0.000375	3.750723	1.270779	0.000150
 140	1.3831e+01	5.5330	33.530431	0.000446	4.460319	1.511197	0.000179
 141	1.3930e+01	5.5747	33.691916	0.000405	4.054835	1.373815	0.000162
 142	1.4030e+01	5.6100	33.893773	0.000507	5.068544	1.717269	0.000203
 143	1.4129e+01	5.6549	34.071407	0.000446	4.460319	1.511197	0.000179
 144	1.4229e+01	5.6934	34.249041	0.000446	4.460319	1.511197	0.000179
 145	1.4328e+01	5.7255	34.406489	0.000395	3.953464	1.339470	0.000158
 146	1.4428e+01	5.7688	34.580086	0.000436	4.358948	1.476852	0.000174
 147	1.4527e+01	5.8121	34.737534	0.000395	3.953464	1.339470	0.000158
 148	1.4627e+01	5.8506	34.923243	0.000466	4.663061	1.579888	0.000187
 149	1.4726e+01	5.8907	35.121062	0.000497	4.967173	1.682924	0.000199
 150	1.4825e+01	5.9325	35.266399	0.000365	3.649352	1.236434	0.000146
 151	1.4925e+01	5.9694	35.419810	0.000385	3.852093	1.305125	0.000154
 152	1.5024e+01	6.0046	35.569184	0.000375	3.750723	1.270779	0.000150
 153	1.5124e+01	6.0512	35.799301	0.000578	5.778140	1.957687	0.000231
 154	1.5223e+01	6.0897	35.944638	0.000365	3.649352	1.236434	0.000146
 155	1.5323e+01	6.1234	36.126309	0.000456	4.561690	1.545542	0.000183
 156	1.5422e+01	6.1715	36.283757	0.000395	3.953464	1.339470	0.000158
 157	1.5522e+01	6.2068	36.437169	0.000385	3.852093	1.305125	0.000154
 158	1.5621e+01	6.2501	36.659211	0.000558	5.575398	1.888996	0.000223
 159	1.5721e+01	6.2886	36.776288	0.000294	2.939756	0.996016	0.000118
 160	1.5820e+01	6.3223	36.990256	0.000537	5.372657	1.820305	0.000215
 161	1.5920e+01	6.3672	37.143667	0.000385	3.852093	1.305125	0.000154
 162	1.6020e+01	6.4073	37.289004	0.000365	3.649352	1.236434	0.000146
 163	1.6119e+01	6.4394	37.474712	0.000466	4.663061	1.579888	0.000187
 164	1.6218e+01	6.4907	37.676569	0.000507	5.068544	1.717269	0.000203
 165	1.6318e+01	6.5148	37.825943	0.000375	3.750723	1.270779	0.000150
 166	1.6418e+01	6.5661	37.991466	0.000416	4.156206	1.408161	0.000166
 167	1.6517e+01	6.6014	38.108543	0.000294	2.939756	0.996016	0.000118
 168	1.6616e+01	6.6415	38.334622	0.000568	5.676769	1.923342	0.000227
 169	1.6716e+01	6.6800	38.492071	0.000395	3.953464	1.339470	0.000158
 170	1.6816e+01	6.7298	38.649519	0.000395	3.953464	1.339470	0.000158
 171	1.6915e+01	6.7602	38.798893	0.000375	3.750723	1.270779	0.000150
 172	1.7015e+01	6.7923	38.996713	0.000497	4.967173	1.682924	0.000199
 173	1.7114e+01	6.8517	39.150124	0.000385	3.852093	1.305125	0.000154
 174	1.7213e+01	6.8838	39.303535	0.000385	3.852093	1.305125	0.000154
 175	1.7313e+01	6.9175	39.497317	0.000487	4.865802	1.648578	0.000195
 176	1.7413e+01	6.9672	39.634580	0.000345	3.446610	1.167743	0.000138
 177	1.7512e+01	7.0073	39.816251	0.000456	4.561690	1.545542	0.000183
 178	1.7611e+01	7.0378	40.018108	0.000507	5.068544	1.717269	0.000203
 179	1.7711e+01	7.0795	40.187668	0.000426	4.257577	1.442506	0.000170
 180	1.7811e+01	7.1292	40.308782	0.000304	3.041126	1.030362	0.000122
 181	1.7910e+01	7.1613	40.466230	0.000395	3.953464	1.339470	0.000158
 182	1.8009e+01	7.1966	40.668087	0.000507	5.068544	1.717269	0.000203
 183	1.8109e+01	7.2463	40.829572	0.000405	4.054835	1.373815	0.000162
 184	1.8209e+01	7.2800	41.015281	0.000466	4.663061	1.579888	0.000187
 185	1.8308e+01	7.3217	41.184840	0.000426	4.257577	1.442506	0.000170
 186	1.8407e+01	7.3570	41.342289	0.000395	3.953464	1.339470	0.000158
 187	1.8507e+01	7.4051	41.523960	0.000456	4.561690	1.545542	0.000183
 188	1.8607e+01	7.4388	41.685445	0.000405	4.054835	1.373815	0.000162
 189	1.8706e+01	7.4773	41.830782	0.000365	3.649352	1.236434	0.000146
 190	1.8805e+01	7.5190	41.984193	0.000385	3.852093	1.305125	0.000154
 191	1.8905e+01	7.5607	42.169901	0.000466	4.663061	1.579888	0.000187
 192	1.9005e+01	7.5944	42.343498	0.000436	4.358948	1.476852	0.000174
 193	1.9104e+01	7.6490	42.492872	0.000375	3.750723	1.270779	0.000150
 194	1.9203e+01	7.6875	42.682618	0.000476	4.764431	1.614233	0.000191
 195	1.9303e+01	7.7180	42.807769	0.000314	3.142497	1.064707	0.000126
 196	1.9402e+01	7.7645	43.001551	0.000487	4.865802	1.648578	0.000195
 197	1.9502e+01	7.8030	43.150925	0.000375	3.750723	1.270779	0.000150
 198	1.9602e+01	7.8447	43.316448	0.000416	4.156206	1.408161	0.000166
 199	1.9701e+01	7.8864	43.465822	0.000375	3.750723	1.270779	0.000150
 200	1.9800e+01	7.9169	43.635382	0.000426	4.257577	1.442506	0.000170
 201	1.9900e+01	7.9634	43.796867	0.000405	4.054835	1.373815	0.000162
 202	2.0000e+01	7.9987	43.930093	0.000335	3.345239	1.133398	0.000134
 203	2.0099e+01	8.0340	44.127912	0.000497	4.967173	1.682924	0.000199
 204	2.0198e+01	8.0789	44.289398	0.000405	4.054835	1.373815	0.000162
 205	2.0298e+01	8.1303	44.458957	0.000426	4.257577	1.442506	0.000170
 206	2.0398e+01	8.1559	44.608331	0.000375	3.750723	1.270779	0.000150
 207	2.0497e+01	8.1992	44.798077	0.000476	4.764431	1.614233	0.000191
 208	2.0596e+01	8.2393	44.911117	0.000284	2.838385	0.961671	0.000114
 209	2.0696e+01	8.2859	45.084713	0.000436	4.358948	1.476852	0.000174
 210	2.0796e+01	8.3163	45.298682	0.000537	5.372657	1.820305	0.000215
 211	2.0895e+01	8.3581	45.391536	0.000233	2.331530	0.789944	0.000093
 212	2.0994e+01	8.4014	45.585318	0.000487	4.865802	1.648578	0.000195
 213	2.1094e+01	8.4415	45.750841	0.000416	4.156206	1.408161	0.000166
 214	2.1194e+01	8.4800	45.904252	0.000385	3.852093	1.305125	0.000154
 215	2.1293e+01	8.5233	46.085923	0.000456	4.561690	1.545542	0.000183
 216	2.1392e+01	8.5634	46.211074	0.000314	3.142497	1.064707	0.000126
 217	2.1492e+01	8.5955	46.368523	0.000395	3.953464	1.339470	0.000158
 218	2.1591e+01	8.6436	46.517897	0.000375	3.750723	1.270779	0.000150
 219	2.1691e+01	8.6709	46.695531	0.000446	4.460319	1.511197	0.000179
 220	2.1791e+01	8.7254	46.832793	0.000345	3.446610	1.167743	0.000138
 221	2.1890e+01	8.7591	47.026576	0.000487	4.865802	1.648578	0.000195
 222	2.1989e+01	8.7944	47.192098	0.000416	4.156206	1.408161	0.000166
 223	2.2089e+01	8.8361	47.293027	0.000253	2.534272	0.858635	0.000101
 224	2.2189e+01	8.8794	47.490846	0.000497	4.967173	1.682924	0.000199
 225	2.2288e+01	8.9099	47.615997	0.000314	3.142497	1.064707	0.000126
 226	2.2387e+01	8.9677	47.769409	0.000385	3.852093	1.305125	0.000154
 227	2.2487e+01	8.9981	47.955117	0.000466	4.663061	1.579888	0.000187
 228	2.2587e+01	9.0366	48.068157	0.000284	2.838385	0.961671	0.000114
 229	2.2686e+01	9.0832	48.233679	0.000416	4.156206	1.408161	0.000166
 230	2.2785e+01	9.1185	48.403239	0.000426	4.257577	1.442506	0.000170
 231	2.2885e+01	9.1489	48.560687	0.000395	3.953464	1.339470	0.000158
 232	2.2985e+01	9.1939	48.722173	0.000405	4.054835	1.373815	0.000162
 233	2.3084e+01	9.2356	48.835212	0.000284	2.838385	0.961671	0.000114
 234	2.3183e+01	9.2677	49.000735	0.000416	4.156206	1.408161	0.000166
 235	2.3283e+01	9.3126	49.146072	0.000365	3.649352	1.236434	0.000146
 236	2.3383e+01	9.3511	49.291409	0.000365	3.649352	1.236434	0.000146
 237	2.3482e+01	9.3928	49.452894	0.000405	4.054835	1.373815	0.000162
 238	2.3581e+01	9.4361	49.626491	0.000436	4.358948	1.476852	0.000174
 239	2.3681e+01	9.4794	49.767791	0.000355	3.547981	1.202088	0.000142
 240	2.3780e+01	9.5131	49.929276	0.000405	4.054835	1.373815	0.000162
 241	2.3880e+01	9.5596	50.078650	0.000375	3.750723	1.270779	0.000150
 242	2.3980e+01	9.5949	50.248210	0.000426	4.257577	1.442506	0.000170
 243	2.4079e+01	9.6382	50.369324	0.000304	3.041126	1.030362	0.000122
 244	2.4178e+01	9.6751	50.526772	0.000395	3.953464	1.339470	0.000158
 245	2.4278e+01	9.7072	50.692295	0.000416	4.156206	1.408161	0.000166
 246	2.4378e+01	9.7473	50.789186	0.000243	2.432901	0.824289	0.000097
 247	2.4477e+01	9.8019	50.954709	0.000416	4.156206	1.408161	0.000166
 248	2.4576e+01	9.8372	51.148491	0.000487	4.865802	1.648578	0.000195
 249	2.4676e+01	9.8660	51.269605	0.000304	3.041126	1.030362	0.000122
 250	2.4776e+01	9.9061	51.394757	0.000314	3.142497	1.064707	0.000126
 251	2.4875e+01	9.9511	51.548168	0.000385	3.852093	1.305125	0.000154
 252	2.4974e+01	9.9863	51.737913	0.000476	4.764431	1.614233	0.000191
 253	2.5074e+01	10.0313	51.875176	0.000345	3.446610	1.167743	0.000138
 254	2.5174e+01	10.0714	51.959956	0.000213	2.128789	0.721253	0.000085
 255	2.5273e+01	10.1211	52.177961	0.000547	5.474028	1.854651	0.000219
 256	2.5372e+01	10.1548	52.311186	0.000335	3.345239	1.133398	0.000134
 257	2.5472e+01	10.1933	52.436338	0.000314	3.142497	1.064707	0.000126
 258	2.5572e+01	10.2286	52.618009	0.000456	4.561690	1.545542	0.000183
 259	2.5671e+01	10.2799	52.735086	0.000294	2.939756	0.996016	0.000118
 260	2.5770e+01	10.3152	52.888497	0.000385	3.852093	1.305125	0.000154
 261	2.5870e+01	10.3505	53.009611	0.000304	3.041126	1.030362	0.000122
 262	2.5970e+01	10.3922	53.150911	0.000355	3.547981	1.202088	0.000142
 263	2.6069e+01	10.4355	53.328545	0.000446	4.460319	1.511197	0.000179
 264	2.6169e+01	10.4788	53.485993	0.000395	3.953464	1.339470	0.000158
 265	2.6268e+01	10.5109	53.611144	0.000314	3.142497	1.064707	0.000126
 266	2.6367e+01	10.5494	53.756481	0.000365	3.649352	1.236434	0.000146
 267	2.6467e+01	10.5960	53.917966	0.000405	4.054835	1.373815	0.000162
 268	2.6567e+01	10.6313	54.022932	0.000264	2.635643	0.892980	0.000105
 269	2.6666e+01	10.6617	54.164232	0.000355	3.547981	1.202088	0.000142
 270	2.6765e+01	10.7115	54.321680	0.000395	3.953464	1.339470	0.000158
 271	2.6865e+01	10.7419	54.446831	0.000314	3.142497	1.064707	0.000126
 272	2.6965e+01	10.7869	54.580057	0.000335	3.345239	1.133398	0.000134
 273	2.7064e+01	10.8222	54.741542	0.000405	4.054835	1.373815	0.000162
 274	2.7163e+01	10.8703	54.878805	0.000345	3.446610	1.167743	0.000138
 275	2.7263e+01	10.9152	55.024142	0.000365	3.649352	1.236434	0.000146
 276	2.7363e+01	10.9553	55.145256	0.000304	3.041126	1.030362	0.000122
 277	2.7462e+01	10.9906	55.290593	0.000365	3.649352	1.236434	0.000146
 278	2.7561e+01	11.0387	55.448041	0.000395	3.953464	1.339470	0.000158
 279	2.7661e+01	11.0580	55.609526	0.000405	4.054835	1.373815	0.000162
 280	2.7761e+01	11.1061	55.746789	0.000345	3.446610	1.167743	0.000138
 281	2.7860e+01	11.1446	55.851754	0.000264	2.635643	0.892980	0.000105
 282	2.7959e+01	11.1863	56.029388	0.000446	4.460319	1.511197	0.000179
 283	2.8059e+01	11.2312	56.142428	0.000284	2.838385	0.961671	0.000114
 284	2.8159e+01	11.2681	56.279691	0.000345	3.446610	1.167743	0.000138
 285	2.8258e+01	11.3050	56.408879	0.000324	3.243868	1.099052	0.000130
 286	2.8358e+01	11.3483	56.566327	0.000395	3.953464	1.339470	0.000158
 287	2.8457e+01	11.3901	56.703590	0.000345	3.446610	1.167743	0.000138
 288	2.8556e+01	11.4253	56.857001	0.000385	3.852093	1.305125	0.000154
 289	2.8656e+01	11.4703	56.982152	0.000314	3.142497	1.064707	0.000126
 290	2.8756e+01	11.5040	57.119415	0.000345	3.446610	1.167743	0.000138
 291	2.8855e+01	11.5441	57.301086	0.000456	4.561690	1.545542	0.000183
 292	2.8954e+01	11.5826	57.418163	0.000294	2.939756	0.996016	0.000118
 293	2.9054e+01	11.6275	57.515054	0.000243	2.432901	0.824289	0.000097
 294	2.9154e+01	11.6596	57.684614	0.000426	4.257577	1.442506	0.000170
 295	2.9253e+01	11.7061	57.842062	0.000395	3.953464	1.339470	0.000158
 296	2.9352e+01	11.7478	57.971251	0.000324	3.243868	1.099052	0.000130
 297	2.9452e+01	11.7847	58.096402	0.000314	3.142497	1.064707	0.000126
 298	2.9552e+01	11.8216	58.241739	0.000365	3.649352	1.236434	0.000146
 299	2.9651e+01	11.8649	58.419373	0.000446	4.460319	1.511197	0.000179
 300	2.9750e+01	11.9146	58.516264	0.000243	2.432901	0.824289	0.000097
 301	2.9850e+01	11.9435	58.669675	0.000385	3.852093	1.305125	0.000154
 302	2.9950e+01	11.9740	58.806938	0.000345	3.446610	1.167743	0.000138
 303	3.0049e+01	12.0221	58.924015	0.000294	2.939756	0.996016	0.000118
 304	3.0148e+01	12.0574	59.053203	0.000324	3.243868	1.099052	0.000130
 305	3.0248e+01	12.1007	59.242948	0.000476	4.764431	1.614233	0.000191
 306	3.0348e+01	12.1440	59.351951	0.000274	2.737014	0.927325	0.000110
 307	3.0447e+01	12.1858	59.493251	0.000355	3.547981	1.202088	0.000142
 308	3.0547e+01	12.2307	59.598216	0.000264	2.635643	0.892980	0.000105
 309	3.0646e+01	12.2708	59.783925	0.000466	4.663061	1.579888	0.000187
 310	3.0745e+01	12.2997	59.901002	0.000294	2.939756	0.996016	0.000118
 311	3.0845e+01	12.3430	60.026153	0.000314	3.142497	1.064707	0.000126
 312	3.0945e+01	12.3895	60.179564	0.000385	3.852093	1.305125	0.000154
 313	3.1044e+01	12.4312	60.312789	0.000335	3.345239	1.133398	0.000134
 314	3.1143e+01	12.4585	60.470238	0.000395	3.953464	1.339470	0.000158
 315	3.1243e+01	12.5002	60.579240	0.000274	2.737014	0.927325	0.000110
 316	3.1343e+01	12.5515	60.760911	0.000456	4.561690	1.545542	0.000183
 317	3.1442e+01	12.5820	60.857803	0.000243	2.432901	0.824289	0.000097
 318	3.1541e+01	12.6237	60.986991	0.000324	3.243868	1.099052	0.000130
 319	3.1641e+01	12.6542	61.128291	0.000355	3.547981	1.202088	0.000142
 320	3.1741e+01	12.7055	61.293813	0.000416	4.156206	1.408161	0.000166
 321	3.1840e+01	12.7472	61.410890	0.000294	2.939756	0.996016	0.000118
 322	3.1939e+01	12.7905	61.568339	0.000395	3.953464	1.339470	0.000158
 323	3.2039e+01	12.8339	61.677341	0.000274	2.737014	0.927325	0.000110
 324	3.2139e+01	12.8579	61.846901	0.000426	4.257577	1.442506	0.000170
 325	3.2238e+01	12.9044	61.968015	0.000304	3.041126	1.030362	0.000122
 326	3.2337e+01	12.9365	62.097203	0.000324	3.243868	1.099052	0.000130
 327	3.2437e+01	12.9879	62.238503	0.000355	3.547981	1.202088	0.000142
 328	3.2536e+01	13.0344	62.363654	0.000314	3.142497	1.064707	0.000126
 329	3.2636e+01	13.0552	62.508991	0.000365	3.649352	1.236434	0.000146
 330	3.2736e+01	13.0954	62.626068	0.000294	2.939756	0.996016	0.000118
 331	3.2835e+01	13.1435	62.755256	0.000324	3.243868	1.099052	0.000130
 332	3.2934e+01	13.1804	62.908668	0.000385	3.852093	1.305125	0.000154
 333	3.3034e+01	13.2221	62.989410	0.000203	2.027418	0.686908	0.000081
 334	3.3133e+01	13.2558	63.183193	0.000487	4.865802	1.648578	0.000195
 335	3.3233e+01	13.3007	63.304307	0.000304	3.041126	1.030362	0.000122
 336	3.3333e+01	13.3424	63.445607	0.000355	3.547981	1.202088	0.000142
 337	3.3432e+01	13.3793	63.582869	0.000345	3.446610	1.167743	0.000138
 338	3.3532e+01	13.4098	63.720132	0.000345	3.446610	1.167743	0.000138
 339	3.3631e+01	13.4627	63.869506	0.000375	3.750723	1.270779	0.000150
 340	3.3730e+01	13.4964	63.990620	0.000304	3.041126	1.030362	0.000122
 341	3.3830e+01	13.5429	64.111734	0.000304	3.041126	1.030362	0.000122
 342	3.3929e+01	13.5814	64.261108	0.000375	3.750723	1.270779	0.000150
 343	3.4029e+01	13.6215	64.386259	0.000314	3.142497	1.064707	0.000126
 344	3.4129e+01	13.6552	64.519485	0.000335	3.345239	1.133398	0.000134
 345	3.4228e+01	13.6969	64.660785	0.000355	3.547981	1.202088	0.000142
 346	3.4328e+01	13.7354	64.773824	0.000284	2.838385	0.961671	0.000114
 347	3.4427e+01	13.7755	64.947421	0.000436	4.358948	1.476852	0.000174
 348	3.4526e+01	13.8076	65.072572	0.000314	3.142497	1.064707	0.000126
 349	3.4626e+01	13.8461	65.205798	0.000335	3.345239	1.133398	0.000134
 350	3.4725e+01	13.8959	65.290578	0.000213	2.128789	0.721253	0.000085
 351	3.4825e+01	13.9312	65.460137	0.000426	4.257577	1.442506	0.000170
 352	3.4925e+01	13.9713	65.617586	0.000395	3.953464	1.339470	0.000158
 353	3.5024e+01	14.0178	65.746774	0.000324	3.243868	1.099052	0.000130
 354	3.5123e+01	14.0483	65.867888	0.000304	3.041126	1.030362	0.000122
 355	3.5223e+01	14.0868	65.993039	0.000314	3.142497	1.064707	0.000126
 356	3.5322e+01	14.1381	66.138376	0.000365	3.649352	1.236434	0.000146
 357	3.5422e+01	14.1702	66.251416	0.000284	2.838385	0.961671	0.000114
 358	3.5522e+01	14.2071	66.433087	0.000456	4.561690	1.545542	0.000183
 359	3.5621e+01	14.2472	66.509793	0.000193	1.926047	0.652562	0.000077
 360	3.5721e+01	14.2889	66.643018	0.000335	3.345239	1.133398	0.000134
 361	3.5820e+01	14.3274	66.804504	0.000405	4.054835	1.373815	0.000162
 362	3.5919e+01	14.3868	66.925618	0.000304	3.041126	1.030362	0.000122
 363	3.6019e+01	14.4172	67.034620	0.000274	2.737014	0.927325	0.000110
 364	3.6118e+01	14.4525	67.135549	0.000253	2.534272	0.858635	0.000101
 365	3.6218e+01	14.4894	67.301071	0.000416	4.156206	1.408161	0.000166
 366	3.6318e+01	14.5408	67.434297	0.000335	3.345239	1.133398	0.000134
 367	3.6417e+01	14.5761	67.563485	0.000324	3.243868	1.099052	0.000130
 368	3.6517e+01	14.6178	67.696711	0.000335	3.345239	1.133398	0.000134
 369	3.6616e+01	14.6563	67.838010	0.000355	3.547981	1.202088	0.000142
 370	3.6715e+01	14.6932	67.975273	0.000345	3.446610	1.167743	0.000138
 371	3.6815e+01	14.7333	68.100424	0.000314	3.142497	1.064707	0.000126
 372	3.6914e+01	14.7718	68.241724	0.000355	3.547981	1.202088	0.000142
 373	3.7014e+01	14.8167	68.358801	0.000294	2.939756	0.996016	0.000118
 374	3.7114e+01	14.8616	68.492026	0.000335	3.345239	1.133398	0.000134
 375	3.7213e+01	14.8889	68.641400	0.000375	3.750723	1.270779	0.000150
 376	3.7313e+01	14.9274	68.754440	0.000284	2.838385	0.961671	0.000114
 377	3.7412e+01	14.9755	68.863443	0.000274	2.737014	0.927325	0.000110
 378	3.7511e+01	15.0124	69.028965	0.000416	4.156206	1.408161	0.000166
 379	3.7611e+01	15.0525	69.073374	0.000112	1.115080	0.377799	0.000045
 380	3.7711e+01	15.0862	69.267156	0.000487	4.865802	1.648578	0.000195
 381	3.7810e+01	15.1247	69.372122	0.000264	2.635643	0.892980	0.000105
 382	3.7910e+01	15.1728	69.517459	0.000365	3.649352	1.236434	0.000146
 383	3.8009e+01	15.2049	69.638573	0.000304	3.041126	1.030362	0.000122
 384	3.8108e+01	15.2482	69.747576	0.000274	2.737014	0.927325	0.000110
 385	3.8208e+01	15.2883	69.921172	0.000436	4.358948	1.476852	0.000174
 386	3.8307e+01	15.3317	69.989804	0.000172	1.723305	0.583872	0.000069
 387	3.8407e+01	15.3734	70.135141	0.000365	3.649352	1.236434	0.000146
 388	3.8507e+01	15.4087	70.284515	0.000375	3.750723	1.270779	0.000150
 389	3.8606e+01	15.4472	70.413703	0.000324	3.243868	1.099052	0.000130
 390	3.8706e+01	15.4953	70.490409	0.000193	1.926047	0.652562	0.000077
 391	3.8805e+01	15.5322	70.627671	0.000345	3.446610	1.167743	0.000138
 392	3.8904e+01	15.5739	70.785119	0.000395	3.953464	1.339470	0.000158
 393	3.9004e+01	15.6028	70.926419	0.000355	3.547981	1.202088	0.000142
 394	3.9103e+01	15.6493	71.007162	0.000203	2.027418	0.686908	0.000081
 395	3.9203e+01	15.6910	71.108090	0.000253	2.534272	0.858635	0.000101
 396	3.9303e+01	15.7279	71.293799	0.000466	4.663061	1.579888	0.000187
 397	3.9402e+01	15.7808	71.382616	0.000223	2.230159	0.755598	0.000089
 398	3.9502e+01	15.8113	71.511804	0.000324	3.243868	1.099052	0.000130
 399	3.9601e+01	15.8482	71.665215	0.000385	3.852093	1.305125	0.000154
 400	3.9700e+01	15.8867	71.774218	0.000274	2.737014	0.927325	0.000110
 401	3.9800e+01	15.9252	71.842849	0.000172	1.723305	0.583872	0.000069
 402	3.9900e+01	15.9717	71.980112	0.000345	3.446610	1.167743	0.000138
 403	3.9999e+01	16.0022	72.145634	0.000416	4.156206	1.408161	0.000166
 404	4.0099e+01	16.0584	72.226377	0.000203	2.027418	0.686908	0.000081
 405	4.0198e+01	16.0889	72.375751	0.000375	3.750723	1.270779	0.000150
 406	4.0297e+01	16.1274	72.480716	0.000264	2.635643	0.892980	0.000105
 407	4.0397e+01	16.1691	72.605868	0.000314	3.142497	1.064707	0.000126
 408	4.0496e+01	16.2060	72.714870	0.000274	2.737014	0.927325	0.000110
 409	4.0596e+01	16.2477	72.831947	0.000294	2.939756	0.996016	0.000118
 410	4.0696e+01	16.2894	72.957098	0.000314	3.142497	1.064707	0.000126
 411	4.0795e+01	16.3247	73.098398	0.000355	3.547981	1.202088	0.000142
 412	4.0895e+01	16.3600	73.227587	0.000324	3.243868	1.099052	0.000130
 413	4.0994e+01	16.4113	73.324478	0.000243	2.432901	0.824289	0.000097
 414	4.1093e+01	16.4498	73.437518	0.000284	2.838385	0.961671	0.000114
 415	4.1193e+01	16.4803	73.542483	0.000264	2.635643	0.892980	0.000105
 416	4.1292e+01	16.5204	73.703969	0.000405	4.054835	1.373815	0.000162
 417	4.1392e+01	16.5637	73.821046	0.000294	2.939756	0.996016	0.000118
 418	4.1492e+01	16.6086	73.917937	0.000243	2.432901	0.824289	0.000097
 419	4.1591e+01	16.6407	74.083459	0.000416	4.156206	1.408161	0.000166
 420	4.1691e+01	16.6904	74.200536	0.000294	2.939756	0.996016	0.000118
 421	4.1790e+01	16.7145	74.297428	0.000243	2.432901	0.824289	0.000097
 422	4.1889e+01	16.7626	74.390282	0.000233	2.331530	0.789944	0.000093
 423	4.1989e+01	16.8092	74.515433	0.000314	3.142497	1.064707	0.000126
 424	4.2089e+01	16.8444	74.652695	0.000345	3.446610	1.167743	0.000138
 425	4.2188e+01	16.8813	74.753624	0.000253	2.534272	0.858635	0.000101
 426	4.2288e+01	16.9182	74.866664	0.000284	2.838385	0.961671	0.000114
 427	4.2387e+01	16.9680	74.975666	0.000274	2.737014	0.927325	0.000110
 428	4.2486e+01	17.0049	75.129078	0.000385	3.852093	1.305125	0.000154
 429	4.2586e+01	17.0514	75.225969	0.000243	2.432901	0.824289	0.000097
 430	4.2685e+01	17.0851	75.375343	0.000375	3.750723	1.270779	0.000150
 431	4.2785e+01	17.1204	75.480308	0.000264	2.635643	0.892980	0.000105
 432	4.2885e+01	17.1621	75.585274	0.000264	2.635643	0.892980	0.000105
 433	4.2984e+01	17.1958	75.702351	0.000294	2.939756	0.996016	0.000118
 434	4.3084e+01	17.2439	75.819428	0.000294	2.939756	0.996016	0.000118
 435	4.3183e+01	17.2872	75.924393	0.000264	2.635643	0.892980	0.000105
 436	4.3282e+01	17.3225	76.069730	0.000365	3.649352	1.236434	0.000146
 437	4.3382e+01	17.3610	76.198918	0.000324	3.243868	1.099052	0.000130
 438	4.3481e+01	17.4091	76.275624	0.000193	1.926047	0.652562	0.000077
 439	4.3581e+01	17.4428	76.396738	0.000304	3.041126	1.030362	0.000122
 440	4.3681e+01	17.4845	76.497667	0.000253	2.534272	0.858635	0.000101
 441	4.3780e+01	17.5278	76.606669	0.000274	2.737014	0.927325	0.000110
 442	4.3880e+01	17.5647	76.719709	0.000284	2.838385	0.961671	0.000114
 443	4.3979e+01	17.5968	76.877157	0.000395	3.953464	1.339470	0.000158
 444	4.4078e+01	17.6369	76.965974	0.000223	2.230159	0.755598	0.000089
 445	4.4178e+01	17.6867	77.074977	0.000274	2.737014	0.927325	0.000110
 446	4.4278e+01	17.7155	77.228388	0.000385	3.852093	1.305125	0.000154
 447	4.4377e+01	17.7573	77.309131	0.000203	2.027418	0.686908	0.000081
 448	4.4477e+01	17.7990	77.426208	0.000294	2.939756	0.996016	0.000118
 449	4.4576e+01	17.8487	77.563470	0.000345	3.446610	1.167743	0.000138
 450	4.4675e+01	17.8792	77.636139	0.000182	1.824676	0.618217	0.000073
 451	4.4775e+01	17.9225	77.777439	0.000355	3.547981	1.202088	0.000142
 452	4.4874e+01	17.9658	77.882404	0.000264	2.635643	0.892980	0.000105
 453	4.4974e+01	18.0059	77.995444	0.000284	2.838385	0.961671	0.000114
 454	4.5074e+01	18.0412	78.124632	0.000324	3.243868	1.099052	0.000130
 455	4.5173e+01	18.0861	78.237672	0.000284	2.838385	0.961671	0.000114
 456	4.5273e+01	18.1230	78.318415	0.000203	2.027418	0.686908	0.000081
 457	4.5372e+01	18.1599	78.447603	0.000324	3.243868	1.099052	0.000130
 458	4.5471e+01	18.1968	78.564680	0.000294	2.939756	0.996016	0.000118
 459	4.5571e+01	18.2417	78.718091	0.000385	3.852093	1.305125	0.000154
 460	4.5670e+01	18.2834	78.790760	0.000182	1.824676	0.618217	0.000073
 461	4.5770e+01	18.3219	78.911874	0.000304	3.041126	1.030362	0.000122
 462	4.5870e+01	18.3620	79.032988	0.000304	3.041126	1.030362	0.000122
 463	4.5969e+01	18.4022	79.121805	0.000223	2.230159	0.755598	0.000089
 464	4.6069e+01	18.4423	79.255030	0.000335	3.345239	1.133398	0.000134
 465	4.6168e+01	18.4808	79.372107	0.000294	2.939756	0.996016	0.000118
 466	4.6267e+01	18.5193	79.477073	0.000264	2.635643	0.892980	0.000105
 467	4.6367e+01	18.5674	79.582038	0.000264	2.635643	0.892980	0.000105
 468	4.6467e+01	18.5963	79.674892	0.000233	2.331530	0.789944	0.000093
 469	4.6566e+01	18.6380	79.820229	0.000365	3.649352	1.236434	0.000146
 470	4.6666e+01	18.6765	79.941343	0.000304	3.041126	1.030362	0.000122
 471	4.6765e+01	18.7134	80.042272	0.000253	2.534272	0.858635	0.000101
 472	4.6864e+01	18.7583	80.143200	0.000253	2.534272	0.858635	0.000101
 473	4.6964e+01	18.8016	80.244128	0.000253	2.534272	0.858635	0.000101
 474	4.7063e+01	18.8433	80.421762	0.000446	4.460319	1.511197	0.000179
 475	4.7163e+01	18.8802	80.478282	0.000142	1.419192	0.480835	0.000057
 476	4.7263e+01	18.9155	80.579211	0.000253	2.534272	0.858635	0.000101
 477	4.7362e+01	18.9556	80.720511	0.000355	3.547981	1.202088	0.000142
 478	4.7462e+01	18.9973	80.845662	0.000314	3.142497	1.064707	0.000126
 479	4.7561e+01	19.0406	80.962739	0.000294	2.939756	0.996016	0.000118
 480	4.7660e+01	19.0807	81.059630	0.000243	2.432901	0.824289	0.000097
 481	4.7760e+01	19.1112	81.213041	0.000385	3.852093	1.305125	0.000154
 482	4.7859e+01	19.1577	81.289747	0.000193	1.926047	0.652562	0.000077
 483	4.7959e+01	19.1995	81.435084	0.000365	3.649352	1.236434	0.000146
 484	4.8059e+01	19.2396	81.515826	0.000203	2.027418	0.686908	0.000081
 485	4.8158e+01	19.2733	81.657126	0.000355	3.547981	1.202088	0.000142
 486	4.8258e+01	19.3102	81.770166	0.000284	2.838385	0.961671	0.000114
 487	4.8357e+01	19.3567	81.822649	0.000132	1.317821	0.446490	0.000053
 488	4.8456e+01	19.3952	81.963948	0.000355	3.547981	1.202088	0.000142
 489	4.8556e+01	19.4321	82.117359	0.000385	3.852093	1.305125	0.000154
 490	4.8656e+01	19.4754	82.202139	0.000213	2.128789	0.721253	0.000085
 491	4.8755e+01	19.5139	82.307105	0.000264	2.635643	0.892980	0.000105
 492	4.8855e+01	19.5524	82.420145	0.000284	2.838385	0.961671	0.000114
 493	4.8954e+01	19.6005	82.533184	0.000284	2.838385	0.961671	0.000114
 494	4.9053e+01	19.6342	82.622001	0.000223	2.230159	0.755598	0.000089
 495	4.9153e+01	19.6695	82.767338	0.000365	3.649352	1.236434	0.000146
 496	4.9252e+01	19.7176	82.908638	0.000355	3.547981	1.202088	0.000142
 497	4.9352e+01	19.7481	82.997455	0.000223	2.230159	0.755598	0.000089
 498	4.9452e+01	19.7914	83.114532	0.000294	2.939756	0.996016	0.000118
 499	4.9551e+01	19.8428	83.183163	0.000172	1.723305	0.583872	0.000069
 500	4.9651e+01	19.8732	83.304277	0.000304	3.041126	1.030362	0.000122
 501	4.9750e+01	19.9117	83.429429	0.000314	3.142497	1.064707	0.000126
 502	4.9849e+01	19.9583	83.538431	0.000274	2.737014	0.927325	0.000110
 503	4.9949e+01	19.9887	83.663582	0.000314	3.142497	1.064707	0.000126
 504	5.0048e+01	19.9502	83.594951	0.000172	1.723305	0.583872	-0.000069
 505	5.0148e+01	19.9085	83.518246	0.000193	1.926047	0.652562	-0.000077
 506	5.0248e+01	19.8684	83.461726	0.000142	1.419192	0.480835	-0.000057
 507	5.0347e+01	19.8347	83.409243	0.000132	1.317821	0.446490	-0.000053
 508	5.0447e+01	19.7898	83.308315	0.000253	2.534272	0.858635	-0.000101
 509	5.0546e+01	19.7449	83.247757	0.000152	1.520563	0.515181	-0.000061
 510	5.0645e+01	19.7112	83.130681	0.000294	2.939756	0.996016	-0.000118
 511	5.0745e+01	19.6743	83.058012	0.000182	1.824676	0.618217	-0.000073
 512	5.0844e+01	19.6278	82.985344	0.000182	1.824676	0.618217	-0.000073
 513	5.0944e+01	19.5973	82.896527	0.000223	2.230159	0.755598	-0.000089
 514	5.1044e+01	19.5428	82.823858	0.000182	1.824676	0.618217	-0.000073
 515	5.1143e+01	19.5139	82.731004	0.000233	2.331530	0.789944	-0.000093
 516	5.1242e+01	19.4738	82.650261	0.000203	2.027418	0.686908	-0.000081
 517	5.1342e+01	19.4369	82.565482	0.000213	2.128789	0.721253	-0.000085
 518	5.1441e+01	19.3952	82.504925	0.000152	1.520563	0.515181	-0.000061
 519	5.1541e+01	19.3503	82.416108	0.000223	2.230159	0.755598	-0.000089
 520	5.1641e+01	19.3118	82.335365	0.000203	2.027418	0.686908	-0.000081
 521	5.1740e+01	19.2749	82.278845	0.000142	1.419192	0.480835	-0.000057
 522	5.1840e+01	19.2364	82.153694	0.000314	3.142497	1.064707	-0.000126
 523	5.1939e+01	19.1979	82.085062	0.000172	1.723305	0.583872	-0.000069
 524	5.2038e+01	19.1513	81.980097	0.000264	2.635643	0.892980	-0.000105
 525	5.2138e+01	19.1128	81.911466	0.000172	1.723305	0.583872	-0.000069
 526	5.2237e+01	19.0743	81.842834	0.000172	1.723305	0.583872	-0.000069
 527	5.2337e+01	19.0390	81.737869	0.000264	2.635643	0.892980	-0.000105
 528	5.2437e+01	18.9941	81.653089	0.000213	2.128789	0.721253	-0.000085
 529	5.2536e+01	18.9556	81.608680	0.000112	1.115080	0.377799	-0.000045
 530	5.2636e+01	18.9219	81.519863	0.000223	2.230159	0.755598	-0.000089
 531	5.2735e+01	18.8818	81.410861	0.000274	2.737014	0.927325	-0.000110
 532	5.2834e+01	18.8417	81.313969	0.000243	2.432901	0.824289	-0.000097
 533	5.2934e+01	18.7968	81.225152	0.000223	2.230159	0.755598	-0.000089
 534	5.3033e+01	18.7535	81.172670	0.000132	1.317821	0.446490	-0.000053
 535	5.3133e+01	18.7294	81.059630	0.000284	2.838385	0.961671	-0.000114
 536	5.3233e+01	18.6797	80.930442	0.000324	3.243868	1.099052	-0.000130
 537	5.3332e+01	18.6396	80.857773	0.000182	1.824676	0.618217	-0.000073
 538	5.3431e+01	18.5915	80.805290	0.000132	1.317821	0.446490	-0.000053
 539	5.3531e+01	18.5578	80.696288	0.000274	2.737014	0.927325	-0.000110
 540	5.3630e+01	18.5241	80.599396	0.000243	2.432901	0.824289	-0.000097
 541	5.3730e+01	18.4776	80.526728	0.000182	1.824676	0.618217	-0.000073
 542	5.3830e+01	18.4326	80.425800	0.000253	2.534272	0.858635	-0.000101
 543	5.3929e+01	18.3989	80.353131	0.000182	1.824676	0.618217	-0.000073
 544	5.4029e+01	18.3669	80.244128	0.000274	2.737014	0.927325	-0.000110
 545	5.4128e+01	18.3187	80.163386	0.000203	2.027418	0.686908	-0.000081
 546	5.4227e+01	18.2883	80.074569	0.000223	2.230159	0.755598	-0.000089
 547	5.4327e+01	18.2417	79.977678	0.000243	2.432901	0.824289	-0.000097
 548	5.4426e+01	18.2048	79.864638	0.000284	2.838385	0.961671	-0.000114
 549	5.4526e+01	18.1519	79.804081	0.000152	1.520563	0.515181	-0.000061
 550	5.4626e+01	18.1262	79.699115	0.000264	2.635643	0.892980	-0.000105
 551	5.4725e+01	18.0813	79.602224	0.000243	2.432901	0.824289	-0.000097
 552	5.4825e+01	18.0444	79.529555	0.000182	1.824676	0.618217	-0.000073
 553	5.4924e+01	18.0011	79.464961	0.000162	1.621934	0.549526	-0.000065
 554	5.5023e+01	17.9594	79.331736	0.000335	3.345239	1.133398	-0.000134
 555	5.5123e+01	17.9209	79.210622	0.000304	3.041126	1.030362	-0.000122
 556	5.5222e+01	17.8856	79.137953	0.000182	1.824676	0.618217	-0.000073
 557	5.5322e+01	17.8471	79.057211	0.000203	2.027418	0.686908	-0.000081
 558	5.5422e+01	17.7974	78.936097	0.000304	3.041126	1.030362	-0.000122
 559	5.5521e+01	17.7621	78.855354	0.000203	2.027418	0.686908	-0.000081
 560	5.5620e+01	17.7300	78.726165	0.000324	3.243868	1.099052	-0.000130
 561	5.5720e+01	17.6738	78.681757	0.000112	1.115080	0.377799	-0.000045
 562	5.5819e+01	17.6401	78.568717	0.000284	2.838385	0.961671	-0.000114
 563	5.5919e+01	17.6065	78.475863	0.000233	2.331530	0.789944	-0.000093
 564	5.6019e+01	17.5631	78.378972	0.000243	2.432901	0.824289	-0.000097
 565	5.6118e+01	17.5262	78.274006	0.000264	2.635643	0.892980	-0.000105
 566	5.6218e+01	17.4861	78.136744	0.000345	3.446610	1.167743	-0.000138
 567	5.6317e+01	17.4428	78.051964	0.000213	2.128789	0.721253	-0.000085
 568	5.6416e+01	17.4059	77.975258	0.000193	1.926047	0.652562	-0.000077
 569	5.6516e+01	17.3642	77.866256	0.000274	2.737014	0.927325	-0.000110
 570	5.6615e+01	17.3193	77.801661	0.000162	1.621934	0.549526	-0.000065
 571	5.6715e+01	17.2776	77.696696	0.000264	2.635643	0.892980	-0.000105
 572	5.6815e+01	17.2423	77.595767	0.000253	2.534272	0.858635	-0.000101
 573	5.6914e+01	17.2086	77.442356	0.000385	3.852093	1.305125	-0.000154
 574	5.7014e+01	17.1669	77.410059	0.000081	0.810967	0.274763	-0.000032
 575	5.7113e+01	17.1220	77.260685	0.000375	3.750723	1.270779	-0.000150
 576	5.7212e+01	17.0803	77.159757	0.000253	2.534272	0.858635	-0.000101
 577	5.7312e+01	17.0370	77.042680	0.000294	2.939756	0.996016	-0.000118
 578	5.7411e+01	17.0065	76.978086	0.000162	1.621934	0.549526	-0.000065
 579	5.7511e+01	16.9680	76.877157	0.000253	2.534272	0.858635	-0.000101
 580	5.7611e+01	16.9182	76.816600	0.000152	1.520563	0.515181	-0.000061
 581	5.7710e+01	16.8910	76.695486	0.000304	3.041126	1.030362	-0.000122
 582	5.7809e+01	16.8525	76.554186	0.000355	3.547981	1.202088	-0.000142
 583	5.7909e+01	16.8043	76.473444	0.000203	2.027418	0.686908	-0.000081
 584	5.8008e+01	16.7674	76.388664	0.000213	2.128789	0.721253	-0.000085
 585	5.8108e+01	16.7225	76.267550	0.000304	3.041126	1.030362	-0.000122
 586	5.8208e+01	16.6888	76.162584	0.000264	2.635643	0.892980	-0.000105
 587	5.8307e+01	16.6407	76.053582	0.000274	2.737014	0.927325	-0.000110
 588	5.8407e+01	16.6022	75.956690	0.000243	2.432901	0.824289	-0.000097
 589	5.8506e+01	16.5653	75.859799	0.000243	2.432901	0.824289	-0.000097
 590	5.8605e+01	16.5220	75.770982	0.000223	2.230159	0.755598	-0.000089
 591	5.8705e+01	16.4787	75.657942	0.000284	2.838385	0.961671	-0.000114
 592	5.8804e+01	16.4466	75.581237	0.000193	1.926047	0.652562	-0.000077
 593	5.8904e+01	16.4033	75.472234	0.000274	2.737014	0.927325	-0.000110
 594	5.9004e+01	16.3632	75.326897	0.000365	3.649352	1.236434	-0.000146
 595	5.9103e+01	16.3279	75.225969	0.000253	2.534272	0.858635	-0.000101
 596	5.9203e+01	16.2894	75.129078	0.000243	2.432901	0.824289	-0.000097
 597	5.9302e+01	16.2461	75.007963	0.000304	3.041126	1.030362	-0.000122
 598	5.9401e+01	16.1979	74.911072	0.000243	2.432901	0.824289	-0.000097
 599	5.9501e+01	16.1739	74.785921	0.000314	3.142497	1.064707	-0.000126
 600	5.9600e+01	16.1274	74.729401	0.000142	1.419192	0.480835	-0.000057
 601	5.9700e+01	16.0872	74.612324	0.000294	2.939756	0.996016	-0.000118
 602	5.9800e+01	16.0503	74.483136	0.000324	3.243868	1.099052	-0.000130
 603	5.9899e+01	16.0118	74.378170	0.000264	2.635643	0.892980	-0.000105
 604	5.9998e+01	15.9717	74.301465	0.000193	1.926047	0.652562	-0.000077
 605	6.0098e+01	15.9332	74.184388	0.000294	2.939756	0.996016	-0.000118
 606	6.0197e+01	15.8996	74.083459	0.000253	2.534272	0.858635	-0.000101
 607	6.0297e+01	15.8594	73.946197	0.000345	3.446610	1.167743	-0.000138
 608	6.0397e+01	15.8081	73.873528	0.000182	1.824676	0.618217	-0.000073
 609	6.0496e+01	15.7696	73.744340	0.000324	3.243868	1.099052	-0.000130
 610	6.0596e+01	15.7423	73.639374	0.000264	2.635643	0.892980	-0.000105
 611	6.0695e+01	15.6958	73.538446	0.000253	2.534272	0.858635	-0.000101
 612	6.0794e+01	15.6493	73.397146	0.000355	3.547981	1.202088	-0.000142
 613	6.0894e+01	15.6108	73.296218	0.000253	2.534272	0.858635	-0.000101
 614	6.0993e+01	15.5707	73.162992	0.000335	3.345239	1.133398	-0.000134
 615	6.1093e+01	15.5322	73.082250	0.000203	2.027418	0.686908	-0.000081
 616	6.1193e+01	15.4953	73.001507	0.000203	2.027418	0.686908	-0.000081
 617	6.1292e+01	15.4472	72.884430	0.000294	2.939756	0.996016	-0.000118
 618	6.1392e+01	15.4087	72.783502	0.000253	2.534272	0.858635	-0.000101
 619	6.1491e+01	15.3750	72.722945	0.000152	1.520563	0.515181	-0.000061
 620	6.1590e+01	15.3268	72.569533	0.000385	3.852093	1.305125	-0.000154
 621	6.1690e+01	15.2867	72.452457	0.000294	2.939756	0.996016	-0.000118
 622	6.1789e+01	15.2546	72.327305	0.000314	3.142497	1.064707	-0.000126
 623	6.1889e+01	15.2210	72.214266	0.000284	2.838385	0.961671	-0.000114
 624	6.1989e+01	15.1648	72.097189	0.000294	2.939756	0.996016	-0.000118
 625	6.2088e+01	15.1247	72.016446	0.000203	2.027418	0.686908	-0.000081
 626	6.2188e+01	15.0862	71.895332	0.000304	3.041126	1.030362	-0.000122
 627	6.2287e+01	15.0477	71.774218	0.000304	3.041126	1.030362	-0.000122
 628	6.2386e+01	15.0028	71.681364	0.000233	2.331530	0.789944	-0.000093
 629	6.2486e+01	14.9691	71.588509	0.000233	2.331530	0.789944	-0.000093
 630	6.2586e+01	14.9338	71.483544	0.000264	2.635643	0.892980	-0.000105
 631	6.2685e+01	14.8873	71.358393	0.000314	3.142497	1.064707	-0.000126
 632	6.2785e+01	14.8536	71.217093	0.000355	3.547981	1.202088	-0.000142
 633	6.2884e+01	14.8135	71.148462	0.000172	1.723305	0.583872	-0.000069
 634	6.2983e+01	14.7670	71.019273	0.000324	3.243868	1.099052	-0.000130
 635	6.3083e+01	14.7365	70.890085	0.000324	3.243868	1.099052	-0.000130
 636	6.3182e+01	14.6884	70.777045	0.000284	2.838385	0.961671	-0.000114
 637	6.3282e+01	14.6466	70.684191	0.000233	2.331530	0.789944	-0.000093
 638	6.3382e+01	14.6210	70.526743	0.000395	3.953464	1.339470	-0.000158
 639	6.3481e+01	14.5777	70.417740	0.000274	2.737014	0.927325	-0.000110
 640	6.3581e+01	14.5408	70.377369	0.000101	1.013709	0.343454	-0.000041
 641	6.3680e+01	14.4958	70.236069	0.000355	3.547981	1.202088	-0.000142
 642	6.3779e+01	14.4493	70.127066	0.000274	2.737014	0.927325	-0.000110
 643	6.3879e+01	14.4172	70.014027	0.000284	2.838385	0.961671	-0.000114
 644	6.3978e+01	14.3691	69.892912	0.000304	3.041126	1.030362	-0.000122
 645	6.4078e+01	14.3402	69.796021	0.000243	2.432901	0.824289	-0.000097
 646	6.4177e+01	14.3001	69.687019	0.000274	2.737014	0.927325	-0.000110
 647	6.4277e+01	14.2488	69.594164	0.000233	2.331530	0.789944	-0.000093
 648	6.4376e+01	14.2199	69.477087	0.000294	2.939756	0.996016	-0.000118
 649	6.4476e+01	14.1654	69.380196	0.000243	2.432901	0.824289	-0.000097
 650	6.4576e+01	14.1349	69.259082	0.000304	3.041126	1.030362	-0.000122
 651	6.4675e+01	14.0996	69.154117	0.000264	2.635643	0.892980	-0.000105
 652	6.4775e+01	14.0563	69.012817	0.000355	3.547981	1.202088	-0.000142
 653	6.4874e+01	14.0162	68.936111	0.000193	1.926047	0.652562	-0.000077
 654	6.4974e+01	13.9809	68.794812	0.000355	3.547981	1.202088	-0.000142
 655	6.5073e+01	13.9296	68.689846	0.000264	2.635643	0.892980	-0.000105
 656	6.5172e+01	13.9007	68.605066	0.000213	2.128789	0.721253	-0.000085
 657	6.5272e+01	13.8654	68.463766	0.000355	3.547981	1.202088	-0.000142
 658	6.5371e+01	13.8157	68.338615	0.000314	3.142497	1.064707	-0.000126
 659	6.5471e+01	13.7788	68.249798	0.000223	2.230159	0.755598	-0.000089
 660	6.5570e+01	13.7370	68.144833	0.000264	2.635643	0.892980	-0.000105
 661	6.5670e+01	13.6937	68.023719	0.000304	3.041126	1.030362	-0.000122
 662	6.5769e+01	13.6552	67.902605	0.000304	3.041126	1.030362	-0.000122
 663	6.5869e+01	13.6087	67.757268	0.000365	3.649352	1.236434	-0.000146
 664	6.5969e+01	13.5846	67.648265	0.000274	2.737014	0.927325	-0.000110
 665	6.6068e+01	13.5365	67.579634	0.000172	1.723305	0.583872	-0.000069
 666	6.6168e+01	13.4980	67.454482	0.000314	3.142497	1.064707	-0.000126
 667	6.6267e+01	13.4499	67.337406	0.000294	2.939756	0.996016	-0.000118
 668	6.6367e+01	13.4130	67.232440	0.000264	2.635643	0.892980	-0.000105
 669	6.6466e+01	13.3825	67.091140	0.000355	3.547981	1.202088	-0.000142
 670	6.6566e+01	13.3264	66.961952	0.000324	3.243868	1.099052	-0.000130
 671	6.6665e+01	13.2975	66.881209	0.000203	2.027418	0.686908	-0.000081
 672	6.6764e+01	13.2542	66.772207	0.000274	2.737014	0.927325	-0.000110
 673	6.6864e+01	13.2205	66.630907	0.000355	3.547981	1.202088	-0.000142
 674	6.6963e+01	13.1772	66.521904	0.000274	2.737014	0.927325	-0.000110
 675	6.7063e+01	13.1322	66.429050	0.000233	2.331530	0.789944	-0.000093
 676	6.7162e+01	13.1002	66.340233	0.000223	2.230159	0.755598	-0.000089
 677	6.7262e+01	13.0520	66.170673	0.000426	4.257577	1.442506	-0.000170
 678	6.7362e+01	13.0183	66.061671	0.000274	2.737014	0.927325	-0.000110
 679	6.7461e+01	12.9750	65.972854	0.000223	2.230159	0.755598	-0.000089
 680	6.7561e+01	12.9510	65.847702	0.000314	3.142497	1.064707	-0.000126
 681	6.7660e+01	12.8868	65.734663	0.000284	2.838385	0.961671	-0.000114
 682	6.7760e+01	12.8659	65.653920	0.000203	2.027418	0.686908	-0.000081
 683	6.7859e+01	12.8146	65.516657	0.000345	3.446610	1.167743	-0.000138
 684	6.7959e+01	12.7809	65.435915	0.000203	2.027418	0.686908	-0.000081
 685	6.8058e+01	12.7392	65.294615	0.000355	3.547981	1.202088	-0.000142
 686	6.8157e+01	12.7039	65.185612	0.000274	2.737014	0.927325	-0.000110
 687	6.8257e+01	12.6606	65.048350	0.000345	3.446610	1.167743	-0.000138
 688	6.8356e+01	12.6173	64.935310	0.000284	2.838385	0.961671	-0.000114
 689	6.8456e+01	12.5868	64.818233	0.000294	2.939756	0.996016	-0.000118
 690	6.8555e+01	12.5483	64.693082	0.000314	3.142497	1.064707	-0.000126
 691	6.8655e+01	12.5018	64.600228	0.000233	2.331530	0.789944	-0.000093
 692	6.8754e+01	12.4633	64.471039	0.000324	3.243868	1.099052	-0.000130
 693	6.8854e+01	12.4280	64.353962	0.000294	2.939756	0.996016	-0.000118
 694	6.8954e+01	12.3943	64.281294	0.000182	1.824676	0.618217	-0.000073
 695	6.9053e+01	12.3398	64.139994	0.000355	3.547981	1.202088	-0.000142
 696	6.9153e+01	12.3125	64.002731	0.000345	3.446610	1.167743	-0.000138
 697	6.9252e+01	12.2612	63.877580	0.000314	3.142497	1.064707	-0.000126
 698	6.9352e+01	12.2194	63.748392	0.000324	3.243868	1.099052	-0.000130
 699	6.9451e+01	12.1793	63.635352	0.000284	2.838385	0.961671	-0.000114
 700	6.9550e+01	12.1376	63.522312	0.000284	2.838385	0.961671	-0.000114
 701	6.9650e+01	12.1023	63.401198	0.000304	3.041126	1.030362	-0.000122
 702	6.9749e+01	12.0638	63.263936	0.000345	3.446610	1.167743	-0.000138
 703	6.9849e+01	12.0205	63.163007	0.000253	2.534272	0.858635	-0.000101
 704	6.9948e+01	11.9852	63.021707	0.000355	3.547981	1.202088	-0.000142
 705	7.0048e+01	11.9435	62.928853	0.000233	2.331530	0.789944	-0.000093
 706	7.0147e+01	11.9050	62.835999	0.000233	2.331530	0.789944	-0.000093
 707	7.0247e+01	11.8681	62.731034	0.000264	2.635643	0.892980	-0.000105
 708	7.0347e+01	11.8376	62.581660	0.000375	3.750723	1.270779	-0.000150
 709	7.0446e+01	11.7943	62.476694	0.000264	2.635643	0.892980	-0.000105
 710	7.0546e+01	11.7478	62.343469	0.000335	3.345239	1.133398	-0.000134
 711	7.0645e+01	11.7029	62.218317	0.000314	3.142497	1.064707	-0.000126
 712	7.0745e+01	11.6756	62.089129	0.000324	3.243868	1.099052	-0.000130
 713	7.0844e+01	11.6307	62.004349	0.000213	2.128789	0.721253	-0.000085
 714	7.0944e+01	11.5874	61.850938	0.000385	3.852093	1.305125	-0.000154
 715	7.1043e+01	11.5521	61.725787	0.000314	3.142497	1.064707	-0.000126
 716	7.1142e+01	11.5056	61.624858	0.000253	2.534272	0.858635	-0.000101
 717	7.1242e+01	11.4703	61.503744	0.000304	3.041126	1.030362	-0.000122
 718	7.1341e+01	11.4173	61.374556	0.000324	3.243868	1.099052	-0.000130
 719	7.1441e+01	11.3981	61.253442	0.000304	3.041126	1.030362	-0.000122
 720	7.1540e+01	11.3499	61.136365	0.000294	2.939756	0.996016	-0.000118
 721	7.1640e+01	11.3098	61.023325	0.000284	2.838385	0.961671	-0.000114
 722	7.1740e+01	11.2745	60.869914	0.000385	3.852093	1.305125	-0.000154
 723	7.1839e+01	11.2264	60.768986	0.000253	2.534272	0.858635	-0.000101
 724	7.1939e+01	11.1911	60.639797	0.000324	3.243868	1.099052	-0.000130
 725	7.2038e+01	11.1446	60.506572	0.000335	3.345239	1.133398	-0.000134
 726	7.2138e+01	11.1061	60.353161	0.000385	3.852093	1.305125	-0.000154
 727	7.2237e+01	11.0692	60.248195	0.000264	2.635643	0.892980	-0.000105
 728	7.2337e+01	11.0275	60.127081	0.000304	3.041126	1.030362	-0.000122
 729	7.2436e+01	10.9826	59.989818	0.000345	3.446610	1.167743	-0.000138
 730	7.2535e+01	10.9537	59.860630	0.000324	3.243868	1.099052	-0.000130
 731	7.2635e+01	10.9072	59.727405	0.000335	3.345239	1.133398	-0.000134
 732	7.2734e+01	10.8655	59.626476	0.000253	2.534272	0.858635	-0.000101
 733	7.2834e+01	10.8189	59.452879	0.000436	4.358948	1.476852	-0.000174
 734	7.2933e+01	10.7917	59.364062	0.000223	2.230159	0.755598	-0.000089
 735	7.3033e+01	10.7612	59.218726	0.000365	3.649352	1.236434	-0.000146
 736	7.3132e+01	10.7147	59.073389	0.000365	3.649352	1.236434	-0.000146
 737	7.3232e+01	10.6730	58.952275	0.000304	3.041126	1.030362	-0.000122
 738	7.3332e+01	10.6313	58.851346	0.000253	2.534272	0.858635	-0.000101
 739	7.3431e+01	10.5879	58.714084	0.000345	3.446610	1.167743	-0.000138
 740	7.3531e+01	10.5526	58.588932	0.000314	3.142497	1.064707	-0.000126
 741	7.3630e+01	10.5206	58.447633	0.000355	3.547981	1.202088	-0.000142
 742	7.3730e+01	10.4708	58.342667	0.000264	2.635643	0.892980	-0.000105
 743	7.3829e+01	10.4243	58.181182	0.000405	4.054835	1.373815	-0.000162
 744	7.3928e+01	10.3858	58.051993	0.000324	3.243868	1.099052	-0.000130
 745	7.4028e+01	10.3409	57.947028	0.000264	2.635643	0.892980	-0.000105
 746	7.4127e+01	10.3120	57.821877	0.000314	3.142497	1.064707	-0.000126
 747	7.4227e+01	10.2751	57.660391	0.000405	4.054835	1.373815	-0.000162
 748	7.4326e+01	10.2350	57.543314	0.000294	2.939756	0.996016	-0.000118
 749	7.4426e+01	10.1917	57.410089	0.000335	3.345239	1.133398	-0.000134
 750	7.4525e+01	10.1548	57.284938	0.000314	3.142497	1.064707	-0.000126
 751	7.4625e+01	10.1083	57.179972	0.000264	2.635643	0.892980	-0.000105
 752	7.4725e+01	10.0746	56.990227	0.000476	4.764431	1.614233	-0.000191
 753	7.4824e+01	10.0329	56.881224	0.000274	2.737014	0.927325	-0.000110
 754	7.4924e+01	9.9944	56.743961	0.000345	3.446610	1.167743	-0.000138
 755	7.5023e+01	9.9559	56.614773	0.000324	3.243868	1.099052	-0.000130
 756	7.5123e+01	9.9174	56.477510	0.000345	3.446610	1.167743	-0.000138
 757	7.5222e+01	9.8805	56.364471	0.000284	2.838385	0.961671	-0.000114
 758	7.5322e+01	9.8420	56.211059	0.000385	3.852093	1.305125	-0.000154
 759	7.5421e+01	9.7922	56.065723	0.000365	3.649352	1.236434	-0.000146
 760	7.5520e+01	9.7441	55.940571	0.000314	3.142497	1.064707	-0.000126
 761	7.5620e+01	9.7200	55.819457	0.000304	3.041126	1.030362	-0.000122
 762	7.5719e+01	9.6735	55.674120	0.000365	3.649352	1.236434	-0.000146
 763	7.5819e+01	9.6430	55.520709	0.000385	3.852093	1.305125	-0.000154
 764	7.5918e+01	9.5933	55.415744	0.000264	2.635643	0.892980	-0.000105
 765	7.6018e+01	9.5548	55.302704	0.000284	2.838385	0.961671	-0.000114
 766	7.6118e+01	9.5131	55.141218	0.000405	4.054835	1.373815	-0.000162
 767	7.6217e+01	9.4842	54.987807	0.000385	3.852093	1.305125	-0.000154
 768	7.6317e+01	9.4329	54.862656	0.000314	3.142497	1.064707	-0.000126
 769	7.6416e+01	9.3976	54.709245	0.000385	3.852093	1.305125	-0.000154
 770	7.6516e+01	9.3607	54.600242	0.000274	2.737014	0.927325	-0.000110
 771	7.6615e+01	9.3142	54.434720	0.000416	4.156206	1.408161	-0.000166
 772	7.6715e+01	9.2725	54.333791	0.000253	2.534272	0.858635	-0.000101
 773	7.6814e+01	9.2340	54.164232	0.000426	4.257577	1.442506	-0.000170
 774	7.6913e+01	9.1939	54.047155	0.000294	2.939756	0.996016	-0.000118
 775	7.7013e+01	9.1505	53.889706	0.000395	3.953464	1.339470	-0.000158
 776	7.7112e+01	9.1185	53.752444	0.000345	3.446610	1.167743	-0.000138
 777	7.7212e+01	9.0767	53.594995	0.000395	3.953464	1.339470	-0.000158
 778	7.7311e+01	9.0447	53.481956	0.000284	2.838385	0.961671	-0.000114
 779	7.7411e+01	8.9917	53.344693	0.000345	3.446610	1.167743	-0.000138
 780	7.7510e+01	8.9564	53.179171	0.000416	4.156206	1.408161	-0.000166
 781	7.7610e+01	8.9227	53.029796	0.000375	3.750723	1.270779	-0.000150
 782	7.7710e+01	8.8762	52.920794	0.000274	2.737014	0.927325	-0.000110
 783	7.7809e+01	8.8249	52.751234	0.000426	4.257577	1.442506	-0.000170
 784	7.7909e+01	8.7928	52.658380	0.000233	2.331530	0.789944	-0.000093
 785	7.8008e+01	8.7607	52.504969	0.000385	3.852093	1.305125	-0.000154
 786	7.8108e+01	8.7094	52.363669	0.000355	3.547981	1.202088	-0.000142
 787	7.8207e+01	8.6789	52.214295	0.000375	3.750723	1.270779	-0.000150
 788	7.8306e+01	8.6420	52.085107	0.000324	3.243868	1.099052	-0.000130
 789	7.8406e+01	8.6003	51.915547	0.000426	4.257577	1.442506	-0.000170
 790	7.8505e+01	8.5586	51.798470	0.000294	2.939756	0.996016	-0.000118
 791	7.8605e+01	8.5040	51.628910	0.000426	4.257577	1.442506	-0.000170
 792	7.8704e+01	8.4768	51.507796	0.000304	3.041126	1.030362	-0.000122
 793	7.8804e+01	8.4367	51.362459	0.000365	3.649352	1.236434	-0.000146
 794	7.8903e+01	8.3982	51.225197	0.000345	3.446610	1.167743	-0.000138
 795	7.9003e+01	8.3645	51.059674	0.000416	4.156206	1.408161	-0.000166
 796	7.9103e+01	8.3196	50.926449	0.000335	3.345239	1.133398	-0.000134
 797	7.9202e+01	8.2746	50.801298	0.000314	3.142497	1.064707	-0.000126
 798	7.9302e+01	8.2409	50.627701	0.000436	4.358948	1.476852	-0.000174
 799	7.9401e+01	8.1944	50.514661	0.000284	2.838385	0.961671	-0.000114
 800	7.9501e+01	8.1543	50.324916	0.000476	4.764431	1.614233	-0.000191
 801	7.9600e+01	8.1238	50.228024	0.000243	2.432901	0.824289	-0.000097
 802	7.9700e+01	8.0773	50.078650	0.000375	3.750723	1.270779	-0.000150
 803	7.9799e+01	8.0372	49.901016	0.000446	4.460319	1.511197	-0.000179
 804	7.9898e+01	7.9939	49.792014	0.000274	2.737014	0.927325	-0.000110
 805	7.9998e+01	7.9570	49.650714	0.000355	3.547981	1.202088	-0.000142
 806	8.0097e+01	7.9185	49.456931	0.000487	4.865802	1.648578	-0.000195
 807	8.0197e+01	7.8784	49.335817	0.000304	3.041126	1.030362	-0.000122
 808	8.0296e+01	7.8335	49.226815	0.000274	2.737014	0.927325	-0.000110
 809	8.0396e+01	7.8046	49.077441	0.000375	3.750723	1.270779	-0.000150
 810	8.0496e+01	7.7629	48.903844	0.000436	4.358948	1.476852	-0.000174
 811	8.0595e+01	7.7180	48.786767	0.000294	2.939756	0.996016	-0.000118
 812	8.0695e+01	7.6827	48.605096	0.000456	4.561690	1.545542	-0.000183
 813	8.0794e+01	7.6458	48.488019	0.000294	2.939756	0.996016	-0.000118
 814	8.0894e+01	7.5993	48.330570	0.000395	3.953464	1.339470	-0.000158
 815	8.0993e+01	7.5607	48.237716	0.000233	2.331530	0.789944	-0.000093
 816	8.1093e+01	7.5319	48.088342	0.000375	3.750723	1.270779	-0.000150
 817	8.1192e+01	7.4854	47.914746	0.000436	4.358948	1.476852	-0.000174
 818	8.1291e+01	7.4388	47.805743	0.000274	2.737014	0.927325	-0.000110
 819	8.1391e+01	7.4003	47.595812	0.000527	5.271286	1.785960	-0.000211
 820	8.1490e+01	7.3618	47.490846	0.000264	2.635643	0.892980	-0.000105
 821	8.1590e+01	7.3137	47.301101	0.000476	4.764431	1.614233	-0.000191
 822	8.1689e+01	7.2864	47.204210	0.000243	2.432901	0.824289	-0.000097
 823	8.1789e+01	7.2463	47.050798	0.000385	3.852093	1.305125	-0.000154
 824	8.1888e+01	7.2062	46.905462	0.000365	3.649352	1.236434	-0.000146
 825	8.1988e+01	7.1661	46.768199	0.000345	3.446610	1.167743	-0.000138
 826	8.2088e+01	7.1228	46.618825	0.000375	3.750723	1.270779	-0.000150
 827	8.2187e+01	7.0827	46.465414	0.000385	3.852093	1.305125	-0.000154
 828	8.2287e+01	7.0394	46.267594	0.000497	4.967173	1.682924	-0.000199
 829	8.2386e+01	7.0009	46.174740	0.000233	2.331530	0.789944	-0.000093
 830	8.2486e+01	6.9511	46.009217	0.000416	4.156206	1.408161	-0.000166
 831	8.2585e+01	6.9175	45.859843	0.000375	3.750723	1.270779	-0.000150
 832	8.2684e+01	6.8854	45.742766	0.000294	2.939756	0.996016	-0.000118
 833	8.2784e+01	6.8404	45.581281	0.000405	4.054835	1.373815	-0.000162
 834	8.2883e+01	6.7987	45.415758	0.000416	4.156206	1.408161	-0.000166
 835	8.2983e+01	6.7602	45.262347	0.000385	3.852093	1.305125	-0.000154
 836	8.3082e+01	6.7217	45.112973	0.000375	3.750723	1.270779	-0.000150
 837	8.3182e+01	6.6864	44.991859	0.000304	3.041126	1.030362	-0.000122
 838	8.3281e+01	6.6351	44.838448	0.000385	3.852093	1.305125	-0.000154
 839	8.3381e+01	6.6159	44.681000	0.000395	3.953464	1.339470	-0.000158
 840	8.3481e+01	6.5645	44.519514	0.000405	4.054835	1.373815	-0.000162
 841	8.3580e+01	6.5308	44.382252	0.000345	3.446610	1.167743	-0.000138
 842	8.3680e+01	6.4843	44.236915	0.000365	3.649352	1.236434	-0.000146
 843	8.3779e+01	6.4474	44.075429	0.000405	4.054835	1.373815	-0.000162
 844	8.3879e+01	6.4041	43.930093	0.000365	3.649352	1.236434	-0.000146
 845	8.3978e+01	6.3640	43.813016	0.000294	2.939756	0.996016	-0.000118
 846	8.4078e+01	6.3191	43.639419	0.000436	4.358948	1.476852	-0.000174
 847	8.4177e+01	6.2902	43.490045	0.000375	3.750723	1.270779	-0.000150
 848	8.4276e+01	6.2437	43.328559	0.000405	4.054835	1.373815	-0.000162
 849	8.4376e+01	6.2052	43.191297	0.000345	3.446610	1.167743	-0.000138
 850	8.4475e+01	6.1715	43.054034	0.000345	3.446610	1.167743	-0.000138
 851	8.4575e+01	6.1266	42.888512	0.000416	4.156206	1.408161	-0.000166
 852	8.4674e+01	6.0897	42.702803	0.000466	4.663061	1.579888	-0.000187
 853	8.4774e+01	6.0576	42.601875	0.000253	2.534272	0.858635	-0.000101
 854	8.4874e+01	6.0095	42.416167	0.000466	4.663061	1.579888	-0.000187
 855	8.4973e+01	5.9645	42.266793	0.000375	3.750723	1.270779	-0.000150
 856	8.5073e+01	5.9244	42.109344	0.000395	3.953464	1.339470	-0.000158
 857	8.5172e+01	5.8859	41.980156	0.000324	3.243868	1.099052	-0.000130
 858	8.5272e+01	5.8522	41.786373	0.000487	4.865802	1.648578	-0.000195
 859	8.5371e+01	5.8041	41.649111	0.000345	3.446610	1.167743	-0.000138
 860	8.5471e+01	5.7752	41.527997	0.000304	3.041126	1.030362	-0.000122
 861	8.5570e+01	5.7319	41.366511	0.000405	4.054835	1.373815	-0.000162
 862	8.5669e+01	5.6950	41.200989	0.000416	4.156206	1.408161	-0.000166
 863	8.5769e+01	5.6501	41.051615	0.000375	3.750723	1.270779	-0.000150
 864	8.5868e+01	5.6164	40.894166	0.000395	3.953464	1.339470	-0.000158
 865	8.5968e+01	5.5651	40.756904	0.000345	3.446610	1.167743	-0.000138
 866	8.6067e+01	5.5266	40.587344	0.000426	4.257577	1.442506	-0.000170
 867	8.6167e+01	5.4961	40.446044	0.000355	3.547981	1.202088	-0.000142
 868	8.6266e+01	5.4496	40.292633	0.000385	3.852093	1.305125	-0.000154
 869	8.6366e+01	5.4191	40.086739	0.000517	5.169915	1.751615	-0.000207
 870	8.6466e+01	5.3662	39.965625	0.000304	3.041126	1.030362	-0.000122
 871	8.6565e+01	5.3389	39.812214	0.000385	3.852093	1.305125	-0.000154
 872	8.6665e+01	5.2892	39.626506	0.000466	4.663061	1.579888	-0.000187
 873	8.6764e+01	5.2474	39.501355	0.000314	3.142497	1.064707	-0.000126
 874	8.6864e+01	5.2122	39.323721	0.000446	4.460319	1.511197	-0.000179
 875	8.6963e+01	5.1656	39.206644	0.000294	2.939756	0.996016	-0.000118
 876	8.7063e+01	5.1207	39.049195	0.000395	3.953464	1.339470	-0.000158
 877	8.7162e+01	5.0886	38.883673	0.000416	4.156206	1.408161	-0.000166
 878	8.7261e+01	5.0565	38.734299	0.000375	3.750723	1.270779	-0.000150
 879	8.7361e+01	5.0100	38.532442	0.000507	5.068544	1.717269	-0.000203
 880	8.7460e+01	4.9763	38.427477	0.000264	2.635643	0.892980	-0.000105
 881	8.7560e+01	4.9346	38.217545	0.000527	5.271286	1.785960	-0.000211
 882	8.7659e+01	4.8849	38.080283	0.000345	3.446610	1.167743	-0.000138
 883	8.7759e+01	4.8512	37.930909	0.000375	3.750723	1.270779	-0.000150
 884	8.7859e+01	4.8063	37.761349	0.000426	4.257577	1.442506	-0.000170
 885	8.7958e+01	4.7694	37.599864	0.000405	4.054835	1.373815	-0.000162
 886	8.8058e+01	4.7341	37.438378	0.000405	4.054835	1.373815	-0.000162
 887	8.8157e+01	4.6892	37.264781	0.000436	4.358948	1.476852	-0.000174
 888	8.8257e+01	4.6507	37.139630	0.000314	3.142497	1.064707	-0.000126
 889	8.8356e+01	4.6009	36.957959	0.000456	4.561690	1.545542	-0.000183
 890	8.8456e+01	4.5753	36.832808	0.000314	3.142497	1.064707	-0.000126
 891	8.8555e+01	4.5271	36.667285	0.000416	4.156206	1.408161	-0.000166
 892	8.8654e+01	4.4983	36.501763	0.000416	4.156206	1.408161	-0.000166
 893	8.8754e+01	4.4485	36.324129	0.000446	4.460319	1.511197	-0.000179
 894	8.8853e+01	4.4148	36.166681	0.000395	3.953464	1.339470	-0.000158
 895	8.8953e+01	4.3715	35.985009	0.000456	4.561690	1.545542	-0.000183
 896	8.9052e+01	4.3378	35.791227	0.000487	4.865802	1.648578	-0.000195
 897	8.9152e+01	4.2913	35.658001	0.000335	3.345239	1.133398	-0.000134
 898	8.9251e+01	4.2544	35.512665	0.000365	3.649352	1.236434	-0.000146
 899	8.9351e+01	4.2159	35.310808	0.000507	5.068544	1.717269	-0.000203
 900	8.9451e+01	4.1742	35.149322	0.000405	4.054835	1.373815	-0.000162
 901	8.9550e+01	4.1373	34.987837	0.000405	4.054835	1.373815	-0.000162
 902	8.9650e+01	4.0892	34.830389	0.000395	3.953464	1.339470	-0.000158
 903	8.9749e+01	4.0587	34.685052	0.000365	3.649352	1.236434	-0.000146
 904	8.9849e+01	4.0170	34.495306	0.000476	4.764431	1.614233	-0.000191
 905	8.9948e+01	3.9705	34.333821	0.000405	4.054835	1.373815	-0.000162
 906	9.0047e+01	3.9384	34.144076	0.000476	4.764431	1.614233	-0.000191
 907	9.0147e+01	3.8967	33.986627	0.000395	3.953464	1.339470	-0.000158
 908	9.0246e+01	3.8486	33.821105	0.000416	4.156206	1.408161	-0.000166
 909	9.0346e+01	3.8149	33.655582	0.000416	4.156206	1.408161	-0.000166
 910	9.0445e+01	3.7748	33.494097	0.000405	4.054835	1.373815	-0.000162
 911	9.0545e+01	3.7298	33.328574	0.000416	4.156206	1.408161	-0.000166
 912	9.0644e+01	3.6913	33.150940	0.000446	4.460319	1.511197	-0.000179
 913	9.0744e+01	3.6528	32.977343	0.000436	4.358948	1.476852	-0.000174
 914	9.0844e+01	3.6191	32.832006	0.000365	3.649352	1.236434	-0.000146
 915	9.0943e+01	3.5806	32.630150	0.000507	5.068544	1.717269	-0.000203
 916	9.1043e+01	3.5277	32.444441	0.000466	4.663061	1.579888	-0.000187
 917	9.1142e+01	3.5069	32.291030	0.000385	3.852093	1.305125	-0.000154
 918	9.1242e+01	3.4523	32.117433	0.000436	4.358948	1.476852	-0.000174
 919	9.1341e+01	3.4122	31.964022	0.000385	3.852093	1.305125	-0.000154
 920	9.1441e+01	3.3737	31.798500	0.000416	4.156206	1.408161	-0.000166
 921	9.1540e+01	3.3304	31.584531	0.000537	5.372657	1.820305	-0.000215
 922	9.1639e+01	3.3015	31.443232	0.000355	3.547981	1.202088	-0.000142
 923	9.1739e+01	3.2566	31.301932	0.000355	3.547981	1.202088	-0.000142
 924	9.1838e+01	3.2181	31.092001	0.000527	5.271286	1.785960	-0.000211
 925	9.1938e+01	3.1700	30.926478	0.000416	4.156206	1.408161	-0.000166
 926	9.2037e+01	3.1427	30.789216	0.000345	3.446610	1.167743	-0.000138
 927	9.2137e+01	3.1010	30.615619	0.000436	4.358948	1.476852	-0.000174
 928	9.2237e+01	3.0593	30.421836	0.000487	4.865802	1.648578	-0.000195
 929	9.2336e+01	3.0192	30.224017	0.000497	4.967173	1.682924	-0.000199
 930	9.2436e+01	2.9823	30.046383	0.000446	4.460319	1.511197	-0.000179
 931	9.2535e+01	2.9406	29.860674	0.000466	4.663061	1.579888	-0.000187
 932	9.2635e+01	2.8988	29.731486	0.000324	3.243868	1.099052	-0.000130
 933	9.2734e+01	2.8603	29.557889	0.000436	4.358948	1.476852	-0.000174
 934	9.2834e+01	2.8234	29.368144	0.000476	4.764431	1.614233	-0.000191
 935	9.2933e+01	2.7769	29.186473	0.000456	4.561690	1.545542	-0.000183
 936	9.3032e+01	2.7416	29.037099	0.000375	3.750723	1.270779	-0.000150
 937	9.3132e+01	2.7031	28.815056	0.000558	5.575398	1.888996	-0.000223
 938	9.3231e+01	2.6598	28.665682	0.000375	3.750723	1.270779	-0.000150
 939	9.3331e+01	2.6197	28.475937	0.000476	4.764431	1.614233	-0.000191
 940	9.3430e+01	2.5764	28.298303	0.000446	4.460319	1.511197	-0.000179
 941	9.3530e+01	2.5427	28.152966	0.000365	3.649352	1.236434	-0.000146
 942	9.3629e+01	2.5026	27.955146	0.000497	4.967173	1.682924	-0.000199
 943	9.3729e+01	2.4609	27.757327	0.000497	4.967173	1.682924	-0.000199
 944	9.3829e+01	2.4256	27.611990	0.000365	3.649352	1.236434	-0.000146
 945	9.3928e+01	2.3839	27.430319	0.000456	4.561690	1.545542	-0.000183
 946	9.4028e+01	2.3358	27.228462	0.000507	5.068544	1.717269	-0.000203
 947	9.4127e+01	2.3005	27.062939	0.000416	4.156206	1.408161	-0.000166
 948	9.4227e+01	2.2700	26.889343	0.000436	4.358948	1.476852	-0.000174
 949	9.4326e+01	2.2235	26.731894	0.000395	3.953464	1.339470	-0.000158
 950	9.4425e+01	2.1834	26.554260	0.000446	4.460319	1.511197	-0.000179
 951	9.4525e+01	2.1400	26.360478	0.000487	4.865802	1.648578	-0.000195
 952	9.4624e+01	2.1064	26.154584	0.000517	5.169915	1.751615	-0.000207
 953	9.4724e+01	2.0614	26.037507	0.000294	2.939756	0.996016	-0.000118
 954	9.4823e+01	2.0197	25.811427	0.000568	5.676769	1.923342	-0.000227
 955	9.4923e+01	1.9780	25.605533	0.000517	5.169915	1.751615	-0.000207
 956	9.5022e+01	1.9524	25.460197	0.000365	3.649352	1.236434	-0.000146
 957	9.5122e+01	1.9074	25.274488	0.000466	4.663061	1.579888	-0.000187
 958	9.5222e+01	1.8641	25.088780	0.000466	4.663061	1.579888	-0.000187
 959	9.5321e+01	1.8256	24.923257	0.000416	4.156206	1.408161	-0.000166
 960	9.5421e+01	1.7807	24.733512	0.000476	4.764431	1.614233	-0.000191
 961	9.5520e+01	1.7406	24.539730	0.000487	4.865802	1.648578	-0.000195
 962	9.5620e+01	1.7165	24.374207	0.000416	4.156206	1.408161	-0.000166
 963	9.5719e+01	1.6732	24.192536	0.000456	4.561690	1.545542	-0.000183
 964	9.5819e+01	1.6283	24.027013	0.000416	4.156206	1.408161	-0.000166
 965	9.5918e+01	1.5818	23.857454	0.000426	4.257577	1.442506	-0.000170
 966	9.6017e+01	1.5401	23.635411	0.000558	5.575398	1.888996	-0.000223
 967	9.6117e+01	1.5000	23.453740	0.000456	4.561690	1.545542	-0.000183
 968	9.6216e+01	1.4566	23.308403	0.000365	3.649352	1.236434	-0.000146
 969	9.6316e+01	1.4246	23.110584	0.000497	4.967173	1.682924	-0.000199
 970	9.6415e+01	1.3845	22.932950	0.000446	4.460319	1.511197	-0.000179
 971	9.6515e+01	1.3476	22.743204	0.000476	4.764431	1.614233	-0.000191
 972	9.6615e+01	1.2994	22.565570	0.000446	4.460319	1.511197	-0.000179
 973	9.6714e+01	1.2577	22.408122	0.000395	3.953464	1.339470	-0.000158
 974	9.6814e+01	1.2224	22.178005	0.000578	5.778140	1.957687	-0.000231
 975	9.6913e+01	1.1887	22.040743	0.000345	3.446610	1.167743	-0.000138
 976	9.7013e+01	1.1550	21.855034	0.000466	4.663061	1.579888	-0.000187
 977	9.7112e+01	1.1085	21.669326	0.000466	4.663061	1.579888	-0.000187
 978	9.7212e+01	1.0620	21.499766	0.000426	4.257577	1.442506	-0.000170
 979	9.7311e+01	1.0171	21.318095	0.000456	4.561690	1.545542	-0.000183
 980	9.7410e+01	0.9898	21.096053	0.000558	5.575398	1.888996	-0.000223
 981	9.7510e+01	0.9481	20.946679	0.000375	3.750723	1.270779	-0.000150
 982	9.7609e+01	0.8968	20.728673	0.000547	5.474028	1.854651	-0.000219
 983	9.7709e+01	0.8695	20.583337	0.000365	3.649352	1.236434	-0.000146
 984	9.7808e+01	0.8310	20.417814	0.000416	4.156206	1.408161	-0.000166
 985	9.7908e+01	0.7925	20.203846	0.000537	5.372657	1.820305	-0.000215
 986	9.8007e+01	0.7524	20.038323	0.000416	4.156206	1.408161	-0.000166
 987	9.8107e+01	0.7075	19.840504	0.000497	4.967173	1.682924	-0.000199
 988	9.8207e+01	0.6706	19.679018	0.000405	4.054835	1.373815	-0.000162
 989	9.8306e+01	0.6337	19.473124	0.000517	5.169915	1.751615	-0.000207
 990	9.8406e+01	0.5936	19.295490	0.000446	4.460319	1.511197	-0.000179
 991	9.8505e+01	0.5438	19.097671	0.000497	4.967173	1.682924	-0.000199
 992	9.8605e+01	0.5053	18.956371	0.000355	3.547981	1.202088	-0.000142
 993	9.8704e+01	0.4684	18.794885	0.000405	4.054835	1.373815	-0.000162
 994	9.8803e+01	0.4299	18.564769	0.000578	5.778140	1.957687	-0.000231
 995	9.8903e+01	0.3898	18.415395	0.000375	3.750723	1.270779	-0.000150
 996	9.9002e+01	0.3449	18.197389	0.000547	5.474028	1.854651	-0.000219
 997	9.9102e+01	0.3048	17.995533	0.000507	5.068544	1.717269	-0.000203
 998	9.9201e+01	0.2679	17.898641	0.000243	2.432901	0.824289	-0.000097
 999	9.9301e+01	0.2262	17.656413	0.000608	6.082253	2.060723	-0.000243
1000	9.9400e+01	0.1957	17.486853	0.000426	4.257577	1.442506	-0.000170
1001	9.9500e+01	0.1540	17.297108	0.000476	4.764431	1.614233	-0.000191
1002	9.9600e+01	0.1123	17.099288	0.000497	4.967173	1.682924	-0.000199
1003	9.9699e+01	0.0674	16.941840	0.000395	3.953464	1.339470	-0.000158
1004	9.9799e+01	0.0241	16.735946	0.000517	5.169915	1.751615	-0.000207
1005	9.9898e+01	-0.0032	16.582535	0.000385	3.852093	1.305125	-0.000154
1006	9.9998e+01	-0.0417	16.408938	0.000436	4.358948	1.476852	-0.000174
1007	1.0010e+02	-0.0866	16.267638	0.000355	3.547981	1.202088	-0.000142
1008	1.0020e+02	-0.1235	16.073856	0.000487	4.865802	1.648578	-0.000195
1009	1.0030e+02	-0.1700	15.867962	0.000517	5.169915	1.751615	-0.000207
1010	1.0040e+02	-0.2021	15.702439	0.000416	4.156206	1.408161	-0.000166
1011	1.0050e+02	-0.2278	15.504620	0.000497	4.967173	1.682924	-0.000199
1012	1.0059e+02	-0.2823	15.314874	0.000476	4.764431	1.614233	-0.000191
1013	1.0069e+02	-0.3257	15.125129	0.000476	4.764431	1.614233	-0.000191
1014	1.0079e+02	-0.3642	14.967681	0.000395	3.953464	1.339470	-0.000158
1015	1.0089e+02	-0.3978	14.798121	0.000426	4.257577	1.442506	-0.000170
1016	1.0099e+02	-0.4444	14.588190	0.000527	5.271286	1.785960	-0.000211
1017	1.0109e+02	-0.4813	14.406519	0.000456	4.561690	1.545542	-0.000183
1018	1.0119e+02	-0.5134	14.257145	0.000375	3.750723	1.270779	-0.000150
1019	1.0129e+02	-0.5647	14.083548	0.000436	4.358948	1.476852	-0.000174
1020	1.0139e+02	-0.6048	13.885728	0.000497	4.967173	1.682924	-0.000199
1021	1.0149e+02	-0.6337	13.700020	0.000466	4.663061	1.579888	-0.000187
1022	1.0159e+02	-0.6802	13.534498	0.000416	4.156206	1.408161	-0.000166
1023	1.0169e+02	-0.7171	13.356864	0.000446	4.460319	1.511197	-0.000179
1024	1.0179e+02	-0.7620	13.134821	0.000558	5.575398	1.888996	-0.000223
1025	1.0189e+02	-0.7989	12.993521	0.000355	3.547981	1.202088	-0.000142
1026	1.0199e+02	-0.8390	12.799739	0.000487	4.865802	1.648578	-0.000195
1027	1.0209e+02	-0.8807	12.622105	0.000446	4.460319	1.511197	-0.000179
1028	1.0219e+02	-0.9208	12.408137	0.000537	5.372657	1.820305	-0.000215
1029	1.0229e+02	-0.9593	12.222428	0.000466	4.663061	1.579888	-0.000187
1030	1.0239e+02	-0.9914	12.044794	0.000446	4.460319	1.511197	-0.000179
1031	1.0248e+02	-1.0476	11.842938	0.000507	5.068544	1.717269	-0.000203
1032	1.0258e+02	-1.0796	11.697601	0.000365	3.649352	1.236434	-0.000146
1033	1.0268e+02	-1.1246	11.475558	0.000558	5.575398	1.888996	-0.000223
1034	1.0278e+02	-1.1663	11.310036	0.000416	4.156206	1.408161	-0.000166
1035	1.0288e+02	-1.2032	11.116253	0.000487	4.865802	1.648578	-0.000195
1036	1.0298e+02	-1.2353	10.930545	0.000466	4.663061	1.579888	-0.000187
1037	1.0308e+02	-1.2754	10.773097	0.000395	3.953464	1.339470	-0.000158
1038	1.0318e+02	-1.3171	10.579314	0.000487	4.865802	1.648578	-0.000195
1039	1.0328e+02	-1.3508	10.377457	0.000507	5.068544	1.717269	-0.000203
1040	1.0338e+02	-1.3845	10.215972	0.000405	4.054835	1.373815	-0.000162
1041	1.0348e+02	-1.4374	10.022189	0.000487	4.865802	1.648578	-0.000195
1042	1.0358e+02	-1.4727	9.856667	0.000416	4.156206	1.408161	-0.000166
1043	1.0368e+02	-1.5144	9.683070	0.000436	4.358948	1.476852	-0.000174
1044	1.0378e+02	-1.5481	9.473139	0.000527	5.271286	1.785960	-0.000211
1045	1.0388e+02	-1.6026	9.295505	0.000446	4.460319	1.511197	-0.000179
1046	1.0398e+02	-1.6347	9.073463	0.000558	5.575398	1.888996	-0.000223
1047	1.0408e+02	-1.6780	8.940237	0.000335	3.345239	1.133398	-0.000134
1048	1.0418e+02	-1.7197	8.730306	0.000527	5.271286	1.785960	-0.000211
1049	1.0428e+02	-1.7566	8.560746	0.000426	4.257577	1.442506	-0.000170
1050	1.0438e+02	-1.7967	8.358890	0.000507	5.068544	1.717269	-0.000203
1051	1.0447e+02	-1.8368	8.193367	0.000416	4.156206	1.408161	-0.000166
1052	1.0457e+02	-1.8705	7.963250	0.000578	5.778140	1.957687	-0.000231
1053	1.0467e+02	-1.9155	7.842136	0.000304	3.041126	1.030362	-0.000122
1054	1.0477e+02	-1.9540	7.595871	0.000618	6.183624	2.095068	-0.000248
1055	1.0487e+02	-1.9941	7.434385	0.000405	4.054835	1.373815	-0.000162
1056	1.0497e+02	-2.0278	7.256751	0.000446	4.460319	1.511197	-0.000179
1057	1.0507e+02	-2.0791	7.099303	0.000395	3.953464	1.339470	-0.000158
1058	1.0517e+02	-2.1240	6.897446	0.000507	5.068544	1.717269	-0.000203
1059	1.0527e+02	-2.1561	6.748072	0.000375	3.750723	1.270779	-0.000150
1060	1.0537e+02	-2.1962	6.513919	0.000588	5.879511	1.992032	-0.000235
1061	1.0547e+02	-2.2299	6.328210	0.000466	4.663061	1.579888	-0.000187
1062	1.0557e+02	-2.2716	6.138465	0.000476	4.764431	1.614233	-0.000191
1063	1.0567e+02	-2.3149	5.976979	0.000405	4.054835	1.373815	-0.000162
1064	1.0577e+02	-2.3486	5.787234	0.000476	4.764431	1.614233	-0.000191
1065	1.0587e+02	-2.3903	5.609600	0.000446	4.460319	1.511197	-0.000179
1066	1.0597e+02	-2.4352	5.427929	0.000456	4.561690	1.545542	-0.000183
1067	1.0607e+02	-2.4657	5.258369	0.000426	4.257577	1.442506	-0.000170
1068	1.0617e+02	-2.5170	5.068624	0.000476	4.764431	1.614233	-0.000191
1069	1.0627e+02	-2.5604	4.846581	0.000558	5.575398	1.888996	-0.000223
1070	1.0637e+02	-2.5973	4.668947	0.000446	4.460319	1.511197	-0.000179
1071	1.0647e+02	-2.6342	4.487276	0.000456	4.561690	1.545542	-0.000183
1072	1.0656e+02	-2.6743	4.350014	0.000345	3.446610	1.167743	-0.000138
1073	1.0666e+02	-2.7160	4.111823	0.000598	5.980882	2.026378	-0.000239
1074	1.0676e+02	-2.7432	3.958412	0.000385	3.852093	1.305125	-0.000154
1075	1.0686e+02	-2.7882	3.744443	0.000537	5.372657	1.820305	-0.000215
1076	1.0696e+02	-2.8283	3.534512	0.000527	5.271286	1.785960	-0.000211
1077	1.0706e+02	-2.8652	3.368990	0.000416	4.156206	1.408161	-0.000166
1078	1.0716e+02	-2.9149	3.175207	0.000487	4.865802	1.648578	-0.000195
1079	1.0726e+02	-2.9502	3.029870	0.000365	3.649352	1.236434	-0.000146
1080	1.0736e+02	-3.0015	2.856274	0.000436	4.358948	1.476852	-0.000174
1081	1.0746e+02	-3.0320	2.638268	0.000547	5.474028	1.854651	-0.000219
1082	1.0756e+02	-3.0801	2.468709	0.000426	4.257577	1.442506	-0.000170
1083	1.0766e+02	-3.1138	2.270889	0.000497	4.967173	1.682924	-0.000199
1084	1.0776e+02	-3.1459	2.089218	0.000456	4.561690	1.545542	-0.000183
1085	1.0786e+02	-3.1892	1.927732	0.000405	4.054835	1.373815	-0.000162
1086	1.0796e+02	-3.2293	1.742024	0.000466	4.663061	1.579888	-0.000187
1087	1.0806e+02	-3.2742	1.552279	0.000476	4.764431	1.614233	-0.000191
1088	1.0816e+02	-3.3127	1.326199	0.000568	5.676769	1.923342	-0.000227
1089	1.0826e+02	-3.3577	1.152602	0.000436	4.358948	1.476852	-0.000174
1090	1.0836e+02	-3.3817	0.983043	0.000426	4.257577	1.442506	-0.000170
1091	1.0845e+02	-3.4218	0.821557	0.000405	4.054835	1.373815	-0.000162
1092	1.0855e+02	-3.4716	0.664109	0.000395	3.953464	1.339470	-0.000158
1093	1.0865e+02	-3.5101	0.478401	0.000466	4.663061	1.579888	-0.000187
1094	1.0875e+02	-3.5470	0.240210	0.000598	5.980882	2.026378	-0.000239
1095	1.0885e+02	-3.5967	0.066613	0.000436	4.358948	1.476852	-0.000174
1096	1.0895e+02	-3.6320	-0.086798	0.000385	3.852093	1.305125	-0.000154
1097	1.0905e+02	-3.6705	-0.304804	0.000547	5.474028	1.854651	-0.000219
1098	1.0915e+02	-3.7090	-0.433992	0.000324	3.243868	1.099052	-0.000130
1099	1.0925e+02	-3.7427	-0.627775	0.000487	4.865802	1.648578	-0.000195
1100	1.0935e+02	-3.7908	-0.845780	0.000547	5.474028	1.854651	-0.000219
1101	1.0945e+02	-3.8277	-1.027451	0.000456	4.561690	1.545542	-0.000183
1102	1.0955e+02	-3.8630	-1.197011	0.000426	4.257577	1.442506	-0.000170
1103	1.0965e+02	-3.9079	-1.402905	0.000517	5.169915	1.751615	-0.000207
1104	1.0975e+02	-3.9576	-1.544204	0.000355	3.547981	1.202088	-0.000142
1105	1.0985e+02	-3.9913	-1.742024	0.000497	4.967173	1.682924	-0.000199
1106	1.0995e+02	-4.0266	-1.919658	0.000446	4.460319	1.511197	-0.000179
1107	1.1005e+02	-4.0587	-2.125552	0.000517	5.169915	1.751615	-0.000207
1108	1.1015e+02	-4.1052	-2.246666	0.000304	3.041126	1.030362	-0.000122
1109	1.1025e+02	-4.1518	-2.468709	0.000558	5.575398	1.888996	-0.000223
1110	1.1035e+02	-4.1806	-2.626157	0.000395	3.953464	1.339470	-0.000158
1111	1.1044e+02	-4.2239	-2.848199	0.000558	5.575398	1.888996	-0.000223
1112	1.1054e+02	-4.2689	-3.013722	0.000416	4.156206	1.408161	-0.000166
1113	1.1064e+02	-4.3042	-3.142910	0.000324	3.243868	1.099052	-0.000130
1114	1.1074e+02	-4.3491	-3.393213	0.000628	6.284995	2.129414	-0.000252
1115	1.1084e+02	-4.3812	-3.514327	0.000304	3.041126	1.030362	-0.000122
1116	1.1094e+02	-4.4229	-3.732332	0.000547	5.474028	1.854651	-0.000219
1117	1.1104e+02	-4.4694	-3.869595	0.000345	3.446610	1.167743	-0.000138
1118	1.1114e+02	-4.5111	-4.067414	0.000497	4.967173	1.682924	-0.000199
1119	1.1124e+02	-4.5384	-4.269271	0.000507	5.068544	1.717269	-0.000203
1120	1.1134e+02	-4.5785	-4.459016	0.000476	4.764431	1.614233	-0.000191
1121	1.1144e+02	-4.6218	-4.608390	0.000375	3.750723	1.270779	-0.000150
1122	1.1154e+02	-4.6635	-4.749690	0.000355	3.547981	1.202088	-0.000142
1123	1.1164e+02	-4.7036	-4.987881	0.000598	5.980882	2.026378	-0.000239
1124	1.1174e+02	-4.7357	-5.129181	0.000355	3.547981	1.202088	-0.000142
1125	1.1184e+02	-4.7774	-5.306815	0.000446	4.460319	1.511197	-0.000179
1126	1.1194e+02	-4.8159	-5.476375	0.000426	4.257577	1.442506	-0.000170
1127	1.1204e+02	-4.8592	-5.666120	0.000476	4.764431	1.614233	-0.000191
1128	1.1214e+02	-4.9106	-5.859903	0.000487	4.865802	1.648578	-0.000195
1129	1.1224e+02	-4.9410	-6.033499	0.000436	4.358948	1.476852	-0.000174
1130	1.1234e+02	-4.9811	-6.174799	0.000355	3.547981	1.202088	-0.000142
1131	1.1244e+02	-5.0309	-6.388767	0.000537	5.372657	1.820305	-0.000215
1132	1.1253e+02	-5.0630	-6.554290	0.000416	4.156206	1.408161	-0.000166
1133	1.1263e+02	-5.1079	-6.723850	0.000426	4.257577	1.442506	-0.000170
1134	1.1273e+02	-5.1464	-6.897446	0.000436	4.358948	1.476852	-0.000174
1135	1.1283e+02	-5.1769	-7.062969	0.000416	4.156206	1.408161	-0.000166
1136	1.1293e+02	-5.2218	-7.244640	0.000456	4.561690	1.545542	-0.000183
1137	1.1303e+02	-5.2603	-7.377866	0.000335	3.345239	1.133398	-0.000134
1138	1.1313e+02	-5.3068	-7.567611	0.000476	4.764431	1.614233	-0.000191
1139	1.1323e+02	-5.3437	-7.773505	0.000517	5.169915	1.751615	-0.000207
1140	1.1333e+02	-5.3870	-7.947102	0.000436	4.358948	1.476852	-0.000174
1141	1.1343e+02	-5.4223	-8.112624	0.000416	4.156206	1.408161	-0.000166
1142	1.1353e+02	-5.4656	-8.270073	0.000395	3.953464	1.339470	-0.000158
1143	1.1363e+02	-5.5009	-8.427521	0.000395	3.953464	1.339470	-0.000158
1144	1.1373e+02	-5.5442	-8.621303	0.000487	4.865802	1.648578	-0.000195
1145	1.1383e+02	-5.5956	-8.798937	0.000446	4.460319	1.511197	-0.000179
1146	1.1393e+02	-5.6244	-8.964460	0.000416	4.156206	1.408161	-0.000166
1147	1.1403e+02	-5.6645	-9.146131	0.000456	4.561690	1.545542	-0.000183
1148	1.1413e+02	-5.6934	-9.319728	0.000436	4.358948	1.476852	-0.000174
1149	1.1423e+02	-5.7399	-9.477176	0.000395	3.953464	1.339470	-0.000158
1150	1.1433e+02	-5.7817	-9.630587	0.000385	3.852093	1.305125	-0.000154
1151	1.1442e+02	-5.8282	-9.775924	0.000365	3.649352	1.236434	-0.000146
1152	1.1452e+02	-5.8683	-9.973744	0.000497	4.967173	1.682924	-0.000199
1153	1.1462e+02	-5.9036	-10.115044	0.000355	3.547981	1.202088	-0.000142
1154	1.1472e+02	-5.9421	-10.337086	0.000558	5.575398	1.888996	-0.000223
1155	1.1482e+02	-5.9806	-10.470312	0.000335	3.345239	1.133398	-0.000134
1156	1.1492e+02	-6.0207	-10.619686	0.000375	3.750723	1.270779	-0.000150
1157	1.1502e+02	-6.0656	-10.781171	0.000405	4.054835	1.373815	-0.000162
1158	1.1512e+02	-6.1073	-10.958805	0.000446	4.460319	1.511197	-0.000179
1159	1.1522e+02	-6.1378	-11.152587	0.000487	4.865802	1.648578	-0.000195
1160	1.1532e+02	-6.1779	-11.314073	0.000405	4.054835	1.373815	-0.000162
1161	1.1542e+02	-6.2196	-11.447298	0.000335	3.345239	1.133398	-0.000134
1162	1.1552e+02	-6.2613	-11.624932	0.000446	4.460319	1.511197	-0.000179
1163	1.1562e+02	-6.2982	-11.786418	0.000405	4.054835	1.373815	-0.000162
1164	1.1572e+02	-6.3303	-11.976163	0.000476	4.764431	1.614233	-0.000191
1165	1.1582e+02	-6.3816	-12.117463	0.000355	3.547981	1.202088	-0.000142
1166	1.1592e+02	-6.4233	-12.278948	0.000405	4.054835	1.373815	-0.000162
1167	1.1602e+02	-6.4586	-12.428322	0.000375	3.750723	1.270779	-0.000150
1168	1.1612e+02	-6.4939	-12.597882	0.000426	4.257577	1.442506	-0.000170
1169	1.1622e+02	-6.5356	-12.739182	0.000355	3.547981	1.202088	-0.000142
1170	1.1632e+02	-6.5822	-12.920853	0.000456	4.561690	1.545542	-0.000183
1171	1.1642e+02	-6.6159	-13.074264	0.000385	3.852093	1.305125	-0.000154
1172	1.1651e+02	-6.6495	-13.272084	0.000497	4.967173	1.682924	-0.000199
1173	1.1661e+02	-6.6945	-13.425495	0.000385	3.852093	1.305125	-0.000154
1174	1.1671e+02	-6.7298	-13.570832	0.000365	3.649352	1.236434	-0.000146
1175	1.1681e+02	-6.7747	-13.695983	0.000314	3.142497	1.064707	-0.000126
1176	1.1691e+02	-6.8180	-13.845357	0.000375	3.750723	1.270779	-0.000150
1177	1.1701e+02	-6.8533	-14.059325	0.000537	5.372657	1.820305	-0.000215
1178	1.1711e+02	-6.8902	-14.216774	0.000395	3.953464	1.339470	-0.000158
1179	1.1721e+02	-6.9255	-14.337888	0.000304	3.041126	1.030362	-0.000122
1180	1.1731e+02	-6.9752	-14.523596	0.000466	4.663061	1.579888	-0.000187
1181	1.1741e+02	-7.0089	-14.689118	0.000416	4.156206	1.408161	-0.000166
1182	1.1751e+02	-7.0474	-14.794084	0.000264	2.635643	0.892980	-0.000105
1183	1.1761e+02	-7.0923	-14.995941	0.000507	5.068544	1.717269	-0.000203
1184	1.1771e+02	-7.1324	-15.157426	0.000405	4.054835	1.373815	-0.000162
1185	1.1781e+02	-7.1757	-15.318912	0.000405	4.054835	1.373815	-0.000162
1186	1.1791e+02	-7.2142	-15.456174	0.000345	3.446610	1.167743	-0.000138
1187	1.1801e+02	-7.2592	-15.605548	0.000375	3.750723	1.270779	-0.000150
1188	1.1811e+02	-7.2912	-15.811442	0.000517	5.169915	1.751615	-0.000207
1189	1.1821e+02	-7.3362	-15.956779	0.000365	3.649352	1.236434	-0.000146
1190	1.1831e+02	-7.3634	-16.106153	0.000375	3.750723	1.270779	-0.000150
1191	1.1841e+02	-7.4116	-16.223230	0.000294	2.939756	0.996016	-0.000118
1192	1.1850e+02	-7.4468	-16.404901	0.000456	4.561690	1.545542	-0.000183
1193	1.1860e+02	-7.4886	-16.590609	0.000466	4.663061	1.579888	-0.000187
1194	1.1870e+02	-7.5367	-16.744020	0.000385	3.852093	1.305125	-0.000154
1195	1.1880e+02	-7.5768	-16.893394	0.000375	3.750723	1.270779	-0.000150
1196	1.1890e+02	-7.6089	-17.018546	0.000314	3.142497	1.064707	-0.000126
1197	1.1900e+02	-7.6538	-17.208291	0.000476	4.764431	1.614233	-0.000191
1198	1.1910e+02	-7.6939	-17.301145	0.000233	2.331530	0.789944	-0.000093
1199	1.1920e+02	-7.7308	-17.482816	0.000456	4.561690	1.545542	-0.000183
1200	1.1930e+02	-7.7741	-17.648339	0.000416	4.156206	1.408161	-0.000166
1201	1.1940e+02	-7.8126	-17.785601	0.000345	3.446610	1.167743	-0.000138
1202	1.1950e+02	-7.8607	-17.947087	0.000405	4.054835	1.373815	-0.000162
1203	1.1960e+02	-7.8944	-18.120684	0.000436	4.358948	1.476852	-0.000174
1204	1.1970e+02	-7.9329	-18.245835	0.000314	3.142497	1.064707	-0.000126
1205	1.1980e+02	-7.9698	-18.403283	0.000395	3.953464	1.339470	-0.000158
1206	1.1990e+02	-8.0099	-18.524397	0.000304	3.041126	1.030362	-0.000122
1207	1.2000e+02	-8.0484	-18.685883	0.000405	4.054835	1.373815	-0.000162
1208	1.2010e+02	-8.0934	-18.843331	0.000395	3.953464	1.339470	-0.000158
1209	1.2020e+02	-8.1286	-19.000779	0.000395	3.953464	1.339470	-0.000158
1210	1.2030e+02	-8.1720	-19.170339	0.000426	4.257577	1.442506	-0.000170
1211	1.2039e+02	-8.2121	-19.283379	0.000284	2.838385	0.961671	-0.000114
1212	1.2049e+02	-8.2490	-19.440827	0.000395	3.953464	1.339470	-0.000158
1213	1.2059e+02	-8.2939	-19.610387	0.000426	4.257577	1.442506	-0.000170
1214	1.2069e+02	-8.3324	-19.759761	0.000375	3.750723	1.270779	-0.000150
1215	1.2079e+02	-8.3693	-19.897023	0.000345	3.446610	1.167743	-0.000138
1216	1.2089e+02	-8.4126	-20.046398	0.000375	3.750723	1.270779	-0.000150
1217	1.2099e+02	-8.4511	-20.191734	0.000365	3.649352	1.236434	-0.000146
1218	1.2109e+02	-8.4896	-20.381480	0.000476	4.764431	1.614233	-0.000191
1219	1.2119e+02	-8.5249	-20.510668	0.000324	3.243868	1.099052	-0.000130
1220	1.2129e+02	-8.5698	-20.611597	0.000253	2.534272	0.858635	-0.000101
1221	1.2139e+02	-8.6019	-20.797305	0.000466	4.663061	1.579888	-0.000187
1222	1.2149e+02	-8.6484	-20.958790	0.000405	4.054835	1.373815	-0.000162
1223	1.2159e+02	-8.6837	-21.096053	0.000345	3.446610	1.167743	-0.000138
1224	1.2169e+02	-8.7206	-21.245427	0.000375	3.750723	1.270779	-0.000150
1225	1.2179e+02	-8.7623	-21.423061	0.000446	4.460319	1.511197	-0.000179
1226	1.2189e+02	-8.8008	-21.568398	0.000365	3.649352	1.236434	-0.000146
1227	1.2199e+02	-8.8377	-21.705660	0.000345	3.446610	1.167743	-0.000138
1228	1.2209e+02	-8.8826	-21.871183	0.000416	4.156206	1.408161	-0.000166
1229	1.2219e+02	-8.9292	-21.984223	0.000284	2.838385	0.961671	-0.000114
1230	1.2229e+02	-8.9693	-22.145708	0.000405	4.054835	1.373815	-0.000162
1231	1.2239e+02	-9.0046	-22.307194	0.000405	4.054835	1.373815	-0.000162
1232	1.2248e+02	-9.0479	-22.428308	0.000304	3.041126	1.030362	-0.000122
1233	1.2258e+02	-9.0976	-22.634202	0.000517	5.169915	1.751615	-0.000207
1234	1.2268e+02	-9.1201	-22.706870	0.000182	1.824676	0.618217	-0.000073
1235	1.2278e+02	-9.1650	-22.916801	0.000527	5.271286	1.785960	-0.000211
1236	1.2288e+02	-9.2035	-23.062138	0.000365	3.649352	1.236434	-0.000146
1237	1.2298e+02	-9.2452	-23.199401	0.000345	3.446610	1.167743	-0.000138
1238	1.2308e+02	-9.2949	-23.360886	0.000405	4.054835	1.373815	-0.000162
1239	1.2318e+02	-9.3190	-23.534483	0.000436	4.358948	1.476852	-0.000174
1240	1.2328e+02	-9.3639	-23.615225	0.000203	2.027418	0.686908	-0.000081
1241	1.2338e+02	-9.4088	-23.817082	0.000507	5.068544	1.717269	-0.000203
1242	1.2348e+02	-9.4441	-23.966456	0.000375	3.750723	1.270779	-0.000150
1243	1.2358e+02	-9.4890	-24.107756	0.000355	3.547981	1.202088	-0.000142
1244	1.2368e+02	-9.5195	-24.277316	0.000426	4.257577	1.442506	-0.000170
1245	1.2378e+02	-9.5612	-24.390356	0.000284	2.838385	0.961671	-0.000114
1246	1.2388e+02	-9.6013	-24.551841	0.000405	4.054835	1.373815	-0.000162
1247	1.2398e+02	-9.6463	-24.729475	0.000446	4.460319	1.511197	-0.000179
1248	1.2408e+02	-9.6848	-24.862700	0.000335	3.345239	1.133398	-0.000134
1249	1.2418e+02	-9.7297	-25.020149	0.000395	3.953464	1.339470	-0.000158
1250	1.2428e+02	-9.7666	-25.145300	0.000314	3.142497	1.064707	-0.000126
1251	1.2438e+02	-9.8019	-25.306785	0.000405	4.054835	1.373815	-0.000162
1252	1.2447e+02	-9.8532	-25.500568	0.000487	4.865802	1.648578	-0.000195
1253	1.2457e+02	-9.8869	-25.585348	0.000213	2.128789	0.721253	-0.000085
1254	1.2467e+02	-9.9222	-25.742796	0.000395	3.953464	1.339470	-0.000158
1255	1.2477e+02	-9.9655	-25.888133	0.000365	3.649352	1.236434	-0.000146
1256	1.2487e+02	-10.0120	-26.077878	0.000476	4.764431	1.614233	-0.000191
1257	1.2497e+02	-10.0361	-26.211104	0.000335	3.345239	1.133398	-0.000134
1258	1.2507e+02	-10.0826	-26.336255	0.000314	3.142497	1.064707	-0.000126
1259	1.2517e+02	-10.1275	-26.489666	0.000385	3.852093	1.305125	-0.000154
1260	1.2527e+02	-10.1676	-26.659226	0.000426	4.257577	1.442506	-0.000170
1261	1.2537e+02	-10.1981	-26.788414	0.000324	3.243868	1.099052	-0.000130
1262	1.2547e+02	-10.2366	-26.970085	0.000456	4.561690	1.545542	-0.000183
1263	1.2557e+02	-10.2815	-27.091199	0.000304	3.041126	1.030362	-0.000122
1264	1.2567e+02	-10.3168	-27.216351	0.000314	3.142497	1.064707	-0.000126
1265	1.2577e+02	-10.3521	-27.414170	0.000497	4.967173	1.682924	-0.000199
1266	1.2587e+02	-10.3986	-27.567581	0.000385	3.852093	1.305125	-0.000154
1267	1.2597e+02	-10.4403	-27.729067	0.000405	4.054835	1.373815	-0.000162
1268	1.2607e+02	-10.4788	-27.842107	0.000284	2.838385	0.961671	-0.000114
1269	1.2617e+02	-10.5125	-28.003592	0.000405	4.054835	1.373815	-0.000162
1270	1.2627e+02	-10.5575	-28.161040	0.000395	3.953464	1.339470	-0.000158
1271	1.2636e+02	-10.6056	-28.310414	0.000375	3.750723	1.270779	-0.000150
1272	1.2646e+02	-10.6457	-28.439603	0.000324	3.243868	1.099052	-0.000130
1273	1.2656e+02	-10.6810	-28.617237	0.000446	4.460319	1.511197	-0.000179
1274	1.2666e+02	-10.7195	-28.786796	0.000426	4.257577	1.442506	-0.000170
1275	1.2676e+02	-10.7692	-28.920022	0.000335	3.345239	1.133398	-0.000134
1276	1.2686e+02	-10.8029	-29.081507	0.000405	4.054835	1.373815	-0.000162
1277	1.2696e+02	-10.8382	-29.194547	0.000284	2.838385	0.961671	-0.000114
1278	1.2706e+02	-10.8783	-29.388330	0.000487	4.865802	1.648578	-0.000195
1279	1.2716e+02	-10.9216	-29.549815	0.000405	4.054835	1.373815	-0.000162
1280	1.2726e+02	-10.9521	-29.691115	0.000355	3.547981	1.202088	-0.000142
1281	1.2736e+02	-11.0002	-29.808192	0.000294	2.939756	0.996016	-0.000118
1282	1.2746e+02	-11.0355	-29.977751	0.000426	4.257577	1.442506	-0.000170
1283	1.2756e+02	-11.0820	-30.123088	0.000365	3.649352	1.236434	-0.000146
1284	1.2766e+02	-11.1238	-30.240165	0.000294	2.939756	0.996016	-0.000118
1285	1.2776e+02	-11.1558	-30.446059	0.000517	5.169915	1.751615	-0.000207
1286	1.2786e+02	-11.2024	-30.559099	0.000284	2.838385	0.961671	-0.000114
1287	1.2796e+02	-11.2393	-30.724622	0.000416	4.156206	1.408161	-0.000166
1288	1.2806e+02	-11.2745	-30.886107	0.000405	4.054835	1.373815	-0.000162
1289	1.2816e+02	-11.3179	-31.055667	0.000426	4.257577	1.442506	-0.000170
1290	1.2826e+02	-11.3548	-31.241375	0.000466	4.663061	1.579888	-0.000187
1291	1.2835e+02	-11.4013	-31.322118	0.000203	2.027418	0.686908	-0.000081
1292	1.2845e+02	-11.4398	-31.487640	0.000416	4.156206	1.408161	-0.000166
1293	1.2855e+02	-11.4847	-31.665274	0.000446	4.460319	1.511197	-0.000179
1294	1.2865e+02	-11.5136	-31.778314	0.000284	2.838385	0.961671	-0.000114
1295	1.2875e+02	-11.5601	-31.943837	0.000416	4.156206	1.408161	-0.000166
1296	1.2885e+02	-11.5906	-32.105322	0.000405	4.054835	1.373815	-0.000162
1297	1.2895e+02	-11.6339	-32.250659	0.000365	3.649352	1.236434	-0.000146
1298	1.2905e+02	-11.6692	-32.408107	0.000395	3.953464	1.339470	-0.000158
1299	1.2915e+02	-11.7221	-32.537295	0.000324	3.243868	1.099052	-0.000130
1300	1.2925e+02	-11.7542	-32.674558	0.000345	3.446610	1.167743	-0.000138
1301	1.2935e+02	-11.8072	-32.860266	0.000466	4.663061	1.579888	-0.000187
1302	1.2945e+02	-11.8408	-32.997529	0.000345	3.446610	1.167743	-0.000138
1303	1.2955e+02	-11.8793	-33.146903	0.000375	3.750723	1.270779	-0.000150
1304	1.2965e+02	-11.9146	-33.300314	0.000385	3.852093	1.305125	-0.000154
1305	1.2975e+02	-11.9580	-33.449688	0.000375	3.750723	1.270779	-0.000150
1306	1.2985e+02	-11.9965	-33.671731	0.000558	5.575398	1.888996	-0.000223
1307	1.2995e+02	-12.0350	-33.768622	0.000243	2.432901	0.824289	-0.000097
1308	1.3005e+02	-12.0783	-33.930107	0.000405	4.054835	1.373815	-0.000162
1309	1.3015e+02	-12.1200	-34.083518	0.000385	3.852093	1.305125	-0.000154
1310	1.3025e+02	-12.1585	-34.184447	0.000253	2.534272	0.858635	-0.000101
1311	1.3034e+02	-12.1890	-34.378229	0.000487	4.865802	1.648578	-0.000195
1312	1.3044e+02	-12.2419	-34.559900	0.000456	4.561690	1.545542	-0.000183
1313	1.3054e+02	-12.2740	-34.664866	0.000264	2.635643	0.892980	-0.000105
1314	1.3064e+02	-12.3157	-34.826351	0.000405	4.054835	1.373815	-0.000162
1315	1.3074e+02	-12.3542	-34.951503	0.000314	3.142497	1.064707	-0.000126
1316	1.3084e+02	-12.3943	-35.141248	0.000476	4.764431	1.614233	-0.000191
1317	1.3094e+02	-12.4392	-35.274474	0.000335	3.345239	1.133398	-0.000134
1318	1.3104e+02	-12.4745	-35.444033	0.000426	4.257577	1.442506	-0.000170
1319	1.3114e+02	-12.5130	-35.585333	0.000355	3.547981	1.202088	-0.000142
1320	1.3124e+02	-12.5611	-35.734707	0.000375	3.750723	1.270779	-0.000150
1321	1.3134e+02	-12.5996	-35.908304	0.000436	4.358948	1.476852	-0.000174
1322	1.3144e+02	-12.6381	-36.001158	0.000233	2.331530	0.789944	-0.000093
1323	1.3154e+02	-12.6734	-36.182829	0.000456	4.561690	1.545542	-0.000183
1324	1.3164e+02	-12.7087	-36.324129	0.000355	3.547981	1.202088	-0.000142
1325	1.3174e+02	-12.7504	-36.473503	0.000375	3.750723	1.270779	-0.000150
1326	1.3184e+02	-12.7986	-36.630951	0.000395	3.953464	1.339470	-0.000158
1327	1.3194e+02	-12.8339	-36.784362	0.000385	3.852093	1.305125	-0.000154
1328	1.3204e+02	-12.8676	-36.961996	0.000446	4.460319	1.511197	-0.000179
1329	1.3214e+02	-12.9157	-37.066962	0.000264	2.635643	0.892980	-0.000105
1330	1.3224e+02	-12.9574	-37.280930	0.000537	5.372657	1.820305	-0.000215
1331	1.3234e+02	-12.9879	-37.410118	0.000324	3.243868	1.099052	-0.000130
1332	1.3243e+02	-13.0296	-37.531232	0.000304	3.041126	1.030362	-0.000122
1333	1.3253e+02	-13.0617	-37.672532	0.000355	3.547981	1.202088	-0.000142
1334	1.3263e+02	-13.1034	-37.870352	0.000497	4.967173	1.682924	-0.000199
1335	1.3273e+02	-13.1435	-38.011652	0.000355	3.547981	1.202088	-0.000142
1336	1.3283e+02	-13.1948	-38.144877	0.000335	3.345239	1.133398	-0.000134
1337	1.3293e+02	-13.2301	-38.302325	0.000395	3.953464	1.339470	-0.000158
1338	1.3303e+02	-13.2670	-38.467848	0.000416	4.156206	1.408161	-0.000166
1339	1.3313e+02	-13.3167	-38.629333	0.000405	4.054835	1.373815	-0.000162
1340	1.3323e+02	-13.3472	-38.774670	0.000365	3.649352	1.236434	-0.000146
1341	1.3333e+02	-13.3921	-38.948267	0.000436	4.358948	1.476852	-0.000174
1342	1.3343e+02	-13.4354	-39.097641	0.000375	3.750723	1.270779	-0.000150
1343	1.3353e+02	-13.4707	-39.218755	0.000304	3.041126	1.030362	-0.000122
1344	1.3363e+02	-13.5092	-39.412538	0.000487	4.865802	1.648578	-0.000195
1345	1.3373e+02	-13.5526	-39.541726	0.000324	3.243868	1.099052	-0.000130
1346	1.3383e+02	-13.5814	-39.739546	0.000497	4.967173	1.682924	-0.000199
1347	1.3393e+02	-13.6360	-39.832400	0.000233	2.331530	0.789944	-0.000093
1348	1.3403e+02	-13.6745	-39.993885	0.000405	4.054835	1.373815	-0.000162
1349	1.3413e+02	-13.7034	-40.163445	0.000426	4.257577	1.442506	-0.000170
1350	1.3423e+02	-13.7467	-40.328967	0.000416	4.156206	1.408161	-0.000166
1351	1.3432e+02	-13.7884	-40.458156	0.000324	3.243868	1.099052	-0.000130
1352	1.3442e+02	-13.8221	-40.668087	0.000527	5.271286	1.785960	-0.000211
1353	1.3452e+02	-13.8638	-40.785164	0.000294	2.939756	0.996016	-0.000118
1354	1.3462e+02	-13.9055	-40.922426	0.000345	3.446610	1.167743	-0.000138
1355	1.3472e+02	-13.9520	-41.112172	0.000476	4.764431	1.614233	-0.000191
1356	1.3482e+02	-13.9953	-41.281731	0.000426	4.257577	1.442506	-0.000170
1357	1.3492e+02	-14.0242	-41.435143	0.000385	3.852093	1.305125	-0.000154
1358	1.3502e+02	-14.0611	-41.584517	0.000375	3.750723	1.270779	-0.000150
1359	1.3512e+02	-14.1028	-41.762151	0.000446	4.460319	1.511197	-0.000179
1360	1.3522e+02	-14.1429	-41.911525	0.000375	3.750723	1.270779	-0.000150
1361	1.3532e+02	-14.1878	-42.056862	0.000365	3.649352	1.236434	-0.000146
1362	1.3542e+02	-14.2199	-42.234496	0.000446	4.460319	1.511197	-0.000179
1363	1.3552e+02	-14.2584	-42.363684	0.000324	3.243868	1.099052	-0.000130
1364	1.3562e+02	-14.3049	-42.545355	0.000456	4.561690	1.545542	-0.000183
1365	1.3572e+02	-14.3450	-42.751249	0.000517	5.169915	1.751615	-0.000207
1366	1.3582e+02	-14.3884	-42.884474	0.000335	3.345239	1.133398	-0.000134
1367	1.3592e+02	-14.4172	-43.045960	0.000405	4.054835	1.373815	-0.000162
1368	1.3602e+02	-14.4654	-43.227631	0.000456	4.561690	1.545542	-0.000183
1369	1.3612e+02	-14.5103	-43.332596	0.000264	2.635643	0.892980	-0.000105
1370	1.3622e+02	-14.5440	-43.522342	0.000476	4.764431	1.614233	-0.000191
1371	1.3631e+02	-14.5809	-43.683827	0.000405	4.054835	1.373815	-0.000162
1372	1.3641e+02	-14.6258	-43.865498	0.000456	4.561690	1.545542	-0.000183
1373	1.3651e+02	-14.6611	-44.059281	0.000487	4.865802	1.648578	-0.000195
1374	1.3661e+02	-14.7012	-44.212692	0.000385	3.852093	1.305125	-0.000154
1375	1.3671e+02	-14.7445	-44.386289	0.000436	4.358948	1.476852	-0.000174
1376	1.3681e+02	-14.7862	-44.523551	0.000345	3.446610	1.167743	-0.000138
1377	1.3691e+02	-14.8263	-44.709260	0.000466	4.663061	1.579888	-0.000187
1378	1.3701e+02	-14.8696	-44.886894	0.000446	4.460319	1.511197	-0.000179
1379	1.3711e+02	-14.9097	-45.028193	0.000355	3.547981	1.202088	-0.000142
1380	1.3721e+02	-14.9466	-45.238125	0.000527	5.271286	1.785960	-0.000211
1381	1.3731e+02	-14.9755	-45.383461	0.000365	3.649352	1.236434	-0.000146
1382	1.3741e+02	-15.0268	-45.565133	0.000456	4.561690	1.545542	-0.000183
1383	1.3751e+02	-15.0573	-45.775064	0.000527	5.271286	1.785960	-0.000211
1384	1.3761e+02	-15.1039	-45.928475	0.000385	3.852093	1.305125	-0.000154
1385	1.3771e+02	-15.1472	-46.081886	0.000385	3.852093	1.305125	-0.000154
1386	1.3781e+02	-15.1793	-46.235297	0.000385	3.852093	1.305125	-0.000154
1387	1.3791e+02	-15.2194	-46.396782	0.000405	4.054835	1.373815	-0.000162
1388	1.3801e+02	-15.2675	-46.622862	0.000568	5.676769	1.923342	-0.000227
1389	1.3811e+02	-15.3028	-46.768199	0.000365	3.649352	1.236434	-0.000146
1390	1.3821e+02	-15.3429	-46.970056	0.000507	5.068544	1.717269	-0.000203
1391	1.3831e+02	-15.3846	-47.139615	0.000426	4.257577	1.442506	-0.000170
1392	1.3840e+02	-15.4327	-47.341472	0.000507	5.068544	1.717269	-0.000203
1393	1.3850e+02	-15.4568	-47.523143	0.000456	4.561690	1.545542	-0.000183
1394	1.3860e+02	-15.5033	-47.733074	0.000527	5.271286	1.785960	-0.000211
1395	1.3870e+02	-15.5418	-47.862263	0.000324	3.243868	1.099052	-0.000130
1396	1.3880e+02	-15.5787	-48.108528	0.000618	6.183624	2.095068	-0.000248
1397	1.3890e+02	-15.6188	-48.225605	0.000294	2.939756	0.996016	-0.000118
1398	1.3900e+02	-15.6621	-48.435536	0.000527	5.271286	1.785960	-0.000211
1399	1.3910e+02	-15.7006	-48.625281	0.000476	4.764431	1.614233	-0.000191
1400	1.3920e+02	-15.7439	-48.790804	0.000416	4.156206	1.408161	-0.000166
1401	1.3930e+02	-15.7808	-49.000735	0.000527	5.271286	1.785960	-0.000211
1402	1.3940e+02	-15.8145	-49.198555	0.000497	4.967173	1.682924	-0.000199
1403	1.3950e+02	-15.8562	-49.380226	0.000456	4.561690	1.545542	-0.000183
1404	1.3960e+02	-15.8996	-49.586120	0.000517	5.169915	1.751615	-0.000207
1405	1.3970e+02	-15.9348	-49.751642	0.000416	4.156206	1.408161	-0.000166
1406	1.3980e+02	-15.9766	-49.945425	0.000487	4.865802	1.648578	-0.000195
1407	1.3990e+02	-16.0263	-50.135170	0.000476	4.764431	1.614233	-0.000191
1408	1.4000e+02	-16.0616	-50.341064	0.000517	5.169915	1.751615	-0.000207
1409	1.4010e+02	-16.1001	-50.571181	0.000578	5.778140	1.957687	-0.000231
1410	1.4020e+02	-16.1370	-50.764963	0.000487	4.865802	1.648578	-0.000195
1411	1.4029e+02	-16.1723	-50.946634	0.000456	4.561690	1.545542	-0.000183
1412	1.4039e+02	-16.2204	-51.164640	0.000547	5.474028	1.854651	-0.000219
1413	1.4049e+02	-16.2621	-51.370534	0.000517	5.169915	1.751615	-0.000207
1414	1.4059e+02	-16.3006	-51.536056	0.000416	4.156206	1.408161	-0.000166
1415	1.4069e+02	-16.3343	-51.762136	0.000568	5.676769	1.923342	-0.000227
1416	1.4079e+02	-16.3776	-51.980141	0.000547	5.474028	1.854651	-0.000219
1417	1.4089e+02	-16.4129	-52.177961	0.000497	4.967173	1.682924	-0.000199
1418	1.4099e+02	-16.4626	-52.440375	0.000659	6.589107	2.232450	-0.000264
1419	1.4109e+02	-16.4979	-52.613972	0.000436	4.358948	1.476852	-0.000174
1420	1.4119e+02	-16.5412	-52.795643	0.000456	4.561690	1.545542	-0.000183
1421	1.4129e+02	-16.5781	-53.025759	0.000578	5.778140	1.957687	-0.000231
1422	1.4139e+02	-16.6166	-53.259913	0.000588	5.879511	1.992032	-0.000235
1423	1.4149e+02	-16.6519	-53.445621	0.000466	4.663061	1.579888	-0.000187
1424	1.4159e+02	-16.6985	-53.623255	0.000446	4.460319	1.511197	-0.000179
1425	1.4169e+02	-16.7289	-53.881632	0.000649	6.487736	2.198105	-0.000260
1426	1.4179e+02	-16.7787	-54.152120	0.000679	6.791849	2.301141	-0.000272
1427	1.4189e+02	-16.8140	-54.353977	0.000507	5.068544	1.717269	-0.000203
1428	1.4199e+02	-16.8589	-54.580057	0.000568	5.676769	1.923342	-0.000227
1429	1.4209e+02	-16.8878	-54.769802	0.000476	4.764431	1.614233	-0.000191
1430	1.4219e+02	-16.9343	-55.003956	0.000588	5.879511	1.992032	-0.000235
1431	1.4228e+02	-16.9792	-55.270407	0.000669	6.690478	2.266795	-0.000268
1432	1.4238e+02	-17.0177	-55.488412	0.000547	5.474028	1.854651	-0.000219
1433	1.4248e+02	-17.0578	-55.674120	0.000466	4.663061	1.579888	-0.000187
1434	1.4258e+02	-17.0899	-55.912311	0.000598	5.980882	2.026378	-0.000239
1435	1.4268e+02	-17.1348	-56.174725	0.000659	6.589107	2.232450	-0.000264
1436	1.4278e+02	-17.1717	-56.376582	0.000507	5.068544	1.717269	-0.000203
1437	1.4288e+02	-17.2150	-56.647070	0.000679	6.791849	2.301141	-0.000272
1438	1.4298e+02	-17.2519	-56.905447	0.000649	6.487736	2.198105	-0.000260
1439	1.4308e+02	-17.3000	-57.147675	0.000608	6.082253	2.060723	-0.000243
1440	1.4318e+02	-17.3353	-57.365680	0.000547	5.474028	1.854651	-0.000219
1441	1.4328e+02	-17.3722	-57.620020	0.000639	6.386366	2.163759	-0.000256
1442	1.4338e+02	-17.4156	-57.898582	0.000699	6.994591	2.369832	-0.000280
1443	1.4348e+02	-17.4557	-58.100439	0.000507	5.068544	1.717269	-0.000203
1444	1.4358e+02	-17.4990	-58.334593	0.000588	5.879511	1.992032	-0.000235
1445	1.4368e+02	-17.5327	-58.592970	0.000649	6.487736	2.198105	-0.000260
1446	1.4378e+02	-17.5712	-58.899792	0.000770	7.704187	2.610249	-0.000308
1447	1.4388e+02	-17.6065	-59.178354	0.000699	6.994591	2.369832	-0.000280
1448	1.4398e+02	-17.6594	-59.376174	0.000497	4.967173	1.682924	-0.000199
1449	1.4408e+02	-17.6915	-59.666848	0.000730	7.298703	2.472868	-0.000292
1450	1.4418e+02	-17.7380	-59.941373	0.000689	6.893220	2.335486	-0.000276
1451	1.4428e+02	-17.7717	-60.228010	0.000720	7.197333	2.438522	-0.000288
1452	1.4437e+02	-17.8022	-60.470238	0.000608	6.082253	2.060723	-0.000243
1453	1.4447e+02	-17.8471	-60.768986	0.000750	7.501445	2.541558	-0.000300
1454	1.4457e+02	-17.8904	-60.954694	0.000466	4.663061	1.579888	-0.000187
1455	1.4467e+02	-17.9385	-61.330148	0.000943	9.427492	3.194121	-0.000377
1456	1.4477e+02	-17.9690	-61.552190	0.000558	5.575398	1.888996	-0.000223
1457	1.4487e+02	-18.0075	-61.850938	0.000750	7.501445	2.541558	-0.000300
1458	1.4497e+02	-18.0492	-62.121426	0.000679	6.791849	2.301141	-0.000272
1459	1.4507e+02	-18.0877	-62.404026	0.000710	7.095962	2.404177	-0.000284
1460	1.4517e+02	-18.1294	-62.694699	0.000730	7.298703	2.472868	-0.000292
1461	1.4527e+02	-18.1727	-63.009596	0.000791	7.906929	2.678940	-0.000316
1462	1.4537e+02	-18.2177	-63.263936	0.000639	6.386366	2.163759	-0.000256
1463	1.4547e+02	-18.2514	-63.574795	0.000781	7.805558	2.644595	-0.000312
1464	1.4557e+02	-18.2866	-63.865469	0.000730	7.298703	2.472868	-0.000292
1465	1.4567e+02	-18.3268	-64.188440	0.000811	8.109670	2.747631	-0.000325
1466	1.4577e+02	-18.3765	-64.483151	0.000740	7.400074	2.507213	-0.000296
1467	1.4587e+02	-18.4118	-64.773824	0.000730	7.298703	2.472868	-0.000292
1468	1.4597e+02	-18.4567	-65.121018	0.000872	8.717896	2.953703	-0.000349
1469	1.4607e+02	-18.4920	-65.367283	0.000618	6.183624	2.095068	-0.000248
1470	1.4617e+02	-18.5209	-65.730626	0.000912	9.123379	3.091085	-0.000365
1471	1.4626e+02	-18.5722	-66.021299	0.000730	7.298703	2.472868	-0.000292
1472	1.4636e+02	-18.6091	-66.344270	0.000811	8.109670	2.747631	-0.000325
1473	1.4646e+02	-18.6524	-66.675315	0.000831	8.312412	2.816322	-0.000333
1474	1.4656e+02	-18.6845	-67.010398	0.000841	8.413783	2.850667	-0.000337
1475	1.4666e+02	-18.7310	-67.325294	0.000791	7.906929	2.678940	-0.000316
1476	1.4676e+02	-18.7727	-67.676525	0.000882	8.819267	2.988048	-0.000353
1477	1.4686e+02	-18.8160	-68.019681	0.000862	8.616525	2.919358	-0.000345
1478	1.4696e+02	-18.8433	-68.374949	0.000892	8.920638	3.022394	-0.000357
1479	1.4706e+02	-18.8866	-68.653512	0.000699	6.994591	2.369832	-0.000280
1480	1.4716e+02	-18.9364	-69.016854	0.000912	9.123379	3.091085	-0.000365
1481	1.4726e+02	-18.9652	-69.372122	0.000892	8.920638	3.022394	-0.000357
1482	1.4736e+02	-19.0102	-69.751613	0.000953	9.528863	3.228466	-0.000381
1483	1.4746e+02	-19.0471	-70.070546	0.000801	8.008300	2.713285	-0.000321
1484	1.4756e+02	-19.0888	-70.417740	0.000872	8.717896	2.953703	-0.000349
1485	1.4766e+02	-19.1321	-70.833565	0.001044	10.441201	3.537575	-0.000418
1486	1.4776e+02	-19.1626	-71.184796	0.000882	8.819267	2.988048	-0.000353
1487	1.4786e+02	-19.2059	-71.548138	0.000912	9.123379	3.091085	-0.000365
1488	1.4796e+02	-19.2476	-71.919555	0.000933	9.326121	3.159775	-0.000373
1489	1.4806e+02	-19.2813	-72.299045	0.000953	9.528863	3.228466	-0.000381
1490	1.4816e+02	-19.3294	-72.698722	0.001004	10.035717	3.400193	-0.000402
1491	1.4825e+02	-19.3599	-73.066101	0.000922	9.224750	3.125430	-0.000369
1492	1.4835e+02	-19.4000	-73.465778	0.001004	10.035717	3.400193	-0.000402
1493	1.4845e+02	-19.4481	-73.808934	0.000862	8.616525	2.919358	-0.000345
1494	1.4855e+02	-19.4754	-74.224759	0.001044	10.441201	3.537575	-0.000418
1495	1.4865e+02	-19.5235	-74.616361	0.000983	9.832975	3.331502	-0.000394
1496	1.4875e+02	-19.5588	-75.020075	0.001014	10.137088	3.434538	-0.000406
1497	1.4885e+02	-19.6053	-75.423788	0.001014	10.137088	3.434538	-0.000406
1498	1.4895e+02	-19.6358	-75.884022	0.001156	11.556280	3.915374	-0.000463
1499	1.4905e+02	-19.6920	-76.307921	0.001064	10.643943	3.606265	-0.000426
1500	1.4915e+02	-19.7224	-76.739895	0.001085	10.846684	3.674956	-0.000434
1501	1.4925e+02	-19.7658	-77.115348	0.000943	9.427492	3.194121	-0.000377
1502	1.4935e+02	-19.8026	-77.547322	0.001085	10.846684	3.674956	-0.000434
1503	1.4945e+02	-19.8428	-78.011592	0.001166	11.657651	3.949719	-0.000467
1504	1.4955e+02	-19.8829	-78.459715	0.001125	11.252168	3.812338	-0.000450
1505	1.4965e+02	-19.9262	-78.911874	0.001135	11.353539	3.846683	-0.000454
1506	1.4975e+02	-19.9679	-79.347884	0.001095	10.948055	3.709301	-0.000438
1507	1.4985e+02	-20.0016	-79.800044	0.001135	11.353539	3.846683	-0.000454
1508	1.4995e+02	-19.9583	-80.090717	-0.000730	-7.298703	-2.472868	-0.000292
1509	1.5005e+02	-19.9182	-80.332945	-0.000608	-6.082253	-2.060723	-0.000243
1510	1.5015e+02	-19.8797	-80.583248	-0.000628	-6.284995	-2.129414	-0.000252
1511	1.5025e+02	-19.8492	-80.768956	-0.000466	-4.663061	-1.579888	-0.000187
1512	1.5034e+02	-19.7978	-80.978887	-0.000527	-5.271286	-1.785960	-0.000211
1513	1.5044e+02	-19.7722	-81.188818	-0.000527	-5.271286	-1.785960	-0.000211
1514	1.5054e+02	-19.7256	-81.370489	-0.000456	-4.561690	-1.545542	-0.000183
1515	1.5064e+02	-19.6871	-81.515826	-0.000365	-3.649352	-1.236434	-0.000146
1516	1.5074e+02	-19.6374	-81.673275	-0.000395	-3.953464	-1.339470	-0.000158
1517	1.5084e+02	-19.5957	-81.854946	-0.000456	-4.561690	-1.545542	-0.000183
1518	1.5094e+02	-19.5652	-81.984134	-0.000324	-3.243868	-1.099052	-0.000130
1519	1.5104e+02	-19.5283	-82.101211	-0.000294	-2.939756	-0.996016	-0.000118
1520	1.5114e+02	-19.4722	-82.214251	-0.000284	-2.838385	-0.961671	-0.000114
1521	1.5124e+02	-19.4417	-82.387848	-0.000436	-4.358948	-1.476852	-0.000174
1522	1.5134e+02	-19.4080	-82.484739	-0.000243	-2.432901	-0.824289	-0.000097
1523	1.5144e+02	-19.3663	-82.585667	-0.000253	-2.534272	-0.858635	-0.000101
1524	1.5154e+02	-19.3246	-82.682558	-0.000243	-2.432901	-0.824289	-0.000097
1525	1.5164e+02	-19.2973	-82.783487	-0.000253	-2.534272	-0.858635	-0.000101
1526	1.5174e+02	-19.2492	-82.860192	-0.000193	-1.926047	-0.652562	-0.000077
1527	1.5184e+02	-19.2171	-82.949009	-0.000223	-2.230159	-0.755598	-0.000089
1528	1.5194e+02	-19.1626	-83.033789	-0.000213	-2.128789	-0.721253	-0.000085
1529	1.5204e+02	-19.1321	-83.102421	-0.000172	-1.723305	-0.583872	-0.000069
1530	1.5214e+02	-19.0872	-83.167015	-0.000162	-1.621934	-0.549526	-0.000065
1531	1.5224e+02	-19.0471	-83.231609	-0.000162	-1.621934	-0.549526	-0.000065
1532	1.5233e+02	-19.0005	-83.267943	-0.000091	-0.912338	-0.309108	-0.000037
1533	1.5243e+02	-18.9733	-83.352723	-0.000213	-2.128789	-0.721253	-0.000085
1534	1.5253e+02	-18.9219	-83.397132	-0.000112	-1.115080	-0.377799	-0.000045
1535	1.5263e+02	-18.8963	-83.433466	-0.000091	-0.912338	-0.309108	-0.000037
1536	1.5273e+02	-18.8481	-83.465763	-0.000081	-0.810967	-0.274763	-0.000032
1537	1.5283e+02	-18.8096	-83.494023	-0.000071	-0.709596	-0.240418	-0.000028
1538	1.5293e+02	-18.7808	-83.518246	-0.000061	-0.608225	-0.206072	-0.000024
1539	1.5303e+02	-18.7342	-83.598988	-0.000203	-2.027418	-0.686908	-0.000081
1540	1.5313e+02	-18.6829	-83.550543	0.000122	1.216451	0.412145	0.000049
1541	1.5323e+02	-18.6540	-83.607063	-0.000142	-1.419192	-0.480835	-0.000057
1542	1.5333e+02	-18.6235	-83.619174	-0.000030	-0.304113	-0.103036	-0.000012
1543	1.5343e+02	-18.5690	-83.607063	0.000030	0.304113	0.103036	0.000012
1544	1.5353e+02	-18.5241	-83.615137	-0.000020	-0.202742	-0.068691	-0.000008
1545	1.5363e+02	-18.4920	-83.635323	-0.000051	-0.506854	-0.171727	-0.000020
1546	1.5373e+02	-18.4551	-83.651471	-0.000041	-0.405484	-0.137382	-0.000016
1547	1.5383e+02	-18.4070	-83.631285	0.000051	0.506854	0.171727	0.000020
1548	1.5393e+02	-18.3797	-83.627248	0.000010	0.101371	0.034345	0.000004
1549	1.5403e+02	-18.3284	-83.663582	-0.000091	-0.912338	-0.309108	-0.000037
1550	1.5413e+02	-18.2947	-83.598988	0.000162	1.621934	0.549526	0.000065
1551	1.5422e+02	-18.2546	-83.607063	-0.000020	-0.202742	-0.068691	-0.000008
1552	1.5432e+02	-18.2113	-83.631285	-0.000061	-0.608225	-0.206072	-0.000024
1553	1.5442e+02	-18.1808	-83.574765	0.000142	1.419192	0.480835	0.000057
1554	1.5452e+02	-18.1359	-83.562654	0.000030	0.304113	0.103036	0.000012
1555	1.5462e+02	-18.0893	-83.530357	0.000081	0.810967	0.274763	0.000032
1556	1.5472e+02	-18.0508	-83.530357	0.000000	0.000000	0.000000	0.000000
1557	1.5482e+02	-18.0171	-83.530357	0.000000	0.000000	0.000000	0.000000
1558	1.5492e+02	-17.9706	-83.506134	0.000061	0.608225	0.206072	0.000024
1559	1.5502e+02	-17.9289	-83.441540	0.000162	1.621934	0.549526	0.000065
1560	1.5512e+02	-17.8856	-83.445577	-0.000010	-0.101371	-0.034345	-0.000004
1561	1.5522e+02	-17.8519	-83.417317	0.000071	0.709596	0.240418	0.000028
1562	1.5532e+02	-17.8134	-83.401169	0.000041	0.405484	0.137382	0.000016
1563	1.5542e+02	-17.7781	-83.332537	0.000172	1.723305	0.583872	0.000069
1564	1.5552e+02	-17.7348	-83.324463	0.000020	0.202742	0.068691	0.000008
1565	1.5562e+02	-17.6979	-83.271980	0.000132	1.317821	0.446490	0.000053
1566	1.5572e+02	-17.6594	-83.280055	-0.000020	-0.202742	-0.068691	-0.000008
1567	1.5582e+02	-17.6113	-83.199312	0.000203	2.027418	0.686908	0.000081
1568	1.5592e+02	-17.5663	-83.154903	0.000112	1.115080	0.377799	0.000045
1569	1.5602e+02	-17.5375	-83.122606	0.000081	0.810967	0.274763	0.000032
1570	1.5612e+02	-17.4942	-83.070124	0.000132	1.317821	0.446490	0.000053
1571	1.5622e+02	-17.4492	-83.037826	0.000081	0.810967	0.274763	0.000032
1572	1.5631e+02	-17.4252	-82.985344	0.000132	1.317821	0.446490	0.000053
1573	1.5641e+02	-17.3738	-82.904601	0.000203	2.027418	0.686908	0.000081
1574	1.5651e+02	-17.3418	-82.892490	0.000030	0.304113	0.103036	0.000012
1575	1.5661e+02	-17.2968	-82.852118	0.000101	1.013709	0.343454	0.000041
1576	1.5671e+02	-17.2631	-82.803673	0.000122	1.216451	0.412145	0.000049
1577	1.5681e+02	-17.2134	-82.747153	0.000142	1.419192	0.480835	0.000057
1578	1.5691e+02	-17.1765	-82.694670	0.000132	1.317821	0.446490	0.000053
1579	1.5701e+02	-17.1380	-82.646224	0.000122	1.216451	0.412145	0.000049
1580	1.5711e+02	-17.1027	-82.654299	-0.000020	-0.202742	-0.068691	-0.000008
1581	1.5721e+02	-17.0658	-82.521073	0.000335	3.345239	1.133398	0.000134
1582	1.5731e+02	-17.0225	-82.468590	0.000132	1.317821	0.446490	0.000053
1583	1.5741e+02	-16.9680	-82.416108	0.000132	1.317821	0.446490	0.000053
1584	1.5751e+02	-16.9359	-82.359588	0.000142	1.419192	0.480835	0.000057
1585	1.5761e+02	-16.8958	-82.294993	0.000162	1.621934	0.549526	0.000065
1586	1.5771e+02	-16.8509	-82.226362	0.000172	1.723305	0.583872	0.000069
1587	1.5781e+02	-16.8140	-82.190028	0.000091	0.912338	0.309108	0.000037
1588	1.5791e+02	-16.7803	-82.113322	0.000193	1.926047	0.652562	0.000077
1589	1.5801e+02	-16.7354	-82.040654	0.000182	1.824676	0.618217	0.000073
1590	1.5811e+02	-16.6872	-81.988171	0.000132	1.317821	0.446490	0.000053
1591	1.5821e+02	-16.6584	-81.939726	0.000122	1.216451	0.412145	0.000049
1592	1.5830e+02	-16.6150	-81.891280	0.000122	1.216451	0.412145	0.000049
1593	1.5840e+02	-16.5862	-81.794389	0.000243	2.432901	0.824289	0.000097
1594	1.5850e+02	-16.5364	-81.701534	0.000233	2.331530	0.789944	0.000093
1595	1.5860e+02	-16.4963	-81.640977	0.000152	1.520563	0.515181	0.000061
1596	1.5870e+02	-16.4610	-81.592532	0.000122	1.216451	0.412145	0.000049
1597	1.5880e+02	-16.4257	-81.548123	0.000112	1.115080	0.377799	0.000045
1598	1.5890e+02	-16.3776	-81.439121	0.000274	2.737014	0.927325	0.000110
1599	1.5900e+02	-16.3407	-81.394712	0.000112	1.115080	0.377799	0.000045
1600	1.5910e+02	-16.2974	-81.322044	0.000182	1.824676	0.618217	0.000073
1601	1.5920e+02	-16.2573	-81.213041	0.000274	2.737014	0.927325	0.000110
1602	1.5930e+02	-16.2188	-81.184781	0.000071	0.709596	0.240418	0.000028
1603	1.5940e+02	-16.1915	-81.104038	0.000203	2.027418	0.686908	0.000081
1604	1.5950e+02	-16.1402	-80.990999	0.000284	2.838385	0.961671	0.000114
1605	1.5960e+02	-16.1049	-80.954664	0.000091	0.912338	0.309108	0.000037
1606	1.5970e+02	-16.0584	-80.881996	0.000182	1.824676	0.618217	0.000073
1607	1.5980e+02	-16.0167	-80.837587	0.000112	1.115080	0.377799	0.000045
1608	1.5990e+02	-15.9798	-80.680139	0.000395	3.953464	1.339470	0.000158
1609	1.6000e+02	-15.9413	-80.672065	0.000020	0.202742	0.068691	0.000008
1610	1.6010e+02	-15.8996	-80.554988	0.000294	2.939756	0.996016	0.000118
1611	1.6019e+02	-15.8610	-80.514617	0.000101	1.013709	0.343454	0.000041
1612	1.6029e+02	-15.8193	-80.421762	0.000233	2.331530	0.789944	0.000093
1613	1.6039e+02	-15.7760	-80.357168	0.000162	1.621934	0.549526	0.000065
1614	1.6049e+02	-15.7359	-80.300648	0.000142	1.419192	0.480835	0.000057
1615	1.6059e+02	-15.6974	-80.203757	0.000243	2.432901	0.824289	0.000097
1616	1.6069e+02	-15.6605	-80.155312	0.000122	1.216451	0.412145	0.000049
1617	1.6079e+02	-15.6236	-80.026123	0.000324	3.243868	1.099052	0.000130
1618	1.6089e+02	-15.5771	-79.965566	0.000152	1.520563	0.515181	0.000061
1619	1.6099e+02	-15.5466	-79.905009	0.000152	1.520563	0.515181	0.000061
1620	1.6109e+02	-15.4985	-79.808118	0.000243	2.432901	0.824289	0.000097
1621	1.6119e+02	-15.4728	-79.731412	0.000193	1.926047	0.652562	0.000077
1622	1.6129e+02	-15.4135	-79.682967	0.000122	1.216451	0.412145	0.000049
1623	1.6139e+02	-15.3862	-79.537630	0.000365	3.649352	1.236434	0.000146
1624	1.6149e+02	-15.3413	-79.464961	0.000182	1.824676	0.618217	0.000073
1625	1.6159e+02	-15.3044	-79.400367	0.000162	1.621934	0.549526	0.000065
1626	1.6169e+02	-15.2546	-79.299439	0.000253	2.534272	0.858635	0.000101
1627	1.6179e+02	-15.2242	-79.186399	0.000284	2.838385	0.961671	0.000114
1628	1.6189e+02	-15.1776	-79.154102	0.000081	0.810967	0.274763	0.000032
1629	1.6199e+02	-15.1391	-79.016839	0.000345	3.446610	1.167743	0.000138
1630	1.6209e+02	-15.0958	-78.944171	0.000182	1.824676	0.618217	0.000073
1631	1.6219e+02	-15.0589	-78.879577	0.000162	1.621934	0.549526	0.000065
1632	1.6228e+02	-15.0204	-78.794797	0.000213	2.128789	0.721253	0.000085
1633	1.6238e+02	-14.9867	-78.718091	0.000193	1.926047	0.652562	0.000077
1634	1.6248e+02	-14.9434	-78.649460	0.000172	1.723305	0.583872	0.000069
1635	1.6258e+02	-14.9033	-78.516234	0.000335	3.345239	1.133398	0.000134
1636	1.6268e+02	-14.8632	-78.451640	0.000162	1.621934	0.549526	0.000065
1637	1.6278e+02	-14.8215	-78.374935	0.000193	1.926047	0.652562	0.000077
1638	1.6288e+02	-14.7830	-78.306303	0.000172	1.723305	0.583872	0.000069
1639	1.6298e+02	-14.7397	-78.209412	0.000243	2.432901	0.824289	0.000097
1640	1.6308e+02	-14.7092	-78.100409	0.000274	2.737014	0.927325	0.000110
1641	1.6318e+02	-14.6627	-77.995444	0.000264	2.635643	0.892980	0.000105
1642	1.6328e+02	-14.6258	-77.934887	0.000152	1.520563	0.515181	0.000061
1643	1.6338e+02	-14.5873	-77.870293	0.000162	1.621934	0.549526	0.000065
1644	1.6348e+02	-14.5424	-77.757253	0.000284	2.838385	0.961671	0.000114
1645	1.6358e+02	-14.5023	-77.672473	0.000213	2.128789	0.721253	0.000085
1646	1.6368e+02	-14.4638	-77.555396	0.000294	2.939756	0.996016	0.000118
1647	1.6378e+02	-14.4156	-77.486765	0.000172	1.723305	0.583872	0.000069
1648	1.6388e+02	-14.3819	-77.393911	0.000233	2.331530	0.789944	0.000093
1649	1.6398e+02	-14.3418	-77.288945	0.000264	2.635643	0.892980	0.000105
1650	1.6408e+02	-14.2953	-77.196091	0.000233	2.331530	0.789944	0.000093
1651	1.6418e+02	-14.2664	-77.103237	0.000233	2.331530	0.789944	0.000093
1652	1.6427e+02	-14.2360	-77.030568	0.000182	1.824676	0.618217	0.000073
1653	1.6437e+02	-14.1830	-76.925603	0.000264	2.635643	0.892980	0.000105
1654	1.6447e+02	-14.1477	-76.844860	0.000203	2.027418	0.686908	0.000081
1655	1.6457e+02	-14.1140	-76.727783	0.000294	2.939756	0.996016	0.000118
1656	1.6467e+02	-14.0675	-76.630892	0.000243	2.432901	0.824289	0.000097
1657	1.6477e+02	-14.0306	-76.517852	0.000284	2.838385	0.961671	0.000114
1658	1.6487e+02	-13.9825	-76.449221	0.000172	1.723305	0.583872	0.000069
1659	1.6497e+02	-13.9440	-76.332144	0.000294	2.939756	0.996016	0.000118
1660	1.6507e+02	-13.9055	-76.231216	0.000253	2.534272	0.858635	0.000101
1661	1.6517e+02	-13.8670	-76.154510	0.000193	1.926047	0.652562	0.000077
1662	1.6527e+02	-13.8269	-76.053582	0.000253	2.534272	0.858635	0.000101
1663	1.6537e+02	-13.7916	-76.029359	0.000061	0.608225	0.206072	0.000024
1664	1.6547e+02	-13.7419	-75.851725	0.000446	4.460319	1.511197	0.000179
1665	1.6557e+02	-13.7098	-75.762908	0.000223	2.230159	0.755598	0.000089
1666	1.6567e+02	-13.6745	-75.690239	0.000182	1.824676	0.618217	0.000073
1667	1.6577e+02	-13.6280	-75.573162	0.000294	2.939756	0.996016	0.000118
1668	1.6587e+02	-13.5959	-75.484345	0.000223	2.230159	0.755598	0.000089
1669	1.6597e+02	-13.5494	-75.383417	0.000253	2.534272	0.858635	0.000101
1670	1.6607e+02	-13.5060	-75.217895	0.000416	4.156206	1.408161	0.000166
1671	1.6616e+02	-13.4723	-75.185597	0.000081	0.810967	0.274763	0.000032
1672	1.6626e+02	-13.4242	-75.068520	0.000294	2.939756	0.996016	0.000118
1673	1.6636e+02	-13.3857	-74.963555	0.000264	2.635643	0.892980	0.000105
1674	1.6646e+02	-13.3504	-74.878775	0.000213	2.128789	0.721253	0.000085
1675	1.6656e+02	-13.3183	-74.749587	0.000324	3.243868	1.099052	0.000130
1676	1.6666e+02	-13.2670	-74.680955	0.000172	1.723305	0.583872	0.000069
1677	1.6676e+02	-13.2269	-74.543693	0.000345	3.446610	1.167743	0.000138
1678	1.6686e+02	-13.1852	-74.450839	0.000233	2.331530	0.789944	0.000093
1679	1.6696e+02	-13.1435	-74.357985	0.000233	2.331530	0.789944	0.000093
1680	1.6706e+02	-13.1098	-74.257056	0.000253	2.534272	0.858635	0.000101
1681	1.6716e+02	-13.0697	-74.148054	0.000274	2.737014	0.927325	0.000110
1682	1.6726e+02	-13.0344	-74.051162	0.000243	2.432901	0.824289	0.000097
1683	1.6736e+02	-12.9927	-73.986568	0.000162	1.621934	0.549526	0.000065
1684	1.6746e+02	-12.9510	-73.885640	0.000253	2.534272	0.858635	0.000101
1685	1.6756e+02	-12.9221	-73.756451	0.000324	3.243868	1.099052	0.000130
1686	1.6766e+02	-12.8724	-73.643412	0.000284	2.838385	0.961671	0.000114
1687	1.6776e+02	-12.8355	-73.526335	0.000294	2.939756	0.996016	0.000118
1688	1.6786e+02	-12.7889	-73.433481	0.000233	2.331530	0.789944	0.000093
1689	1.6796e+02	-12.7504	-73.308329	0.000314	3.142497	1.064707	0.000126
1690	1.6806e+02	-12.7184	-73.227587	0.000203	2.027418	0.686908	0.000081
1691	1.6816e+02	-12.6734	-73.130695	0.000243	2.432901	0.824289	0.000097
1692	1.6825e+02	-12.6317	-73.005544	0.000314	3.142497	1.064707	0.000126
1693	1.6835e+02	-12.5996	-72.904616	0.000253	2.534272	0.858635	0.000101
1694	1.6845e+02	-12.5531	-72.819836	0.000213	2.128789	0.721253	0.000085
1695	1.6855e+02	-12.5194	-72.686610	0.000335	3.345239	1.133398	0.000134
1696	1.6865e+02	-12.4729	-72.553385	0.000335	3.345239	1.133398	0.000134
1697	1.6875e+02	-12.4264	-72.444382	0.000274	2.737014	0.927325	0.000110
1698	1.6885e+02	-12.3943	-72.399974	0.000112	1.115080	0.377799	0.000045
1699	1.6895e+02	-12.3478	-72.254637	0.000365	3.649352	1.236434	0.000146
1700	1.6905e+02	-12.3045	-72.137560	0.000294	2.939756	0.996016	0.000118
1701	1.6915e+02	-12.2756	-72.008372	0.000324	3.243868	1.099052	0.000130
1702	1.6925e+02	-12.2355	-71.943777	0.000162	1.621934	0.549526	0.000065
1703	1.6935e+02	-12.1906	-71.810552	0.000335	3.345239	1.133398	0.000134
1704	1.6945e+02	-12.1489	-71.669252	0.000355	3.547981	1.202088	0.000142
1705	1.6955e+02	-12.1216	-71.596584	0.000182	1.824676	0.618217	0.000073
1706	1.6965e+02	-12.0799	-71.503730	0.000233	2.331530	0.789944	0.000093
1707	1.6975e+02	-12.0430	-71.418950	0.000213	2.128789	0.721253	0.000085
1708	1.6985e+02	-11.9948	-71.273613	0.000365	3.649352	1.236434	0.000146
1709	1.6995e+02	-11.9483	-71.168647	0.000264	2.635643	0.892980	0.000105
1710	1.7005e+02	-11.9162	-71.035422	0.000335	3.345239	1.133398	0.000134
1711	1.7015e+02	-11.8777	-70.958716	0.000193	1.926047	0.652562	0.000077
1712	1.7024e+02	-11.8376	-70.837602	0.000304	3.041126	1.030362	0.000122
1713	1.7034e+02	-11.7991	-70.752822	0.000213	2.128789	0.721253	0.000085
1714	1.7044e+02	-11.7526	-70.603448	0.000375	3.750723	1.270779	0.000150
1715	1.7054e+02	-11.7093	-70.494446	0.000274	2.737014	0.927325	0.000110
1716	1.7064e+02	-11.6724	-70.393517	0.000253	2.534272	0.858635	0.000101
1717	1.7074e+02	-11.6387	-70.292589	0.000253	2.534272	0.858635	0.000101
1718	1.7084e+02	-11.5970	-70.167438	0.000314	3.142497	1.064707	0.000126
1719	1.7094e+02	-11.5521	-70.066509	0.000253	2.534272	0.858635	0.000101
1720	1.7104e+02	-11.5088	-69.921172	0.000365	3.649352	1.236434	0.000146
1721	1.7114e+02	-11.4815	-69.840430	0.000203	2.027418	0.686908	0.000081
1722	1.7124e+02	-11.4382	-69.711241	0.000324	3.243868	1.099052	0.000130
1723	1.7134e+02	-11.3997	-69.598202	0.000284	2.838385	0.961671	0.000114
1724	1.7144e+02	-11.3532	-69.493236	0.000264	2.635643	0.892980	0.000105
1725	1.7154e+02	-11.3195	-69.368085	0.000314	3.142497	1.064707	0.000126
1726	1.7164e+02	-11.2762	-69.263119	0.000264	2.635643	0.892980	0.000105
1727	1.7174e+02	-11.2505	-69.154117	0.000274	2.737014	0.927325	0.000110
1728	1.7184e+02	-11.2008	-69.065300	0.000223	2.230159	0.755598	0.000089
1729	1.7194e+02	-11.1606	-68.964371	0.000253	2.534272	0.858635	0.000101
1730	1.7204e+02	-11.1173	-68.827109	0.000345	3.446610	1.167743	0.000138
1731	1.7213e+02	-11.0869	-68.718106	0.000274	2.737014	0.927325	0.000110
1732	1.7223e+02	-11.0371	-68.625252	0.000233	2.331530	0.789944	0.000093
1733	1.7233e+02	-10.9954	-68.500101	0.000314	3.142497	1.064707	0.000126
1734	1.7243e+02	-10.9505	-68.423395	0.000193	1.926047	0.652562	0.000077
1735	1.7253e+02	-10.9200	-68.249798	0.000436	4.358948	1.476852	0.000174
1736	1.7263e+02	-10.8735	-68.156944	0.000233	2.331530	0.789944	0.000093
1737	1.7273e+02	-10.8334	-68.068127	0.000223	2.230159	0.755598	0.000089
1738	1.7283e+02	-10.8029	-67.971236	0.000243	2.432901	0.824289	0.000097
1739	1.7293e+02	-10.7644	-67.781490	0.000476	4.764431	1.614233	0.000191
1740	1.7303e+02	-10.7179	-67.716896	0.000162	1.621934	0.549526	0.000065
1741	1.7313e+02	-10.6778	-67.535225	0.000456	4.561690	1.545542	0.000183
1742	1.7323e+02	-10.6441	-67.430260	0.000264	2.635643	0.892980	0.000105
1743	1.7333e+02	-10.6024	-67.349517	0.000203	2.027418	0.686908	0.000081
1744	1.7343e+02	-10.5639	-67.256663	0.000233	2.331530	0.789944	0.000093
1745	1.7353e+02	-10.5222	-67.127474	0.000324	3.243868	1.099052	0.000130
1746	1.7363e+02	-10.4869	-67.014435	0.000284	2.838385	0.961671	0.000114
1747	1.7373e+02	-10.4452	-66.913506	0.000253	2.534272	0.858635	0.000101
1748	1.7383e+02	-10.3986	-66.780281	0.000335	3.345239	1.133398	0.000134
1749	1.7393e+02	-10.3553	-66.647055	0.000335	3.345239	1.133398	0.000134
1750	1.7403e+02	-10.3216	-66.542090	0.000264	2.635643	0.892980	0.000105
1751	1.7413e+02	-10.2863	-66.433087	0.000274	2.737014	0.927325	0.000110
1752	1.7422e+02	-10.2398	-66.303899	0.000324	3.243868	1.099052	0.000130
1753	1.7432e+02	-10.2045	-66.186822	0.000294	2.939756	0.996016	0.000118
1754	1.7442e+02	-10.1644	-66.057634	0.000324	3.243868	1.099052	0.000130
1755	1.7452e+02	-10.1243	-65.944594	0.000284	2.838385	0.961671	0.000114
1756	1.7462e+02	-10.0826	-65.831554	0.000284	2.838385	0.961671	0.000114
1757	1.7472e+02	-10.0441	-65.698328	0.000335	3.345239	1.133398	0.000134
1758	1.7482e+02	-9.9976	-65.617586	0.000203	2.027418	0.686908	0.000081
1759	1.7492e+02	-9.9655	-65.500509	0.000294	2.939756	0.996016	0.000118
1760	1.7502e+02	-9.9318	-65.375358	0.000314	3.142497	1.064707	0.000126
1761	1.7512e+02	-9.8821	-65.270392	0.000264	2.635643	0.892980	0.000105
1762	1.7522e+02	-9.8436	-65.129092	0.000355	3.547981	1.202088	0.000142
1763	1.7532e+02	-9.8099	-65.016052	0.000284	2.838385	0.961671	0.000114
1764	1.7542e+02	-9.7602	-64.911087	0.000264	2.635643	0.892980	0.000105
1765	1.7552e+02	-9.7184	-64.781899	0.000324	3.243868	1.099052	0.000130
1766	1.7562e+02	-9.6896	-64.664822	0.000294	2.939756	0.996016	0.000118
1767	1.7572e+02	-9.6446	-64.543708	0.000304	3.041126	1.030362	0.000122
1768	1.7582e+02	-9.6029	-64.410482	0.000335	3.345239	1.133398	0.000134
1769	1.7592e+02	-9.5628	-64.281294	0.000324	3.243868	1.099052	0.000130
1770	1.7602e+02	-9.5340	-64.188440	0.000233	2.331530	0.789944	0.000093
1771	1.7612e+02	-9.4874	-64.079437	0.000274	2.737014	0.927325	0.000110
1772	1.7621e+02	-9.4409	-63.978509	0.000253	2.534272	0.858635	0.000101
1773	1.7631e+02	-9.3992	-63.841246	0.000345	3.446610	1.167743	0.000138
1774	1.7641e+02	-9.3591	-63.720132	0.000304	3.041126	1.030362	0.000122
1775	1.7651e+02	-9.3270	-63.619204	0.000253	2.534272	0.858635	0.000101
1776	1.7661e+02	-9.2853	-63.461755	0.000395	3.953464	1.339470	0.000158
1777	1.7671e+02	-9.2420	-63.381013	0.000203	2.027418	0.686908	0.000081
1778	1.7681e+02	-9.2019	-63.207416	0.000436	4.358948	1.476852	0.000174
1779	1.7691e+02	-9.1698	-63.138784	0.000172	1.723305	0.583872	0.000069
1780	1.7701e+02	-9.1265	-62.985373	0.000385	3.852093	1.305125	0.000154
1781	1.7711e+02	-9.0864	-62.880408	0.000264	2.635643	0.892980	0.000105
1782	1.7721e+02	-9.0479	-62.747182	0.000335	3.345239	1.133398	0.000134
1783	1.7731e+02	-9.0126	-62.617994	0.000324	3.243868	1.099052	0.000130
1784	1.7741e+02	-8.9612	-62.488806	0.000324	3.243868	1.099052	0.000130
1785	1.7751e+02	-8.9324	-62.367691	0.000304	3.041126	1.030362	0.000122
1786	1.7761e+02	-8.8907	-62.270800	0.000243	2.432901	0.824289	0.000097
1787	1.7771e+02	-8.8393	-62.129500	0.000355	3.547981	1.202088	0.000142
1788	1.7781e+02	-8.8072	-62.012424	0.000294	2.939756	0.996016	0.000118
1789	1.7791e+02	-8.7623	-61.887272	0.000314	3.142497	1.064707	0.000126
1790	1.7801e+02	-8.7334	-61.758084	0.000324	3.243868	1.099052	0.000130
1791	1.7810e+02	-8.6789	-61.636970	0.000304	3.041126	1.030362	0.000122
1792	1.7820e+02	-8.6564	-61.507782	0.000324	3.243868	1.099052	0.000130
1793	1.7830e+02	-8.6131	-61.378593	0.000324	3.243868	1.099052	0.000130
1794	1.7840e+02	-8.5714	-61.309962	0.000172	1.723305	0.583872	0.000069
1795	1.7850e+02	-8.5249	-61.108105	0.000507	5.068544	1.717269	0.000203
1796	1.7860e+02	-8.4880	-61.015251	0.000233	2.331530	0.789944	0.000093
1797	1.7870e+02	-8.4495	-60.873951	0.000355	3.547981	1.202088	0.000142
1798	1.7880e+02	-8.4126	-60.728614	0.000365	3.649352	1.236434	0.000146
1799	1.7890e+02	-8.3661	-60.623649	0.000264	2.635643	0.892980	0.000105
1800	1.7900e+02	-8.3308	-60.510609	0.000284	2.838385	0.961671	0.000114
1801	1.7910e+02	-8.2891	-60.361235	0.000375	3.750723	1.270779	0.000150
1802	1.7920e+02	-8.2490	-60.228010	0.000335	3.345239	1.133398	0.000134
1803	1.7930e+02	-8.2121	-60.151304	0.000193	1.926047	0.652562	0.000077
1804	1.7940e+02	-8.1784	-59.989818	0.000405	4.054835	1.373815	0.000162
1805	1.7950e+02	-8.1286	-59.880816	0.000274	2.737014	0.927325	0.000110
1806	1.7960e+02	-8.0869	-59.747590	0.000335	3.345239	1.133398	0.000134
1807	1.7970e+02	-8.0532	-59.606291	0.000355	3.547981	1.202088	0.000142
1808	1.7980e+02	-8.0147	-59.469028	0.000345	3.446610	1.167743	0.000138
1809	1.7990e+02	-7.9714	-59.368100	0.000253	2.534272	0.858635	0.000101
1810	1.8000e+02	-7.9201	-59.210651	0.000395	3.953464	1.339470	0.000158
1811	1.8009e+02	-7.9008	-59.077426	0.000335	3.345239	1.133398	0.000134
1812	1.8019e+02	-7.8543	-59.012832	0.000162	1.621934	0.549526	0.000065
1813	1.8029e+02	-7.8078	-58.839235	0.000436	4.358948	1.476852	0.000174
1814	1.8039e+02	-7.7757	-58.645452	0.000487	4.865802	1.648578	0.000195
1815	1.8049e+02	-7.7340	-58.580858	0.000162	1.621934	0.549526	0.000065
1816	1.8059e+02	-7.6891	-58.439558	0.000355	3.547981	1.202088	0.000142
1817	1.8069e+02	-7.6554	-58.334593	0.000264	2.635643	0.892980	0.000105
1818	1.8079e+02	-7.6137	-58.189256	0.000365	3.649352	1.236434	0.000146
1819	1.8089e+02	-7.5704	-58.019696	0.000426	4.257577	1.442506	0.000170
1820	1.8099e+02	-7.5303	-57.910694	0.000274	2.737014	0.927325	0.000110
1821	1.8109e+02	-7.4870	-57.745171	0.000416	4.156206	1.408161	0.000166
1822	1.8119e+02	-7.4388	-57.595797	0.000375	3.750723	1.270779	0.000150
1823	1.8129e+02	-7.4148	-57.482757	0.000284	2.838385	0.961671	0.000114
1824	1.8139e+02	-7.3747	-57.341457	0.000355	3.547981	1.202088	0.000142
1825	1.8149e+02	-7.3362	-57.224381	0.000294	2.939756	0.996016	0.000118
1826	1.8159e+02	-7.2961	-57.062895	0.000405	4.054835	1.373815	0.000162
1827	1.8169e+02	-7.2559	-56.933707	0.000324	3.243868	1.099052	0.000130
1828	1.8179e+02	-7.2078	-56.788370	0.000365	3.649352	1.236434	0.000146
1829	1.8189e+02	-7.1661	-56.691479	0.000243	2.432901	0.824289	0.000097
1830	1.8199e+02	-7.1308	-56.538067	0.000385	3.852093	1.305125	0.000154
1831	1.8209e+02	-7.0859	-56.404842	0.000335	3.345239	1.133398	0.000134
1832	1.8218e+02	-7.0442	-56.251431	0.000385	3.852093	1.305125	0.000154
1833	1.8228e+02	-7.0121	-56.077834	0.000436	4.358948	1.476852	0.000174
1834	1.8238e+02	-6.9736	-55.956720	0.000304	3.041126	1.030362	0.000122
1835	1.8248e+02	-6.9383	-55.815420	0.000355	3.547981	1.202088	0.000142
1836	1.8258e+02	-6.8950	-55.678158	0.000345	3.446610	1.167743	0.000138
1837	1.8268e+02	-6.8549	-55.548969	0.000324	3.243868	1.099052	0.000130
1838	1.8278e+02	-6.8196	-55.431892	0.000294	2.939756	0.996016	0.000118
1839	1.8288e+02	-6.7763	-55.238110	0.000487	4.865802	1.648578	0.000195
1840	1.8298e+02	-6.7330	-55.149293	0.000223	2.230159	0.755598	0.000089
1841	1.8308e+02	-6.6913	-54.991844	0.000395	3.953464	1.339470	0.000158
1842	1.8318e+02	-6.6544	-54.874768	0.000294	2.939756	0.996016	0.000118
1843	1.8328e+02	-6.6271	-54.713282	0.000405	4.054835	1.373815	0.000162
1844	1.8338e+02	-6.5741	-54.571982	0.000355	3.547981	1.202088	0.000142
1845	1.8348e+02	-6.5324	-54.442794	0.000324	3.243868	1.099052	0.000130
1846	1.8358e+02	-6.4955	-54.281309	0.000405	4.054835	1.373815	0.000162
1847	1.8368e+02	-6.4602	-54.144046	0.000345	3.446610	1.167743	0.000138
1848	1.8378e+02	-6.4169	-53.986598	0.000395	3.953464	1.339470	0.000158
1849	1.8388e+02	-6.3768	-53.861446	0.000314	3.142497	1.064707	0.000126
1850	1.8398e+02	-6.3367	-53.732258	0.000324	3.243868	1.099052	0.000130
1851	1.8407e+02	-6.2982	-53.586921	0.000365	3.649352	1.236434	0.000146
1852	1.8417e+02	-6.2661	-53.437547	0.000375	3.750723	1.270779	0.000150
1853	1.8427e+02	-6.2244	-53.259913	0.000446	4.460319	1.511197	0.000179
1854	1.8437e+02	-6.1875	-53.146873	0.000284	2.838385	0.961671	0.000114
1855	1.8447e+02	-6.1378	-52.985388	0.000405	4.054835	1.373815	0.000162
1856	1.8457e+02	-6.1041	-52.852163	0.000335	3.345239	1.133398	0.000134
1857	1.8467e+02	-6.0576	-52.694714	0.000395	3.953464	1.339470	0.000158
1858	1.8477e+02	-6.0175	-52.504969	0.000476	4.764431	1.614233	0.000191
1859	1.8487e+02	-5.9790	-52.391929	0.000284	2.838385	0.961671	0.000114
1860	1.8497e+02	-5.9469	-52.258704	0.000335	3.345239	1.133398	0.000134
1861	1.8507e+02	-5.8988	-52.085107	0.000436	4.358948	1.476852	0.000174
1862	1.8517e+02	-5.8538	-51.919584	0.000416	4.156206	1.408161	0.000166
1863	1.8527e+02	-5.8250	-51.802507	0.000294	2.939756	0.996016	0.000118
1864	1.8537e+02	-5.7801	-51.636985	0.000416	4.156206	1.408161	0.000166
1865	1.8547e+02	-5.7383	-51.511833	0.000314	3.142497	1.064707	0.000126
1866	1.8557e+02	-5.7030	-51.342274	0.000426	4.257577	1.442506	0.000170
1867	1.8567e+02	-5.6662	-51.209048	0.000335	3.345239	1.133398	0.000134
1868	1.8577e+02	-5.6164	-51.063711	0.000365	3.649352	1.236434	0.000146
1869	1.8587e+02	-5.5827	-50.914337	0.000375	3.750723	1.270779	0.000150
1870	1.8597e+02	-5.5458	-50.756889	0.000395	3.953464	1.339470	0.000158
1871	1.8606e+02	-5.5025	-50.595404	0.000405	4.054835	1.373815	0.000162
1872	1.8616e+02	-5.4608	-50.437955	0.000395	3.953464	1.339470	0.000158
1873	1.8626e+02	-5.4303	-50.292618	0.000365	3.649352	1.236434	0.000146
1874	1.8636e+02	-5.3806	-50.131133	0.000405	4.054835	1.373815	0.000162
1875	1.8646e+02	-5.3373	-49.993870	0.000345	3.446610	1.167743	0.000138
1876	1.8656e+02	-5.3052	-49.816236	0.000446	4.460319	1.511197	0.000179
1877	1.8666e+02	-5.2603	-49.699160	0.000294	2.939756	0.996016	0.000118
1878	1.8676e+02	-5.2298	-49.549785	0.000375	3.750723	1.270779	0.000150
1879	1.8686e+02	-5.1769	-49.364077	0.000466	4.663061	1.579888	0.000187
1880	1.8696e+02	-5.1384	-49.259112	0.000264	2.635643	0.892980	0.000105
1881	1.8706e+02	-5.1079	-49.085515	0.000436	4.358948	1.476852	0.000174
1882	1.8716e+02	-5.0581	-48.932104	0.000385	3.852093	1.305125	0.000154
1883	1.8726e+02	-5.0229	-48.770618	0.000405	4.054835	1.373815	0.000162
1884	1.8736e+02	-4.9811	-48.592984	0.000446	4.460319	1.511197	0.000179
1885	1.8746e+02	-4.9442	-48.431499	0.000405	4.054835	1.373815	0.000162
1886	1.8756e+02	-4.9073	-48.334608	0.000243	2.432901	0.824289	0.000097
1887	1.8766e+02	-4.8656	-48.132751	0.000507	5.068544	1.717269	0.000203
1888	1.8776e+02	-4.8336	-48.023748	0.000274	2.737014	0.927325	0.000110
1889	1.8786e+02	-4.7902	-47.838040	0.000466	4.663061	1.579888	0.000187
1890	1.8796e+02	-4.7421	-47.692703	0.000365	3.649352	1.236434	0.000146
1891	1.8806e+02	-4.7052	-47.502958	0.000476	4.764431	1.614233	0.000191
1892	1.8815e+02	-4.6699	-47.357621	0.000365	3.649352	1.236434	0.000146
1893	1.8825e+02	-4.6282	-47.179987	0.000446	4.460319	1.511197	0.000179
1894	1.8835e+02	-4.5769	-47.054836	0.000314	3.142497	1.064707	0.000126
1895	1.8845e+02	-4.5528	-46.877202	0.000446	4.460319	1.511197	0.000179
1896	1.8855e+02	-4.5015	-46.719753	0.000395	3.953464	1.339470	0.000158
1897	1.8865e+02	-4.4598	-46.574416	0.000365	3.649352	1.236434	0.000146
1898	1.8875e+02	-4.4229	-46.408894	0.000416	4.156206	1.408161	0.000166
1899	1.8885e+02	-4.3860	-46.283743	0.000314	3.142497	1.064707	0.000126
1900	1.8895e+02	-4.3475	-46.110146	0.000436	4.358948	1.476852	0.000174
1901	1.8905e+02	-4.3058	-45.976920	0.000335	3.345239	1.133398	0.000134
1902	1.8915e+02	-4.2657	-45.754878	0.000558	5.575398	1.888996	0.000223
1903	1.8925e+02	-4.2288	-45.625690	0.000324	3.243868	1.099052	0.000130
1904	1.8935e+02	-4.1870	-45.456130	0.000426	4.257577	1.442506	0.000170
1905	1.8945e+02	-4.1453	-45.347127	0.000274	2.737014	0.927325	0.000110
1906	1.8955e+02	-4.1116	-45.177567	0.000426	4.257577	1.442506	0.000170
1907	1.8965e+02	-4.0699	-44.999934	0.000446	4.460319	1.511197	0.000179
1908	1.8975e+02	-4.0298	-44.854597	0.000365	3.649352	1.236434	0.000146
1909	1.8985e+02	-3.9881	-44.697148	0.000395	3.953464	1.339470	0.000158
1910	1.8995e+02	-3.9528	-44.531626	0.000416	4.156206	1.408161	0.000166
1911	1.9004e+02	-3.9015	-44.374177	0.000395	3.953464	1.339470	0.000158
1912	1.9014e+02	-3.8646	-44.220766	0.000385	3.852093	1.305125	0.000154
1913	1.9024e+02	-3.8309	-44.035058	0.000466	4.663061	1.579888	0.000187
1914	1.9034e+02	-3.7924	-43.873573	0.000405	4.054835	1.373815	0.000162
1915	1.9044e+02	-3.7411	-43.736310	0.000345	3.446610	1.167743	0.000138
1916	1.9054e+02	-3.7106	-43.562713	0.000436	4.358948	1.476852	0.000174
1917	1.9064e+02	-3.6689	-43.457748	0.000264	2.635643	0.892980	0.000105
1918	1.9074e+02	-3.6304	-43.255891	0.000507	5.068544	1.717269	0.000203
1919	1.9084e+02	-3.5887	-43.090368	0.000416	4.156206	1.408161	0.000166
1920	1.9094e+02	-3.5470	-42.916771	0.000436	4.358948	1.476852	0.000174
1921	1.9104e+02	-3.5036	-42.763360	0.000385	3.852093	1.305125	0.000154
1922	1.9114e+02	-3.4635	-42.622061	0.000355	3.547981	1.202088	0.000142
1923	1.9124e+02	-3.4331	-42.428278	0.000487	4.865802	1.648578	0.000195
1924	1.9134e+02	-3.3897	-42.254681	0.000436	4.358948	1.476852	0.000174
1925	1.9144e+02	-3.3561	-42.085122	0.000426	4.257577	1.442506	0.000170
1926	1.9154e+02	-3.3095	-41.943822	0.000355	3.547981	1.202088	0.000142
1927	1.9164e+02	-3.2662	-41.778299	0.000416	4.156206	1.408161	0.000166
1928	1.9174e+02	-3.2245	-41.604702	0.000436	4.358948	1.476852	0.000174
1929	1.9184e+02	-3.1892	-41.431106	0.000436	4.358948	1.476852	0.000174
1930	1.9194e+02	-3.1507	-41.297880	0.000335	3.345239	1.133398	0.000134
1931	1.9203e+02	-3.1170	-41.132357	0.000416	4.156206	1.408161	0.000166
1932	1.9213e+02	-3.0689	-40.946649	0.000466	4.663061	1.579888	0.000187
1933	1.9223e+02	-3.0336	-40.785164	0.000405	4.054835	1.373815	0.000162
1934	1.9233e+02	-2.9903	-40.611567	0.000436	4.358948	1.476852	0.000174
1935	1.9243e+02	-2.9518	-40.470267	0.000355	3.547981	1.202088	0.000142
1936	1.9253e+02	-2.9149	-40.300708	0.000426	4.257577	1.442506	0.000170
1937	1.9263e+02	-2.8700	-40.143259	0.000395	3.953464	1.339470	0.000158
1938	1.9273e+02	-2.8315	-39.945440	0.000497	4.967173	1.682924	0.000199
1939	1.9283e+02	-2.7914	-39.804140	0.000355	3.547981	1.202088	0.000142
1940	1.9293e+02	-2.7529	-39.646692	0.000395	3.953464	1.339470	0.000158
1941	1.9303e+02	-2.7079	-39.444835	0.000507	5.068544	1.717269	0.000203
1942	1.9313e+02	-2.6823	-39.331795	0.000284	2.838385	0.961671	0.000114
1943	1.9323e+02	-2.6342	-39.109752	0.000558	5.575398	1.888996	0.000223
1944	1.9333e+02	-2.5860	-38.992676	0.000294	2.939756	0.996016	0.000118
1945	1.9343e+02	-2.5523	-38.806967	0.000466	4.663061	1.579888	0.000187
1946	1.9353e+02	-2.5122	-38.625296	0.000456	4.561690	1.545542	0.000183
1947	1.9363e+02	-2.4721	-38.463811	0.000405	4.054835	1.373815	0.000162
1948	1.9373e+02	-2.4288	-38.278103	0.000466	4.663061	1.579888	0.000187
1949	1.9383e+02	-2.3935	-38.132766	0.000365	3.649352	1.236434	0.000146
1950	1.9393e+02	-2.3550	-37.959169	0.000436	4.358948	1.476852	0.000174
1951	1.9403e+02	-2.3117	-37.789609	0.000426	4.257577	1.442506	0.000170
1952	1.9412e+02	-2.2748	-37.620049	0.000426	4.257577	1.442506	0.000170
1953	1.9422e+02	-2.2347	-37.426267	0.000487	4.865802	1.648578	0.000195
1954	1.9432e+02	-2.1930	-37.256707	0.000426	4.257577	1.442506	0.000170
1955	1.9442e+02	-2.1513	-37.103296	0.000385	3.852093	1.305125	0.000154
1956	1.9452e+02	-2.1128	-36.889328	0.000537	5.372657	1.820305	0.000215
1957	1.9462e+02	-2.0695	-36.752065	0.000345	3.446610	1.167743	0.000138
1958	1.9472e+02	-2.0454	-36.578468	0.000436	4.358948	1.476852	0.000174
1959	1.9482e+02	-1.9925	-36.416983	0.000405	4.054835	1.373815	0.000162
1960	1.9492e+02	-1.9540	-36.275683	0.000355	3.547981	1.202088	0.000142
1961	1.9502e+02	-1.9187	-36.081901	0.000487	4.865802	1.648578	0.000195
1962	1.9512e+02	-1.8721	-35.888118	0.000487	4.865802	1.648578	0.000195
1963	1.9522e+02	-1.8336	-35.722596	0.000416	4.156206	1.408161	0.000166
1964	1.9532e+02	-1.7919	-35.528813	0.000487	4.865802	1.648578	0.000195
1965	1.9542e+02	-1.7502	-35.403662	0.000314	3.142497	1.064707	0.000126
1966	1.9552e+02	-1.7213	-35.197768	0.000517	5.169915	1.751615	0.000207
1967	1.9562e+02	-1.6716	-35.024171	0.000436	4.358948	1.476852	0.000174
1968	1.9572e+02	-1.6363	-34.842500	0.000456	4.561690	1.545542	0.000183
1969	1.9582e+02	-1.5962	-34.681015	0.000405	4.054835	1.373815	0.000162
1970	1.9592e+02	-1.5529	-34.523566	0.000395	3.953464	1.339470	0.000158
1971	1.9601e+02	-1.5192	-34.309598	0.000537	5.372657	1.820305	0.000215
1972	1.9611e+02	-1.4807	-34.172335	0.000345	3.446610	1.167743	0.000138
1973	1.9621e+02	-1.4374	-33.970479	0.000507	5.068544	1.717269	0.000203
1974	1.9631e+02	-1.3877	-33.796882	0.000436	4.358948	1.476852	0.000174
1975	1.9641e+02	-1.3524	-33.635396	0.000405	4.054835	1.373815	0.000162
1976	1.9651e+02	-1.3155	-33.405280	0.000578	5.778140	1.957687	0.000231
1977	1.9661e+02	-1.2706	-33.284166	0.000304	3.041126	1.030362	0.000122
1978	1.9671e+02	-1.2288	-33.058086	0.000568	5.676769	1.923342	0.000227
1979	1.9681e+02	-1.1968	-32.932935	0.000314	3.142497	1.064707	0.000126
1980	1.9691e+02	-1.1567	-32.727041	0.000517	5.169915	1.751615	0.000207
1981	1.9701e+02	-1.1165	-32.561518	0.000416	4.156206	1.408161	0.000166
1982	1.9711e+02	-1.0748	-32.367736	0.000487	4.865802	1.648578	0.000195
1983	1.9721e+02	-1.0347	-32.198176	0.000426	4.257577	1.442506	0.000170
1984	1.9731e+02	-1.0010	-32.044765	0.000385	3.852093	1.305125	0.000154
1985	1.9741e+02	-0.9625	-31.822722	0.000558	5.575398	1.888996	0.000223
1986	1.9751e+02	-0.9208	-31.632977	0.000476	4.764431	1.614233	0.000191
1987	1.9761e+02	-0.8727	-31.427083	0.000517	5.169915	1.751615	0.000207
1988	1.9771e+02	-0.8454	-31.301932	0.000314	3.142497	1.064707	0.000126
1989	1.9781e+02	-0.8037	-31.092001	0.000527	5.271286	1.785960	0.000211
1990	1.9791e+02	-0.7588	-30.946664	0.000365	3.649352	1.236434	0.000146
1991	1.9800e+02	-0.7187	-30.756919	0.000476	4.764431	1.614233	0.000191
1992	1.9810e+02	-0.6786	-30.575248	0.000456	4.561690	1.545542	0.000183
1993	1.9820e+02	-0.6401	-30.373391	0.000507	5.068544	1.717269	0.000203
1994	1.9830e+02	-0.6016	-30.191720	0.000456	4.561690	1.545542	0.000183
1995	1.9840e+02	-0.5615	-30.014086	0.000446	4.460319	1.511197	0.000179
1996	1.9850e+02	-0.5262	-29.808192	0.000517	5.169915	1.751615	0.000207
1997	1.9860e+02	-0.4781	-29.622483	0.000466	4.663061	1.579888	0.000187
1998	1.9870e+02	-0.4492	-29.477147	0.000365	3.649352	1.236434	0.000146
1999	1.9880e+02	-0.4075	-29.275290	0.000507	5.068544	1.717269	0.000203
2000	1.9890e+02	-0.3626	-29.138027	0.000345	3.446610	1.167743	0.000138
2001	1.9900e+02	-0.3225	-28.859465	0.000699	6.994591	2.369832	0.000280
2002	1.9910e+02	-0.2839	-28.718165	0.000355	3.547981	1.202088	0.000142
2003	1.9920e+02	-0.2406	-28.552643	0.000416	4.156206	1.408161	0.000166
2004	1.9930e+02	-0.2069	-28.354823	0.000497	4.967173	1.682924	0.000199
2005	1.9940e+02	-0.1668	-28.169115	0.000466	4.663061	1.579888	0.000187
2006	1.9950e+02	-0.1267	-27.955146	0.000537	5.372657	1.820305	0.000215
2007	1.9960e+02	-0.0818	-27.801735	0.000385	3.852093	1.305125	0.000154
2008	1.9970e+02	-0.0513	-27.640250	0.000405	4.054835	1.373815	0.000162
2009	1.9980e+02	-0.0048	-27.422245	0.000405	4.054835	1.373815	0.000219

Center data before PMax,+/-Pr and +/-Vc Calc.

PMax (uC/cm2):	8.37e+01
Pr (uC/cm2):	1.66e+01
-Pr (uC/cm2):	-2.74e+01
PLoss (uC/cm2):	-3.70e+01
-Vc:	-3.61e+00
C (Max-Eff) (nF):	4.19e-01
K (Eff):	1.42e+03
Vert. (+/-Pr) Shift (uC/cm2):	-5.41e+00
Offset (uC/cm2):	-9.53e+00

A (Loop Area - uC/cm2·Volts):	-8.33e-02



Hysteresis Version: 5.48.1 - Radiant Technologies, Inc., 1999 - 9/12/24

