»»»»»»»»»»»»»»»»»»»»»»»»»»»»»»»»»»»» Hysteresis ««««««««««««««««««««««««««««««««««««
»»»  Executed Version:	5.48.1
»»»  Vision Version:	5.48.4 (R)
»»»  Vision Compiled:	9/18/24
»»»  Driver Version:	5.47.0
»»»  Windows Version:	Windows 8 or 8.1
»»»  Processor Information:	x86 (AMD or Intel) - 32 Processors
»»»  Tester Name:	PMF21124-494 (100V)
»»»  Tester S/N:	PMF21124-494
»»»  Internal Amp Type:	100V RevK 270k
»»»  Internal Amp S/N:	iAB2-596/K     
»»»  Execution Count:	1
»»»»»»»»»»»»»»»»»»»»»»»»»»»»»»»»»»»»»»»»»»««««««««««««««««««««««««««««««««««««««««««

Stored:	6/16/2025 - 10:45:52
Configured:	06/16/25 10:13:01 AM
Executed:	06/16/25 10:45:10 AM

»»»»»»»»»»»»»»»»»»»»»»»»»»»»»»»»»»» Sample Info ««««««««««««««««««««««««««««««««««««
Sample Name:	
Lot Name:	
Wafer Name:	
Die Row/Column:	0/0
Capacitor Number:	0
Sample Area (cm2):	1.00e-04
Sample Thickness (microns):	3.00e-01

Amplifier:	Internal

»»»»»»»»»»»»»»»»»»»»»»»»»»»»»»»»»»» Tester Info «««««««««««««««««««««««««««««««««««
Tester Name:	PMF21124-494 (100V)
Tester Serial Number:	PMF21124-494
Return Signal Amp. Level:	0.19 [Index: 3]

»»»»»»»»»»»»»»»»»»»»»»»»»»»»»»»» Hysteresis Info ««««««««««««««««««««««««««««««««««
Task Name:	Hyst-2190
Volts:	20.00
Field:	666.67 (kV/cm)
DCBias:	0.00
DCField:	0.00 (kV/cm)
Hysteresis Period (ms):	2.00e+02
Preset:	Enabled
Preset Delay (ms):	1.00e+03
Profile:	Standard Bipolar

»»»»»»»»»»»»»»»»»»»»»»»»»»»»»»»»»»»»»» Data «««««««««««««««««««««««««««««««««««««««
Points:	2009

Valid Data

Point	Time (ms)	Drive Voltage	Measured Polarization (uC/cm2)	Capacitance (uF)	Normalized Capacitance (uF/cm2)	Dielectric Constant	Instantaneous Current (mA)
   1	0.0000e+00	0.0016	-47.238525	0.000395	3.952592	1.339174	0.000158
   2	9.9500e-02	0.0209	-47.081077	0.000395	3.952592	1.339174	0.000158
   3	1.9900e-01	0.0770	-46.915554	0.000416	4.155289	1.407850	0.000166
   4	2.9850e-01	0.1123	-46.741958	0.000436	4.357986	1.476526	0.000174
   5	3.9800e-01	0.1444	-46.588546	0.000385	3.851244	1.304837	0.000154
   6	4.9750e-01	0.1893	-46.402838	0.000466	4.662032	1.579539	0.000187
   7	5.9700e-01	0.2310	-46.217130	0.000466	4.662032	1.579539	0.000187
   8	6.9650e-01	0.2647	-46.091979	0.000314	3.141804	1.064472	0.000126
   9	7.9600e-01	0.3096	-45.857825	0.000588	5.878214	1.991593	0.000235
  10	8.9550e-01	0.3529	-45.692302	0.000416	4.155289	1.407850	0.000166
  11	9.9500e-01	0.3914	-45.510631	0.000456	4.560683	1.545201	0.000183
  12	1.0945e+00	0.4283	-45.341071	0.000426	4.256638	1.442188	0.000170
  13	1.1940e+00	0.4636	-45.207846	0.000334	3.344501	1.133148	0.000134
  14	1.2935e+00	0.5085	-44.989841	0.000547	5.472820	1.854242	0.000219
  15	1.3930e+00	0.5519	-44.812207	0.000446	4.459335	1.510864	0.000179
  16	1.4925e+00	0.5807	-44.642647	0.000426	4.256638	1.442188	0.000170
  17	1.5920e+00	0.6369	-44.469050	0.000436	4.357986	1.476526	0.000174
  18	1.6915e+00	0.6625	-44.255082	0.000537	5.371471	1.819904	0.000215
  19	1.7910e+00	0.6930	-44.113782	0.000355	3.547198	1.201823	0.000142
  20	1.8905e+00	0.7476	-43.915963	0.000497	4.966077	1.682553	0.000199
  21	1.9900e+00	0.7909	-43.746403	0.000426	4.256638	1.442188	0.000170
  22	2.0895e+00	0.8294	-43.552620	0.000486	4.864729	1.648215	0.000195
  23	2.1890e+00	0.8679	-43.318466	0.000588	5.878214	1.991593	0.000235
  24	2.2885e+00	0.9016	-43.197352	0.000304	3.040456	1.030134	0.000122
  25	2.3880e+00	0.9513	-43.076238	0.000304	3.040456	1.030134	0.000122
  26	2.4875e+00	0.9866	-42.825936	0.000628	6.283608	2.128944	0.000252
  27	2.5870e+00	1.0187	-42.688673	0.000345	3.445850	1.167485	0.000138
  28	2.6865e+00	1.0636	-42.490854	0.000497	4.966077	1.682553	0.000199
  29	2.7860e+00	1.1085	-42.280923	0.000527	5.270123	1.785566	0.000211
  30	2.8855e+00	1.1438	-42.115400	0.000416	4.155289	1.407850	0.000166
  31	2.9850e+00	1.1823	-41.901432	0.000537	5.371471	1.819904	0.000215
  32	3.0845e+00	1.2240	-41.719761	0.000456	4.560683	1.545201	0.000183
  33	3.1840e+00	1.2754	-41.554238	0.000416	4.155289	1.407850	0.000166
  34	3.2835e+00	1.3042	-41.348344	0.000517	5.168774	1.751228	0.000207
  35	3.3830e+00	1.3524	-41.207044	0.000355	3.547198	1.201823	0.000142
  36	3.4825e+00	1.3845	-41.021336	0.000466	4.662032	1.579539	0.000187
  37	3.5820e+00	1.4294	-40.783145	0.000598	5.979562	2.025931	0.000239
  38	3.6815e+00	1.4647	-40.649920	0.000334	3.344501	1.133148	0.000134
  39	3.7810e+00	1.5016	-40.439989	0.000527	5.270123	1.785566	0.000211
  40	3.8805e+00	1.5401	-40.274466	0.000416	4.155289	1.407850	0.000166
  41	3.9800e+00	1.5866	-40.040312	0.000588	5.878214	1.991593	0.000235
  42	4.0795e+00	1.6187	-39.911124	0.000324	3.243153	1.098810	0.000130
  43	4.1790e+00	1.6668	-39.717341	0.000486	4.864729	1.648215	0.000195
  44	4.2785e+00	1.6989	-39.519522	0.000497	4.966077	1.682553	0.000199
  45	4.3780e+00	1.7438	-39.325739	0.000486	4.864729	1.648215	0.000195
  46	4.4775e+00	1.7871	-39.144068	0.000456	4.560683	1.545201	0.000183
  47	4.5770e+00	1.8320	-38.950286	0.000486	4.864729	1.648215	0.000195
  48	4.6765e+00	1.8609	-38.768614	0.000456	4.560683	1.545201	0.000183
  49	4.7760e+00	1.8946	-38.578869	0.000476	4.763380	1.613877	0.000191
  50	4.8755e+00	1.9475	-38.393161	0.000466	4.662032	1.579539	0.000187
  51	4.9750e+00	1.9796	-38.187267	0.000517	5.168774	1.751228	0.000207
  52	5.0745e+00	2.0213	-38.009633	0.000446	4.459335	1.510864	0.000179
  53	5.1740e+00	2.0695	-37.836036	0.000436	4.357986	1.476526	0.000174
  54	5.2735e+00	2.0967	-37.634179	0.000507	5.067426	1.716890	0.000203
  55	5.3730e+00	2.1352	-37.464620	0.000426	4.256638	1.442188	0.000170
  56	5.4725e+00	2.1850	-37.238540	0.000568	5.675517	1.922917	0.000227
  57	5.5720e+00	2.2235	-37.052832	0.000466	4.662032	1.579539	0.000187
  58	5.6715e+00	2.2668	-36.855012	0.000497	4.966077	1.682553	0.000199
  59	5.7710e+00	2.3085	-36.677378	0.000446	4.459335	1.510864	0.000179
  60	5.8705e+00	2.3438	-36.443224	0.000588	5.878214	1.991593	0.000235
  61	5.9700e+00	2.3727	-36.277702	0.000416	4.155289	1.407850	0.000166
  62	6.0695e+00	2.4256	-36.043548	0.000588	5.878214	1.991593	0.000235
  63	6.1690e+00	2.4561	-35.894174	0.000375	3.749895	1.270499	0.000150
  64	6.2685e+00	2.5074	-35.692317	0.000507	5.067426	1.716890	0.000203
  65	6.3680e+00	2.5395	-35.478349	0.000537	5.371471	1.819904	0.000215
  66	6.4675e+00	2.5812	-35.320901	0.000395	3.952592	1.339174	0.000158
  67	6.5670e+00	2.6197	-35.163452	0.000395	3.952592	1.339174	0.000158
  68	6.6665e+00	2.6678	-34.957558	0.000517	5.168774	1.751228	0.000207
  69	6.7660e+00	2.6967	-34.731479	0.000568	5.675517	1.922917	0.000227
  70	6.8655e+00	2.7384	-34.541733	0.000476	4.763380	1.613877	0.000191
  71	6.9650e+00	2.7801	-34.376211	0.000416	4.155289	1.407850	0.000166
  72	7.0645e+00	2.8251	-34.158205	0.000547	5.472820	1.854242	0.000219
  73	7.1640e+00	2.8571	-33.972497	0.000466	4.662032	1.579539	0.000187
  74	7.2635e+00	2.8956	-33.770640	0.000507	5.067426	1.716890	0.000203
  75	7.3630e+00	2.9406	-33.605118	0.000416	4.155289	1.407850	0.000166
  76	7.4625e+00	2.9839	-33.427484	0.000446	4.459335	1.510864	0.000179
  77	7.5620e+00	3.0192	-33.249850	0.000446	4.459335	1.510864	0.000179
  78	7.6615e+00	3.0593	-33.043956	0.000517	5.168774	1.751228	0.000207
  79	7.7610e+00	3.0994	-32.829988	0.000537	5.371471	1.819904	0.000215
  80	7.8605e+00	3.1411	-32.636205	0.000486	4.864729	1.648215	0.000195
  81	7.9600e+00	3.1812	-32.450497	0.000466	4.662032	1.579539	0.000187
  82	8.0595e+00	3.2229	-32.276900	0.000436	4.357986	1.476526	0.000174
  83	8.1590e+00	3.2534	-32.014486	0.000659	6.587654	2.231957	0.000264
  84	8.2585e+00	3.2983	-31.865112	0.000375	3.749895	1.270499	0.000150
  85	8.3580e+00	3.3368	-31.711701	0.000385	3.851244	1.304837	0.000154
  86	8.4575e+00	3.3833	-31.525993	0.000466	4.662032	1.579539	0.000187
  87	8.5570e+00	3.4010	-31.336248	0.000476	4.763380	1.613877	0.000191
  88	8.6565e+00	3.4603	-31.118242	0.000547	5.472820	1.854242	0.000219
  89	8.7560e+00	3.5036	-30.888126	0.000578	5.776865	1.957255	0.000231
  90	8.8555e+00	3.5421	-30.734714	0.000385	3.851244	1.304837	0.000154
  91	8.9550e+00	3.5758	-30.516709	0.000547	5.472820	1.854242	0.000219
  92	9.0545e+00	3.6256	-30.326964	0.000476	4.763380	1.613877	0.000191
  93	9.1540e+00	3.6625	-30.165478	0.000405	4.053941	1.373512	0.000162
  94	9.2535e+00	3.6817	-29.967659	0.000497	4.966077	1.682553	0.000199
  95	9.3530e+00	3.7379	-29.790025	0.000446	4.459335	1.510864	0.000179
  96	9.4525e+00	3.7683	-29.604316	0.000466	4.662032	1.579539	0.000187
  97	9.5520e+00	3.8084	-29.406497	0.000497	4.966077	1.682553	0.000199
  98	9.6515e+00	3.8550	-29.184454	0.000557	5.574168	1.888579	0.000223
  99	9.7510e+00	3.8887	-28.970486	0.000537	5.371471	1.819904	0.000215
 100	9.8505e+00	3.9416	-28.796889	0.000436	4.357986	1.476526	0.000174
 101	9.9500e+00	3.9769	-28.599070	0.000497	4.966077	1.682553	0.000199
 102	1.0050e+01	4.0106	-28.441621	0.000395	3.952592	1.339174	0.000158
 103	1.0149e+01	4.0459	-28.239764	0.000507	5.067426	1.716890	0.000203
 104	1.0248e+01	4.0956	-28.029833	0.000527	5.270123	1.785566	0.000211
 105	1.0348e+01	4.1453	-27.840088	0.000476	4.763380	1.613877	0.000191
 106	1.0447e+01	4.1726	-27.670528	0.000426	4.256638	1.442188	0.000170
 107	1.0547e+01	4.2159	-27.484820	0.000466	4.662032	1.579539	0.000187
 108	1.0646e+01	4.2608	-27.291038	0.000486	4.864729	1.648215	0.000195
 109	1.0746e+01	4.2961	-27.073032	0.000547	5.472820	1.854242	0.000219
 110	1.0845e+01	4.3298	-26.895398	0.000446	4.459335	1.510864	0.000179
 111	1.0945e+01	4.3683	-26.693541	0.000507	5.067426	1.716890	0.000203
 112	1.1044e+01	4.4148	-26.475536	0.000547	5.472820	1.854242	0.000219
 113	1.1144e+01	4.4598	-26.305976	0.000426	4.256638	1.442188	0.000170
 114	1.1243e+01	4.4951	-26.136417	0.000426	4.256638	1.442188	0.000170
 115	1.1343e+01	4.5400	-25.910337	0.000568	5.675517	1.922917	0.000227
 116	1.1443e+01	4.5705	-25.712518	0.000497	4.966077	1.682553	0.000199
 117	1.1542e+01	4.6154	-25.514698	0.000497	4.966077	1.682553	0.000199
 118	1.1642e+01	4.6475	-25.373398	0.000355	3.547198	1.201823	0.000142
 119	1.1741e+01	4.6924	-25.135207	0.000598	5.979562	2.025931	0.000239
 120	1.1841e+01	4.7341	-24.981796	0.000385	3.851244	1.304837	0.000154
 121	1.1940e+01	4.7678	-24.792051	0.000476	4.763380	1.613877	0.000191
 122	1.2040e+01	4.8127	-24.578082	0.000537	5.371471	1.819904	0.000215
 123	1.2139e+01	4.8416	-24.392374	0.000466	4.662032	1.579539	0.000187
 124	1.2239e+01	4.8929	-24.243000	0.000375	3.749895	1.270499	0.000150
 125	1.2338e+01	4.9314	-24.061329	0.000456	4.560683	1.545201	0.000183
 126	1.2438e+01	4.9715	-23.819101	0.000608	6.080911	2.060268	0.000243
 127	1.2537e+01	5.0100	-23.633393	0.000466	4.662032	1.579539	0.000187
 128	1.2636e+01	5.0598	-23.427499	0.000517	5.168774	1.751228	0.000207
 129	1.2736e+01	5.0870	-23.282162	0.000365	3.648547	1.236161	0.000146
 130	1.2835e+01	5.1239	-23.027822	0.000638	6.384957	2.163282	0.000256
 131	1.2935e+01	5.1704	-22.886522	0.000355	3.547198	1.201823	0.000142
 132	1.3034e+01	5.2057	-22.680629	0.000517	5.168774	1.751228	0.000207
 133	1.3134e+01	5.2474	-22.474735	0.000517	5.168774	1.751228	0.000207
 134	1.3233e+01	5.2859	-22.309212	0.000416	4.155289	1.407850	0.000166
 135	1.3333e+01	5.3357	-22.159838	0.000375	3.749895	1.270499	0.000150
 136	1.3432e+01	5.3710	-21.913573	0.000618	6.182260	2.094606	0.000248
 137	1.3532e+01	5.4095	-21.744013	0.000426	4.256638	1.442188	0.000170
 138	1.3632e+01	5.4480	-21.578491	0.000416	4.155289	1.407850	0.000166
 139	1.3731e+01	5.4849	-21.380671	0.000497	4.966077	1.682553	0.000199
 140	1.3831e+01	5.5250	-21.166703	0.000537	5.371471	1.819904	0.000215
 141	1.3930e+01	5.5827	-21.001180	0.000416	4.155289	1.407850	0.000166
 142	1.4030e+01	5.6068	-20.799323	0.000507	5.067426	1.716890	0.000203
 143	1.4129e+01	5.6501	-20.621689	0.000446	4.459335	1.510864	0.000179
 144	1.4229e+01	5.6806	-20.415795	0.000517	5.168774	1.751228	0.000207
 145	1.4328e+01	5.7335	-20.246236	0.000426	4.256638	1.442188	0.000170
 146	1.4428e+01	5.7592	-20.060527	0.000466	4.662032	1.579539	0.000187
 147	1.4527e+01	5.8009	-19.886931	0.000436	4.357986	1.476526	0.000174
 148	1.4627e+01	5.8490	-19.713334	0.000436	4.357986	1.476526	0.000174
 149	1.4726e+01	5.9036	-19.495328	0.000547	5.472820	1.854242	0.000219
 150	1.4825e+01	5.9389	-19.337880	0.000395	3.952592	1.339174	0.000158
 151	1.4925e+01	5.9694	-19.111801	0.000568	5.675517	1.922917	0.000227
 152	1.5024e+01	6.0127	-18.954352	0.000395	3.952592	1.339174	0.000158
 153	1.5124e+01	6.0464	-18.728273	0.000568	5.675517	1.922917	0.000227
 154	1.5223e+01	6.0993	-18.570824	0.000395	3.952592	1.339174	0.000158
 155	1.5323e+01	6.1234	-18.389153	0.000456	4.560683	1.545201	0.000183
 156	1.5422e+01	6.1763	-18.183259	0.000517	5.168774	1.751228	0.000207
 157	1.5522e+01	6.2100	-18.009663	0.000436	4.357986	1.476526	0.000174
 158	1.5621e+01	6.2421	-17.819917	0.000476	4.763380	1.613877	0.000191
 159	1.5721e+01	6.2870	-17.658432	0.000405	4.053941	1.373512	0.000162
 160	1.5820e+01	6.3271	-17.488872	0.000426	4.256638	1.442188	0.000170
 161	1.5920e+01	6.3704	-17.266830	0.000557	5.574168	1.888579	0.000223
 162	1.6020e+01	6.4025	-17.085158	0.000456	4.560683	1.545201	0.000183
 163	1.6119e+01	6.4458	-16.871190	0.000537	5.371471	1.819904	0.000215
 164	1.6218e+01	6.4827	-16.737965	0.000334	3.344501	1.133148	0.000134
 165	1.6318e+01	6.5244	-16.540145	0.000497	4.966077	1.682553	0.000199
 166	1.6418e+01	6.5613	-16.318103	0.000557	5.574168	1.888579	0.000223
 167	1.6517e+01	6.6110	-16.156617	0.000405	4.053941	1.373512	0.000162
 168	1.6616e+01	6.6495	-15.978983	0.000446	4.459335	1.510864	0.000179
 169	1.6716e+01	6.6800	-15.748867	0.000578	5.776865	1.957255	0.000231
 170	1.6816e+01	6.7282	-15.595455	0.000385	3.851244	1.304837	0.000154
 171	1.6915e+01	6.7650	-15.454156	0.000355	3.547198	1.201823	0.000142
 172	1.7015e+01	6.8068	-15.236150	0.000547	5.472820	1.854242	0.000219
 173	1.7114e+01	6.8372	-15.098888	0.000345	3.445850	1.167485	0.000138
 174	1.7213e+01	6.8838	-14.892994	0.000517	5.168774	1.751228	0.000207
 175	1.7313e+01	6.9191	-14.691137	0.000507	5.067426	1.716890	0.000203
 176	1.7413e+01	6.9688	-14.501392	0.000476	4.763380	1.613877	0.000191
 177	1.7512e+01	6.9977	-14.307609	0.000486	4.864729	1.648215	0.000195
 178	1.7611e+01	7.0394	-14.154198	0.000385	3.851244	1.304837	0.000154
 179	1.7711e+01	7.0875	-13.960415	0.000486	4.864729	1.648215	0.000195
 180	1.7811e+01	7.1244	-13.782781	0.000446	4.459335	1.510864	0.000179
 181	1.7910e+01	7.1629	-13.588999	0.000486	4.864729	1.648215	0.000195
 182	1.8009e+01	7.2030	-13.379068	0.000527	5.270123	1.785566	0.000211
 183	1.8109e+01	7.2431	-13.249879	0.000324	3.243153	1.098810	0.000130
 184	1.8209e+01	7.2864	-13.076283	0.000436	4.357986	1.476526	0.000174
 185	1.8308e+01	7.3249	-12.878463	0.000497	4.966077	1.682553	0.000199
 186	1.8407e+01	7.3602	-12.680643	0.000497	4.966077	1.682553	0.000199
 187	1.8507e+01	7.4051	-12.527232	0.000385	3.851244	1.304837	0.000154
 188	1.8607e+01	7.4276	-12.353635	0.000436	4.357986	1.476526	0.000174
 189	1.8706e+01	7.4837	-12.123519	0.000578	5.776865	1.957255	0.000231
 190	1.8805e+01	7.5174	-12.002405	0.000304	3.040456	1.030134	0.000122
 191	1.8905e+01	7.5559	-11.824771	0.000446	4.459335	1.510864	0.000179
 192	1.9005e+01	7.5993	-11.614840	0.000527	5.270123	1.785566	0.000211
 193	1.9104e+01	7.6442	-11.469503	0.000365	3.648547	1.236161	0.000146
 194	1.9203e+01	7.6795	-11.231312	0.000598	5.979562	2.025931	0.000239
 195	1.9303e+01	7.7164	-11.077900	0.000385	3.851244	1.304837	0.000154
 196	1.9402e+01	7.7533	-10.916415	0.000405	4.053941	1.373512	0.000162
 197	1.9502e+01	7.7869	-10.698410	0.000547	5.472820	1.854242	0.000219
 198	1.9602e+01	7.8351	-10.500590	0.000497	4.966077	1.682553	0.000199
 199	1.9701e+01	7.8736	-10.367365	0.000334	3.344501	1.133148	0.000134
 200	1.9800e+01	7.9201	-10.217991	0.000375	3.749895	1.270499	0.000150
 201	1.9900e+01	7.9586	-10.008059	0.000527	5.270123	1.785566	0.000211
 202	2.0000e+01	8.0035	-9.798128	0.000527	5.270123	1.785566	0.000211
 203	2.0099e+01	8.0436	-9.644717	0.000385	3.851244	1.304837	0.000154
 204	2.0198e+01	8.0757	-9.499380	0.000365	3.648547	1.236161	0.000146
 205	2.0298e+01	8.1142	-9.309635	0.000476	4.763380	1.613877	0.000191
 206	2.0398e+01	8.1511	-9.140075	0.000426	4.256638	1.442188	0.000170
 207	2.0497e+01	8.2008	-8.958404	0.000456	4.560683	1.545201	0.000183
 208	2.0596e+01	8.2249	-8.776733	0.000456	4.560683	1.545201	0.000183
 209	2.0696e+01	8.2794	-8.607173	0.000426	4.256638	1.442188	0.000170
 210	2.0796e+01	8.3212	-8.405317	0.000507	5.067426	1.716890	0.000203
 211	2.0895e+01	8.3564	-8.259980	0.000365	3.648547	1.236161	0.000146
 212	2.0994e+01	8.3950	-8.106569	0.000385	3.851244	1.304837	0.000154
 213	2.1094e+01	8.4383	-7.928935	0.000446	4.459335	1.510864	0.000179
 214	2.1194e+01	8.4768	-7.775523	0.000385	3.851244	1.304837	0.000154
 215	2.1293e+01	8.5169	-7.581741	0.000486	4.864729	1.648215	0.000195
 216	2.1392e+01	8.5538	-7.396033	0.000466	4.662032	1.579539	0.000187
 217	2.1492e+01	8.5842	-7.238584	0.000395	3.952592	1.339174	0.000158
 218	2.1591e+01	8.6388	-7.069025	0.000426	4.256638	1.442188	0.000170
 219	2.1691e+01	8.6757	-6.895428	0.000436	4.357986	1.476526	0.000174
 220	2.1791e+01	8.7126	-6.693571	0.000507	5.067426	1.716890	0.000203
 221	2.1890e+01	8.7527	-6.528048	0.000416	4.155289	1.407850	0.000166
 222	2.1989e+01	8.7944	-6.362526	0.000416	4.155289	1.407850	0.000166
 223	2.2089e+01	8.8329	-6.184892	0.000446	4.459335	1.510864	0.000179
 224	2.2189e+01	8.8794	-6.031481	0.000385	3.851244	1.304837	0.000154
 225	2.2288e+01	8.9227	-5.861921	0.000426	4.256638	1.442188	0.000170
 226	2.2387e+01	8.9516	-5.660064	0.000507	5.067426	1.716890	0.000203
 227	2.2487e+01	8.9901	-5.474356	0.000466	4.662032	1.579539	0.000187
 228	2.2587e+01	9.0366	-5.333056	0.000355	3.547198	1.201823	0.000142
 229	2.2686e+01	9.0751	-5.151385	0.000456	4.560683	1.545201	0.000183
 230	2.2785e+01	9.1153	-4.969714	0.000456	4.560683	1.545201	0.000183
 231	2.2885e+01	9.1489	-4.796117	0.000436	4.357986	1.476526	0.000174
 232	2.2985e+01	9.1874	-4.654818	0.000355	3.547198	1.201823	0.000142
 233	2.3084e+01	9.2388	-4.424701	0.000578	5.776865	1.957255	0.000231
 234	2.3183e+01	9.2725	-4.287438	0.000345	3.445850	1.167485	0.000138
 235	2.3283e+01	9.3126	-4.109804	0.000446	4.459335	1.510864	0.000179
 236	2.3383e+01	9.3527	-3.984653	0.000314	3.141804	1.064472	0.000126
 237	2.3482e+01	9.3976	-3.762611	0.000557	5.574168	1.888579	0.000223
 238	2.3581e+01	9.4281	-3.625348	0.000345	3.445850	1.167485	0.000138
 239	2.3681e+01	9.4698	-3.451751	0.000436	4.357986	1.476526	0.000174
 240	2.3780e+01	9.5147	-3.310451	0.000355	3.547198	1.201823	0.000142
 241	2.3880e+01	9.5516	-3.100520	0.000527	5.270123	1.785566	0.000211
 242	2.3980e+01	9.5901	-2.951146	0.000375	3.749895	1.270499	0.000150
 243	2.4079e+01	9.6334	-2.797735	0.000385	3.851244	1.304837	0.000154
 244	2.4178e+01	9.6767	-2.640287	0.000395	3.952592	1.339174	0.000158
 245	2.4278e+01	9.7072	-2.462653	0.000446	4.459335	1.510864	0.000179
 246	2.4378e+01	9.7457	-2.305205	0.000395	3.952592	1.339174	0.000158
 247	2.4477e+01	9.7874	-2.131608	0.000436	4.357986	1.476526	0.000174
 248	2.4576e+01	9.8356	-1.945899	0.000466	4.662032	1.579539	0.000187
 249	2.4676e+01	9.8773	-1.796525	0.000375	3.749895	1.270499	0.000150
 250	2.4776e+01	9.9126	-1.631003	0.000416	4.155289	1.407850	0.000166
 251	2.4875e+01	9.9446	-1.453369	0.000446	4.459335	1.510864	0.000179
 252	2.4974e+01	9.9944	-1.328218	0.000314	3.141804	1.064472	0.000126
 253	2.5074e+01	10.0313	-1.174806	0.000385	3.851244	1.304837	0.000154
 254	2.5174e+01	10.0810	-0.952764	0.000557	5.574168	1.888579	0.000223
 255	2.5273e+01	10.1083	-0.815501	0.000345	3.445850	1.167485	0.000138
 256	2.5372e+01	10.1580	-0.658053	0.000395	3.952592	1.339174	0.000158
 257	2.5472e+01	10.1949	-0.512716	0.000365	3.648547	1.236161	0.000146
 258	2.5572e+01	10.2318	-0.327008	0.000466	4.662032	1.579539	0.000187
 259	2.5671e+01	10.2767	-0.153411	0.000436	4.357986	1.476526	0.000174
 260	2.5770e+01	10.3088	0.040371	0.000486	4.864729	1.648215	0.000195
 261	2.5870e+01	10.3473	0.169560	0.000324	3.243153	1.098810	0.000130
 262	2.5970e+01	10.3906	0.343157	0.000436	4.357986	1.476526	0.000174
 263	2.6069e+01	10.4243	0.532902	0.000476	4.763380	1.613877	0.000191
 264	2.6169e+01	10.4772	0.702462	0.000426	4.256638	1.442188	0.000170
 265	2.6268e+01	10.5029	0.819539	0.000294	2.939107	0.995796	0.000118
 266	2.6367e+01	10.5462	1.029470	0.000527	5.270123	1.785566	0.000211
 267	2.6467e+01	10.5960	1.207104	0.000446	4.459335	1.510864	0.000179
 268	2.6567e+01	10.6280	1.328218	0.000304	3.040456	1.030134	0.000122
 269	2.6666e+01	10.6714	1.473555	0.000365	3.648547	1.236161	0.000146
 270	2.6765e+01	10.7147	1.659263	0.000466	4.662032	1.579539	0.000187
 271	2.6865e+01	10.7468	1.804600	0.000365	3.648547	1.236161	0.000146
 272	2.6965e+01	10.7804	1.974159	0.000426	4.256638	1.442188	0.000170
 273	2.7064e+01	10.8270	2.131608	0.000395	3.952592	1.339174	0.000158
 274	2.7163e+01	10.8687	2.325390	0.000486	4.864729	1.648215	0.000195
 275	2.7263e+01	10.9120	2.474764	0.000375	3.749895	1.270499	0.000150
 276	2.7363e+01	10.9425	2.636250	0.000405	4.053941	1.373512	0.000162
 277	2.7462e+01	10.9890	2.785624	0.000375	3.749895	1.270499	0.000150
 278	2.7561e+01	11.0355	2.955183	0.000426	4.256638	1.442188	0.000170
 279	2.7661e+01	11.0628	3.112632	0.000395	3.952592	1.339174	0.000158
 280	2.7761e+01	11.1061	3.266043	0.000385	3.851244	1.304837	0.000154
 281	2.7860e+01	11.1398	3.480011	0.000537	5.371471	1.819904	0.000215
 282	2.7959e+01	11.1751	3.601125	0.000304	3.040456	1.030134	0.000122
 283	2.8059e+01	11.2264	3.746462	0.000365	3.648547	1.236161	0.000146
 284	2.8159e+01	11.2745	3.928133	0.000456	4.560683	1.545201	0.000183
 285	2.8258e+01	11.3082	4.077507	0.000375	3.749895	1.270499	0.000150
 286	2.8358e+01	11.3516	4.243030	0.000416	4.155289	1.407850	0.000166
 287	2.8457e+01	11.3820	4.400478	0.000395	3.952592	1.339174	0.000158
 288	2.8556e+01	11.4221	4.594260	0.000486	4.864729	1.648215	0.000195
 289	2.8656e+01	11.4671	4.719412	0.000314	3.141804	1.064472	0.000126
 290	2.8756e+01	11.4991	4.949528	0.000578	5.776865	1.957255	0.000231
 291	2.8855e+01	11.5457	5.066605	0.000294	2.939107	0.995796	0.000118
 292	2.8954e+01	11.5858	5.228091	0.000405	4.053941	1.373512	0.000162
 293	2.9054e+01	11.6275	5.393613	0.000416	4.155289	1.407850	0.000166
 294	2.9154e+01	11.6660	5.534913	0.000355	3.547198	1.201823	0.000142
 295	2.9253e+01	11.7093	5.740807	0.000517	5.168774	1.751228	0.000207
 296	2.9352e+01	11.7398	5.902292	0.000405	4.053941	1.373512	0.000162
 297	2.9452e+01	11.7831	6.071852	0.000426	4.256638	1.442188	0.000170
 298	2.9552e+01	11.8248	6.172781	0.000253	2.533713	0.858445	0.000101
 299	2.9651e+01	11.8713	6.330229	0.000395	3.952592	1.339174	0.000158
 300	2.9750e+01	11.9098	6.528048	0.000497	4.966077	1.682553	0.000199
 301	2.9850e+01	11.9403	6.693571	0.000416	4.155289	1.407850	0.000166
 302	2.9950e+01	11.9884	6.863131	0.000426	4.256638	1.442188	0.000170
 303	3.0049e+01	12.0350	7.024616	0.000405	4.053941	1.373512	0.000162
 304	3.0148e+01	12.0622	7.178027	0.000385	3.851244	1.304837	0.000154
 305	3.0248e+01	12.0991	7.359698	0.000456	4.560683	1.545201	0.000183
 306	3.0348e+01	12.1505	7.484850	0.000314	3.141804	1.064472	0.000126
 307	3.0447e+01	12.1858	7.674595	0.000476	4.763380	1.613877	0.000191
 308	3.0547e+01	12.2226	7.832043	0.000395	3.952592	1.339174	0.000158
 309	3.0646e+01	12.2724	8.017752	0.000466	4.662032	1.579539	0.000187
 310	3.0745e+01	12.3029	8.155014	0.000345	3.445850	1.167485	0.000138
 311	3.0845e+01	12.3430	8.312462	0.000395	3.952592	1.339174	0.000158
 312	3.0945e+01	12.3751	8.510282	0.000497	4.966077	1.682553	0.000199
 313	3.1044e+01	12.4216	8.655619	0.000365	3.648547	1.236161	0.000146
 314	3.1143e+01	12.4633	8.784807	0.000324	3.243153	1.098810	0.000130
 315	3.1243e+01	12.4954	8.934181	0.000375	3.749895	1.270499	0.000150
 316	3.1343e+01	12.5467	9.132001	0.000497	4.966077	1.682553	0.000199
 317	3.1442e+01	12.5900	9.277338	0.000365	3.648547	1.236161	0.000146
 318	3.1541e+01	12.6205	9.471120	0.000486	4.864729	1.648215	0.000195
 319	3.1641e+01	12.6638	9.624532	0.000385	3.851244	1.304837	0.000154
 320	3.1741e+01	12.7023	9.806203	0.000456	4.560683	1.545201	0.000183
 321	3.1840e+01	12.7392	9.975762	0.000426	4.256638	1.442188	0.000170
 322	3.1939e+01	12.7809	10.125136	0.000375	3.749895	1.270499	0.000150
 323	3.2039e+01	12.8226	10.306808	0.000456	4.560683	1.545201	0.000183
 324	3.2139e+01	12.8676	10.411773	0.000264	2.635061	0.892783	0.000105
 325	3.2238e+01	12.8948	10.621704	0.000527	5.270123	1.785566	0.000211
 326	3.2337e+01	12.9349	10.791264	0.000426	4.256638	1.442188	0.000170
 327	3.2437e+01	12.9766	10.944675	0.000385	3.851244	1.304837	0.000154
 328	3.2536e+01	13.0232	11.142495	0.000497	4.966077	1.682553	0.000199
 329	3.2636e+01	13.0520	11.255534	0.000284	2.837758	0.961459	0.000114
 330	3.2736e+01	13.1034	11.445280	0.000476	4.763380	1.613877	0.000191
 331	3.2835e+01	13.1451	11.639062	0.000486	4.864729	1.648215	0.000195
 332	3.2934e+01	13.1756	11.772288	0.000334	3.344501	1.133148	0.000134
 333	3.3034e+01	13.2221	11.962033	0.000476	4.763380	1.613877	0.000191
 334	3.3133e+01	13.2622	12.115444	0.000385	3.851244	1.304837	0.000154
 335	3.3233e+01	13.3007	12.268856	0.000385	3.851244	1.304837	0.000154
 336	3.3333e+01	13.3360	12.454564	0.000466	4.662032	1.579539	0.000187
 337	3.3432e+01	13.3761	12.620086	0.000416	4.155289	1.407850	0.000166
 338	3.3532e+01	13.4210	12.801757	0.000456	4.560683	1.545201	0.000183
 339	3.3631e+01	13.4595	12.959206	0.000395	3.952592	1.339174	0.000158
 340	3.3730e+01	13.4964	13.140877	0.000456	4.560683	1.545201	0.000183
 341	3.3830e+01	13.5365	13.286214	0.000365	3.648547	1.236161	0.000146
 342	3.3929e+01	13.5830	13.443662	0.000395	3.952592	1.339174	0.000158
 343	3.4029e+01	13.6231	13.657630	0.000537	5.371471	1.819904	0.000215
 344	3.4129e+01	13.6536	13.823153	0.000416	4.155289	1.407850	0.000166
 345	3.4228e+01	13.7001	13.976564	0.000385	3.851244	1.304837	0.000154
 346	3.4328e+01	13.7370	14.117864	0.000355	3.547198	1.201823	0.000142
 347	3.4427e+01	13.7868	14.311646	0.000486	4.864729	1.648215	0.000195
 348	3.4526e+01	13.8189	14.469094	0.000395	3.952592	1.339174	0.000158
 349	3.4626e+01	13.8606	14.638654	0.000426	4.256638	1.442188	0.000170
 350	3.4725e+01	13.9007	14.796102	0.000395	3.952592	1.339174	0.000158
 351	3.4825e+01	13.9392	15.001996	0.000517	5.168774	1.751228	0.000207
 352	3.4925e+01	13.9665	15.195779	0.000486	4.864729	1.648215	0.000195
 353	3.5024e+01	14.0162	15.349190	0.000385	3.851244	1.304837	0.000154
 354	3.5123e+01	14.0467	15.494527	0.000365	3.648547	1.236161	0.000146
 355	3.5223e+01	14.0964	15.647938	0.000385	3.851244	1.304837	0.000154
 356	3.5322e+01	14.1285	15.849795	0.000507	5.067426	1.716890	0.000203
 357	3.5422e+01	14.1686	15.983020	0.000334	3.344501	1.133148	0.000134
 358	3.5522e+01	14.2135	16.180840	0.000497	4.966077	1.682553	0.000199
 359	3.5621e+01	14.2552	16.354437	0.000436	4.357986	1.476526	0.000174
 360	3.5721e+01	14.2889	16.540145	0.000466	4.662032	1.579539	0.000187
 361	3.5820e+01	14.3450	16.705668	0.000416	4.155289	1.407850	0.000166
 362	3.5919e+01	14.3707	16.855042	0.000375	3.749895	1.270499	0.000150
 363	3.6019e+01	14.4140	17.020564	0.000416	4.155289	1.407850	0.000166
 364	3.6118e+01	14.4493	17.230495	0.000527	5.270123	1.785566	0.000211
 365	3.6218e+01	14.4878	17.383906	0.000385	3.851244	1.304837	0.000154
 366	3.6318e+01	14.5360	17.541355	0.000395	3.952592	1.339174	0.000158
 367	3.6417e+01	14.5793	17.698803	0.000395	3.952592	1.339174	0.000158
 368	3.6517e+01	14.6162	17.904697	0.000517	5.168774	1.751228	0.000207
 369	3.6616e+01	14.6595	18.070220	0.000416	4.155289	1.407850	0.000166
 370	3.6715e+01	14.6932	18.223631	0.000385	3.851244	1.304837	0.000154
 371	3.6815e+01	14.7285	18.413376	0.000476	4.763380	1.613877	0.000191
 372	3.6914e+01	14.7814	18.611196	0.000497	4.966077	1.682553	0.000199
 373	3.7014e+01	14.8103	18.768644	0.000395	3.952592	1.339174	0.000158
 374	3.7114e+01	14.8568	18.922055	0.000385	3.851244	1.304837	0.000154
 375	3.7213e+01	14.8937	19.131986	0.000527	5.270123	1.785566	0.000211
 376	3.7313e+01	14.9290	19.309620	0.000446	4.459335	1.510864	0.000179
 377	3.7412e+01	14.9707	19.491291	0.000456	4.560683	1.545201	0.000183
 378	3.7511e+01	15.0092	19.664888	0.000436	4.357986	1.476526	0.000174
 379	3.7611e+01	15.0493	19.862708	0.000497	4.966077	1.682553	0.000199
 380	3.7711e+01	15.0846	20.028230	0.000416	4.155289	1.407850	0.000166
 381	3.7810e+01	15.1183	20.153382	0.000314	3.141804	1.064472	0.000126
 382	3.7910e+01	15.1648	20.371387	0.000547	5.472820	1.854242	0.000219
 383	3.8009e+01	15.2049	20.549021	0.000446	4.459335	1.510864	0.000179
 384	3.8108e+01	15.2466	20.678209	0.000324	3.243153	1.098810	0.000130
 385	3.8208e+01	15.2867	20.876029	0.000497	4.966077	1.682553	0.000199
 386	3.8307e+01	15.3236	21.061737	0.000466	4.662032	1.579539	0.000187
 387	3.8407e+01	15.3702	21.235334	0.000436	4.357986	1.476526	0.000174
 388	3.8507e+01	15.4167	21.441228	0.000517	5.168774	1.751228	0.000207
 389	3.8606e+01	15.4520	21.622899	0.000456	4.560683	1.545201	0.000183
 390	3.8706e+01	15.4905	21.808607	0.000466	4.662032	1.579539	0.000187
 391	3.8805e+01	15.5386	21.978167	0.000426	4.256638	1.442188	0.000170
 392	3.8904e+01	15.5611	22.159838	0.000456	4.560683	1.545201	0.000183
 393	3.9004e+01	15.6044	22.337472	0.000446	4.459335	1.510864	0.000179
 394	3.9103e+01	15.6509	22.527217	0.000476	4.763380	1.613877	0.000191
 395	3.9203e+01	15.6846	22.676591	0.000375	3.749895	1.270499	0.000150
 396	3.9303e+01	15.7327	22.838077	0.000405	4.053941	1.373512	0.000162
 397	3.9402e+01	15.7712	23.052045	0.000537	5.371471	1.819904	0.000215
 398	3.9502e+01	15.8049	23.237753	0.000466	4.662032	1.579539	0.000187
 399	3.9601e+01	15.8546	23.431536	0.000486	4.864729	1.648215	0.000195
 400	3.9700e+01	15.8899	23.633393	0.000507	5.067426	1.716890	0.000203
 401	3.9800e+01	15.9284	23.786804	0.000385	3.851244	1.304837	0.000154
 402	3.9900e+01	15.9733	23.964438	0.000446	4.459335	1.510864	0.000179
 403	3.9999e+01	16.0135	24.154183	0.000476	4.763380	1.613877	0.000191
 404	4.0099e+01	16.0536	24.339891	0.000466	4.662032	1.579539	0.000187
 405	4.0198e+01	16.0969	24.529637	0.000476	4.763380	1.613877	0.000191
 406	4.0297e+01	16.1241	24.699196	0.000426	4.256638	1.442188	0.000170
 407	4.0397e+01	16.1691	24.905090	0.000517	5.168774	1.751228	0.000207
 408	4.0496e+01	16.2011	25.070613	0.000416	4.155289	1.407850	0.000166
 409	4.0596e+01	16.2509	25.260358	0.000476	4.763380	1.613877	0.000191
 410	4.0696e+01	16.2878	25.466252	0.000517	5.168774	1.751228	0.000207
 411	4.0795e+01	16.3247	25.619663	0.000385	3.851244	1.304837	0.000154
 412	4.0895e+01	16.3728	25.813446	0.000486	4.864729	1.648215	0.000195
 413	4.0994e+01	16.4081	25.978968	0.000416	4.155289	1.407850	0.000166
 414	4.1093e+01	16.4530	26.184862	0.000517	5.168774	1.751228	0.000207
 415	4.1193e+01	16.4835	26.394793	0.000527	5.270123	1.785566	0.000211
 416	4.1292e+01	16.5236	26.556279	0.000405	4.053941	1.373512	0.000162
 417	4.1392e+01	16.5637	26.717764	0.000405	4.053941	1.373512	0.000162
 418	4.1492e+01	16.6086	26.947881	0.000578	5.776865	1.957255	0.000231
 419	4.1591e+01	16.6471	27.109366	0.000405	4.053941	1.373512	0.000162
 420	4.1691e+01	16.6808	27.343520	0.000588	5.878214	1.991593	0.000235
 421	4.1790e+01	16.7145	27.484820	0.000355	3.547198	1.201823	0.000142
 422	4.1889e+01	16.7658	27.670528	0.000466	4.662032	1.579539	0.000187
 423	4.1989e+01	16.7995	27.872385	0.000507	5.067426	1.716890	0.000203
 424	4.2089e+01	16.8428	28.070205	0.000497	4.966077	1.682553	0.000199
 425	4.2188e+01	16.8781	28.255913	0.000466	4.662032	1.579539	0.000187
 426	4.2288e+01	16.9295	28.417398	0.000405	4.053941	1.373512	0.000162
 427	4.2387e+01	16.9583	28.615218	0.000497	4.966077	1.682553	0.000199
 428	4.2486e+01	16.9985	28.845335	0.000578	5.776865	1.957255	0.000231
 429	4.2586e+01	17.0466	29.006820	0.000405	4.053941	1.373512	0.000162
 430	4.2685e+01	17.0803	29.220788	0.000537	5.371471	1.819904	0.000215
 431	4.2785e+01	17.1268	29.430720	0.000527	5.270123	1.785566	0.000211
 432	4.2885e+01	17.1637	29.572019	0.000355	3.547198	1.201823	0.000142
 433	4.2984e+01	17.1974	29.749653	0.000446	4.459335	1.510864	0.000179
 434	4.3084e+01	17.2471	29.963621	0.000537	5.371471	1.819904	0.000215
 435	4.3183e+01	17.2776	30.149330	0.000466	4.662032	1.579539	0.000187
 436	4.3282e+01	17.3209	30.339075	0.000476	4.763380	1.613877	0.000191
 437	4.3382e+01	17.3642	30.557080	0.000547	5.472820	1.854242	0.000219
 438	4.3481e+01	17.4027	30.730677	0.000436	4.357986	1.476526	0.000174
 439	4.3581e+01	17.4476	30.956757	0.000568	5.675517	1.922917	0.000227
 440	4.3681e+01	17.4829	31.138428	0.000456	4.560683	1.545201	0.000183
 441	4.3780e+01	17.5198	31.352396	0.000537	5.371471	1.819904	0.000215
 442	4.3880e+01	17.5599	31.513882	0.000405	4.053941	1.373512	0.000162
 443	4.3979e+01	17.5952	31.711701	0.000497	4.966077	1.682553	0.000199
 444	4.4078e+01	17.6434	31.913558	0.000507	5.067426	1.716890	0.000203
 445	4.4178e+01	17.6770	32.091192	0.000446	4.459335	1.510864	0.000179
 446	4.4278e+01	17.7236	32.313234	0.000557	5.574168	1.888579	0.000223
 447	4.4377e+01	17.7717	32.494906	0.000456	4.560683	1.545201	0.000183
 448	4.4477e+01	17.8038	32.708874	0.000537	5.371471	1.819904	0.000215
 449	4.4576e+01	17.8375	32.959176	0.000628	6.283608	2.128944	0.000252
 450	4.4675e+01	17.8824	33.152959	0.000486	4.864729	1.648215	0.000195
 451	4.4775e+01	17.9241	33.375001	0.000557	5.574168	1.888579	0.000223
 452	4.4874e+01	17.9578	33.605118	0.000578	5.776865	1.957255	0.000231
 453	4.4974e+01	17.9947	33.827160	0.000557	5.574168	1.888579	0.000223
 454	4.5074e+01	18.0348	34.069388	0.000608	6.080911	2.060268	0.000243
 455	4.5173e+01	18.0781	34.295468	0.000568	5.675517	1.922917	0.000227
 456	4.5273e+01	18.1150	34.565956	0.000679	6.790351	2.300633	0.000272
 457	4.5372e+01	18.1599	34.836444	0.000679	6.790351	2.300633	0.000272
 458	4.5471e+01	18.1968	35.066561	0.000578	5.776865	1.957255	0.000231
 459	4.5571e+01	18.2401	35.353198	0.000720	7.195745	2.437984	0.000288
 460	4.5670e+01	18.2802	35.571203	0.000547	5.472820	1.854242	0.000219
 461	4.5770e+01	18.3171	35.857840	0.000720	7.195745	2.437984	0.000288
 462	4.5870e+01	18.3588	36.112179	0.000638	6.384957	2.163282	0.000256
 463	4.5969e+01	18.4022	36.382667	0.000679	6.790351	2.300633	0.000272
 464	4.6069e+01	18.4407	36.637007	0.000638	6.384957	2.163282	0.000256
 465	4.6168e+01	18.4792	36.911532	0.000689	6.891699	2.334971	0.000276
 466	4.6267e+01	18.5145	37.198169	0.000720	7.195745	2.437984	0.000288
 467	4.6367e+01	18.5562	37.464620	0.000669	6.689002	2.266295	0.000268
 468	4.6467e+01	18.5979	37.710885	0.000618	6.182260	2.094606	0.000248
 469	4.6566e+01	18.6348	38.001559	0.000730	7.297093	2.472322	0.000292
 470	4.6666e+01	18.6781	38.280121	0.000699	6.993048	2.369309	0.000280
 471	4.6765e+01	18.7198	38.554646	0.000689	6.891699	2.334971	0.000276
 472	4.6864e+01	18.7535	38.837246	0.000709	7.094396	2.403646	0.000284
 473	4.6964e+01	18.7968	39.123882	0.000720	7.195745	2.437984	0.000288
 474	4.7063e+01	18.8433	39.418593	0.000740	7.398442	2.506660	0.000296
 475	4.7163e+01	18.8818	39.697156	0.000699	6.993048	2.369309	0.000280
 476	4.7263e+01	18.9219	39.971681	0.000689	6.891699	2.334971	0.000276
 477	4.7362e+01	18.9540	40.258318	0.000720	7.195745	2.437984	0.000288
 478	4.7462e+01	18.9973	40.565140	0.000770	7.702487	2.609673	0.000308
 479	4.7561e+01	19.0310	40.843702	0.000699	6.993048	2.369309	0.000280
 480	4.7660e+01	19.0791	41.203007	0.000902	9.020018	3.056065	0.000361
 481	4.7760e+01	19.1096	41.457347	0.000638	6.384957	2.163282	0.000256
 482	4.7859e+01	19.1610	41.784355	0.000821	8.209230	2.781362	0.000329
 483	4.7959e+01	19.1995	42.083103	0.000750	7.499790	2.540998	0.000300
 484	4.8059e+01	19.2299	42.398000	0.000791	7.905184	2.678349	0.000316
 485	4.8158e+01	19.2861	42.704822	0.000770	7.702487	2.609673	0.000308
 486	4.8258e+01	19.3230	43.007607	0.000760	7.601139	2.575336	0.000304
 487	4.8357e+01	19.3535	43.310392	0.000760	7.601139	2.575336	0.000304
 488	4.8456e+01	19.3920	43.673734	0.000912	9.121367	3.090403	0.000365
 489	4.8556e+01	19.4417	43.980557	0.000770	7.702487	2.609673	0.000308
 490	4.8656e+01	19.4722	44.287379	0.000770	7.702487	2.609673	0.000308
 491	4.8755e+01	19.5155	44.646684	0.000902	9.020018	3.056065	0.000361
 492	4.8855e+01	19.5412	44.957544	0.000780	7.803836	2.644011	0.000312
 493	4.8954e+01	19.6037	45.292626	0.000841	8.411927	2.850038	0.000337
 494	4.9053e+01	19.6294	45.607522	0.000791	7.905184	2.678349	0.000316
 495	4.9153e+01	19.6679	45.966828	0.000902	9.020018	3.056065	0.000361
 496	4.9252e+01	19.7192	46.277687	0.000780	7.803836	2.644011	0.000312
 497	4.9352e+01	19.7545	46.649103	0.000932	9.324064	3.159078	0.000373
 498	4.9452e+01	19.7866	46.976111	0.000821	8.209230	2.781362	0.000329
 499	4.9551e+01	19.8379	47.327342	0.000882	8.817321	2.987389	0.000353
 500	4.9651e+01	19.8684	47.706833	0.000953	9.526761	3.227754	0.000381
 501	4.9750e+01	19.9133	48.009618	0.000760	7.601139	2.575336	0.000304
 502	4.9849e+01	19.9406	48.409295	0.001003	10.033503	3.399443	0.000402
 503	4.9949e+01	19.9871	48.776674	0.000922	9.222715	3.124740	0.000369
 504	5.0048e+01	19.9486	48.962382	-0.000466	-4.662032	-1.579539	0.000187
 505	5.0148e+01	19.9182	49.099645	-0.000345	-3.445850	-1.167485	0.000138
 506	5.0248e+01	19.8829	49.244982	-0.000365	-3.648547	-1.236161	0.000146
 507	5.0347e+01	19.8331	49.430690	-0.000466	-4.662032	-1.579539	0.000187
 508	5.0447e+01	19.7882	49.608324	-0.000446	-4.459335	-1.510864	0.000179
 509	5.0546e+01	19.7513	49.753661	-0.000365	-3.648547	-1.236161	0.000146
 510	5.0645e+01	19.7144	49.911109	-0.000395	-3.952592	-1.339174	0.000158
 511	5.0745e+01	19.6647	50.076632	-0.000416	-4.155289	-1.407850	0.000166
 512	5.0844e+01	19.6214	50.234080	-0.000395	-3.952592	-1.339174	0.000158
 513	5.0944e+01	19.5973	50.411714	-0.000446	-4.459335	-1.510864	0.000179
 514	5.1044e+01	19.5460	50.561088	-0.000375	-3.749895	-1.270499	0.000150
 515	5.1143e+01	19.5123	50.722573	-0.000405	-4.053941	-1.373512	0.000162
 516	5.1242e+01	19.4802	50.912319	-0.000476	-4.763380	-1.613877	0.000191
 517	5.1342e+01	19.4337	51.041507	-0.000324	-3.243153	-1.098810	0.000130
 518	5.1441e+01	19.3872	51.211067	-0.000426	-4.256638	-1.442188	0.000170
 519	5.1541e+01	19.3503	51.392738	-0.000456	-4.560683	-1.545201	0.000183
 520	5.1641e+01	19.3166	51.513852	-0.000304	-3.040456	-1.030134	0.000122
 521	5.1740e+01	19.2797	51.707635	-0.000486	-4.864729	-1.648215	0.000195
 522	5.1840e+01	19.2331	51.865083	-0.000395	-3.952592	-1.339174	0.000158
 523	5.1939e+01	19.1962	52.006383	-0.000355	-3.547198	-1.201823	0.000142
 524	5.2038e+01	19.1577	52.188054	-0.000456	-4.560683	-1.545201	0.000183
 525	5.2138e+01	19.1064	52.345502	-0.000395	-3.952592	-1.339174	0.000158
 526	5.2237e+01	19.0775	52.527173	-0.000456	-4.560683	-1.545201	0.000183
 527	5.2337e+01	19.0342	52.696733	-0.000426	-4.256638	-1.442188	0.000170
 528	5.2437e+01	18.9925	52.846107	-0.000375	-3.749895	-1.270499	0.000150
 529	5.2536e+01	18.9588	53.031815	-0.000466	-4.662032	-1.579539	0.000187
 530	5.2636e+01	18.9091	53.197338	-0.000416	-4.155289	-1.407850	0.000166
 531	5.2735e+01	18.8802	53.342675	-0.000365	-3.648547	-1.236161	0.000146
 532	5.2834e+01	18.8433	53.576828	-0.000588	-5.878214	-1.991593	0.000235
 533	5.2934e+01	18.7952	53.673720	-0.000243	-2.432364	-0.824107	0.000097
 534	5.3033e+01	18.7567	53.843279	-0.000426	-4.256638	-1.442188	0.000170
 535	5.3133e+01	18.7294	54.004765	-0.000405	-4.053941	-1.373512	0.000162
 536	5.3233e+01	18.6829	54.202584	-0.000497	-4.966077	-1.682553	0.000199
 537	5.3332e+01	18.6332	54.355996	-0.000385	-3.851244	-1.304837	0.000154
 538	5.3431e+01	18.6011	54.477110	-0.000304	-3.040456	-1.030134	0.000122
 539	5.3531e+01	18.5626	54.678966	-0.000507	-5.067426	-1.716890	0.000203
 540	5.3630e+01	18.5161	54.844489	-0.000416	-4.155289	-1.407850	0.000166
 541	5.3730e+01	18.4695	55.014049	-0.000426	-4.256638	-1.442188	0.000170
 542	5.3830e+01	18.4407	55.199757	-0.000466	-4.662032	-1.579539	0.000187
 543	5.3929e+01	18.3941	55.332982	-0.000334	-3.344501	-1.133148	0.000134
 544	5.4029e+01	18.3572	55.502542	-0.000426	-4.256638	-1.442188	0.000170
 545	5.4128e+01	18.3203	55.631730	-0.000324	-3.243153	-1.098810	0.000130
 546	5.4227e+01	18.2786	55.817439	-0.000466	-4.662032	-1.579539	0.000187
 547	5.4327e+01	18.2353	55.978924	-0.000405	-4.053941	-1.373512	0.000162
 548	5.4426e+01	18.1984	56.091964	-0.000284	-2.837758	-0.961459	0.000114
 549	5.4526e+01	18.1631	56.297858	-0.000517	-5.168774	-1.751228	0.000207
 550	5.4626e+01	18.1214	56.439158	-0.000355	-3.547198	-1.201823	0.000142
 551	5.4725e+01	18.0813	56.600643	-0.000405	-4.053941	-1.373512	0.000162
 552	5.4825e+01	18.0412	56.721757	-0.000304	-3.040456	-1.030134	0.000122
 553	5.4924e+01	17.9979	56.911502	-0.000476	-4.763380	-1.613877	0.000191
 554	5.5023e+01	17.9642	57.060877	-0.000375	-3.749895	-1.270499	0.000150
 555	5.5123e+01	17.9257	57.186028	-0.000314	-3.141804	-1.064472	0.000126
 556	5.5222e+01	17.8728	57.351550	-0.000416	-4.155289	-1.407850	0.000166
 557	5.5322e+01	17.8423	57.549370	-0.000497	-4.966077	-1.682553	0.000199
 558	5.5422e+01	17.8054	57.642224	-0.000233	-2.331016	-0.789770	0.000093
 559	5.5521e+01	17.7605	57.823895	-0.000456	-4.560683	-1.545201	0.000183
 560	5.5620e+01	17.7188	57.949046	-0.000314	-3.141804	-1.064472	0.000126
 561	5.5720e+01	17.6835	58.110532	-0.000405	-4.053941	-1.373512	0.000162
 562	5.5819e+01	17.6353	58.276054	-0.000416	-4.155289	-1.407850	0.000166
 563	5.5919e+01	17.5968	58.409280	-0.000334	-3.344501	-1.133148	0.000134
 564	5.6019e+01	17.5551	58.558654	-0.000375	-3.749895	-1.270499	0.000150
 565	5.6118e+01	17.5278	58.744362	-0.000466	-4.662032	-1.579539	0.000187
 566	5.6218e+01	17.4829	58.845291	-0.000253	-2.533713	-0.858445	0.000101
 567	5.6317e+01	17.4428	58.978516	-0.000334	-3.344501	-1.133148	0.000134
 568	5.6416e+01	17.3995	59.152113	-0.000436	-4.357986	-1.476526	0.000174
 569	5.6516e+01	17.3658	59.277264	-0.000314	-3.141804	-1.064472	0.000126
 570	5.6615e+01	17.3241	59.418564	-0.000355	-3.547198	-1.201823	0.000142
 571	5.6715e+01	17.2792	59.559864	-0.000355	-3.547198	-1.201823	0.000142
 572	5.6815e+01	17.2391	59.697126	-0.000345	-3.445850	-1.167485	0.000138
 573	5.6914e+01	17.1990	59.814203	-0.000294	-2.939107	-0.995796	0.000118
 574	5.7014e+01	17.1653	59.975689	-0.000405	-4.053941	-1.373512	0.000162
 575	5.7113e+01	17.1268	60.108914	-0.000334	-3.344501	-1.133148	0.000134
 576	5.7212e+01	17.0803	60.246177	-0.000345	-3.445850	-1.167485	0.000138
 577	5.7312e+01	17.0402	60.391514	-0.000365	-3.648547	-1.236161	0.000146
 578	5.7411e+01	17.0081	60.548962	-0.000395	-3.952592	-1.339174	0.000158
 579	5.7511e+01	16.9664	60.674113	-0.000314	-3.141804	-1.064472	0.000126
 580	5.7611e+01	16.9375	60.779079	-0.000264	-2.635061	-0.892783	0.000105
 581	5.7710e+01	16.8797	60.896155	-0.000294	-2.939107	-0.995796	0.000118
 582	5.7809e+01	16.8428	61.033418	-0.000345	-3.445850	-1.167485	0.000138
 583	5.7909e+01	16.8011	61.162606	-0.000324	-3.243153	-1.098810	0.000130
 584	5.8008e+01	16.7674	61.243349	-0.000203	-2.026970	-0.686756	0.000081
 585	5.8108e+01	16.7193	61.404835	-0.000405	-4.053941	-1.373512	0.000162
 586	5.8208e+01	16.6824	61.529986	-0.000314	-3.141804	-1.064472	0.000126
 587	5.8307e+01	16.6407	61.655137	-0.000314	-3.141804	-1.064472	0.000126
 588	5.8407e+01	16.6134	61.776251	-0.000304	-3.040456	-1.030134	0.000122
 589	5.8506e+01	16.5637	61.893328	-0.000294	-2.939107	-0.995796	0.000118
 590	5.8605e+01	16.5204	62.050776	-0.000395	-3.952592	-1.339174	0.000158
 591	5.8705e+01	16.4915	62.119408	-0.000172	-1.722925	-0.583743	0.000069
 592	5.8804e+01	16.4530	62.268782	-0.000375	-3.749895	-1.270499	0.000150
 593	5.8904e+01	16.4017	62.393933	-0.000314	-3.141804	-1.064472	0.000126
 594	5.9004e+01	16.3616	62.527158	-0.000334	-3.344501	-1.133148	0.000134
 595	5.9103e+01	16.3295	62.595790	-0.000172	-1.722925	-0.583743	0.000069
 596	5.9203e+01	16.2814	62.737089	-0.000355	-3.547198	-1.201823	0.000142
 597	5.9302e+01	16.2396	62.874352	-0.000345	-3.445850	-1.167485	0.000138
 598	5.9401e+01	16.2028	62.995466	-0.000304	-3.040456	-1.030134	0.000122
 599	5.9501e+01	16.1626	63.104469	-0.000274	-2.736410	-0.927121	0.000110
 600	5.9600e+01	16.1306	63.177137	-0.000182	-1.824273	-0.618081	0.000073
 601	5.9700e+01	16.0808	63.322474	-0.000365	-3.648547	-1.236161	0.000146
 602	5.9800e+01	16.0471	63.459737	-0.000345	-3.445850	-1.167485	0.000138
 603	5.9899e+01	16.0102	63.540479	-0.000203	-2.026970	-0.686756	0.000081
 604	5.9998e+01	15.9637	63.673705	-0.000334	-3.344501	-1.133148	0.000134
 605	6.0098e+01	15.9284	63.806930	-0.000334	-3.344501	-1.133148	0.000134
 606	6.0197e+01	15.8899	63.895747	-0.000223	-2.229667	-0.755432	0.000089
 607	6.0297e+01	15.8578	64.012824	-0.000294	-2.939107	-0.995796	0.000118
 608	6.0397e+01	15.8017	64.109716	-0.000243	-2.432364	-0.824107	0.000097
 609	6.0496e+01	15.7648	64.202570	-0.000233	-2.331016	-0.789770	0.000093
 610	6.0596e+01	15.7215	64.347907	-0.000365	-3.648547	-1.236161	0.000146
 611	6.0695e+01	15.6878	64.456909	-0.000274	-2.736410	-0.927121	0.000110
 612	6.0794e+01	15.6429	64.525541	-0.000172	-1.722925	-0.583743	0.000069
 613	6.0894e+01	15.6012	64.658766	-0.000334	-3.344501	-1.133148	0.000134
 614	6.0993e+01	15.5755	64.800066	-0.000355	-3.547198	-1.201823	0.000142
 615	6.1093e+01	15.5306	64.892920	-0.000233	-2.331016	-0.789770	0.000093
 616	6.1193e+01	15.4969	65.001923	-0.000274	-2.736410	-0.927121	0.000110
 617	6.1292e+01	15.4423	65.102851	-0.000253	-2.533713	-0.858445	0.000101
 618	6.1392e+01	15.4135	65.228002	-0.000314	-3.141804	-1.064472	0.000126
 619	6.1491e+01	15.3702	65.324893	-0.000243	-2.432364	-0.824107	0.000097
 620	6.1590e+01	15.3268	65.393525	-0.000172	-1.722925	-0.583743	0.000069
 621	6.1690e+01	15.2915	65.522713	-0.000324	-3.243153	-1.098810	0.000130
 622	6.1789e+01	15.2530	65.595381	-0.000182	-1.824273	-0.618081	0.000073
 623	6.1889e+01	15.2161	65.720533	-0.000314	-3.141804	-1.064472	0.000126
 624	6.1989e+01	15.1648	65.821461	-0.000253	-2.533713	-0.858445	0.000101
 625	6.2088e+01	15.1311	65.902204	-0.000203	-2.026970	-0.686756	0.000081
 626	6.2188e+01	15.0926	65.999095	-0.000243	-2.432364	-0.824107	0.000097
 627	6.2287e+01	15.0477	66.144432	-0.000365	-3.648547	-1.236161	0.000146
 628	6.2386e+01	15.0108	66.172692	-0.000071	-0.709440	-0.240365	0.000028
 629	6.2486e+01	14.9707	66.285732	-0.000284	-2.837758	-0.961459	0.000114
 630	6.2586e+01	14.9210	66.374549	-0.000223	-2.229667	-0.755432	0.000089
 631	6.2685e+01	14.8937	66.483551	-0.000274	-2.736410	-0.927121	0.000110
 632	6.2785e+01	14.8520	66.600628	-0.000294	-2.939107	-0.995796	0.000118
 633	6.2884e+01	14.8071	66.645037	-0.000111	-1.114834	-0.377716	0.000045
 634	6.2983e+01	14.7766	66.762114	-0.000294	-2.939107	-0.995796	0.000118
 635	6.3083e+01	14.7285	66.826708	-0.000162	-1.621576	-0.549405	0.000065
 636	6.3182e+01	14.6996	66.915525	-0.000223	-2.229667	-0.755432	0.000089
 637	6.3282e+01	14.6627	67.040676	-0.000314	-3.141804	-1.064472	0.000126
 638	6.3382e+01	14.6162	67.109307	-0.000172	-1.722925	-0.583743	0.000069
 639	6.3481e+01	14.5664	67.222347	-0.000284	-2.837758	-0.961459	0.000114
 640	6.3581e+01	14.5311	67.282904	-0.000152	-1.520228	-0.515067	0.000061
 641	6.3680e+01	14.4975	67.387870	-0.000264	-2.635061	-0.892783	0.000105
 642	6.3779e+01	14.4622	67.464575	-0.000193	-1.925622	-0.652418	0.000077
 643	6.3879e+01	14.4124	67.533207	-0.000172	-1.722925	-0.583743	0.000069
 644	6.3978e+01	14.3771	67.597801	-0.000162	-1.621576	-0.549405	0.000065
 645	6.4078e+01	14.3386	67.702766	-0.000264	-2.635061	-0.892783	0.000105
 646	6.4177e+01	14.2873	67.783509	-0.000203	-2.026970	-0.686756	0.000081
 647	6.4277e+01	14.2600	67.840029	-0.000142	-1.418879	-0.480729	0.000057
 648	6.4376e+01	14.2199	67.904623	-0.000162	-1.621576	-0.549405	0.000065
 649	6.4476e+01	14.1734	68.017663	-0.000284	-2.837758	-0.961459	0.000114
 650	6.4576e+01	14.1301	68.078220	-0.000152	-1.520228	-0.515067	0.000061
 651	6.4675e+01	14.0964	68.130703	-0.000132	-1.317531	-0.446391	0.000053
 652	6.4775e+01	14.0483	68.235668	-0.000264	-2.635061	-0.892783	0.000105
 653	6.4874e+01	14.0114	68.280077	-0.000111	-1.114834	-0.377716	0.000045
 654	6.4974e+01	13.9777	68.344671	-0.000162	-1.621576	-0.549405	0.000065
 655	6.5073e+01	13.9328	68.437525	-0.000233	-2.331016	-0.789770	0.000093
 656	6.5172e+01	13.8911	68.490008	-0.000132	-1.317531	-0.446391	0.000053
 657	6.5272e+01	13.8493	68.570751	-0.000203	-2.026970	-0.686756	0.000081
 658	6.5371e+01	13.8108	68.651493	-0.000203	-2.026970	-0.686756	0.000081
 659	6.5471e+01	13.7723	68.732236	-0.000203	-2.026970	-0.686756	0.000081
 660	6.5570e+01	13.7306	68.784719	-0.000132	-1.317531	-0.446391	0.000053
 661	6.5670e+01	13.6905	68.865461	-0.000203	-2.026970	-0.686756	0.000081
 662	6.5769e+01	13.6488	68.913907	-0.000122	-1.216182	-0.412054	0.000049
 663	6.5869e+01	13.6135	68.998687	-0.000213	-2.128319	-0.721094	0.000085
 664	6.5969e+01	13.5670	69.047133	-0.000122	-1.216182	-0.412054	0.000049
 665	6.6068e+01	13.5445	69.127875	-0.000203	-2.026970	-0.686756	0.000081
 666	6.6168e+01	13.4916	69.156135	-0.000071	-0.709440	-0.240365	0.000028
 667	6.6267e+01	13.4531	69.212655	-0.000142	-1.418879	-0.480729	0.000057
 668	6.6367e+01	13.4258	69.265138	-0.000132	-1.317531	-0.446391	0.000053
 669	6.6466e+01	13.3857	69.349918	-0.000213	-2.128319	-0.721094	0.000085
 670	6.6566e+01	13.3328	69.390289	-0.000101	-1.013485	-0.343378	0.000041
 671	6.6665e+01	13.3023	69.438735	-0.000122	-1.216182	-0.412054	0.000049
 672	6.6764e+01	13.2574	69.503329	-0.000162	-1.621576	-0.549405	0.000065
 673	6.6864e+01	13.2173	69.571960	-0.000172	-1.722925	-0.583743	0.000069
 674	6.6963e+01	13.1756	69.608294	-0.000091	-0.912137	-0.309040	0.000037
 675	6.7063e+01	13.1306	69.664814	-0.000142	-1.418879	-0.480729	0.000057
 676	6.7162e+01	13.1034	69.713260	-0.000122	-1.216182	-0.412054	0.000049
 677	6.7262e+01	13.0569	69.789966	-0.000193	-1.925622	-0.652418	0.000077
 678	6.7362e+01	13.0135	69.826300	-0.000091	-0.912137	-0.309040	0.000037
 679	6.7461e+01	12.9782	69.862634	-0.000091	-0.912137	-0.309040	0.000037
 680	6.7561e+01	12.9365	69.878782	-0.000041	-0.405394	-0.137351	0.000016
 681	6.7660e+01	12.9028	69.987785	-0.000274	-2.736410	-0.927121	0.000110
 682	6.7760e+01	12.8547	70.048342	-0.000152	-1.520228	-0.515067	0.000061
 683	6.7859e+01	12.8210	70.024119	0.000061	0.608091	0.206027	-0.000024
 684	6.7959e+01	12.7777	70.129085	-0.000264	-2.635061	-0.892783	0.000105
 685	6.8058e+01	12.7424	70.145233	-0.000041	-0.405394	-0.137351	0.000016
 686	6.8157e+01	12.7023	70.181568	-0.000091	-0.912137	-0.309040	0.000037
 687	6.8257e+01	12.6638	70.230013	-0.000122	-1.216182	-0.412054	0.000049
 688	6.8356e+01	12.6157	70.270385	-0.000101	-1.013485	-0.343378	0.000041
 689	6.8456e+01	12.5788	70.322867	-0.000132	-1.317531	-0.446391	0.000053
 690	6.8555e+01	12.5515	70.351127	-0.000071	-0.709440	-0.240365	0.000028
 691	6.8655e+01	12.5050	70.391499	-0.000101	-1.013485	-0.343378	0.000041
 692	6.8754e+01	12.4617	70.448019	-0.000142	-1.418879	-0.480729	0.000057
 693	6.8854e+01	12.4296	70.460130	-0.000030	-0.304046	-0.103013	0.000012
 694	6.8954e+01	12.3783	70.496464	-0.000091	-0.912137	-0.309040	0.000037
 695	6.9053e+01	12.3446	70.524724	-0.000071	-0.709440	-0.240365	0.000028
 696	6.9153e+01	12.3013	70.552984	-0.000071	-0.709440	-0.240365	0.000028
 697	6.9252e+01	12.2644	70.621615	-0.000172	-1.722925	-0.583743	0.000069
 698	6.9352e+01	12.2259	70.641801	-0.000051	-0.506743	-0.171689	0.000020
 699	6.9451e+01	12.1793	70.625653	0.000041	0.405394	0.137351	-0.000016
 700	6.9550e+01	12.1505	70.706395	-0.000203	-2.026970	-0.686756	0.000081
 701	6.9650e+01	12.1104	70.718507	-0.000030	-0.304046	-0.103013	0.000012
 702	6.9749e+01	12.0622	70.714470	0.000010	0.101349	0.034338	-0.000004
 703	6.9849e+01	12.0253	70.775027	-0.000152	-1.520228	-0.515067	0.000061
 704	6.9948e+01	11.9836	70.791175	-0.000041	-0.405394	-0.137351	0.000016
 705	7.0048e+01	11.9419	70.815398	-0.000061	-0.608091	-0.206027	0.000024
 706	7.0147e+01	11.9050	70.827509	-0.000030	-0.304046	-0.103013	0.000012
 707	7.0247e+01	11.8665	70.819435	0.000020	0.202697	0.068676	-0.000008
 708	7.0347e+01	11.8232	70.867881	-0.000122	-1.216182	-0.412054	0.000049
 709	7.0446e+01	11.7959	70.924401	-0.000142	-1.418879	-0.480729	0.000057
 710	7.0546e+01	11.7366	70.924401	-0.000000	-0.000000	-0.000000	0.000000
 711	7.0645e+01	11.7029	70.956698	-0.000081	-0.810788	-0.274702	0.000032
 712	7.0745e+01	11.6596	70.964772	-0.000020	-0.202697	-0.068676	0.000008
 713	7.0844e+01	11.6307	70.972846	-0.000020	-0.202697	-0.068676	0.000008
 714	7.0944e+01	11.5858	70.988995	-0.000041	-0.405394	-0.137351	0.000016
 715	7.1043e+01	11.5553	71.021292	-0.000081	-0.810788	-0.274702	0.000032
 716	7.1142e+01	11.5023	71.033403	-0.000030	-0.304046	-0.103013	0.000012
 717	7.1242e+01	11.4671	71.053589	-0.000051	-0.506743	-0.171689	0.000020
 718	7.1341e+01	11.4302	71.045515	0.000020	0.202697	0.068676	-0.000008
 719	7.1441e+01	11.3820	71.077812	-0.000081	-0.810788	-0.274702	0.000032
 720	7.1540e+01	11.3451	71.061663	0.000041	0.405394	0.137351	-0.000016
 721	7.1640e+01	11.3066	71.069738	-0.000020	-0.202697	-0.068676	0.000008
 722	7.1740e+01	11.2697	71.097997	-0.000071	-0.709440	-0.240365	0.000028
 723	7.1839e+01	11.2296	71.130295	-0.000081	-0.810788	-0.274702	0.000032
 724	7.1939e+01	11.1863	71.130295	-0.000000	-0.000000	-0.000000	0.000000
 725	7.2038e+01	11.1462	71.138369	-0.000020	-0.202697	-0.068676	0.000008
 726	7.2138e+01	11.1045	71.134332	0.000010	0.101349	0.034338	-0.000004
 727	7.2237e+01	11.0644	71.114146	0.000051	0.506743	0.171689	-0.000020
 728	7.2337e+01	11.0243	71.114146	-0.000000	-0.000000	-0.000000	0.000000
 729	7.2436e+01	10.9842	71.158555	-0.000111	-1.114834	-0.377716	0.000045
 730	7.2535e+01	10.9457	71.182777	-0.000061	-0.608091	-0.206027	0.000024
 731	7.2635e+01	10.9040	71.162592	0.000051	0.506743	0.171689	-0.000020
 732	7.2734e+01	10.8703	71.142406	0.000051	0.506743	0.171689	-0.000020
 733	7.2834e+01	10.8302	71.150480	-0.000020	-0.202697	-0.068676	0.000008
 734	7.2933e+01	10.7869	71.110109	0.000101	1.013485	0.343378	-0.000041
 735	7.3033e+01	10.7500	71.146443	-0.000091	-0.912137	-0.309040	0.000037
 736	7.3132e+01	10.7179	71.138369	0.000020	0.202697	0.068676	-0.000008
 737	7.3232e+01	10.6665	71.130295	0.000020	0.202697	0.068676	-0.000008
 738	7.3332e+01	10.6248	71.130295	-0.000000	-0.000000	-0.000000	0.000000
 739	7.3431e+01	10.5847	71.122220	0.000020	0.202697	0.068676	-0.000008
 740	7.3531e+01	10.5494	71.126257	-0.000010	-0.101349	-0.034338	0.000004
 741	7.3630e+01	10.5157	71.114146	0.000030	0.304046	0.103013	-0.000012
 742	7.3730e+01	10.4676	71.069738	0.000111	1.114834	0.377716	-0.000045
 743	7.3829e+01	10.4259	71.102035	-0.000081	-0.810788	-0.274702	0.000032
 744	7.3928e+01	10.3938	71.085886	0.000041	0.405394	0.137351	-0.000016
 745	7.4028e+01	10.3393	71.073775	0.000030	0.304046	0.103013	-0.000012
 746	7.4127e+01	10.3216	71.061663	0.000030	0.304046	0.103013	-0.000012
 747	7.4227e+01	10.2655	71.045515	0.000041	0.405394	0.137351	-0.000016
 748	7.4326e+01	10.2270	71.017255	0.000071	0.709440	0.240365	-0.000028
 749	7.4426e+01	10.1885	70.972846	0.000111	1.114834	0.377716	-0.000045
 750	7.4525e+01	10.1596	71.001106	-0.000071	-0.709440	-0.240365	0.000028
 751	7.4625e+01	10.1099	70.976883	0.000061	0.608091	0.206027	-0.000024
 752	7.4725e+01	10.0714	70.928438	0.000122	1.216182	0.412054	-0.000049
 753	7.4824e+01	10.0297	70.912289	0.000041	0.405394	0.137351	-0.000016
 754	7.4924e+01	9.9880	70.871918	0.000101	1.013485	0.343378	-0.000041
 755	7.5023e+01	9.9527	70.884029	-0.000030	-0.304046	-0.103013	0.000012
 756	7.5123e+01	9.9029	70.867881	0.000041	0.405394	0.137351	-0.000016
 757	7.5222e+01	9.8741	70.843658	0.000061	0.608091	0.206027	-0.000024
 758	7.5322e+01	9.8323	70.811361	0.000081	0.810788	0.274702	-0.000032
 759	7.5421e+01	9.7826	70.791175	0.000051	0.506743	0.171689	-0.000020
 760	7.5520e+01	9.7602	70.754841	0.000091	0.912137	0.309040	-0.000037
 761	7.5620e+01	9.7136	70.750804	0.000010	0.101349	0.034338	-0.000004
 762	7.5719e+01	9.6687	70.678135	0.000182	1.824273	0.618081	-0.000073
 763	7.5819e+01	9.6398	70.674098	0.000010	0.101349	0.034338	-0.000004
 764	7.5918e+01	9.5981	70.653913	0.000051	0.506743	0.171689	-0.000020
 765	7.6018e+01	9.5532	70.605467	0.000122	1.216182	0.412054	-0.000049
 766	7.6118e+01	9.5067	70.569133	0.000091	0.912137	0.309040	-0.000037
 767	7.6217e+01	9.4746	70.565096	0.000010	0.101349	0.034338	-0.000004
 768	7.6317e+01	9.4361	70.520687	0.000111	1.114834	0.377716	-0.000045
 769	7.6416e+01	9.3976	70.496464	0.000061	0.608091	0.206027	-0.000024
 770	7.6516e+01	9.3527	70.492427	0.000010	0.101349	0.034338	-0.000004
 771	7.6615e+01	9.3094	70.407647	0.000213	2.128319	0.721094	-0.000085
 772	7.6715e+01	9.2725	70.423796	-0.000041	-0.405394	-0.137351	0.000016
 773	7.6814e+01	9.2211	70.343053	0.000203	2.026970	0.686756	-0.000081
 774	7.6913e+01	9.1971	70.294607	0.000122	1.216182	0.412054	-0.000049
 775	7.7013e+01	9.1570	70.258273	0.000091	0.912137	0.309040	-0.000037
 776	7.7112e+01	9.1136	70.230013	0.000071	0.709440	0.240365	-0.000028
 777	7.7212e+01	9.0784	70.189642	0.000101	1.013485	0.343378	-0.000041
 778	7.7311e+01	9.0415	70.153308	0.000091	0.912137	0.309040	-0.000037
 779	7.7411e+01	8.9949	70.096788	0.000142	1.418879	0.480729	-0.000057
 780	7.7510e+01	8.9580	70.064491	0.000081	0.810788	0.274702	-0.000032
 781	7.7610e+01	8.9179	69.995859	0.000172	1.722925	0.583743	-0.000069
 782	7.7710e+01	8.8874	69.975674	0.000051	0.506743	0.171689	-0.000020
 783	7.7809e+01	8.8361	69.894931	0.000203	2.026970	0.686756	-0.000081
 784	7.7909e+01	8.8024	69.862634	0.000081	0.810788	0.274702	-0.000032
 785	7.8008e+01	8.7479	69.858597	0.000010	0.101349	0.034338	-0.000004
 786	7.8108e+01	8.7222	69.798040	0.000152	1.520228	0.515067	-0.000061
 787	7.8207e+01	8.6837	69.697111	0.000253	2.533713	0.858445	-0.000101
 788	7.8306e+01	8.6420	69.689037	0.000020	0.202697	0.068676	-0.000008
 789	7.8406e+01	8.5955	69.620406	0.000172	1.722925	0.583743	-0.000069
 790	7.8505e+01	8.5538	69.555812	0.000162	1.621576	0.549405	-0.000065
 791	7.8605e+01	8.5121	69.515440	0.000101	1.013485	0.343378	-0.000041
 792	7.8704e+01	8.4752	69.471032	0.000111	1.114834	0.377716	-0.000045
 793	7.8804e+01	8.4367	69.418549	0.000132	1.317531	0.446391	-0.000053
 794	7.8903e+01	8.3933	69.366066	0.000132	1.317531	0.446391	-0.000053
 795	7.9003e+01	8.3484	69.277249	0.000223	2.229667	0.755432	-0.000089
 796	7.9103e+01	8.3244	69.248989	0.000071	0.709440	0.240365	-0.000028
 797	7.9202e+01	8.2730	69.176321	0.000182	1.824273	0.618081	-0.000073
 798	7.9302e+01	8.2361	69.115764	0.000152	1.520228	0.515067	-0.000061
 799	7.9401e+01	8.1992	69.083467	0.000081	0.810788	0.274702	-0.000032
 800	7.9501e+01	8.1479	68.998687	0.000213	2.128319	0.721094	-0.000085
 801	7.9600e+01	8.1174	68.942167	0.000142	1.418879	0.480729	-0.000057
 802	7.9700e+01	8.0725	68.853350	0.000223	2.229667	0.755432	-0.000089
 803	7.9799e+01	8.0356	68.796830	0.000142	1.418879	0.480729	-0.000057
 804	7.9898e+01	7.9971	68.740310	0.000142	1.418879	0.480729	-0.000057
 805	7.9998e+01	7.9554	68.699939	0.000101	1.013485	0.343378	-0.000041
 806	8.0097e+01	7.9185	68.607085	0.000233	2.331016	0.789770	-0.000093
 807	8.0197e+01	7.8784	68.574788	0.000081	0.810788	0.274702	-0.000032
 808	8.0296e+01	7.8431	68.477896	0.000243	2.432364	0.824107	-0.000097
 809	8.0396e+01	7.7966	68.429451	0.000122	1.216182	0.412054	-0.000049
 810	8.0496e+01	7.7517	68.360819	0.000172	1.722925	0.583743	-0.000069
 811	8.0595e+01	7.7260	68.251817	0.000274	2.736410	0.927121	-0.000110
 812	8.0695e+01	7.6843	68.227594	0.000061	0.608091	0.206027	-0.000024
 813	8.0794e+01	7.6361	68.090331	0.000345	3.445850	1.167485	-0.000138
 814	8.0894e+01	7.5993	68.041886	0.000122	1.216182	0.412054	-0.000049
 815	8.0993e+01	7.5559	67.985366	0.000142	1.418879	0.480729	-0.000057
 816	8.1093e+01	7.5206	67.868289	0.000294	2.939107	0.995796	-0.000118
 817	8.1192e+01	7.4870	67.787546	0.000203	2.026970	0.686756	-0.000081
 818	8.1291e+01	7.4388	67.722952	0.000162	1.621576	0.549405	-0.000065
 819	8.1391e+01	7.3955	67.630098	0.000233	2.331016	0.789770	-0.000093
 820	8.1490e+01	7.3618	67.549355	0.000203	2.026970	0.686756	-0.000081
 821	8.1590e+01	7.3249	67.464575	0.000213	2.128319	0.721094	-0.000085
 822	8.1689e+01	7.2784	67.395944	0.000172	1.722925	0.583743	-0.000069
 823	8.1789e+01	7.2367	67.327313	0.000172	1.722925	0.583743	-0.000069
 824	8.1888e+01	7.1982	67.250607	0.000193	1.925622	0.652418	-0.000077
 825	8.1988e+01	7.1549	67.169864	0.000203	2.026970	0.686756	-0.000081
 826	8.2088e+01	7.1228	67.056825	0.000284	2.837758	0.961459	-0.000114
 827	8.2187e+01	7.0779	67.000305	0.000142	1.418879	0.480729	-0.000057
 828	8.2287e+01	7.0410	66.895339	0.000264	2.635061	0.892783	-0.000105
 829	8.2386e+01	6.9945	66.822671	0.000182	1.824273	0.618081	-0.000073
 830	8.2486e+01	6.9576	66.697520	0.000314	3.141804	1.064472	-0.000126
 831	8.2585e+01	6.9271	66.645037	0.000132	1.317531	0.446391	-0.000053
 832	8.2684e+01	6.8838	66.568331	0.000193	1.925622	0.652418	-0.000077
 833	8.2784e+01	6.8372	66.475477	0.000233	2.331016	0.789770	-0.000093
 834	8.2883e+01	6.8019	66.378586	0.000243	2.432364	0.824107	-0.000097
 835	8.2983e+01	6.7586	66.281695	0.000243	2.432364	0.824107	-0.000097
 836	8.3082e+01	6.7153	66.213063	0.000172	1.722925	0.583743	-0.000069
 837	8.3182e+01	6.6832	66.112135	0.000253	2.533713	0.858445	-0.000101
 838	8.3281e+01	6.6528	66.015244	0.000243	2.432364	0.824107	-0.000097
 839	8.3381e+01	6.5966	65.934501	0.000203	2.026970	0.686756	-0.000081
 840	8.3481e+01	6.5645	65.865870	0.000172	1.722925	0.583743	-0.000069
 841	8.3580e+01	6.5292	65.700347	0.000416	4.155289	1.407850	-0.000166
 842	8.3680e+01	6.4875	65.659976	0.000101	1.013485	0.343378	-0.000041
 843	8.3779e+01	6.4442	65.542899	0.000294	2.939107	0.995796	-0.000118
 844	8.3879e+01	6.4153	65.474267	0.000172	1.722925	0.583743	-0.000069
 845	8.3978e+01	6.3704	65.397562	0.000193	1.925622	0.652418	-0.000077
 846	8.4078e+01	6.3271	65.272411	0.000314	3.141804	1.064472	-0.000126
 847	8.4177e+01	6.2870	65.163408	0.000274	2.736410	0.927121	-0.000110
 848	8.4276e+01	6.2501	65.074591	0.000223	2.229667	0.755432	-0.000089
 849	8.4376e+01	6.2052	64.953477	0.000304	3.040456	1.030134	-0.000122
 850	8.4475e+01	6.1635	64.840437	0.000284	2.837758	0.961459	-0.000114
 851	8.4575e+01	6.1201	64.739509	0.000253	2.533713	0.858445	-0.000101
 852	8.4674e+01	6.0849	64.642617	0.000243	2.432364	0.824107	-0.000097
 853	8.4774e+01	6.0447	64.517466	0.000314	3.141804	1.064472	-0.000126
 854	8.4874e+01	6.0143	64.392315	0.000314	3.141804	1.064472	-0.000126
 855	8.4973e+01	5.9726	64.327721	0.000162	1.621576	0.549405	-0.000065
 856	8.5073e+01	5.9325	64.210644	0.000294	2.939107	0.995796	-0.000118
 857	8.5172e+01	5.8795	64.073381	0.000345	3.445850	1.167485	-0.000138
 858	8.5272e+01	5.8474	63.980527	0.000233	2.331016	0.789770	-0.000093
 859	8.5371e+01	5.8057	63.867487	0.000284	2.837758	0.961459	-0.000114
 860	8.5471e+01	5.7672	63.738299	0.000324	3.243153	1.098810	-0.000130
 861	8.5570e+01	5.7399	63.653519	0.000213	2.128319	0.721094	-0.000085
 862	8.5669e+01	5.6870	63.560665	0.000233	2.331016	0.789770	-0.000093
 863	8.5769e+01	5.6453	63.407254	0.000385	3.851244	1.304837	-0.000154
 864	8.5868e+01	5.6116	63.310363	0.000243	2.432364	0.824107	-0.000097
 865	8.5968e+01	5.5683	63.181174	0.000324	3.243153	1.098810	-0.000130
 866	8.6067e+01	5.5250	63.060060	0.000304	3.040456	1.030134	-0.000122
 867	8.6167e+01	5.4833	62.930872	0.000324	3.243153	1.098810	-0.000130
 868	8.6266e+01	5.4448	62.817832	0.000284	2.837758	0.961459	-0.000114
 869	8.6366e+01	5.4207	62.692681	0.000314	3.141804	1.064472	-0.000126
 870	8.6466e+01	5.3710	62.583678	0.000274	2.736410	0.927121	-0.000110
 871	8.6565e+01	5.3244	62.474676	0.000274	2.736410	0.927121	-0.000110
 872	8.6665e+01	5.2988	62.325302	0.000375	3.749895	1.270499	-0.000150
 873	8.6764e+01	5.2555	62.196113	0.000324	3.243153	1.098810	-0.000130
 874	8.6864e+01	5.2073	62.091148	0.000264	2.635061	0.892783	-0.000105
 875	8.6963e+01	5.1753	61.945811	0.000365	3.648547	1.236161	-0.000146
 876	8.7063e+01	5.1255	61.832771	0.000284	2.837758	0.961459	-0.000114
 877	8.7162e+01	5.0950	61.703583	0.000324	3.243153	1.098810	-0.000130
 878	8.7261e+01	5.0533	61.582469	0.000304	3.040456	1.030134	-0.000122
 879	8.7361e+01	5.0084	61.425020	0.000395	3.952592	1.339174	-0.000158
 880	8.7460e+01	4.9827	61.332166	0.000233	2.331016	0.789770	-0.000093
 881	8.7560e+01	4.9266	61.174718	0.000395	3.952592	1.339174	-0.000158
 882	8.7659e+01	4.8929	61.021307	0.000385	3.851244	1.304837	-0.000154
 883	8.7759e+01	4.8544	60.948638	0.000182	1.824273	0.618081	-0.000073
 884	8.7859e+01	4.8127	60.787153	0.000405	4.053941	1.373512	-0.000162
 885	8.7958e+01	4.7694	60.666039	0.000304	3.040456	1.030134	-0.000122
 886	8.8058e+01	4.7309	60.512628	0.000385	3.851244	1.304837	-0.000154
 887	8.8157e+01	4.6763	60.363254	0.000375	3.749895	1.270499	-0.000150
 888	8.8257e+01	4.6587	60.266362	0.000243	2.432364	0.824107	-0.000097
 889	8.8356e+01	4.6090	60.084691	0.000456	4.560683	1.545201	-0.000183
 890	8.8456e+01	4.5721	59.967614	0.000294	2.939107	0.995796	-0.000118
 891	8.8555e+01	4.5255	59.846500	0.000304	3.040456	1.030134	-0.000122
 892	8.8654e+01	4.4983	59.685015	0.000405	4.053941	1.373512	-0.000162
 893	8.8754e+01	4.4453	59.555826	0.000324	3.243153	1.098810	-0.000130
 894	8.8853e+01	4.4165	59.394341	0.000405	4.053941	1.373512	-0.000162
 895	8.8953e+01	4.3699	59.257078	0.000345	3.445850	1.167485	-0.000138
 896	8.9052e+01	4.3346	59.135964	0.000304	3.040456	1.030134	-0.000122
 897	8.9152e+01	4.2881	58.966405	0.000426	4.256638	1.442188	-0.000170
 898	8.9251e+01	4.2528	58.841253	0.000314	3.141804	1.064472	-0.000126
 899	8.9351e+01	4.2127	58.691879	0.000375	3.749895	1.270499	-0.000150
 900	8.9451e+01	4.1678	58.550580	0.000355	3.547198	1.201823	-0.000142
 901	8.9550e+01	4.1325	58.413317	0.000345	3.445850	1.167485	-0.000138
 902	8.9650e+01	4.0908	58.235683	0.000446	4.459335	1.510864	-0.000179
 903	8.9749e+01	4.0539	58.078235	0.000395	3.952592	1.339174	-0.000158
 904	8.9849e+01	4.0202	57.965195	0.000284	2.837758	0.961459	-0.000114
 905	8.9948e+01	3.9673	57.852155	0.000284	2.837758	0.961459	-0.000114
 906	9.0047e+01	3.9416	57.609927	0.000608	6.080911	2.060268	-0.000243
 907	9.0147e+01	3.8935	57.496887	0.000284	2.837758	0.961459	-0.000114
 908	9.0246e+01	3.8630	57.335402	0.000405	4.053941	1.373512	-0.000162
 909	9.0346e+01	3.8101	57.234473	0.000253	2.533713	0.858445	-0.000101
 910	9.0445e+01	3.7683	57.016468	0.000547	5.472820	1.854242	-0.000219
 911	9.0545e+01	3.7363	56.907465	0.000274	2.736410	0.927121	-0.000110
 912	9.0644e+01	3.6945	56.741943	0.000416	4.155289	1.407850	-0.000166
 913	9.0744e+01	3.6512	56.576420	0.000416	4.155289	1.407850	-0.000166
 914	9.0844e+01	3.6095	56.418972	0.000395	3.952592	1.339174	-0.000158
 915	9.0943e+01	3.5694	56.265561	0.000385	3.851244	1.304837	-0.000154
 916	9.1043e+01	3.5357	56.116187	0.000375	3.749895	1.270499	-0.000150
 917	9.1142e+01	3.4988	55.958738	0.000395	3.952592	1.339174	-0.000158
 918	9.1242e+01	3.4555	55.773030	0.000466	4.662032	1.579539	-0.000187
 919	9.1341e+01	3.4266	55.555025	0.000547	5.472820	1.854242	-0.000219
 920	9.1441e+01	3.3817	55.417762	0.000345	3.445850	1.167485	-0.000138
 921	9.1540e+01	3.3352	55.244165	0.000436	4.357986	1.476526	-0.000174
 922	9.1639e+01	3.3047	55.106903	0.000345	3.445850	1.167485	-0.000138
 923	9.1739e+01	3.2614	54.949455	0.000395	3.952592	1.339174	-0.000158
 924	9.1838e+01	3.2197	54.796043	0.000385	3.851244	1.304837	-0.000154
 925	9.1938e+01	3.1828	54.622447	0.000436	4.357986	1.476526	-0.000174
 926	9.2037e+01	3.1411	54.452887	0.000426	4.256638	1.442188	-0.000170
 927	9.2137e+01	3.0994	54.275253	0.000446	4.459335	1.510864	-0.000179
 928	9.2237e+01	3.0480	54.081470	0.000486	4.864729	1.648215	-0.000195
 929	9.2336e+01	3.0160	53.956319	0.000314	3.141804	1.064472	-0.000126
 930	9.2436e+01	2.9742	53.770611	0.000466	4.662032	1.579539	-0.000187
 931	9.2535e+01	2.9422	53.609125	0.000405	4.053941	1.373512	-0.000162
 932	9.2635e+01	2.9005	53.443603	0.000416	4.155289	1.407850	-0.000166
 933	9.2734e+01	2.8555	53.241746	0.000507	5.067426	1.716890	-0.000203
 934	9.2834e+01	2.8138	53.084298	0.000395	3.952592	1.339174	-0.000158
 935	9.2933e+01	2.7785	52.902627	0.000456	4.560683	1.545201	-0.000183
 936	9.3032e+01	2.7352	52.708844	0.000486	4.864729	1.648215	-0.000195
 937	9.3132e+01	2.6967	52.547359	0.000405	4.053941	1.373512	-0.000162
 938	9.3231e+01	2.6534	52.389910	0.000395	3.952592	1.339174	-0.000158
 939	9.3331e+01	2.6277	52.232462	0.000395	3.952592	1.339174	-0.000158
 940	9.3430e+01	2.5860	52.046754	0.000466	4.662032	1.579539	-0.000187
 941	9.3530e+01	2.5331	51.832786	0.000537	5.371471	1.819904	-0.000215
 942	9.3629e+01	2.5026	51.687449	0.000365	3.648547	1.236161	-0.000146
 943	9.3729e+01	2.4657	51.530001	0.000395	3.952592	1.339174	-0.000158
 944	9.3829e+01	2.4240	51.328144	0.000507	5.067426	1.716890	-0.000203
 945	9.3928e+01	2.3775	51.150510	0.000446	4.459335	1.510864	-0.000179
 946	9.4028e+01	2.3406	50.940579	0.000527	5.270123	1.785566	-0.000211
 947	9.4127e+01	2.2941	50.766982	0.000436	4.357986	1.476526	-0.000174
 948	9.4227e+01	2.2572	50.609534	0.000395	3.952592	1.339174	-0.000158
 949	9.4326e+01	2.2187	50.391528	0.000547	5.472820	1.854242	-0.000219
 950	9.4425e+01	2.1866	50.250229	0.000355	3.547198	1.201823	-0.000142
 951	9.4525e+01	2.1449	50.032223	0.000547	5.472820	1.854242	-0.000219
 952	9.4624e+01	2.0999	49.858626	0.000436	4.357986	1.476526	-0.000174
 953	9.4724e+01	2.0679	49.672918	0.000466	4.662032	1.579539	-0.000187
 954	9.4823e+01	2.0165	49.475098	0.000497	4.966077	1.682553	-0.000199
 955	9.4923e+01	1.9812	49.317650	0.000395	3.952592	1.339174	-0.000158
 956	9.5022e+01	1.9363	49.099645	0.000547	5.472820	1.854242	-0.000219
 957	9.5122e+01	1.9074	48.942197	0.000395	3.952592	1.339174	-0.000158
 958	9.5222e+01	1.8609	48.724191	0.000547	5.472820	1.854242	-0.000219
 959	9.5321e+01	1.8288	48.558669	0.000416	4.155289	1.407850	-0.000166
 960	9.5421e+01	1.7791	48.356812	0.000507	5.067426	1.716890	-0.000203
 961	9.5520e+01	1.7422	48.195326	0.000405	4.053941	1.373512	-0.000162
 962	9.5620e+01	1.7069	47.977321	0.000547	5.472820	1.854242	-0.000219
 963	9.5719e+01	1.6716	47.864281	0.000284	2.837758	0.961459	-0.000114
 964	9.5819e+01	1.6171	47.650313	0.000537	5.371471	1.819904	-0.000215
 965	9.5918e+01	1.5914	47.432308	0.000547	5.472820	1.854242	-0.000219
 966	9.6017e+01	1.5449	47.226414	0.000517	5.168774	1.751228	-0.000207
 967	9.6117e+01	1.5032	47.028594	0.000497	4.966077	1.682553	-0.000199
 968	9.6216e+01	1.4647	46.863072	0.000416	4.155289	1.407850	-0.000166
 969	9.6316e+01	1.4197	46.673326	0.000476	4.763380	1.613877	-0.000191
 970	9.6415e+01	1.3828	46.479544	0.000486	4.864729	1.648215	-0.000195
 971	9.6515e+01	1.3460	46.269613	0.000527	5.270123	1.785566	-0.000211
 972	9.6615e+01	1.3074	46.079867	0.000476	4.763380	1.613877	-0.000191
 973	9.6714e+01	1.2593	45.882048	0.000497	4.966077	1.682553	-0.000199
 974	9.6814e+01	1.2208	45.700377	0.000456	4.560683	1.545201	-0.000183
 975	9.6913e+01	1.1871	45.482371	0.000547	5.472820	1.854242	-0.000219
 976	9.7013e+01	1.1454	45.260329	0.000557	5.574168	1.888579	-0.000223
 977	9.7112e+01	1.1037	45.070583	0.000476	4.763380	1.613877	-0.000191
 978	9.7212e+01	1.0652	44.872764	0.000497	4.966077	1.682553	-0.000199
 979	9.7311e+01	1.0203	44.699167	0.000436	4.357986	1.476526	-0.000174
 980	9.7410e+01	0.9882	44.481162	0.000547	5.472820	1.854242	-0.000219
 981	9.7510e+01	0.9481	44.291416	0.000476	4.763380	1.613877	-0.000191
 982	9.7609e+01	0.9048	44.097634	0.000486	4.864729	1.648215	-0.000195
 983	9.7709e+01	0.8711	43.879628	0.000547	5.472820	1.854242	-0.000219
 984	9.7808e+01	0.8294	43.653549	0.000568	5.675517	1.922917	-0.000227
 985	9.7908e+01	0.7877	43.496100	0.000395	3.952592	1.339174	-0.000158
 986	9.8007e+01	0.7396	43.294244	0.000507	5.067426	1.716890	-0.000203
 987	9.8107e+01	0.6994	43.080275	0.000537	5.371471	1.819904	-0.000215
 988	9.8207e+01	0.6658	42.862270	0.000547	5.472820	1.854242	-0.000219
 989	9.8306e+01	0.6337	42.668488	0.000486	4.864729	1.648215	-0.000195
 990	9.8406e+01	0.5807	42.502965	0.000416	4.155289	1.407850	-0.000166
 991	9.8505e+01	0.5422	42.305145	0.000497	4.966077	1.682553	-0.000199
 992	9.8605e+01	0.5118	42.103289	0.000507	5.067426	1.716890	-0.000203
 993	9.8704e+01	0.4620	41.877209	0.000568	5.675517	1.922917	-0.000227
 994	9.8803e+01	0.4267	41.683426	0.000486	4.864729	1.648215	-0.000195
 995	9.8903e+01	0.3802	41.493681	0.000476	4.763380	1.613877	-0.000191
 996	9.9002e+01	0.3449	41.287787	0.000517	5.168774	1.751228	-0.000207
 997	9.9102e+01	0.3048	41.094005	0.000486	4.864729	1.648215	-0.000195
 998	9.9201e+01	0.2695	40.884074	0.000527	5.270123	1.785566	-0.000211
 999	9.9301e+01	0.2262	40.690291	0.000486	4.864729	1.648215	-0.000195
1000	9.9400e+01	0.1925	40.468249	0.000557	5.574168	1.888579	-0.000223
1001	9.9500e+01	0.1444	40.322912	0.000365	3.648547	1.236161	-0.000146
1002	9.9600e+01	0.1139	40.060498	0.000659	6.587654	2.231957	-0.000264
1003	9.9699e+01	0.0706	39.878827	0.000456	4.560683	1.545201	-0.000183
1004	9.9799e+01	0.0305	39.668896	0.000527	5.270123	1.785566	-0.000211
1005	9.9898e+01	-0.0016	39.559893	0.000274	2.736410	0.927121	-0.000110
1006	9.9998e+01	-0.0417	39.329776	0.000578	5.776865	1.957255	-0.000231
1007	1.0010e+02	-0.0882	39.135994	0.000486	4.864729	1.648215	-0.000195
1008	1.0020e+02	-0.1203	38.930100	0.000517	5.168774	1.751228	-0.000207
1009	1.0030e+02	-0.1700	38.736317	0.000486	4.864729	1.648215	-0.000195
1010	1.0040e+02	-0.2021	38.538498	0.000497	4.966077	1.682553	-0.000199
1011	1.0050e+02	-0.2342	38.340678	0.000497	4.966077	1.682553	-0.000199
1012	1.0059e+02	-0.2807	38.130747	0.000527	5.270123	1.785566	-0.000211
1013	1.0069e+02	-0.3225	37.932927	0.000497	4.966077	1.682553	-0.000199
1014	1.0079e+02	-0.3626	37.722996	0.000527	5.270123	1.785566	-0.000211
1015	1.0089e+02	-0.4027	37.533251	0.000476	4.763380	1.613877	-0.000191
1016	1.0099e+02	-0.4444	37.335431	0.000497	4.966077	1.682553	-0.000199
1017	1.0109e+02	-0.4797	37.109352	0.000568	5.675517	1.922917	-0.000227
1018	1.0119e+02	-0.5262	36.895384	0.000537	5.371471	1.819904	-0.000215
1019	1.0129e+02	-0.5599	36.701601	0.000486	4.864729	1.648215	-0.000195
1020	1.0139e+02	-0.6016	36.511856	0.000476	4.763380	1.613877	-0.000191
1021	1.0149e+02	-0.6385	36.285776	0.000568	5.675517	1.922917	-0.000227
1022	1.0159e+02	-0.6882	36.087956	0.000497	4.966077	1.682553	-0.000199
1023	1.0169e+02	-0.7203	35.898211	0.000476	4.763380	1.613877	-0.000191
1024	1.0179e+02	-0.7556	35.704428	0.000486	4.864729	1.648215	-0.000195
1025	1.0189e+02	-0.8005	35.502572	0.000507	5.067426	1.716890	-0.000203
1026	1.0199e+02	-0.8422	35.300715	0.000507	5.067426	1.716890	-0.000203
1027	1.0209e+02	-0.8855	35.123081	0.000446	4.459335	1.510864	-0.000179
1028	1.0219e+02	-0.9240	34.892964	0.000578	5.776865	1.957255	-0.000231
1029	1.0229e+02	-0.9641	34.723404	0.000426	4.256638	1.442188	-0.000170
1030	1.0239e+02	-0.9994	34.521548	0.000507	5.067426	1.716890	-0.000203
1031	1.0248e+02	-1.0363	34.287394	0.000588	5.878214	1.991593	-0.000235
1032	1.0258e+02	-1.0829	34.089574	0.000497	4.966077	1.682553	-0.000199
1033	1.0268e+02	-1.1246	33.867532	0.000557	5.574168	1.888579	-0.000223
1034	1.0278e+02	-1.1695	33.681823	0.000466	4.662032	1.579539	-0.000187
1035	1.0288e+02	-1.2048	33.447670	0.000588	5.878214	1.991593	-0.000235
1036	1.0298e+02	-1.2449	33.294258	0.000385	3.851244	1.304837	-0.000154
1037	1.0308e+02	-1.2786	33.096439	0.000497	4.966077	1.682553	-0.000199
1038	1.0318e+02	-1.3283	32.894582	0.000507	5.067426	1.716890	-0.000203
1039	1.0328e+02	-1.3620	32.692725	0.000507	5.067426	1.716890	-0.000203
1040	1.0338e+02	-1.3957	32.454534	0.000598	5.979562	2.025931	-0.000239
1041	1.0348e+02	-1.4406	32.260752	0.000486	4.864729	1.648215	-0.000195
1042	1.0358e+02	-1.4727	32.058895	0.000507	5.067426	1.716890	-0.000203
1043	1.0368e+02	-1.5208	31.881261	0.000446	4.459335	1.510864	-0.000179
1044	1.0378e+02	-1.5641	31.651144	0.000578	5.776865	1.957255	-0.000231
1045	1.0388e+02	-1.5962	31.457362	0.000486	4.864729	1.648215	-0.000195
1046	1.0398e+02	-1.6315	31.211096	0.000618	6.182260	2.094606	-0.000248
1047	1.0408e+02	-1.6748	31.037500	0.000436	4.357986	1.476526	-0.000174
1048	1.0418e+02	-1.7165	30.823531	0.000537	5.371471	1.819904	-0.000215
1049	1.0428e+02	-1.7647	30.617637	0.000517	5.168774	1.751228	-0.000207
1050	1.0438e+02	-1.7967	30.440003	0.000446	4.459335	1.510864	-0.000179
1051	1.0447e+02	-1.8352	30.209887	0.000578	5.776865	1.957255	-0.000231
1052	1.0457e+02	-1.8866	30.012067	0.000497	4.966077	1.682553	-0.000199
1053	1.0467e+02	-1.9187	29.794062	0.000547	5.472820	1.854242	-0.000219
1054	1.0477e+02	-1.9540	29.620465	0.000436	4.357986	1.476526	-0.000174
1055	1.0487e+02	-2.0053	29.438794	0.000456	4.560683	1.545201	-0.000183
1056	1.0497e+02	-2.0310	29.204640	0.000588	5.878214	1.991593	-0.000235
1057	1.0507e+02	-2.0663	28.990672	0.000537	5.371471	1.819904	-0.000215
1058	1.0517e+02	-2.1160	28.788815	0.000507	5.067426	1.716890	-0.000203
1059	1.0527e+02	-2.1577	28.647515	0.000355	3.547198	1.201823	-0.000142
1060	1.0537e+02	-2.1930	28.393176	0.000638	6.384957	2.163282	-0.000256
1061	1.0547e+02	-2.2331	28.219579	0.000436	4.357986	1.476526	-0.000174
1062	1.0557e+02	-2.2812	27.993499	0.000568	5.675517	1.922917	-0.000227
1063	1.0567e+02	-2.3069	27.791642	0.000507	5.067426	1.716890	-0.000203
1064	1.0577e+02	-2.3534	27.593823	0.000497	4.966077	1.682553	-0.000199
1065	1.0587e+02	-2.3871	27.400040	0.000486	4.864729	1.648215	-0.000195
1066	1.0597e+02	-2.4320	27.173961	0.000568	5.675517	1.922917	-0.000227
1067	1.0607e+02	-2.4737	27.016512	0.000395	3.952592	1.339174	-0.000158
1068	1.0617e+02	-2.5170	26.798507	0.000547	5.472820	1.854242	-0.000219
1069	1.0627e+02	-2.5475	26.616836	0.000456	4.560683	1.545201	-0.000183
1070	1.0637e+02	-2.5924	26.366534	0.000628	6.283608	2.128944	-0.000252
1071	1.0647e+02	-2.6406	26.196974	0.000426	4.256638	1.442188	-0.000170
1072	1.0656e+02	-2.6743	25.983006	0.000537	5.371471	1.819904	-0.000215
1073	1.0666e+02	-2.7112	25.797297	0.000466	4.662032	1.579539	-0.000187
1074	1.0676e+02	-2.7529	25.567181	0.000578	5.776865	1.957255	-0.000231
1075	1.0686e+02	-2.7930	25.393584	0.000436	4.357986	1.476526	-0.000174
1076	1.0696e+02	-2.8283	25.175578	0.000547	5.472820	1.854242	-0.000219
1077	1.0706e+02	-2.8732	24.965647	0.000527	5.270123	1.785566	-0.000211
1078	1.0716e+02	-2.9165	24.747642	0.000547	5.472820	1.854242	-0.000219
1079	1.0726e+02	-2.9438	24.553860	0.000486	4.864729	1.648215	-0.000195
1080	1.0736e+02	-2.9919	24.388337	0.000416	4.155289	1.407850	-0.000166
1081	1.0746e+02	-3.0304	24.174369	0.000537	5.371471	1.819904	-0.000215
1082	1.0756e+02	-3.0673	23.964438	0.000527	5.270123	1.785566	-0.000211
1083	1.0766e+02	-3.1154	23.754507	0.000527	5.270123	1.785566	-0.000211
1084	1.0776e+02	-3.1571	23.576873	0.000446	4.459335	1.510864	-0.000179
1085	1.0786e+02	-3.1924	23.370979	0.000517	5.168774	1.751228	-0.000207
1086	1.0796e+02	-3.2325	23.185271	0.000466	4.662032	1.579539	-0.000187
1087	1.0806e+02	-3.2758	22.967265	0.000547	5.472820	1.854242	-0.000219
1088	1.0816e+02	-3.3111	22.761371	0.000517	5.168774	1.751228	-0.000207
1089	1.0826e+02	-3.3545	22.563552	0.000497	4.966077	1.682553	-0.000199
1090	1.0836e+02	-3.3994	22.337472	0.000568	5.675517	1.922917	-0.000227
1091	1.0845e+02	-3.4363	22.171949	0.000416	4.155289	1.407850	-0.000166
1092	1.0855e+02	-3.4587	21.970093	0.000507	5.067426	1.716890	-0.000203
1093	1.0865e+02	-3.5036	21.780347	0.000476	4.763380	1.613877	-0.000191
1094	1.0875e+02	-3.5502	21.562342	0.000547	5.472820	1.854242	-0.000219
1095	1.0885e+02	-3.5806	21.356448	0.000517	5.168774	1.751228	-0.000207
1096	1.0895e+02	-3.6288	21.186888	0.000426	4.256638	1.442188	-0.000170
1097	1.0905e+02	-3.6705	20.980994	0.000517	5.168774	1.751228	-0.000207
1098	1.0915e+02	-3.7074	20.779138	0.000507	5.067426	1.716890	-0.000203
1099	1.0925e+02	-3.7539	20.565169	0.000537	5.371471	1.819904	-0.000215
1100	1.0935e+02	-3.7940	20.379461	0.000466	4.662032	1.579539	-0.000187
1101	1.0945e+02	-3.8293	20.189716	0.000476	4.763380	1.613877	-0.000191
1102	1.0955e+02	-3.8742	20.004008	0.000466	4.662032	1.579539	-0.000187
1103	1.0965e+02	-3.9127	19.777928	0.000568	5.675517	1.922917	-0.000227
1104	1.0975e+02	-3.9512	19.588183	0.000476	4.763380	1.613877	-0.000191
1105	1.0985e+02	-3.9865	19.406511	0.000456	4.560683	1.545201	-0.000183
1106	1.0995e+02	-4.0314	19.200618	0.000517	5.168774	1.751228	-0.000207
1107	1.1005e+02	-4.0651	18.994724	0.000517	5.168774	1.751228	-0.000207
1108	1.1015e+02	-4.1100	18.813053	0.000456	4.560683	1.545201	-0.000183
1109	1.1025e+02	-4.1485	18.603121	0.000527	5.270123	1.785566	-0.000211
1110	1.1035e+02	-4.1967	18.425488	0.000446	4.459335	1.510864	-0.000179
1111	1.1044e+02	-4.2207	18.231705	0.000486	4.864729	1.648215	-0.000195
1112	1.1054e+02	-4.2624	18.025811	0.000517	5.168774	1.751228	-0.000207
1113	1.1064e+02	-4.3058	17.832029	0.000486	4.864729	1.648215	-0.000195
1114	1.1074e+02	-4.3587	17.650357	0.000456	4.560683	1.545201	-0.000183
1115	1.1084e+02	-4.4036	17.440426	0.000527	5.270123	1.785566	-0.000211
1116	1.1094e+02	-4.4261	17.274904	0.000416	4.155289	1.407850	-0.000166
1117	1.1104e+02	-4.4726	17.101307	0.000436	4.357986	1.476526	-0.000174
1118	1.1114e+02	-4.5095	16.846967	0.000638	6.384957	2.163282	-0.000256
1119	1.1124e+02	-4.5544	16.697593	0.000375	3.749895	1.270499	-0.000150
1120	1.1134e+02	-4.5753	16.503811	0.000486	4.864729	1.648215	-0.000195
1121	1.1144e+02	-4.6234	16.310028	0.000486	4.864729	1.648215	-0.000195
1122	1.1154e+02	-4.6587	16.075875	0.000588	5.878214	1.991593	-0.000235
1123	1.1164e+02	-4.7036	15.930538	0.000365	3.648547	1.236161	-0.000146
1124	1.1174e+02	-4.7582	15.720607	0.000527	5.270123	1.785566	-0.000211
1125	1.1184e+02	-4.7886	15.518750	0.000507	5.067426	1.716890	-0.000203
1126	1.1194e+02	-4.8191	15.341116	0.000446	4.459335	1.510864	-0.000179
1127	1.1204e+02	-4.8656	15.163482	0.000446	4.459335	1.510864	-0.000179
1128	1.1214e+02	-4.9090	14.981811	0.000456	4.560683	1.545201	-0.000183
1129	1.1224e+02	-4.9410	14.751694	0.000578	5.776865	1.957255	-0.000231
1130	1.1234e+02	-4.9892	14.594246	0.000395	3.952592	1.339174	-0.000158
1131	1.1244e+02	-5.0229	14.352018	0.000608	6.080911	2.060268	-0.000243
1132	1.1253e+02	-5.0630	14.210718	0.000355	3.547198	1.201823	-0.000142
1133	1.1263e+02	-5.1047	14.029047	0.000456	4.560683	1.545201	-0.000183
1134	1.1273e+02	-5.1480	13.794893	0.000588	5.878214	1.991593	-0.000235
1135	1.1283e+02	-5.1865	13.625333	0.000426	4.256638	1.442188	-0.000170
1136	1.1293e+02	-5.2282	13.435588	0.000476	4.763380	1.613877	-0.000191
1137	1.1303e+02	-5.2667	13.290251	0.000365	3.648547	1.236161	-0.000146
1138	1.1313e+02	-5.3020	13.084357	0.000517	5.168774	1.751228	-0.000207
1139	1.1323e+02	-5.3421	12.882500	0.000507	5.067426	1.716890	-0.000203
1140	1.1333e+02	-5.3790	12.696792	0.000466	4.662032	1.579539	-0.000187
1141	1.1343e+02	-5.4223	12.523195	0.000436	4.357986	1.476526	-0.000174
1142	1.1353e+02	-5.4656	12.309227	0.000537	5.371471	1.819904	-0.000215
1143	1.1363e+02	-5.5025	12.147741	0.000405	4.053941	1.373512	-0.000162
1144	1.1373e+02	-5.5490	11.933773	0.000537	5.371471	1.819904	-0.000215
1145	1.1383e+02	-5.5924	11.752102	0.000456	4.560683	1.545201	-0.000183
1146	1.1393e+02	-5.6180	11.574468	0.000446	4.459335	1.510864	-0.000179
1147	1.1403e+02	-5.6581	11.400871	0.000436	4.357986	1.476526	-0.000174
1148	1.1413e+02	-5.7063	11.207089	0.000486	4.864729	1.648215	-0.000195
1149	1.1423e+02	-5.7415	11.017343	0.000476	4.763380	1.613877	-0.000191
1150	1.1433e+02	-5.7897	10.823561	0.000486	4.864729	1.648215	-0.000195
1151	1.1442e+02	-5.8218	10.670150	0.000385	3.851244	1.304837	-0.000154
1152	1.1452e+02	-5.8587	10.472330	0.000497	4.966077	1.682553	-0.000199
1153	1.1462e+02	-5.9084	10.254325	0.000547	5.472820	1.854242	-0.000219
1154	1.1472e+02	-5.9437	10.088802	0.000416	4.155289	1.407850	-0.000166
1155	1.1482e+02	-5.9822	9.890983	0.000497	4.966077	1.682553	-0.000199
1156	1.1492e+02	-6.0207	9.681051	0.000527	5.270123	1.785566	-0.000211
1157	1.1502e+02	-6.0624	9.555900	0.000314	3.141804	1.064472	-0.000126
1158	1.1512e+02	-6.1041	9.358081	0.000497	4.966077	1.682553	-0.000199
1159	1.1522e+02	-6.1442	9.220818	0.000345	3.445850	1.167485	-0.000138
1160	1.1532e+02	-6.1779	8.994738	0.000568	5.675517	1.922917	-0.000227
1161	1.1542e+02	-6.2244	8.853439	0.000355	3.547198	1.201823	-0.000142
1162	1.1552e+02	-6.2565	8.643508	0.000527	5.270123	1.785566	-0.000211
1163	1.1562e+02	-6.3014	8.437614	0.000517	5.168774	1.751228	-0.000207
1164	1.1572e+02	-6.3431	8.280165	0.000395	3.952592	1.339174	-0.000158
1165	1.1582e+02	-6.3800	8.122717	0.000395	3.952592	1.339174	-0.000158
1166	1.1592e+02	-6.4153	7.941046	0.000456	4.560683	1.545201	-0.000183
1167	1.1602e+02	-6.4651	7.739189	0.000507	5.067426	1.716890	-0.000203
1168	1.1612e+02	-6.4907	7.573667	0.000416	4.155289	1.407850	-0.000166
1169	1.1622e+02	-6.5308	7.404107	0.000426	4.256638	1.442188	-0.000170
1170	1.1632e+02	-6.5741	7.238584	0.000416	4.155289	1.407850	-0.000166
1171	1.1642e+02	-6.6126	7.089210	0.000375	3.749895	1.270499	-0.000150
1172	1.1651e+02	-6.6640	6.903502	0.000466	4.662032	1.579539	-0.000187
1173	1.1661e+02	-6.7009	6.717794	0.000466	4.662032	1.579539	-0.000187
1174	1.1671e+02	-6.7330	6.564383	0.000385	3.851244	1.304837	-0.000154
1175	1.1681e+02	-6.7843	6.354452	0.000527	5.270123	1.785566	-0.000211
1176	1.1691e+02	-6.8180	6.192966	0.000405	4.053941	1.373512	-0.000162
1177	1.1701e+02	-6.8501	6.019369	0.000436	4.357986	1.476526	-0.000174
1178	1.1711e+02	-6.8934	5.869995	0.000375	3.749895	1.270499	-0.000150
1179	1.1721e+02	-6.9367	5.672176	0.000497	4.966077	1.682553	-0.000199
1180	1.1731e+02	-6.9688	5.514727	0.000395	3.952592	1.339174	-0.000158
1181	1.1741e+02	-7.0185	5.316908	0.000497	4.966077	1.682553	-0.000199
1182	1.1751e+02	-7.0586	5.155422	0.000405	4.053941	1.373512	-0.000162
1183	1.1761e+02	-7.0907	4.933380	0.000557	5.574168	1.888579	-0.000223
1184	1.1771e+02	-7.1388	4.775932	0.000395	3.952592	1.339174	-0.000158
1185	1.1781e+02	-7.1838	4.642706	0.000334	3.344501	1.133148	-0.000134
1186	1.1791e+02	-7.2094	4.448924	0.000486	4.864729	1.648215	-0.000195
1187	1.1801e+02	-7.2543	4.251104	0.000497	4.966077	1.682553	-0.000199
1188	1.1811e+02	-7.2977	4.105767	0.000365	3.648547	1.236161	-0.000146
1189	1.1821e+02	-7.3329	3.940244	0.000416	4.155289	1.407850	-0.000166
1190	1.1831e+02	-7.3779	3.722239	0.000547	5.472820	1.854242	-0.000219
1191	1.1841e+02	-7.4148	3.568828	0.000385	3.851244	1.304837	-0.000154
1192	1.1850e+02	-7.4565	3.371008	0.000497	4.966077	1.682553	-0.000199
1193	1.1860e+02	-7.4998	3.237783	0.000334	3.344501	1.133148	-0.000134
1194	1.1870e+02	-7.5383	3.068223	0.000426	4.256638	1.442188	-0.000170
1195	1.1880e+02	-7.5720	2.870404	0.000497	4.966077	1.682553	-0.000199
1196	1.1890e+02	-7.6121	2.700844	0.000426	4.256638	1.442188	-0.000170
1197	1.1900e+02	-7.6522	2.547433	0.000385	3.851244	1.304837	-0.000154
1198	1.1910e+02	-7.6939	2.373836	0.000436	4.357986	1.476526	-0.000174
1199	1.1920e+02	-7.7324	2.236573	0.000345	3.445850	1.167485	-0.000138
1200	1.1930e+02	-7.7725	2.006456	0.000578	5.776865	1.957255	-0.000231
1201	1.1940e+02	-7.8222	1.877268	0.000324	3.243153	1.098810	-0.000130
1202	1.1950e+02	-7.8511	1.731931	0.000365	3.648547	1.236161	-0.000146
1203	1.1960e+02	-7.8864	1.526037	0.000517	5.168774	1.751228	-0.000207
1204	1.1970e+02	-7.9313	1.348403	0.000446	4.459335	1.510864	-0.000179
1205	1.1980e+02	-7.9650	1.186918	0.000405	4.053941	1.373512	-0.000162
1206	1.1990e+02	-8.0164	1.053692	0.000334	3.344501	1.133148	-0.000134
1207	1.2000e+02	-8.0516	0.851836	0.000507	5.067426	1.716890	-0.000203
1208	1.2010e+02	-8.0821	0.694387	0.000395	3.952592	1.339174	-0.000158
1209	1.2020e+02	-8.1286	0.540976	0.000385	3.851244	1.304837	-0.000154
1210	1.2030e+02	-8.1623	0.322971	0.000547	5.472820	1.854242	-0.000219
1211	1.2039e+02	-8.2089	0.222042	0.000253	2.533713	0.858445	-0.000101
1212	1.2049e+02	-8.2506	0.040371	0.000456	4.560683	1.545201	-0.000183
1213	1.2059e+02	-8.2859	-0.157448	0.000497	4.966077	1.682553	-0.000199
1214	1.2069e+02	-8.3324	-0.310859	0.000385	3.851244	1.304837	-0.000154
1215	1.2079e+02	-8.3677	-0.480419	0.000426	4.256638	1.442188	-0.000170
1216	1.2089e+02	-8.4126	-0.629793	0.000375	3.749895	1.270499	-0.000150
1217	1.2099e+02	-8.4575	-0.811464	0.000456	4.560683	1.545201	-0.000183
1218	1.2109e+02	-8.5024	-0.997173	0.000466	4.662032	1.579539	-0.000187
1219	1.2119e+02	-8.5265	-1.138472	0.000355	3.547198	1.201823	-0.000142
1220	1.2129e+02	-8.5778	-1.344366	0.000517	5.168774	1.751228	-0.000207
1221	1.2139e+02	-8.6019	-1.489703	0.000365	3.648547	1.236161	-0.000146
1222	1.2149e+02	-8.6404	-1.679448	0.000476	4.763380	1.613877	-0.000191
1223	1.2159e+02	-8.6805	-1.816711	0.000345	3.445850	1.167485	-0.000138
1224	1.2169e+02	-8.7270	-1.982234	0.000416	4.155289	1.407850	-0.000166
1225	1.2179e+02	-8.7591	-2.111422	0.000324	3.243153	1.098810	-0.000130
1226	1.2189e+02	-8.8008	-2.264833	0.000385	3.851244	1.304837	-0.000154
1227	1.2199e+02	-8.8473	-2.446504	0.000456	4.560683	1.545201	-0.000183
1228	1.2209e+02	-8.8858	-2.624138	0.000446	4.459335	1.510864	-0.000179
1229	1.2219e+02	-8.9292	-2.793698	0.000426	4.256638	1.442188	-0.000170
1230	1.2229e+02	-8.9725	-2.991518	0.000497	4.966077	1.682553	-0.000199
1231	1.2239e+02	-9.0030	-3.112632	0.000304	3.040456	1.030134	-0.000122
1232	1.2248e+02	-9.0543	-3.209523	0.000243	2.432364	0.824107	-0.000097
1233	1.2258e+02	-9.0928	-3.447714	0.000598	5.979562	2.025931	-0.000239
1234	1.2268e+02	-9.1329	-3.617274	0.000426	4.256638	1.442188	-0.000170
1235	1.2278e+02	-9.1778	-3.770685	0.000385	3.851244	1.304837	-0.000154
1236	1.2288e+02	-9.1987	-3.932170	0.000405	4.053941	1.373512	-0.000162
1237	1.2298e+02	-9.2468	-4.101730	0.000426	4.256638	1.442188	-0.000170
1238	1.2308e+02	-9.2805	-4.234955	0.000334	3.344501	1.133148	-0.000134
1239	1.2318e+02	-9.3238	-4.412589	0.000446	4.459335	1.510864	-0.000179
1240	1.2328e+02	-9.3639	-4.553889	0.000355	3.547198	1.201823	-0.000142
1241	1.2338e+02	-9.4072	-4.723449	0.000426	4.256638	1.442188	-0.000170
1242	1.2348e+02	-9.4457	-4.872823	0.000375	3.749895	1.270499	-0.000150
1243	1.2358e+02	-9.4858	-5.054494	0.000456	4.560683	1.545201	-0.000183
1244	1.2368e+02	-9.5259	-5.224054	0.000426	4.256638	1.442188	-0.000170
1245	1.2378e+02	-9.5773	-5.409762	0.000466	4.662032	1.579539	-0.000187
1246	1.2388e+02	-9.6013	-5.538950	0.000324	3.243153	1.098810	-0.000130
1247	1.2398e+02	-9.6527	-5.696399	0.000395	3.952592	1.339174	-0.000158
1248	1.2408e+02	-9.6864	-5.853847	0.000395	3.952592	1.339174	-0.000158
1249	1.2418e+02	-9.7313	-6.067815	0.000537	5.371471	1.819904	-0.000215
1250	1.2428e+02	-9.7714	-6.184892	0.000294	2.939107	0.995796	-0.000118
1251	1.2438e+02	-9.8067	-6.390786	0.000517	5.168774	1.751228	-0.000207
1252	1.2447e+02	-9.8404	-6.564383	0.000436	4.357986	1.476526	-0.000174
1253	1.2457e+02	-9.8837	-6.713757	0.000375	3.749895	1.270499	-0.000150
1254	1.2467e+02	-9.9222	-6.879279	0.000416	4.155289	1.407850	-0.000166
1255	1.2477e+02	-9.9623	-7.036728	0.000395	3.952592	1.339174	-0.000158
1256	1.2487e+02	-10.0040	-7.214362	0.000446	4.459335	1.510864	-0.000179
1257	1.2497e+02	-10.0457	-7.400070	0.000466	4.662032	1.579539	-0.000187
1258	1.2507e+02	-10.0906	-7.517147	0.000294	2.939107	0.995796	-0.000118
1259	1.2517e+02	-10.1195	-7.702855	0.000466	4.662032	1.579539	-0.000187
1260	1.2527e+02	-10.1596	-7.872415	0.000426	4.256638	1.442188	-0.000170
1261	1.2537e+02	-10.2125	-8.041974	0.000426	4.256638	1.442188	-0.000170
1262	1.2547e+02	-10.2414	-8.223645	0.000456	4.560683	1.545201	-0.000183
1263	1.2557e+02	-10.2767	-8.377057	0.000385	3.851244	1.304837	-0.000154
1264	1.2567e+02	-10.3184	-8.522394	0.000365	3.648547	1.236161	-0.000146
1265	1.2577e+02	-10.3569	-8.695990	0.000436	4.357986	1.476526	-0.000174
1266	1.2587e+02	-10.4034	-8.877661	0.000456	4.560683	1.545201	-0.000183
1267	1.2597e+02	-10.4420	-9.031073	0.000385	3.851244	1.304837	-0.000154
1268	1.2607e+02	-10.4821	-9.180447	0.000375	3.749895	1.270499	-0.000150
1269	1.2617e+02	-10.5334	-9.354044	0.000436	4.357986	1.476526	-0.000174
1270	1.2627e+02	-10.5639	-9.515529	0.000405	4.053941	1.373512	-0.000162
1271	1.2636e+02	-10.5976	-9.681051	0.000416	4.155289	1.407850	-0.000166
1272	1.2646e+02	-10.6393	-9.882908	0.000507	5.067426	1.716890	-0.000203
1273	1.2656e+02	-10.6890	-10.020171	0.000345	3.445850	1.167485	-0.000138
1274	1.2666e+02	-10.7195	-10.181656	0.000405	4.053941	1.373512	-0.000162
1275	1.2676e+02	-10.7564	-10.363327	0.000456	4.560683	1.545201	-0.000183
1276	1.2686e+02	-10.8045	-10.512701	0.000375	3.749895	1.270499	-0.000150
1277	1.2696e+02	-10.8462	-10.694373	0.000456	4.560683	1.545201	-0.000183
1278	1.2706e+02	-10.8767	-10.851821	0.000395	3.952592	1.339174	-0.000158
1279	1.2716e+02	-10.9120	-11.017343	0.000416	4.155289	1.407850	-0.000166
1280	1.2726e+02	-10.9585	-11.174792	0.000395	3.952592	1.339174	-0.000158
1281	1.2736e+02	-11.0050	-11.332240	0.000395	3.952592	1.339174	-0.000158
1282	1.2746e+02	-11.0323	-11.517948	0.000466	4.662032	1.579539	-0.000187
1283	1.2756e+02	-11.0804	-11.675397	0.000395	3.952592	1.339174	-0.000158
1284	1.2766e+02	-11.1125	-11.848993	0.000436	4.357986	1.476526	-0.000174
1285	1.2776e+02	-11.1687	-11.990293	0.000355	3.547198	1.201823	-0.000142
1286	1.2786e+02	-11.1943	-12.212336	0.000557	5.574168	1.888579	-0.000223
1287	1.2796e+02	-11.2409	-12.357672	0.000365	3.648547	1.236161	-0.000146
1288	1.2806e+02	-11.2890	-12.519158	0.000405	4.053941	1.373512	-0.000162
1289	1.2816e+02	-11.3227	-12.696792	0.000446	4.459335	1.510864	-0.000179
1290	1.2826e+02	-11.3483	-12.850203	0.000385	3.851244	1.304837	-0.000154
1291	1.2835e+02	-11.4029	-13.015726	0.000416	4.155289	1.407850	-0.000166
1292	1.2845e+02	-11.4462	-13.152988	0.000345	3.445850	1.167485	-0.000138
1293	1.2855e+02	-11.4911	-13.318511	0.000416	4.155289	1.407850	-0.000166
1294	1.2865e+02	-11.5168	-13.504219	0.000466	4.662032	1.579539	-0.000187
1295	1.2875e+02	-11.5633	-13.702039	0.000497	4.966077	1.682553	-0.000199
1296	1.2885e+02	-11.5986	-13.774707	0.000182	1.824273	0.618081	-0.000073
1297	1.2895e+02	-11.6371	-14.045195	0.000679	6.790351	2.300633	-0.000272
1298	1.2905e+02	-11.6788	-14.162272	0.000294	2.939107	0.995796	-0.000118
1299	1.2915e+02	-11.7125	-14.343943	0.000456	4.560683	1.545201	-0.000183
1300	1.2925e+02	-11.7687	-14.533689	0.000476	4.763380	1.613877	-0.000191
1301	1.2935e+02	-11.8023	-14.699211	0.000416	4.155289	1.407850	-0.000166
1302	1.2945e+02	-11.8360	-14.856660	0.000395	3.952592	1.339174	-0.000158
1303	1.2955e+02	-11.8793	-15.038331	0.000456	4.560683	1.545201	-0.000183
1304	1.2965e+02	-11.9162	-15.163482	0.000314	3.141804	1.064472	-0.000126
1305	1.2975e+02	-11.9580	-15.353227	0.000476	4.763380	1.613877	-0.000191
1306	1.2985e+02	-11.9981	-15.526824	0.000436	4.357986	1.476526	-0.000174
1307	1.2995e+02	-12.0317	-15.680235	0.000385	3.851244	1.304837	-0.000154
1308	1.3005e+02	-12.0751	-15.853832	0.000436	4.357986	1.476526	-0.000174
1309	1.3015e+02	-12.1104	-16.055689	0.000507	5.067426	1.716890	-0.000203
1310	1.3025e+02	-12.1553	-16.160654	0.000264	2.635061	0.892783	-0.000105
1311	1.3034e+02	-12.2018	-16.370585	0.000527	5.270123	1.785566	-0.000211
1312	1.3044e+02	-12.2355	-16.552257	0.000456	4.560683	1.545201	-0.000183
1313	1.3054e+02	-12.2868	-16.669333	0.000294	2.939107	0.995796	-0.000118
1314	1.3064e+02	-12.3157	-16.855042	0.000466	4.662032	1.579539	-0.000187
1315	1.3074e+02	-12.3478	-17.036713	0.000456	4.560683	1.545201	-0.000183
1316	1.3084e+02	-12.3911	-17.238570	0.000507	5.067426	1.716890	-0.000203
1317	1.3094e+02	-12.4344	-17.408129	0.000426	4.256638	1.442188	-0.000170
1318	1.3104e+02	-12.4729	-17.549429	0.000355	3.547198	1.201823	-0.000142
1319	1.3114e+02	-12.5082	-17.727063	0.000446	4.459335	1.510864	-0.000179
1320	1.3124e+02	-12.5579	-17.908734	0.000456	4.560683	1.545201	-0.000183
1321	1.3134e+02	-12.5996	-18.086368	0.000446	4.459335	1.510864	-0.000179
1322	1.3144e+02	-12.6333	-18.272076	0.000466	4.662032	1.579539	-0.000187
1323	1.3154e+02	-12.6718	-18.445673	0.000436	4.357986	1.476526	-0.000174
1324	1.3164e+02	-12.7151	-18.611196	0.000416	4.155289	1.407850	-0.000166
1325	1.3174e+02	-12.7488	-18.748458	0.000345	3.445850	1.167485	-0.000138
1326	1.3184e+02	-12.7905	-18.913981	0.000416	4.155289	1.407850	-0.000166
1327	1.3194e+02	-12.8403	-19.087578	0.000436	4.357986	1.476526	-0.000174
1328	1.3204e+02	-12.8740	-19.269249	0.000456	4.560683	1.545201	-0.000183
1329	1.3214e+02	-12.9077	-19.410549	0.000355	3.547198	1.201823	-0.000142
1330	1.3224e+02	-12.9542	-19.600294	0.000476	4.763380	1.613877	-0.000191
1331	1.3234e+02	-12.9927	-19.802151	0.000507	5.067426	1.716890	-0.000203
1332	1.3243e+02	-13.0216	-19.963636	0.000405	4.053941	1.373512	-0.000162
1333	1.3253e+02	-13.0729	-20.117047	0.000385	3.851244	1.304837	-0.000154
1334	1.3263e+02	-13.1098	-20.310830	0.000486	4.864729	1.648215	-0.000195
1335	1.3273e+02	-13.1515	-20.480390	0.000426	4.256638	1.442188	-0.000170
1336	1.3283e+02	-13.1868	-20.658024	0.000446	4.459335	1.510864	-0.000179
1337	1.3293e+02	-13.2301	-20.807398	0.000375	3.749895	1.270499	-0.000150
1338	1.3303e+02	-13.2686	-20.980994	0.000436	4.357986	1.476526	-0.000174
1339	1.3313e+02	-13.3151	-21.178814	0.000497	4.966077	1.682553	-0.000199
1340	1.3323e+02	-13.3472	-21.324151	0.000365	3.648547	1.236161	-0.000146
1341	1.3333e+02	-13.3905	-21.489674	0.000416	4.155289	1.407850	-0.000166
1342	1.3343e+02	-13.4242	-21.699605	0.000527	5.270123	1.785566	-0.000211
1343	1.3353e+02	-13.4723	-21.861090	0.000405	4.053941	1.373512	-0.000162
1344	1.3363e+02	-13.5157	-22.006427	0.000365	3.648547	1.236161	-0.000146
1345	1.3373e+02	-13.5494	-22.228469	0.000557	5.574168	1.888579	-0.000223
1346	1.3383e+02	-13.5862	-22.410140	0.000456	4.560683	1.545201	-0.000183
1347	1.3393e+02	-13.6280	-22.531255	0.000304	3.040456	1.030134	-0.000122
1348	1.3403e+02	-13.6681	-22.741186	0.000527	5.270123	1.785566	-0.000211
1349	1.3413e+02	-13.7050	-22.955154	0.000537	5.371471	1.819904	-0.000215
1350	1.3423e+02	-13.7467	-23.088379	0.000334	3.344501	1.133148	-0.000134
1351	1.3432e+02	-13.7980	-23.261976	0.000436	4.357986	1.476526	-0.000174
1352	1.3442e+02	-13.8365	-23.463833	0.000507	5.067426	1.716890	-0.000203
1353	1.3452e+02	-13.8654	-23.633393	0.000426	4.256638	1.442188	-0.000170
1354	1.3462e+02	-13.9135	-23.815064	0.000456	4.560683	1.545201	-0.000183
1355	1.3472e+02	-13.9408	-23.968475	0.000385	3.851244	1.304837	-0.000154
1356	1.3482e+02	-13.9809	-24.194554	0.000568	5.675517	1.922917	-0.000227
1357	1.3492e+02	-14.0274	-24.368151	0.000436	4.357986	1.476526	-0.000174
1358	1.3502e+02	-14.0675	-24.549822	0.000456	4.560683	1.545201	-0.000183
1359	1.3512e+02	-14.0996	-24.723419	0.000436	4.357986	1.476526	-0.000174
1360	1.3522e+02	-14.1558	-24.892979	0.000426	4.256638	1.442188	-0.000170
1361	1.3532e+02	-14.1830	-25.110984	0.000547	5.472820	1.854242	-0.000219
1362	1.3542e+02	-14.2344	-25.308804	0.000497	4.966077	1.682553	-0.000199
1363	1.3552e+02	-14.2664	-25.458178	0.000375	3.749895	1.270499	-0.000150
1364	1.3562e+02	-14.3130	-25.643886	0.000466	4.662032	1.579539	-0.000187
1365	1.3572e+02	-14.3450	-25.817483	0.000436	4.357986	1.476526	-0.000174
1366	1.3582e+02	-14.3803	-25.983006	0.000416	4.155289	1.407850	-0.000166
1367	1.3592e+02	-14.4317	-26.192937	0.000527	5.270123	1.785566	-0.000211
1368	1.3602e+02	-14.4718	-26.410942	0.000547	5.472820	1.854242	-0.000219
1369	1.3612e+02	-14.5071	-26.572427	0.000405	4.053941	1.373512	-0.000162
1370	1.3622e+02	-14.5456	-26.766210	0.000486	4.864729	1.648215	-0.000195
1371	1.3631e+02	-14.5809	-26.947881	0.000456	4.560683	1.545201	-0.000183
1372	1.3641e+02	-14.6274	-27.117441	0.000426	4.256638	1.442188	-0.000170
1373	1.3651e+02	-14.6659	-27.343520	0.000568	5.675517	1.922917	-0.000227
1374	1.3661e+02	-14.7108	-27.517117	0.000436	4.357986	1.476526	-0.000174
1375	1.3671e+02	-14.7461	-27.690714	0.000436	4.357986	1.476526	-0.000174
1376	1.3681e+02	-14.7798	-27.912756	0.000557	5.574168	1.888579	-0.000223
1377	1.3691e+02	-14.8247	-28.098465	0.000466	4.662032	1.579539	-0.000187
1378	1.3701e+02	-14.8600	-28.308396	0.000527	5.270123	1.785566	-0.000211
1379	1.3711e+02	-14.9033	-28.465844	0.000395	3.952592	1.339174	-0.000158
1380	1.3721e+02	-14.9482	-28.683849	0.000547	5.472820	1.854242	-0.000219
1381	1.3731e+02	-14.9900	-28.845335	0.000405	4.053941	1.373512	-0.000162
1382	1.3741e+02	-15.0236	-29.055266	0.000527	5.270123	1.785566	-0.000211
1383	1.3751e+02	-15.0686	-29.297494	0.000608	6.080911	2.060268	-0.000243
1384	1.3761e+02	-15.0990	-29.463017	0.000416	4.155289	1.407850	-0.000166
1385	1.3771e+02	-15.1504	-29.644688	0.000456	4.560683	1.545201	-0.000183
1386	1.3781e+02	-15.1793	-29.842507	0.000497	4.966077	1.682553	-0.000199
1387	1.3791e+02	-15.2258	-30.040327	0.000497	4.966077	1.682553	-0.000199
1388	1.3801e+02	-15.2611	-30.238147	0.000497	4.966077	1.682553	-0.000199
1389	1.3811e+02	-15.2932	-30.452115	0.000537	5.371471	1.819904	-0.000215
1390	1.3821e+02	-15.3445	-30.658009	0.000517	5.168774	1.751228	-0.000207
1391	1.3831e+02	-15.3750	-30.880051	0.000557	5.574168	1.888579	-0.000223
1392	1.3840e+02	-15.4247	-31.077871	0.000497	4.966077	1.682553	-0.000199
1393	1.3850e+02	-15.4648	-31.267616	0.000476	4.763380	1.613877	-0.000191
1394	1.3860e+02	-15.5129	-31.489659	0.000557	5.574168	1.888579	-0.000223
1395	1.3870e+02	-15.5482	-31.643070	0.000385	3.851244	1.304837	-0.000154
1396	1.3880e+02	-15.5867	-31.865112	0.000557	5.574168	1.888579	-0.000223
1397	1.3890e+02	-15.6284	-32.099266	0.000588	5.878214	1.991593	-0.000235
1398	1.3900e+02	-15.6621	-32.293049	0.000486	4.864729	1.648215	-0.000195
1399	1.3910e+02	-15.7086	-32.498943	0.000517	5.168774	1.751228	-0.000207
1400	1.3920e+02	-15.7391	-32.749245	0.000628	6.283608	2.128944	-0.000252
1401	1.3930e+02	-15.7792	-32.886508	0.000345	3.445850	1.167485	-0.000138
1402	1.3940e+02	-15.8161	-33.144884	0.000649	6.486305	2.197620	-0.000260
1403	1.3950e+02	-15.8546	-33.330593	0.000466	4.662032	1.579539	-0.000187
1404	1.3960e+02	-15.8979	-33.560709	0.000578	5.776865	1.957255	-0.000231
1405	1.3970e+02	-15.9509	-33.786789	0.000568	5.675517	1.922917	-0.000227
1406	1.3980e+02	-15.9733	-33.996720	0.000527	5.270123	1.785566	-0.000211
1407	1.3990e+02	-16.0199	-34.210688	0.000537	5.371471	1.819904	-0.000215
1408	1.4000e+02	-16.0616	-34.400434	0.000476	4.763380	1.613877	-0.000191
1409	1.4010e+02	-16.1017	-34.638625	0.000598	5.979562	2.025931	-0.000239
1410	1.4020e+02	-16.1402	-34.864704	0.000568	5.675517	1.922917	-0.000227
1411	1.4029e+02	-16.1947	-35.082710	0.000547	5.472820	1.854242	-0.000219
1412	1.4039e+02	-16.2204	-35.316863	0.000588	5.878214	1.991593	-0.000235
1413	1.4049e+02	-16.2621	-35.510646	0.000486	4.864729	1.648215	-0.000195
1414	1.4059e+02	-16.3038	-35.777097	0.000669	6.689002	2.266295	-0.000268
1415	1.4069e+02	-16.3423	-35.999139	0.000557	5.574168	1.888579	-0.000223
1416	1.4079e+02	-16.3728	-36.213108	0.000537	5.371471	1.819904	-0.000215
1417	1.4089e+02	-16.4257	-36.467447	0.000638	6.384957	2.163282	-0.000256
1418	1.4099e+02	-16.4658	-36.713712	0.000618	6.182260	2.094606	-0.000248
1419	1.4109e+02	-16.4947	-36.899421	0.000466	4.662032	1.579539	-0.000187
1420	1.4119e+02	-16.5445	-37.165872	0.000669	6.689002	2.266295	-0.000268
1421	1.4129e+02	-16.5733	-37.444434	0.000699	6.993048	2.369309	-0.000280
1422	1.4139e+02	-16.6150	-37.650328	0.000517	5.168774	1.751228	-0.000207
1423	1.4149e+02	-16.6567	-37.904667	0.000638	6.384957	2.163282	-0.000256
1424	1.4159e+02	-16.7065	-38.138821	0.000588	5.878214	1.991593	-0.000235
1425	1.4169e+02	-16.7434	-38.393161	0.000638	6.384957	2.163282	-0.000256
1426	1.4179e+02	-16.7739	-38.647500	0.000638	6.384957	2.163282	-0.000256
1427	1.4189e+02	-16.8156	-38.857431	0.000527	5.270123	1.785566	-0.000211
1428	1.4199e+02	-16.8557	-39.135994	0.000699	6.993048	2.369309	-0.000280
1429	1.4209e+02	-16.8926	-39.374185	0.000598	5.979562	2.025931	-0.000239
1430	1.4219e+02	-16.9359	-39.632562	0.000649	6.486305	2.197620	-0.000260
1431	1.4228e+02	-16.9792	-39.858641	0.000568	5.675517	1.922917	-0.000227
1432	1.4238e+02	-17.0161	-40.104906	0.000618	6.182260	2.094606	-0.000248
1433	1.4248e+02	-17.0594	-40.355209	0.000628	6.283608	2.128944	-0.000252
1434	1.4258e+02	-17.0931	-40.621660	0.000669	6.689002	2.266295	-0.000268
1435	1.4268e+02	-17.1444	-40.896185	0.000689	6.891699	2.334971	-0.000276
1436	1.4278e+02	-17.1749	-41.158599	0.000659	6.587654	2.231957	-0.000264
1437	1.4288e+02	-17.2166	-41.433124	0.000689	6.891699	2.334971	-0.000276
1438	1.4298e+02	-17.2631	-41.695538	0.000659	6.587654	2.231957	-0.000264
1439	1.4308e+02	-17.2952	-41.941803	0.000618	6.182260	2.094606	-0.000248
1440	1.4318e+02	-17.3418	-42.236514	0.000740	7.398442	2.506660	-0.000296
1441	1.4328e+02	-17.3787	-42.462594	0.000568	5.675517	1.922917	-0.000227
1442	1.4338e+02	-17.4091	-42.765379	0.000760	7.601139	2.575336	-0.000304
1443	1.4348e+02	-17.4573	-42.991458	0.000568	5.675517	1.922917	-0.000227
1444	1.4358e+02	-17.4990	-43.270021	0.000699	6.993048	2.369309	-0.000280
1445	1.4368e+02	-17.5327	-43.580880	0.000780	7.803836	2.644011	-0.000312
1446	1.4378e+02	-17.5808	-43.911925	0.000831	8.310578	2.815700	-0.000333
1447	1.4388e+02	-17.6129	-44.125894	0.000537	5.371471	1.819904	-0.000215
1448	1.4398e+02	-17.6626	-44.412530	0.000720	7.195745	2.437984	-0.000288
1449	1.4408e+02	-17.6947	-44.719353	0.000770	7.702487	2.609673	-0.000308
1450	1.4418e+02	-17.7220	-45.022138	0.000760	7.601139	2.575336	-0.000304
1451	1.4428e+02	-17.7653	-45.292626	0.000679	6.790351	2.300633	-0.000272
1452	1.4437e+02	-17.8134	-45.583300	0.000730	7.297093	2.472322	-0.000292
1453	1.4447e+02	-17.8583	-45.882048	0.000750	7.499790	2.540998	-0.000300
1454	1.4457e+02	-17.8904	-46.180796	0.000750	7.499790	2.540998	-0.000300
1455	1.4467e+02	-17.9385	-46.467432	0.000720	7.195745	2.437984	-0.000288
1456	1.4477e+02	-17.9786	-46.798477	0.000831	8.310578	2.815700	-0.000333
1457	1.4487e+02	-18.0171	-47.089151	0.000730	7.297093	2.472322	-0.000292
1458	1.4497e+02	-18.0476	-47.395974	0.000770	7.702487	2.609673	-0.000308
1459	1.4507e+02	-18.1006	-47.727019	0.000831	8.310578	2.815700	-0.000333
1460	1.4517e+02	-18.1342	-47.997507	0.000679	6.790351	2.300633	-0.000272
1461	1.4527e+02	-18.1695	-48.344700	0.000872	8.715972	2.953051	-0.000349
1462	1.4537e+02	-18.2177	-48.699968	0.000892	8.918669	3.021727	-0.000357
1463	1.4547e+02	-18.2481	-48.994679	0.000740	7.398442	2.506660	-0.000296
1464	1.4557e+02	-18.2995	-49.325724	0.000831	8.310578	2.815700	-0.000333
1465	1.4567e+02	-18.3235	-49.648695	0.000811	8.107881	2.747025	-0.000325
1466	1.4577e+02	-18.3781	-50.003963	0.000892	8.918669	3.021727	-0.000357
1467	1.4587e+02	-18.4246	-50.274451	0.000679	6.790351	2.300633	-0.000272
1468	1.4597e+02	-18.4535	-50.633756	0.000902	9.020018	3.056065	-0.000361
1469	1.4607e+02	-18.4920	-51.033433	0.001003	10.033503	3.399443	-0.000402
1470	1.4617e+02	-18.5321	-51.320070	0.000720	7.195745	2.437984	-0.000288
1471	1.4626e+02	-18.5786	-51.711672	0.000983	9.830806	3.330767	-0.000394
1472	1.4636e+02	-18.6123	-52.030605	0.000801	8.006533	2.712687	-0.000321
1473	1.4646e+02	-18.6492	-52.426245	0.000993	9.932155	3.365105	-0.000398
1474	1.4656e+02	-18.7021	-52.757290	0.000831	8.310578	2.815700	-0.000333
1475	1.4666e+02	-18.7374	-53.124669	0.000922	9.222715	3.124740	-0.000369
1476	1.4676e+02	-18.7647	-53.471863	0.000872	8.715972	2.953051	-0.000349
1477	1.4686e+02	-18.8096	-53.863465	0.000983	9.830806	3.330767	-0.000394
1478	1.4696e+02	-18.8545	-54.210659	0.000872	8.715972	2.953051	-0.000349
1479	1.4706e+02	-18.8898	-54.602261	0.000983	9.830806	3.330767	-0.000394
1480	1.4716e+02	-18.9251	-54.957529	0.000892	8.918669	3.021727	-0.000357
1481	1.4726e+02	-18.9701	-55.349131	0.000983	9.830806	3.330767	-0.000394
1482	1.4736e+02	-19.0102	-55.748807	0.001003	10.033503	3.399443	-0.000402
1483	1.4746e+02	-19.0503	-56.180781	0.001084	10.844291	3.674145	-0.000434
1484	1.4756e+02	-19.0984	-56.527975	0.000872	8.715972	2.953051	-0.000349
1485	1.4766e+02	-19.1289	-56.939762	0.001034	10.337549	3.502456	-0.000414
1486	1.4776e+02	-19.1690	-57.323290	0.000963	9.628109	3.262092	-0.000385
1487	1.4786e+02	-19.2171	-57.731041	0.001024	10.236200	3.468119	-0.000410
1488	1.4796e+02	-19.2524	-58.150903	0.001054	10.540246	3.571132	-0.000422
1489	1.4806e+02	-19.2925	-58.603062	0.001135	11.351034	3.845834	-0.000454
1490	1.4816e+02	-19.3246	-59.026962	0.001064	10.641594	3.605470	-0.000426
1491	1.4825e+02	-19.3695	-59.426638	0.001003	10.033503	3.399443	-0.000402
1492	1.4835e+02	-19.4016	-59.862649	0.001095	10.945640	3.708483	-0.000438
1493	1.4845e+02	-19.4481	-60.230028	0.000922	9.222715	3.124740	-0.000369
1494	1.4855e+02	-19.4882	-60.706410	0.001196	11.959125	4.051861	-0.000479
1495	1.4865e+02	-19.5219	-61.158569	0.001135	11.351034	3.845834	-0.000454
1496	1.4875e+02	-19.5652	-61.562283	0.001013	10.134852	3.433781	-0.000406
1497	1.4885e+02	-19.6037	-62.034628	0.001186	11.857776	4.017523	-0.000475
1498	1.4895e+02	-19.6374	-62.506973	0.001186	11.857776	4.017523	-0.000475
1499	1.4905e+02	-19.6823	-62.926835	0.001054	10.540246	3.571132	-0.000422
1500	1.4915e+02	-19.7321	-63.403217	0.001196	11.959125	4.051861	-0.000479
1501	1.4925e+02	-19.7641	-63.899784	0.001247	12.465868	4.223550	-0.000499
1502	1.4935e+02	-19.8010	-64.335795	0.001095	10.945640	3.708483	-0.000438
1503	1.4945e+02	-19.8476	-64.848511	0.001287	12.871262	4.360901	-0.000515
1504	1.4955e+02	-19.8829	-65.308745	0.001155	11.553731	3.914510	-0.000463
1505	1.4965e+02	-19.9230	-65.748793	0.001105	11.046988	3.742821	-0.000442
1506	1.4975e+02	-19.9663	-66.297843	0.001378	13.783398	4.669942	-0.000552
1507	1.4985e+02	-20.0080	-66.766151	0.001176	11.756428	3.983186	-0.000471
1508	1.4995e+02	-19.9631	-67.077010	-0.000780	-7.803836	-2.644011	-0.000312
1509	1.5005e+02	-19.9214	-67.286941	-0.000527	-5.270123	-1.785566	-0.000211
1510	1.5015e+02	-19.8925	-67.561467	-0.000689	-6.891699	-2.334971	-0.000276
1511	1.5025e+02	-19.8428	-67.819843	-0.000649	-6.486305	-2.197620	-0.000260
1512	1.5034e+02	-19.8139	-68.074183	-0.000638	-6.384957	-2.163282	-0.000256
1513	1.5044e+02	-19.7754	-68.280077	-0.000517	-5.168774	-1.751228	-0.000207
1514	1.5054e+02	-19.7273	-68.473859	-0.000486	-4.864729	-1.648215	-0.000195
1515	1.5064e+02	-19.6839	-68.671679	-0.000497	-4.966077	-1.682553	-0.000199
1516	1.5074e+02	-19.6502	-68.796830	-0.000314	-3.141804	-1.064472	-0.000126
1517	1.5084e+02	-19.6037	-68.966390	-0.000426	-4.256638	-1.442188	-0.000170
1518	1.5094e+02	-19.5620	-69.200544	-0.000588	-5.878214	-1.991593	-0.000235
1519	1.5104e+02	-19.5315	-69.285324	-0.000213	-2.128319	-0.721094	-0.000085
1520	1.5114e+02	-19.4850	-69.458920	-0.000436	-4.357986	-1.476526	-0.000174
1521	1.5124e+02	-19.4497	-69.588109	-0.000324	-3.243153	-1.098810	-0.000130
1522	1.5134e+02	-19.4032	-69.697111	-0.000274	-2.736410	-0.927121	-0.000110
1523	1.5144e+02	-19.3727	-69.830337	-0.000334	-3.344501	-1.133148	-0.000134
1524	1.5154e+02	-19.3230	-69.951451	-0.000304	-3.040456	-1.030134	-0.000122
1525	1.5164e+02	-19.2925	-70.076602	-0.000314	-3.141804	-1.064472	-0.000126
1526	1.5174e+02	-19.2556	-70.165419	-0.000223	-2.229667	-0.755432	-0.000089
1527	1.5184e+02	-19.2107	-70.242125	-0.000193	-1.925622	-0.652418	-0.000077
1528	1.5194e+02	-19.1626	-70.399573	-0.000395	-3.952592	-1.339174	-0.000158
1529	1.5204e+02	-19.1321	-70.419759	-0.000051	-0.506743	-0.171689	-0.000020
1530	1.5214e+02	-19.0920	-70.532798	-0.000284	-2.837758	-0.961459	-0.000114
1531	1.5224e+02	-19.0487	-70.613541	-0.000203	-2.026970	-0.686756	-0.000081
1532	1.5233e+02	-19.0102	-70.657950	-0.000111	-1.114834	-0.377716	-0.000045
1533	1.5243e+02	-18.9701	-70.653913	0.000010	0.101349	0.034338	0.000004
1534	1.5253e+02	-18.9283	-70.775027	-0.000304	-3.040456	-1.030134	-0.000122
1535	1.5263e+02	-18.8866	-70.807324	-0.000081	-0.810788	-0.274702	-0.000032
1536	1.5273e+02	-18.8497	-70.819435	-0.000030	-0.304046	-0.103013	-0.000012
1537	1.5283e+02	-18.8096	-70.879992	-0.000152	-1.520228	-0.515067	-0.000061
1538	1.5293e+02	-18.7647	-70.952661	-0.000182	-1.824273	-0.618081	-0.000073
1539	1.5303e+02	-18.7310	-70.984958	-0.000081	-0.810788	-0.274702	-0.000032
1540	1.5313e+02	-18.6909	-71.045515	-0.000152	-1.520228	-0.515067	-0.000061
1541	1.5323e+02	-18.6492	-71.009180	0.000091	0.912137	0.309040	0.000037
1542	1.5333e+02	-18.6139	-71.053589	-0.000111	-1.114834	-0.377716	-0.000045
1543	1.5343e+02	-18.5658	-71.037440	0.000041	0.405394	0.137351	0.000016
1544	1.5353e+02	-18.5305	-71.102035	-0.000162	-1.621576	-0.549405	-0.000065
1545	1.5363e+02	-18.4920	-71.122220	-0.000051	-0.506743	-0.171689	-0.000020
1546	1.5373e+02	-18.4535	-71.106072	0.000041	0.405394	0.137351	0.000016
1547	1.5383e+02	-18.4134	-71.174703	-0.000172	-1.722925	-0.583743	-0.000069
1548	1.5393e+02	-18.3717	-71.150480	0.000061	0.608091	0.206027	0.000024
1549	1.5403e+02	-18.3316	-71.162592	-0.000030	-0.304046	-0.103013	-0.000012
1550	1.5413e+02	-18.2931	-71.134332	0.000071	0.709440	0.240365	0.000028
1551	1.5422e+02	-18.2481	-71.122220	0.000030	0.304046	0.103013	0.000012
1552	1.5432e+02	-18.2177	-71.182777	-0.000152	-1.520228	-0.515067	-0.000061
1553	1.5442e+02	-18.1727	-71.106072	0.000193	1.925622	0.652418	0.000077
1554	1.5452e+02	-18.1375	-71.138369	-0.000081	-0.810788	-0.274702	-0.000032
1555	1.5462e+02	-18.0941	-71.102035	0.000091	0.912137	0.309040	0.000037
1556	1.5472e+02	-18.0556	-71.077812	0.000061	0.608091	0.206027	0.000024
1557	1.5482e+02	-18.0236	-71.049552	0.000071	0.709440	0.240365	0.000028
1558	1.5492e+02	-17.9706	-71.065700	-0.000041	-0.405394	-0.137351	-0.000016
1559	1.5502e+02	-17.9289	-71.013218	0.000132	1.317531	0.446391	0.000053
1560	1.5512e+02	-17.8952	-70.988995	0.000061	0.608091	0.206027	0.000024
1561	1.5522e+02	-17.8487	-70.960735	0.000071	0.709440	0.240365	0.000028
1562	1.5532e+02	-17.8134	-70.956698	0.000010	0.101349	0.034338	0.000004
1563	1.5542e+02	-17.7781	-70.888066	0.000172	1.722925	0.583743	0.000069
1564	1.5552e+02	-17.7380	-70.859806	0.000071	0.709440	0.240365	0.000028
1565	1.5562e+02	-17.6995	-70.831547	0.000071	0.709440	0.240365	0.000028
1566	1.5572e+02	-17.6530	-70.823472	0.000020	0.202697	0.068676	0.000008
1567	1.5582e+02	-17.6129	-70.791175	0.000081	0.810788	0.274702	0.000032
1568	1.5592e+02	-17.5840	-70.710432	0.000203	2.026970	0.686756	0.000081
1569	1.5602e+02	-17.5295	-70.661987	0.000122	1.216182	0.412054	0.000049
1570	1.5612e+02	-17.4974	-70.653913	0.000020	0.202697	0.068676	0.000008
1571	1.5622e+02	-17.4557	-70.573170	0.000203	2.026970	0.686756	0.000081
1572	1.5631e+02	-17.4123	-70.540873	0.000081	0.810788	0.274702	0.000032
1573	1.5641e+02	-17.3835	-70.488390	0.000132	1.317531	0.446391	0.000053
1574	1.5651e+02	-17.3434	-70.476279	0.000030	0.304046	0.103013	0.000012
1575	1.5661e+02	-17.3017	-70.371313	0.000264	2.635061	0.892783	0.000105
1576	1.5671e+02	-17.2503	-70.355165	0.000041	0.405394	0.137351	0.000016
1577	1.5681e+02	-17.2134	-70.282496	0.000182	1.824273	0.618081	0.000073
1578	1.5691e+02	-17.1797	-70.213865	0.000172	1.722925	0.583743	0.000069
1579	1.5701e+02	-17.1412	-70.169456	0.000111	1.114834	0.377716	0.000045
1580	1.5711e+02	-17.0995	-70.129085	0.000101	1.013485	0.343378	0.000041
1581	1.5721e+02	-17.0642	-70.048342	0.000203	2.026970	0.686756	0.000081
1582	1.5731e+02	-17.0177	-70.003934	0.000111	1.114834	0.377716	0.000045
1583	1.5741e+02	-16.9856	-69.967599	0.000091	0.912137	0.309040	0.000037
1584	1.5751e+02	-16.9455	-69.963562	0.000010	0.101349	0.034338	0.000004
1585	1.5761e+02	-16.8942	-69.830337	0.000334	3.344501	1.133148	0.000134
1586	1.5771e+02	-16.8589	-69.769780	0.000152	1.520228	0.515067	0.000061
1587	1.5781e+02	-16.8124	-69.717297	0.000132	1.317531	0.446391	0.000053
1588	1.5791e+02	-16.7723	-69.652703	0.000162	1.621576	0.549405	0.000065
1589	1.5801e+02	-16.7402	-69.575997	0.000193	1.925622	0.652418	0.000077
1590	1.5811e+02	-16.6985	-69.551774	0.000061	0.608091	0.206027	0.000024
1591	1.5821e+02	-16.6616	-69.466995	0.000213	2.128319	0.721094	0.000085
1592	1.5830e+02	-16.6134	-69.410475	0.000142	1.418879	0.480729	0.000057
1593	1.5840e+02	-16.5765	-69.370103	0.000101	1.013485	0.343378	0.000041
1594	1.5850e+02	-16.5364	-69.248989	0.000304	3.040456	1.030134	0.000122
1595	1.5860e+02	-16.4947	-69.188432	0.000152	1.520228	0.515067	0.000061
1596	1.5870e+02	-16.4546	-69.115764	0.000182	1.824273	0.618081	0.000073
1597	1.5880e+02	-16.4193	-69.071355	0.000111	1.114834	0.377716	0.000045
1598	1.5890e+02	-16.3888	-68.962353	0.000274	2.736410	0.927121	0.000110
1599	1.5900e+02	-16.3263	-68.909870	0.000132	1.317531	0.446391	0.000053
1600	1.5910e+02	-16.3038	-68.792793	0.000294	2.939107	0.995796	0.000118
1601	1.5920e+02	-16.2637	-68.760496	0.000081	0.810788	0.274702	0.000032
1602	1.5930e+02	-16.2172	-68.703976	0.000142	1.418879	0.480729	0.000057
1603	1.5940e+02	-16.1675	-68.627270	0.000193	1.925622	0.652418	0.000077
1604	1.5950e+02	-16.1498	-68.582862	0.000111	1.114834	0.377716	0.000045
1605	1.5960e+02	-16.1097	-68.429451	0.000385	3.851244	1.304837	0.000154
1606	1.5970e+02	-16.0616	-68.397154	0.000081	0.810788	0.274702	0.000032
1607	1.5980e+02	-16.0231	-68.284114	0.000284	2.837758	0.961459	0.000114
1608	1.5990e+02	-15.9766	-68.207408	0.000193	1.925622	0.652418	0.000077
1609	1.6000e+02	-15.9381	-68.130703	0.000193	1.925622	0.652418	0.000077
1610	1.6010e+02	-15.9028	-68.058034	0.000182	1.824273	0.618081	0.000073
1611	1.6019e+02	-15.8627	-67.961143	0.000243	2.432364	0.824107	0.000097
1612	1.6029e+02	-15.8258	-67.876363	0.000213	2.128319	0.721094	0.000085
1613	1.6039e+02	-15.7824	-67.815806	0.000152	1.520228	0.515067	0.000061
1614	1.6049e+02	-15.7471	-67.722952	0.000233	2.331016	0.789770	0.000093
1615	1.6059e+02	-15.7022	-67.638172	0.000213	2.128319	0.721094	0.000085
1616	1.6069e+02	-15.6541	-67.565504	0.000182	1.824273	0.618081	0.000073
1617	1.6079e+02	-15.6172	-67.448427	0.000294	2.939107	0.995796	0.000118
1618	1.6089e+02	-15.5867	-67.404018	0.000111	1.114834	0.377716	0.000045
1619	1.6099e+02	-15.5418	-67.315201	0.000223	2.229667	0.755432	0.000089
1620	1.6109e+02	-15.5081	-67.194087	0.000304	3.040456	1.030134	0.000122
1621	1.6119e+02	-15.4648	-67.121419	0.000182	1.824273	0.618081	0.000073
1622	1.6129e+02	-15.4183	-67.040676	0.000203	2.026970	0.686756	0.000081
1623	1.6139e+02	-15.3846	-66.959933	0.000203	2.026970	0.686756	0.000081
1624	1.6149e+02	-15.3461	-66.879191	0.000203	2.026970	0.686756	0.000081
1625	1.6159e+02	-15.3140	-66.762114	0.000294	2.939107	0.995796	0.000118
1626	1.6169e+02	-15.2563	-66.681371	0.000203	2.026970	0.686756	0.000081
1627	1.6179e+02	-15.2322	-66.636962	0.000111	1.114834	0.377716	0.000045
1628	1.6189e+02	-15.1905	-66.483551	0.000385	3.851244	1.304837	0.000154
1629	1.6199e+02	-15.1375	-66.414920	0.000172	1.722925	0.583743	0.000069
1630	1.6209e+02	-15.1135	-66.313992	0.000253	2.533713	0.858445	0.000101
1631	1.6219e+02	-15.0654	-66.229212	0.000213	2.128319	0.721094	0.000085
1632	1.6228e+02	-15.0252	-66.116172	0.000284	2.837758	0.961459	0.000114
1633	1.6238e+02	-14.9835	-66.047541	0.000172	1.722925	0.583743	0.000069
1634	1.6248e+02	-14.9466	-65.942575	0.000264	2.635061	0.892783	0.000105
1635	1.6258e+02	-14.9033	-65.877981	0.000162	1.621576	0.549405	0.000065
1636	1.6268e+02	-14.8648	-65.781090	0.000243	2.432364	0.824107	0.000097
1637	1.6278e+02	-14.8247	-65.692273	0.000223	2.229667	0.755432	0.000089
1638	1.6288e+02	-14.7830	-65.555010	0.000345	3.445850	1.167485	0.000138
1639	1.6298e+02	-14.7493	-65.502527	0.000132	1.317531	0.446391	0.000053
1640	1.6308e+02	-14.7028	-65.353153	0.000375	3.749895	1.270499	0.000150
1641	1.6318e+02	-14.6611	-65.256262	0.000243	2.432364	0.824107	0.000097
1642	1.6328e+02	-14.6258	-65.179556	0.000193	1.925622	0.652418	0.000077
1643	1.6338e+02	-14.5825	-65.086702	0.000233	2.331016	0.789770	0.000093
1644	1.6348e+02	-14.5408	-64.985774	0.000253	2.533713	0.858445	0.000101
1645	1.6358e+02	-14.5055	-64.917143	0.000172	1.722925	0.583743	0.000069
1646	1.6368e+02	-14.4718	-64.791991	0.000314	3.141804	1.064472	0.000126
1647	1.6378e+02	-14.4365	-64.707212	0.000213	2.128319	0.721094	0.000085
1648	1.6388e+02	-14.3852	-64.606283	0.000253	2.533713	0.858445	0.000101
1649	1.6398e+02	-14.3450	-64.473058	0.000334	3.344501	1.133148	0.000134
1650	1.6408e+02	-14.3082	-64.424612	0.000122	1.216182	0.412054	0.000049
1651	1.6418e+02	-14.2761	-64.295424	0.000324	3.243153	1.098810	0.000130
1652	1.6427e+02	-14.2328	-64.210644	0.000213	2.128319	0.721094	0.000085
1653	1.6437e+02	-14.1814	-64.137975	0.000182	1.824273	0.618081	0.000073
1654	1.6447e+02	-14.1477	-64.049158	0.000223	2.229667	0.755432	0.000089
1655	1.6457e+02	-14.1060	-63.891710	0.000395	3.952592	1.339174	0.000158
1656	1.6467e+02	-14.0707	-63.839227	0.000132	1.317531	0.446391	0.000053
1657	1.6477e+02	-14.0274	-63.710039	0.000324	3.243153	1.098810	0.000130
1658	1.6487e+02	-13.9889	-63.633334	0.000193	1.925622	0.652418	0.000077
1659	1.6497e+02	-13.9536	-63.528368	0.000264	2.635061	0.892783	0.000105
1660	1.6507e+02	-13.9151	-63.395142	0.000334	3.344501	1.133148	0.000134
1661	1.6517e+02	-13.8750	-63.318437	0.000193	1.925622	0.652418	0.000077
1662	1.6527e+02	-13.8333	-63.233657	0.000213	2.128319	0.721094	0.000085
1663	1.6537e+02	-13.7900	-63.084283	0.000375	3.749895	1.270499	0.000150
1664	1.6547e+02	-13.7451	-62.987392	0.000243	2.432364	0.824107	0.000097
1665	1.6557e+02	-13.7162	-62.906649	0.000203	2.026970	0.686756	0.000081
1666	1.6567e+02	-13.6761	-62.777461	0.000324	3.243153	1.098810	0.000130
1667	1.6577e+02	-13.6312	-62.668458	0.000274	2.736410	0.927121	0.000110
1668	1.6587e+02	-13.5975	-62.567530	0.000253	2.533713	0.858445	0.000101
1669	1.6597e+02	-13.5477	-62.450453	0.000294	2.939107	0.995796	0.000118
1670	1.6607e+02	-13.5044	-62.361636	0.000223	2.229667	0.755432	0.000089
1671	1.6616e+02	-13.4659	-62.256670	0.000264	2.635061	0.892783	0.000105
1672	1.6626e+02	-13.4258	-62.107296	0.000375	3.749895	1.270499	0.000150
1673	1.6636e+02	-13.3905	-62.018479	0.000223	2.229667	0.755432	0.000089
1674	1.6646e+02	-13.3552	-61.893328	0.000314	3.141804	1.064472	0.000126
1675	1.6656e+02	-13.3119	-61.792400	0.000253	2.533713	0.858445	0.000101
1676	1.6666e+02	-13.2670	-61.723768	0.000172	1.722925	0.583743	0.000069
1677	1.6676e+02	-13.2333	-61.582469	0.000355	3.547198	1.201823	0.000142
1678	1.6686e+02	-13.1916	-61.481540	0.000253	2.533713	0.858445	0.000101
1679	1.6696e+02	-13.1499	-61.384649	0.000243	2.432364	0.824107	0.000097
1680	1.6706e+02	-13.1034	-61.243349	0.000355	3.547198	1.201823	0.000142
1681	1.6716e+02	-13.0793	-61.106087	0.000345	3.445850	1.167485	0.000138
1682	1.6726e+02	-13.0392	-61.049567	0.000142	1.418879	0.480729	0.000057
1683	1.6736e+02	-12.9895	-60.932490	0.000294	2.939107	0.995796	0.000118
1684	1.6746e+02	-12.9510	-60.835598	0.000243	2.432364	0.824107	0.000097
1685	1.6756e+02	-12.9077	-60.718522	0.000294	2.939107	0.995796	0.000118
1686	1.6766e+02	-12.8804	-60.593370	0.000314	3.141804	1.064472	0.000126
1687	1.6776e+02	-12.8355	-60.492442	0.000253	2.533713	0.858445	0.000101
1688	1.6786e+02	-12.7922	-60.375365	0.000294	2.939107	0.995796	0.000118
1689	1.6796e+02	-12.7633	-60.294622	0.000203	2.026970	0.686756	0.000081
1690	1.6806e+02	-12.7135	-60.157360	0.000345	3.445850	1.167485	0.000138
1691	1.6816e+02	-12.6734	-60.028171	0.000324	3.243153	1.098810	0.000130
1692	1.6825e+02	-12.6349	-59.919169	0.000274	2.736410	0.927121	0.000110
1693	1.6835e+02	-12.5964	-59.794017	0.000314	3.141804	1.064472	0.000126
1694	1.6845e+02	-12.5547	-59.701163	0.000233	2.331016	0.789770	0.000093
1695	1.6855e+02	-12.5178	-59.592161	0.000274	2.736410	0.927121	0.000110
1696	1.6865e+02	-12.4793	-59.483158	0.000274	2.736410	0.927121	0.000110
1697	1.6875e+02	-12.4296	-59.398378	0.000213	2.128319	0.721094	0.000085
1698	1.6885e+02	-12.3959	-59.192484	0.000517	5.168774	1.751228	0.000207
1699	1.6895e+02	-12.3670	-59.119816	0.000182	1.824273	0.618081	0.000073
1700	1.6905e+02	-12.3173	-58.986590	0.000334	3.344501	1.133148	0.000134
1701	1.6915e+02	-12.2692	-58.873550	0.000284	2.837758	0.961459	0.000114
1702	1.6925e+02	-12.2387	-58.764548	0.000274	2.736410	0.927121	0.000110
1703	1.6935e+02	-12.2002	-58.687842	0.000193	1.925622	0.652418	0.000077
1704	1.6945e+02	-12.1617	-58.566728	0.000304	3.040456	1.030134	0.000122
1705	1.6955e+02	-12.1248	-58.433503	0.000334	3.344501	1.133148	0.000134
1706	1.6965e+02	-12.0767	-58.324500	0.000274	2.736410	0.927121	0.000110
1707	1.6975e+02	-12.0382	-58.167052	0.000395	3.952592	1.339174	0.000158
1708	1.6985e+02	-11.9965	-58.066123	0.000253	2.533713	0.858445	0.000101
1709	1.6995e+02	-11.9547	-57.989418	0.000193	1.925622	0.652418	0.000077
1710	1.7005e+02	-11.9211	-57.827932	0.000405	4.053941	1.373512	0.000162
1711	1.7015e+02	-11.8649	-57.702781	0.000314	3.141804	1.064472	0.000126
1712	1.7024e+02	-11.8264	-57.626076	0.000193	1.925622	0.652418	0.000077
1713	1.7034e+02	-11.7927	-57.484776	0.000355	3.547198	1.201823	0.000142
1714	1.7044e+02	-11.7606	-57.363662	0.000304	3.040456	1.030134	0.000122
1715	1.7054e+02	-11.7189	-57.286956	0.000193	1.925622	0.652418	0.000077
1716	1.7064e+02	-11.6772	-57.181991	0.000264	2.635061	0.892783	0.000105
1717	1.7074e+02	-11.6355	-57.028579	0.000385	3.851244	1.304837	0.000154
1718	1.7084e+02	-11.5922	-56.895354	0.000334	3.344501	1.133148	0.000134
1719	1.7094e+02	-11.5585	-56.798463	0.000243	2.432364	0.824107	0.000097
1720	1.7104e+02	-11.5152	-56.649089	0.000375	3.749895	1.270499	0.000150
1721	1.7114e+02	-11.4831	-56.523937	0.000314	3.141804	1.064472	0.000126
1722	1.7124e+02	-11.4398	-56.414935	0.000274	2.736410	0.927121	0.000110
1723	1.7134e+02	-11.4013	-56.301895	0.000284	2.837758	0.961459	0.000114
1724	1.7144e+02	-11.3580	-56.172707	0.000324	3.243153	1.098810	0.000130
1725	1.7154e+02	-11.3211	-56.051593	0.000304	3.040456	1.030134	0.000122
1726	1.7164e+02	-11.2762	-55.926441	0.000314	3.141804	1.064472	0.000126
1727	1.7174e+02	-11.2393	-55.821476	0.000264	2.635061	0.892783	0.000105
1728	1.7184e+02	-11.2008	-55.680176	0.000355	3.547198	1.201823	0.000142
1729	1.7194e+02	-11.1606	-55.595396	0.000213	2.128319	0.721094	0.000085
1730	1.7204e+02	-11.1238	-55.433911	0.000405	4.053941	1.373512	0.000162
1731	1.7213e+02	-11.0772	-55.296648	0.000345	3.445850	1.167485	0.000138
1732	1.7223e+02	-11.0419	-55.187646	0.000274	2.736410	0.927121	0.000110
1733	1.7233e+02	-10.9970	-55.054420	0.000334	3.344501	1.133148	0.000134
1734	1.7243e+02	-10.9569	-54.925232	0.000324	3.243153	1.098810	0.000130
1735	1.7253e+02	-10.9184	-54.792006	0.000334	3.344501	1.133148	0.000134
1736	1.7263e+02	-10.8751	-54.723375	0.000172	1.722925	0.583743	0.000069
1737	1.7273e+02	-10.8478	-54.569964	0.000385	3.851244	1.304837	0.000154
1738	1.7283e+02	-10.8029	-54.440775	0.000324	3.243153	1.098810	0.000130
1739	1.7293e+02	-10.7660	-54.331773	0.000274	2.736410	0.927121	0.000110
1740	1.7303e+02	-10.7195	-54.166250	0.000416	4.155289	1.407850	0.000166
1741	1.7313e+02	-10.6842	-54.065322	0.000253	2.533713	0.858445	0.000101
1742	1.7323e+02	-10.6377	-53.940171	0.000314	3.141804	1.064472	0.000126
1743	1.7333e+02	-10.6056	-53.786759	0.000385	3.851244	1.304837	0.000154
1744	1.7343e+02	-10.5607	-53.649497	0.000345	3.445850	1.167485	0.000138
1745	1.7353e+02	-10.5238	-53.552606	0.000243	2.432364	0.824107	0.000097
1746	1.7363e+02	-10.4740	-53.435529	0.000294	2.939107	0.995796	0.000118
1747	1.7373e+02	-10.4355	-53.286155	0.000375	3.749895	1.270499	0.000150
1748	1.7383e+02	-10.4034	-53.185226	0.000253	2.533713	0.858445	0.000101
1749	1.7393e+02	-10.3537	-53.043926	0.000355	3.547198	1.201823	0.000142
1750	1.7403e+02	-10.3281	-52.959147	0.000213	2.128319	0.721094	0.000085
1751	1.7413e+02	-10.2815	-52.817847	0.000355	3.547198	1.201823	0.000142
1752	1.7422e+02	-10.2462	-52.672510	0.000365	3.648547	1.236161	0.000146
1753	1.7432e+02	-10.1997	-52.547359	0.000314	3.141804	1.064472	0.000126
1754	1.7442e+02	-10.1660	-52.454505	0.000233	2.331016	0.789770	0.000093
1755	1.7452e+02	-10.1163	-52.321279	0.000334	3.344501	1.133148	0.000134
1756	1.7462e+02	-10.0842	-52.188054	0.000334	3.344501	1.133148	0.000134
1757	1.7472e+02	-10.0409	-52.066940	0.000304	3.040456	1.030134	0.000122
1758	1.7482e+02	-9.9960	-51.897380	0.000426	4.256638	1.442188	0.000170
1759	1.7492e+02	-9.9623	-51.776266	0.000304	3.040456	1.030134	0.000122
1760	1.7502e+02	-9.9238	-51.675337	0.000253	2.533713	0.858445	0.000101
1761	1.7512e+02	-9.8757	-51.525963	0.000375	3.749895	1.270499	0.000150
1762	1.7522e+02	-9.8420	-51.408886	0.000294	2.939107	0.995796	0.000118
1763	1.7532e+02	-9.8115	-51.299884	0.000274	2.736410	0.927121	0.000110
1764	1.7542e+02	-9.7618	-51.150510	0.000375	3.749895	1.270499	0.000150
1765	1.7552e+02	-9.7217	-50.972876	0.000446	4.459335	1.510864	0.000179
1766	1.7562e+02	-9.6896	-50.888096	0.000213	2.128319	0.721094	0.000085
1767	1.7572e+02	-9.6527	-50.722573	0.000416	4.155289	1.407850	0.000166
1768	1.7582e+02	-9.6078	-50.597422	0.000314	3.141804	1.064472	0.000126
1769	1.7592e+02	-9.5725	-50.460160	0.000345	3.445850	1.167485	0.000138
1770	1.7602e+02	-9.5291	-50.355194	0.000264	2.635061	0.892783	0.000105
1771	1.7612e+02	-9.4810	-50.230043	0.000314	3.141804	1.064472	0.000126
1772	1.7621e+02	-9.4377	-50.096817	0.000334	3.344501	1.133148	0.000134
1773	1.7631e+02	-9.4072	-49.959555	0.000345	3.445850	1.167485	0.000138
1774	1.7641e+02	-9.3671	-49.830366	0.000324	3.243153	1.098810	0.000130
1775	1.7651e+02	-9.3350	-49.697141	0.000334	3.344501	1.133148	0.000134
1776	1.7661e+02	-9.2901	-49.559878	0.000345	3.445850	1.167485	0.000138
1777	1.7671e+02	-9.2500	-49.390319	0.000426	4.256638	1.442188	0.000170
1778	1.7681e+02	-9.2115	-49.281316	0.000274	2.736410	0.927121	0.000110
1779	1.7691e+02	-9.1730	-49.168276	0.000284	2.837758	0.961459	0.000114
1780	1.7701e+02	-9.1217	-49.026976	0.000355	3.547198	1.201823	0.000142
1781	1.7711e+02	-9.0832	-48.897788	0.000324	3.243153	1.098810	0.000130
1782	1.7721e+02	-9.0447	-48.740340	0.000395	3.952592	1.339174	0.000158
1783	1.7731e+02	-9.0110	-48.599040	0.000355	3.547198	1.201823	0.000142
1784	1.7741e+02	-8.9645	-48.465815	0.000334	3.344501	1.133148	0.000134
1785	1.7751e+02	-8.9276	-48.336626	0.000324	3.243153	1.098810	0.000130
1786	1.7761e+02	-8.8907	-48.183215	0.000385	3.851244	1.304837	0.000154
1787	1.7771e+02	-8.8522	-48.033841	0.000375	3.749895	1.270499	0.000150
1788	1.7781e+02	-8.8040	-47.924838	0.000274	2.736410	0.927121	0.000110
1789	1.7791e+02	-8.7671	-47.775464	0.000375	3.749895	1.270499	0.000150
1790	1.7801e+02	-8.7334	-47.630127	0.000365	3.648547	1.236161	0.000146
1791	1.7810e+02	-8.6949	-47.517088	0.000284	2.837758	0.961459	0.000114
1792	1.7820e+02	-8.6516	-47.400011	0.000294	2.939107	0.995796	0.000118
1793	1.7830e+02	-8.6131	-47.214302	0.000466	4.662032	1.579539	0.000187
1794	1.7840e+02	-8.5762	-47.105300	0.000274	2.736410	0.927121	0.000110
1795	1.7850e+02	-8.5249	-46.915554	0.000476	4.763380	1.613877	0.000191
1796	1.7860e+02	-8.4912	-46.798477	0.000294	2.939107	0.995796	0.000118
1797	1.7870e+02	-8.4431	-46.657178	0.000355	3.547198	1.201823	0.000142
1798	1.7880e+02	-8.4190	-46.532027	0.000314	3.141804	1.064472	0.000126
1799	1.7890e+02	-8.3709	-46.402838	0.000324	3.243153	1.098810	0.000130
1800	1.7900e+02	-8.3244	-46.265576	0.000345	3.445850	1.167485	0.000138
1801	1.7910e+02	-8.2875	-46.100053	0.000416	4.155289	1.407850	0.000166
1802	1.7920e+02	-8.2506	-45.978939	0.000304	3.040456	1.030134	0.000122
1803	1.7930e+02	-8.2105	-45.845713	0.000334	3.344501	1.133148	0.000134
1804	1.7940e+02	-8.1768	-45.664042	0.000456	4.560683	1.545201	0.000183
1805	1.7950e+02	-8.1222	-45.534854	0.000324	3.243153	1.098810	0.000130
1806	1.7960e+02	-8.0837	-45.409703	0.000314	3.141804	1.064472	0.000126
1807	1.7970e+02	-8.0565	-45.292626	0.000294	2.939107	0.995796	0.000118
1808	1.7980e+02	-8.0083	-45.119029	0.000436	4.357986	1.476526	0.000174
1809	1.7990e+02	-7.9762	-44.969655	0.000375	3.749895	1.270499	0.000150
1810	1.8000e+02	-7.9233	-44.796058	0.000436	4.357986	1.476526	0.000174
1811	1.8009e+02	-7.8896	-44.695130	0.000253	2.533713	0.858445	0.000101
1812	1.8019e+02	-7.8399	-44.561904	0.000334	3.344501	1.133148	0.000134
1813	1.8029e+02	-7.8078	-44.424642	0.000345	3.445850	1.167485	0.000138
1814	1.8039e+02	-7.7693	-44.283342	0.000355	3.547198	1.201823	0.000142
1815	1.8049e+02	-7.7212	-44.105708	0.000446	4.459335	1.510864	0.000179
1816	1.8059e+02	-7.6955	-43.948260	0.000395	3.952592	1.339174	0.000158
1817	1.8069e+02	-7.6554	-43.810997	0.000345	3.445850	1.167485	0.000138
1818	1.8079e+02	-7.6137	-43.693920	0.000294	2.939107	0.995796	0.000118
1819	1.8089e+02	-7.5720	-43.548583	0.000365	3.648547	1.236161	0.000146
1820	1.8099e+02	-7.5303	-43.374986	0.000436	4.357986	1.476526	0.000174
1821	1.8109e+02	-7.4886	-43.274058	0.000253	2.533713	0.858445	0.000101
1822	1.8119e+02	-7.4501	-43.128721	0.000365	3.648547	1.236161	0.000146
1823	1.8129e+02	-7.4164	-42.951087	0.000446	4.459335	1.510864	0.000179
1824	1.8139e+02	-7.3747	-42.842084	0.000274	2.736410	0.927121	0.000110
1825	1.8149e+02	-7.3442	-42.660413	0.000456	4.560683	1.545201	0.000183
1826	1.8159e+02	-7.2880	-42.519114	0.000355	3.547198	1.201823	0.000142
1827	1.8169e+02	-7.2479	-42.389925	0.000324	3.243153	1.098810	0.000130
1828	1.8179e+02	-7.2078	-42.212291	0.000446	4.459335	1.510864	0.000179
1829	1.8189e+02	-7.1773	-42.079066	0.000334	3.344501	1.133148	0.000134
1830	1.8199e+02	-7.1308	-41.937766	0.000355	3.547198	1.201823	0.000142
1831	1.8209e+02	-7.0987	-41.780318	0.000395	3.952592	1.339174	0.000158
1832	1.8218e+02	-7.0506	-41.622869	0.000395	3.952592	1.339174	0.000158
1833	1.8228e+02	-7.0153	-41.513867	0.000274	2.736410	0.927121	0.000110
1834	1.8238e+02	-6.9736	-41.299899	0.000537	5.371471	1.819904	0.000215
1835	1.8248e+02	-6.9367	-41.198970	0.000253	2.533713	0.858445	0.000101
1836	1.8258e+02	-6.8982	-41.013262	0.000466	4.662032	1.579539	0.000187
1837	1.8268e+02	-6.8469	-40.851777	0.000405	4.053941	1.373512	0.000162
1838	1.8278e+02	-6.8132	-40.730662	0.000304	3.040456	1.030134	0.000122
1839	1.8288e+02	-6.7827	-40.544954	0.000466	4.662032	1.579539	0.000187
1840	1.8298e+02	-6.7346	-40.395580	0.000375	3.749895	1.270499	0.000150
1841	1.8308e+02	-6.6945	-40.242169	0.000385	3.851244	1.304837	0.000154
1842	1.8318e+02	-6.6560	-40.092795	0.000375	3.749895	1.270499	0.000150
1843	1.8328e+02	-6.6143	-39.915161	0.000446	4.459335	1.510864	0.000179
1844	1.8338e+02	-6.5822	-39.822307	0.000233	2.331016	0.789770	0.000093
1845	1.8348e+02	-6.5292	-39.592190	0.000578	5.776865	1.957255	0.000231
1846	1.8358e+02	-6.4955	-39.487225	0.000264	2.635061	0.892783	0.000105
1847	1.8368e+02	-6.4635	-39.325739	0.000405	4.053941	1.373512	0.000162
1848	1.8378e+02	-6.4233	-39.164254	0.000405	4.053941	1.373512	0.000162
1849	1.8388e+02	-6.3881	-39.063325	0.000253	2.533713	0.858445	0.000101
1850	1.8398e+02	-6.3415	-38.865506	0.000497	4.966077	1.682553	0.000199
1851	1.8407e+02	-6.3014	-38.699983	0.000416	4.155289	1.407850	0.000166
1852	1.8417e+02	-6.2581	-38.526386	0.000436	4.357986	1.476526	0.000174
1853	1.8427e+02	-6.2180	-38.401235	0.000314	3.141804	1.064472	0.000126
1854	1.8437e+02	-6.1795	-38.255898	0.000365	3.648547	1.236161	0.000146
1855	1.8447e+02	-6.1474	-38.062116	0.000486	4.864729	1.648215	0.000195
1856	1.8457e+02	-6.1041	-37.896593	0.000416	4.155289	1.407850	0.000166
1857	1.8467e+02	-6.0608	-37.767405	0.000324	3.243153	1.098810	0.000130
1858	1.8477e+02	-6.0223	-37.609957	0.000395	3.952592	1.339174	0.000158
1859	1.8487e+02	-5.9774	-37.460583	0.000375	3.749895	1.270499	0.000150
1860	1.8497e+02	-5.9357	-37.266800	0.000486	4.864729	1.648215	0.000195
1861	1.8507e+02	-5.9004	-37.109352	0.000395	3.952592	1.339174	0.000158
1862	1.8517e+02	-5.8651	-36.943829	0.000416	4.155289	1.407850	0.000166
1863	1.8527e+02	-5.8202	-36.826752	0.000294	2.939107	0.995796	0.000118
1864	1.8537e+02	-5.7897	-36.669304	0.000395	3.952592	1.339174	0.000158
1865	1.8547e+02	-5.7480	-36.495707	0.000436	4.357986	1.476526	0.000174
1866	1.8557e+02	-5.7191	-36.342296	0.000385	3.851244	1.304837	0.000154
1867	1.8567e+02	-5.6549	-36.120253	0.000557	5.574168	1.888579	0.000223
1868	1.8577e+02	-5.6196	-36.007214	0.000284	2.837758	0.961459	0.000114
1869	1.8587e+02	-5.5827	-35.849765	0.000395	3.952592	1.339174	0.000158
1870	1.8597e+02	-5.5394	-35.664057	0.000466	4.662032	1.579539	0.000187
1871	1.8606e+02	-5.5025	-35.510646	0.000385	3.851244	1.304837	0.000154
1872	1.8616e+02	-5.4640	-35.393569	0.000294	2.939107	0.995796	0.000118
1873	1.8626e+02	-5.4223	-35.203824	0.000476	4.763380	1.613877	0.000191
1874	1.8636e+02	-5.3838	-35.034264	0.000426	4.256638	1.442188	0.000170
1875	1.8646e+02	-5.3357	-34.868741	0.000416	4.155289	1.407850	0.000166
1876	1.8656e+02	-5.2940	-34.707256	0.000405	4.053941	1.373512	0.000162
1877	1.8666e+02	-5.2619	-34.525585	0.000456	4.560683	1.545201	0.000183
1878	1.8676e+02	-5.2266	-34.372174	0.000385	3.851244	1.304837	0.000154
1879	1.8686e+02	-5.1833	-34.210688	0.000405	4.053941	1.373512	0.000162
1880	1.8696e+02	-5.1464	-34.033054	0.000446	4.459335	1.510864	0.000179
1881	1.8706e+02	-5.1111	-33.911940	0.000304	3.040456	1.030134	0.000122
1882	1.8716e+02	-5.0710	-33.738343	0.000436	4.357986	1.476526	0.000174
1883	1.8726e+02	-5.0277	-33.556672	0.000456	4.560683	1.545201	0.000183
1884	1.8736e+02	-4.9795	-33.411335	0.000365	3.648547	1.236161	0.000146
1885	1.8746e+02	-4.9426	-33.225627	0.000466	4.662032	1.579539	0.000187
1886	1.8756e+02	-4.9073	-33.064142	0.000405	4.053941	1.373512	0.000162
1887	1.8766e+02	-4.8656	-32.886508	0.000446	4.459335	1.510864	0.000179
1888	1.8776e+02	-4.8271	-32.737134	0.000375	3.749895	1.270499	0.000150
1889	1.8786e+02	-4.7822	-32.563537	0.000436	4.357986	1.476526	0.000174
1890	1.8796e+02	-4.7437	-32.381866	0.000456	4.560683	1.545201	0.000183
1891	1.8806e+02	-4.6972	-32.232492	0.000375	3.749895	1.270499	0.000150
1892	1.8815e+02	-4.6683	-32.054858	0.000446	4.459335	1.510864	0.000179
1893	1.8825e+02	-4.6218	-31.901447	0.000385	3.851244	1.304837	0.000154
1894	1.8835e+02	-4.5801	-31.715738	0.000466	4.662032	1.579539	0.000187
1895	1.8845e+02	-4.5480	-31.534067	0.000456	4.560683	1.545201	0.000183
1896	1.8855e+02	-4.5095	-31.400842	0.000334	3.344501	1.133148	0.000134
1897	1.8865e+02	-4.4662	-31.211096	0.000476	4.763380	1.613877	0.000191
1898	1.8875e+02	-4.4325	-31.017314	0.000486	4.864729	1.648215	0.000195
1899	1.8885e+02	-4.3844	-30.859866	0.000395	3.952592	1.339174	0.000158
1900	1.8895e+02	-4.3475	-30.694343	0.000416	4.155289	1.407850	0.000166
1901	1.8905e+02	-4.3042	-30.484412	0.000527	5.270123	1.785566	0.000211
1902	1.8915e+02	-4.2721	-30.347149	0.000345	3.445850	1.167485	0.000138
1903	1.8925e+02	-4.2272	-30.145293	0.000507	5.067426	1.716890	0.000203
1904	1.8935e+02	-4.1838	-29.983807	0.000405	4.053941	1.373512	0.000162
1905	1.8945e+02	-4.1453	-29.822322	0.000405	4.053941	1.373512	0.000162
1906	1.8955e+02	-4.1020	-29.640651	0.000456	4.560683	1.545201	0.000183
1907	1.8965e+02	-4.0764	-29.446868	0.000486	4.864729	1.648215	0.000195
1908	1.8975e+02	-4.0266	-29.301531	0.000365	3.648547	1.236161	0.000146
1909	1.8985e+02	-3.9929	-29.140046	0.000405	4.053941	1.373512	0.000162
1910	1.8995e+02	-3.9528	-28.918003	0.000557	5.574168	1.888579	0.000223
1911	1.9004e+02	-3.9143	-28.752481	0.000416	4.155289	1.407850	0.000166
1912	1.9014e+02	-3.8710	-28.599070	0.000385	3.851244	1.304837	0.000154
1913	1.9024e+02	-3.8277	-28.425473	0.000436	4.357986	1.476526	0.000174
1914	1.9034e+02	-3.7892	-28.263987	0.000405	4.053941	1.373512	0.000162
1915	1.9044e+02	-3.7507	-28.066168	0.000497	4.966077	1.682553	0.000199
1916	1.9054e+02	-3.7106	-27.916794	0.000375	3.749895	1.270499	0.000150
1917	1.9064e+02	-3.6785	-27.747234	0.000426	4.256638	1.442188	0.000170
1918	1.9074e+02	-3.6304	-27.549414	0.000497	4.966077	1.682553	0.000199
1919	1.9084e+02	-3.5903	-27.359669	0.000476	4.763380	1.613877	0.000191
1920	1.9094e+02	-3.5582	-27.198183	0.000405	4.053941	1.373512	0.000162
1921	1.9104e+02	-3.5085	-27.032661	0.000416	4.155289	1.407850	0.000166
1922	1.9114e+02	-3.4732	-26.846953	0.000466	4.662032	1.579539	0.000187
1923	1.9124e+02	-3.4347	-26.701616	0.000365	3.648547	1.236161	0.000146
1924	1.9134e+02	-3.3849	-26.519945	0.000456	4.560683	1.545201	0.000183
1925	1.9144e+02	-3.3545	-26.354422	0.000416	4.155289	1.407850	0.000166
1926	1.9154e+02	-3.3127	-26.136417	0.000547	5.472820	1.854242	0.000219
1927	1.9164e+02	-3.2662	-26.003191	0.000334	3.344501	1.133148	0.000134
1928	1.9174e+02	-3.2357	-25.821520	0.000456	4.560683	1.545201	0.000183
1929	1.9184e+02	-3.1892	-25.603515	0.000547	5.472820	1.854242	0.000219
1930	1.9194e+02	-3.1539	-25.413769	0.000476	4.763380	1.613877	0.000191
1931	1.9203e+02	-3.1234	-25.276507	0.000345	3.445850	1.167485	0.000138
1932	1.9213e+02	-3.0737	-25.062539	0.000537	5.371471	1.819904	0.000215
1933	1.9223e+02	-3.0304	-24.884905	0.000446	4.459335	1.510864	0.000179
1934	1.9233e+02	-2.9951	-24.719382	0.000416	4.155289	1.407850	0.000166
1935	1.9243e+02	-2.9518	-24.582120	0.000345	3.445850	1.167485	0.000138
1936	1.9253e+02	-2.9117	-24.356040	0.000568	5.675517	1.922917	0.000227
1937	1.9263e+02	-2.8668	-24.150146	0.000517	5.168774	1.751228	0.000207
1938	1.9273e+02	-2.8347	-24.000772	0.000375	3.749895	1.270499	0.000150
1939	1.9283e+02	-2.7930	-23.827175	0.000436	4.357986	1.476526	0.000174
1940	1.9293e+02	-2.7593	-23.653578	0.000436	4.357986	1.476526	0.000174
1941	1.9303e+02	-2.7160	-23.443647	0.000527	5.270123	1.785566	0.000211
1942	1.9313e+02	-2.6710	-23.286199	0.000395	3.952592	1.339174	0.000158
1943	1.9323e+02	-2.6261	-23.080305	0.000517	5.168774	1.751228	0.000207
1944	1.9333e+02	-2.5989	-22.854225	0.000568	5.675517	1.922917	0.000227
1945	1.9343e+02	-2.5555	-22.680629	0.000436	4.357986	1.476526	0.000174
1946	1.9353e+02	-2.5090	-22.498957	0.000456	4.560683	1.545201	0.000183
1947	1.9363e+02	-2.4753	-22.329398	0.000426	4.256638	1.442188	0.000170
1948	1.9373e+02	-2.4320	-22.147727	0.000456	4.560683	1.545201	0.000183
1949	1.9383e+02	-2.3935	-21.937796	0.000527	5.270123	1.785566	0.000211
1950	1.9393e+02	-2.3534	-21.760162	0.000446	4.459335	1.510864	0.000179
1951	1.9403e+02	-2.3197	-21.594639	0.000416	4.155289	1.407850	0.000166
1952	1.9412e+02	-2.2716	-21.408931	0.000466	4.662032	1.579539	0.000187
1953	1.9422e+02	-2.2459	-21.194963	0.000537	5.371471	1.819904	0.000215
1954	1.9432e+02	-2.2042	-21.041551	0.000385	3.851244	1.304837	0.000154
1955	1.9442e+02	-2.1481	-20.819509	0.000557	5.574168	1.888579	0.000223
1956	1.9452e+02	-2.1192	-20.658024	0.000405	4.053941	1.373512	0.000162
1957	1.9462e+02	-2.0679	-20.456167	0.000507	5.067426	1.716890	0.000203
1958	1.9472e+02	-2.0342	-20.266421	0.000476	4.763380	1.613877	0.000191
1959	1.9482e+02	-1.9941	-20.064565	0.000507	5.067426	1.716890	0.000203
1960	1.9492e+02	-1.9604	-19.870782	0.000486	4.864729	1.648215	0.000195
1961	1.9502e+02	-1.9171	-19.689111	0.000456	4.560683	1.545201	0.000183
1962	1.9512e+02	-1.8834	-19.491291	0.000497	4.966077	1.682553	0.000199
1963	1.9522e+02	-1.8385	-19.317695	0.000436	4.357986	1.476526	0.000174
1964	1.9532e+02	-1.8048	-19.107763	0.000527	5.270123	1.785566	0.000211
1965	1.9542e+02	-1.7582	-18.926092	0.000456	4.560683	1.545201	0.000183
1966	1.9552e+02	-1.7101	-18.744421	0.000456	4.560683	1.545201	0.000183
1967	1.9562e+02	-1.6780	-18.578899	0.000416	4.155289	1.407850	0.000166
1968	1.9572e+02	-1.6443	-18.377042	0.000507	5.067426	1.716890	0.000203
1969	1.9582e+02	-1.5962	-18.150962	0.000568	5.675517	1.922917	0.000227
1970	1.9592e+02	-1.5577	-17.977365	0.000436	4.357986	1.476526	0.000174
1971	1.9601e+02	-1.5224	-17.775509	0.000507	5.067426	1.716890	0.000203
1972	1.9611e+02	-1.4775	-17.557503	0.000547	5.472820	1.854242	0.000219
1973	1.9621e+02	-1.4326	-17.379869	0.000446	4.459335	1.510864	0.000179
1974	1.9631e+02	-1.4133	-17.194161	0.000466	4.662032	1.579539	0.000187
1975	1.9641e+02	-1.3556	-17.016527	0.000446	4.459335	1.510864	0.000179
1976	1.9651e+02	-1.3203	-16.818707	0.000497	4.966077	1.682553	0.000199
1977	1.9661e+02	-1.2722	-16.637036	0.000456	4.560683	1.545201	0.000183
1978	1.9671e+02	-1.2369	-16.414994	0.000557	5.574168	1.888579	0.000223
1979	1.9681e+02	-1.1984	-16.253508	0.000405	4.053941	1.373512	0.000162
1980	1.9691e+02	-1.1567	-16.067800	0.000466	4.662032	1.579539	0.000187
1981	1.9701e+02	-1.1230	-15.841721	0.000568	5.675517	1.922917	0.000227
1982	1.9711e+02	-1.0780	-15.651975	0.000476	4.763380	1.613877	0.000191
1983	1.9721e+02	-1.0444	-15.494527	0.000395	3.952592	1.339174	0.000158
1984	1.9731e+02	-0.9930	-15.240187	0.000638	6.384957	2.163282	0.000256
1985	1.9741e+02	-0.9577	-15.102925	0.000345	3.445850	1.167485	0.000138
1986	1.9751e+02	-0.9272	-14.860697	0.000608	6.080911	2.060268	0.000243
1987	1.9761e+02	-0.8791	-14.650766	0.000527	5.270123	1.785566	0.000211
1988	1.9771e+02	-0.8342	-14.493317	0.000395	3.952592	1.339174	0.000158
1989	1.9781e+02	-0.8005	-14.275312	0.000547	5.472820	1.854242	0.000219
1990	1.9791e+02	-0.7636	-14.061344	0.000537	5.371471	1.819904	0.000215
1991	1.9800e+02	-0.7155	-13.911970	0.000375	3.749895	1.270499	0.000150
1992	1.9810e+02	-0.6706	-13.718187	0.000486	4.864729	1.648215	0.000195
1993	1.9820e+02	-0.6353	-13.524405	0.000486	4.864729	1.648215	0.000195
1994	1.9830e+02	-0.6000	-13.278139	0.000618	6.182260	2.094606	0.000248
1995	1.9840e+02	-0.5663	-13.120691	0.000395	3.952592	1.339174	0.000158
1996	1.9850e+02	-0.5198	-12.890574	0.000578	5.776865	1.957255	0.000231
1997	1.9860e+02	-0.4861	-12.696792	0.000486	4.864729	1.648215	0.000195
1998	1.9870e+02	-0.4380	-12.494935	0.000507	5.067426	1.716890	0.000203
1999	1.9880e+02	-0.3962	-12.341524	0.000385	3.851244	1.304837	0.000154
2000	1.9890e+02	-0.3658	-12.091222	0.000628	6.283608	2.128944	0.000252
2001	1.9900e+02	-0.3160	-11.877253	0.000537	5.371471	1.819904	0.000215
2002	1.9910e+02	-0.2823	-11.691545	0.000466	4.662032	1.579539	0.000187
2003	1.9920e+02	-0.2390	-11.501800	0.000476	4.763380	1.613877	0.000191
2004	1.9930e+02	-0.1893	-11.312054	0.000476	4.763380	1.613877	0.000191
2005	1.9940e+02	-0.1652	-11.094049	0.000547	5.472820	1.854242	0.000219
2006	1.9950e+02	-0.1299	-10.884118	0.000527	5.270123	1.785566	0.000211
2007	1.9960e+02	-0.0850	-10.694373	0.000476	4.763380	1.613877	0.000191
2008	1.9970e+02	-0.0385	-10.456182	0.000598	5.979562	2.025931	0.000239
2009	1.9980e+02	-0.0016	-10.278548	0.000598	5.979562	2.025931	0.000179

Center data before PMax,+/-Pr and +/-Vc Calc.

PMax (uC/cm2):	4.88e+01
Pr (uC/cm2):	3.96e+01
-Pr (uC/cm2):	-1.03e+01
PLoss (uC/cm2):	3.70e+01
Vc:	1.03e+01
-Vc:	-8.26e+00
C (Max-Eff) (nF):	2.44e-01
K (Eff):	8.27e+02
Vert. (+/-Pr) Shift (uC/cm2):	1.46e+01
Horiz. Shift (+/-Vc):	1.02e+00
Offset (uC/cm2):	4.72e+01

A (Loop Area - uC/cm2·Volts):	-8.72e-01



Hysteresis Version: 5.48.1 - Radiant Technologies, Inc., 1999 - 9/12/24

