»»»»»»»»»»»»»»»»»»»»»»»»»»»»»»»»»»»» Hysteresis ««««««««««««««««««««««««««««««««««««
»»»  Executed Version:	5.48.1
»»»  Vision Version:	5.48.4 (R)
»»»  Vision Compiled:	9/18/24
»»»  Driver Version:	5.47.0
»»»  Windows Version:	Windows 8 or 8.1
»»»  Processor Information:	x86 (AMD or Intel) - 32 Processors
»»»  Tester Name:	PMF21124-494 (100V)
»»»  Tester S/N:	PMF21124-494
»»»  Internal Amp Type:	100V RevK 270k
»»»  Internal Amp S/N:	iAB2-596/K     
»»»  Execution Count:	1
»»»»»»»»»»»»»»»»»»»»»»»»»»»»»»»»»»»»»»»»»»««««««««««««««««««««««««««««««««««««««««««

Stored:	6/16/2025 - 10:36:38
Configured:	06/16/25 10:13:01 AM
Executed:	06/16/25 10:36:04 AM

»»»»»»»»»»»»»»»»»»»»»»»»»»»»»»»»»»» Sample Info ««««««««««««««««««««««««««««««««««««
Sample Name:	
Lot Name:	
Wafer Name:	
Die Row/Column:	0/0
Capacitor Number:	0
Sample Area (cm2):	1.00e-04
Sample Thickness (microns):	3.00e-01

Amplifier:	Internal

»»»»»»»»»»»»»»»»»»»»»»»»»»»»»»»»»»» Tester Info «««««««««««««««««««««««««««««««««««
Tester Name:	PMF21124-494 (100V)
Tester Serial Number:	PMF21124-494
Return Signal Amp. Level:	0.19 [Index: 3]

»»»»»»»»»»»»»»»»»»»»»»»»»»»»»»»» Hysteresis Info ««««««««««««««««««««««««««««««««««
Task Name:	Hyst-2190
Volts:	20.00
Field:	666.67 (kV/cm)
DCBias:	0.00
DCField:	0.00 (kV/cm)
Hysteresis Period (ms):	2.00e+02
Preset:	Enabled
Preset Delay (ms):	1.00e+03
Profile:	Standard Bipolar

»»»»»»»»»»»»»»»»»»»»»»»»»»»»»»»»»»»»»» Data «««««««««««««««««««««««««««««««««««««««
Points:	2009

Valid Data

Point	Time (ms)	Drive Voltage	Measured Polarization (uC/cm2)	Capacitance (uF)	Normalized Capacitance (uF/cm2)	Dielectric Constant	Instantaneous Current (mA)
   1	0.0000e+00	0.0016	5.668139	0.000264	2.635537	0.892944	0.000105
   2	9.9500e-02	0.0176	5.773104	0.000264	2.635537	0.892944	0.000105
   3	1.9900e-01	0.0690	5.962849	0.000476	4.764240	1.614168	0.000191
   4	2.9850e-01	0.1107	6.096075	0.000335	3.345105	1.133352	0.000134
   5	3.9800e-01	0.1460	6.281783	0.000466	4.662873	1.579824	0.000187
   6	4.9750e-01	0.1877	6.435194	0.000385	3.851939	1.305072	0.000154
   7	5.9700e-01	0.2230	6.624940	0.000476	4.764240	1.614168	0.000191
   8	6.9650e-01	0.2647	6.790462	0.000416	4.156039	1.408104	0.000166
   9	7.9600e-01	0.2984	6.984245	0.000487	4.865607	1.648512	0.000195
  10	8.9550e-01	0.3529	7.097285	0.000284	2.838271	0.961632	0.000114
  11	9.9500e-01	0.3786	7.299141	0.000507	5.068341	1.717200	0.000203
  12	1.0945e+00	0.4396	7.472738	0.000436	4.358773	1.476792	0.000174
  13	1.1940e+00	0.4620	7.658446	0.000466	4.662873	1.579824	0.000187
  14	1.2935e+00	0.5118	7.840118	0.000456	4.561507	1.545480	0.000183
  15	1.3930e+00	0.5406	7.973343	0.000335	3.345105	1.133352	0.000134
  16	1.4925e+00	0.5855	8.159051	0.000466	4.662873	1.579824	0.000187
  17	1.5920e+00	0.6273	8.377057	0.000547	5.473808	1.854576	0.000219
  18	1.6915e+00	0.6625	8.526431	0.000375	3.750572	1.270728	0.000150
  19	1.7910e+00	0.7043	8.683879	0.000395	3.953306	1.339416	0.000158
  20	1.8905e+00	0.7428	8.837290	0.000385	3.851939	1.305072	0.000154
  21	1.9900e+00	0.7764	9.063370	0.000568	5.676542	1.923264	0.000227
  22	2.0895e+00	0.8310	9.232929	0.000426	4.257406	1.442448	0.000170
  23	2.1890e+00	0.8631	9.434786	0.000507	5.068341	1.717200	0.000203
  24	2.2885e+00	0.9000	9.539752	0.000264	2.635537	0.892944	0.000105
  25	2.3880e+00	0.9401	9.729497	0.000476	4.764240	1.614168	0.000191
  26	2.4875e+00	0.9834	9.915205	0.000466	4.662873	1.579824	0.000187
  27	2.5870e+00	1.0139	10.125136	0.000527	5.271074	1.785888	0.000211
  28	2.6865e+00	1.0556	10.274510	0.000375	3.750572	1.270728	0.000150
  29	2.7860e+00	1.0909	10.460219	0.000466	4.662873	1.579824	0.000187
  30	2.8855e+00	1.1438	10.637853	0.000446	4.460140	1.511136	0.000179
  31	2.9850e+00	1.1823	10.839709	0.000507	5.068341	1.717200	0.000203
  32	3.0845e+00	1.2192	10.985046	0.000365	3.649205	1.236384	0.000146
  33	3.1840e+00	1.2593	11.178829	0.000487	4.865607	1.648512	0.000195
  34	3.2835e+00	1.2914	11.372611	0.000487	4.865607	1.648512	0.000195
  35	3.3830e+00	1.3492	11.558320	0.000466	4.662873	1.579824	0.000187
  36	3.4825e+00	1.3780	11.739991	0.000456	4.561507	1.545480	0.000183
  37	3.5820e+00	1.4085	11.917625	0.000446	4.460140	1.511136	0.000179
  38	3.6815e+00	1.4631	12.091222	0.000436	4.358773	1.476792	0.000174
  39	3.7810e+00	1.5016	12.293078	0.000507	5.068341	1.717200	0.000203
  40	3.8805e+00	1.5401	12.474749	0.000456	4.561507	1.545480	0.000183
  41	3.9800e+00	1.5705	12.636235	0.000405	4.054673	1.373760	0.000162
  42	4.0795e+00	1.6187	12.817906	0.000456	4.561507	1.545480	0.000183
  43	4.1790e+00	1.6540	13.035911	0.000547	5.473808	1.854576	0.000219
  44	4.2785e+00	1.6941	13.201434	0.000416	4.156039	1.408104	0.000166
  45	4.3780e+00	1.7438	13.379068	0.000446	4.460140	1.511136	0.000179
  46	4.4775e+00	1.7823	13.576887	0.000497	4.966974	1.682856	0.000199
  47	4.5770e+00	1.8128	13.738373	0.000405	4.054673	1.373760	0.000162
  48	4.6765e+00	1.8625	13.924081	0.000466	4.662873	1.579824	0.000187
  49	4.7760e+00	1.9090	14.150161	0.000568	5.676542	1.923264	0.000227
  50	4.8755e+00	1.9363	14.287423	0.000345	3.446472	1.167696	0.000138
  51	4.9750e+00	1.9812	14.533689	0.000618	6.183376	2.094984	0.000248
  52	5.0745e+00	2.0261	14.707285	0.000436	4.358773	1.476792	0.000174
  53	5.1740e+00	2.0630	14.872808	0.000416	4.156039	1.408104	0.000166
  54	5.2735e+00	2.1031	15.034293	0.000405	4.054673	1.373760	0.000162
  55	5.3730e+00	2.1449	15.207890	0.000436	4.358773	1.476792	0.000174
  56	5.4725e+00	2.1769	15.413784	0.000517	5.169708	1.751544	0.000207
  57	5.5720e+00	2.2187	15.660050	0.000618	6.183376	2.094984	0.000248
  58	5.6715e+00	2.2604	15.769052	0.000274	2.736904	0.927288	0.000110
  59	5.7710e+00	2.3053	15.970909	0.000507	5.068341	1.717200	0.000203
  60	5.8705e+00	2.3390	16.184877	0.000537	5.372441	1.820232	0.000215
  61	5.9700e+00	2.3743	16.358474	0.000436	4.358773	1.476792	0.000174
  62	6.0695e+00	2.4256	16.552257	0.000487	4.865607	1.648512	0.000195
  63	6.1690e+00	2.4545	16.746039	0.000487	4.865607	1.648512	0.000195
  64	6.2685e+00	2.4946	16.935784	0.000476	4.764240	1.614168	0.000191
  65	6.3680e+00	2.5443	17.093233	0.000395	3.953306	1.339416	0.000158
  66	6.4675e+00	2.5796	17.327387	0.000588	5.879275	1.991952	0.000235
  67	6.5670e+00	2.6277	17.500983	0.000436	4.358773	1.476792	0.000174
  68	6.6665e+00	2.6646	17.690729	0.000476	4.764240	1.614168	0.000191
  69	6.7660e+00	2.6983	17.868363	0.000446	4.460140	1.511136	0.000179
  70	6.8655e+00	2.7400	18.037922	0.000426	4.257406	1.442448	0.000170
  71	6.9650e+00	2.7753	18.276113	0.000598	5.980642	2.026296	0.000239
  72	7.0645e+00	2.8138	18.477970	0.000507	5.068341	1.717200	0.000203
  73	7.1640e+00	2.8539	18.639456	0.000405	4.054673	1.373760	0.000162
  74	7.2635e+00	2.8924	18.837275	0.000497	4.966974	1.682856	0.000199
  75	7.3630e+00	2.9422	19.027021	0.000476	4.764240	1.614168	0.000191
  76	7.4625e+00	2.9726	19.216766	0.000476	4.764240	1.614168	0.000191
  77	7.5620e+00	3.0176	19.402474	0.000466	4.662873	1.579824	0.000187
  78	7.6615e+00	3.0577	19.604331	0.000507	5.068341	1.717200	0.000203
  79	7.7610e+00	3.0898	19.814262	0.000527	5.271074	1.785888	0.000211
  80	7.8605e+00	3.1379	20.016119	0.000507	5.068341	1.717200	0.000203
  81	7.9600e+00	3.1780	20.165493	0.000375	3.750572	1.270728	0.000150
  82	8.0595e+00	3.2213	20.415795	0.000628	6.284742	2.129328	0.000252
  83	8.1590e+00	3.2566	20.569207	0.000385	3.851939	1.305072	0.000154
  84	8.2585e+00	3.2951	20.771063	0.000507	5.068341	1.717200	0.000203
  85	8.3580e+00	3.3256	20.952734	0.000456	4.561507	1.545480	0.000183
  86	8.4575e+00	3.3689	21.134406	0.000456	4.561507	1.545480	0.000183
  87	8.5570e+00	3.4170	21.324151	0.000476	4.764240	1.614168	0.000191
  88	8.6565e+00	3.4571	21.509859	0.000466	4.662873	1.579824	0.000187
  89	8.7560e+00	3.4940	21.723827	0.000537	5.372441	1.820232	0.000215
  90	8.8555e+00	3.5357	21.905499	0.000456	4.561507	1.545480	0.000183
  91	8.9550e+00	3.5726	22.079095	0.000436	4.358773	1.476792	0.000174
  92	9.0545e+00	3.6079	22.289026	0.000527	5.271074	1.785888	0.000211
  93	9.1540e+00	3.6528	22.494920	0.000517	5.169708	1.751544	0.000207
  94	9.2535e+00	3.6897	22.664480	0.000426	4.257406	1.442448	0.000170
  95	9.3530e+00	3.7330	22.878448	0.000537	5.372441	1.820232	0.000215
  96	9.4525e+00	3.7716	23.076268	0.000497	4.966974	1.682856	0.000199
  97	9.5520e+00	3.8052	23.261976	0.000466	4.662873	1.579824	0.000187
  98	9.6515e+00	3.8550	23.439610	0.000446	4.460140	1.511136	0.000179
  99	9.7510e+00	3.8919	23.625318	0.000466	4.662873	1.579824	0.000187
 100	9.8505e+00	3.9272	23.815064	0.000476	4.764240	1.614168	0.000191
 101	9.9500e+00	3.9737	24.008846	0.000487	4.865607	1.648512	0.000195
 102	1.0050e+01	4.0138	24.214740	0.000517	5.169708	1.751544	0.000207
 103	1.0149e+01	4.0571	24.380263	0.000416	4.156039	1.408104	0.000166
 104	1.0248e+01	4.0940	24.565971	0.000466	4.662873	1.579824	0.000187
 105	1.0348e+01	4.1293	24.759753	0.000487	4.865607	1.648512	0.000195
 106	1.0447e+01	4.1742	24.981796	0.000558	5.575175	1.888920	0.000223
 107	1.0547e+01	4.2079	25.127133	0.000365	3.649205	1.236384	0.000146
 108	1.0646e+01	4.2464	25.341101	0.000537	5.372441	1.820232	0.000215
 109	1.0746e+01	4.2913	25.490475	0.000375	3.750572	1.270728	0.000150
 110	1.0845e+01	4.3266	25.688295	0.000497	4.966974	1.682856	0.000199
 111	1.0945e+01	4.3747	25.869966	0.000456	4.561507	1.545480	0.000183
 112	1.1044e+01	4.4132	26.071823	0.000507	5.068341	1.717200	0.000203
 113	1.1144e+01	4.4453	26.289828	0.000547	5.473808	1.854576	0.000219
 114	1.1243e+01	4.4870	26.443239	0.000385	3.851939	1.305072	0.000154
 115	1.1343e+01	4.5287	26.616836	0.000436	4.358773	1.476792	0.000174
 116	1.1443e+01	4.5721	26.802544	0.000466	4.662873	1.579824	0.000187
 117	1.1542e+01	4.6074	27.008438	0.000517	5.169708	1.751544	0.000207
 118	1.1642e+01	4.6491	27.202221	0.000487	4.865607	1.648512	0.000195
 119	1.1741e+01	4.6795	27.440412	0.000598	5.980642	2.026296	0.000239
 120	1.1841e+01	4.7293	27.549414	0.000274	2.736904	0.927288	0.000110
 121	1.1940e+01	4.7694	27.767420	0.000547	5.473808	1.854576	0.000219
 122	1.2040e+01	4.8063	27.920831	0.000385	3.851939	1.305072	0.000154
 123	1.2139e+01	4.8464	28.122688	0.000507	5.068341	1.717200	0.000203
 124	1.2239e+01	4.8929	28.324544	0.000507	5.068341	1.717200	0.000203
 125	1.2338e+01	4.9394	28.506215	0.000456	4.561507	1.545480	0.000183
 126	1.2438e+01	4.9731	28.683849	0.000446	4.460140	1.511136	0.000179
 127	1.2537e+01	5.0100	28.901855	0.000547	5.473808	1.854576	0.000219
 128	1.2636e+01	5.0565	29.091600	0.000476	4.764240	1.614168	0.000191
 129	1.2736e+01	5.0790	29.257123	0.000416	4.156039	1.408104	0.000166
 130	1.2835e+01	5.1368	29.454942	0.000497	4.966974	1.682856	0.000199
 131	1.2935e+01	5.1656	29.616428	0.000405	4.054673	1.373760	0.000162
 132	1.3034e+01	5.2073	29.814247	0.000497	4.966974	1.682856	0.000199
 133	1.3134e+01	5.2523	30.020141	0.000517	5.169708	1.751544	0.000207
 134	1.3233e+01	5.2843	30.153367	0.000335	3.345105	1.133352	0.000134
 135	1.3333e+01	5.3309	30.359261	0.000517	5.169708	1.751544	0.000207
 136	1.3432e+01	5.3694	30.549006	0.000476	4.764240	1.614168	0.000191
 137	1.3532e+01	5.4063	30.722603	0.000436	4.358773	1.476792	0.000174
 138	1.3632e+01	5.4480	30.888126	0.000416	4.156039	1.408104	0.000166
 139	1.3731e+01	5.4945	31.126317	0.000598	5.980642	2.026296	0.000239
 140	1.3831e+01	5.5218	31.295876	0.000426	4.257406	1.442448	0.000170
 141	1.3930e+01	5.5651	31.477547	0.000456	4.561507	1.545480	0.000183
 142	1.4030e+01	5.6052	31.647107	0.000426	4.257406	1.442448	0.000170
 143	1.4129e+01	5.6405	31.844927	0.000497	4.966974	1.682856	0.000199
 144	1.4229e+01	5.6838	32.058895	0.000537	5.372441	1.820232	0.000215
 145	1.4328e+01	5.7255	32.180009	0.000304	3.041004	1.030320	0.000122
 146	1.4428e+01	5.7656	32.369754	0.000476	4.764240	1.614168	0.000191
 147	1.4527e+01	5.7993	32.555463	0.000466	4.662873	1.579824	0.000187
 148	1.4627e+01	5.8394	32.737134	0.000456	4.561507	1.545480	0.000183
 149	1.4726e+01	5.8875	32.963213	0.000568	5.676542	1.923264	0.000227
 150	1.4825e+01	5.9292	33.108550	0.000365	3.649205	1.236384	0.000146
 151	1.4925e+01	5.9661	33.278110	0.000426	4.257406	1.442448	0.000170
 152	1.5024e+01	6.0014	33.443632	0.000416	4.156039	1.408104	0.000166
 153	1.5124e+01	6.0431	33.645489	0.000507	5.068341	1.717200	0.000203
 154	1.5223e+01	6.0768	33.798900	0.000385	3.851939	1.305072	0.000154
 155	1.5323e+01	6.1266	34.020943	0.000558	5.575175	1.888920	0.000223
 156	1.5422e+01	6.1667	34.202614	0.000456	4.561507	1.545480	0.000183
 157	1.5522e+01	6.2052	34.392359	0.000476	4.764240	1.614168	0.000191
 158	1.5621e+01	6.2373	34.537696	0.000365	3.649205	1.236384	0.000146
 159	1.5721e+01	6.2774	34.719367	0.000456	4.561507	1.545480	0.000183
 160	1.5820e+01	6.3255	34.901038	0.000456	4.561507	1.545480	0.000183
 161	1.5920e+01	6.3720	35.086747	0.000466	4.662873	1.579824	0.000187
 162	1.6020e+01	6.4041	35.252269	0.000416	4.156039	1.408104	0.000166
 163	1.6119e+01	6.4426	35.433940	0.000456	4.561507	1.545480	0.000183
 164	1.6218e+01	6.4747	35.587352	0.000385	3.851939	1.305072	0.000154
 165	1.6318e+01	6.5164	35.764986	0.000446	4.460140	1.511136	0.000179
 166	1.6418e+01	6.5677	35.978954	0.000537	5.372441	1.820232	0.000215
 167	1.6517e+01	6.5950	36.132365	0.000385	3.851939	1.305072	0.000154
 168	1.6616e+01	6.6351	36.305962	0.000436	4.358773	1.476792	0.000174
 169	1.6716e+01	6.6752	36.495707	0.000476	4.764240	1.614168	0.000191
 170	1.6816e+01	6.7169	36.685452	0.000476	4.764240	1.614168	0.000191
 171	1.6915e+01	6.7634	36.846938	0.000405	4.054673	1.373760	0.000162
 172	1.7015e+01	6.8052	37.040720	0.000487	4.865607	1.648512	0.000195
 173	1.7114e+01	6.8356	37.210280	0.000426	4.257406	1.442448	0.000170
 174	1.7213e+01	6.8709	37.387914	0.000446	4.460140	1.511136	0.000179
 175	1.7313e+01	6.9175	37.557474	0.000426	4.257406	1.442448	0.000170
 176	1.7413e+01	6.9576	37.759331	0.000507	5.068341	1.717200	0.000203
 177	1.7512e+01	6.9961	37.924853	0.000416	4.156039	1.408104	0.000166
 178	1.7611e+01	7.0410	38.118636	0.000487	4.865607	1.648512	0.000195
 179	1.7711e+01	7.0811	38.272047	0.000385	3.851939	1.305072	0.000154
 180	1.7811e+01	7.1164	38.453718	0.000456	4.561507	1.545480	0.000183
 181	1.7910e+01	7.1581	38.635389	0.000456	4.561507	1.545480	0.000183
 182	1.8009e+01	7.1966	38.784763	0.000375	3.750572	1.270728	0.000150
 183	1.8109e+01	7.2367	38.998731	0.000537	5.372441	1.820232	0.000215
 184	1.8209e+01	7.2768	39.172328	0.000436	4.358773	1.476792	0.000174
 185	1.8308e+01	7.3201	39.353999	0.000456	4.561507	1.545480	0.000183
 186	1.8407e+01	7.3586	39.531633	0.000446	4.460140	1.511136	0.000179
 187	1.8507e+01	7.4019	39.741564	0.000527	5.271074	1.785888	0.000211
 188	1.8607e+01	7.4404	39.858641	0.000294	2.939638	0.995976	0.000118
 189	1.8706e+01	7.4741	40.024164	0.000416	4.156039	1.408104	0.000166
 190	1.8805e+01	7.5222	40.250243	0.000568	5.676542	1.923264	0.000227
 191	1.8905e+01	7.5591	40.427877	0.000446	4.460140	1.511136	0.000179
 192	1.9005e+01	7.6121	40.609548	0.000456	4.561507	1.545480	0.000183
 193	1.9104e+01	7.6378	40.730662	0.000304	3.041004	1.030320	0.000122
 194	1.9203e+01	7.6763	40.928482	0.000497	4.966974	1.682856	0.000199
 195	1.9303e+01	7.7115	41.094005	0.000416	4.156039	1.408104	0.000166
 196	1.9402e+01	7.7517	41.275676	0.000456	4.561507	1.545480	0.000183
 197	1.9502e+01	7.8014	41.485607	0.000527	5.271074	1.785888	0.000211
 198	1.9602e+01	7.8383	41.634981	0.000375	3.750572	1.270728	0.000150
 199	1.9701e+01	7.8736	41.844912	0.000527	5.271074	1.785888	0.000211
 200	1.9800e+01	7.9233	42.002360	0.000395	3.953306	1.339416	0.000158
 201	1.9900e+01	7.9458	42.147697	0.000365	3.649205	1.236384	0.000146
 202	2.0000e+01	7.9987	42.297071	0.000375	3.750572	1.270728	0.000150
 203	2.0099e+01	8.0404	42.507002	0.000527	5.271074	1.785888	0.000211
 204	2.0198e+01	8.0709	42.696748	0.000476	4.764240	1.614168	0.000191
 205	2.0298e+01	8.1062	42.890530	0.000487	4.865607	1.648512	0.000195
 206	2.0398e+01	8.1591	43.043941	0.000385	3.851939	1.305072	0.000154
 207	2.0497e+01	8.1944	43.225612	0.000456	4.561507	1.545480	0.000183
 208	2.0596e+01	8.2361	43.407283	0.000456	4.561507	1.545480	0.000183
 209	2.0696e+01	8.2698	43.592992	0.000466	4.662873	1.579824	0.000187
 210	2.0796e+01	8.3163	43.734291	0.000355	3.547838	1.202040	0.000142
 211	2.0895e+01	8.3500	43.907888	0.000436	4.358773	1.476792	0.000174
 212	2.0994e+01	8.3998	44.085522	0.000446	4.460140	1.511136	0.000179
 213	2.1094e+01	8.4367	44.251045	0.000416	4.156039	1.408104	0.000166
 214	2.1194e+01	8.4784	44.404456	0.000385	3.851939	1.305072	0.000154
 215	2.1293e+01	8.5121	44.569979	0.000416	4.156039	1.408104	0.000166
 216	2.1392e+01	8.5634	44.779910	0.000527	5.271074	1.785888	0.000211
 217	2.1492e+01	8.5955	44.921209	0.000355	3.547838	1.202040	0.000142
 218	2.1591e+01	8.6372	45.147289	0.000568	5.676542	1.923264	0.000227
 219	2.1691e+01	8.6757	45.312812	0.000416	4.156039	1.408104	0.000166
 220	2.1791e+01	8.7142	45.450074	0.000345	3.446472	1.167696	0.000138
 221	2.1890e+01	8.7447	45.668079	0.000547	5.473808	1.854576	0.000219
 222	2.1989e+01	8.8024	45.829565	0.000405	4.054673	1.373760	0.000162
 223	2.2089e+01	8.8361	46.015273	0.000466	4.662873	1.579824	0.000187
 224	2.2189e+01	8.8714	46.144461	0.000324	3.243738	1.099008	0.000130
 225	2.2288e+01	8.9067	46.334207	0.000476	4.764240	1.614168	0.000191
 226	2.2387e+01	8.9516	46.499729	0.000416	4.156039	1.408104	0.000166
 227	2.2487e+01	8.9885	46.689475	0.000476	4.764240	1.614168	0.000191
 228	2.2587e+01	9.0350	46.846923	0.000395	3.953306	1.339416	0.000158
 229	2.2686e+01	9.0687	46.996297	0.000375	3.750572	1.270728	0.000150
 230	2.2785e+01	9.1120	47.173931	0.000446	4.460140	1.511136	0.000179
 231	2.2885e+01	9.1425	47.351565	0.000446	4.460140	1.511136	0.000179
 232	2.2985e+01	9.1842	47.533236	0.000456	4.561507	1.545480	0.000183
 233	2.3084e+01	9.2356	47.714907	0.000456	4.561507	1.545480	0.000183
 234	2.3183e+01	9.2773	47.916764	0.000507	5.068341	1.717200	0.000203
 235	2.3283e+01	9.3110	48.045952	0.000324	3.243738	1.099008	0.000130
 236	2.3383e+01	9.3479	48.187252	0.000355	3.547838	1.202040	0.000142
 237	2.3482e+01	9.3960	48.393146	0.000517	5.169708	1.751544	0.000207
 238	2.3581e+01	9.4329	48.534446	0.000355	3.547838	1.202040	0.000142
 239	2.3681e+01	9.4666	48.728228	0.000487	4.865607	1.648512	0.000195
 240	2.3780e+01	9.5179	48.917974	0.000476	4.764240	1.614168	0.000191
 241	2.3880e+01	9.5516	49.059273	0.000355	3.547838	1.202040	0.000142
 242	2.3980e+01	9.5869	49.244982	0.000466	4.662873	1.579824	0.000187
 243	2.4079e+01	9.6302	49.386281	0.000355	3.547838	1.202040	0.000142
 244	2.4178e+01	9.6703	49.547767	0.000405	4.054673	1.373760	0.000162
 245	2.4278e+01	9.7200	49.753661	0.000517	5.169708	1.751544	0.000207
 246	2.4378e+01	9.7618	49.894961	0.000355	3.547838	1.202040	0.000142
 247	2.4477e+01	9.7890	50.080669	0.000466	4.662873	1.579824	0.000187
 248	2.4576e+01	9.8227	50.213894	0.000335	3.345105	1.133352	0.000134
 249	2.4676e+01	9.8676	50.403640	0.000476	4.764240	1.614168	0.000191
 250	2.4776e+01	9.8997	50.569162	0.000416	4.156039	1.408104	0.000166
 251	2.4875e+01	9.9511	50.754870	0.000466	4.662873	1.579824	0.000187
 252	2.4974e+01	9.9896	50.908282	0.000385	3.851939	1.305072	0.000154
 253	2.5074e+01	10.0345	51.053619	0.000365	3.649205	1.236384	0.000146
 254	2.5174e+01	10.0810	51.239327	0.000466	4.662873	1.579824	0.000187
 255	2.5273e+01	10.0954	51.384664	0.000365	3.649205	1.236384	0.000146
 256	2.5372e+01	10.1532	51.574409	0.000476	4.764240	1.614168	0.000191
 257	2.5472e+01	10.1885	51.727820	0.000385	3.851939	1.305072	0.000154
 258	2.5572e+01	10.2366	51.929677	0.000507	5.068341	1.717200	0.000203
 259	2.5671e+01	10.2703	52.058865	0.000324	3.243738	1.099008	0.000130
 260	2.5770e+01	10.3120	52.232462	0.000436	4.358773	1.476792	0.000174
 261	2.5870e+01	10.3425	52.377799	0.000365	3.649205	1.236384	0.000146
 262	2.5970e+01	10.3858	52.535247	0.000395	3.953306	1.339416	0.000158
 263	2.6069e+01	10.4275	52.724993	0.000476	4.764240	1.614168	0.000191
 264	2.6169e+01	10.4692	52.874367	0.000375	3.750572	1.270728	0.000150
 265	2.6268e+01	10.4997	53.068149	0.000487	4.865607	1.648512	0.000195
 266	2.6367e+01	10.5462	53.213486	0.000365	3.649205	1.236384	0.000146
 267	2.6467e+01	10.5831	53.330563	0.000294	2.939638	0.995976	0.000118
 268	2.6567e+01	10.6361	53.524346	0.000487	4.865607	1.648512	0.000195
 269	2.6666e+01	10.6665	53.697942	0.000436	4.358773	1.476792	0.000174
 270	2.6765e+01	10.7066	53.831168	0.000335	3.345105	1.133352	0.000134
 271	2.6865e+01	10.7484	54.020913	0.000476	4.764240	1.614168	0.000191
 272	2.6965e+01	10.7869	54.150102	0.000324	3.243738	1.099008	0.000130
 273	2.7064e+01	10.8334	54.295439	0.000365	3.649205	1.236384	0.000146
 274	2.7163e+01	10.8703	54.477110	0.000456	4.561507	1.545480	0.000183
 275	2.7263e+01	10.9040	54.634558	0.000395	3.953306	1.339416	0.000158
 276	2.7363e+01	10.9489	54.804118	0.000426	4.257406	1.442448	0.000170
 277	2.7462e+01	10.9858	54.925232	0.000304	3.041004	1.030320	0.000122
 278	2.7561e+01	11.0307	55.131126	0.000517	5.169708	1.751544	0.000207
 279	2.7661e+01	11.0660	55.292611	0.000405	4.054673	1.373760	0.000162
 280	2.7761e+01	11.1013	55.421799	0.000324	3.243738	1.099008	0.000130
 281	2.7860e+01	11.1430	55.583285	0.000405	4.054673	1.373760	0.000162
 282	2.7959e+01	11.1831	55.724585	0.000355	3.547838	1.202040	0.000142
 283	2.8059e+01	11.2200	55.877996	0.000385	3.851939	1.305072	0.000154
 284	2.8159e+01	11.2665	56.027370	0.000375	3.750572	1.270728	0.000150
 285	2.8258e+01	11.2970	56.172707	0.000365	3.649205	1.236384	0.000146
 286	2.8358e+01	11.3435	56.362452	0.000476	4.764240	1.614168	0.000191
 287	2.8457e+01	11.3788	56.527975	0.000416	4.156039	1.408104	0.000166
 288	2.8556e+01	11.4221	56.689460	0.000405	4.054673	1.373760	0.000162
 289	2.8656e+01	11.4687	56.826723	0.000345	3.446472	1.167696	0.000138
 290	2.8756e+01	11.5007	56.963985	0.000345	3.446472	1.167696	0.000138
 291	2.8855e+01	11.5425	57.129508	0.000416	4.156039	1.408104	0.000166
 292	2.8954e+01	11.5858	57.266770	0.000345	3.446472	1.167696	0.000138
 293	2.9054e+01	11.6275	57.432293	0.000416	4.156039	1.408104	0.000166
 294	2.9154e+01	11.6596	57.593778	0.000405	4.054673	1.373760	0.000162
 295	2.9253e+01	11.7109	57.763338	0.000426	4.257406	1.442448	0.000170
 296	2.9352e+01	11.7446	57.928861	0.000416	4.156039	1.408104	0.000166
 297	2.9452e+01	11.7799	58.033826	0.000264	2.635537	0.892944	0.000105
 298	2.9552e+01	11.8232	58.211460	0.000446	4.460140	1.511136	0.000179
 299	2.9651e+01	11.8665	58.385057	0.000436	4.358773	1.476792	0.000174
 300	2.9750e+01	11.9018	58.510208	0.000314	3.142371	1.064664	0.000126
 301	2.9850e+01	11.9387	58.635359	0.000314	3.142371	1.064664	0.000126
 302	2.9950e+01	11.9740	58.817031	0.000456	4.561507	1.545480	0.000183
 303	3.0049e+01	12.0173	58.950256	0.000335	3.345105	1.133352	0.000134
 304	3.0148e+01	12.0590	59.099630	0.000375	3.750572	1.270728	0.000150
 305	3.0248e+01	12.1023	59.277264	0.000446	4.460140	1.511136	0.000179
 306	3.0348e+01	12.1424	59.462972	0.000466	4.662873	1.579824	0.000187
 307	3.0447e+01	12.1841	59.563901	0.000253	2.534170	0.858600	0.000101
 308	3.0547e+01	12.2194	59.729423	0.000416	4.156039	1.408104	0.000166
 309	3.0646e+01	12.2563	59.854574	0.000314	3.142371	1.064664	0.000126
 310	3.0745e+01	12.3013	60.007986	0.000385	3.851939	1.305072	0.000154
 311	3.0845e+01	12.3398	60.185620	0.000446	4.460140	1.511136	0.000179
 312	3.0945e+01	12.3751	60.306734	0.000304	3.041004	1.030320	0.000122
 313	3.1044e+01	12.4184	60.484368	0.000446	4.460140	1.511136	0.000179
 314	3.1143e+01	12.4601	60.629705	0.000365	3.649205	1.236384	0.000146
 315	3.1243e+01	12.4906	60.771004	0.000355	3.547838	1.202040	0.000142
 316	3.1343e+01	12.5323	60.900193	0.000324	3.243738	1.099008	0.000130
 317	3.1442e+01	12.5820	61.065715	0.000416	4.156039	1.408104	0.000166
 318	3.1541e+01	12.6141	61.202978	0.000345	3.446472	1.167696	0.000138
 319	3.1641e+01	12.6606	61.360426	0.000395	3.953306	1.339416	0.000158
 320	3.1741e+01	12.7007	61.513837	0.000385	3.851939	1.305072	0.000154
 321	3.1840e+01	12.7296	61.651100	0.000345	3.446472	1.167696	0.000138
 322	3.1939e+01	12.7841	61.844882	0.000487	4.865607	1.648512	0.000195
 323	3.2039e+01	12.8130	61.970034	0.000314	3.142371	1.064664	0.000126
 324	3.2139e+01	12.8579	62.079036	0.000274	2.736904	0.927288	0.000110
 325	3.2238e+01	12.8916	62.240522	0.000405	4.054673	1.373760	0.000162
 326	3.2337e+01	12.9269	62.357599	0.000294	2.939638	0.995976	0.000118
 327	3.2437e+01	12.9702	62.519084	0.000405	4.054673	1.373760	0.000162
 328	3.2536e+01	13.0087	62.652310	0.000335	3.345105	1.133352	0.000134
 329	3.2636e+01	13.0520	62.809758	0.000395	3.953306	1.339416	0.000158
 330	3.2736e+01	13.0905	62.959132	0.000375	3.750572	1.270728	0.000150
 331	3.2835e+01	13.1306	63.084283	0.000314	3.142371	1.064664	0.000126
 332	3.2934e+01	13.1724	63.274028	0.000476	4.764240	1.614168	0.000191
 333	3.3034e+01	13.2141	63.395142	0.000304	3.041004	1.030320	0.000122
 334	3.3133e+01	13.2478	63.536442	0.000355	3.547838	1.202040	0.000142
 335	3.3233e+01	13.2991	63.661593	0.000314	3.142371	1.064664	0.000126
 336	3.3333e+01	13.3360	63.786745	0.000314	3.142371	1.064664	0.000126
 337	3.3432e+01	13.3729	63.936119	0.000375	3.750572	1.270728	0.000150
 338	3.3532e+01	13.4146	64.137975	0.000507	5.068341	1.717200	0.000203
 339	3.3631e+01	13.4515	64.259090	0.000304	3.041004	1.030320	0.000122
 340	3.3730e+01	13.4932	64.380204	0.000304	3.041004	1.030320	0.000122
 341	3.3830e+01	13.5397	64.553800	0.000436	4.358773	1.476792	0.000174
 342	3.3929e+01	13.5766	64.687026	0.000335	3.345105	1.133352	0.000134
 343	3.4029e+01	13.6151	64.844474	0.000395	3.953306	1.339416	0.000158
 344	3.4129e+01	13.6504	64.985774	0.000355	3.547838	1.202040	0.000142
 345	3.4228e+01	13.6953	65.118999	0.000335	3.345105	1.133352	0.000134
 346	3.4328e+01	13.7306	65.272411	0.000385	3.851939	1.305072	0.000154
 347	3.4427e+01	13.7739	65.393525	0.000304	3.041004	1.030320	0.000122
 348	3.4526e+01	13.8157	65.522713	0.000324	3.243738	1.099008	0.000130
 349	3.4626e+01	13.8606	65.724570	0.000507	5.068341	1.717200	0.000203
 350	3.4725e+01	13.9007	65.829535	0.000264	2.635537	0.892944	0.000105
 351	3.4825e+01	13.9376	65.974872	0.000365	3.649205	1.236384	0.000146
 352	3.4925e+01	13.9681	66.112135	0.000345	3.446472	1.167696	0.000138
 353	3.5024e+01	14.0194	66.261509	0.000375	3.750572	1.270728	0.000150
 354	3.5123e+01	14.0483	66.402809	0.000355	3.547838	1.202040	0.000142
 355	3.5223e+01	14.0900	66.556220	0.000385	3.851939	1.305072	0.000154
 356	3.5322e+01	14.1269	66.701557	0.000365	3.649205	1.236384	0.000146
 357	3.5422e+01	14.1798	66.863042	0.000405	4.054673	1.373760	0.000162
 358	3.5522e+01	14.2055	66.968008	0.000264	2.635537	0.892944	0.000105
 359	3.5621e+01	14.2472	67.109307	0.000355	3.547838	1.202040	0.000142
 360	3.5721e+01	14.2873	67.258681	0.000375	3.750572	1.270728	0.000150
 361	3.5820e+01	14.3306	67.399981	0.000355	3.547838	1.202040	0.000142
 362	3.5919e+01	14.3707	67.557429	0.000395	3.953306	1.339416	0.000158
 363	3.6019e+01	14.4172	67.706803	0.000375	3.750572	1.270728	0.000150
 364	3.6118e+01	14.4413	67.827918	0.000304	3.041004	1.030320	0.000122
 365	3.6218e+01	14.4958	68.005552	0.000446	4.460140	1.511136	0.000179
 366	3.6318e+01	14.5295	68.134740	0.000324	3.243738	1.099008	0.000130
 367	3.6417e+01	14.5648	68.280077	0.000365	3.649205	1.236384	0.000146
 368	3.6517e+01	14.6114	68.417339	0.000345	3.446472	1.167696	0.000138
 369	3.6616e+01	14.6515	68.578825	0.000405	4.054673	1.373760	0.000162
 370	3.6715e+01	14.6964	68.683790	0.000264	2.635537	0.892944	0.000105
 371	3.6815e+01	14.7333	68.817016	0.000335	3.345105	1.133352	0.000134
 372	3.6914e+01	14.7654	68.970427	0.000385	3.851939	1.305072	0.000154
 373	3.7014e+01	14.7942	69.103652	0.000335	3.345105	1.133352	0.000134
 374	3.7114e+01	14.8440	69.277249	0.000436	4.358773	1.476792	0.000174
 375	3.7213e+01	14.8921	69.438735	0.000405	4.054673	1.373760	0.000162
 376	3.7313e+01	14.9322	69.531589	0.000233	2.331437	0.789912	0.000093
 377	3.7412e+01	14.9755	69.697111	0.000416	4.156039	1.408104	0.000166
 378	3.7511e+01	15.0092	69.830337	0.000335	3.345105	1.133352	0.000134
 379	3.7611e+01	15.0493	69.967599	0.000345	3.446472	1.167696	0.000138
 380	3.7711e+01	15.0798	70.116973	0.000375	3.750572	1.270728	0.000150
 381	3.7810e+01	15.1295	70.250199	0.000335	3.345105	1.133352	0.000134
 382	3.7910e+01	15.1728	70.387462	0.000345	3.446472	1.167696	0.000138
 383	3.8009e+01	15.2113	70.540873	0.000385	3.851939	1.305072	0.000154
 384	3.8108e+01	15.2450	70.694284	0.000385	3.851939	1.305072	0.000154
 385	3.8208e+01	15.2803	70.835584	0.000355	3.547838	1.202040	0.000142
 386	3.8307e+01	15.3317	70.972846	0.000345	3.446472	1.167696	0.000138
 387	3.8407e+01	15.3573	71.081849	0.000274	2.736904	0.927288	0.000110
 388	3.8507e+01	15.4167	71.239297	0.000395	3.953306	1.339416	0.000158
 389	3.8606e+01	15.4488	71.380597	0.000355	3.547838	1.202040	0.000142
 390	3.8706e+01	15.4857	71.525934	0.000365	3.649205	1.236384	0.000146
 391	3.8805e+01	15.5210	71.707605	0.000456	4.561507	1.545480	0.000183
 392	3.8904e+01	15.5723	71.792385	0.000213	2.128703	0.721224	0.000085
 393	3.9004e+01	15.6012	71.937722	0.000365	3.649205	1.236384	0.000146
 394	3.9103e+01	15.6493	72.054799	0.000294	2.939638	0.995976	0.000118
 395	3.9203e+01	15.6862	72.240507	0.000466	4.662873	1.579824	0.000187
 396	3.9303e+01	15.7199	72.365658	0.000314	3.142371	1.064664	0.000126
 397	3.9402e+01	15.7728	72.502921	0.000345	3.446472	1.167696	0.000138
 398	3.9502e+01	15.8113	72.692666	0.000476	4.764240	1.614168	0.000191
 399	3.9601e+01	15.8418	72.781483	0.000223	2.230070	0.755568	0.000089
 400	3.9700e+01	15.8867	72.906634	0.000314	3.142371	1.064664	0.000126
 401	3.9800e+01	15.9316	73.064083	0.000395	3.953306	1.339416	0.000158
 402	3.9900e+01	15.9573	73.209419	0.000365	3.649205	1.236384	0.000146
 403	3.9999e+01	16.0135	73.354756	0.000365	3.649205	1.236384	0.000146
 404	4.0099e+01	16.0407	73.487982	0.000335	3.345105	1.133352	0.000134
 405	4.0198e+01	16.0792	73.625244	0.000345	3.446472	1.167696	0.000138
 406	4.0297e+01	16.1257	73.746359	0.000304	3.041004	1.030320	0.000122
 407	4.0397e+01	16.1610	73.879584	0.000335	3.345105	1.133352	0.000134
 408	4.0496e+01	16.2092	74.008772	0.000324	3.243738	1.099008	0.000130
 409	4.0596e+01	16.2396	74.182369	0.000436	4.358773	1.476792	0.000174
 410	4.0696e+01	16.2733	74.299446	0.000294	2.939638	0.995976	0.000118
 411	4.0795e+01	16.3231	74.444783	0.000365	3.649205	1.236384	0.000146
 412	4.0895e+01	16.3680	74.578008	0.000335	3.345105	1.133352	0.000134
 413	4.0994e+01	16.4017	74.715271	0.000345	3.446472	1.167696	0.000138
 414	4.1093e+01	16.4498	74.880794	0.000416	4.156039	1.408104	0.000166
 415	4.1193e+01	16.4819	75.026131	0.000365	3.649205	1.236384	0.000146
 416	4.1292e+01	16.5124	75.127059	0.000253	2.534170	0.858600	0.000101
 417	4.1392e+01	16.5637	75.268359	0.000355	3.547838	1.202040	0.000142
 418	4.1492e+01	16.6070	75.421770	0.000385	3.851939	1.305072	0.000154
 419	4.1591e+01	16.6439	75.603441	0.000456	4.561507	1.545480	0.000183
 420	4.1691e+01	16.6840	75.663998	0.000152	1.520502	0.515160	0.000061
 421	4.1790e+01	16.7193	75.801261	0.000345	3.446472	1.167696	0.000138
 422	4.1889e+01	16.7690	75.946598	0.000365	3.649205	1.236384	0.000146
 423	4.1989e+01	16.7979	76.079823	0.000335	3.345105	1.133352	0.000134
 424	4.2089e+01	16.8396	76.217086	0.000345	3.446472	1.167696	0.000138
 425	4.2188e+01	16.8765	76.354348	0.000345	3.446472	1.167696	0.000138
 426	4.2288e+01	16.9214	76.475462	0.000304	3.041004	1.030320	0.000122
 427	4.2387e+01	16.9599	76.661171	0.000466	4.662873	1.579824	0.000187
 428	4.2486e+01	17.0033	76.782285	0.000304	3.041004	1.030320	0.000122
 429	4.2586e+01	17.0418	76.895324	0.000284	2.838271	0.961632	0.000114
 430	4.2685e+01	17.0819	77.044698	0.000375	3.750572	1.270728	0.000150
 431	4.2785e+01	17.1188	77.145627	0.000253	2.534170	0.858600	0.000101
 432	4.2885e+01	17.1573	77.315187	0.000426	4.257406	1.442448	0.000170
 433	4.2984e+01	17.2022	77.428226	0.000284	2.838271	0.961632	0.000114
 434	4.3084e+01	17.2439	77.541266	0.000284	2.838271	0.961632	0.000114
 435	4.3183e+01	17.2808	77.702752	0.000405	4.054673	1.373760	0.000162
 436	4.3282e+01	17.3161	77.815791	0.000284	2.838271	0.961632	0.000114
 437	4.3382e+01	17.3658	77.953054	0.000345	3.446472	1.167696	0.000138
 438	4.3481e+01	17.3931	78.074168	0.000304	3.041004	1.030320	0.000122
 439	4.3581e+01	17.4460	78.203356	0.000324	3.243738	1.099008	0.000130
 440	4.3681e+01	17.4797	78.368879	0.000416	4.156039	1.408104	0.000166
 441	4.3780e+01	17.5134	78.457696	0.000223	2.230070	0.755568	0.000089
 442	4.3880e+01	17.5647	78.578810	0.000304	3.041004	1.030320	0.000122
 443	4.3979e+01	17.5952	78.756444	0.000446	4.460140	1.511136	0.000179
 444	4.4078e+01	17.6353	78.845261	0.000223	2.230070	0.755568	0.000089
 445	4.4178e+01	17.6754	78.986561	0.000355	3.547838	1.202040	0.000142
 446	4.4278e+01	17.7236	79.135935	0.000375	3.750572	1.270728	0.000150
 447	4.4377e+01	17.7685	79.265123	0.000324	3.243738	1.099008	0.000130
 448	4.4477e+01	17.7958	79.362014	0.000243	2.432804	0.824256	0.000097
 449	4.4576e+01	17.8343	79.543685	0.000456	4.561507	1.545480	0.000183
 450	4.4675e+01	17.8695	79.636540	0.000233	2.331437	0.789912	0.000093
 451	4.4775e+01	17.9161	79.785914	0.000375	3.750572	1.270728	0.000150
 452	4.4874e+01	17.9514	79.907028	0.000304	3.041004	1.030320	0.000122
 453	4.4974e+01	17.9915	80.007956	0.000253	2.534170	0.858600	0.000101
 454	4.5074e+01	18.0396	80.149256	0.000355	3.547838	1.202040	0.000142
 455	4.5173e+01	18.0781	80.278444	0.000324	3.243738	1.099008	0.000130
 456	4.5273e+01	18.1182	80.395521	0.000294	2.939638	0.995976	0.000118
 457	4.5372e+01	18.1567	80.508561	0.000284	2.838271	0.961632	0.000114
 458	4.5471e+01	18.1984	80.641786	0.000335	3.345105	1.133352	0.000134
 459	4.5571e+01	18.2289	80.795198	0.000385	3.851939	1.305072	0.000154
 460	4.5670e+01	18.2706	80.912274	0.000294	2.939638	0.995976	0.000118
 461	4.5770e+01	18.3155	81.045500	0.000335	3.345105	1.133352	0.000134
 462	4.5870e+01	18.3508	81.166614	0.000304	3.041004	1.030320	0.000122
 463	4.5969e+01	18.3941	81.287728	0.000304	3.041004	1.030320	0.000122
 464	4.6069e+01	18.4342	81.424991	0.000345	3.446472	1.167696	0.000138
 465	4.6168e+01	18.4711	81.529956	0.000264	2.635537	0.892944	0.000105
 466	4.6267e+01	18.5128	81.634922	0.000264	2.635537	0.892944	0.000105
 467	4.6367e+01	18.5513	81.804481	0.000426	4.257406	1.442448	0.000170
 468	4.6467e+01	18.5963	81.909447	0.000264	2.635537	0.892944	0.000105
 469	4.6566e+01	18.6348	82.026524	0.000294	2.939638	0.995976	0.000118
 470	4.6666e+01	18.6717	82.200121	0.000436	4.358773	1.476792	0.000174
 471	4.6765e+01	18.7102	82.292975	0.000233	2.331437	0.789912	0.000093
 472	4.6864e+01	18.7663	82.397940	0.000264	2.635537	0.892944	0.000105
 473	4.6964e+01	18.7936	82.547314	0.000375	3.750572	1.270728	0.000150
 474	4.7063e+01	18.8401	82.664391	0.000294	2.939638	0.995976	0.000118
 475	4.7163e+01	18.8786	82.765320	0.000253	2.534170	0.858600	0.000101
 476	4.7263e+01	18.9171	82.934879	0.000426	4.257406	1.442448	0.000170
 477	4.7362e+01	18.9524	83.035808	0.000253	2.534170	0.858600	0.000101
 478	4.7462e+01	18.9861	83.156922	0.000304	3.041004	1.030320	0.000122
 479	4.7561e+01	19.0326	83.282073	0.000314	3.142371	1.064664	0.000126
 480	4.7660e+01	19.0759	83.407224	0.000314	3.142371	1.064664	0.000126
 481	4.7760e+01	19.1096	83.516227	0.000274	2.736904	0.927288	0.000110
 482	4.7859e+01	19.1545	83.661564	0.000365	3.649205	1.236384	0.000146
 483	4.7959e+01	19.1914	83.766529	0.000264	2.635537	0.892944	0.000105
 484	4.8059e+01	19.2364	83.887644	0.000304	3.041004	1.030320	0.000122
 485	4.8158e+01	19.2716	84.053166	0.000416	4.156039	1.408104	0.000166
 486	4.8258e+01	19.3069	84.137946	0.000213	2.128703	0.721224	0.000085
 487	4.8357e+01	19.3454	84.275209	0.000345	3.446472	1.167696	0.000138
 488	4.8456e+01	19.3936	84.392285	0.000294	2.939638	0.995976	0.000118
 489	4.8556e+01	19.4385	84.501288	0.000274	2.736904	0.927288	0.000110
 490	4.8656e+01	19.4706	84.618365	0.000294	2.939638	0.995976	0.000118
 491	4.8755e+01	19.5187	84.739479	0.000304	3.041004	1.030320	0.000122
 492	4.8855e+01	19.5476	84.872705	0.000335	3.345105	1.133352	0.000134
 493	4.8954e+01	19.5829	84.965559	0.000233	2.331437	0.789912	0.000093
 494	4.9053e+01	19.6310	85.106858	0.000355	3.547838	1.202040	0.000142
 495	4.9153e+01	19.6695	85.219898	0.000284	2.838271	0.961632	0.000114
 496	4.9252e+01	19.7064	85.332938	0.000284	2.838271	0.961632	0.000114
 497	4.9352e+01	19.7465	85.458089	0.000314	3.142371	1.064664	0.000126
 498	4.9452e+01	19.7882	85.599389	0.000355	3.547838	1.202040	0.000142
 499	4.9551e+01	19.8267	85.684169	0.000213	2.128703	0.721224	0.000085
 500	4.9651e+01	19.8684	85.833543	0.000375	3.750572	1.270728	0.000150
 501	4.9750e+01	19.9085	85.942546	0.000274	2.736904	0.927288	0.000110
 502	4.9849e+01	19.9583	86.075771	0.000335	3.345105	1.133352	0.000134
 503	4.9949e+01	19.9952	86.168625	0.000233	2.331437	0.789912	0.000093
 504	5.0048e+01	19.9502	86.099994	0.000172	1.723236	0.583848	-0.000069
 505	5.0148e+01	19.9021	86.023288	0.000193	1.925969	0.652536	-0.000077
 506	5.0248e+01	19.8636	85.894100	0.000324	3.243738	1.099008	-0.000130
 507	5.0347e+01	19.8347	85.833543	0.000152	1.520502	0.515160	-0.000061
 508	5.0447e+01	19.7962	85.700317	0.000335	3.345105	1.133352	-0.000134
 509	5.0546e+01	19.7593	85.615538	0.000213	2.128703	0.721224	-0.000085
 510	5.0645e+01	19.7016	85.554981	0.000152	1.520502	0.515160	-0.000061
 511	5.0745e+01	19.6679	85.470201	0.000213	2.128703	0.721224	-0.000085
 512	5.0844e+01	19.6278	85.353124	0.000294	2.939638	0.995976	-0.000118
 513	5.0944e+01	19.5941	85.276418	0.000193	1.925969	0.652536	-0.000077
 514	5.1044e+01	19.5572	85.147230	0.000324	3.243738	1.099008	-0.000130
 515	5.1143e+01	19.5139	85.054376	0.000233	2.331437	0.789912	-0.000093
 516	5.1242e+01	19.4722	84.989782	0.000162	1.621869	0.549504	-0.000065
 517	5.1342e+01	19.4257	84.868667	0.000304	3.041004	1.030320	-0.000122
 518	5.1441e+01	19.3920	84.763702	0.000264	2.635537	0.892944	-0.000105
 519	5.1541e+01	19.3599	84.662774	0.000253	2.534170	0.858600	-0.000101
 520	5.1641e+01	19.3069	84.549734	0.000284	2.838271	0.961632	-0.000114
 521	5.1740e+01	19.2781	84.501288	0.000122	1.216402	0.412128	-0.000049
 522	5.1840e+01	19.2364	84.392285	0.000274	2.736904	0.927288	-0.000110
 523	5.1939e+01	19.1930	84.295394	0.000243	2.432804	0.824256	-0.000097
 524	5.2038e+01	19.1577	84.198503	0.000243	2.432804	0.824256	-0.000097
 525	5.2138e+01	19.1144	84.093537	0.000264	2.635537	0.892944	-0.000105
 526	5.2237e+01	19.0791	84.032980	0.000152	1.520502	0.515160	-0.000061
 527	5.2337e+01	19.0310	83.903792	0.000324	3.243738	1.099008	-0.000130
 528	5.2437e+01	18.9989	83.790752	0.000284	2.838271	0.961632	-0.000114
 529	5.2536e+01	18.9524	83.677712	0.000284	2.838271	0.961632	-0.000114
 530	5.2636e+01	18.9171	83.605044	0.000182	1.824603	0.618192	-0.000073
 531	5.2735e+01	18.8674	83.483930	0.000304	3.041004	1.030320	-0.000122
 532	5.2834e+01	18.8209	83.387039	0.000243	2.432804	0.824256	-0.000097
 533	5.2934e+01	18.7888	83.306296	0.000203	2.027336	0.686880	-0.000081
 534	5.3033e+01	18.7583	83.197293	0.000274	2.736904	0.927288	-0.000110
 535	5.3133e+01	18.7118	83.088291	0.000274	2.736904	0.927288	-0.000110
 536	5.3233e+01	18.6733	82.971214	0.000294	2.939638	0.995976	-0.000118
 537	5.3332e+01	18.6348	82.842025	0.000324	3.243738	1.099008	-0.000130
 538	5.3431e+01	18.5979	82.801654	0.000101	1.013668	0.343440	-0.000041
 539	5.3531e+01	18.5578	82.664391	0.000345	3.446472	1.167696	-0.000138
 540	5.3630e+01	18.5112	82.551352	0.000284	2.838271	0.961632	-0.000114
 541	5.3730e+01	18.4727	82.446386	0.000264	2.635537	0.892944	-0.000105
 542	5.3830e+01	18.4326	82.357569	0.000223	2.230070	0.755568	-0.000089
 543	5.3929e+01	18.3925	82.256641	0.000253	2.534170	0.858600	-0.000101
 544	5.4029e+01	18.3540	82.171861	0.000213	2.128703	0.721224	-0.000085
 545	5.4128e+01	18.3171	82.038635	0.000335	3.345105	1.133352	-0.000134
 546	5.4227e+01	18.2754	81.921558	0.000294	2.939638	0.995976	-0.000118
 547	5.4327e+01	18.2305	81.812556	0.000274	2.736904	0.927288	-0.000110
 548	5.4426e+01	18.1936	81.727776	0.000213	2.128703	0.721224	-0.000085
 549	5.4526e+01	18.1599	81.630885	0.000243	2.432804	0.824256	-0.000097
 550	5.4626e+01	18.1198	81.517845	0.000284	2.838271	0.961632	-0.000114
 551	5.4725e+01	18.0861	81.404805	0.000284	2.838271	0.961632	-0.000114
 552	5.4825e+01	18.0332	81.328099	0.000193	1.925969	0.652536	-0.000077
 553	5.4924e+01	17.9867	81.178725	0.000375	3.750572	1.270728	-0.000150
 554	5.5023e+01	17.9498	81.085871	0.000233	2.331437	0.789912	-0.000093
 555	5.5123e+01	17.9177	80.984943	0.000253	2.534170	0.858600	-0.000101
 556	5.5222e+01	17.8712	80.875940	0.000274	2.736904	0.927288	-0.000110
 557	5.5322e+01	17.8359	80.791160	0.000213	2.128703	0.721224	-0.000085
 558	5.5422e+01	17.7925	80.649861	0.000355	3.547838	1.202040	-0.000142
 559	5.5521e+01	17.7556	80.548932	0.000253	2.534170	0.858600	-0.000101
 560	5.5620e+01	17.7155	80.448004	0.000253	2.534170	0.858600	-0.000101
 561	5.5720e+01	17.6722	80.334964	0.000284	2.838271	0.961632	-0.000114
 562	5.5819e+01	17.6417	80.181553	0.000385	3.851939	1.305072	-0.000154
 563	5.5919e+01	17.5952	80.112922	0.000172	1.723236	0.583848	-0.000069
 564	5.6019e+01	17.5583	80.032179	0.000203	2.027336	0.686880	-0.000081
 565	5.6118e+01	17.5198	79.919139	0.000284	2.838271	0.961632	-0.000114
 566	5.6218e+01	17.4781	79.802062	0.000294	2.939638	0.995976	-0.000118
 567	5.6317e+01	17.4508	79.689022	0.000284	2.838271	0.961632	-0.000114
 568	5.6416e+01	17.4011	79.588094	0.000253	2.534170	0.858600	-0.000101
 569	5.6516e+01	17.3594	79.491203	0.000243	2.432804	0.824256	-0.000097
 570	5.6615e+01	17.3193	79.362014	0.000324	3.243738	1.099008	-0.000130
 571	5.6715e+01	17.2728	79.261086	0.000253	2.534170	0.858600	-0.000101
 572	5.6815e+01	17.2407	79.127860	0.000335	3.345105	1.133352	-0.000134
 573	5.6914e+01	17.2022	79.022895	0.000264	2.635537	0.892944	-0.000105
 574	5.7014e+01	17.1653	78.934078	0.000223	2.230070	0.755568	-0.000089
 575	5.7113e+01	17.1140	78.829112	0.000264	2.635537	0.892944	-0.000105
 576	5.7212e+01	17.0835	78.679738	0.000375	3.750572	1.270728	-0.000150
 577	5.7312e+01	17.0434	78.607070	0.000182	1.824603	0.618192	-0.000073
 578	5.7411e+01	17.0049	78.502104	0.000264	2.635537	0.892944	-0.000105
 579	5.7511e+01	16.9680	78.385027	0.000294	2.939638	0.995976	-0.000118
 580	5.7611e+01	16.9198	78.235653	0.000375	3.750572	1.270728	-0.000150
 581	5.7710e+01	16.8813	78.154911	0.000203	2.027336	0.686880	-0.000081
 582	5.7809e+01	16.8412	78.062057	0.000233	2.331437	0.789912	-0.000093
 583	5.7909e+01	16.7979	77.944980	0.000294	2.939638	0.995976	-0.000118
 584	5.8008e+01	16.7610	77.827903	0.000294	2.939638	0.995976	-0.000118
 585	5.8108e+01	16.7289	77.722937	0.000264	2.635537	0.892944	-0.000105
 586	5.8208e+01	16.6792	77.622009	0.000253	2.534170	0.858600	-0.000101
 587	5.8307e+01	16.6391	77.504932	0.000294	2.939638	0.995976	-0.000118
 588	5.8407e+01	16.6070	77.391892	0.000284	2.838271	0.961632	-0.000114
 589	5.8506e+01	16.5477	77.258667	0.000335	3.345105	1.133352	-0.000134
 590	5.8605e+01	16.5284	77.194072	0.000162	1.621869	0.549504	-0.000065
 591	5.8705e+01	16.4787	77.044698	0.000375	3.750572	1.270728	-0.000150
 592	5.8804e+01	16.4434	76.935696	0.000274	2.736904	0.927288	-0.000110
 593	5.8904e+01	16.4001	76.794396	0.000355	3.547838	1.202040	-0.000142
 594	5.9004e+01	16.3600	76.693468	0.000253	2.534170	0.858600	-0.000101
 595	5.9103e+01	16.3247	76.608688	0.000213	2.128703	0.721224	-0.000085
 596	5.9203e+01	16.2765	76.479499	0.000324	3.243738	1.099008	-0.000130
 597	5.9302e+01	16.2445	76.382608	0.000243	2.432804	0.824256	-0.000097
 598	5.9401e+01	16.2076	76.273605	0.000274	2.736904	0.927288	-0.000110
 599	5.9501e+01	16.1578	76.144417	0.000324	3.243738	1.099008	-0.000130
 600	5.9600e+01	16.1241	75.991006	0.000385	3.851939	1.305072	-0.000154
 601	5.9700e+01	16.0824	75.922375	0.000172	1.723236	0.583848	-0.000069
 602	5.9800e+01	16.0536	75.793186	0.000324	3.243738	1.099008	-0.000130
 603	5.9899e+01	16.0070	75.684184	0.000274	2.736904	0.927288	-0.000110
 604	5.9998e+01	15.9669	75.538847	0.000365	3.649205	1.236384	-0.000146
 605	6.0098e+01	15.9268	75.393510	0.000365	3.649205	1.236384	-0.000146
 606	6.0197e+01	15.8947	75.324879	0.000172	1.723236	0.583848	-0.000069
 607	6.0297e+01	15.8434	75.211839	0.000284	2.838271	0.961632	-0.000114
 608	6.0397e+01	15.8017	75.038242	0.000436	4.358773	1.476792	-0.000174
 609	6.0496e+01	15.7536	74.949425	0.000223	2.230070	0.755568	-0.000089
 610	6.0596e+01	15.7327	74.800051	0.000375	3.750572	1.270728	-0.000150
 611	6.0695e+01	15.6846	74.727383	0.000182	1.824603	0.618192	-0.000073
 612	6.0794e+01	15.6445	74.586083	0.000355	3.547838	1.202040	-0.000142
 613	6.0894e+01	15.6108	74.489192	0.000243	2.432804	0.824256	-0.000097
 614	6.0993e+01	15.5707	74.384226	0.000264	2.635537	0.892944	-0.000105
 615	6.1093e+01	15.5290	74.255038	0.000324	3.243738	1.099008	-0.000130
 616	6.1193e+01	15.4841	74.081441	0.000436	4.358773	1.476792	-0.000174
 617	6.1292e+01	15.4407	74.004735	0.000193	1.925969	0.652536	-0.000077
 618	6.1392e+01	15.3958	73.855361	0.000375	3.750572	1.270728	-0.000150
 619	6.1491e+01	15.3669	73.766544	0.000223	2.230070	0.755568	-0.000089
 620	6.1590e+01	15.3284	73.621207	0.000365	3.649205	1.236384	-0.000146
 621	6.1690e+01	15.2883	73.479908	0.000355	3.547838	1.202040	-0.000142
 622	6.1789e+01	15.2482	73.354756	0.000314	3.142371	1.064664	-0.000126
 623	6.1889e+01	15.2017	73.302274	0.000132	1.317769	0.446472	-0.000053
 624	6.1989e+01	15.1664	73.201345	0.000253	2.534170	0.858600	-0.000101
 625	6.2088e+01	15.1279	73.007563	0.000487	4.865607	1.648512	-0.000195
 626	6.2188e+01	15.0878	72.878374	0.000324	3.243738	1.099008	-0.000130
 627	6.2287e+01	15.0477	72.793594	0.000213	2.128703	0.721224	-0.000085
 628	6.2386e+01	15.0124	72.636146	0.000395	3.953306	1.339416	-0.000158
 629	6.2486e+01	14.9707	72.543292	0.000233	2.331437	0.789912	-0.000093
 630	6.2586e+01	14.9242	72.397955	0.000365	3.649205	1.236384	-0.000146
 631	6.2685e+01	14.8937	72.301064	0.000243	2.432804	0.824256	-0.000097
 632	6.2785e+01	14.8552	72.179950	0.000304	3.041004	1.030320	-0.000122
 633	6.2884e+01	14.7990	72.014427	0.000416	4.156039	1.408104	-0.000166
 634	6.2983e+01	14.7782	71.909462	0.000264	2.635537	0.892944	-0.000105
 635	6.3083e+01	14.7236	71.764125	0.000365	3.649205	1.236384	-0.000146
 636	6.3182e+01	14.6835	71.667234	0.000243	2.432804	0.824256	-0.000097
 637	6.3282e+01	14.6531	71.554194	0.000284	2.838271	0.961632	-0.000114
 638	6.3382e+01	14.6017	71.396746	0.000395	3.953306	1.339416	-0.000158
 639	6.3481e+01	14.5793	71.279669	0.000294	2.939638	0.995976	-0.000118
 640	6.3581e+01	14.5376	71.126257	0.000385	3.851939	1.305072	-0.000154
 641	6.3680e+01	14.4910	71.021292	0.000264	2.635537	0.892944	-0.000105
 642	6.3779e+01	14.4493	70.904215	0.000294	2.939638	0.995976	-0.000118
 643	6.3879e+01	14.4044	70.762915	0.000355	3.547838	1.202040	-0.000142
 644	6.3978e+01	14.3771	70.657950	0.000264	2.635537	0.892944	-0.000105
 645	6.4078e+01	14.3258	70.557021	0.000253	2.534170	0.858600	-0.000101
 646	6.4177e+01	14.2905	70.419759	0.000345	3.446472	1.167696	-0.000138
 647	6.4277e+01	14.2408	70.242125	0.000446	4.460140	1.511136	-0.000179
 648	6.4376e+01	14.2167	70.125048	0.000294	2.939638	0.995976	-0.000118
 649	6.4476e+01	14.1718	70.003934	0.000304	3.041004	1.030320	-0.000122
 650	6.4576e+01	14.1381	69.874745	0.000324	3.243738	1.099008	-0.000130
 651	6.4675e+01	14.0964	69.785928	0.000223	2.230070	0.755568	-0.000089
 652	6.4775e+01	14.0483	69.628480	0.000395	3.953306	1.339416	-0.000158
 653	6.4874e+01	14.0066	69.491217	0.000345	3.446472	1.167696	-0.000138
 654	6.4974e+01	13.9745	69.345881	0.000365	3.649205	1.236384	-0.000146
 655	6.5073e+01	13.9376	69.216692	0.000324	3.243738	1.099008	-0.000130
 656	6.5172e+01	13.8927	69.111727	0.000264	2.635537	0.892944	-0.000105
 657	6.5272e+01	13.8493	68.970427	0.000355	3.547838	1.202040	-0.000142
 658	6.5371e+01	13.8124	68.869499	0.000253	2.534170	0.858600	-0.000101
 659	6.5471e+01	13.7627	68.724162	0.000365	3.649205	1.236384	-0.000146
 660	6.5570e+01	13.7354	68.562676	0.000405	4.054673	1.373760	-0.000162
 661	6.5670e+01	13.6905	68.461748	0.000253	2.534170	0.858600	-0.000101
 662	6.5769e+01	13.6488	68.324485	0.000345	3.446472	1.167696	-0.000138
 663	6.5869e+01	13.6103	68.191260	0.000335	3.345105	1.133352	-0.000134
 664	6.5969e+01	13.5814	68.013626	0.000446	4.460140	1.511136	-0.000179
 665	6.6068e+01	13.5237	67.932883	0.000203	2.027336	0.686880	-0.000081
 666	6.6168e+01	13.4900	67.751212	0.000456	4.561507	1.545480	-0.000183
 667	6.6267e+01	13.4531	67.662395	0.000223	2.230070	0.755568	-0.000089
 668	6.6367e+01	13.4114	67.488798	0.000436	4.358773	1.476792	-0.000174
 669	6.6466e+01	13.3761	67.367684	0.000304	3.041004	1.030320	-0.000122
 670	6.6566e+01	13.3344	67.238496	0.000324	3.243738	1.099008	-0.000130
 671	6.6665e+01	13.2911	67.129493	0.000274	2.736904	0.927288	-0.000110
 672	6.6764e+01	13.2590	66.996268	0.000335	3.345105	1.133352	-0.000134
 673	6.6864e+01	13.2109	66.879191	0.000294	2.939638	0.995976	-0.000118
 674	6.6963e+01	13.1740	66.717705	0.000405	4.054673	1.373760	-0.000162
 675	6.7063e+01	13.1339	66.588517	0.000324	3.243738	1.099008	-0.000130
 676	6.7162e+01	13.1002	66.467403	0.000304	3.041004	1.030320	-0.000122
 677	6.7262e+01	13.0649	66.322066	0.000365	3.649205	1.236384	-0.000146
 678	6.7362e+01	13.0071	66.196915	0.000314	3.142371	1.064664	-0.000126
 679	6.7461e+01	12.9638	66.047541	0.000375	3.750572	1.270728	-0.000150
 680	6.7561e+01	12.9365	65.946612	0.000253	2.534170	0.858600	-0.000101
 681	6.7660e+01	12.8964	65.785127	0.000405	4.054673	1.373760	-0.000162
 682	6.7760e+01	12.8643	65.639790	0.000365	3.649205	1.236384	-0.000146
 683	6.7859e+01	12.8114	65.534824	0.000264	2.635537	0.892944	-0.000105
 684	6.7959e+01	12.7745	65.413710	0.000304	3.041004	1.030320	-0.000122
 685	6.8058e+01	12.7408	65.264336	0.000375	3.750572	1.270728	-0.000150
 686	6.8157e+01	12.6959	65.163408	0.000253	2.534170	0.858600	-0.000101
 687	6.8257e+01	12.6622	64.993848	0.000426	4.257406	1.442448	-0.000170
 688	6.8356e+01	12.6189	64.868697	0.000314	3.142371	1.064664	-0.000126
 689	6.8456e+01	12.5868	64.739509	0.000324	3.243738	1.099008	-0.000130
 690	6.8555e+01	12.5403	64.594172	0.000365	3.649205	1.236384	-0.000146
 691	6.8655e+01	12.4986	64.452872	0.000355	3.547838	1.202040	-0.000142
 692	6.8754e+01	12.4617	64.315609	0.000345	3.446472	1.167696	-0.000138
 693	6.8854e+01	12.4200	64.194495	0.000304	3.041004	1.030320	-0.000122
 694	6.8954e+01	12.3718	64.045121	0.000375	3.750572	1.270728	-0.000150
 695	6.9053e+01	12.3317	63.964379	0.000203	2.027336	0.686880	-0.000081
 696	6.9153e+01	12.2997	63.815005	0.000375	3.750572	1.270728	-0.000150
 697	6.9252e+01	12.2515	63.661593	0.000385	3.851939	1.305072	-0.000154
 698	6.9352e+01	12.2178	63.516257	0.000365	3.649205	1.236384	-0.000146
 699	6.9451e+01	12.1745	63.415328	0.000253	2.534170	0.858600	-0.000101
 700	6.9550e+01	12.1553	63.217509	0.000497	4.966974	1.682856	-0.000199
 701	6.9650e+01	12.0991	63.148877	0.000172	1.723236	0.583848	-0.000069
 702	6.9749e+01	12.0670	62.995466	0.000385	3.851939	1.305072	-0.000154
 703	6.9849e+01	12.0269	62.862241	0.000335	3.345105	1.133352	-0.000134
 704	6.9948e+01	11.9788	62.716904	0.000365	3.649205	1.236384	-0.000146
 705	7.0048e+01	11.9387	62.583678	0.000335	3.345105	1.133352	-0.000134
 706	7.0147e+01	11.9050	62.418156	0.000416	4.156039	1.408104	-0.000166
 707	7.0247e+01	11.8633	62.284930	0.000335	3.345105	1.133352	-0.000134
 708	7.0347e+01	11.8152	62.171890	0.000284	2.838271	0.961632	-0.000114
 709	7.0446e+01	11.7751	62.014442	0.000395	3.953306	1.339416	-0.000158
 710	7.0546e+01	11.7446	61.913514	0.000253	2.534170	0.858600	-0.000101
 711	7.0645e+01	11.6997	61.756065	0.000395	3.953306	1.339416	-0.000158
 712	7.0745e+01	11.6580	61.622840	0.000335	3.345105	1.133352	-0.000134
 713	7.0844e+01	11.6243	61.489614	0.000335	3.345105	1.133352	-0.000134
 714	7.0944e+01	11.5890	61.360426	0.000324	3.243738	1.099008	-0.000130
 715	7.1043e+01	11.5409	61.194904	0.000416	4.156039	1.408104	-0.000166
 716	7.1142e+01	11.5072	61.053604	0.000355	3.547838	1.202040	-0.000142
 717	7.1242e+01	11.4671	60.960750	0.000233	2.331437	0.789912	-0.000093
 718	7.1341e+01	11.4237	60.811376	0.000375	3.750572	1.270728	-0.000150
 719	7.1441e+01	11.3852	60.645853	0.000416	4.156039	1.408104	-0.000166
 720	7.1540e+01	11.3387	60.508590	0.000345	3.446472	1.167696	-0.000138
 721	7.1640e+01	11.3163	60.387476	0.000304	3.041004	1.030320	-0.000122
 722	7.1740e+01	11.2569	60.234065	0.000385	3.851939	1.305072	-0.000154
 723	7.1839e+01	11.2232	60.096803	0.000345	3.446472	1.167696	-0.000138
 724	7.1939e+01	11.1879	59.975689	0.000304	3.041004	1.030320	-0.000122
 725	7.2038e+01	11.1478	59.810166	0.000416	4.156039	1.408104	-0.000166
 726	7.2138e+01	11.1045	59.705200	0.000264	2.635537	0.892944	-0.000105
 727	7.2237e+01	11.0660	59.563901	0.000355	3.547838	1.202040	-0.000142
 728	7.2337e+01	11.0291	59.434712	0.000324	3.243738	1.099008	-0.000130
 729	7.2436e+01	10.9794	59.253041	0.000456	4.561507	1.545480	-0.000183
 730	7.2535e+01	10.9441	59.135964	0.000294	2.939638	0.995976	-0.000118
 731	7.2635e+01	10.9056	58.982553	0.000385	3.851939	1.305072	-0.000154
 732	7.2734e+01	10.8623	58.877588	0.000264	2.635537	0.892944	-0.000105
 733	7.2834e+01	10.8238	58.736288	0.000355	3.547838	1.202040	-0.000142
 734	7.2933e+01	10.7837	58.538468	0.000497	4.966974	1.682856	-0.000199
 735	7.3033e+01	10.7484	58.453688	0.000213	2.128703	0.721224	-0.000085
 736	7.3132e+01	10.7066	58.316426	0.000345	3.446472	1.167696	-0.000138
 737	7.3232e+01	10.6633	58.130717	0.000466	4.662873	1.579824	-0.000187
 738	7.3332e+01	10.6280	58.037863	0.000233	2.331437	0.789912	-0.000093
 739	7.3431e+01	10.5911	57.860229	0.000446	4.460140	1.511136	-0.000179
 740	7.3531e+01	10.5510	57.727004	0.000335	3.345105	1.133352	-0.000134
 741	7.3630e+01	10.5045	57.609927	0.000294	2.939638	0.995976	-0.000118
 742	7.3730e+01	10.4772	57.436330	0.000436	4.358773	1.476792	-0.000174
 743	7.3829e+01	10.4339	57.295030	0.000355	3.547838	1.202040	-0.000142
 744	7.3928e+01	10.3842	57.177953	0.000294	2.939638	0.995976	-0.000118
 745	7.4028e+01	10.3473	57.048765	0.000324	3.243738	1.099008	-0.000130
 746	7.4127e+01	10.3232	56.875168	0.000436	4.358773	1.476792	-0.000174
 747	7.4227e+01	10.2655	56.770203	0.000264	2.635537	0.892944	-0.000105
 748	7.4326e+01	10.2222	56.616792	0.000385	3.851939	1.305072	-0.000154
 749	7.4426e+01	10.1773	56.451269	0.000416	4.156039	1.408104	-0.000166
 750	7.4525e+01	10.1452	56.322081	0.000324	3.243738	1.099008	-0.000130
 751	7.4625e+01	10.1083	56.176744	0.000365	3.649205	1.236384	-0.000146
 752	7.4725e+01	10.0650	56.039481	0.000345	3.446472	1.167696	-0.000138
 753	7.4824e+01	10.0265	55.869921	0.000426	4.257406	1.442448	-0.000170
 754	7.4924e+01	9.9928	55.736696	0.000335	3.345105	1.133352	-0.000134
 755	7.5023e+01	9.9462	55.579248	0.000395	3.953306	1.339416	-0.000158
 756	7.5123e+01	9.8997	55.454096	0.000314	3.142371	1.064664	-0.000126
 757	7.5222e+01	9.8692	55.308760	0.000365	3.649205	1.236384	-0.000146
 758	7.5322e+01	9.8259	55.147274	0.000405	4.054673	1.373760	-0.000162
 759	7.5421e+01	9.7938	55.046346	0.000253	2.534170	0.858600	-0.000101
 760	7.5520e+01	9.7505	54.860638	0.000466	4.662873	1.579824	-0.000187
 761	7.5620e+01	9.7104	54.678966	0.000456	4.561507	1.545480	-0.000183
 762	7.5719e+01	9.6687	54.602261	0.000193	1.925969	0.652536	-0.000077
 763	7.5819e+01	9.6286	54.440775	0.000405	4.054673	1.373760	-0.000162
 764	7.5918e+01	9.5885	54.287364	0.000385	3.851939	1.305072	-0.000154
 765	7.6018e+01	9.5548	54.117805	0.000426	4.257406	1.442448	-0.000170
 766	7.6118e+01	9.5147	53.976505	0.000355	3.547838	1.202040	-0.000142
 767	7.6217e+01	9.4650	53.827131	0.000375	3.750572	1.270728	-0.000150
 768	7.6317e+01	9.4265	53.661608	0.000416	4.156039	1.408104	-0.000166
 769	7.6416e+01	9.3928	53.556643	0.000264	2.635537	0.892944	-0.000105
 770	7.6516e+01	9.3543	53.431491	0.000314	3.142371	1.064664	-0.000126
 771	7.6615e+01	9.3174	53.270006	0.000405	4.054673	1.373760	-0.000162
 772	7.6715e+01	9.2660	53.112558	0.000395	3.953306	1.339416	-0.000158
 773	7.6814e+01	9.2243	52.951072	0.000405	4.054673	1.373760	-0.000162
 774	7.6913e+01	9.1923	52.801698	0.000375	3.750572	1.270728	-0.000150
 775	7.7013e+01	9.1521	52.628101	0.000436	4.358773	1.476792	-0.000174
 776	7.7112e+01	9.1217	52.462579	0.000416	4.156039	1.408104	-0.000166
 777	7.7212e+01	9.0735	52.357613	0.000264	2.635537	0.892944	-0.000105
 778	7.7311e+01	9.0302	52.167868	0.000476	4.764240	1.614168	-0.000191
 779	7.7411e+01	8.9997	52.022531	0.000365	3.649205	1.236384	-0.000146
 780	7.7510e+01	8.9516	51.877194	0.000365	3.649205	1.236384	-0.000146
 781	7.7610e+01	8.9083	51.731857	0.000365	3.649205	1.236384	-0.000146
 782	7.7710e+01	8.8730	51.586520	0.000365	3.649205	1.236384	-0.000146
 783	7.7809e+01	8.8441	51.412924	0.000436	4.358773	1.476792	-0.000174
 784	7.7909e+01	8.7912	51.291810	0.000304	3.041004	1.030320	-0.000122
 785	7.8008e+01	8.7511	51.126287	0.000416	4.156039	1.408104	-0.000166
 786	7.8108e+01	8.7158	50.948653	0.000446	4.460140	1.511136	-0.000179
 787	7.8207e+01	8.6741	50.815428	0.000335	3.345105	1.133352	-0.000134
 788	7.8306e+01	8.6372	50.653942	0.000405	4.054673	1.373760	-0.000162
 789	7.8406e+01	8.5987	50.460160	0.000487	4.865607	1.648512	-0.000195
 790	7.8505e+01	8.5457	50.343083	0.000294	2.939638	0.995976	-0.000118
 791	7.8605e+01	8.5121	50.169486	0.000436	4.358773	1.476792	-0.000174
 792	7.8704e+01	8.4832	50.048372	0.000304	3.041004	1.030320	-0.000122
 793	7.8804e+01	8.4302	49.850552	0.000497	4.966974	1.682856	-0.000199
 794	7.8903e+01	8.3998	49.697141	0.000385	3.851939	1.305072	-0.000154
 795	7.9003e+01	8.3452	49.519507	0.000446	4.460140	1.511136	-0.000179
 796	7.9103e+01	8.3083	49.374170	0.000365	3.649205	1.236384	-0.000146
 797	7.9202e+01	8.2746	49.228833	0.000365	3.649205	1.236384	-0.000146
 798	7.9302e+01	8.2361	49.067348	0.000405	4.054673	1.373760	-0.000162
 799	7.9401e+01	8.1992	48.909899	0.000395	3.953306	1.339416	-0.000158
 800	7.9501e+01	8.1623	48.740340	0.000426	4.257406	1.442448	-0.000170
 801	7.9600e+01	8.1238	48.595003	0.000365	3.649205	1.236384	-0.000146
 802	7.9700e+01	8.0725	48.425443	0.000426	4.257406	1.442448	-0.000170
 803	7.9799e+01	8.0276	48.280106	0.000365	3.649205	1.236384	-0.000146
 804	7.9898e+01	7.9923	48.082287	0.000497	4.966974	1.682856	-0.000199
 805	7.9998e+01	7.9538	47.965210	0.000294	2.939638	0.995976	-0.000118
 806	8.0097e+01	7.9169	47.795650	0.000426	4.257406	1.442448	-0.000170
 807	8.0197e+01	7.8832	47.634165	0.000405	4.054673	1.373760	-0.000162
 808	8.0296e+01	7.8383	47.456531	0.000446	4.460140	1.511136	-0.000179
 809	8.0396e+01	7.7886	47.307157	0.000375	3.750572	1.270728	-0.000150
 810	8.0496e+01	7.7517	47.133560	0.000436	4.358773	1.476792	-0.000174
 811	8.0595e+01	7.7196	46.996297	0.000345	3.446472	1.167696	-0.000138
 812	8.0695e+01	7.6763	46.814626	0.000456	4.561507	1.545480	-0.000183
 813	8.0794e+01	7.6426	46.677363	0.000345	3.446472	1.167696	-0.000138
 814	8.0894e+01	7.5976	46.511841	0.000416	4.156039	1.408104	-0.000166
 815	8.0993e+01	7.5511	46.342281	0.000426	4.257406	1.442448	-0.000170
 816	8.1093e+01	7.5190	46.148499	0.000487	4.865607	1.648512	-0.000195
 817	8.1192e+01	7.4854	45.991050	0.000395	3.953306	1.339416	-0.000158
 818	8.1291e+01	7.4404	45.869936	0.000304	3.041004	1.030320	-0.000122
 819	8.1391e+01	7.4035	45.668079	0.000507	5.068341	1.717200	-0.000203
 820	8.1490e+01	7.3586	45.498520	0.000426	4.257406	1.442448	-0.000170
 821	8.1590e+01	7.3217	45.385480	0.000284	2.838271	0.961632	-0.000114
 822	8.1689e+01	7.2848	45.179586	0.000517	5.169708	1.751544	-0.000207
 823	8.1789e+01	7.2383	45.014063	0.000416	4.156039	1.408104	-0.000166
 824	8.1888e+01	7.1902	44.848541	0.000416	4.156039	1.408104	-0.000166
 825	8.1988e+01	7.1533	44.691093	0.000395	3.953306	1.339416	-0.000158
 826	8.2088e+01	7.1244	44.529607	0.000405	4.054673	1.373760	-0.000162
 827	8.2187e+01	7.0731	44.360047	0.000426	4.257406	1.442448	-0.000170
 828	8.2287e+01	7.0314	44.186451	0.000436	4.358773	1.476792	-0.000174
 829	8.2386e+01	6.9945	44.008817	0.000446	4.460140	1.511136	-0.000179
 830	8.2486e+01	6.9543	43.839257	0.000426	4.257406	1.442448	-0.000170
 831	8.2585e+01	6.9239	43.693920	0.000365	3.649205	1.236384	-0.000146
 832	8.2684e+01	6.8854	43.512249	0.000456	4.561507	1.545480	-0.000183
 833	8.2784e+01	6.8421	43.326541	0.000466	4.662873	1.579824	-0.000187
 834	8.2883e+01	6.7987	43.189278	0.000345	3.446472	1.167696	-0.000138
 835	8.2983e+01	6.7618	42.995496	0.000487	4.865607	1.648512	-0.000195
 836	8.3082e+01	6.7217	42.809787	0.000466	4.662873	1.579824	-0.000187
 837	8.3182e+01	6.6784	42.652339	0.000395	3.953306	1.339416	-0.000158
 838	8.3281e+01	6.6351	42.490854	0.000405	4.054673	1.373760	-0.000162
 839	8.3381e+01	6.6014	42.280923	0.000527	5.271074	1.785888	-0.000211
 840	8.3481e+01	6.5645	42.175957	0.000264	2.635537	0.892944	-0.000105
 841	8.3580e+01	6.5292	42.026583	0.000375	3.750572	1.270728	-0.000150
 842	8.3680e+01	6.4779	41.792429	0.000588	5.879275	1.991952	-0.000235
 843	8.3779e+01	6.4442	41.643055	0.000375	3.750572	1.270728	-0.000150
 844	8.3879e+01	6.4073	41.501755	0.000355	3.547838	1.202040	-0.000142
 845	8.3978e+01	6.3608	41.324121	0.000446	4.460140	1.511136	-0.000179
 846	8.4078e+01	6.3175	41.154562	0.000426	4.257406	1.442448	-0.000170
 847	8.4177e+01	6.2886	40.968853	0.000466	4.662873	1.579824	-0.000187
 848	8.4276e+01	6.2389	40.803331	0.000416	4.156039	1.408104	-0.000166
 849	8.4376e+01	6.2132	40.617623	0.000466	4.662873	1.579824	-0.000187
 850	8.4475e+01	6.1667	40.524769	0.000233	2.331437	0.789912	-0.000093
 851	8.4575e+01	6.1282	40.298689	0.000568	5.676542	1.923264	-0.000227
 852	8.4674e+01	6.0897	40.112981	0.000466	4.662873	1.579824	-0.000187
 853	8.4774e+01	6.0367	39.947458	0.000416	4.156039	1.408104	-0.000166
 854	8.4874e+01	6.0014	39.781936	0.000416	4.156039	1.408104	-0.000166
 855	8.4973e+01	5.9661	39.620450	0.000405	4.054673	1.373760	-0.000162
 856	8.5073e+01	5.9212	39.467039	0.000385	3.851939	1.305072	-0.000154
 857	8.5172e+01	5.8811	39.289405	0.000446	4.460140	1.511136	-0.000179
 858	8.5272e+01	5.8426	39.131957	0.000395	3.953306	1.339416	-0.000158
 859	8.5371e+01	5.8041	38.958360	0.000436	4.358773	1.476792	-0.000174
 860	8.5471e+01	5.7672	38.752466	0.000517	5.169708	1.751544	-0.000207
 861	8.5570e+01	5.7271	38.578869	0.000436	4.358773	1.476792	-0.000174
 862	8.5669e+01	5.6854	38.417384	0.000405	4.054673	1.373760	-0.000162
 863	8.5769e+01	5.6565	38.272047	0.000365	3.649205	1.236384	-0.000146
 864	8.5868e+01	5.6004	38.045967	0.000568	5.676542	1.923264	-0.000227
 865	8.5968e+01	5.5731	37.916779	0.000324	3.243738	1.099008	-0.000130
 866	8.6067e+01	5.5250	37.735108	0.000456	4.561507	1.545480	-0.000183
 867	8.6167e+01	5.4897	37.557474	0.000446	4.460140	1.511136	-0.000179
 868	8.6266e+01	5.4432	37.391951	0.000416	4.156039	1.408104	-0.000166
 869	8.6366e+01	5.4047	37.182020	0.000527	5.271074	1.785888	-0.000211
 870	8.6466e+01	5.3613	37.024572	0.000395	3.953306	1.339416	-0.000158
 871	8.6565e+01	5.3261	36.903458	0.000304	3.041004	1.030320	-0.000122
 872	8.6665e+01	5.2908	36.685452	0.000547	5.473808	1.854576	-0.000219
 873	8.6764e+01	5.2474	36.540116	0.000365	3.649205	1.236384	-0.000146
 874	8.6864e+01	5.2041	36.330185	0.000527	5.271074	1.785888	-0.000211
 875	8.6963e+01	5.1592	36.176773	0.000385	3.851939	1.305072	-0.000154
 876	8.7063e+01	5.1303	35.978954	0.000497	4.966974	1.682856	-0.000199
 877	8.7162e+01	5.0790	35.837654	0.000355	3.547838	1.202040	-0.000142
 878	8.7261e+01	5.0485	35.643871	0.000487	4.865607	1.648512	-0.000195
 879	8.7361e+01	5.0052	35.442015	0.000507	5.068341	1.717200	-0.000203
 880	8.7460e+01	4.9651	35.304752	0.000345	3.446472	1.167696	-0.000138
 881	8.7560e+01	4.9250	35.131155	0.000436	4.358773	1.476792	-0.000174
 882	8.7659e+01	4.8849	34.953521	0.000446	4.460140	1.511136	-0.000179
 883	8.7759e+01	4.8448	34.763776	0.000476	4.764240	1.614168	-0.000191
 884	8.7859e+01	4.8079	34.602290	0.000405	4.054673	1.373760	-0.000162
 885	8.7958e+01	4.7726	34.392359	0.000527	5.271074	1.785888	-0.000211
 886	8.8058e+01	4.7261	34.267208	0.000314	3.142371	1.064664	-0.000126
 887	8.8157e+01	4.6892	34.077463	0.000476	4.764240	1.614168	-0.000191
 888	8.8257e+01	4.6555	33.859457	0.000547	5.473808	1.854576	-0.000219
 889	8.8356e+01	4.6025	33.762566	0.000243	2.432804	0.824256	-0.000097
 890	8.8456e+01	4.5705	33.548598	0.000537	5.372441	1.820232	-0.000215
 891	8.8555e+01	4.5304	33.407298	0.000355	3.547838	1.202040	-0.000142
 892	8.8654e+01	4.4983	33.221590	0.000466	4.662873	1.579824	-0.000187
 893	8.8754e+01	4.4469	33.015696	0.000517	5.169708	1.751544	-0.000207
 894	8.8853e+01	4.4132	32.838062	0.000446	4.460140	1.511136	-0.000179
 895	8.8953e+01	4.3683	32.664465	0.000436	4.358773	1.476792	-0.000174
 896	8.9052e+01	4.3314	32.474720	0.000476	4.764240	1.614168	-0.000191
 897	8.9152e+01	4.2897	32.313234	0.000405	4.054673	1.373760	-0.000162
 898	8.9251e+01	4.2464	32.167898	0.000365	3.649205	1.236384	-0.000146
 899	8.9351e+01	4.2047	31.974115	0.000487	4.865607	1.648512	-0.000195
 900	8.9451e+01	4.1662	31.772258	0.000507	5.068341	1.717200	-0.000203
 901	8.9550e+01	4.1309	31.614810	0.000395	3.953306	1.339416	-0.000158
 902	8.9650e+01	4.0876	31.425065	0.000476	4.764240	1.614168	-0.000191
 903	8.9749e+01	4.0507	31.219171	0.000517	5.169708	1.751544	-0.000207
 904	8.9849e+01	4.0090	31.089982	0.000324	3.243738	1.099008	-0.000130
 905	8.9948e+01	3.9673	30.863903	0.000568	5.676542	1.923264	-0.000227
 906	9.0047e+01	3.9336	30.730677	0.000335	3.345105	1.133352	-0.000134
 907	9.0147e+01	3.8871	30.500561	0.000578	5.777908	1.957608	-0.000231
 908	9.0246e+01	3.8421	30.363298	0.000345	3.446472	1.167696	-0.000138
 909	9.0346e+01	3.8133	30.177590	0.000466	4.662873	1.579824	-0.000187
 910	9.0445e+01	3.7796	29.987844	0.000476	4.764240	1.614168	-0.000191
 911	9.0545e+01	3.7395	29.814247	0.000436	4.358773	1.476792	-0.000174
 912	9.0644e+01	3.6978	29.596242	0.000547	5.473808	1.854576	-0.000219
 913	9.0744e+01	3.6512	29.426682	0.000426	4.257406	1.442448	-0.000170
 914	9.0844e+01	3.6143	29.253086	0.000436	4.358773	1.476792	-0.000174
 915	9.0943e+01	3.5710	29.107749	0.000365	3.649205	1.236384	-0.000146
 916	9.1043e+01	3.5389	28.877632	0.000578	5.777908	1.957608	-0.000231
 917	9.1142e+01	3.4956	28.756518	0.000304	3.041004	1.030320	-0.000122
 918	9.1242e+01	3.4475	28.550624	0.000517	5.169708	1.751544	-0.000207
 919	9.1341e+01	3.4218	28.344730	0.000517	5.169708	1.751544	-0.000207
 920	9.1441e+01	3.3673	28.175170	0.000426	4.257406	1.442448	-0.000170
 921	9.1540e+01	3.3448	27.977351	0.000497	4.966974	1.682856	-0.000199
 922	9.1639e+01	3.2983	27.811828	0.000416	4.156039	1.408104	-0.000166
 923	9.1739e+01	3.2518	27.650343	0.000405	4.054673	1.373760	-0.000162
 924	9.1838e+01	3.2117	27.444449	0.000517	5.169708	1.751544	-0.000207
 925	9.1938e+01	3.1716	27.307186	0.000345	3.446472	1.167696	-0.000138
 926	9.2037e+01	3.1250	27.085144	0.000558	5.575175	1.888920	-0.000223
 927	9.2137e+01	3.0865	26.887324	0.000497	4.966974	1.682856	-0.000199
 928	9.2237e+01	3.0577	26.746024	0.000355	3.547838	1.202040	-0.000142
 929	9.2336e+01	3.0127	26.556279	0.000476	4.764240	1.614168	-0.000191
 930	9.2436e+01	2.9710	26.386719	0.000426	4.257406	1.442448	-0.000170
 931	9.2535e+01	2.9245	26.152565	0.000588	5.879275	1.991952	-0.000235
 932	9.2635e+01	2.9005	25.958783	0.000487	4.865607	1.648512	-0.000195
 933	9.2734e+01	2.8411	25.833632	0.000314	3.142371	1.064664	-0.000126
 934	9.2834e+01	2.8170	25.559106	0.000689	6.892943	2.335392	-0.000276
 935	9.2933e+01	2.7785	25.446067	0.000284	2.838271	0.961632	-0.000114
 936	9.3032e+01	2.7448	25.240173	0.000517	5.169708	1.751544	-0.000207
 937	9.3132e+01	2.6919	25.050427	0.000476	4.764240	1.614168	-0.000191
 938	9.3231e+01	2.6518	24.852608	0.000497	4.966974	1.682856	-0.000199
 939	9.3331e+01	2.6085	24.662862	0.000476	4.764240	1.614168	-0.000191
 940	9.3430e+01	2.5876	24.505414	0.000395	3.953306	1.339416	-0.000158
 941	9.3530e+01	2.5235	24.267223	0.000598	5.980642	2.026296	-0.000239
 942	9.3629e+01	2.5010	24.117849	0.000375	3.750572	1.270728	-0.000150
 943	9.3729e+01	2.4561	23.895806	0.000558	5.575175	1.888920	-0.000223
 944	9.3829e+01	2.4144	23.734321	0.000405	4.054673	1.373760	-0.000162
 945	9.3928e+01	2.3775	23.516316	0.000547	5.473808	1.854576	-0.000219
 946	9.4028e+01	2.3502	23.338682	0.000446	4.460140	1.511136	-0.000179
 947	9.4127e+01	2.2941	23.165085	0.000436	4.358773	1.476792	-0.000174
 948	9.4227e+01	2.2588	22.975339	0.000476	4.764240	1.614168	-0.000191
 949	9.4326e+01	2.2267	22.737148	0.000598	5.980642	2.026296	-0.000239
 950	9.4425e+01	2.1850	22.571626	0.000416	4.156039	1.408104	-0.000166
 951	9.4525e+01	2.1320	22.353621	0.000547	5.473808	1.854576	-0.000219
 952	9.4624e+01	2.0999	22.208284	0.000365	3.649205	1.236384	-0.000146
 953	9.4724e+01	2.0566	21.994316	0.000537	5.372441	1.820232	-0.000215
 954	9.4823e+01	2.0229	21.832830	0.000405	4.054673	1.373760	-0.000162
 955	9.4923e+01	1.9876	21.606750	0.000568	5.676542	1.923264	-0.000227
 956	9.5022e+01	1.9283	21.396819	0.000527	5.271074	1.785888	-0.000211
 957	9.5122e+01	1.9026	21.231297	0.000416	4.156039	1.408104	-0.000166
 958	9.5222e+01	1.8577	21.065774	0.000416	4.156039	1.408104	-0.000166
 959	9.5321e+01	1.8176	20.863917	0.000507	5.068341	1.717200	-0.000203
 960	9.5421e+01	1.7759	20.662061	0.000507	5.068341	1.717200	-0.000203
 961	9.5520e+01	1.7486	20.452130	0.000527	5.271074	1.785888	-0.000211
 962	9.5620e+01	1.7053	20.282570	0.000426	4.257406	1.442448	-0.000170
 963	9.5719e+01	1.6572	20.080713	0.000507	5.068341	1.717200	-0.000203
 964	9.5819e+01	1.6235	19.878856	0.000507	5.068341	1.717200	-0.000203
 965	9.5918e+01	1.5721	19.660851	0.000547	5.473808	1.854576	-0.000219
 966	9.6017e+01	1.5320	19.519551	0.000355	3.547838	1.202040	-0.000142
 967	9.6117e+01	1.4984	19.297509	0.000558	5.575175	1.888920	-0.000223
 968	9.6216e+01	1.4631	19.107763	0.000476	4.764240	1.614168	-0.000191
 969	9.6316e+01	1.4294	18.942241	0.000416	4.156039	1.408104	-0.000166
 970	9.6415e+01	1.3764	18.760570	0.000456	4.561507	1.545480	-0.000183
 971	9.6515e+01	1.3411	18.522379	0.000598	5.980642	2.026296	-0.000239
 972	9.6615e+01	1.2946	18.344745	0.000446	4.460140	1.511136	-0.000179
 973	9.6714e+01	1.2625	18.134814	0.000527	5.271074	1.785888	-0.000211
 974	9.6814e+01	1.2176	17.961217	0.000436	4.358773	1.476792	-0.000174
 975	9.6913e+01	1.1823	17.783583	0.000446	4.460140	1.511136	-0.000179
 976	9.7013e+01	1.1502	17.561540	0.000558	5.575175	1.888920	-0.000223
 977	9.7112e+01	1.0957	17.371795	0.000476	4.764240	1.614168	-0.000191
 978	9.7212e+01	1.0524	17.145715	0.000568	5.676542	1.923264	-0.000227
 979	9.7311e+01	1.0155	16.935784	0.000527	5.271074	1.785888	-0.000211
 980	9.7410e+01	0.9898	16.818707	0.000294	2.939638	0.995976	-0.000118
 981	9.7510e+01	0.9289	16.580516	0.000598	5.980642	2.026296	-0.000239
 982	9.7609e+01	0.8968	16.378660	0.000507	5.068341	1.717200	-0.000203
 983	9.7709e+01	0.8679	16.188914	0.000476	4.764240	1.614168	-0.000191
 984	9.7808e+01	0.8214	15.983020	0.000517	5.169708	1.751544	-0.000207
 985	9.7908e+01	0.7797	15.748867	0.000588	5.879275	1.991952	-0.000235
 986	9.8007e+01	0.7412	15.607567	0.000355	3.547838	1.202040	-0.000142
 987	9.8107e+01	0.7043	15.369376	0.000598	5.980642	2.026296	-0.000239
 988	9.8207e+01	0.6642	15.203853	0.000416	4.156039	1.408104	-0.000166
 989	9.8306e+01	0.6192	14.989885	0.000537	5.372441	1.820232	-0.000215
 990	9.8406e+01	0.5855	14.796102	0.000487	4.865607	1.648512	-0.000195
 991	9.8505e+01	0.5454	14.557911	0.000598	5.980642	2.026296	-0.000239
 992	9.8605e+01	0.5005	14.376240	0.000456	4.561507	1.545480	-0.000183
 993	9.8704e+01	0.4476	14.202644	0.000436	4.358773	1.476792	-0.000174
 994	9.8803e+01	0.4251	14.012898	0.000476	4.764240	1.614168	-0.000191
 995	9.8903e+01	0.3818	13.778744	0.000588	5.879275	1.991952	-0.000235
 996	9.9002e+01	0.3497	13.593036	0.000466	4.662873	1.579824	-0.000187
 997	9.9102e+01	0.3096	13.379068	0.000537	5.372441	1.820232	-0.000215
 998	9.9201e+01	0.2679	13.201434	0.000446	4.460140	1.511136	-0.000179
 999	9.9301e+01	0.2230	12.975354	0.000568	5.676542	1.923264	-0.000227
1000	9.9400e+01	0.1797	12.809832	0.000416	4.156039	1.408104	-0.000166
1001	9.9500e+01	0.1540	12.587789	0.000558	5.575175	1.888920	-0.000223
1002	9.9600e+01	0.1043	12.394007	0.000487	4.865607	1.648512	-0.000195
1003	9.9699e+01	0.0610	12.167927	0.000568	5.676542	1.923264	-0.000227
1004	9.9799e+01	0.0176	11.994330	0.000436	4.358773	1.476792	-0.000174
1005	9.9898e+01	0.0000	11.812659	0.000456	4.561507	1.545480	-0.000183
1006	9.9998e+01	-0.0385	11.610802	0.000507	5.068341	1.717200	-0.000203
1007	1.0010e+02	-0.0802	11.441243	0.000426	4.257406	1.442448	-0.000170
1008	1.0020e+02	-0.1187	11.235349	0.000517	5.169708	1.751544	-0.000207
1009	1.0030e+02	-0.1572	11.041566	0.000487	4.865607	1.648512	-0.000195
1010	1.0040e+02	-0.1973	10.835672	0.000517	5.169708	1.751544	-0.000207
1011	1.0050e+02	-0.2535	10.609593	0.000568	5.676542	1.923264	-0.000227
1012	1.0059e+02	-0.2936	10.419847	0.000476	4.764240	1.614168	-0.000191
1013	1.0069e+02	-0.3321	10.217991	0.000507	5.068341	1.717200	-0.000203
1014	1.0079e+02	-0.3674	10.076691	0.000355	3.547838	1.202040	-0.000142
1015	1.0089e+02	-0.3995	9.838500	0.000598	5.980642	2.026296	-0.000239
1016	1.0099e+02	-0.4508	9.644717	0.000487	4.865607	1.648512	-0.000195
1017	1.0109e+02	-0.4845	9.463046	0.000456	4.561507	1.545480	-0.000183
1018	1.0119e+02	-0.5246	9.232929	0.000578	5.777908	1.957608	-0.000231
1019	1.0129e+02	-0.5631	9.075481	0.000395	3.953306	1.339416	-0.000158
1020	1.0139e+02	-0.6080	8.873624	0.000507	5.068341	1.717200	-0.000203
1021	1.0149e+02	-0.6385	8.659656	0.000537	5.372441	1.820232	-0.000215
1022	1.0159e+02	-0.6802	8.445688	0.000537	5.372441	1.820232	-0.000215
1023	1.0169e+02	-0.7219	8.239794	0.000517	5.169708	1.751544	-0.000207
1024	1.0179e+02	-0.7604	8.058123	0.000456	4.561507	1.545480	-0.000183
1025	1.0189e+02	-0.7989	7.852229	0.000517	5.169708	1.751544	-0.000207
1026	1.0199e+02	-0.8470	7.658446	0.000487	4.865607	1.648512	-0.000195
1027	1.0209e+02	-0.8871	7.468701	0.000476	4.764240	1.614168	-0.000191
1028	1.0219e+02	-0.9240	7.254733	0.000537	5.372441	1.820232	-0.000215
1029	1.0229e+02	-0.9690	7.077099	0.000446	4.460140	1.511136	-0.000179
1030	1.0239e+02	-1.0107	6.887354	0.000476	4.764240	1.614168	-0.000191
1031	1.0248e+02	-1.0460	6.661274	0.000568	5.676542	1.923264	-0.000227
1032	1.0258e+02	-1.0780	6.495751	0.000416	4.156039	1.408104	-0.000166
1033	1.0268e+02	-1.1262	6.225263	0.000679	6.791577	2.301048	-0.000272
1034	1.0278e+02	-1.1695	6.092038	0.000335	3.345105	1.133352	-0.000134
1035	1.0288e+02	-1.2032	5.857884	0.000588	5.879275	1.991952	-0.000235
1036	1.0298e+02	-1.2385	5.680250	0.000446	4.460140	1.511136	-0.000179
1037	1.0308e+02	-1.2818	5.518765	0.000405	4.054673	1.373760	-0.000162
1038	1.0318e+02	-1.3187	5.304796	0.000537	5.372441	1.820232	-0.000215
1039	1.0328e+02	-1.3588	5.078717	0.000568	5.676542	1.923264	-0.000227
1040	1.0338e+02	-1.3973	4.893009	0.000466	4.662873	1.579824	-0.000187
1041	1.0348e+02	-1.4486	4.735560	0.000395	3.953306	1.339416	-0.000158
1042	1.0358e+02	-1.4887	4.545815	0.000476	4.764240	1.614168	-0.000191
1043	1.0368e+02	-1.5272	4.311661	0.000588	5.879275	1.991952	-0.000235
1044	1.0378e+02	-1.5561	4.154213	0.000395	3.953306	1.339416	-0.000158
1045	1.0388e+02	-1.6058	3.903910	0.000628	6.284742	2.129328	-0.000252
1046	1.0398e+02	-1.6315	3.722239	0.000456	4.561507	1.545480	-0.000183
1047	1.0408e+02	-1.6860	3.528457	0.000487	4.865607	1.648512	-0.000195
1048	1.0418e+02	-1.7278	3.322563	0.000517	5.169708	1.751544	-0.000207
1049	1.0428e+02	-1.7550	3.144929	0.000446	4.460140	1.511136	-0.000179
1050	1.0438e+02	-1.7951	2.971332	0.000436	4.358773	1.476792	-0.000174
1051	1.0447e+02	-1.8433	2.716992	0.000639	6.386109	2.163672	-0.000256
1052	1.0457e+02	-1.8834	2.571655	0.000365	3.649205	1.236384	-0.000146
1053	1.0467e+02	-1.9171	2.410170	0.000405	4.054673	1.373760	-0.000162
1054	1.0477e+02	-1.9556	2.208313	0.000507	5.068341	1.717200	-0.000203
1055	1.0487e+02	-1.9957	1.966085	0.000608	6.082009	2.060640	-0.000243
1056	1.0497e+02	-2.0406	1.772303	0.000487	4.865607	1.648512	-0.000195
1057	1.0507e+02	-2.0855	1.622929	0.000375	3.750572	1.270728	-0.000150
1058	1.0517e+02	-2.1224	1.433183	0.000476	4.764240	1.614168	-0.000191
1059	1.0527e+02	-2.1641	1.211141	0.000558	5.575175	1.888920	-0.000223
1060	1.0537e+02	-2.1962	1.029470	0.000456	4.561507	1.545480	-0.000183
1061	1.0547e+02	-2.2347	0.795316	0.000588	5.879275	1.991952	-0.000235
1062	1.0557e+02	-2.2860	0.609607	0.000466	4.662873	1.579824	-0.000187
1063	1.0567e+02	-2.3101	0.395639	0.000537	5.372441	1.820232	-0.000215
1064	1.0577e+02	-2.3630	0.213968	0.000456	4.561507	1.545480	-0.000183
1065	1.0587e+02	-2.3903	0.032297	0.000456	4.561507	1.545480	-0.000183
1066	1.0597e+02	-2.4368	-0.149374	0.000456	4.561507	1.545480	-0.000183
1067	1.0607e+02	-2.4834	-0.335082	0.000466	4.662873	1.579824	-0.000187
1068	1.0617e+02	-2.5042	-0.512716	0.000446	4.460140	1.511136	-0.000179
1069	1.0627e+02	-2.5507	-0.706499	0.000487	4.865607	1.648512	-0.000195
1070	1.0637e+02	-2.6005	-0.948727	0.000608	6.082009	2.060640	-0.000243
1071	1.0647e+02	-2.6374	-1.090027	0.000355	3.547838	1.202040	-0.000142
1072	1.0656e+02	-2.6823	-1.283809	0.000487	4.865607	1.648512	-0.000195
1073	1.0666e+02	-2.7160	-1.465480	0.000456	4.561507	1.545480	-0.000183
1074	1.0676e+02	-2.7593	-1.679448	0.000537	5.372441	1.820232	-0.000215
1075	1.0686e+02	-2.7978	-1.897454	0.000547	5.473808	1.854576	-0.000219
1076	1.0696e+02	-2.8427	-2.083162	0.000466	4.662873	1.579824	-0.000187
1077	1.0706e+02	-2.8796	-2.252722	0.000426	4.257406	1.442448	-0.000170
1078	1.0716e+02	-2.9117	-2.466690	0.000537	5.372441	1.820232	-0.000215
1079	1.0726e+02	-2.9598	-2.648361	0.000456	4.561507	1.545480	-0.000183
1080	1.0736e+02	-2.9999	-2.789661	0.000355	3.547838	1.202040	-0.000142
1081	1.0746e+02	-3.0400	-2.991518	0.000507	5.068341	1.717200	-0.000203
1082	1.0756e+02	-3.0689	-3.201449	0.000527	5.271074	1.785888	-0.000211
1083	1.0766e+02	-3.1170	-3.407343	0.000517	5.169708	1.751544	-0.000207
1084	1.0776e+02	-3.1539	-3.568828	0.000405	4.054673	1.373760	-0.000162
1085	1.0786e+02	-3.2004	-3.762611	0.000487	4.865607	1.648512	-0.000195
1086	1.0796e+02	-3.2373	-3.980616	0.000547	5.473808	1.854576	-0.000219
1087	1.0806e+02	-3.2726	-4.142101	0.000405	4.054673	1.373760	-0.000162
1088	1.0816e+02	-3.3256	-4.319735	0.000446	4.460140	1.511136	-0.000179
1089	1.0826e+02	-3.3512	-4.521592	0.000507	5.068341	1.717200	-0.000203
1090	1.0836e+02	-3.3930	-4.727486	0.000517	5.169708	1.751544	-0.000207
1091	1.0845e+02	-3.4363	-4.876860	0.000375	3.750572	1.270728	-0.000150
1092	1.0855e+02	-3.4684	-5.119088	0.000608	6.082009	2.060640	-0.000243
1093	1.0865e+02	-3.5149	-5.304796	0.000466	4.662873	1.579824	-0.000187
1094	1.0875e+02	-3.5534	-5.486467	0.000456	4.561507	1.545480	-0.000183
1095	1.0885e+02	-3.5967	-5.672176	0.000466	4.662873	1.579824	-0.000187
1096	1.0895e+02	-3.6368	-5.849810	0.000446	4.460140	1.511136	-0.000179
1097	1.0905e+02	-3.6865	-6.043592	0.000487	4.865607	1.648512	-0.000195
1098	1.0915e+02	-3.7042	-6.217189	0.000436	4.358773	1.476792	-0.000174
1099	1.0925e+02	-3.7491	-6.402897	0.000466	4.662873	1.579824	-0.000187
1100	1.0935e+02	-3.7940	-6.604754	0.000507	5.068341	1.717200	-0.000203
1101	1.0945e+02	-3.8357	-6.770277	0.000416	4.156039	1.408104	-0.000166
1102	1.0955e+02	-3.8742	-6.984245	0.000537	5.372441	1.820232	-0.000215
1103	1.0965e+02	-3.9095	-7.173990	0.000476	4.764240	1.614168	-0.000191
1104	1.0975e+02	-3.9560	-7.371810	0.000497	4.966974	1.682856	-0.000199
1105	1.0985e+02	-3.9913	-7.557518	0.000466	4.662873	1.579824	-0.000187
1106	1.0995e+02	-4.0362	-7.735152	0.000446	4.460140	1.511136	-0.000179
1107	1.1005e+02	-4.0764	-7.912786	0.000446	4.460140	1.511136	-0.000179
1108	1.1015e+02	-4.1116	-8.138866	0.000568	5.676542	1.923264	-0.000227
1109	1.1025e+02	-4.1502	-8.288240	0.000375	3.750572	1.270728	-0.000150
1110	1.1035e+02	-4.1838	-8.486059	0.000497	4.966974	1.682856	-0.000199
1111	1.1044e+02	-4.2368	-8.667730	0.000456	4.561507	1.545480	-0.000183
1112	1.1054e+02	-4.2689	-8.869587	0.000507	5.068341	1.717200	-0.000203
1113	1.1064e+02	-4.3106	-9.071444	0.000507	5.068341	1.717200	-0.000203
1114	1.1074e+02	-4.3587	-9.224855	0.000385	3.851939	1.305072	-0.000154
1115	1.1084e+02	-4.3940	-9.434786	0.000527	5.271074	1.785888	-0.000211
1116	1.1094e+02	-4.4309	-9.632606	0.000497	4.966974	1.682856	-0.000199
1117	1.1104e+02	-4.4662	-9.822351	0.000476	4.764240	1.614168	-0.000191
1118	1.1114e+02	-4.5159	-9.979800	0.000395	3.953306	1.339416	-0.000158
1119	1.1124e+02	-4.5512	-10.165508	0.000466	4.662873	1.579824	-0.000187
1120	1.1134e+02	-4.5833	-10.326993	0.000405	4.054673	1.373760	-0.000162
1121	1.1144e+02	-4.6330	-10.492516	0.000416	4.156039	1.408104	-0.000166
1122	1.1154e+02	-4.6699	-10.710521	0.000547	5.473808	1.854576	-0.000219
1123	1.1164e+02	-4.7164	-10.928526	0.000547	5.473808	1.854576	-0.000219
1124	1.1174e+02	-4.7389	-11.081938	0.000385	3.851939	1.305072	-0.000154
1125	1.1184e+02	-4.7902	-11.251497	0.000426	4.257406	1.442448	-0.000170
1126	1.1194e+02	-4.8239	-11.477577	0.000568	5.676542	1.923264	-0.000227
1127	1.1204e+02	-4.8705	-11.659248	0.000456	4.561507	1.545480	-0.000183
1128	1.1214e+02	-4.9090	-11.796511	0.000345	3.446472	1.167696	-0.000138
1129	1.1224e+02	-4.9475	-12.010479	0.000537	5.372441	1.820232	-0.000215
1130	1.1234e+02	-4.9844	-12.180039	0.000426	4.257406	1.442448	-0.000170
1131	1.1244e+02	-5.0261	-12.385932	0.000517	5.169708	1.751544	-0.000207
1132	1.1253e+02	-5.0694	-12.547418	0.000405	4.054673	1.373760	-0.000162
1133	1.1263e+02	-5.1079	-12.725052	0.000446	4.460140	1.511136	-0.000179
1134	1.1273e+02	-5.1480	-12.947094	0.000558	5.575175	1.888920	-0.000223
1135	1.1283e+02	-5.1865	-13.120691	0.000436	4.358773	1.476792	-0.000174
1136	1.1293e+02	-5.2298	-13.286214	0.000416	4.156039	1.408104	-0.000166
1137	1.1303e+02	-5.2763	-13.451736	0.000416	4.156039	1.408104	-0.000166
1138	1.1313e+02	-5.2972	-13.653593	0.000507	5.068341	1.717200	-0.000203
1139	1.1323e+02	-5.3469	-13.851413	0.000497	4.966974	1.682856	-0.000199
1140	1.1333e+02	-5.3870	-14.025010	0.000436	4.358773	1.476792	-0.000174
1141	1.1343e+02	-5.4255	-14.214755	0.000476	4.764240	1.614168	-0.000191
1142	1.1353e+02	-5.4608	-14.372203	0.000395	3.953306	1.339416	-0.000158
1143	1.1363e+02	-5.5089	-14.574060	0.000507	5.068341	1.717200	-0.000203
1144	1.1373e+02	-5.5490	-14.735545	0.000405	4.054673	1.373760	-0.000162
1145	1.1383e+02	-5.5891	-14.945477	0.000527	5.271074	1.785888	-0.000211
1146	1.1393e+02	-5.6228	-15.119073	0.000436	4.358773	1.476792	-0.000174
1147	1.1403e+02	-5.6710	-15.296707	0.000446	4.460140	1.511136	-0.000179
1148	1.1413e+02	-5.7047	-15.466267	0.000426	4.257406	1.442448	-0.000170
1149	1.1423e+02	-5.7399	-15.664087	0.000497	4.966974	1.682856	-0.000199
1150	1.1433e+02	-5.7865	-15.821535	0.000395	3.953306	1.339416	-0.000158
1151	1.1442e+02	-5.8314	-16.039540	0.000547	5.473808	1.854576	-0.000219
1152	1.1452e+02	-5.8747	-16.205063	0.000416	4.156039	1.408104	-0.000166
1153	1.1462e+02	-5.9052	-16.394808	0.000476	4.764240	1.614168	-0.000191
1154	1.1472e+02	-5.9485	-16.556294	0.000405	4.054673	1.373760	-0.000162
1155	1.1482e+02	-5.9902	-16.733928	0.000446	4.460140	1.511136	-0.000179
1156	1.1492e+02	-6.0223	-16.951933	0.000547	5.473808	1.854576	-0.000219
1157	1.1502e+02	-6.0640	-17.089196	0.000345	3.446472	1.167696	-0.000138
1158	1.1512e+02	-6.0993	-17.311238	0.000558	5.575175	1.888920	-0.000223
1159	1.1522e+02	-6.1474	-17.496946	0.000466	4.662873	1.579824	-0.000187
1160	1.1532e+02	-6.1891	-17.614023	0.000294	2.939638	0.995976	-0.000118
1161	1.1542e+02	-6.2228	-17.844140	0.000578	5.777908	1.957608	-0.000231
1162	1.1552e+02	-6.2677	-17.997551	0.000385	3.851939	1.305072	-0.000154
1163	1.1562e+02	-6.3127	-18.167111	0.000426	4.257406	1.442448	-0.000170
1164	1.1572e+02	-6.3431	-18.348782	0.000456	4.561507	1.545480	-0.000183
1165	1.1582e+02	-6.3816	-18.570824	0.000558	5.575175	1.888920	-0.000223
1166	1.1592e+02	-6.4314	-18.728273	0.000395	3.953306	1.339416	-0.000158
1167	1.1602e+02	-6.4570	-18.905907	0.000446	4.460140	1.511136	-0.000179
1168	1.1612e+02	-6.5020	-19.047206	0.000355	3.547838	1.202040	-0.000142
1169	1.1622e+02	-6.5356	-19.232915	0.000466	4.662873	1.579824	-0.000187
1170	1.1632e+02	-6.5822	-19.434771	0.000507	5.068341	1.717200	-0.000203
1171	1.1642e+02	-6.6143	-19.584145	0.000375	3.750572	1.270728	-0.000150
1172	1.1651e+02	-6.6640	-19.773891	0.000476	4.764240	1.614168	-0.000191
1173	1.1661e+02	-6.7073	-19.943451	0.000426	4.257406	1.442448	-0.000170
1174	1.1671e+02	-6.7346	-20.121085	0.000446	4.460140	1.511136	-0.000179
1175	1.1681e+02	-6.7827	-20.290644	0.000426	4.257406	1.442448	-0.000170
1176	1.1691e+02	-6.8180	-20.468278	0.000446	4.460140	1.511136	-0.000179
1177	1.1701e+02	-6.8629	-20.645912	0.000446	4.460140	1.511136	-0.000179
1178	1.1711e+02	-6.9142	-20.787212	0.000355	3.547838	1.202040	-0.000142
1179	1.1721e+02	-6.9351	-20.985032	0.000497	4.966974	1.682856	-0.000199
1180	1.1731e+02	-6.9768	-21.154591	0.000426	4.257406	1.442448	-0.000170
1181	1.1741e+02	-7.0201	-21.328188	0.000436	4.358773	1.476792	-0.000174
1182	1.1751e+02	-7.0570	-21.513896	0.000466	4.662873	1.579824	-0.000187
1183	1.1761e+02	-7.1003	-21.711716	0.000497	4.966974	1.682856	-0.000199
1184	1.1771e+02	-7.1308	-21.889350	0.000446	4.460140	1.511136	-0.000179
1185	1.1781e+02	-7.1822	-22.030650	0.000355	3.547838	1.202040	-0.000142
1186	1.1791e+02	-7.2239	-22.204247	0.000436	4.358773	1.476792	-0.000174
1187	1.1801e+02	-7.2575	-22.369769	0.000416	4.156039	1.408104	-0.000166
1188	1.1811e+02	-7.2977	-22.531255	0.000405	4.054673	1.373760	-0.000162
1189	1.1821e+02	-7.3394	-22.688703	0.000395	3.953306	1.339416	-0.000158
1190	1.1831e+02	-7.3795	-22.862300	0.000436	4.358773	1.476792	-0.000174
1191	1.1841e+02	-7.4244	-23.035897	0.000436	4.358773	1.476792	-0.000174
1192	1.1850e+02	-7.4549	-23.185271	0.000375	3.750572	1.270728	-0.000150
1193	1.1860e+02	-7.4998	-23.391164	0.000517	5.169708	1.751544	-0.000207
1194	1.1870e+02	-7.5383	-23.516316	0.000314	3.142371	1.064664	-0.000126
1195	1.1880e+02	-7.5720	-23.718172	0.000507	5.068341	1.717200	-0.000203
1196	1.1890e+02	-7.6217	-23.891769	0.000436	4.358773	1.476792	-0.000174
1197	1.1900e+02	-7.6522	-24.045180	0.000385	3.851939	1.305072	-0.000154
1198	1.1910e+02	-7.6987	-24.218777	0.000436	4.358773	1.476792	-0.000174
1199	1.1920e+02	-7.7308	-24.339891	0.000304	3.041004	1.030320	-0.000122
1200	1.1930e+02	-7.7821	-24.545785	0.000517	5.169708	1.751544	-0.000207
1201	1.1940e+02	-7.8190	-24.679011	0.000335	3.345105	1.133352	-0.000134
1202	1.1950e+02	-7.8511	-24.832422	0.000385	3.851939	1.305072	-0.000154
1203	1.1960e+02	-7.8928	-25.010056	0.000446	4.460140	1.511136	-0.000179
1204	1.1970e+02	-7.9377	-25.187690	0.000446	4.460140	1.511136	-0.000179
1205	1.1980e+02	-7.9762	-25.377435	0.000476	4.764240	1.614168	-0.000191
1206	1.1990e+02	-8.0099	-25.506624	0.000324	3.243738	1.099008	-0.000130
1207	1.2000e+02	-8.0581	-25.672146	0.000416	4.156039	1.408104	-0.000166
1208	1.2010e+02	-8.0966	-25.865929	0.000487	4.865607	1.648512	-0.000195
1209	1.2020e+02	-8.1286	-25.983006	0.000294	2.939638	0.995976	-0.000118
1210	1.2030e+02	-8.1752	-26.192937	0.000527	5.271074	1.785888	-0.000211
1211	1.2039e+02	-8.2233	-26.346348	0.000385	3.851939	1.305072	-0.000154
1212	1.2049e+02	-8.2634	-26.528019	0.000456	4.561507	1.545480	-0.000183
1213	1.2059e+02	-8.2875	-26.681430	0.000385	3.851939	1.305072	-0.000154
1214	1.2069e+02	-8.3292	-26.834841	0.000385	3.851939	1.305072	-0.000154
1215	1.2079e+02	-8.3725	-26.996327	0.000405	4.054673	1.373760	-0.000162
1216	1.2089e+02	-8.4110	-27.141664	0.000365	3.649205	1.236384	-0.000146
1217	1.2099e+02	-8.4607	-27.295075	0.000385	3.851939	1.305072	-0.000154
1218	1.2109e+02	-8.4992	-27.484820	0.000476	4.764240	1.614168	-0.000191
1219	1.2119e+02	-8.5297	-27.622083	0.000345	3.446472	1.167696	-0.000138
1220	1.2129e+02	-8.5810	-27.819902	0.000497	4.966974	1.682856	-0.000199
1221	1.2139e+02	-8.6147	-27.965239	0.000365	3.649205	1.236384	-0.000146
1222	1.2149e+02	-8.6564	-28.090390	0.000314	3.142371	1.064664	-0.000126
1223	1.2159e+02	-8.6998	-28.259950	0.000426	4.257406	1.442448	-0.000170
1224	1.2169e+02	-8.7286	-28.425473	0.000416	4.156039	1.408104	-0.000166
1225	1.2179e+02	-8.7655	-28.558698	0.000335	3.345105	1.133352	-0.000134
1226	1.2189e+02	-8.7992	-28.728258	0.000426	4.257406	1.442448	-0.000170
1227	1.2199e+02	-8.8425	-28.893780	0.000416	4.156039	1.408104	-0.000166
1228	1.2209e+02	-8.8891	-29.079489	0.000466	4.662873	1.579824	-0.000187
1229	1.2219e+02	-8.9308	-29.253086	0.000436	4.358773	1.476792	-0.000174
1230	1.2229e+02	-8.9725	-29.349977	0.000243	2.432804	0.824256	-0.000097
1231	1.2239e+02	-9.0062	-29.527611	0.000446	4.460140	1.511136	-0.000179
1232	1.2248e+02	-9.0511	-29.713319	0.000466	4.662873	1.579824	-0.000187
1233	1.2258e+02	-9.0896	-29.854619	0.000355	3.547838	1.202040	-0.000142
1234	1.2268e+02	-9.1313	-29.955547	0.000253	2.534170	0.858600	-0.000101
1235	1.2278e+02	-9.1730	-30.149330	0.000487	4.865607	1.648512	-0.000195
1236	1.2288e+02	-9.2083	-30.310815	0.000405	4.054673	1.373760	-0.000162
1237	1.2298e+02	-9.2532	-30.456152	0.000365	3.649205	1.236384	-0.000146
1238	1.2308e+02	-9.2885	-30.609563	0.000385	3.851939	1.305072	-0.000154
1239	1.2318e+02	-9.3350	-30.734714	0.000314	3.142371	1.064664	-0.000126
1240	1.2328e+02	-9.3719	-30.960794	0.000568	5.676542	1.923264	-0.000227
1241	1.2338e+02	-9.4201	-31.102094	0.000355	3.547838	1.202040	-0.000142
1242	1.2348e+02	-9.4489	-31.174762	0.000182	1.824603	0.618192	-0.000073
1243	1.2358e+02	-9.4971	-31.408916	0.000588	5.879275	1.991952	-0.000235
1244	1.2368e+02	-9.5275	-31.517919	0.000274	2.736904	0.927288	-0.000110
1245	1.2378e+02	-9.5773	-31.703627	0.000466	4.662873	1.579824	-0.000187
1246	1.2388e+02	-9.6078	-31.857038	0.000385	3.851939	1.305072	-0.000154
1247	1.2398e+02	-9.6543	-32.018524	0.000405	4.054673	1.373760	-0.000162
1248	1.2408e+02	-9.6880	-32.139638	0.000304	3.041004	1.030320	-0.000122
1249	1.2418e+02	-9.7297	-32.309197	0.000426	4.257406	1.442448	-0.000170
1250	1.2428e+02	-9.7698	-32.462608	0.000385	3.851939	1.305072	-0.000154
1251	1.2438e+02	-9.8067	-32.595834	0.000335	3.345105	1.133352	-0.000134
1252	1.2447e+02	-9.8516	-32.753282	0.000395	3.953306	1.339416	-0.000158
1253	1.2457e+02	-9.8901	-32.930916	0.000446	4.460140	1.511136	-0.000179
1254	1.2467e+02	-9.9190	-33.064142	0.000335	3.345105	1.133352	-0.000134
1255	1.2477e+02	-9.9687	-33.221590	0.000395	3.953306	1.339416	-0.000158
1256	1.2487e+02	-10.0008	-33.354815	0.000335	3.345105	1.133352	-0.000134
1257	1.2497e+02	-10.0441	-33.528412	0.000436	4.358773	1.476792	-0.000174
1258	1.2507e+02	-10.0922	-33.669712	0.000355	3.547838	1.202040	-0.000142
1259	1.2517e+02	-10.1259	-33.839272	0.000426	4.257406	1.442448	-0.000170
1260	1.2527e+02	-10.1724	-33.984609	0.000365	3.649205	1.236384	-0.000146
1261	1.2537e+02	-10.2013	-34.146094	0.000405	4.054673	1.373760	-0.000162
1262	1.2547e+02	-10.2414	-34.283357	0.000345	3.446472	1.167696	-0.000138
1263	1.2557e+02	-10.2831	-34.416582	0.000335	3.345105	1.133352	-0.000134
1264	1.2567e+02	-10.3281	-34.578068	0.000405	4.054673	1.373760	-0.000162
1265	1.2577e+02	-10.3682	-34.723404	0.000365	3.649205	1.236384	-0.000146
1266	1.2587e+02	-10.4018	-34.856630	0.000335	3.345105	1.133352	-0.000134
1267	1.2597e+02	-10.4436	-35.046375	0.000476	4.764240	1.614168	-0.000191
1268	1.2607e+02	-10.4869	-35.191712	0.000365	3.649205	1.236384	-0.000146
1269	1.2617e+02	-10.5206	-35.337049	0.000365	3.649205	1.236384	-0.000146
1270	1.2627e+02	-10.5687	-35.482386	0.000365	3.649205	1.236384	-0.000146
1271	1.2636e+02	-10.6056	-35.643871	0.000405	4.054673	1.373760	-0.000162
1272	1.2646e+02	-10.6441	-35.781134	0.000345	3.446472	1.167696	-0.000138
1273	1.2656e+02	-10.6954	-35.938582	0.000395	3.953306	1.339416	-0.000158
1274	1.2666e+02	-10.7291	-36.096031	0.000395	3.953306	1.339416	-0.000158
1275	1.2676e+02	-10.7660	-36.253479	0.000395	3.953306	1.339416	-0.000158
1276	1.2686e+02	-10.8061	-36.402853	0.000375	3.750572	1.270728	-0.000150
1277	1.2696e+02	-10.8526	-36.596635	0.000487	4.865607	1.648512	-0.000195
1278	1.2706e+02	-10.8831	-36.693527	0.000243	2.432804	0.824256	-0.000097
1279	1.2716e+02	-10.9328	-36.855012	0.000405	4.054673	1.373760	-0.000162
1280	1.2726e+02	-10.9601	-37.008423	0.000385	3.851939	1.305072	-0.000154
1281	1.2736e+02	-11.0066	-37.198169	0.000476	4.764240	1.614168	-0.000191
1282	1.2746e+02	-11.0467	-37.363691	0.000416	4.156039	1.408104	-0.000166
1283	1.2756e+02	-11.0836	-37.484805	0.000304	3.041004	1.030320	-0.000122
1284	1.2766e+02	-11.1205	-37.658402	0.000436	4.358773	1.476792	-0.000174
1285	1.2776e+02	-11.1671	-37.783553	0.000314	3.142371	1.064664	-0.000126
1286	1.2786e+02	-11.2008	-37.989447	0.000517	5.169708	1.751544	-0.000207
1287	1.2796e+02	-11.2441	-38.159007	0.000426	4.257406	1.442448	-0.000170
1288	1.2806e+02	-11.2826	-38.280121	0.000304	3.041004	1.030320	-0.000122
1289	1.2816e+02	-11.3211	-38.457755	0.000446	4.460140	1.511136	-0.000179
1290	1.2826e+02	-11.3644	-38.590981	0.000335	3.345105	1.133352	-0.000134
1291	1.2835e+02	-11.4013	-38.740355	0.000375	3.750572	1.270728	-0.000150
1292	1.2845e+02	-11.4462	-38.901840	0.000405	4.054673	1.373760	-0.000162
1293	1.2855e+02	-11.4815	-39.026991	0.000314	3.142371	1.064664	-0.000126
1294	1.2865e+02	-11.5264	-39.277294	0.000628	6.284742	2.129328	-0.000252
1295	1.2875e+02	-11.5681	-39.370148	0.000233	2.331437	0.789912	-0.000093
1296	1.2885e+02	-11.6002	-39.543745	0.000436	4.358773	1.476792	-0.000174
1297	1.2895e+02	-11.6499	-39.697156	0.000385	3.851939	1.305072	-0.000154
1298	1.2905e+02	-11.6772	-39.822307	0.000314	3.142371	1.064664	-0.000126
1299	1.2915e+02	-11.7141	-40.044349	0.000558	5.575175	1.888920	-0.000223
1300	1.2925e+02	-11.7558	-40.161426	0.000294	2.939638	0.995976	-0.000118
1301	1.2935e+02	-11.8023	-40.330986	0.000426	4.257406	1.442448	-0.000170
1302	1.2945e+02	-11.8408	-40.484397	0.000385	3.851939	1.305072	-0.000154
1303	1.2955e+02	-11.8809	-40.649920	0.000416	4.156039	1.408104	-0.000166
1304	1.2965e+02	-11.9178	-40.799294	0.000375	3.750572	1.270728	-0.000150
1305	1.2975e+02	-11.9660	-40.964816	0.000416	4.156039	1.408104	-0.000166
1306	1.2985e+02	-12.0013	-41.158599	0.000487	4.865607	1.648512	-0.000195
1307	1.2995e+02	-12.0430	-41.287787	0.000324	3.243738	1.099008	-0.000130
1308	1.3005e+02	-12.0783	-41.437161	0.000375	3.750572	1.270728	-0.000150
1309	1.3015e+02	-12.1248	-41.639018	0.000507	5.068341	1.717200	-0.000203
1310	1.3025e+02	-12.1617	-41.792429	0.000385	3.851939	1.305072	-0.000154
1311	1.3034e+02	-12.2050	-41.937766	0.000365	3.649205	1.236384	-0.000146
1312	1.3044e+02	-12.2275	-42.083103	0.000365	3.649205	1.236384	-0.000146
1313	1.3054e+02	-12.2804	-42.228440	0.000365	3.649205	1.236384	-0.000146
1314	1.3064e+02	-12.3189	-42.434334	0.000517	5.169708	1.751544	-0.000207
1315	1.3074e+02	-12.3622	-42.599856	0.000416	4.156039	1.408104	-0.000166
1316	1.3084e+02	-12.4039	-42.749230	0.000375	3.750572	1.270728	-0.000150
1317	1.3094e+02	-12.4440	-42.930901	0.000456	4.561507	1.545480	-0.000183
1318	1.3104e+02	-12.4841	-43.039904	0.000274	2.736904	0.927288	-0.000110
1319	1.3114e+02	-12.5146	-43.249835	0.000527	5.271074	1.785888	-0.000211
1320	1.3124e+02	-12.5627	-43.443618	0.000487	4.865607	1.648512	-0.000195
1321	1.3134e+02	-12.5996	-43.572806	0.000324	3.243738	1.099008	-0.000130
1322	1.3144e+02	-12.6349	-43.738329	0.000416	4.156039	1.408104	-0.000166
1323	1.3154e+02	-12.6718	-43.903851	0.000416	4.156039	1.408104	-0.000166
1324	1.3164e+02	-12.7200	-44.065337	0.000405	4.054673	1.373760	-0.000162
1325	1.3174e+02	-12.7537	-44.222785	0.000395	3.953306	1.339416	-0.000158
1326	1.3184e+02	-12.8018	-44.388307	0.000416	4.156039	1.408104	-0.000166
1327	1.3194e+02	-12.8355	-44.509422	0.000304	3.041004	1.030320	-0.000122
1328	1.3204e+02	-12.8788	-44.711278	0.000507	5.068341	1.717200	-0.000203
1329	1.3214e+02	-12.9077	-44.884875	0.000436	4.358773	1.476792	-0.000174
1330	1.3224e+02	-12.9558	-45.042323	0.000395	3.953306	1.339416	-0.000158
1331	1.3234e+02	-12.9895	-45.179586	0.000345	3.446472	1.167696	-0.000138
1332	1.3243e+02	-13.0472	-45.357220	0.000446	4.460140	1.511136	-0.000179
1333	1.3253e+02	-13.0745	-45.498520	0.000355	3.547838	1.202040	-0.000142
1334	1.3263e+02	-13.1066	-45.720562	0.000558	5.575175	1.888920	-0.000223
1335	1.3273e+02	-13.1563	-45.857825	0.000345	3.446472	1.167696	-0.000138
1336	1.3283e+02	-13.1900	-46.043533	0.000466	4.662873	1.579824	-0.000187
1337	1.3293e+02	-13.2317	-46.213093	0.000426	4.257406	1.442448	-0.000170
1338	1.3303e+02	-13.2750	-46.402838	0.000476	4.764240	1.614168	-0.000191
1339	1.3313e+02	-13.3151	-46.560286	0.000395	3.953306	1.339416	-0.000158
1340	1.3323e+02	-13.3504	-46.693512	0.000335	3.345105	1.133352	-0.000134
1341	1.3333e+02	-13.3905	-46.879220	0.000466	4.662873	1.579824	-0.000187
1342	1.3343e+02	-13.4226	-47.024557	0.000365	3.649205	1.236384	-0.000146
1343	1.3353e+02	-13.4723	-47.246600	0.000558	5.575175	1.888920	-0.000223
1344	1.3363e+02	-13.5108	-47.371751	0.000314	3.142371	1.064664	-0.000126
1345	1.3373e+02	-13.5510	-47.533236	0.000405	4.054673	1.373760	-0.000162
1346	1.3383e+02	-13.6007	-47.702796	0.000426	4.257406	1.442448	-0.000170
1347	1.3393e+02	-13.6280	-47.912727	0.000527	5.271074	1.785888	-0.000211
1348	1.3403e+02	-13.6713	-48.049990	0.000345	3.446472	1.167696	-0.000138
1349	1.3413e+02	-13.7146	-48.211475	0.000405	4.054673	1.373760	-0.000162
1350	1.3423e+02	-13.7547	-48.372960	0.000405	4.054673	1.373760	-0.000162
1351	1.3432e+02	-13.7932	-48.562706	0.000476	4.764240	1.614168	-0.000191
1352	1.3442e+02	-13.8349	-48.716117	0.000385	3.851939	1.305072	-0.000154
1353	1.3452e+02	-13.8878	-48.901825	0.000466	4.662873	1.579824	-0.000187
1354	1.3462e+02	-13.9135	-49.067348	0.000416	4.156039	1.408104	-0.000166
1355	1.3472e+02	-13.9552	-49.253056	0.000466	4.662873	1.579824	-0.000187
1356	1.3482e+02	-13.9825	-49.378207	0.000314	3.142371	1.064664	-0.000126
1357	1.3492e+02	-14.0386	-49.551804	0.000436	4.358773	1.476792	-0.000174
1358	1.3502e+02	-14.0755	-49.689067	0.000345	3.446472	1.167696	-0.000138
1359	1.3512e+02	-14.1189	-49.874775	0.000466	4.662873	1.579824	-0.000187
1360	1.3522e+02	-14.1525	-50.032223	0.000395	3.953306	1.339416	-0.000158
1361	1.3532e+02	-14.1926	-50.246191	0.000537	5.372441	1.820232	-0.000215
1362	1.3542e+02	-14.2263	-50.395565	0.000375	3.750572	1.270728	-0.000150
1363	1.3552e+02	-14.2777	-50.585311	0.000476	4.764240	1.614168	-0.000191
1364	1.3562e+02	-14.3178	-50.762945	0.000446	4.460140	1.511136	-0.000179
1365	1.3572e+02	-14.3434	-50.920393	0.000395	3.953306	1.339416	-0.000158
1366	1.3582e+02	-14.3948	-51.122250	0.000507	5.068341	1.717200	-0.000203
1367	1.3592e+02	-14.4317	-51.259512	0.000345	3.446472	1.167696	-0.000138
1368	1.3602e+02	-14.4734	-51.461369	0.000507	5.068341	1.717200	-0.000203
1369	1.3612e+02	-14.4991	-51.614780	0.000385	3.851939	1.305072	-0.000154
1370	1.3622e+02	-14.5552	-51.800489	0.000466	4.662873	1.579824	-0.000187
1371	1.3631e+02	-14.5857	-51.949863	0.000375	3.750572	1.270728	-0.000150
1372	1.3641e+02	-14.6258	-52.099237	0.000375	3.750572	1.270728	-0.000150
1373	1.3651e+02	-14.6595	-52.297056	0.000497	4.966974	1.682856	-0.000199
1374	1.3661e+02	-14.7076	-52.506987	0.000527	5.271074	1.785888	-0.000211
1375	1.3671e+02	-14.7509	-52.603879	0.000243	2.432804	0.824256	-0.000097
1376	1.3681e+02	-14.7846	-52.801698	0.000497	4.966974	1.682856	-0.000199
1377	1.3691e+02	-14.8375	-52.999518	0.000497	4.966974	1.682856	-0.000199
1378	1.3701e+02	-14.8696	-53.201375	0.000507	5.068341	1.717200	-0.000203
1379	1.3711e+02	-14.9097	-53.354786	0.000385	3.851939	1.305072	-0.000154
1380	1.3721e+02	-14.9386	-53.508197	0.000385	3.851939	1.305072	-0.000154
1381	1.3731e+02	-14.9867	-53.714091	0.000517	5.169708	1.751544	-0.000207
1382	1.3741e+02	-15.0236	-53.891725	0.000446	4.460140	1.511136	-0.000179
1383	1.3751e+02	-15.0686	-54.077433	0.000466	4.662873	1.579824	-0.000187
1384	1.3761e+02	-15.1055	-54.226807	0.000375	3.750572	1.270728	-0.000150
1385	1.3771e+02	-15.1359	-54.424627	0.000497	4.966974	1.682856	-0.000199
1386	1.3781e+02	-15.1857	-54.634558	0.000527	5.271074	1.785888	-0.000211
1387	1.3791e+02	-15.2338	-54.767783	0.000335	3.345105	1.133352	-0.000134
1388	1.3801e+02	-15.2643	-54.949455	0.000456	4.561507	1.545480	-0.000183
1389	1.3811e+02	-15.3044	-55.098829	0.000375	3.750572	1.270728	-0.000150
1390	1.3821e+02	-15.3541	-55.300685	0.000507	5.068341	1.717200	-0.000203
1391	1.3831e+02	-15.3894	-55.494468	0.000487	4.865607	1.648512	-0.000195
1392	1.3840e+02	-15.4199	-55.680176	0.000466	4.662873	1.579824	-0.000187
1393	1.3850e+02	-15.4664	-55.849736	0.000426	4.257406	1.442448	-0.000170
1394	1.3860e+02	-15.5001	-55.978924	0.000324	3.243738	1.099008	-0.000130
1395	1.3870e+02	-15.5418	-56.213078	0.000588	5.879275	1.991952	-0.000235
1396	1.3880e+02	-15.5867	-56.451269	0.000598	5.980642	2.026296	-0.000239
1397	1.3890e+02	-15.6204	-56.548160	0.000243	2.432804	0.824256	-0.000097
1398	1.3900e+02	-15.6605	-56.794426	0.000618	6.183376	2.094984	-0.000248
1399	1.3910e+02	-15.7103	-56.935725	0.000355	3.547838	1.202040	-0.000142
1400	1.3920e+02	-15.7439	-57.101248	0.000416	4.156039	1.408104	-0.000166
1401	1.3930e+02	-15.7760	-57.327327	0.000568	5.676542	1.923264	-0.000227
1402	1.3940e+02	-15.8290	-57.500924	0.000436	4.358773	1.476792	-0.000174
1403	1.3950e+02	-15.8627	-57.706818	0.000517	5.169708	1.751544	-0.000207
1404	1.3960e+02	-15.9060	-57.868304	0.000405	4.054673	1.373760	-0.000162
1405	1.3970e+02	-15.9397	-58.066123	0.000497	4.966974	1.682856	-0.000199
1406	1.3980e+02	-15.9798	-58.235683	0.000426	4.257406	1.442448	-0.000170
1407	1.3990e+02	-16.0231	-58.429466	0.000487	4.865607	1.648512	-0.000195
1408	1.4000e+02	-16.0568	-58.663619	0.000588	5.879275	1.991952	-0.000235
1409	1.4010e+02	-16.1081	-58.829142	0.000416	4.156039	1.408104	-0.000166
1410	1.4020e+02	-16.1418	-59.030999	0.000507	5.068341	1.717200	-0.000203
1411	1.4029e+02	-16.1835	-59.196521	0.000416	4.156039	1.408104	-0.000166
1412	1.4039e+02	-16.2220	-59.402415	0.000517	5.169708	1.751544	-0.000207
1413	1.4049e+02	-16.2573	-59.616383	0.000537	5.372441	1.820232	-0.000215
1414	1.4059e+02	-16.3038	-59.806129	0.000476	4.764240	1.614168	-0.000191
1415	1.4069e+02	-16.3343	-59.987800	0.000456	4.561507	1.545480	-0.000183
1416	1.4079e+02	-16.3872	-60.181582	0.000487	4.865607	1.648512	-0.000195
1417	1.4089e+02	-16.4257	-60.375365	0.000487	4.865607	1.648512	-0.000195
1418	1.4099e+02	-16.4626	-60.540888	0.000416	4.156039	1.408104	-0.000166
1419	1.4109e+02	-16.4963	-60.783116	0.000608	6.082009	2.060640	-0.000243
1420	1.4119e+02	-16.5541	-60.976898	0.000487	4.865607	1.648512	-0.000195
1421	1.4129e+02	-16.5814	-61.182792	0.000517	5.169708	1.751544	-0.000207
1422	1.4139e+02	-16.6247	-61.364463	0.000456	4.561507	1.545480	-0.000183
1423	1.4149e+02	-16.6696	-61.602654	0.000598	5.980642	2.026296	-0.000239
1424	1.4159e+02	-16.7049	-61.788362	0.000466	4.662873	1.579824	-0.000187
1425	1.4169e+02	-16.7450	-61.990219	0.000507	5.068341	1.717200	-0.000203
1426	1.4179e+02	-16.7899	-62.192076	0.000507	5.068341	1.717200	-0.000203
1427	1.4189e+02	-16.8075	-62.418156	0.000568	5.676542	1.923264	-0.000227
1428	1.4199e+02	-16.8637	-62.628087	0.000527	5.271074	1.785888	-0.000211
1429	1.4209e+02	-16.8958	-62.761312	0.000335	3.345105	1.133352	-0.000134
1430	1.4219e+02	-16.9343	-63.023726	0.000659	6.588843	2.232360	-0.000264
1431	1.4228e+02	-16.9792	-63.229620	0.000517	5.169708	1.751544	-0.000207
1432	1.4238e+02	-17.0177	-63.427440	0.000497	4.966974	1.682856	-0.000199
1433	1.4248e+02	-17.0546	-63.637371	0.000527	5.271074	1.785888	-0.000211
1434	1.4258e+02	-17.1011	-63.899784	0.000659	6.588843	2.232360	-0.000264
1435	1.4268e+02	-17.1396	-64.097604	0.000497	4.966974	1.682856	-0.000199
1436	1.4278e+02	-17.1733	-64.327721	0.000578	5.777908	1.957608	-0.000231
1437	1.4288e+02	-17.2070	-64.561875	0.000588	5.879275	1.991952	-0.000235
1438	1.4298e+02	-17.2583	-64.759694	0.000497	4.966974	1.682856	-0.000199
1439	1.4308e+02	-17.3049	-64.997885	0.000598	5.980642	2.026296	-0.000239
1440	1.4318e+02	-17.3418	-65.215891	0.000547	5.473808	1.854576	-0.000219
1441	1.4328e+02	-17.3738	-65.437933	0.000558	5.575175	1.888920	-0.000223
1442	1.4338e+02	-17.4188	-65.627679	0.000476	4.764240	1.614168	-0.000191
1443	1.4348e+02	-17.4573	-65.886055	0.000649	6.487476	2.198016	-0.000260
1444	1.4358e+02	-17.5006	-66.124246	0.000598	5.980642	2.026296	-0.000239
1445	1.4368e+02	-17.5327	-66.366474	0.000608	6.082009	2.060640	-0.000243
1446	1.4378e+02	-17.5792	-66.564294	0.000497	4.966974	1.682856	-0.000199
1447	1.4388e+02	-17.6145	-66.810559	0.000618	6.183376	2.094984	-0.000248
1448	1.4398e+02	-17.6578	-67.056825	0.000618	6.183376	2.094984	-0.000248
1449	1.4408e+02	-17.6947	-67.262719	0.000517	5.169708	1.751544	-0.000207
1450	1.4418e+02	-17.7396	-67.561467	0.000750	7.501144	2.541456	-0.000300
1451	1.4428e+02	-17.7845	-67.759286	0.000497	4.966974	1.682856	-0.000199
1452	1.4437e+02	-17.8166	-67.993440	0.000588	5.879275	1.991952	-0.000235
1453	1.4447e+02	-17.8535	-68.203371	0.000527	5.271074	1.785888	-0.000211
1454	1.4457e+02	-17.8872	-68.502119	0.000750	7.501144	2.541456	-0.000300
1455	1.4467e+02	-17.9417	-68.712050	0.000527	5.271074	1.785888	-0.000211
1456	1.4477e+02	-17.9706	-68.990613	0.000699	6.994310	2.369736	-0.000280
1457	1.4487e+02	-18.0187	-69.224767	0.000588	5.879275	1.991952	-0.000235
1458	1.4497e+02	-18.0476	-69.458920	0.000588	5.879275	1.991952	-0.000235
1459	1.4507e+02	-18.0990	-69.729408	0.000679	6.791577	2.301048	-0.000272
1460	1.4517e+02	-18.1407	-69.971637	0.000608	6.082009	2.060640	-0.000243
1461	1.4527e+02	-18.1792	-70.246162	0.000689	6.892943	2.335392	-0.000276
1462	1.4537e+02	-18.2161	-70.524724	0.000699	6.994310	2.369736	-0.000280
1463	1.4547e+02	-18.2514	-70.762915	0.000598	5.980642	2.026296	-0.000239
1464	1.4557e+02	-18.2931	-71.037440	0.000689	6.892943	2.335392	-0.000276
1465	1.4567e+02	-18.3348	-71.303891	0.000669	6.690210	2.266704	-0.000268
1466	1.4577e+02	-18.3701	-71.570342	0.000669	6.690210	2.266704	-0.000268
1467	1.4587e+02	-18.4134	-71.808533	0.000598	5.980642	2.026296	-0.000239
1468	1.4597e+02	-18.4519	-72.050762	0.000608	6.082009	2.060640	-0.000243
1469	1.4607e+02	-18.4888	-72.361621	0.000781	7.805245	2.644488	-0.000312
1470	1.4617e+02	-18.5401	-72.648258	0.000720	7.197044	2.438424	-0.000288
1471	1.4626e+02	-18.5738	-72.890486	0.000608	6.082009	2.060640	-0.000243
1472	1.4636e+02	-18.6219	-73.201345	0.000781	7.805245	2.644488	-0.000312
1473	1.4646e+02	-18.6460	-73.483945	0.000710	7.095677	2.404080	-0.000284
1474	1.4656e+02	-18.6845	-73.766544	0.000710	7.095677	2.404080	-0.000284
1475	1.4666e+02	-18.7390	-74.032995	0.000669	6.690210	2.266704	-0.000268
1476	1.4676e+02	-18.7679	-74.311558	0.000699	6.994310	2.369736	-0.000280
1477	1.4686e+02	-18.8160	-74.582046	0.000679	6.791577	2.301048	-0.000272
1478	1.4696e+02	-18.8449	-74.860608	0.000699	6.994310	2.369736	-0.000280
1479	1.4706e+02	-18.8930	-75.191653	0.000831	8.312079	2.816209	-0.000333
1480	1.4716e+02	-18.9267	-75.490401	0.000750	7.501144	2.541456	-0.000300
1481	1.4726e+02	-18.9701	-75.756852	0.000669	6.690210	2.266704	-0.000268
1482	1.4736e+02	-19.0086	-76.100009	0.000862	8.616179	2.919241	-0.000345
1483	1.4746e+02	-19.0599	-76.370497	0.000679	6.791577	2.301048	-0.000272
1484	1.4756e+02	-19.0920	-76.653096	0.000710	7.095677	2.404080	-0.000284
1485	1.4766e+02	-19.1321	-76.980104	0.000821	8.210712	2.781865	-0.000329
1486	1.4776e+02	-19.1754	-77.347484	0.000922	9.224380	3.125305	-0.000369
1487	1.4786e+02	-19.2091	-77.617972	0.000679	6.791577	2.301048	-0.000272
1488	1.4796e+02	-19.2492	-77.940943	0.000811	8.109345	2.747521	-0.000325
1489	1.4806e+02	-19.3069	-78.259876	0.000801	8.007978	2.713177	-0.000321
1490	1.4816e+02	-19.3342	-78.566699	0.000770	7.703878	2.610144	-0.000308
1491	1.4825e+02	-19.3679	-78.893707	0.000821	8.210712	2.781865	-0.000329
1492	1.4835e+02	-19.4080	-79.200529	0.000770	7.703878	2.610144	-0.000308
1493	1.4845e+02	-19.4497	-79.535611	0.000841	8.413446	2.850553	-0.000337
1494	1.4855e+02	-19.4914	-79.878768	0.000862	8.616179	2.919241	-0.000345
1495	1.4865e+02	-19.5347	-80.258258	0.000953	9.528481	3.228337	-0.000381
1496	1.4875e+02	-19.5684	-80.516635	0.000649	6.487476	2.198016	-0.000260
1497	1.4885e+02	-19.6230	-80.896126	0.000953	9.528481	3.228337	-0.000381
1498	1.4895e+02	-19.6519	-81.231208	0.000841	8.413446	2.850553	-0.000337
1499	1.4905e+02	-19.6952	-81.610699	0.000953	9.528481	3.228337	-0.000381
1500	1.4915e+02	-19.7353	-81.949818	0.000851	8.514812	2.884897	-0.000341
1501	1.4925e+02	-19.7674	-82.317198	0.000922	9.224380	3.125305	-0.000369
1502	1.4935e+02	-19.8026	-82.664391	0.000872	8.717546	2.953585	-0.000349
1503	1.4945e+02	-19.8492	-83.019659	0.000892	8.920280	3.022273	-0.000357
1504	1.4955e+02	-19.8813	-83.330519	0.000781	7.805245	2.644488	-0.000312
1505	1.4965e+02	-19.9326	-83.750381	0.001054	10.542149	3.571777	-0.000422
1506	1.4975e+02	-19.9647	-84.117760	0.000922	9.224380	3.125305	-0.000369
1507	1.4985e+02	-19.9968	-84.521474	0.001014	10.136681	3.434401	-0.000406
1508	1.4995e+02	-19.9743	-84.674885	-0.000385	-3.851939	-1.305072	-0.000154
1509	1.5005e+02	-19.9374	-84.783888	-0.000274	-2.736904	-0.927288	-0.000110
1510	1.5015e+02	-19.8861	-84.917113	-0.000335	-3.345105	-1.133352	-0.000134
1511	1.5025e+02	-19.8412	-85.094747	-0.000446	-4.460140	-1.511136	-0.000179
1512	1.5034e+02	-19.8075	-85.151267	-0.000142	-1.419135	-0.480816	-0.000057
1513	1.5044e+02	-19.7818	-85.341012	-0.000476	-4.764240	-1.614168	-0.000191
1514	1.5054e+02	-19.7289	-85.401569	-0.000152	-1.520502	-0.515160	-0.000061
1515	1.5064e+02	-19.6871	-85.498461	-0.000243	-2.432804	-0.824256	-0.000097
1516	1.5074e+02	-19.6470	-85.603426	-0.000264	-2.635537	-0.892944	-0.000105
1517	1.5084e+02	-19.6150	-85.631686	-0.000071	-0.709568	-0.240408	-0.000028
1518	1.5094e+02	-19.5620	-85.732615	-0.000253	-2.534170	-0.858600	-0.000101
1519	1.5104e+02	-19.5331	-85.772986	-0.000101	-1.013668	-0.343440	-0.000041
1520	1.5114e+02	-19.4962	-85.881989	-0.000274	-2.736904	-0.927288	-0.000110
1521	1.5124e+02	-19.4545	-85.865840	0.000041	0.405467	0.137376	0.000016
1522	1.5134e+02	-19.4176	-85.934471	-0.000172	-1.723236	-0.583848	-0.000069
1523	1.5144e+02	-19.3663	-85.982917	-0.000122	-1.216402	-0.412128	-0.000049
1524	1.5154e+02	-19.3310	-86.031363	-0.000122	-1.216402	-0.412128	-0.000049
1525	1.5164e+02	-19.2861	-86.043474	-0.000030	-0.304100	-0.103032	-0.000012
1526	1.5174e+02	-19.2556	-86.055585	-0.000030	-0.304100	-0.103032	-0.000012
1527	1.5184e+02	-19.2187	-86.071734	-0.000041	-0.405467	-0.137376	-0.000016
1528	1.5194e+02	-19.1786	-86.136328	-0.000162	-1.621869	-0.549504	-0.000065
1529	1.5204e+02	-19.1369	-86.120180	0.000041	0.405467	0.137376	0.000016
1530	1.5214e+02	-19.0984	-86.108068	0.000030	0.304100	0.103032	0.000012
1531	1.5224e+02	-19.0583	-86.152477	-0.000112	-1.115035	-0.377784	-0.000045
1532	1.5233e+02	-19.0166	-86.108068	0.000112	1.115035	0.377784	0.000045
1533	1.5243e+02	-18.9701	-86.168625	-0.000152	-1.520502	-0.515160	-0.000061
1534	1.5253e+02	-18.9348	-86.136328	0.000081	0.810935	0.274752	0.000032
1535	1.5263e+02	-18.8979	-86.083845	0.000132	1.317769	0.446472	0.000053
1536	1.5273e+02	-18.8578	-86.104031	-0.000051	-0.506834	-0.171720	-0.000020
1537	1.5283e+02	-18.8128	-86.099994	0.000010	0.101367	0.034344	0.000004
1538	1.5293e+02	-18.7711	-86.067697	0.000081	0.810935	0.274752	0.000032
1539	1.5303e+02	-18.7326	-86.035400	0.000081	0.810935	0.274752	0.000032
1540	1.5313e+02	-18.6973	-86.051548	-0.000041	-0.405467	-0.137376	-0.000016
1541	1.5323e+02	-18.6524	-86.015214	0.000091	0.912301	0.309096	0.000037
1542	1.5333e+02	-18.6203	-85.982917	0.000081	0.810935	0.274752	0.000032
1543	1.5343e+02	-18.5738	-85.966768	0.000041	0.405467	0.137376	0.000016
1544	1.5353e+02	-18.5369	-85.926397	0.000101	1.013668	0.343440	0.000041
1545	1.5363e+02	-18.4968	-85.873914	0.000132	1.317769	0.446472	0.000053
1546	1.5373e+02	-18.4567	-85.837580	0.000091	0.912301	0.309096	0.000037
1547	1.5383e+02	-18.4054	-85.821432	0.000041	0.405467	0.137376	0.000016
1548	1.5393e+02	-18.3797	-85.764912	0.000142	1.419135	0.480816	0.000057
1549	1.5403e+02	-18.3316	-85.748763	0.000041	0.405467	0.137376	0.000016
1550	1.5413e+02	-18.2915	-85.655909	0.000233	2.331437	0.789912	0.000093
1551	1.5422e+02	-18.2594	-85.651872	0.000010	0.101367	0.034344	0.000004
1552	1.5432e+02	-18.2161	-85.595352	0.000142	1.419135	0.480816	0.000057
1553	1.5442e+02	-18.1824	-85.607463	-0.000030	-0.304100	-0.103032	-0.000012
1554	1.5452e+02	-18.1359	-85.522683	0.000213	2.128703	0.721224	0.000085
1555	1.5462e+02	-18.1006	-85.450015	0.000182	1.824603	0.618192	0.000073
1556	1.5472e+02	-18.0524	-85.381384	0.000172	1.723236	0.583848	0.000069
1557	1.5482e+02	-18.0187	-85.353124	0.000071	0.709568	0.240408	0.000028
1558	1.5492e+02	-17.9754	-85.256233	0.000243	2.432804	0.824256	0.000097
1559	1.5502e+02	-17.9449	-85.203750	0.000132	1.317769	0.446472	0.000053
1560	1.5512e+02	-17.8984	-85.147230	0.000142	1.419135	0.480816	0.000057
1561	1.5522e+02	-17.8583	-85.135118	0.000030	0.304100	0.103032	0.000012
1562	1.5532e+02	-17.8102	-85.042264	0.000233	2.331437	0.789912	0.000093
1563	1.5542e+02	-17.7797	-84.953447	0.000223	2.230070	0.755568	0.000089
1564	1.5552e+02	-17.7412	-84.937299	0.000041	0.405467	0.137376	0.000016
1565	1.5562e+02	-17.7011	-84.860593	0.000193	1.925969	0.652536	0.000077
1566	1.5572e+02	-17.6610	-84.791962	0.000172	1.723236	0.583848	0.000069
1567	1.5582e+02	-17.6161	-84.703145	0.000223	2.230070	0.755568	0.000089
1568	1.5592e+02	-17.5792	-84.695071	0.000020	0.202734	0.068688	0.000008
1569	1.5602e+02	-17.5423	-84.553771	0.000355	3.547838	1.202040	0.000142
1570	1.5612e+02	-17.4990	-84.468991	0.000213	2.128703	0.721224	0.000085
1571	1.5622e+02	-17.4541	-84.388248	0.000203	2.027336	0.686880	0.000081
1572	1.5631e+02	-17.4188	-84.331728	0.000142	1.419135	0.480816	0.000057
1573	1.5641e+02	-17.3835	-84.263097	0.000172	1.723236	0.583848	0.000069
1574	1.5651e+02	-17.3402	-84.162169	0.000253	2.534170	0.858600	0.000101
1575	1.5661e+02	-17.3097	-84.121797	0.000101	1.013668	0.343440	0.000041
1576	1.5671e+02	-17.2599	-84.045092	0.000193	1.925969	0.652536	0.000077
1577	1.5681e+02	-17.2230	-83.956275	0.000223	2.230070	0.755568	0.000089
1578	1.5691e+02	-17.1781	-83.883606	0.000182	1.824603	0.618192	0.000073
1579	1.5701e+02	-17.1396	-83.814975	0.000172	1.723236	0.583848	0.000069
1580	1.5711e+02	-17.0963	-83.718084	0.000243	2.432804	0.824256	0.000097
1581	1.5721e+02	-17.0658	-83.657527	0.000152	1.520502	0.515160	0.000061
1582	1.5731e+02	-17.0129	-83.528338	0.000324	3.243738	1.099008	0.000130
1583	1.5741e+02	-16.9840	-83.459707	0.000172	1.723236	0.583848	0.000069
1584	1.5751e+02	-16.9359	-83.362816	0.000243	2.432804	0.824256	0.000097
1585	1.5761e+02	-16.8942	-83.302259	0.000152	1.520502	0.515160	0.000061
1586	1.5771e+02	-16.8653	-83.217479	0.000213	2.128703	0.721224	0.000085
1587	1.5781e+02	-16.8268	-83.132699	0.000213	2.128703	0.721224	0.000085
1588	1.5791e+02	-16.7851	-83.060031	0.000182	1.824603	0.618192	0.000073
1589	1.5801e+02	-16.7418	-82.975251	0.000213	2.128703	0.721224	0.000085
1590	1.5811e+02	-16.6969	-82.886434	0.000223	2.230070	0.755568	0.000089
1591	1.5821e+02	-16.6567	-82.753208	0.000335	3.345105	1.133352	0.000134
1592	1.5830e+02	-16.6199	-82.680540	0.000182	1.824603	0.618192	0.000073
1593	1.5840e+02	-16.5765	-82.595760	0.000213	2.128703	0.721224	0.000085
1594	1.5850e+02	-16.5380	-82.498869	0.000243	2.432804	0.824256	0.000097
1595	1.5860e+02	-16.4995	-82.466572	0.000081	0.810935	0.274752	0.000032
1596	1.5870e+02	-16.4691	-82.353532	0.000284	2.838271	0.961632	0.000114
1597	1.5880e+02	-16.4161	-82.240492	0.000284	2.838271	0.961632	0.000114
1598	1.5890e+02	-16.3760	-82.131489	0.000274	2.736904	0.927288	0.000110
1599	1.5900e+02	-16.3407	-82.091118	0.000101	1.013668	0.343440	0.000041
1600	1.5910e+02	-16.3054	-81.974041	0.000294	2.939638	0.995976	0.000118
1601	1.5920e+02	-16.2637	-81.865038	0.000274	2.736904	0.927288	0.000110
1602	1.5930e+02	-16.2268	-81.784296	0.000203	2.027336	0.686880	0.000081
1603	1.5940e+02	-16.1867	-81.687405	0.000243	2.432804	0.824256	0.000097
1604	1.5950e+02	-16.1386	-81.626847	0.000152	1.520502	0.515160	0.000061
1605	1.5960e+02	-16.0969	-81.465362	0.000405	4.054673	1.373760	0.000162
1606	1.5970e+02	-16.0664	-81.396731	0.000172	1.723236	0.583848	0.000069
1607	1.5980e+02	-16.0183	-81.291765	0.000264	2.635537	0.892944	0.000105
1608	1.5990e+02	-15.9862	-81.223134	0.000172	1.723236	0.583848	0.000069
1609	1.6000e+02	-15.9429	-81.130280	0.000233	2.331437	0.789912	0.000093
1610	1.6010e+02	-15.9060	-81.033389	0.000243	2.432804	0.824256	0.000097
1611	1.6019e+02	-15.8691	-80.924386	0.000274	2.736904	0.927288	0.000110
1612	1.6029e+02	-15.8258	-80.827495	0.000243	2.432804	0.824256	0.000097
1613	1.6039e+02	-15.7840	-80.779049	0.000122	1.216402	0.412128	0.000049
1614	1.6049e+02	-15.7568	-80.690232	0.000223	2.230070	0.755568	0.000089
1615	1.6059e+02	-15.7086	-80.548932	0.000355	3.547838	1.202040	0.000142
1616	1.6069e+02	-15.6621	-80.452041	0.000243	2.432804	0.824256	0.000097
1617	1.6079e+02	-15.6220	-80.403595	0.000122	1.216402	0.412128	0.000049
1618	1.6089e+02	-15.5851	-80.274407	0.000324	3.243738	1.099008	0.000130
1619	1.6099e+02	-15.5434	-80.161367	0.000284	2.838271	0.961632	0.000114
1620	1.6109e+02	-15.5113	-80.092736	0.000172	1.723236	0.583848	0.000069
1621	1.6119e+02	-15.4744	-79.971622	0.000304	3.041004	1.030320	0.000122
1622	1.6129e+02	-15.4263	-79.878768	0.000233	2.331437	0.789912	0.000093
1623	1.6139e+02	-15.3830	-79.785914	0.000233	2.331437	0.789912	0.000093
1624	1.6149e+02	-15.3477	-79.689022	0.000243	2.432804	0.824256	0.000097
1625	1.6159e+02	-15.2980	-79.588094	0.000253	2.534170	0.858600	0.000101
1626	1.6169e+02	-15.2643	-79.483128	0.000264	2.635537	0.892944	0.000105
1627	1.6179e+02	-15.2274	-79.353940	0.000324	3.243738	1.099008	0.000130
1628	1.6189e+02	-15.1889	-79.277234	0.000193	1.925969	0.652536	0.000077
1629	1.6199e+02	-15.1440	-79.184380	0.000233	2.331437	0.789912	0.000093
1630	1.6209e+02	-15.1151	-79.087489	0.000243	2.432804	0.824256	0.000097
1631	1.6219e+02	-15.0718	-78.994635	0.000233	2.331437	0.789912	0.000093
1632	1.6228e+02	-15.0268	-78.861410	0.000335	3.345105	1.133352	0.000134
1633	1.6238e+02	-14.9964	-78.780667	0.000203	2.027336	0.686880	0.000081
1634	1.6248e+02	-14.9547	-78.703961	0.000193	1.925969	0.652536	0.000077
1635	1.6258e+02	-14.9146	-78.578810	0.000314	3.142371	1.064664	0.000126
1636	1.6268e+02	-14.8696	-78.485956	0.000233	2.331437	0.789912	0.000093
1637	1.6278e+02	-14.8279	-78.380990	0.000264	2.635537	0.892944	0.000105
1638	1.6288e+02	-14.7926	-78.280062	0.000253	2.534170	0.858600	0.000101
1639	1.6298e+02	-14.7493	-78.179134	0.000253	2.534170	0.858600	0.000101
1640	1.6308e+02	-14.7108	-78.102428	0.000193	1.925969	0.652536	0.000077
1641	1.6318e+02	-14.6707	-77.932868	0.000426	4.257406	1.442448	0.000170
1642	1.6328e+02	-14.6370	-77.888460	0.000112	1.115035	0.377784	0.000045
1643	1.6338e+02	-14.5873	-77.739086	0.000375	3.750572	1.270728	0.000150
1644	1.6348e+02	-14.5504	-77.650269	0.000223	2.230070	0.755568	0.000089
1645	1.6358e+02	-14.5087	-77.557415	0.000233	2.331437	0.789912	0.000093
1646	1.6368e+02	-14.4734	-77.436301	0.000304	3.041004	1.030320	0.000122
1647	1.6378e+02	-14.4253	-77.347484	0.000223	2.230070	0.755568	0.000089
1648	1.6388e+02	-14.3884	-77.222332	0.000314	3.142371	1.064664	0.000126
1649	1.6398e+02	-14.3483	-77.133515	0.000223	2.230070	0.755568	0.000089
1650	1.6408e+02	-14.3098	-77.020476	0.000284	2.838271	0.961632	0.000114
1651	1.6418e+02	-14.2680	-76.887250	0.000335	3.345105	1.133352	0.000134
1652	1.6427e+02	-14.2247	-76.806507	0.000203	2.027336	0.686880	0.000081
1653	1.6437e+02	-14.1894	-76.737876	0.000172	1.723236	0.583848	0.000069
1654	1.6447e+02	-14.1461	-76.564279	0.000436	4.358773	1.476792	0.000174
1655	1.6457e+02	-14.1060	-76.491611	0.000182	1.824603	0.618192	0.000073
1656	1.6467e+02	-14.0707	-76.386645	0.000264	2.635537	0.892944	0.000105
1657	1.6477e+02	-14.0306	-76.277643	0.000274	2.736904	0.927288	0.000110
1658	1.6487e+02	-13.9921	-76.196900	0.000203	2.027336	0.686880	0.000081
1659	1.6497e+02	-13.9568	-76.083860	0.000284	2.838271	0.961632	0.000114
1660	1.6507e+02	-13.9247	-75.991006	0.000233	2.331437	0.789912	0.000093
1661	1.6517e+02	-13.8750	-75.865855	0.000314	3.142371	1.064664	0.000126
1662	1.6527e+02	-13.8269	-75.773001	0.000233	2.331437	0.789912	0.000093
1663	1.6537e+02	-13.7916	-75.668035	0.000264	2.635537	0.892944	0.000105
1664	1.6547e+02	-13.7563	-75.526735	0.000355	3.547838	1.202040	0.000142
1665	1.6557e+02	-13.7130	-75.433881	0.000233	2.331437	0.789912	0.000093
1666	1.6567e+02	-13.6681	-75.365250	0.000172	1.723236	0.583848	0.000069
1667	1.6577e+02	-13.6392	-75.260284	0.000264	2.635537	0.892944	0.000105
1668	1.6587e+02	-13.5927	-75.098799	0.000405	4.054673	1.373760	0.000162
1669	1.6597e+02	-13.5526	-75.001908	0.000243	2.432804	0.824256	0.000097
1670	1.6607e+02	-13.5028	-74.876757	0.000314	3.142371	1.064664	0.000126
1671	1.6616e+02	-13.4740	-74.791977	0.000213	2.128703	0.721224	0.000085
1672	1.6626e+02	-13.4387	-74.695085	0.000243	2.432804	0.824256	0.000097
1673	1.6636e+02	-13.3937	-74.557823	0.000345	3.446472	1.167696	0.000138
1674	1.6646e+02	-13.3568	-74.473043	0.000213	2.128703	0.721224	0.000085
1675	1.6656e+02	-13.3119	-74.372115	0.000253	2.534170	0.858600	0.000101
1676	1.6666e+02	-13.2670	-74.218703	0.000385	3.851939	1.305072	0.000154
1677	1.6676e+02	-13.2381	-74.125849	0.000233	2.331437	0.789912	0.000093
1678	1.6686e+02	-13.1900	-74.008772	0.000294	2.939638	0.995976	0.000118
1679	1.6696e+02	-13.1579	-73.944178	0.000162	1.621869	0.549504	0.000065
1680	1.6706e+02	-13.1098	-73.778656	0.000416	4.156039	1.408104	0.000166
1681	1.6716e+02	-13.0777	-73.669653	0.000274	2.736904	0.927288	0.000110
1682	1.6726e+02	-13.0312	-73.580836	0.000223	2.230070	0.755568	0.000089
1683	1.6736e+02	-12.9943	-73.451648	0.000324	3.243738	1.099008	0.000130
1684	1.6746e+02	-12.9526	-73.338608	0.000284	2.838271	0.961632	0.000114
1685	1.6756e+02	-12.9125	-73.261902	0.000193	1.925969	0.652536	0.000077
1686	1.6766e+02	-12.8804	-73.116565	0.000365	3.649205	1.236384	0.000146
1687	1.6776e+02	-12.8339	-73.011600	0.000264	2.635537	0.892944	0.000105
1688	1.6786e+02	-12.8034	-72.906634	0.000264	2.635537	0.892944	0.000105
1689	1.6796e+02	-12.7649	-72.801669	0.000264	2.635537	0.892944	0.000105
1690	1.6806e+02	-12.7248	-72.640183	0.000405	4.054673	1.373760	0.000162
1691	1.6816e+02	-12.6750	-72.531181	0.000274	2.736904	0.927288	0.000110
1692	1.6825e+02	-12.6333	-72.410067	0.000304	3.041004	1.030320	0.000122
1693	1.6835e+02	-12.5980	-72.305101	0.000264	2.635537	0.892944	0.000105
1694	1.6845e+02	-12.5563	-72.196098	0.000274	2.736904	0.927288	0.000110
1695	1.6855e+02	-12.5258	-72.054799	0.000355	3.547838	1.202040	0.000142
1696	1.6865e+02	-12.4825	-71.941759	0.000284	2.838271	0.961632	0.000114
1697	1.6875e+02	-12.4392	-71.820645	0.000304	3.041004	1.030320	0.000122
1698	1.6885e+02	-12.3911	-71.711642	0.000274	2.736904	0.927288	0.000110
1699	1.6895e+02	-12.3526	-71.562268	0.000375	3.750572	1.270728	0.000150
1700	1.6905e+02	-12.3269	-71.481525	0.000203	2.027336	0.686880	0.000081
1701	1.6915e+02	-12.2756	-71.368486	0.000284	2.838271	0.961632	0.000114
1702	1.6925e+02	-12.2467	-71.207000	0.000405	4.054673	1.373760	0.000162
1703	1.6935e+02	-12.1970	-71.102035	0.000264	2.635537	0.892944	0.000105
1704	1.6945e+02	-12.1681	-71.005143	0.000243	2.432804	0.824256	0.000097
1705	1.6955e+02	-12.1184	-70.879992	0.000314	3.142371	1.064664	0.000126
1706	1.6965e+02	-12.0751	-70.758878	0.000304	3.041004	1.030320	0.000122
1707	1.6975e+02	-12.0478	-70.613541	0.000365	3.649205	1.236384	0.000146
1708	1.6985e+02	-12.0029	-70.520687	0.000233	2.331437	0.789912	0.000093
1709	1.6995e+02	-11.9628	-70.391499	0.000324	3.243738	1.099008	0.000130
1710	1.7005e+02	-11.9227	-70.242125	0.000375	3.750572	1.270728	0.000150
1711	1.7015e+02	-11.8826	-70.157345	0.000213	2.128703	0.721224	0.000085
1712	1.7024e+02	-11.8505	-70.007971	0.000375	3.750572	1.270728	0.000150
1713	1.7034e+02	-11.7975	-69.903005	0.000264	2.635537	0.892944	0.000105
1714	1.7044e+02	-11.7574	-69.814188	0.000223	2.230070	0.755568	0.000089
1715	1.7054e+02	-11.7221	-69.648666	0.000416	4.156039	1.408104	0.000166
1716	1.7064e+02	-11.6772	-69.531589	0.000294	2.939638	0.995976	0.000118
1717	1.7074e+02	-11.6451	-69.410475	0.000304	3.041004	1.030320	0.000122
1718	1.7084e+02	-11.6002	-69.261101	0.000375	3.750572	1.270728	0.000150
1719	1.7094e+02	-11.5681	-69.156135	0.000264	2.635537	0.892944	0.000105
1720	1.7104e+02	-11.5216	-69.051170	0.000264	2.635537	0.892944	0.000105
1721	1.7114e+02	-11.4767	-68.917944	0.000335	3.345105	1.133352	0.000134
1722	1.7124e+02	-11.4382	-68.788756	0.000324	3.243738	1.099008	0.000130
1723	1.7134e+02	-11.4093	-68.659567	0.000324	3.243738	1.099008	0.000130
1724	1.7144e+02	-11.3692	-68.558639	0.000253	2.534170	0.858600	0.000101
1725	1.7154e+02	-11.3179	-68.397154	0.000405	4.054673	1.373760	0.000162
1726	1.7164e+02	-11.2874	-68.280077	0.000294	2.939638	0.995976	0.000118
1727	1.7174e+02	-11.2425	-68.171074	0.000274	2.736904	0.927288	0.000110
1728	1.7184e+02	-11.1975	-68.021700	0.000375	3.750572	1.270728	0.000150
1729	1.7194e+02	-11.1590	-67.888475	0.000335	3.345105	1.133352	0.000134
1730	1.7204e+02	-11.1318	-67.775435	0.000284	2.838271	0.961632	0.000114
1731	1.7213e+02	-11.0885	-67.666432	0.000274	2.736904	0.927288	0.000110
1732	1.7223e+02	-11.0564	-67.537244	0.000324	3.243738	1.099008	0.000130
1733	1.7233e+02	-11.0115	-67.363647	0.000436	4.358773	1.476792	0.000174
1734	1.7243e+02	-10.9746	-67.246570	0.000294	2.939638	0.995976	0.000118
1735	1.7253e+02	-10.9280	-67.121419	0.000314	3.142371	1.064664	0.000126
1736	1.7263e+02	-10.8863	-67.016453	0.000264	2.635537	0.892944	0.000105
1737	1.7273e+02	-10.8334	-66.895339	0.000304	3.041004	1.030320	0.000122
1738	1.7283e+02	-10.8045	-66.737891	0.000395	3.953306	1.339416	0.000158
1739	1.7293e+02	-10.7676	-66.616777	0.000304	3.041004	1.030320	0.000122
1740	1.7303e+02	-10.7323	-66.451254	0.000416	4.156039	1.408104	0.000166
1741	1.7313e+02	-10.6826	-66.338214	0.000284	2.838271	0.961632	0.000114
1742	1.7323e+02	-10.6377	-66.221138	0.000294	2.939638	0.995976	0.000118
1743	1.7333e+02	-10.6120	-66.112135	0.000274	2.736904	0.927288	0.000110
1744	1.7343e+02	-10.5623	-65.930464	0.000456	4.561507	1.545480	0.000183
1745	1.7353e+02	-10.5222	-65.813387	0.000294	2.939638	0.995976	0.000118
1746	1.7363e+02	-10.4933	-65.672087	0.000355	3.547838	1.202040	0.000142
1747	1.7373e+02	-10.4500	-65.546936	0.000314	3.142371	1.064664	0.000126
1748	1.7383e+02	-10.4147	-65.421785	0.000314	3.142371	1.064664	0.000126
1749	1.7393e+02	-10.3666	-65.288559	0.000335	3.345105	1.133352	0.000134
1750	1.7403e+02	-10.3329	-65.147259	0.000355	3.547838	1.202040	0.000142
1751	1.7413e+02	-10.2847	-65.046331	0.000253	2.534170	0.858600	0.000101
1752	1.7422e+02	-10.2414	-64.884846	0.000405	4.054673	1.373760	0.000162
1753	1.7432e+02	-10.2093	-64.743546	0.000355	3.547838	1.202040	0.000142
1754	1.7442e+02	-10.1644	-64.614357	0.000324	3.243738	1.099008	0.000130
1755	1.7452e+02	-10.1291	-64.497281	0.000294	2.939638	0.995976	0.000118
1756	1.7462e+02	-10.0954	-64.303498	0.000487	4.865607	1.648512	0.000195
1757	1.7472e+02	-10.0425	-64.206607	0.000243	2.432804	0.824256	0.000097
1758	1.7482e+02	-10.0040	-64.028973	0.000446	4.460140	1.511136	0.000179
1759	1.7492e+02	-9.9671	-63.940156	0.000223	2.230070	0.755568	0.000089
1760	1.7502e+02	-9.9302	-63.770596	0.000426	4.257406	1.442448	0.000170
1761	1.7512e+02	-9.8869	-63.677742	0.000233	2.331437	0.789912	0.000093
1762	1.7522e+02	-9.8404	-63.508182	0.000426	4.257406	1.442448	0.000170
1763	1.7532e+02	-9.8083	-63.411291	0.000243	2.432804	0.824256	0.000097
1764	1.7542e+02	-9.7618	-63.290177	0.000304	3.041004	1.030320	0.000122
1765	1.7552e+02	-9.7313	-63.120617	0.000426	4.257406	1.442448	0.000170
1766	1.7562e+02	-9.6815	-62.979318	0.000355	3.547838	1.202040	0.000142
1767	1.7572e+02	-9.6511	-62.870315	0.000274	2.736904	0.927288	0.000110
1768	1.7582e+02	-9.6110	-62.688644	0.000456	4.561507	1.545480	0.000183
1769	1.7592e+02	-9.5644	-62.555418	0.000335	3.345105	1.133352	0.000134
1770	1.7602e+02	-9.5275	-62.450453	0.000264	2.635537	0.892944	0.000105
1771	1.7612e+02	-9.4938	-62.337413	0.000284	2.838271	0.961632	0.000114
1772	1.7621e+02	-9.4570	-62.159779	0.000446	4.460140	1.511136	0.000179
1773	1.7631e+02	-9.4152	-62.054813	0.000264	2.635537	0.892944	0.000105
1774	1.7641e+02	-9.3735	-61.905439	0.000375	3.750572	1.270728	0.000150
1775	1.7651e+02	-9.3254	-61.747991	0.000395	3.953306	1.339416	0.000158
1776	1.7661e+02	-9.2885	-61.634951	0.000284	2.838271	0.961632	0.000114
1777	1.7671e+02	-9.2468	-61.525949	0.000274	2.736904	0.927288	0.000110
1778	1.7681e+02	-9.2083	-61.340240	0.000466	4.662873	1.579824	0.000187
1779	1.7691e+02	-9.1746	-61.235275	0.000264	2.635537	0.892944	0.000105
1780	1.7701e+02	-9.1233	-61.053604	0.000456	4.561507	1.545480	0.000183
1781	1.7711e+02	-9.0944	-60.936527	0.000294	2.939638	0.995976	0.000118
1782	1.7721e+02	-9.0543	-60.835598	0.000253	2.534170	0.858600	0.000101
1783	1.7731e+02	-9.0110	-60.694299	0.000355	3.547838	1.202040	0.000142
1784	1.7741e+02	-8.9805	-60.544925	0.000375	3.750572	1.270728	0.000150
1785	1.7751e+02	-8.9292	-60.403625	0.000355	3.547838	1.202040	0.000142
1786	1.7761e+02	-8.9051	-60.209842	0.000487	4.865607	1.648512	0.000195
1787	1.7771e+02	-8.8473	-60.133137	0.000193	1.925969	0.652536	0.000077
1788	1.7781e+02	-8.8169	-59.955503	0.000446	4.460140	1.511136	0.000179
1789	1.7791e+02	-8.7752	-59.810166	0.000365	3.649205	1.236384	0.000146
1790	1.7801e+02	-8.7270	-59.745572	0.000162	1.621869	0.549504	0.000065
1791	1.7810e+02	-8.6917	-59.563901	0.000456	4.561507	1.545480	0.000183
1792	1.7820e+02	-8.6500	-59.430675	0.000335	3.345105	1.133352	0.000134
1793	1.7830e+02	-8.6115	-59.313598	0.000294	2.939638	0.995976	0.000118
1794	1.7840e+02	-8.5730	-59.184410	0.000324	3.243738	1.099008	0.000130
1795	1.7850e+02	-8.5249	-59.022924	0.000405	4.054673	1.373760	0.000162
1796	1.7860e+02	-8.4848	-58.869513	0.000385	3.851939	1.305072	0.000154
1797	1.7870e+02	-8.4543	-58.708028	0.000405	4.054673	1.373760	0.000162
1798	1.7880e+02	-8.4158	-58.582877	0.000314	3.142371	1.064664	0.000126
1799	1.7890e+02	-8.3709	-58.425428	0.000395	3.953306	1.339416	0.000158
1800	1.7900e+02	-8.3436	-58.288166	0.000345	3.446472	1.167696	0.000138
1801	1.7910e+02	-8.2971	-58.175126	0.000284	2.838271	0.961632	0.000114
1802	1.7920e+02	-8.2666	-58.009603	0.000416	4.156039	1.408104	0.000166
1803	1.7930e+02	-8.2137	-57.860229	0.000375	3.750572	1.270728	0.000150
1804	1.7940e+02	-8.1800	-57.811784	0.000122	1.216402	0.412128	0.000049
1805	1.7950e+02	-8.1463	-57.638187	0.000436	4.358773	1.476792	0.000174
1806	1.7960e+02	-8.0966	-57.472664	0.000416	4.156039	1.408104	0.000166
1807	1.7970e+02	-8.0516	-57.262733	0.000527	5.271074	1.785888	0.000211
1808	1.7980e+02	-8.0131	-57.157768	0.000264	2.635537	0.892944	0.000105
1809	1.7990e+02	-7.9698	-57.036654	0.000304	3.041004	1.030320	0.000122
1810	1.8000e+02	-7.9361	-56.895354	0.000355	3.547838	1.202040	0.000142
1811	1.8009e+02	-7.8912	-56.745980	0.000375	3.750572	1.270728	0.000150
1812	1.8019e+02	-7.8527	-56.568346	0.000446	4.460140	1.511136	0.000179
1813	1.8029e+02	-7.8142	-56.495678	0.000182	1.824603	0.618192	0.000073
1814	1.8039e+02	-7.7805	-56.334192	0.000405	4.054673	1.373760	0.000162
1815	1.8049e+02	-7.7356	-56.168670	0.000416	4.156039	1.408104	0.000166
1816	1.8059e+02	-7.6939	-56.031407	0.000345	3.446472	1.167696	0.000138
1817	1.8069e+02	-7.6682	-55.914330	0.000294	2.939638	0.995976	0.000118
1818	1.8079e+02	-7.6233	-55.708436	0.000517	5.169708	1.751544	0.000207
1819	1.8089e+02	-7.5752	-55.591359	0.000294	2.939638	0.995976	0.000118
1820	1.8099e+02	-7.5447	-55.437948	0.000385	3.851939	1.305072	0.000154
1821	1.8109e+02	-7.4902	-55.296648	0.000355	3.547838	1.202040	0.000142
1822	1.8119e+02	-7.4565	-55.159386	0.000345	3.446472	1.167696	0.000138
1823	1.8129e+02	-7.4164	-55.030197	0.000324	3.243738	1.099008	0.000130
1824	1.8139e+02	-7.3714	-54.848526	0.000456	4.561507	1.545480	0.000183
1825	1.8149e+02	-7.3297	-54.719338	0.000324	3.243738	1.099008	0.000130
1826	1.8159e+02	-7.2993	-54.569964	0.000375	3.750572	1.270728	0.000150
1827	1.8169e+02	-7.2559	-54.432701	0.000345	3.446472	1.167696	0.000138
1828	1.8179e+02	-7.2094	-54.299476	0.000335	3.345105	1.133352	0.000134
1829	1.8189e+02	-7.1789	-54.129916	0.000426	4.257406	1.442448	0.000170
1830	1.8199e+02	-7.1372	-53.984579	0.000365	3.649205	1.236384	0.000146
1831	1.8209e+02	-7.1019	-53.815019	0.000426	4.257406	1.442448	0.000170
1832	1.8218e+02	-7.0570	-53.673720	0.000355	3.547838	1.202040	0.000142
1833	1.8228e+02	-7.0185	-53.524346	0.000375	3.750572	1.270728	0.000150
1834	1.8238e+02	-6.9736	-53.395157	0.000324	3.243738	1.099008	0.000130
1835	1.8248e+02	-6.9303	-53.278080	0.000294	2.939638	0.995976	0.000118
1836	1.8258e+02	-6.8854	-53.100446	0.000446	4.460140	1.511136	0.000179
1837	1.8268e+02	-6.8581	-52.918775	0.000456	4.561507	1.545480	0.000183
1838	1.8278e+02	-6.8116	-52.833995	0.000213	2.128703	0.721224	0.000085
1839	1.8288e+02	-6.7763	-52.664436	0.000426	4.257406	1.442448	0.000170
1840	1.8298e+02	-6.7394	-52.466616	0.000497	4.966974	1.682856	0.000199
1841	1.8308e+02	-6.7041	-52.377799	0.000223	2.230070	0.755568	0.000089
1842	1.8318e+02	-6.6560	-52.184017	0.000487	4.865607	1.648512	0.000195
1843	1.8328e+02	-6.6271	-52.046754	0.000345	3.446472	1.167696	0.000138
1844	1.8338e+02	-6.5838	-51.953900	0.000233	2.331437	0.789912	0.000093
1845	1.8348e+02	-6.5372	-51.735894	0.000547	5.473808	1.854576	0.000219
1846	1.8358e+02	-6.5068	-51.602669	0.000335	3.345105	1.133352	0.000134
1847	1.8368e+02	-6.4538	-51.457332	0.000365	3.649205	1.236384	0.000146
1848	1.8378e+02	-6.4250	-51.303921	0.000385	3.851939	1.305072	0.000154
1849	1.8388e+02	-6.3720	-51.158584	0.000365	3.649205	1.236384	0.000146
1850	1.8398e+02	-6.3447	-51.033433	0.000314	3.142371	1.064664	0.000126
1851	1.8407e+02	-6.3078	-50.888096	0.000365	3.649205	1.236384	0.000146
1852	1.8417e+02	-6.2629	-50.742759	0.000365	3.649205	1.236384	0.000146
1853	1.8427e+02	-6.2276	-50.577237	0.000416	4.156039	1.408104	0.000166
1854	1.8437e+02	-6.1827	-50.423825	0.000385	3.851939	1.305072	0.000154
1855	1.8447e+02	-6.1474	-50.250229	0.000436	4.358773	1.476792	0.000174
1856	1.8457e+02	-6.1121	-50.088743	0.000405	4.054673	1.373760	0.000162
1857	1.8467e+02	-6.0736	-49.927258	0.000405	4.054673	1.373760	0.000162
1858	1.8477e+02	-6.0271	-49.769809	0.000395	3.953306	1.339416	0.000158
1859	1.8487e+02	-5.9854	-49.668881	0.000253	2.534170	0.858600	0.000101
1860	1.8497e+02	-5.9517	-49.471061	0.000497	4.966974	1.682856	0.000199
1861	1.8507e+02	-5.9084	-49.301502	0.000426	4.257406	1.442448	0.000170
1862	1.8517e+02	-5.8635	-49.127905	0.000436	4.358773	1.476792	0.000174
1863	1.8527e+02	-5.8282	-48.986605	0.000355	3.547838	1.202040	0.000142
1864	1.8537e+02	-5.7801	-48.845305	0.000355	3.547838	1.202040	0.000142
1865	1.8547e+02	-5.7480	-48.659597	0.000466	4.662873	1.579824	0.000187
1866	1.8557e+02	-5.7063	-48.494074	0.000416	4.156039	1.408104	0.000166
1867	1.8567e+02	-5.6678	-48.356812	0.000345	3.446472	1.167696	0.000138
1868	1.8577e+02	-5.6180	-48.179178	0.000446	4.460140	1.511136	0.000179
1869	1.8587e+02	-5.5827	-48.025767	0.000385	3.851939	1.305072	0.000154
1870	1.8597e+02	-5.5426	-47.860244	0.000416	4.156039	1.408104	0.000166
1871	1.8606e+02	-5.5154	-47.674536	0.000466	4.662873	1.579824	0.000187
1872	1.8616e+02	-5.4624	-47.557459	0.000294	2.939638	0.995976	0.000118
1873	1.8626e+02	-5.4319	-47.404048	0.000385	3.851939	1.305072	0.000154
1874	1.8636e+02	-5.3822	-47.210265	0.000487	4.865607	1.648512	0.000195
1875	1.8646e+02	-5.3517	-47.073003	0.000345	3.446472	1.167696	0.000138
1876	1.8656e+02	-5.3036	-46.911517	0.000405	4.054673	1.373760	0.000162
1877	1.8666e+02	-5.2747	-46.701586	0.000527	5.271074	1.785888	0.000211
1878	1.8676e+02	-5.2282	-46.548175	0.000385	3.851939	1.305072	0.000154
1879	1.8686e+02	-5.1913	-46.455321	0.000233	2.331437	0.789912	0.000093
1880	1.8696e+02	-5.1464	-46.225204	0.000578	5.777908	1.957608	0.000231
1881	1.8706e+02	-5.1063	-46.079867	0.000365	3.649205	1.236384	0.000146
1882	1.8716e+02	-5.0694	-45.934530	0.000365	3.649205	1.236384	0.000146
1883	1.8726e+02	-5.0293	-45.740748	0.000487	4.865607	1.648512	0.000195
1884	1.8736e+02	-4.9827	-45.563114	0.000446	4.460140	1.511136	0.000179
1885	1.8746e+02	-4.9442	-45.417777	0.000365	3.649205	1.236384	0.000146
1886	1.8756e+02	-4.9106	-45.264366	0.000385	3.851939	1.305072	0.000154
1887	1.8766e+02	-4.8769	-45.078658	0.000466	4.662873	1.579824	0.000187
1888	1.8776e+02	-4.8336	-44.921209	0.000395	3.953306	1.339416	0.000158
1889	1.8786e+02	-4.7918	-44.739538	0.000456	4.561507	1.545480	0.000183
1890	1.8796e+02	-4.7517	-44.594201	0.000365	3.649205	1.236384	0.000146
1891	1.8806e+02	-4.7148	-44.432716	0.000405	4.054673	1.373760	0.000162
1892	1.8815e+02	-4.6667	-44.242971	0.000476	4.764240	1.614168	0.000191
1893	1.8825e+02	-4.6394	-44.105708	0.000345	3.446472	1.167696	0.000138
1894	1.8835e+02	-4.5881	-43.924037	0.000456	4.561507	1.545480	0.000183
1895	1.8845e+02	-4.5496	-43.762551	0.000405	4.054673	1.373760	0.000162
1896	1.8855e+02	-4.5143	-43.572806	0.000476	4.764240	1.614168	0.000191
1897	1.8865e+02	-4.4758	-43.423432	0.000375	3.750572	1.270728	0.000150
1898	1.8875e+02	-4.4277	-43.233687	0.000476	4.764240	1.614168	0.000191
1899	1.8885e+02	-4.3828	-43.068164	0.000416	4.156039	1.408104	0.000166
1900	1.8895e+02	-4.3523	-42.926864	0.000355	3.547838	1.202040	0.000142
1901	1.8905e+02	-4.3154	-42.733082	0.000487	4.865607	1.648512	0.000195
1902	1.8915e+02	-4.2769	-42.571596	0.000405	4.054673	1.373760	0.000162
1903	1.8925e+02	-4.2352	-42.398000	0.000436	4.358773	1.476792	0.000174
1904	1.8935e+02	-4.1983	-42.208254	0.000476	4.764240	1.614168	0.000191
1905	1.8945e+02	-4.1550	-42.030620	0.000446	4.460140	1.511136	0.000179
1906	1.8955e+02	-4.1084	-41.881246	0.000375	3.750572	1.270728	0.000150
1907	1.8965e+02	-4.0715	-41.695538	0.000466	4.662873	1.579824	0.000187
1908	1.8975e+02	-4.0362	-41.530015	0.000416	4.156039	1.408104	0.000166
1909	1.8985e+02	-3.9945	-41.352381	0.000446	4.460140	1.511136	0.000179
1910	1.8995e+02	-3.9544	-41.166673	0.000466	4.662873	1.579824	0.000187
1911	1.9004e+02	-3.9095	-41.001151	0.000416	4.156039	1.408104	0.000166
1912	1.9014e+02	-3.8694	-40.815442	0.000466	4.662873	1.579824	0.000187
1913	1.9024e+02	-3.8341	-40.686254	0.000324	3.243738	1.099008	0.000130
1914	1.9034e+02	-3.7924	-40.448063	0.000598	5.980642	2.026296	0.000239
1915	1.9044e+02	-3.7491	-40.290615	0.000395	3.953306	1.339416	0.000158
1916	1.9054e+02	-3.7106	-40.133166	0.000395	3.953306	1.339416	0.000158
1917	1.9064e+02	-3.6689	-39.971681	0.000405	4.054673	1.373760	0.000162
1918	1.9074e+02	-3.6304	-39.781936	0.000476	4.764240	1.614168	0.000191
1919	1.9084e+02	-3.5903	-39.567967	0.000537	5.372441	1.820232	0.000215
1920	1.9094e+02	-3.5438	-39.386296	0.000456	4.561507	1.545480	0.000183
1921	1.9104e+02	-3.5117	-39.216737	0.000426	4.257406	1.442448	0.000170
1922	1.9114e+02	-3.4700	-39.039103	0.000446	4.460140	1.511136	0.000179
1923	1.9124e+02	-3.4395	-38.901840	0.000345	3.446472	1.167696	0.000138
1924	1.9134e+02	-3.3865	-38.699983	0.000507	5.068341	1.717200	0.000203
1925	1.9144e+02	-3.3673	-38.510238	0.000476	4.764240	1.614168	0.000191
1926	1.9154e+02	-3.3176	-38.336641	0.000436	4.358773	1.476792	0.000174
1927	1.9164e+02	-3.2726	-38.219564	0.000294	2.939638	0.995976	0.000118
1928	1.9174e+02	-3.2309	-37.945039	0.000689	6.892943	2.335392	0.000276
1929	1.9184e+02	-3.1940	-37.811813	0.000335	3.345105	1.133352	0.000134
1930	1.9194e+02	-3.1523	-37.666476	0.000365	3.649205	1.236384	0.000146
1931	1.9203e+02	-3.1122	-37.456545	0.000527	5.271074	1.785888	0.000211
1932	1.9213e+02	-3.0737	-37.274874	0.000456	4.561507	1.545480	0.000183
1933	1.9223e+02	-3.0416	-37.097240	0.000446	4.460140	1.511136	0.000179
1934	1.9233e+02	-2.9855	-36.879235	0.000547	5.473808	1.854576	0.000219
1935	1.9243e+02	-2.9646	-36.729861	0.000375	3.750572	1.270728	0.000150
1936	1.9253e+02	-2.9165	-36.556264	0.000436	4.358773	1.476792	0.000174
1937	1.9263e+02	-2.8684	-36.358444	0.000497	4.966974	1.682856	0.000199
1938	1.9273e+02	-2.8379	-36.237330	0.000304	3.041004	1.030320	0.000122
1939	1.9283e+02	-2.7882	-36.015288	0.000558	5.575175	1.888920	0.000223
1940	1.9293e+02	-2.7609	-35.805357	0.000527	5.271074	1.785888	0.000211
1941	1.9303e+02	-2.7160	-35.660020	0.000365	3.649205	1.236384	0.000146
1942	1.9313e+02	-2.6759	-35.446052	0.000537	5.372441	1.820232	0.000215
1943	1.9323e+02	-2.6309	-35.316863	0.000324	3.243738	1.099008	0.000130
1944	1.9333e+02	-2.6037	-35.131155	0.000466	4.662873	1.579824	0.000187
1945	1.9343e+02	-2.5523	-34.981781	0.000375	3.750572	1.270728	0.000150
1946	1.9353e+02	-2.5186	-34.719367	0.000659	6.588843	2.232360	0.000264
1947	1.9363e+02	-2.4753	-34.553845	0.000416	4.156039	1.408104	0.000166
1948	1.9373e+02	-2.4336	-34.384285	0.000426	4.257406	1.442448	0.000170
1949	1.9383e+02	-2.3951	-34.226837	0.000395	3.953306	1.339416	0.000158
1950	1.9393e+02	-2.3566	-34.012869	0.000537	5.372441	1.820232	0.000215
1951	1.9403e+02	-2.3165	-33.839272	0.000436	4.358773	1.476792	0.000174
1952	1.9412e+02	-2.2764	-33.697972	0.000355	3.547838	1.202040	0.000142
1953	1.9422e+02	-2.2491	-33.512264	0.000466	4.662873	1.579824	0.000187
1954	1.9432e+02	-2.2042	-33.298296	0.000537	5.372441	1.820232	0.000215
1955	1.9442e+02	-2.1577	-33.096439	0.000507	5.068341	1.717200	0.000203
1956	1.9452e+02	-2.1176	-32.922842	0.000436	4.358773	1.476792	0.000174
1957	1.9462e+02	-2.0823	-32.753282	0.000426	4.257406	1.442448	0.000170
1958	1.9472e+02	-2.0374	-32.535277	0.000547	5.473808	1.854576	0.000219
1959	1.9482e+02	-1.9973	-32.426274	0.000274	2.736904	0.927288	0.000110
1960	1.9492e+02	-1.9668	-32.216343	0.000527	5.271074	1.785888	0.000211
1961	1.9502e+02	-1.9219	-32.010449	0.000517	5.169708	1.751544	0.000207
1962	1.9512e+02	-1.8786	-31.848964	0.000405	4.054673	1.373760	0.000162
1963	1.9522e+02	-1.8352	-31.647107	0.000507	5.068341	1.717200	0.000203
1964	1.9532e+02	-1.7967	-31.485622	0.000405	4.054673	1.373760	0.000162
1965	1.9542e+02	-1.7679	-31.271653	0.000537	5.372441	1.820232	0.000215
1966	1.9552e+02	-1.7246	-31.081908	0.000476	4.764240	1.614168	0.000191
1967	1.9562e+02	-1.6893	-30.876014	0.000517	5.169708	1.751544	0.000207
1968	1.9572e+02	-1.6331	-30.730677	0.000365	3.649205	1.236384	0.000146
1969	1.9582e+02	-1.5994	-30.524783	0.000517	5.169708	1.751544	0.000207
1970	1.9592e+02	-1.5593	-30.371372	0.000385	3.851939	1.305072	0.000154
1971	1.9601e+02	-1.5176	-30.197775	0.000436	4.358773	1.476792	0.000174
1972	1.9611e+02	-1.4791	-29.991881	0.000517	5.169708	1.751544	0.000207
1973	1.9621e+02	-1.4406	-29.785987	0.000517	5.169708	1.751544	0.000207
1974	1.9631e+02	-1.4005	-29.616428	0.000426	4.257406	1.442448	0.000170
1975	1.9641e+02	-1.3540	-29.418608	0.000497	4.966974	1.682856	0.000199
1976	1.9651e+02	-1.3251	-29.245011	0.000436	4.358773	1.476792	0.000174
1977	1.9661e+02	-1.2882	-29.051229	0.000487	4.865607	1.648512	0.000195
1978	1.9671e+02	-1.2545	-28.889743	0.000405	4.054673	1.373760	0.000162
1979	1.9681e+02	-1.2032	-28.679812	0.000527	5.271074	1.785888	0.000211
1980	1.9691e+02	-1.1550	-28.486030	0.000487	4.865607	1.648512	0.000195
1981	1.9701e+02	-1.1182	-28.312433	0.000436	4.358773	1.476792	0.000174
1982	1.9711e+02	-1.0813	-28.110576	0.000507	5.068341	1.717200	0.000203
1983	1.9721e+02	-1.0395	-27.941016	0.000426	4.257406	1.442448	0.000170
1984	1.9731e+02	-0.9978	-27.735123	0.000517	5.169708	1.751544	0.000207
1985	1.9741e+02	-0.9657	-27.561526	0.000436	4.358773	1.476792	0.000174
1986	1.9751e+02	-0.9256	-27.359669	0.000507	5.068341	1.717200	0.000203
1987	1.9761e+02	-0.8695	-27.165886	0.000487	4.865607	1.648512	0.000195
1988	1.9771e+02	-0.8406	-26.992290	0.000436	4.358773	1.476792	0.000174
1989	1.9781e+02	-0.8101	-26.802544	0.000476	4.764240	1.614168	0.000191
1990	1.9791e+02	-0.7716	-26.624910	0.000446	4.460140	1.511136	0.000179
1991	1.9800e+02	-0.7283	-26.398831	0.000568	5.676542	1.923264	0.000227
1992	1.9810e+02	-0.6914	-26.273679	0.000314	3.142371	1.064664	0.000126
1993	1.9820e+02	-0.6433	-26.051637	0.000558	5.575175	1.888920	0.000223
1994	1.9830e+02	-0.5952	-25.841706	0.000527	5.271074	1.785888	0.000211
1995	1.9840e+02	-0.5663	-25.655998	0.000466	4.662873	1.579824	0.000187
1996	1.9850e+02	-0.5134	-25.458178	0.000497	4.966974	1.682856	0.000199
1997	1.9860e+02	-0.4893	-25.292655	0.000416	4.156039	1.408104	0.000166
1998	1.9870e+02	-0.4412	-25.102910	0.000476	4.764240	1.614168	0.000191
1999	1.9880e+02	-0.3930	-24.872793	0.000578	5.777908	1.957608	0.000231
2000	1.9890e+02	-0.3674	-24.755716	0.000294	2.939638	0.995976	0.000118
2001	1.9900e+02	-0.3257	-24.553860	0.000507	5.068341	1.717200	0.000203
2002	1.9910e+02	-0.2872	-24.372188	0.000456	4.561507	1.545480	0.000183
2003	1.9920e+02	-0.2535	-24.158220	0.000537	5.372441	1.820232	0.000215
2004	1.9930e+02	-0.2086	-23.964438	0.000487	4.865607	1.648512	0.000195
2005	1.9940e+02	-0.1700	-23.802952	0.000405	4.054673	1.373760	0.000162
2006	1.9950e+02	-0.1315	-23.609170	0.000487	4.865607	1.648512	0.000195
2007	1.9960e+02	-0.0802	-23.387127	0.000558	5.575175	1.888920	0.000223
2008	1.9970e+02	-0.0449	-23.217568	0.000426	4.257406	1.442448	0.000170
2009	1.9980e+02	-0.0096	-23.035897	0.000426	4.257406	1.442448	0.000183

Center data before PMax,+/-Pr and +/-Vc Calc.

PMax (uC/cm2):	8.62e+01
Pr (uC/cm2):	1.18e+01
-Pr (uC/cm2):	-2.30e+01
PLoss (uC/cm2):	-2.87e+01
-Vc:	-2.40e+00
C (Max-Eff) (nF):	4.31e-01
K (Eff):	1.46e+03
Vert. (+/-Pr) Shift (uC/cm2):	-5.61e+00
Offset (uC/cm2):	-5.70e+00

A (Loop Area - uC/cm2·Volts):	2.05e-01



Hysteresis Version: 5.48.1 - Radiant Technologies, Inc., 1999 - 9/12/24

