»»»»»»»»»»»»»»»»»»»»»»»»»»»»»»»»»»»» Hysteresis ««««««««««««««««««««««««««««««««««««
»»»  Executed Version:	5.48.1
»»»  Vision Version:	5.48.4 (R)
»»»  Vision Compiled:	9/18/24
»»»  Driver Version:	5.47.0
»»»  Windows Version:	Windows 8 or 8.1
»»»  Processor Information:	x86 (AMD or Intel) - 32 Processors
»»»  Tester Name:	PMF21124-494 (100V)
»»»  Tester S/N:	PMF21124-494
»»»  Internal Amp Type:	100V RevK 270k
»»»  Internal Amp S/N:	iAB2-596/K     
»»»  Execution Count:	1
»»»»»»»»»»»»»»»»»»»»»»»»»»»»»»»»»»»»»»»»»»««««««««««««««««««««««««««««««««««««««««««

Stored:	6/30/2025 - 11:7:54
Configured:	06/30/25 10:19:58 AM
Executed:	06/30/25 11:07:29 AM

»»»»»»»»»»»»»»»»»»»»»»»»»»»»»»»»»»» Sample Info ««««««««««««««««««««««««««««««««««««
Sample Name:	
Lot Name:	
Wafer Name:	
Die Row/Column:	0/0
Capacitor Number:	0
Sample Area (cm2):	1.00e-04
Sample Thickness (microns):	1.50e-01

Amplifier:	Internal

»»»»»»»»»»»»»»»»»»»»»»»»»»»»»»»»»»» Tester Info «««««««««««««««««««««««««««««««««««
Tester Name:	PMF21124-494 (100V)
Tester Serial Number:	PMF21124-494
Return Signal Amp. Level:	1.79 [Index: 2]

»»»»»»»»»»»»»»»»»»»»»»»»»»»»»»»» Hysteresis Info ««««««««««««««««««««««««««««««««««
Task Name:	Hyst-1804
Volts:	10.00
Field:	666.67 (kV/cm)
DCBias:	0.00
DCField:	0.00 (kV/cm)
Hysteresis Period (ms):	1.00e+00
Preset:	Enabled
Preset Delay (ms):	1.00e+03
Profile:	Standard Monopolar

»»»»»»»»»»»»»»»»»»»»»»»»»»»»»»»»»»»»»» Data «««««««««««««««««««««««««««««««««««««««
Points:	2001

Valid Data

Point	Time (ms)	Drive Voltage	Measured Polarization (uC/cm2)	Capacitance (uF)	Normalized Capacitance (uF/cm2)	Dielectric Constant	Instantaneous Current (mA)
   1	0.0000e+00	-0.0026	-18.335075	0.000740	7.396478	1.252997	0.014796
   2	5.0000e-04	0.0056	-18.261096	0.000740	7.396478	1.252997	0.014796
   3	1.0000e-03	0.0151	-18.216623	0.000445	4.446438	0.753247	0.008895
   4	1.5000e-03	0.0263	-18.181558	0.000351	3.505845	0.593906	0.007013
   5	2.0000e-03	0.0364	-18.128104	0.000534	5.344276	0.905345	0.010691
   6	2.5000e-03	0.0485	-18.095605	0.000325	3.249320	0.550450	0.006500
   7	3.0000e-03	0.0552	-18.036593	0.000590	5.900081	0.999501	0.011802
   8	3.5000e-03	0.0646	-17.979291	0.000573	5.729064	0.970530	0.011460
   9	4.0000e-03	0.0749	-17.972021	0.000073	0.726822	0.123127	0.001454
  10	4.5000e-03	0.0854	-17.910016	0.000620	6.199360	1.050200	0.012401
  11	5.0000e-03	0.0961	-17.868536	0.000415	4.147158	0.702548	0.008296
  12	5.5000e-03	0.1080	-17.837319	0.000312	3.121057	0.528721	0.006243
  13	6.0000e-03	0.1196	-17.771037	0.000663	6.626902	1.122628	0.013256
  14	6.5000e-03	0.1266	-17.710315	0.000607	6.071098	1.028472	0.012145
  15	7.0000e-03	0.1346	-17.678243	0.000321	3.206566	0.543207	0.006414
  16	7.5000e-03	0.1471	-17.651302	0.000269	2.693515	0.456294	0.005388
  17	8.0000e-03	0.1590	-17.591862	0.000594	5.942835	1.006744	0.011888
  18	8.5000e-03	0.1678	-17.561501	0.000304	3.035549	0.514236	0.006072
  19	9.0000e-03	0.1770	-17.506765	0.000547	5.472539	0.927073	0.010947
  20	9.5000e-03	0.1907	-17.462720	0.000440	4.403684	0.746004	0.008809
  21	1.0000e-02	0.1966	-17.436207	0.000265	2.650761	0.449051	0.005303
  22	1.0500e-02	0.2042	-17.378477	0.000577	5.771818	0.977772	0.011546
  23	1.1000e-02	0.2164	-17.340419	0.000381	3.805125	0.644606	0.007612
  24	1.1500e-02	0.2258	-17.289104	0.000513	5.130505	0.869131	0.010263
  25	1.2000e-02	0.2349	-17.235223	0.000539	5.387030	0.912588	0.010776
  26	1.2500e-02	0.2452	-17.198019	0.000372	3.719616	0.630120	0.007441
  27	1.3000e-02	0.2552	-17.150125	0.000479	4.788471	0.811189	0.009579
  28	1.3500e-02	0.2685	-17.103942	0.000462	4.617455	0.782218	0.009237
  29	1.4000e-02	0.2753	-17.056048	0.000479	4.788471	0.811189	0.009579
  30	1.4500e-02	0.2859	-17.012002	0.000440	4.403684	0.746004	0.008809
  31	1.5000e-02	0.2944	-16.969668	0.000423	4.232667	0.717033	0.008467
  32	1.5500e-02	0.3053	-16.935030	0.000346	3.463091	0.586663	0.006928
  33	1.6000e-02	0.3156	-16.886281	0.000487	4.873980	0.825675	0.009750
  34	1.6500e-02	0.3250	-16.846512	0.000398	3.976141	0.673577	0.007954
  35	1.7000e-02	0.3336	-16.809308	0.000372	3.719616	0.630120	0.007441
  36	1.7500e-02	0.3459	-16.751579	0.000577	5.771818	0.977772	0.011546
  37	1.8000e-02	0.3583	-16.724638	0.000269	2.693515	0.456294	0.005388
  38	1.8500e-02	0.3676	-16.674606	0.000500	5.002243	0.847403	0.010006
  39	1.9000e-02	0.3761	-16.628850	0.000457	4.574700	0.774975	0.009151
  40	1.9500e-02	0.3840	-16.571976	0.000569	5.686310	0.963287	0.011375
  41	2.0000e-02	0.3989	-16.530069	0.000419	4.189913	0.709790	0.008381
  42	2.0500e-02	0.4089	-16.480037	0.000500	5.002243	0.847403	0.010006
  43	2.1000e-02	0.4181	-16.450531	0.000295	2.950040	0.499750	0.005901
  44	2.1500e-02	0.4263	-16.393656	0.000569	5.686310	0.963287	0.011375
  45	2.2000e-02	0.4371	-16.360302	0.000333	3.334828	0.564935	0.006671
  46	2.2500e-02	0.4456	-16.320105	0.000402	4.018896	0.680819	0.008039
  47	2.3000e-02	0.4556	-16.254678	0.000654	6.541394	1.108142	0.013085
  48	2.3500e-02	0.4645	-16.227738	0.000269	2.693515	0.456294	0.005388
  49	2.4000e-02	0.4785	-16.198232	0.000295	2.950040	0.499750	0.005901
  50	2.4500e-02	0.4892	-16.127246	0.000710	7.097199	1.202298	0.014197
  51	2.5000e-02	0.4953	-16.083200	0.000440	4.403684	0.746004	0.008809
  52	2.5500e-02	0.5073	-16.028892	0.000543	5.429785	0.919830	0.010862
  53	2.6000e-02	0.5154	-16.001952	0.000269	2.693515	0.456294	0.005388
  54	2.6500e-02	0.5262	-15.971163	0.000308	3.078303	0.521479	0.006158
  55	2.7000e-02	0.5401	-15.915999	0.000552	5.515293	0.934316	0.011033
  56	2.7500e-02	0.5470	-15.895901	0.000201	2.009448	0.340410	0.004020
  57	2.8000e-02	0.5560	-15.831329	0.000646	6.455886	1.093657	0.012914
  58	2.8500e-02	0.5675	-15.810375	0.000209	2.094956	0.354895	0.004191
  59	2.9000e-02	0.5775	-15.738962	0.000714	7.139953	1.209541	0.014283
  60	2.9500e-02	0.5878	-15.713732	0.000252	2.522498	0.427323	0.005046
  61	3.0000e-02	0.5960	-15.670970	0.000428	4.275421	0.724276	0.008553
  62	3.0500e-02	0.6075	-15.612813	0.000581	5.814573	0.985015	0.011631
  63	3.1000e-02	0.6160	-15.582879	0.000299	2.992795	0.506993	0.005987
  64	3.1500e-02	0.6253	-15.528570	0.000543	5.429785	0.919830	0.010862
  65	3.2000e-02	0.6373	-15.496499	0.000321	3.206566	0.543207	0.006414
  66	3.2500e-02	0.6481	-15.440052	0.000564	5.643556	0.956044	0.011289
  67	3.3000e-02	0.6574	-15.413967	0.000261	2.608007	0.441808	0.005217
  68	3.3500e-02	0.6660	-15.371204	0.000428	4.275421	0.724276	0.008553
  69	3.4000e-02	0.6775	-15.321600	0.000496	4.959488	0.840160	0.009921
  70	3.4500e-02	0.6894	-15.263015	0.000586	5.857327	0.992258	0.011717
  71	3.5000e-02	0.6966	-15.196733	0.000663	6.626902	1.122628	0.013256
  72	3.5500e-02	0.7058	-15.182622	0.000141	1.410889	0.239011	0.002822
  73	3.6000e-02	0.7175	-15.149694	0.000329	3.292074	0.557692	0.006585
  74	3.6500e-02	0.7262	-15.109925	0.000398	3.976141	0.673577	0.007954
  75	3.7000e-02	0.7388	-15.053906	0.000560	5.600801	0.948801	0.011204
  76	3.7500e-02	0.7473	-15.012854	0.000410	4.104404	0.695305	0.008210
  77	3.8000e-02	0.7568	-14.973085	0.000398	3.976141	0.673577	0.007954
  78	3.8500e-02	0.7685	-14.942296	0.000308	3.078303	0.521479	0.006158
  79	3.9000e-02	0.7785	-14.886705	0.000556	5.558047	0.941559	0.011118
  80	3.9500e-02	0.7876	-14.845225	0.000415	4.147158	0.702548	0.008296
  81	4.0000e-02	0.7980	-14.795193	0.000500	5.002243	0.847403	0.010006
  82	4.0500e-02	0.8084	-14.758417	0.000368	3.676862	0.622877	0.007355
  83	4.1000e-02	0.8183	-14.697695	0.000607	6.071098	1.028472	0.012145
  84	4.1500e-02	0.8279	-14.667761	0.000299	2.992795	0.506993	0.005987
  85	4.2000e-02	0.8370	-14.620294	0.000475	4.745717	0.803946	0.009493
  86	4.2500e-02	0.8459	-14.589505	0.000308	3.078303	0.521479	0.006158
  87	4.3000e-02	0.8543	-14.539046	0.000504	5.044997	0.854646	0.010092
  88	4.3500e-02	0.8656	-14.497138	0.000419	4.189913	0.709790	0.008381
  89	4.4000e-02	0.8757	-14.464639	0.000325	3.249320	0.550450	0.006500
  90	4.4500e-02	0.8839	-14.399640	0.000650	6.498640	1.100899	0.013000
  91	4.5000e-02	0.8993	-14.396219	0.000034	0.342034	0.057942	0.000684
  92	4.5500e-02	0.9092	-14.325661	0.000705	7.054445	1.195055	0.014112
  93	4.6000e-02	0.9122	-14.291450	0.000342	3.420337	0.579421	0.006842
  94	4.6500e-02	0.9265	-14.252109	0.000393	3.933387	0.666334	0.007868
  95	4.7000e-02	0.9383	-14.198656	0.000534	5.344276	0.905345	0.010691
  96	4.7500e-02	0.9499	-14.185399	0.000133	1.325380	0.224526	0.002651
  97	4.8000e-02	0.9560	-14.129381	0.000560	5.600801	0.948801	0.011204
  98	4.8500e-02	0.9666	-14.081486	0.000479	4.788471	0.811189	0.009579
  99	4.9000e-02	0.9743	-14.019053	0.000624	6.242115	1.057443	0.012487
 100	4.9500e-02	0.9862	-13.993823	0.000252	2.522498	0.427323	0.005046
 101	5.0000e-02	0.9982	-13.949778	0.000440	4.403684	0.746004	0.008809
 102	5.0500e-02	1.0081	-13.915996	0.000338	3.377583	0.572178	0.006756
 103	5.1000e-02	1.0166	-13.892476	0.000235	2.351482	0.398352	0.004704
 104	5.1500e-02	1.0275	-13.819780	0.000727	7.268216	1.231269	0.014539
 105	5.2000e-02	1.0359	-13.783859	0.000359	3.591354	0.608392	0.007184
 106	5.2500e-02	1.0475	-13.742380	0.000415	4.147158	0.702548	0.008296
 107	5.3000e-02	1.0538	-13.703893	0.000385	3.847879	0.651848	0.007697
 108	5.3500e-02	1.0671	-13.665835	0.000381	3.805125	0.644606	0.007612
 109	5.4000e-02	1.0770	-13.609816	0.000560	5.600801	0.948801	0.011204
 110	5.4500e-02	1.0857	-13.568764	0.000410	4.104404	0.695305	0.008210
 111	5.5000e-02	1.0969	-13.531560	0.000372	3.719616	0.630120	0.007441
 112	5.5500e-02	1.1066	-13.484949	0.000466	4.660209	0.789461	0.009322
 113	5.6000e-02	1.1201	-13.449029	0.000359	3.591354	0.608392	0.007184
 114	5.6500e-02	1.1297	-13.398141	0.000509	5.087751	0.861888	0.010177
 115	5.7000e-02	1.1369	-13.380181	0.000180	1.795677	0.304196	0.003592
 116	5.7500e-02	1.1470	-13.325873	0.000543	5.429785	0.919830	0.010862
 117	5.8000e-02	1.1566	-13.265150	0.000607	6.071098	1.028472	0.012145
 118	5.8500e-02	1.1671	-13.245907	0.000192	1.923939	0.325924	0.003849
 119	5.9000e-02	1.1779	-13.198868	0.000470	4.702963	0.796704	0.009408
 120	5.9500e-02	1.1850	-13.149263	0.000496	4.959488	0.840160	0.009921
 121	6.0000e-02	1.1947	-13.121040	0.000282	2.821778	0.478022	0.005645
 122	6.0500e-02	1.2082	-13.071436	0.000496	4.959488	0.840160	0.009921
 123	6.1000e-02	1.2169	-13.032949	0.000385	3.847879	0.651848	0.007697
 124	6.1500e-02	1.2259	-12.971371	0.000616	6.156606	1.042957	0.012316
 125	6.2000e-02	1.2372	-12.942293	0.000291	2.907286	0.492508	0.005816
 126	6.2500e-02	1.2520	-12.911504	0.000308	3.078303	0.521479	0.006158
 127	6.3000e-02	1.2561	-12.854630	0.000569	5.686310	0.963287	0.011375
 128	6.3500e-02	1.2672	-12.829400	0.000252	2.522498	0.427323	0.005046
 129	6.4000e-02	1.2765	-12.792624	0.000368	3.676862	0.622877	0.007355
 130	6.4500e-02	1.2860	-12.750717	0.000419	4.189913	0.709790	0.008381
 131	6.5000e-02	1.2973	-12.717789	0.000329	3.292074	0.557692	0.006585
 132	6.5500e-02	1.3039	-12.661343	0.000564	5.643556	0.956044	0.011289
 133	6.6000e-02	1.3181	-12.618580	0.000428	4.275421	0.724276	0.008553
 134	6.6500e-02	1.3248	-12.559568	0.000590	5.900081	0.999501	0.011802
 135	6.7000e-02	1.3374	-12.553581	0.000060	0.598559	0.101399	0.001197
 136	6.7500e-02	1.3459	-12.490293	0.000633	6.327623	1.071928	0.012658
 137	6.8000e-02	1.3557	-12.453945	0.000363	3.634108	0.615635	0.007270
 138	6.8500e-02	1.3682	-12.412893	0.000410	4.104404	0.695305	0.008210
 139	6.9000e-02	1.3754	-12.380821	0.000321	3.206566	0.543207	0.006414
 140	6.9500e-02	1.3834	-12.338058	0.000428	4.275421	0.724276	0.008553
 141	7.0000e-02	1.3955	-12.300000	0.000381	3.805125	0.644606	0.007612
 142	7.0500e-02	1.4033	-12.232862	0.000671	6.712411	1.137113	0.013427
 143	7.1000e-02	1.4166	-12.202929	0.000299	2.992795	0.506993	0.005987
 144	7.1500e-02	1.4291	-12.168719	0.000342	3.420337	0.579421	0.006842
 145	7.2000e-02	1.4352	-12.113983	0.000547	5.472539	0.927073	0.010947
 146	7.2500e-02	1.4479	-12.068654	0.000453	4.531946	0.767732	0.009066
 147	7.3000e-02	1.4581	-12.044707	0.000239	2.394236	0.405595	0.004789
 148	7.3500e-02	1.4655	-11.989116	0.000556	5.558047	0.941559	0.011118
 149	7.4000e-02	1.4752	-11.947636	0.000415	4.147158	0.702548	0.008296
 150	7.4500e-02	1.4886	-11.921551	0.000261	2.608007	0.441808	0.005217
 151	7.5000e-02	1.4961	-11.873230	0.000483	4.831226	0.818432	0.009664
 152	7.5500e-02	1.5063	-11.841158	0.000321	3.206566	0.543207	0.006414
 153	7.6000e-02	1.5170	-11.793264	0.000479	4.788471	0.811189	0.009579
 154	7.6500e-02	1.5279	-11.753494	0.000398	3.976141	0.673577	0.007954
 155	7.7000e-02	1.5381	-11.724416	0.000291	2.907286	0.492508	0.005816
 156	7.7500e-02	1.5491	-11.672246	0.000522	5.216014	0.883617	0.010434
 157	7.8000e-02	1.5568	-11.632477	0.000398	3.976141	0.673577	0.007954
 158	7.8500e-02	1.5656	-11.596128	0.000363	3.634108	0.615635	0.007270
 159	7.9000e-02	1.5776	-11.545241	0.000509	5.087751	0.861888	0.010177
 160	7.9500e-02	1.5862	-11.505899	0.000393	3.933387	0.666334	0.007868
 161	8.0000e-02	1.5953	-11.465275	0.000406	4.061650	0.688062	0.008125
 162	8.0500e-02	1.6062	-11.436197	0.000291	2.907286	0.492508	0.005816
 163	8.1000e-02	1.6161	-11.392579	0.000436	4.360929	0.738761	0.008724
 164	8.1500e-02	1.6254	-11.346395	0.000462	4.617455	0.782218	0.009237
 165	8.2000e-02	1.6374	-11.306626	0.000398	3.976141	0.673577	0.007954
 166	8.2500e-02	1.6452	-11.270278	0.000363	3.634108	0.615635	0.007270
 167	8.3000e-02	1.6583	-11.249324	0.000209	2.094956	0.354895	0.004191
 168	8.3500e-02	1.6701	-11.179621	0.000697	6.968936	1.180570	0.013941
 169	8.4000e-02	1.6768	-11.130017	0.000496	4.959488	0.840160	0.009921
 170	8.4500e-02	1.6840	-11.112484	0.000175	1.752923	0.296953	0.003507
 171	8.5000e-02	1.6982	-11.063307	0.000492	4.916734	0.832917	0.009835
 172	8.5500e-02	1.7084	-11.014558	0.000487	4.873980	0.825675	0.009750
 173	8.6000e-02	1.7165	-10.991894	0.000227	2.265973	0.383866	0.004533
 174	8.6500e-02	1.7292	-10.947421	0.000445	4.446438	0.753247	0.008895
 175	8.7000e-02	1.7320	-10.897389	0.000500	5.002243	0.847403	0.010006
 176	8.7500e-02	1.7460	-10.870021	0.000274	2.736269	0.463537	0.005474
 177	8.8000e-02	1.7572	-10.840515	0.000295	2.950040	0.499750	0.005901
 178	8.8500e-02	1.7665	-10.818706	0.000218	2.180465	0.369381	0.004362
 179	8.9000e-02	1.7786	-10.751568	0.000671	6.712411	1.137113	0.013427
 180	8.9500e-02	1.7866	-10.715220	0.000363	3.634108	0.615635	0.007270
 181	9.0000e-02	1.7972	-10.660057	0.000552	5.515293	0.934316	0.011033
 182	9.0500e-02	1.8063	-10.628840	0.000312	3.121057	0.528721	0.006243
 183	9.1000e-02	1.8167	-10.582229	0.000466	4.660209	0.789461	0.009322
 184	9.1500e-02	1.8279	-10.530059	0.000522	5.216014	0.883617	0.010434
 185	9.2000e-02	1.8401	-10.513809	0.000162	1.624660	0.275225	0.003250
 186	9.2500e-02	1.8471	-10.463349	0.000504	5.044997	0.854646	0.010092
 187	9.3000e-02	1.8536	-10.423580	0.000398	3.976141	0.673577	0.007954
 188	9.3500e-02	1.8675	-10.384238	0.000393	3.933387	0.666334	0.007868
 189	9.4000e-02	1.8768	-10.359008	0.000252	2.522498	0.427323	0.005046
 190	9.4500e-02	1.8860	-10.308121	0.000509	5.087751	0.861888	0.010177
 191	9.5000e-02	1.8964	-10.279898	0.000282	2.821778	0.478022	0.005645
 192	9.5500e-02	1.9062	-10.269635	0.000103	1.026101	0.173826	0.002053
 193	9.6000e-02	1.9187	-10.184965	0.000847	8.465334	1.434066	0.016934
 194	9.6500e-02	1.9295	-10.152893	0.000321	3.206566	0.543207	0.006414
 195	9.7000e-02	1.9370	-10.122532	0.000304	3.035549	0.514236	0.006072
 196	9.7500e-02	1.9473	-10.072072	0.000504	5.044997	0.854646	0.010092
 197	9.8000e-02	1.9572	-10.048125	0.000239	2.394236	0.405595	0.004789
 198	9.8500e-02	1.9678	-9.977139	0.000710	7.097199	1.202298	0.014197
 199	9.9000e-02	1.9781	-9.952764	0.000244	2.436990	0.412837	0.004875
 200	9.9500e-02	1.9879	-9.921975	0.000308	3.078303	0.521479	0.006158
 201	1.0000e-01	1.9974	-9.868095	0.000539	5.387030	0.912588	0.010776
 202	1.0050e-01	2.0053	-9.806944	0.000611	6.113852	1.035715	0.012230
 203	1.0100e-01	2.0172	-9.776583	0.000304	3.035549	0.514236	0.006072
 204	1.0150e-01	2.0271	-9.759478	0.000171	1.710168	0.289710	0.003421
 205	1.0200e-01	2.0343	-9.729116	0.000304	3.035549	0.514236	0.006072
 206	1.0250e-01	2.0470	-9.670959	0.000581	5.814573	0.985015	0.011631
 207	1.0300e-01	2.0587	-9.632045	0.000389	3.890633	0.659091	0.007783
 208	1.0350e-01	2.0639	-9.610664	0.000214	2.137710	0.362138	0.004276
 209	1.0400e-01	2.0761	-9.574316	0.000363	3.634108	0.615635	0.007270
 210	1.0450e-01	2.0889	-9.508889	0.000654	6.541394	1.108142	0.013085
 211	1.0500e-01	2.0985	-9.472969	0.000359	3.591354	0.608392	0.007184
 212	1.0550e-01	2.1057	-9.443463	0.000295	2.950040	0.499750	0.005901
 213	1.0600e-01	2.1176	-9.404121	0.000393	3.933387	0.666334	0.007868
 214	1.0650e-01	2.1289	-9.379747	0.000244	2.436990	0.412837	0.004875
 215	1.0700e-01	2.1362	-9.318169	0.000616	6.156606	1.042957	0.012316
 216	1.0750e-01	2.1468	-9.271130	0.000470	4.702963	0.796704	0.009408
 217	1.0800e-01	2.1542	-9.246328	0.000248	2.479744	0.420080	0.004960
 218	1.0850e-01	2.1676	-9.218959	0.000274	2.736269	0.463537	0.005474
 219	1.0900e-01	2.1774	-9.161658	0.000573	5.729064	0.970530	0.011460
 220	1.0950e-01	2.1851	-9.125310	0.000363	3.634108	0.615635	0.007270
 221	1.1000e-01	2.1977	-9.112481	0.000128	1.282626	0.217283	0.002566
 222	1.1050e-01	2.2031	-9.045344	0.000671	6.712411	1.137113	0.013427
 223	1.1100e-01	2.2192	-9.014982	0.000304	3.035549	0.514236	0.006072
 224	1.1150e-01	2.2292	-8.958108	0.000569	5.686310	0.963287	0.011375
 225	1.1200e-01	2.2374	-8.934589	0.000235	2.351482	0.398352	0.004704
 226	1.1250e-01	2.2458	-8.883701	0.000509	5.087751	0.861888	0.010177
 227	1.1300e-01	2.2569	-8.879425	0.000043	0.427542	0.072428	0.000855
 228	1.1350e-01	2.2656	-8.823834	0.000556	5.558047	0.941559	0.011118
 229	1.1400e-01	2.2780	-8.775512	0.000483	4.831226	0.818432	0.009664
 230	1.1450e-01	2.2864	-8.751993	0.000235	2.351482	0.398352	0.004704
 231	1.1500e-01	2.2952	-8.686566	0.000654	6.541394	1.108142	0.013085
 232	1.1550e-01	2.3087	-8.642093	0.000445	4.446438	0.753247	0.008895
 233	1.1600e-01	2.3169	-8.618146	0.000239	2.394236	0.405595	0.004789
 234	1.1650e-01	2.3270	-8.563410	0.000547	5.472539	0.927073	0.010947
 235	1.1700e-01	2.3373	-8.548871	0.000145	1.453643	0.246254	0.002908
 236	1.1750e-01	2.3473	-8.494135	0.000547	5.472539	0.927073	0.010947
 237	1.1800e-01	2.3595	-8.457786	0.000363	3.634108	0.615635	0.007270
 238	1.1850e-01	2.3654	-8.416307	0.000415	4.147158	0.702548	0.008296
 239	1.1900e-01	2.3761	-8.380814	0.000355	3.548599	0.601149	0.007099
 240	1.1950e-01	2.3862	-8.345749	0.000351	3.505845	0.593906	0.007013
 241	1.2000e-01	2.3969	-8.329499	0.000162	1.624660	0.275225	0.003250
 242	1.2050e-01	2.4067	-8.273480	0.000560	5.600801	0.948801	0.011204
 243	1.2100e-01	2.4211	-8.226869	0.000466	4.660209	0.789461	0.009322
 244	1.2150e-01	2.4277	-8.181113	0.000457	4.574700	0.774975	0.009151
 245	1.2200e-01	2.4374	-8.170422	0.000107	1.068855	0.181069	0.002138
 246	1.2250e-01	2.4477	-8.137923	0.000325	3.249320	0.550450	0.006500
 247	1.2300e-01	2.4585	-8.082332	0.000556	5.558047	0.941559	0.011118
 248	1.2350e-01	2.4673	-8.061805	0.000205	2.052202	0.347652	0.004105
 249	1.2400e-01	2.4789	-8.012201	0.000496	4.959488	0.840160	0.009921
 250	1.2450e-01	2.4869	-7.958320	0.000539	5.387030	0.912588	0.010776
 251	1.2500e-01	2.4979	-7.914275	0.000440	4.403684	0.746004	0.008809
 252	1.2550e-01	2.5064	-7.895459	0.000188	1.881185	0.318681	0.003763
 253	1.2600e-01	2.5167	-7.848848	0.000466	4.660209	0.789461	0.009322
 254	1.2650e-01	2.5295	-7.815921	0.000329	3.292074	0.557692	0.006585
 255	1.2700e-01	2.5370	-7.788553	0.000274	2.736269	0.463537	0.005474
 256	1.2750e-01	2.5479	-7.731251	0.000573	5.729064	0.970530	0.011460
 257	1.2800e-01	2.5580	-7.695758	0.000355	3.548599	0.601149	0.007099
 258	1.2850e-01	2.5665	-7.666680	0.000291	2.907286	0.492508	0.005816
 259	1.2900e-01	2.5769	-7.635463	0.000312	3.121057	0.528721	0.006243
 260	1.2950e-01	2.5868	-7.585003	0.000504	5.044997	0.854646	0.010092
 261	1.3000e-01	2.5941	-7.537537	0.000475	4.745717	0.803946	0.009493
 262	1.3050e-01	2.6068	-7.507176	0.000304	3.035549	0.514236	0.006072
 263	1.3100e-01	2.6178	-7.455860	0.000513	5.130505	0.869131	0.010263
 264	1.3150e-01	2.6263	-7.443887	0.000120	1.197118	0.202797	0.002395
 265	1.3200e-01	2.6395	-7.399414	0.000445	4.446438	0.753247	0.008895
 266	1.3250e-01	2.6465	-7.345961	0.000534	5.344276	0.905345	0.010691
 267	1.3300e-01	2.6617	-7.307902	0.000381	3.805125	0.644606	0.007612
 268	1.3350e-01	2.6646	-7.280106	0.000278	2.779024	0.470779	0.005559
 269	1.3400e-01	2.6762	-7.260863	0.000192	1.923939	0.325924	0.003849
 270	1.3450e-01	2.6884	-7.209976	0.000509	5.087751	0.861888	0.010177
 271	1.3500e-01	2.6978	-7.186029	0.000239	2.394236	0.405595	0.004789
 272	1.3550e-01	2.7076	-7.144977	0.000410	4.104404	0.695305	0.008210
 273	1.3600e-01	2.7190	-7.091524	0.000534	5.344276	0.905345	0.010691
 274	1.3650e-01	2.7309	-7.061590	0.000299	2.992795	0.506993	0.005987
 275	1.3700e-01	2.7377	-7.028235	0.000333	3.334828	0.564935	0.006671
 276	1.3750e-01	2.7473	-6.997019	0.000312	3.121057	0.528721	0.006243
 277	1.3800e-01	2.7573	-6.935868	0.000611	6.113852	1.035715	0.012230
 278	1.3850e-01	2.7686	-6.900803	0.000351	3.505845	0.593906	0.007013
 279	1.3900e-01	2.7774	-6.877711	0.000231	2.308727	0.391109	0.004618
 280	1.3950e-01	2.7887	-6.840080	0.000376	3.762370	0.637363	0.007526
 281	1.4000e-01	2.7966	-6.802449	0.000376	3.762370	0.637363	0.007526
 282	1.4050e-01	2.8064	-6.772088	0.000304	3.035549	0.514236	0.006072
 283	1.4100e-01	2.8191	-6.729753	0.000423	4.232667	0.717033	0.008467
 284	1.4150e-01	2.8267	-6.686990	0.000428	4.275421	0.724276	0.008553
 285	1.4200e-01	2.8371	-6.636530	0.000504	5.044997	0.854646	0.010092
 286	1.4250e-01	2.8465	-6.615149	0.000214	2.137710	0.362138	0.004276
 287	1.4300e-01	2.8574	-6.586498	0.000286	2.864532	0.485265	0.005730
 288	1.4350e-01	2.8676	-6.527914	0.000586	5.857327	0.992258	0.011717
 289	1.4400e-01	2.8772	-6.497980	0.000299	2.992795	0.506993	0.005987
 290	1.4450e-01	2.8876	-6.472750	0.000252	2.522498	0.427323	0.005046
 291	1.4500e-01	2.8976	-6.428277	0.000445	4.446438	0.753247	0.008895
 292	1.4550e-01	2.9102	-6.398771	0.000295	2.950040	0.499750	0.005901
 293	1.4600e-01	2.9166	-6.360712	0.000381	3.805125	0.644606	0.007612
 294	1.4650e-01	2.9294	-6.300417	0.000603	6.028344	1.021229	0.012059
 295	1.4700e-01	2.9379	-6.274332	0.000261	2.608007	0.441808	0.005217
 296	1.4750e-01	2.9449	-6.232852	0.000415	4.147158	0.702548	0.008296
 297	1.4800e-01	2.9581	-6.202491	0.000304	3.035549	0.514236	0.006072
 298	1.4850e-01	2.9675	-6.159728	0.000428	4.275421	0.724276	0.008553
 299	1.4900e-01	2.9785	-6.119531	0.000402	4.018896	0.680819	0.008039
 300	1.4950e-01	2.9879	-6.087032	0.000325	3.249320	0.550450	0.006500
 301	1.5000e-01	2.9983	-6.058381	0.000286	2.864532	0.485265	0.005730
 302	1.5050e-01	3.0069	-6.010059	0.000483	4.831226	0.818432	0.009664
 303	1.5100e-01	3.0170	-5.983974	0.000261	2.608007	0.441808	0.005217
 304	1.5150e-01	3.0276	-5.942495	0.000415	4.147158	0.702548	0.008296
 305	1.5200e-01	3.0383	-5.909567	0.000329	3.292074	0.557692	0.006585
 306	1.5250e-01	3.0450	-5.884765	0.000248	2.479744	0.420080	0.004960
 307	1.5300e-01	3.0560	-5.834733	0.000500	5.002243	0.847403	0.010006
 308	1.5350e-01	3.0677	-5.791971	0.000428	4.275421	0.724276	0.008553
 309	1.5400e-01	3.0777	-5.752201	0.000398	3.976141	0.673577	0.007954
 310	1.5450e-01	3.0899	-5.730392	0.000218	2.180465	0.369381	0.004362
 311	1.5500e-01	3.0972	-5.707301	0.000231	2.308727	0.391109	0.004618
 312	1.5550e-01	3.1049	-5.630756	0.000765	7.653004	1.296454	0.015309
 313	1.5600e-01	3.1165	-5.615361	0.000154	1.539152	0.260739	0.003079
 314	1.5650e-01	3.1274	-5.580296	0.000351	3.505845	0.593906	0.007013
 315	1.5700e-01	3.1366	-5.531974	0.000483	4.831226	0.818432	0.009664
 316	1.5750e-01	3.1477	-5.497337	0.000346	3.463091	0.586663	0.006928
 317	1.5800e-01	3.1567	-5.464410	0.000329	3.292074	0.557692	0.006585
 318	1.5850e-01	3.1662	-5.437897	0.000265	2.650761	0.449051	0.005303
 319	1.5900e-01	3.1770	-5.383588	0.000543	5.429785	0.919830	0.010862
 320	1.5950e-01	3.1894	-5.362635	0.000209	2.094956	0.354895	0.004191
 321	1.6000e-01	3.1973	-5.323293	0.000393	3.933387	0.666334	0.007868
 322	1.6050e-01	3.2088	-5.273689	0.000496	4.959488	0.840160	0.009921
 323	1.6100e-01	3.2176	-5.234347	0.000393	3.933387	0.666334	0.007868
 324	1.6150e-01	3.2288	-5.199710	0.000346	3.463091	0.586663	0.006928
 325	1.6200e-01	3.2361	-5.151815	0.000479	4.788471	0.811189	0.009579
 326	1.6250e-01	3.2469	-5.145401	0.000064	0.641313	0.108641	0.001283
 327	1.6300e-01	3.2563	-5.122737	0.000227	2.265973	0.383866	0.004533
 328	1.6350e-01	3.2660	-5.065863	0.000569	5.686310	0.963287	0.011375
 329	1.6400e-01	3.2772	-5.026521	0.000393	3.933387	0.666334	0.007868
 330	1.6450e-01	3.2868	-4.994022	0.000325	3.249320	0.550450	0.006500
 331	1.6500e-01	3.2974	-4.959384	0.000346	3.463091	0.586663	0.006928
 332	1.6550e-01	3.3090	-4.924319	0.000351	3.505845	0.593906	0.007013
 333	1.6600e-01	3.3191	-4.881129	0.000432	4.318175	0.731519	0.008638
 334	1.6650e-01	3.3276	-4.824255	0.000569	5.686310	0.963287	0.011375
 335	1.6700e-01	3.3375	-4.811426	0.000128	1.282626	0.217283	0.002566
 336	1.6750e-01	3.3486	-4.770801	0.000406	4.061650	0.688062	0.008125
 337	1.6800e-01	3.3578	-4.725901	0.000449	4.489192	0.760490	0.008980
 338	1.6850e-01	3.3687	-4.699388	0.000265	2.650761	0.449051	0.005303
 339	1.6900e-01	3.3778	-4.663467	0.000359	3.591354	0.608392	0.007184
 340	1.6950e-01	3.3871	-4.622843	0.000406	4.061650	0.688062	0.008125
 341	1.7000e-01	3.3997	-4.589061	0.000338	3.377583	0.572178	0.006756
 342	1.7050e-01	3.4073	-4.551857	0.000372	3.719616	0.630120	0.007441
 343	1.7100e-01	3.4186	-4.515081	0.000368	3.676862	0.622877	0.007355
 344	1.7150e-01	3.4271	-4.496266	0.000188	1.881185	0.318681	0.003763
 345	1.7200e-01	3.4366	-4.459490	0.000368	3.676862	0.622877	0.007355
 346	1.7250e-01	3.4488	-4.418438	0.000410	4.104404	0.695305	0.008210
 347	1.7300e-01	3.4586	-4.379097	0.000393	3.933387	0.666334	0.007868
 348	1.7350e-01	3.4686	-4.356860	0.000222	2.223219	0.376623	0.004447
 349	1.7400e-01	3.4773	-4.295282	0.000616	6.156606	1.042957	0.012316
 350	1.7450e-01	3.4851	-4.269197	0.000261	2.608007	0.441808	0.005217
 351	1.7500e-01	3.4976	-4.223441	0.000457	4.574700	0.774975	0.009151
 352	1.7550e-01	3.5074	-4.193935	0.000295	2.950040	0.499750	0.005901
 353	1.7600e-01	3.5162	-4.154593	0.000393	3.933387	0.666334	0.007868
 354	1.7650e-01	3.5284	-4.116962	0.000376	3.762370	0.637363	0.007526
 355	1.7700e-01	3.5364	-4.097719	0.000192	1.923939	0.325924	0.003849
 356	1.7750e-01	3.5455	-4.052391	0.000453	4.531946	0.767732	0.009066
 357	1.7800e-01	3.5551	-4.032720	0.000197	1.966694	0.333167	0.003934
 358	1.7850e-01	3.5660	-3.992096	0.000406	4.061650	0.688062	0.008125
 359	1.7900e-01	3.5776	-3.952754	0.000393	3.933387	0.666334	0.007868
 360	1.7950e-01	3.5880	-3.911275	0.000415	4.147158	0.702548	0.008296
 361	1.8000e-01	3.5980	-3.880058	0.000312	3.121057	0.528721	0.006243
 362	1.8050e-01	3.6085	-3.828743	0.000513	5.130505	0.869131	0.010263
 363	1.8100e-01	3.6182	-3.815914	0.000128	1.282626	0.217283	0.002566
 364	1.8150e-01	3.6273	-3.782987	0.000329	3.292074	0.557692	0.006585
 365	1.8200e-01	3.6380	-3.735521	0.000475	4.745717	0.803946	0.009493
 366	1.8250e-01	3.6489	-3.710718	0.000248	2.479744	0.420080	0.004960
 367	1.8300e-01	3.6569	-3.676081	0.000346	3.463091	0.586663	0.006928
 368	1.8350e-01	3.6697	-3.655127	0.000209	2.094956	0.354895	0.004191
 369	1.8400e-01	3.6789	-3.592266	0.000628	6.284869	1.064686	0.012572
 370	1.8450e-01	3.6900	-3.560194	0.000321	3.206566	0.543207	0.006414
 371	1.8500e-01	3.6972	-3.516149	0.000440	4.403684	0.746004	0.008809
 372	1.8550e-01	3.7065	-3.484077	0.000321	3.206566	0.543207	0.006414
 373	1.8600e-01	3.7177	-3.435328	0.000487	4.873980	0.825675	0.009750
 374	1.8650e-01	3.7292	-3.419078	0.000162	1.624660	0.275225	0.003250
 375	1.8700e-01	3.7369	-3.380592	0.000385	3.847879	0.651848	0.007697
 376	1.8750e-01	3.7505	-3.347237	0.000333	3.334828	0.564935	0.006671
 377	1.8800e-01	3.7579	-3.310889	0.000363	3.634108	0.615635	0.007270
 378	1.8850e-01	3.7659	-3.274113	0.000368	3.676862	0.622877	0.007355
 379	1.8900e-01	3.7823	-3.243324	0.000308	3.078303	0.521479	0.006158
 380	1.8950e-01	3.7892	-3.227502	0.000158	1.581906	0.267982	0.003164
 381	1.9000e-01	3.7976	-3.171483	0.000560	5.600801	0.948801	0.011204
 382	1.9050e-01	3.8060	-3.146253	0.000252	2.522498	0.427323	0.005046
 383	1.9100e-01	3.8150	-3.093227	0.000530	5.301522	0.898102	0.010605
 384	1.9150e-01	3.8300	-3.056879	0.000363	3.634108	0.615635	0.007270
 385	1.9200e-01	3.8391	-3.037636	0.000192	1.923939	0.325924	0.003849
 386	1.9250e-01	3.8490	-2.995301	0.000423	4.232667	0.717033	0.008467
 387	1.9300e-01	3.8574	-2.943986	0.000513	5.130505	0.869131	0.010263
 388	1.9350e-01	3.8676	-2.927736	0.000162	1.624660	0.275225	0.003250
 389	1.9400e-01	3.8760	-2.898230	0.000295	2.950040	0.499750	0.005901
 390	1.9450e-01	3.8889	-2.866586	0.000316	3.163812	0.535964	0.006329
 391	1.9500e-01	3.8978	-2.818264	0.000483	4.831226	0.818432	0.009664
 392	1.9550e-01	3.9099	-2.779778	0.000385	3.847879	0.651848	0.007697
 393	1.9600e-01	3.9178	-2.759680	0.000201	2.009448	0.340410	0.004020
 394	1.9650e-01	3.9264	-2.704944	0.000547	5.472539	0.927073	0.010947
 395	1.9700e-01	3.9383	-2.686128	0.000188	1.881185	0.318681	0.003763
 396	1.9750e-01	3.9467	-2.649352	0.000368	3.676862	0.622877	0.007355
 397	1.9800e-01	3.9581	-2.613859	0.000355	3.548599	0.601149	0.007099
 398	1.9850e-01	3.9676	-2.561262	0.000526	5.258768	0.890859	0.010520
 399	1.9900e-01	3.9795	-2.557841	0.000034	0.342034	0.057942	0.000684
 400	1.9950e-01	3.9883	-2.493269	0.000646	6.455886	1.093657	0.012914
 401	2.0000e-01	3.9986	-2.490276	0.000030	0.299279	0.050699	0.000599
 402	2.0050e-01	4.0115	-2.431263	0.000590	5.900081	0.999501	0.011802
 403	2.0100e-01	4.0181	-2.418007	0.000133	1.325380	0.224526	0.002651
 404	2.0150e-01	4.0279	-2.362843	0.000552	5.515293	0.934316	0.011033
 405	2.0200e-01	4.0356	-2.323074	0.000398	3.976141	0.673577	0.007954
 406	2.0250e-01	4.0466	-2.304686	0.000184	1.838431	0.311439	0.003678
 407	2.0300e-01	4.0585	-2.255510	0.000492	4.916734	0.832917	0.009835
 408	2.0350e-01	4.0680	-2.209326	0.000462	4.617455	0.782218	0.009237
 409	2.0400e-01	4.0784	-2.191793	0.000175	1.752923	0.296953	0.003507
 410	2.0450e-01	4.0897	-2.154590	0.000372	3.719616	0.630120	0.007441
 411	2.0500e-01	4.0994	-2.126367	0.000282	2.821778	0.478022	0.005645
 412	2.0550e-01	4.1093	-2.098571	0.000278	2.779024	0.470779	0.005559
 413	2.0600e-01	4.1171	-2.054526	0.000440	4.403684	0.746004	0.008809
 414	2.0650e-01	4.1263	-2.016895	0.000376	3.762370	0.637363	0.007526
 415	2.0700e-01	4.1406	-1.987816	0.000291	2.907286	0.492508	0.005816
 416	2.0750e-01	4.1479	-1.931797	0.000560	5.600801	0.948801	0.011204
 417	2.0800e-01	4.1548	-1.924955	0.000068	0.684067	0.115884	0.001368
 418	2.0850e-01	4.1664	-1.883048	0.000419	4.189913	0.709790	0.008381
 419	2.0900e-01	4.1782	-1.863377	0.000197	1.966694	0.333167	0.003934
 420	2.0950e-01	4.1891	-1.810779	0.000526	5.258768	0.890859	0.010520
 421	2.1000e-01	4.1949	-1.764596	0.000462	4.617455	0.782218	0.009237
 422	2.1050e-01	4.2059	-1.741504	0.000231	2.308727	0.391109	0.004618
 423	2.1100e-01	4.2157	-1.711143	0.000304	3.035549	0.514236	0.006072
 424	2.1150e-01	4.2273	-1.684630	0.000265	2.650761	0.449051	0.005303
 425	2.1200e-01	4.2395	-1.644861	0.000398	3.976141	0.673577	0.007954
 426	2.1250e-01	4.2468	-1.608512	0.000363	3.634108	0.615635	0.007270
 427	2.1300e-01	4.2584	-1.565322	0.000432	4.318175	0.731519	0.008638
 428	2.1350e-01	4.2677	-1.557625	0.000077	0.769576	0.130370	0.001539
 429	2.1400e-01	4.2798	-1.521705	0.000359	3.591354	0.608392	0.007184
 430	2.1450e-01	4.2856	-1.468679	0.000530	5.301522	0.898102	0.010605
 431	2.1500e-01	4.2996	-1.441739	0.000269	2.693515	0.456294	0.005388
 432	2.1550e-01	4.3073	-1.397693	0.000440	4.403684	0.746004	0.008809
 433	2.1600e-01	4.3161	-1.381871	0.000158	1.581906	0.267982	0.003164
 434	2.1650e-01	4.3271	-1.365194	0.000167	1.667414	0.282468	0.003335
 435	2.1700e-01	4.3365	-1.307037	0.000581	5.814573	0.985015	0.011631
 436	2.1750e-01	4.3488	-1.272399	0.000346	3.463091	0.586663	0.006928
 437	2.1800e-01	4.3573	-1.221084	0.000513	5.130505	0.869131	0.010263
 438	2.1850e-01	4.3674	-1.213814	0.000073	0.726822	0.123127	0.001454
 439	2.1900e-01	4.3756	-1.173618	0.000402	4.018896	0.680819	0.008039
 440	2.1950e-01	4.3860	-1.127862	0.000457	4.574700	0.774975	0.009151
 441	2.2000e-01	4.3976	-1.093652	0.000342	3.420337	0.579421	0.006842
 442	2.2050e-01	4.4081	-1.044047	0.000496	4.959488	0.840160	0.009921
 443	2.2100e-01	4.4215	-1.029080	0.000150	1.496397	0.253497	0.002993
 444	2.2150e-01	4.4287	-0.998291	0.000308	3.078303	0.521479	0.006158
 445	2.2200e-01	4.4354	-0.941845	0.000564	5.643556	0.956044	0.011289
 446	2.2250e-01	4.4470	-0.917042	0.000248	2.479744	0.420080	0.004960
 447	2.2300e-01	4.4574	-0.908062	0.000090	0.897838	0.152098	0.001796
 448	2.2350e-01	4.4686	-0.843918	0.000641	6.413131	1.086414	0.012829
 449	2.2400e-01	4.4796	-0.824248	0.000197	1.966694	0.333167	0.003934
 450	2.2450e-01	4.4891	-0.791748	0.000325	3.249320	0.550450	0.006500
 451	2.2500e-01	4.4968	-0.760959	0.000308	3.078303	0.521479	0.006158
 452	2.2550e-01	4.5099	-0.731025	0.000299	2.992795	0.506993	0.005987
 453	2.2600e-01	4.5178	-0.691684	0.000393	3.933387	0.666334	0.007868
 454	2.2650e-01	4.5273	-0.669020	0.000227	2.265973	0.383866	0.004533
 455	2.2700e-01	4.5374	-0.629678	0.000393	3.933387	0.666334	0.007868
 456	2.2750e-01	4.5480	-0.614284	0.000154	1.539152	0.260739	0.003079
 457	2.2800e-01	4.5602	-0.563824	0.000504	5.044997	0.854646	0.010092
 458	2.2850e-01	4.5674	-0.506522	0.000573	5.729064	0.970530	0.011460
 459	2.2900e-01	4.5786	-0.490700	0.000158	1.581906	0.267982	0.003164
 460	2.2950e-01	4.5874	-0.464615	0.000261	2.608007	0.441808	0.005217
 461	2.3000e-01	4.5993	-0.426129	0.000385	3.847879	0.651848	0.007697
 462	2.3050e-01	4.6051	-0.381656	0.000445	4.446438	0.753247	0.008895
 463	2.3100e-01	4.6194	-0.362412	0.000192	1.923939	0.325924	0.003849
 464	2.3150e-01	4.6265	-0.321788	0.000406	4.061650	0.688062	0.008125
 465	2.3200e-01	4.6378	-0.300407	0.000214	2.137710	0.362138	0.004276
 466	2.3250e-01	4.6472	-0.257217	0.000432	4.318175	0.731519	0.008638
 467	2.3300e-01	4.6591	-0.220013	0.000372	3.719616	0.630120	0.007441
 468	2.3350e-01	4.6656	-0.185803	0.000342	3.420337	0.579421	0.006842
 469	2.3400e-01	4.6790	-0.150738	0.000351	3.505845	0.593906	0.007013
 470	2.3450e-01	4.6875	-0.127646	0.000231	2.308727	0.391109	0.004618
 471	2.3500e-01	4.6986	-0.069917	0.000577	5.771818	0.977772	0.011546
 472	2.3550e-01	4.7086	-0.052384	0.000175	1.752923	0.296953	0.003507
 473	2.3600e-01	4.7156	-0.032286	0.000201	2.009448	0.340410	0.004020
 474	2.3650e-01	4.7278	0.018174	0.000504	5.044997	0.854646	0.010092
 475	2.3700e-01	4.7339	0.045970	0.000278	2.779024	0.470779	0.005559
 476	2.3750e-01	4.7491	0.067351	0.000214	2.137710	0.362138	0.004276
 477	2.3800e-01	4.7583	0.125080	0.000577	5.771818	0.977772	0.011546
 478	2.3850e-01	4.7694	0.148600	0.000235	2.351482	0.398352	0.004704
 479	2.3900e-01	4.7778	0.199060	0.000504	5.044997	0.854646	0.010092
 480	2.3950e-01	4.7888	0.211461	0.000124	1.239872	0.210040	0.002480
 481	2.4000e-01	4.8004	0.241822	0.000304	3.035549	0.514236	0.006072
 482	2.4050e-01	4.8105	0.274749	0.000329	3.292074	0.557692	0.006585
 483	2.4100e-01	4.8199	0.330768	0.000560	5.600801	0.948801	0.011204
 484	2.4150e-01	4.8288	0.348728	0.000180	1.795677	0.304196	0.003592
 485	2.4200e-01	4.8373	0.382083	0.000333	3.334828	0.564935	0.006671
 486	2.4250e-01	4.8511	0.408168	0.000261	2.608007	0.441808	0.005217
 487	2.4300e-01	4.8590	0.447082	0.000389	3.890633	0.659091	0.007783
 488	2.4350e-01	4.8672	0.477871	0.000308	3.078303	0.521479	0.006158
 489	2.4400e-01	4.8782	0.500108	0.000222	2.223219	0.376623	0.004447
 490	2.4450e-01	4.8901	0.551423	0.000513	5.130505	0.869131	0.010263
 491	2.4500e-01	4.8990	0.563396	0.000120	1.197118	0.202797	0.002395
 492	2.4550e-01	4.9100	0.608725	0.000453	4.531946	0.767732	0.009066
 493	2.4600e-01	4.9188	0.648494	0.000398	3.976141	0.673577	0.007954
 494	2.4650e-01	4.9286	0.670303	0.000218	2.180465	0.369381	0.004362
 495	2.4700e-01	4.9396	0.699381	0.000291	2.907286	0.492508	0.005816
 496	2.4750e-01	4.9506	0.739578	0.000402	4.018896	0.680819	0.008039
 497	2.4800e-01	4.9597	0.768229	0.000286	2.864532	0.485265	0.005730
 498	2.4850e-01	4.9677	0.829807	0.000616	6.156606	1.042957	0.012316
 499	2.4900e-01	4.9805	0.830662	0.000009	0.085508	0.014486	0.000171
 500	2.4950e-01	4.9860	0.864872	0.000342	3.420337	0.579421	0.006842
 501	2.5000e-01	4.9994	0.931154	0.000663	6.626902	1.122628	0.013256
 502	2.5050e-01	5.0101	0.958522	0.000274	2.736269	0.463537	0.005474
 503	2.5100e-01	5.0183	0.977765	0.000192	1.923939	0.325924	0.003849
 504	2.5150e-01	5.0281	1.014113	0.000363	3.634108	0.615635	0.007270
 505	2.5200e-01	5.0388	1.034639	0.000205	2.052202	0.347652	0.004105
 506	2.5250e-01	5.0476	1.049606	0.000150	1.496397	0.253497	0.002993
 507	2.5300e-01	5.0555	1.115888	0.000663	6.626902	1.122628	0.013256
 508	2.5350e-01	5.0666	1.122303	0.000064	0.641313	0.108641	0.001283
 509	2.5400e-01	5.0769	1.177039	0.000547	5.472539	0.927073	0.010947
 510	2.5450e-01	5.0885	1.205262	0.000282	2.821778	0.478022	0.005645
 511	2.5500e-01	5.0980	1.220229	0.000150	1.496397	0.253497	0.002993
 512	2.5550e-01	5.1082	1.285655	0.000654	6.541394	1.108142	0.013085
 513	2.5600e-01	5.1184	1.310885	0.000252	2.522498	0.427323	0.005046
 514	2.5650e-01	5.1257	1.323714	0.000128	1.282626	0.217283	0.002566
 515	2.5700e-01	5.1376	1.372036	0.000483	4.831226	0.818432	0.009664
 516	2.5750e-01	5.1477	1.398121	0.000261	2.608007	0.441808	0.005217
 517	2.5800e-01	5.1593	1.436607	0.000385	3.847879	0.651848	0.007697
 518	2.5850e-01	5.1678	1.459271	0.000227	2.265973	0.383866	0.004533
 519	2.5900e-01	5.1767	1.493909	0.000346	3.463091	0.586663	0.006928
 520	2.5950e-01	5.1895	1.531112	0.000372	3.719616	0.630120	0.007441
 521	2.6000e-01	5.1962	1.560618	0.000295	2.950040	0.499750	0.005901
 522	2.6050e-01	5.2066	1.588414	0.000278	2.779024	0.470779	0.005559
 523	2.6100e-01	5.2167	1.623907	0.000355	3.548599	0.601149	0.007099
 524	2.6150e-01	5.2283	1.659400	0.000355	3.548599	0.601149	0.007099
 525	2.6200e-01	5.2370	1.687196	0.000278	2.779024	0.470779	0.005559
 526	2.6250e-01	5.2454	1.714991	0.000278	2.779024	0.470779	0.005559
 527	2.6300e-01	5.2573	1.765451	0.000504	5.044997	0.854646	0.010092
 528	2.6350e-01	5.2667	1.785549	0.000201	2.009448	0.340410	0.004020
 529	2.6400e-01	5.2777	1.809069	0.000235	2.351482	0.398352	0.004704
 530	2.6450e-01	5.2865	1.850548	0.000415	4.147158	0.702548	0.008296
 531	2.6500e-01	5.2972	1.876634	0.000261	2.608007	0.441808	0.005217
 532	2.6550e-01	5.3075	1.909561	0.000329	3.292074	0.557692	0.006585
 533	2.6600e-01	5.3192	1.948902	0.000393	3.933387	0.666334	0.007868
 534	2.6650e-01	5.3308	1.976270	0.000274	2.736269	0.463537	0.005474
 535	2.6700e-01	5.3369	2.000217	0.000239	2.394236	0.405595	0.004789
 536	2.6750e-01	5.3491	2.030579	0.000304	3.035549	0.514236	0.006072
 537	2.6800e-01	5.3592	2.084887	0.000543	5.429785	0.919830	0.010862
 538	2.6850e-01	5.3682	2.103275	0.000184	1.838431	0.311439	0.003678
 539	2.6900e-01	5.3760	2.159294	0.000560	5.600801	0.948801	0.011204
 540	2.6950e-01	5.3888	2.169984	0.000107	1.068855	0.181069	0.002138
 541	2.7000e-01	5.3979	2.220872	0.000509	5.087751	0.861888	0.010177
 542	2.7050e-01	5.4077	2.235839	0.000150	1.496397	0.253497	0.002993
 543	2.7100e-01	5.4201	2.289292	0.000534	5.344276	0.905345	0.010691
 544	2.7150e-01	5.4274	2.300838	0.000115	1.154364	0.195554	0.002309
 545	2.7200e-01	5.4388	2.335475	0.000346	3.463091	0.586663	0.006928
 546	2.7250e-01	5.4489	2.365409	0.000299	2.992795	0.506993	0.005987
 547	2.7300e-01	5.4562	2.387646	0.000222	2.223219	0.376623	0.004447
 548	2.7350e-01	5.4675	2.438961	0.000513	5.130505	0.869131	0.010263
 549	2.7400e-01	5.4773	2.465046	0.000261	2.608007	0.441808	0.005217
 550	2.7450e-01	5.4886	2.497545	0.000325	3.249320	0.550450	0.006500
 551	2.7500e-01	5.4984	2.533466	0.000359	3.591354	0.608392	0.007184
 552	2.7550e-01	5.5072	2.560406	0.000269	2.693515	0.456294	0.005388
 553	2.7600e-01	5.5157	2.584353	0.000239	2.394236	0.405595	0.004789
 554	2.7650e-01	5.5269	2.619419	0.000351	3.505845	0.593906	0.007013
 555	2.7700e-01	5.5380	2.667740	0.000483	4.831226	0.818432	0.009664
 556	2.7750e-01	5.5469	2.686556	0.000188	1.881185	0.318681	0.003763
 557	2.7800e-01	5.5594	2.727608	0.000410	4.104404	0.695305	0.008210
 558	2.7850e-01	5.5695	2.754121	0.000265	2.650761	0.449051	0.005303
 559	2.7900e-01	5.5765	2.778068	0.000239	2.394236	0.405595	0.004789
 560	2.7950e-01	5.5884	2.823396	0.000453	4.531946	0.767732	0.009066
 561	2.8000e-01	5.5963	2.861455	0.000381	3.805125	0.644606	0.007612
 562	2.8050e-01	5.6079	2.882836	0.000214	2.137710	0.362138	0.004276
 563	2.8100e-01	5.6189	2.921750	0.000389	3.890633	0.659091	0.007783
 564	2.8150e-01	5.6274	2.946980	0.000252	2.522498	0.427323	0.005046
 565	2.8200e-01	5.6409	2.976058	0.000291	2.907286	0.492508	0.005816
 566	2.8250e-01	5.6476	2.999577	0.000235	2.351482	0.398352	0.004704
 567	2.8300e-01	5.6561	3.032077	0.000325	3.249320	0.550450	0.006500
 568	2.8350e-01	5.6665	3.078688	0.000466	4.660209	0.789461	0.009322
 569	2.8400e-01	5.6757	3.092800	0.000141	1.410889	0.239011	0.002822
 570	2.8450e-01	5.6879	3.126155	0.000333	3.334828	0.564935	0.006671
 571	2.8500e-01	5.6995	3.175331	0.000492	4.916734	0.832917	0.009835
 572	2.8550e-01	5.7080	3.214245	0.000389	3.890633	0.659091	0.007783
 573	2.8600e-01	5.7185	3.227929	0.000137	1.368135	0.231768	0.002737
 574	2.8650e-01	5.7265	3.274113	0.000462	4.617455	0.782218	0.009237
 575	2.8700e-01	5.7373	3.278817	0.000047	0.470296	0.079670	0.000941
 576	2.8750e-01	5.7489	3.334836	0.000560	5.600801	0.948801	0.011204
 577	2.8800e-01	5.7574	3.351941	0.000171	1.710168	0.289710	0.003421
 578	2.8850e-01	5.7684	3.391710	0.000398	3.976141	0.673577	0.007954
 579	2.8900e-01	5.7770	3.428058	0.000363	3.634108	0.615635	0.007270
 580	2.8950e-01	5.7874	3.448156	0.000201	2.009448	0.340410	0.004020
 581	2.9000e-01	5.7959	3.487498	0.000393	3.933387	0.666334	0.007868
 582	2.9050e-01	5.8099	3.520853	0.000333	3.334828	0.564935	0.006671
 583	2.9100e-01	5.8191	3.569174	0.000483	4.831226	0.818432	0.009664
 584	2.9150e-01	5.8276	3.590556	0.000214	2.137710	0.362138	0.004276
 585	2.9200e-01	5.8362	3.591411	0.000009	0.085508	0.014486	0.000171
 586	2.9250e-01	5.8472	3.643154	0.000517	5.173259	0.876374	0.010349
 587	2.9300e-01	5.8575	3.669239	0.000261	2.608007	0.441808	0.005217
 588	2.9350e-01	5.8667	3.715850	0.000466	4.660209	0.789461	0.009322
 589	2.9400e-01	5.8804	3.743218	0.000274	2.736269	0.463537	0.005474
 590	2.9450e-01	5.8875	3.789401	0.000462	4.617455	0.782218	0.009237
 591	2.9500e-01	5.8972	3.804368	0.000150	1.496397	0.253497	0.002993
 592	2.9550e-01	5.9076	3.865091	0.000607	6.071098	1.028472	0.012145
 593	2.9600e-01	5.9175	3.882624	0.000175	1.752923	0.296953	0.003507
 594	2.9650e-01	5.9271	3.889893	0.000073	0.726822	0.123127	0.001454
 595	2.9700e-01	5.9363	3.938643	0.000487	4.873980	0.825675	0.009750
 596	2.9750e-01	5.9491	3.956603	0.000180	1.795677	0.304196	0.003592
 597	2.9800e-01	5.9552	3.995944	0.000393	3.933387	0.666334	0.007868
 598	2.9850e-01	5.9698	4.035714	0.000398	3.976141	0.673577	0.007954
 599	2.9900e-01	5.9796	4.060516	0.000248	2.479744	0.420080	0.004960
 600	2.9950e-01	5.9866	4.094298	0.000338	3.377583	0.572178	0.006756
 601	3.0000e-01	5.9998	4.122949	0.000286	2.864532	0.485265	0.005730
 602	3.0050e-01	6.0080	4.155449	0.000325	3.249320	0.550450	0.006500
 603	3.0100e-01	6.0199	4.195218	0.000398	3.976141	0.673577	0.007954
 604	3.0150e-01	6.0272	4.230283	0.000351	3.505845	0.593906	0.007013
 605	3.0200e-01	6.0376	4.246960	0.000167	1.667414	0.282468	0.003335
 606	3.0250e-01	6.0489	4.258079	0.000111	1.111609	0.188312	0.002224
 607	3.0300e-01	6.0567	4.308111	0.000500	5.002243	0.847403	0.010006
 608	3.0350e-01	6.0706	4.357715	0.000496	4.959488	0.840160	0.009921
 609	3.0400e-01	6.0773	4.381662	0.000239	2.394236	0.405595	0.004789
 610	3.0450e-01	6.0883	4.413734	0.000321	3.206566	0.543207	0.006414
 611	3.0500e-01	6.0974	4.439819	0.000261	2.608007	0.441808	0.005217
 612	3.0550e-01	6.1066	4.483010	0.000432	4.318175	0.731519	0.008638
 613	3.0600e-01	6.1179	4.503963	0.000209	2.094956	0.354895	0.004191
 614	3.0650e-01	6.1273	4.534325	0.000304	3.035549	0.514236	0.006072
 615	3.0700e-01	6.1374	4.559554	0.000252	2.522498	0.427323	0.005046
 616	3.0750e-01	6.1475	4.602317	0.000428	4.275421	0.724276	0.008553
 617	3.0800e-01	6.1591	4.627119	0.000248	2.479744	0.420080	0.004960
 618	3.0850e-01	6.1679	4.651922	0.000248	2.479744	0.420080	0.004960
 619	3.0900e-01	6.1761	4.690835	0.000389	3.890633	0.659091	0.007783
 620	3.0950e-01	6.1856	4.728466	0.000376	3.762370	0.637363	0.007526
 621	3.1000e-01	6.1975	4.730177	0.000017	0.171017	0.028971	0.000342
 622	3.1050e-01	6.2091	4.782775	0.000526	5.258768	0.890859	0.010520
 623	3.1100e-01	6.2177	4.819978	0.000372	3.719616	0.630120	0.007441
 624	3.1150e-01	6.2280	4.850340	0.000304	3.035549	0.514236	0.006072
 625	3.1200e-01	6.2396	4.880273	0.000299	2.992795	0.506993	0.005987
 626	3.1250e-01	6.2473	4.897806	0.000175	1.752923	0.296953	0.003507
 627	3.1300e-01	6.2582	4.945700	0.000479	4.788471	0.811189	0.009579
 628	3.1350e-01	6.2696	4.972213	0.000265	2.650761	0.449051	0.005303
 629	3.1400e-01	6.2781	5.022673	0.000504	5.044997	0.854646	0.010092
 630	3.1450e-01	6.2872	5.059448	0.000368	3.676862	0.622877	0.007355
 631	3.1500e-01	6.2988	5.070139	0.000107	1.068855	0.181069	0.002138
 632	3.1550e-01	6.3098	5.073560	0.000034	0.342034	0.057942	0.000684
 633	3.1600e-01	6.3159	5.133428	0.000599	5.985589	1.013986	0.011974
 634	3.1650e-01	6.3281	5.167210	0.000338	3.377583	0.572178	0.006756
 635	3.1700e-01	6.3373	5.186026	0.000188	1.881185	0.318681	0.003763
 636	3.1750e-01	6.3440	5.245038	0.000590	5.900081	0.999501	0.011802
 637	3.1800e-01	6.3568	5.253590	0.000086	0.855084	0.144855	0.001711
 638	3.1850e-01	6.3686	5.294642	0.000410	4.104404	0.695305	0.008210
 639	3.1900e-01	6.3776	5.314313	0.000197	1.966694	0.333167	0.003934
 640	3.1950e-01	6.3867	5.348523	0.000342	3.420337	0.579421	0.006842
 641	3.2000e-01	6.3953	5.394279	0.000457	4.574700	0.774975	0.009151
 642	3.2050e-01	6.4059	5.409246	0.000150	1.496397	0.253497	0.002993
 643	3.2100e-01	6.4178	5.452436	0.000432	4.318175	0.731519	0.008638
 644	3.2150e-01	6.4270	5.499047	0.000466	4.660209	0.789461	0.009322
 645	3.2200e-01	6.4380	5.505034	0.000060	0.598559	0.101399	0.001197
 646	3.2250e-01	6.4465	5.518290	0.000133	1.325380	0.224526	0.002651
 647	3.2300e-01	6.4587	5.558487	0.000402	4.018896	0.680819	0.008039
 648	3.2350e-01	6.4685	5.609375	0.000509	5.087751	0.861888	0.010177
 649	3.2400e-01	6.4771	5.637170	0.000278	2.779024	0.470779	0.005559
 650	3.2450e-01	6.4886	5.672663	0.000355	3.548599	0.601149	0.007099
 651	3.2500e-01	6.4966	5.710294	0.000376	3.762370	0.637363	0.007526
 652	3.2550e-01	6.5076	5.728254	0.000180	1.795677	0.304196	0.003592
 653	3.2600e-01	6.5179	5.767596	0.000393	3.933387	0.666334	0.007868
 654	3.2650e-01	6.5298	5.797102	0.000295	2.950040	0.499750	0.005901
 655	3.2700e-01	6.5369	5.813352	0.000162	1.624660	0.275225	0.003250
 656	3.2750e-01	6.5491	5.852266	0.000389	3.890633	0.659091	0.007783
 657	3.2800e-01	6.5588	5.874930	0.000227	2.265973	0.383866	0.004533
 658	3.2850e-01	6.5674	5.923679	0.000487	4.873980	0.825675	0.009750
 659	3.2900e-01	6.5771	5.934370	0.000107	1.068855	0.181069	0.002138
 660	3.2950e-01	6.5887	5.987823	0.000534	5.344276	0.905345	0.010691
 661	3.3000e-01	6.6003	6.004073	0.000162	1.624660	0.275225	0.003250
 662	3.3050e-01	6.6077	6.045125	0.000410	4.104404	0.695305	0.008210
 663	3.3100e-01	6.6156	6.085749	0.000406	4.061650	0.688062	0.008125
 664	3.3150e-01	6.6284	6.093874	0.000081	0.812330	0.137612	0.001625
 665	3.3200e-01	6.6376	6.145189	0.000513	5.130505	0.869131	0.010263
 666	3.3250e-01	6.6486	6.165287	0.000201	2.009448	0.340410	0.004020
 667	3.3300e-01	6.6571	6.192655	0.000274	2.736269	0.463537	0.005474
 668	3.3350e-01	6.6681	6.233280	0.000406	4.061650	0.688062	0.008125
 669	3.3400e-01	6.6815	6.267490	0.000342	3.420337	0.579421	0.006842
 670	3.3450e-01	6.6864	6.291437	0.000239	2.394236	0.405595	0.004789
 671	3.3500e-01	6.6998	6.322226	0.000308	3.078303	0.521479	0.006158
 672	3.3550e-01	6.7114	6.367554	0.000453	4.531946	0.767732	0.009066
 673	3.3600e-01	6.7160	6.350449	-0.000171	-1.710168	-0.289710	-0.003421
 674	3.3650e-01	6.7297	6.427849	0.000774	7.738512	1.310939	0.015480
 675	3.3700e-01	6.7419	6.436402	0.000086	0.855084	0.144855	0.001711
 676	3.3750e-01	6.7462	6.478309	0.000419	4.189913	0.709790	0.008381
 677	3.3800e-01	6.7572	6.510809	0.000325	3.249320	0.550450	0.006500
 678	3.3850e-01	6.7664	6.553144	0.000423	4.232667	0.717033	0.008467
 679	3.3900e-01	6.7767	6.576235	0.000231	2.308727	0.391109	0.004618
 680	3.3950e-01	6.7859	6.614722	0.000385	3.847879	0.651848	0.007697
 681	3.4000e-01	6.7969	6.645511	0.000308	3.078303	0.521479	0.006158
 682	3.4050e-01	6.8073	6.651925	0.000064	0.641313	0.108641	0.001283
 683	3.4100e-01	6.8152	6.715214	0.000633	6.327623	1.071928	0.012658
 684	3.4150e-01	6.8280	6.731036	0.000158	1.581906	0.267982	0.003164
 685	3.4200e-01	6.8378	6.764818	0.000338	3.377583	0.572178	0.006756
 686	3.4250e-01	6.8471	6.788337	0.000235	2.351482	0.398352	0.004704
 687	3.4300e-01	6.8579	6.824686	0.000363	3.634108	0.615635	0.007270
 688	3.4350e-01	6.8671	6.853336	0.000286	2.864532	0.485265	0.005730
 689	3.4400e-01	6.8790	6.903369	0.000500	5.002243	0.847403	0.010006
 690	3.4450e-01	6.8884	6.924322	0.000209	2.094956	0.354895	0.004191
 691	3.4500e-01	6.8970	6.963664	0.000393	3.933387	0.666334	0.007868
 692	3.4550e-01	6.9089	6.988466	0.000248	2.479744	0.420080	0.004960
 693	3.4600e-01	6.9202	7.009847	0.000214	2.137710	0.362138	0.004276
 694	3.4650e-01	6.9275	7.043630	0.000338	3.377583	0.572178	0.006756
 695	3.4700e-01	6.9380	7.063728	0.000201	2.009448	0.340410	0.004020
 696	3.4750e-01	6.9461	7.116326	0.000526	5.258768	0.890859	0.010520
 697	3.4800e-01	6.9586	7.133431	0.000171	1.710168	0.289710	0.003421
 698	3.4850e-01	6.9672	7.173200	0.000398	3.976141	0.673577	0.007954
 699	3.4900e-01	6.9809	7.205700	0.000325	3.249320	0.550450	0.006500
 700	3.4950e-01	6.9885	7.246324	0.000406	4.061650	0.688062	0.008125
 701	3.5000e-01	6.9989	7.276258	0.000299	2.992795	0.506993	0.005987
 702	3.5050e-01	7.0088	7.292508	0.000162	1.624660	0.275225	0.003250
 703	3.5100e-01	7.0190	7.339119	0.000466	4.660209	0.789461	0.009322
 704	3.5150e-01	7.0270	7.354941	0.000158	1.581906	0.267982	0.003164
 705	3.5200e-01	7.0386	7.400269	0.000453	4.531946	0.767732	0.009066
 706	3.5250e-01	7.0477	7.425071	0.000248	2.479744	0.420080	0.004960
 707	3.5300e-01	7.0569	7.458426	0.000333	3.334828	0.564935	0.006671
 708	3.5350e-01	7.0679	7.474676	0.000162	1.624660	0.275225	0.003250
 709	3.5400e-01	7.0770	7.516583	0.000419	4.189913	0.709790	0.008381
 710	3.5450e-01	7.0862	7.561056	0.000445	4.446438	0.753247	0.008895
 711	3.5500e-01	7.1002	7.577306	0.000162	1.624660	0.275225	0.003250
 712	3.5550e-01	7.1075	7.606385	0.000291	2.907286	0.492508	0.005816
 713	3.5600e-01	7.1194	7.643588	0.000372	3.719616	0.630120	0.007441
 714	3.5650e-01	7.1280	7.673949	0.000304	3.035549	0.514236	0.006072
 715	3.5700e-01	7.1387	7.726975	0.000530	5.301522	0.898102	0.010605
 716	3.5750e-01	7.1460	7.751777	0.000248	2.479744	0.420080	0.004960
 717	3.5800e-01	7.1573	7.777862	0.000261	2.608007	0.441808	0.005217
 718	3.5850e-01	7.1680	7.808224	0.000304	3.035549	0.514236	0.006072
 719	3.5900e-01	7.1796	7.821908	0.000137	1.368135	0.231768	0.002737
 720	3.5950e-01	7.1893	7.860822	0.000389	3.890633	0.659091	0.007783
 721	3.6000e-01	7.1988	7.902301	0.000415	4.147158	0.702548	0.008296
 722	3.6050e-01	7.2083	7.917268	0.000150	1.496397	0.253497	0.002993
 723	3.6100e-01	7.2186	7.974998	0.000577	5.771818	0.977772	0.011546
 724	3.6150e-01	7.2266	8.019898	0.000449	4.489192	0.760490	0.008980
 725	3.6200e-01	7.2369	8.036148	0.000162	1.624660	0.275225	0.003250
 726	3.6250e-01	7.2461	8.051970	0.000158	1.581906	0.267982	0.003164
 727	3.6300e-01	7.2577	8.096443	0.000445	4.446438	0.753247	0.008895
 728	3.6350e-01	7.2675	8.145620	0.000492	4.916734	0.832917	0.009835
 729	3.6400e-01	7.2778	8.145620	0.000000	0.000000	0.000000	0.000000
 730	3.6450e-01	7.2882	8.182396	0.000368	3.676862	0.622877	0.007355
 731	3.6500e-01	7.2992	8.224303	0.000419	4.189913	0.709790	0.008381
 732	3.6550e-01	7.3087	8.249961	0.000257	2.565253	0.434566	0.005132
 733	3.6600e-01	7.3181	8.286736	0.000368	3.676862	0.622877	0.007355
 734	3.6650e-01	7.3279	8.318381	0.000316	3.163812	0.535964	0.006329
 735	3.6700e-01	7.3364	8.341900	0.000235	2.351482	0.398352	0.004704
 736	3.6750e-01	7.3492	8.375682	0.000338	3.377583	0.572178	0.006756
 737	3.6800e-01	7.3575	8.396208	0.000205	2.052202	0.347652	0.004105
 738	3.6850e-01	7.3672	8.446241	0.000500	5.002243	0.847403	0.010006
 739	3.6900e-01	7.3792	8.463346	0.000171	1.710168	0.289710	0.003421
 740	3.6950e-01	7.3889	8.514661	0.000513	5.130505	0.869131	0.010263
 741	3.7000e-01	7.3975	8.537325	0.000227	2.265973	0.383866	0.004533
 742	3.7050e-01	7.4078	8.573673	0.000363	3.634108	0.615635	0.007270
 743	3.7100e-01	7.4194	8.605745	0.000321	3.206566	0.543207	0.006414
 744	3.7150e-01	7.4280	8.661764	0.000560	5.600801	0.948801	0.011204
 745	3.7200e-01	7.4402	8.664330	0.000026	0.256525	0.043457	0.000513
 746	3.7250e-01	7.4457	8.712651	0.000483	4.831226	0.818432	0.009664
 747	3.7300e-01	7.4586	8.736171	0.000235	2.351482	0.398352	0.004704
 748	3.7350e-01	7.4710	8.760118	0.000239	2.394236	0.405595	0.004789
 749	3.7400e-01	7.4792	8.791762	0.000316	3.163812	0.535964	0.006329
 750	3.7450e-01	7.4881	8.822551	0.000308	3.078303	0.521479	0.006158
 751	3.7500e-01	7.4969	8.847353	0.000248	2.479744	0.420080	0.004960
 752	3.7550e-01	7.5085	8.871300	0.000239	2.394236	0.405595	0.004789
 753	3.7600e-01	7.5177	8.910642	0.000393	3.933387	0.666334	0.007868
 754	3.7650e-01	7.5269	8.976924	0.000663	6.626902	1.122628	0.013256
 755	3.7700e-01	7.5403	8.997022	0.000201	2.009448	0.340410	0.004020
 756	3.7750e-01	7.5482	9.034225	0.000372	3.719616	0.630120	0.007441
 757	3.7800e-01	7.5586	9.057745	0.000235	2.351482	0.398352	0.004704
 758	3.7850e-01	7.5690	9.077843	0.000201	2.009448	0.340410	0.004020
 759	3.7900e-01	7.5787	9.137711	0.000599	5.985589	1.013986	0.011974
 760	3.7950e-01	7.5879	9.153105	0.000154	1.539152	0.260739	0.003079
 761	3.8000e-01	7.5989	9.201427	0.000483	4.831226	0.818432	0.009664
 762	3.8050e-01	7.6068	9.227084	0.000257	2.565253	0.434566	0.005132
 763	3.8100e-01	7.6178	9.270275	0.000432	4.318175	0.731519	0.008638
 764	3.8150e-01	7.6291	9.283531	0.000133	1.325380	0.224526	0.002651
 765	3.8200e-01	7.6373	9.304485	0.000209	2.094956	0.354895	0.004191
 766	3.8250e-01	7.6498	9.326293	0.000218	2.180465	0.369381	0.004362
 767	3.8300e-01	7.6587	9.383168	0.000569	5.686310	0.963287	0.011375
 768	3.8350e-01	7.6678	9.401555	0.000184	1.838431	0.311439	0.003678
 769	3.8400e-01	7.6764	9.437476	0.000359	3.591354	0.608392	0.007184
 770	3.8450e-01	7.6886	9.471686	0.000342	3.420337	0.579421	0.006842
 771	3.8500e-01	7.6965	9.503330	0.000316	3.163812	0.535964	0.006329
 772	3.8550e-01	7.7081	9.531981	0.000286	2.864532	0.485265	0.005730
 773	3.8600e-01	7.7161	9.567474	0.000355	3.548599	0.601149	0.007099
 774	3.8650e-01	7.7264	9.599546	0.000321	3.206566	0.543207	0.006414
 775	3.8700e-01	7.7411	9.638460	0.000389	3.890633	0.659091	0.007783
 776	3.8750e-01	7.7466	9.649151	0.000107	1.068855	0.181069	0.002138
 777	3.8800e-01	7.7576	9.700038	0.000509	5.087751	0.861888	0.010177
 778	3.8850e-01	7.7686	9.733820	0.000338	3.377583	0.572178	0.006756
 779	3.8900e-01	7.7771	9.766320	0.000325	3.249320	0.550450	0.006500
 780	3.8950e-01	7.7872	9.801813	0.000355	3.548599	0.601149	0.007099
 781	3.9000e-01	7.7972	9.837306	0.000355	3.548599	0.601149	0.007099
 782	3.9050e-01	7.8088	9.877502	0.000402	4.018896	0.680819	0.008039
 783	3.9100e-01	7.8180	9.930956	0.000534	5.344276	0.905345	0.010691
 784	3.9150e-01	7.8271	9.937798	0.000068	0.684067	0.115884	0.001368
 785	3.9200e-01	7.8406	9.971580	0.000338	3.377583	0.572178	0.006756
 786	3.9250e-01	7.8491	9.986119	0.000145	1.453643	0.246254	0.002908
 787	3.9300e-01	7.8574	10.035724	0.000496	4.959488	0.840160	0.009921
 788	3.9350e-01	7.8687	10.063092	0.000274	2.736269	0.463537	0.005474
 789	3.9400e-01	7.8784	10.103289	0.000402	4.018896	0.680819	0.008039
 790	3.9450e-01	7.8882	10.115690	0.000124	1.239872	0.210040	0.002480
 791	3.9500e-01	7.8989	10.166577	0.000509	5.087751	0.861888	0.010177
 792	3.9550e-01	7.9059	10.205491	0.000389	3.890633	0.659091	0.007783
 793	3.9600e-01	7.9187	10.226445	0.000209	2.094956	0.354895	0.004191
 794	3.9650e-01	7.9279	10.269207	0.000428	4.275421	0.724276	0.008553
 795	3.9700e-01	7.9395	10.298286	0.000291	2.907286	0.492508	0.005816
 796	3.9750e-01	7.9486	10.346607	0.000483	4.831226	0.818432	0.009664
 797	3.9800e-01	7.9572	10.361574	0.000150	1.496397	0.253497	0.002993
 798	3.9850e-01	7.9688	10.398350	0.000368	3.676862	0.622877	0.007355
 799	3.9900e-01	7.9744	10.435126	0.000368	3.676862	0.622877	0.007355
 800	3.9950e-01	7.9901	10.474040	0.000389	3.890633	0.659091	0.007783
 801	4.0000e-01	7.9968	10.489007	0.000150	1.496397	0.253497	0.002993
 802	4.0050e-01	8.0087	10.524072	0.000351	3.505845	0.593906	0.007013
 803	4.0100e-01	8.0194	10.565979	0.000419	4.189913	0.709790	0.008381
 804	4.0150e-01	8.0316	10.572393	0.000064	0.641313	0.108641	0.001283
 805	4.0200e-01	8.0384	10.618577	0.000462	4.617455	0.782218	0.009237
 806	4.0250e-01	8.0472	10.675451	0.000569	5.686310	0.963287	0.011375
 807	4.0300e-01	8.0603	10.708806	0.000333	3.334828	0.564935	0.006671
 808	4.0350e-01	8.0676	10.734463	0.000257	2.565253	0.434566	0.005132
 809	4.0400e-01	8.0768	10.754989	0.000205	2.052202	0.347652	0.004105
 810	4.0450e-01	8.0890	10.808870	0.000539	5.387030	0.912588	0.010776
 811	4.0500e-01	8.1000	10.830252	0.000214	2.137710	0.362138	0.004276
 812	4.0550e-01	8.1097	10.859758	0.000295	2.950040	0.499750	0.005901
 813	4.0600e-01	8.1165	10.896533	0.000368	3.676862	0.622877	0.007355
 814	4.0650e-01	8.1268	10.948704	0.000522	5.216014	0.883617	0.010434
 815	4.0700e-01	8.1381	10.961960	0.000133	1.325380	0.224526	0.002651
 816	4.0750e-01	8.1494	10.998308	0.000363	3.634108	0.615635	0.007270
 817	4.0800e-01	8.1592	11.027387	0.000291	2.907286	0.492508	0.005816
 818	4.0850e-01	8.1683	11.079129	0.000517	5.173259	0.876374	0.010349
 819	4.0900e-01	8.1769	11.125313	0.000462	4.617455	0.782218	0.009237
 820	4.0950e-01	8.1894	11.136004	0.000107	1.068855	0.181069	0.002138
 821	4.1000e-01	8.1989	11.156530	0.000205	2.052202	0.347652	0.004105
 822	4.1050e-01	8.2077	11.195016	0.000385	3.847879	0.651848	0.007697
 823	4.1100e-01	8.2172	11.242482	0.000475	4.745717	0.803946	0.009493
 824	4.1150e-01	8.2288	11.263436	0.000209	2.094956	0.354895	0.004191
 825	4.1200e-01	8.2404	11.302350	0.000389	3.890633	0.659091	0.007783
 826	4.1250e-01	8.2471	11.333994	0.000316	3.163812	0.535964	0.006329
 827	4.1300e-01	8.2571	11.365638	0.000316	3.163812	0.535964	0.006329
 828	4.1350e-01	8.2672	11.390441	0.000248	2.479744	0.420080	0.004960
 829	4.1400e-01	8.2797	11.442611	0.000522	5.216014	0.883617	0.010434
 830	4.1450e-01	8.2880	11.484518	0.000419	4.189913	0.709790	0.008381
 831	4.1500e-01	8.2990	11.489650	0.000051	0.513051	0.086913	0.001026
 832	4.1550e-01	8.3078	11.573892	0.000842	8.422579	1.426824	0.016848
 833	4.1600e-01	8.3179	11.580306	0.000064	0.641313	0.108641	0.001283
 834	4.1650e-01	8.3264	11.600405	0.000201	2.009448	0.340410	0.004020
 835	4.1700e-01	8.3392	11.661555	0.000611	6.113852	1.035715	0.012230
 836	4.1750e-01	8.3484	11.701324	0.000398	3.976141	0.673577	0.007954
 837	4.1800e-01	8.3557	11.729547	0.000282	2.821778	0.478022	0.005645
 838	4.1850e-01	8.3698	11.773593	0.000440	4.403684	0.746004	0.008809
 839	4.1900e-01	8.3765	11.777869	0.000043	0.427542	0.072428	0.000855
 840	4.1950e-01	8.3894	11.811652	0.000338	3.377583	0.572178	0.006756
 841	4.2000e-01	8.3987	11.864249	0.000526	5.258768	0.890859	0.010520
 842	4.2050e-01	8.4088	11.883493	0.000192	1.923939	0.325924	0.003849
 843	4.2100e-01	8.4192	11.927110	0.000436	4.360929	0.738761	0.008724
 844	4.2150e-01	8.4277	11.958755	0.000316	3.163812	0.535964	0.006329
 845	4.2200e-01	8.4363	12.003228	0.000445	4.446438	0.753247	0.008895
 846	4.2250e-01	8.4476	12.025892	0.000227	2.265973	0.383866	0.004533
 847	4.2300e-01	8.4601	12.060102	0.000342	3.420337	0.579421	0.006842
 848	4.2350e-01	8.4674	12.086187	0.000261	2.608007	0.441808	0.005217
 849	4.2400e-01	8.4766	12.145199	0.000590	5.900081	0.999501	0.011802
 850	4.2450e-01	8.4882	12.169146	0.000239	2.394236	0.405595	0.004789
 851	4.2500e-01	8.4979	12.202501	0.000333	3.334828	0.564935	0.006671
 852	4.2550e-01	8.5065	12.235001	0.000325	3.249320	0.550450	0.006500
 853	4.2600e-01	8.5181	12.275197	0.000402	4.018896	0.680819	0.008039
 854	4.2650e-01	8.5297	12.323091	0.000479	4.788471	0.811189	0.009579
 855	4.2700e-01	8.5358	12.338913	0.000158	1.581906	0.267982	0.003164
 856	4.2750e-01	8.5449	12.368847	0.000299	2.992795	0.506993	0.005987
 857	4.2800e-01	8.5571	12.408189	0.000393	3.933387	0.666334	0.007868
 858	4.2850e-01	8.5675	12.448386	0.000402	4.018896	0.680819	0.008039
 859	4.2900e-01	8.5791	12.486017	0.000376	3.762370	0.637363	0.007526
 860	4.2950e-01	8.5876	12.534338	0.000483	4.831226	0.818432	0.009664
 861	4.3000e-01	8.5992	12.552726	0.000184	1.838431	0.311439	0.003678
 862	4.3050e-01	8.6096	12.581377	0.000286	2.864532	0.485265	0.005730
 863	4.3100e-01	8.6163	12.626705	0.000453	4.531946	0.767732	0.009066
 864	4.3150e-01	8.6267	12.673744	0.000470	4.702963	0.796704	0.009408
 865	4.3200e-01	8.6389	12.708809	0.000351	3.505845	0.593906	0.007013
 866	4.3250e-01	8.6469	12.734039	0.000252	2.522498	0.427323	0.005046
 867	4.3300e-01	8.6584	12.771670	0.000376	3.762370	0.637363	0.007526
 868	4.3350e-01	8.6725	12.796900	0.000252	2.522498	0.427323	0.005046
 869	4.3400e-01	8.6798	12.855057	0.000581	5.814573	0.985015	0.011631
 870	4.3450e-01	8.6890	12.890550	0.000355	3.548599	0.601149	0.007099
 871	4.3500e-01	8.6978	12.917490	0.000269	2.693515	0.456294	0.005388
 872	4.3550e-01	8.7079	12.947424	0.000299	2.992795	0.506993	0.005987
 873	4.3600e-01	8.7167	12.990614	0.000432	4.318175	0.731519	0.008638
 874	4.3650e-01	8.7311	13.033377	0.000428	4.275421	0.724276	0.008553
 875	4.3700e-01	8.7378	13.045350	0.000120	1.197118	0.202797	0.002395
 876	4.3750e-01	8.7476	13.091534	0.000462	4.617455	0.782218	0.009237
 877	4.3800e-01	8.7567	13.141994	0.000504	5.044997	0.854646	0.010092
 878	4.3850e-01	8.7683	13.166796	0.000248	2.479744	0.420080	0.004960
 879	4.3900e-01	8.7769	13.223243	0.000564	5.643556	0.956044	0.011289
 880	4.3950e-01	8.7878	13.230940	0.000077	0.769576	0.130370	0.001539
 881	4.4000e-01	8.7982	13.281827	0.000509	5.087751	0.861888	0.010177
 882	4.4050e-01	8.8065	13.304064	0.000222	2.223219	0.376623	0.004447
 883	4.4100e-01	8.8181	13.349820	0.000457	4.574700	0.774975	0.009151
 884	4.4150e-01	8.8293	13.382319	0.000325	3.249320	0.550450	0.006500
 885	4.4200e-01	8.8379	13.434062	0.000517	5.173259	0.876374	0.010349
 886	4.4250e-01	8.8501	13.474686	0.000406	4.061650	0.688062	0.008125
 887	4.4300e-01	8.8574	13.515738	0.000410	4.104404	0.695305	0.008210
 888	4.4350e-01	8.8669	13.547383	0.000316	3.163812	0.535964	0.006329
 889	4.4400e-01	8.8763	13.575178	0.000278	2.779024	0.470779	0.005559
 890	4.4450e-01	8.8858	13.612382	0.000372	3.719616	0.630120	0.007441
 891	4.4500e-01	8.8968	13.643171	0.000308	3.078303	0.521479	0.006158
 892	4.4550e-01	8.9111	13.681657	0.000385	3.847879	0.651848	0.007697
 893	4.4600e-01	8.9175	13.743235	0.000616	6.156606	1.042957	0.012316
 894	4.4650e-01	8.9282	13.752643	0.000094	0.940593	0.159341	0.001882
 895	4.4700e-01	8.9374	13.789846	0.000372	3.719616	0.630120	0.007441
 896	4.4750e-01	8.9447	13.857838	0.000680	6.797919	1.151599	0.013598
 897	4.4800e-01	8.9575	13.883496	0.000257	2.565253	0.434566	0.005132
 898	4.4850e-01	8.9691	13.917278	0.000338	3.377583	0.572178	0.006756
 899	4.4900e-01	8.9771	13.951061	0.000338	3.377583	0.572178	0.006756
 900	4.4950e-01	8.9874	14.003231	0.000522	5.216014	0.883617	0.010434
 901	4.5000e-01	8.9972	14.041290	0.000381	3.805125	0.644606	0.007612
 902	4.5050e-01	9.0073	14.058395	0.000171	1.710168	0.289710	0.003421
 903	4.5100e-01	9.0149	14.104151	0.000457	4.574700	0.774975	0.009151
 904	4.5150e-01	9.0280	14.149907	0.000457	4.574700	0.774975	0.009151
 905	4.5200e-01	9.0395	14.183261	0.000333	3.334828	0.564935	0.006671
 906	4.5250e-01	9.0469	14.226451	0.000432	4.318175	0.731519	0.008638
 907	4.5300e-01	9.0625	14.256385	0.000299	2.992795	0.506993	0.005987
 908	4.5350e-01	9.0686	14.300431	0.000440	4.403684	0.746004	0.008809
 909	4.5400e-01	9.0784	14.346187	0.000457	4.574700	0.774975	0.009151
 910	4.5450e-01	9.0869	14.374837	0.000286	2.864532	0.485265	0.005730
 911	4.5500e-01	9.0961	14.420166	0.000453	4.531946	0.767732	0.009066
 912	4.5550e-01	9.1046	14.471053	0.000509	5.087751	0.861888	0.010177
 913	4.5600e-01	9.1156	14.498421	0.000274	2.736269	0.463537	0.005474
 914	4.5650e-01	9.1302	14.532631	0.000342	3.420337	0.579421	0.006842
 915	4.5700e-01	9.1373	14.559144	0.000265	2.650761	0.449051	0.005303
 916	4.5750e-01	9.1479	14.611314	0.000522	5.216014	0.883617	0.010434
 917	4.5800e-01	9.1574	14.666050	0.000547	5.472539	0.927073	0.010947
 918	4.5850e-01	9.1699	14.687004	0.000209	2.094956	0.354895	0.004191
 919	4.5900e-01	9.1797	14.744306	0.000573	5.729064	0.970530	0.011460
 920	4.5950e-01	9.1870	14.790489	0.000462	4.617455	0.782218	0.009237
 921	4.6000e-01	9.1968	14.813581	0.000231	2.308727	0.391109	0.004618
 922	4.6050e-01	9.2072	14.865324	0.000517	5.173259	0.876374	0.010349
 923	4.6100e-01	9.2194	14.902955	0.000376	3.762370	0.637363	0.007526
 924	4.6150e-01	9.2297	14.935454	0.000325	3.249320	0.550450	0.006500
 925	4.6200e-01	9.2371	14.978644	0.000432	4.318175	0.731519	0.008638
 926	4.6250e-01	9.2505	15.012854	0.000342	3.420337	0.579421	0.006842
 927	4.6300e-01	9.2590	15.038084	0.000252	2.522498	0.427323	0.005046
 928	4.6350e-01	9.2682	15.101373	0.000633	6.327623	1.071928	0.012658
 929	4.6400e-01	9.2767	15.157819	0.000564	5.643556	0.956044	0.011289
 930	4.6450e-01	9.2865	15.162523	0.000047	0.470296	0.079670	0.000941
 931	4.6500e-01	9.2993	15.215976	0.000534	5.344276	0.905345	0.010691
 932	4.6550e-01	9.3079	15.268574	0.000526	5.258768	0.890859	0.010520
 933	4.6600e-01	9.3176	15.297653	0.000291	2.907286	0.492508	0.005816
 934	4.6650e-01	9.3292	15.337422	0.000398	3.976141	0.673577	0.007954
 935	4.6700e-01	9.3387	15.391303	0.000539	5.387030	0.912588	0.010776
 936	4.6750e-01	9.3481	15.422519	0.000312	3.121057	0.528721	0.006243
 937	4.6800e-01	9.3604	15.463144	0.000406	4.061650	0.688062	0.008125
 938	4.6850e-01	9.3665	15.493933	0.000308	3.078303	0.521479	0.006158
 939	4.6900e-01	9.3781	15.554228	0.000603	6.028344	1.021229	0.012059
 940	4.6950e-01	9.3898	15.577320	0.000231	2.308727	0.391109	0.004618
 941	4.7000e-01	9.3988	15.627779	0.000504	5.044997	0.854646	0.010092
 942	4.7050e-01	9.4067	15.668404	0.000406	4.061650	0.688062	0.008125
 943	4.7100e-01	9.4208	15.706035	0.000376	3.762370	0.637363	0.007526
 944	4.7150e-01	9.4269	15.748797	0.000428	4.275421	0.724276	0.008553
 945	4.7200e-01	9.4385	15.797119	0.000483	4.831226	0.818432	0.009664
 946	4.7250e-01	9.4507	15.848006	0.000509	5.087751	0.861888	0.010177
 947	4.7300e-01	9.4598	15.862973	0.000150	1.496397	0.253497	0.002993
 948	4.7350e-01	9.4696	15.910440	0.000475	4.745717	0.803946	0.009493
 949	4.7400e-01	9.4788	15.961327	0.000509	5.087751	0.861888	0.010177
 950	4.7450e-01	9.4885	16.019912	0.000586	5.857327	0.992258	0.011717
 951	4.7500e-01	9.5003	16.063530	0.000436	4.360929	0.738761	0.008724
 952	4.7550e-01	9.5087	16.097740	0.000342	3.420337	0.579421	0.006842
 953	4.7600e-01	9.5197	16.146917	0.000492	4.916734	0.832917	0.009835
 954	4.7650e-01	9.5265	16.164022	0.000171	1.710168	0.289710	0.003421
 955	4.7700e-01	9.5380	16.209777	0.000457	4.574700	0.774975	0.009151
 956	4.7750e-01	9.5496	16.265369	0.000556	5.558047	0.941559	0.011118
 957	4.7800e-01	9.5587	16.306421	0.000410	4.104404	0.695305	0.008210
 958	4.7850e-01	9.5685	16.360302	0.000539	5.387030	0.912588	0.010776
 959	4.7900e-01	9.5764	16.397933	0.000376	3.762370	0.637363	0.007526
 960	4.7950e-01	9.5892	16.444116	0.000462	4.617455	0.782218	0.009237
 961	4.8000e-01	9.5978	16.483030	0.000389	3.890633	0.659091	0.007783
 962	4.8050e-01	9.6057	16.512109	0.000291	2.907286	0.492508	0.005816
 963	4.8100e-01	9.6185	16.557437	0.000453	4.531946	0.767732	0.009066
 964	4.8150e-01	9.6277	16.622008	0.000646	6.455886	1.093657	0.012914
 965	4.8200e-01	9.6411	16.656218	0.000342	3.420337	0.579421	0.006842
 966	4.8250e-01	9.6466	16.703685	0.000475	4.745717	0.803946	0.009493
 967	4.8300e-01	9.6564	16.763552	0.000599	5.985589	1.013986	0.011974
 968	4.8350e-01	9.6667	16.798190	0.000346	3.463091	0.586663	0.006928
 969	4.8400e-01	9.6771	16.849505	0.000513	5.130505	0.869131	0.010263
 970	4.8450e-01	9.6887	16.882004	0.000325	3.249320	0.550450	0.006500
 971	4.8500e-01	9.6985	16.928616	0.000466	4.660209	0.789461	0.009322
 972	4.8550e-01	9.7083	16.966674	0.000381	3.805125	0.644606	0.007612
 973	4.8600e-01	9.7180	17.023976	0.000573	5.729064	0.970530	0.011460
 974	4.8650e-01	9.7296	17.073581	0.000496	4.959488	0.840160	0.009921
 975	4.8700e-01	9.7369	17.123613	0.000500	5.002243	0.847403	0.010006
 976	4.8750e-01	9.7464	17.159106	0.000355	3.548599	0.601149	0.007099
 977	4.8800e-01	9.7577	17.205717	0.000466	4.660209	0.789461	0.009322
 978	4.8850e-01	9.7681	17.258315	0.000526	5.258768	0.890859	0.010520
 979	4.8900e-01	9.7760	17.279268	0.000209	2.094956	0.354895	0.004191
 980	4.8950e-01	9.7885	17.342129	0.000628	6.284869	1.064686	0.012572
 981	4.9000e-01	9.7974	17.386602	0.000445	4.446438	0.753247	0.008895
 982	4.9050e-01	9.8083	17.436634	0.000500	5.002243	0.847403	0.010006
 983	4.9100e-01	9.8187	17.487522	0.000509	5.087751	0.861888	0.010177
 984	4.9150e-01	9.8279	17.529429	0.000419	4.189913	0.709790	0.008381
 985	4.9200e-01	9.8386	17.573474	0.000440	4.403684	0.746004	0.008809
 986	4.9250e-01	9.8486	17.623507	0.000500	5.002243	0.847403	0.010006
 987	4.9300e-01	9.8599	17.657289	0.000338	3.377583	0.572178	0.006756
 988	4.9350e-01	9.8676	17.717584	0.000603	6.028344	1.021229	0.012059
 989	4.9400e-01	9.8767	17.759064	0.000415	4.147158	0.702548	0.008296
 990	4.9450e-01	9.8871	17.809951	0.000509	5.087751	0.861888	0.010177
 991	4.9500e-01	9.8993	17.859128	0.000492	4.916734	0.832917	0.009835
 992	4.9550e-01	9.9060	17.892483	0.000333	3.334828	0.564935	0.006671
 993	4.9600e-01	9.9170	17.943370	0.000509	5.087751	0.861888	0.010177
 994	4.9650e-01	9.9295	17.983567	0.000402	4.018896	0.680819	0.008039
 995	4.9700e-01	9.9365	18.047283	0.000637	6.370377	1.079171	0.012743
 996	4.9750e-01	9.9463	18.088763	0.000415	4.147158	0.702548	0.008296
 997	4.9800e-01	9.9573	18.138367	0.000496	4.959488	0.840160	0.009921
 998	4.9850e-01	9.9689	18.161032	0.000227	2.265973	0.383866	0.004533
 999	4.9900e-01	9.9792	18.227314	0.000663	6.626902	1.122628	0.013256
1000	4.9950e-01	9.9866	18.269648	0.000423	4.232667	0.717033	0.008467
1001	5.0000e-01	9.9999	18.332082	0.000624	6.242115	1.057443	0.012487
1002	5.0050e-01	9.9884	18.300865	0.000312	3.121057	0.528721	-0.006243
1003	5.0100e-01	9.9762	18.320536	-0.000197	-1.966694	-0.333167	0.003934
1004	5.0150e-01	9.9664	18.321819	-0.000013	-0.128263	-0.021728	0.000257
1005	5.0200e-01	9.9585	18.317115	0.000047	0.470296	0.079670	-0.000941
1006	5.0250e-01	9.9490	18.317542	-0.000004	-0.042754	-0.007243	0.000086
1007	5.0300e-01	9.9365	18.335075	-0.000175	-1.752923	-0.296953	0.003507
1008	5.0350e-01	9.9268	18.297872	0.000372	3.719616	0.630120	-0.007441
1009	5.0400e-01	9.9161	18.314549	-0.000167	-1.667414	-0.282468	0.003335
1010	5.0450e-01	9.9078	18.299155	0.000154	1.539152	0.260739	-0.003079
1011	5.0500e-01	9.8975	18.303003	-0.000038	-0.384788	-0.065185	0.000770
1012	5.0550e-01	9.8862	18.314121	-0.000111	-1.111609	-0.188312	0.002224
1013	5.0600e-01	9.8767	18.297444	0.000167	1.667414	0.282468	-0.003335
1014	5.0650e-01	9.8657	18.287609	0.000098	0.983347	0.166583	-0.001967
1015	5.0700e-01	9.8560	18.315404	-0.000278	-2.779024	-0.470779	0.005559
1016	5.0750e-01	9.8462	18.302576	0.000128	1.282626	0.217283	-0.002566
1017	5.0800e-01	9.8358	18.277773	0.000248	2.479744	0.420080	-0.004960
1018	5.0850e-01	9.8273	18.268366	0.000094	0.940593	0.159341	-0.001882
1019	5.0900e-01	9.8151	18.287609	-0.000192	-1.923939	-0.325924	0.003849
1020	5.0950e-01	9.8071	18.294451	-0.000068	-0.684067	-0.115884	0.001368
1021	5.1000e-01	9.7980	18.291885	0.000026	0.256525	0.043457	-0.000513
1022	5.1050e-01	9.7888	18.265372	0.000265	2.650761	0.449051	-0.005303
1023	5.1100e-01	9.7772	18.270076	-0.000047	-0.470296	-0.079670	0.000941
1024	5.1150e-01	9.7656	18.267083	0.000030	0.299279	0.050699	-0.000599
1025	5.1200e-01	9.7571	18.253826	0.000133	1.325380	0.224526	-0.002651
1026	5.1250e-01	9.7455	18.246557	0.000073	0.726822	0.123127	-0.001454
1027	5.1300e-01	9.7369	18.238859	0.000077	0.769576	0.130370	-0.001539
1028	5.1350e-01	9.7260	18.215340	0.000235	2.351482	0.398352	-0.004704
1029	5.1400e-01	9.7180	18.238859	-0.000235	-2.351482	-0.398352	0.004704
1030	5.1450e-01	9.7040	18.231162	0.000077	0.769576	0.130370	-0.001539
1031	5.1500e-01	9.6997	18.207215	0.000239	2.394236	0.405595	-0.004789
1032	5.1550e-01	9.6875	18.216623	-0.000094	-0.940593	-0.159341	0.001882
1033	5.1600e-01	9.6756	18.205077	0.000115	1.154364	0.195554	-0.002309
1034	5.1650e-01	9.6655	18.176426	0.000286	2.864532	0.485265	-0.005730
1035	5.1700e-01	9.6600	18.176426	-0.000000	-0.000000	-0.000000	0.000000
1036	5.1750e-01	9.6481	18.174288	0.000021	0.213771	0.036214	-0.000428
1037	5.1800e-01	9.6338	18.165308	0.000090	0.897838	0.152098	-0.001796
1038	5.1850e-01	9.6246	18.166163	-0.000009	-0.085508	-0.014486	0.000171
1039	5.1900e-01	9.6155	18.150769	0.000154	1.539152	0.260739	-0.003079
1040	5.1950e-01	9.6071	18.149486	0.000013	0.128263	0.021728	-0.000257
1041	5.2000e-01	9.5966	18.137940	0.000115	1.154364	0.195554	-0.002309
1042	5.2050e-01	9.5868	18.116559	0.000214	2.137710	0.362138	-0.004276
1043	5.2100e-01	9.5746	18.107151	0.000094	0.940593	0.159341	-0.001882
1044	5.2150e-01	9.5648	18.102019	0.000051	0.513051	0.086913	-0.001026
1045	5.2200e-01	9.5551	18.084059	0.000180	1.795677	0.304196	-0.003592
1046	5.2250e-01	9.5465	18.082349	0.000017	0.171017	0.028971	-0.000342
1047	5.2300e-01	9.5380	18.062250	0.000201	2.009448	0.340410	-0.004020
1048	5.2350e-01	9.5239	18.051560	0.000107	1.068855	0.181069	-0.002138
1049	5.2400e-01	9.5166	18.054553	-0.000030	-0.299279	-0.050699	0.000599
1050	5.2450e-01	9.5068	18.026330	0.000282	2.821778	0.478022	-0.005645
1051	5.2500e-01	9.4965	18.023336	0.000030	0.299279	0.050699	-0.000599
1052	5.2550e-01	9.4876	18.007514	0.000158	1.581906	0.267982	-0.003164
1053	5.2600e-01	9.4769	18.019488	-0.000120	-1.197118	-0.202797	0.002395
1054	5.2650e-01	9.4672	17.982712	0.000368	3.676862	0.622877	-0.007355
1055	5.2700e-01	9.4568	17.994258	-0.000115	-1.154364	-0.195554	0.002309
1056	5.2750e-01	9.4470	17.966890	0.000274	2.736269	0.463537	-0.005474
1057	5.2800e-01	9.4391	17.944653	0.000222	2.223219	0.376623	-0.004447
1058	5.2850e-01	9.4275	17.932252	0.000124	1.239872	0.210040	-0.002480
1059	5.2900e-01	9.4186	17.912581	0.000197	1.966694	0.333167	-0.003934
1060	5.2950e-01	9.4037	17.893766	0.000188	1.881185	0.318681	-0.003763
1061	5.3000e-01	9.3982	17.900608	-0.000068	-0.684067	-0.115884	0.001368
1062	5.3050e-01	9.3854	17.872812	0.000278	2.779024	0.470779	-0.005559
1063	5.3100e-01	9.3793	17.880082	-0.000073	-0.726822	-0.123127	0.001454
1064	5.3150e-01	9.3677	17.855280	0.000248	2.479744	0.420080	-0.004960
1065	5.3200e-01	9.3556	17.855280	-0.000000	-0.000000	-0.000000	0.000000
1066	5.3250e-01	9.3463	17.834754	0.000205	2.052202	0.347652	-0.004105
1067	5.3300e-01	9.3347	17.803537	0.000312	3.121057	0.528721	-0.006243
1068	5.3350e-01	9.3250	17.808241	-0.000047	-0.470296	-0.079670	0.000941
1069	5.3400e-01	9.3140	17.789425	0.000188	1.881185	0.318681	-0.003763
1070	5.3450e-01	9.3079	17.771465	0.000180	1.795677	0.304196	-0.003592
1071	5.3500e-01	9.2969	17.766761	0.000047	0.470296	0.079670	-0.000941
1072	5.3550e-01	9.2847	17.722716	0.000440	4.403684	0.746004	-0.008809
1073	5.3600e-01	9.2749	17.733834	-0.000111	-1.111609	-0.188312	0.002224
1074	5.3650e-01	9.2670	17.703473	0.000304	3.035549	0.514236	-0.006072
1075	5.3700e-01	9.2542	17.713736	-0.000103	-1.026101	-0.173826	0.002053
1076	5.3750e-01	9.2505	17.674822	0.000389	3.890633	0.659091	-0.007783
1077	5.3800e-01	9.2352	17.664131	0.000107	1.068855	0.181069	-0.002138
1078	5.3850e-01	9.2267	17.652158	0.000120	1.197118	0.202797	-0.002395
1079	5.3900e-01	9.2163	17.661565	-0.000094	-0.940593	-0.159341	0.001882
1080	5.3950e-01	9.2072	17.630349	0.000312	3.121057	0.528721	-0.006243
1081	5.4000e-01	9.1986	17.591862	0.000385	3.847879	0.651848	-0.007697
1082	5.4050e-01	9.1852	17.594000	-0.000021	-0.213771	-0.036214	0.000428
1083	5.4100e-01	9.1760	17.581172	0.000128	1.282626	0.217283	-0.002566
1084	5.4150e-01	9.1675	17.569626	0.000115	1.154364	0.195554	-0.002309
1085	5.4200e-01	9.1589	17.564494	0.000051	0.513051	0.086913	-0.001026
1086	5.4250e-01	9.1455	17.524298	0.000402	4.018896	0.680819	-0.008039
1087	5.4300e-01	9.1359	17.517456	0.000068	0.684067	0.115884	-0.001368
1088	5.4350e-01	9.1266	17.502916	0.000145	1.453643	0.246254	-0.002908
1089	5.4400e-01	9.1162	17.484101	0.000188	1.881185	0.318681	-0.003763
1090	5.4450e-01	9.1077	17.469562	0.000145	1.453643	0.246254	-0.002908
1091	5.4500e-01	9.0958	17.448180	0.000214	2.137710	0.362138	-0.004276
1092	5.4550e-01	9.0884	17.418674	0.000295	2.950040	0.499750	-0.005901
1093	5.4600e-01	9.0796	17.404562	0.000141	1.410889	0.239011	-0.002822
1094	5.4650e-01	9.0662	17.398576	0.000060	0.598559	0.101399	-0.001197
1095	5.4700e-01	9.0540	17.384036	0.000145	1.453643	0.246254	-0.002908
1096	5.4750e-01	9.0454	17.366076	0.000180	1.795677	0.304196	-0.003592
1097	5.4800e-01	9.0369	17.316472	0.000496	4.959488	0.840160	-0.009921
1098	5.4850e-01	9.0277	17.319893	-0.000034	-0.342034	-0.057942	0.000684
1099	5.4900e-01	9.0179	17.312623	0.000073	0.726822	0.123127	-0.001454
1100	5.4950e-01	9.0070	17.280551	0.000321	3.206566	0.543207	-0.006414
1101	5.5000e-01	8.9978	17.260025	0.000205	2.052202	0.347652	-0.004105
1102	5.5050e-01	8.9862	17.260453	-0.000004	-0.042754	-0.007243	0.000086
1103	5.5100e-01	8.9758	17.247624	0.000128	1.282626	0.217283	-0.002566
1104	5.5150e-01	8.9679	17.236078	0.000115	1.154364	0.195554	-0.002309
1105	5.5200e-01	8.9600	17.198447	0.000376	3.762370	0.637363	-0.007526
1106	5.5250e-01	8.9459	17.177921	0.000205	2.052202	0.347652	-0.004105
1107	5.5300e-01	8.9368	17.176211	0.000017	0.171017	0.028971	-0.000342
1108	5.5350e-01	8.9288	17.139007	0.000372	3.719616	0.630120	-0.007441
1109	5.5400e-01	8.9160	17.120192	0.000188	1.881185	0.318681	-0.003763
1110	5.5450e-01	8.9075	17.101376	0.000188	1.881185	0.318681	-0.003763
1111	5.5500e-01	8.8983	17.085126	0.000162	1.624660	0.275225	-0.003250
1112	5.5550e-01	8.8892	17.074436	0.000107	1.068855	0.181069	-0.002138
1113	5.5600e-01	8.8773	17.042364	0.000321	3.206566	0.543207	-0.006414
1114	5.5650e-01	8.8654	17.042364	-0.000000	-0.000000	-0.000000	0.000000
1115	5.5700e-01	8.8562	17.011147	0.000312	3.121057	0.528721	-0.006243
1116	5.5750e-01	8.8458	16.996180	0.000150	1.496397	0.253497	-0.002993
1117	5.5800e-01	8.8385	16.986773	0.000094	0.940593	0.159341	-0.001882
1118	5.5850e-01	8.8245	16.964964	0.000218	2.180465	0.369381	-0.004362
1119	5.5900e-01	8.8141	16.948714	0.000162	1.624660	0.275225	-0.003250
1120	5.5950e-01	8.8080	16.925622	0.000231	2.308727	0.391109	-0.004618
1121	5.6000e-01	8.7964	16.908517	0.000171	1.710168	0.289710	-0.003421
1122	5.6050e-01	8.7866	16.888419	0.000201	2.009448	0.340410	-0.004020
1123	5.6100e-01	8.7775	16.864044	0.000244	2.436990	0.412837	-0.004875
1124	5.6150e-01	8.7659	16.831545	0.000325	3.249320	0.550450	-0.006500
1125	5.6200e-01	8.7573	16.826841	0.000047	0.470296	0.079670	-0.000941
1126	5.6250e-01	8.7476	16.785789	0.000410	4.104404	0.695305	-0.008210
1127	5.6300e-01	8.7378	16.772532	0.000133	1.325380	0.224526	-0.002651
1128	5.6350e-01	8.7268	16.779802	-0.000073	-0.726822	-0.123127	0.001454
1129	5.6400e-01	8.7164	16.738322	0.000415	4.147158	0.702548	-0.008296
1130	5.6450e-01	8.7073	16.711810	0.000265	2.650761	0.449051	-0.005303
1131	5.6500e-01	8.6975	16.705823	0.000060	0.598559	0.101399	-0.001197
1132	5.6550e-01	8.6877	16.671185	0.000346	3.463091	0.586663	-0.006928
1133	5.6600e-01	8.6792	16.667337	0.000038	0.384788	0.065185	-0.000770
1134	5.6650e-01	8.6670	16.633554	0.000338	3.377583	0.572178	-0.006756
1135	5.6700e-01	8.6566	16.622008	0.000115	1.154364	0.195554	-0.002309
1136	5.6750e-01	8.6499	16.586943	0.000351	3.505845	0.593906	-0.007013
1137	5.6800e-01	8.6359	16.579673	0.000073	0.726822	0.123127	-0.001454
1138	5.6850e-01	8.6261	16.568127	0.000115	1.154364	0.195554	-0.002309
1139	5.6900e-01	8.6182	16.549312	0.000188	1.881185	0.318681	-0.003763
1140	5.6950e-01	8.6066	16.512536	0.000368	3.676862	0.622877	-0.007355
1141	5.7000e-01	8.5974	16.502701	0.000098	0.983347	0.166583	-0.001967
1142	5.7050e-01	8.5861	16.480464	0.000222	2.223219	0.376623	-0.004447
1143	5.7100e-01	8.5803	16.455662	0.000248	2.479744	0.420080	-0.004960
1144	5.7150e-01	8.5675	16.432570	0.000231	2.308727	0.391109	-0.004618
1145	5.7200e-01	8.5577	16.418459	0.000141	1.410889	0.239011	-0.002822
1146	5.7250e-01	8.5468	16.394084	0.000244	2.436990	0.412837	-0.004875
1147	5.7300e-01	8.5394	16.377834	0.000162	1.624660	0.275225	-0.003250
1148	5.7350e-01	8.5287	16.342769	0.000351	3.505845	0.593906	-0.007013
1149	5.7400e-01	8.5168	16.333361	0.000094	0.940593	0.159341	-0.001882
1150	5.7450e-01	8.5077	16.325236	0.000081	0.812330	0.137612	-0.001625
1151	5.7500e-01	8.4991	16.282474	0.000428	4.275421	0.724276	-0.008553
1152	5.7550e-01	8.4875	16.263658	0.000188	1.881185	0.318681	-0.003763
1153	5.7600e-01	8.4772	16.249547	0.000141	1.410889	0.239011	-0.002822
1154	5.7650e-01	8.4668	16.213198	0.000363	3.634108	0.615635	-0.007270
1155	5.7700e-01	8.4570	16.212771	0.000004	0.042754	0.007243	-0.000086
1156	5.7750e-01	8.4473	16.181127	0.000316	3.163812	0.535964	-0.006329
1157	5.7800e-01	8.4387	16.159745	0.000214	2.137710	0.362138	-0.004276
1158	5.7850e-01	8.4290	16.134943	0.000248	2.479744	0.420080	-0.004960
1159	5.7900e-01	8.4186	16.103726	0.000312	3.121057	0.528721	-0.006243
1160	5.7950e-01	8.4103	16.086621	0.000171	1.710168	0.289710	-0.003421
1161	5.8000e-01	8.3990	16.075503	0.000111	1.111609	0.188312	-0.002224
1162	5.8050e-01	8.3875	16.043431	0.000321	3.206566	0.543207	-0.006414
1163	5.8100e-01	8.3771	16.028892	0.000145	1.453643	0.246254	-0.002908
1164	5.8150e-01	8.3698	15.995110	0.000338	3.377583	0.572178	-0.006756
1165	5.8200e-01	8.3575	15.974156	0.000209	2.094956	0.354895	-0.004191
1166	5.8250e-01	8.3459	15.949781	0.000244	2.436990	0.412837	-0.004875
1167	5.8300e-01	8.3368	15.958334	-0.000086	-0.855084	-0.144855	0.001711
1168	5.8350e-01	8.3264	15.915144	0.000432	4.318175	0.731519	-0.008638
1169	5.8400e-01	8.3173	15.900604	0.000145	1.453643	0.246254	-0.002908
1170	5.8450e-01	8.3089	15.868105	0.000325	3.249320	0.550450	-0.006500
1171	5.8500e-01	8.2977	15.840737	0.000274	2.736269	0.463537	-0.005474
1172	5.8550e-01	8.2880	15.833467	0.000073	0.726822	0.123127	-0.001454
1173	5.8600e-01	8.2751	15.816790	0.000167	1.667414	0.282468	-0.003335
1174	5.8650e-01	8.2669	15.785573	0.000312	3.121057	0.528721	-0.006243
1175	5.8700e-01	8.2568	15.765047	0.000205	2.052202	0.347652	-0.004105
1176	5.8750e-01	8.2495	15.748797	0.000162	1.624660	0.275225	-0.003250
1177	5.8800e-01	8.2376	15.728699	0.000201	2.009448	0.340410	-0.004020
1178	5.8850e-01	8.2242	15.682943	0.000457	4.574700	0.774975	-0.009151
1179	5.8900e-01	8.2166	15.653437	0.000295	2.950040	0.499750	-0.005901
1180	5.8950e-01	8.2068	15.653437	-0.000000	-0.000000	-0.000000	0.000000
1181	5.9000e-01	8.1961	15.642746	0.000107	1.068855	0.181069	-0.002138
1182	5.9050e-01	8.1860	15.596990	0.000457	4.574700	0.774975	-0.009151
1183	5.9100e-01	8.1807	15.563636	0.000333	3.334828	0.564935	-0.006671
1184	5.9150e-01	8.1653	15.562353	0.000013	0.128263	0.021728	-0.000257
1185	5.9200e-01	8.1561	15.541399	0.000209	2.094956	0.354895	-0.004191
1186	5.9250e-01	8.1470	15.521301	0.000201	2.009448	0.340410	-0.004020
1187	5.9300e-01	8.1363	15.497354	0.000239	2.394236	0.405595	-0.004789
1188	5.9350e-01	8.1302	15.479821	0.000175	1.752923	0.296953	-0.003507
1189	5.9400e-01	8.1177	15.456302	0.000235	2.351482	0.398352	-0.004704
1190	5.9450e-01	8.1085	15.417388	0.000389	3.890633	0.659091	-0.007783
1191	5.9500e-01	8.0969	15.398145	0.000192	1.923939	0.325924	-0.003849
1192	5.9550e-01	8.0884	15.388309	0.000098	0.983347	0.166583	-0.001967
1193	5.9600e-01	8.0762	15.358803	0.000295	2.950040	0.499750	-0.005901
1194	5.9650e-01	8.0685	15.323310	0.000355	3.548599	0.601149	-0.007099
1195	5.9700e-01	8.0548	15.305350	0.000180	1.795677	0.304196	-0.003592
1196	5.9750e-01	8.0472	15.290383	0.000150	1.496397	0.253497	-0.002993
1197	5.9800e-01	8.0379	15.260877	0.000295	2.950040	0.499750	-0.005901
1198	5.9850e-01	8.0273	15.254890	0.000060	0.598559	0.101399	-0.001197
1199	5.9900e-01	8.0179	15.211700	0.000432	4.318175	0.731519	-0.008638
1200	5.9950e-01	8.0066	15.183477	0.000282	2.821778	0.478022	-0.005645
1201	6.0000e-01	7.9962	15.180056	0.000034	0.342034	0.057942	-0.000684
1202	6.0050e-01	7.9871	15.144991	0.000351	3.505845	0.593906	-0.007013
1203	6.0100e-01	7.9767	15.103939	0.000410	4.104404	0.695305	-0.008210
1204	6.0150e-01	7.9663	15.093248	0.000107	1.068855	0.181069	-0.002138
1205	6.0200e-01	7.9572	15.085123	0.000081	0.812330	0.137612	-0.001625
1206	6.0250e-01	7.9468	15.050058	0.000351	3.505845	0.593906	-0.007013
1207	6.0300e-01	7.9376	15.023973	0.000261	2.608007	0.441808	-0.005217
1208	6.0350e-01	7.9272	15.005585	0.000184	1.838431	0.311439	-0.003678
1209	6.0400e-01	7.9175	14.982921	0.000227	2.265973	0.383866	-0.004533
1210	6.0450e-01	7.9068	14.963250	0.000197	1.966694	0.333167	-0.003934
1211	6.0500e-01	7.8967	14.928185	0.000351	3.505845	0.593906	-0.007013
1212	6.0550e-01	7.8860	14.915356	0.000128	1.282626	0.217283	-0.002566
1213	6.0600e-01	7.8760	14.880290	0.000351	3.505845	0.593906	-0.007013
1214	6.0650e-01	7.8671	14.886705	-0.000064	-0.641313	-0.108641	0.001283
1215	6.0700e-01	7.8571	14.839238	0.000475	4.745717	0.803946	-0.009493
1216	6.0750e-01	7.8461	14.816574	0.000227	2.265973	0.383866	-0.004533
1217	6.0800e-01	7.8363	14.799469	0.000171	1.710168	0.289710	-0.003421
1218	6.0850e-01	7.8290	14.760555	0.000389	3.890633	0.659091	-0.007783
1219	6.0900e-01	7.8174	14.737891	0.000227	2.265973	0.383866	-0.004533
1220	6.0950e-01	7.8052	14.718648	0.000192	1.923939	0.325924	-0.003849
1221	6.1000e-01	7.7972	14.704109	0.000145	1.453643	0.246254	-0.002908
1222	6.1050e-01	7.7838	14.672037	0.000321	3.206566	0.543207	-0.006414
1223	6.1100e-01	7.7753	14.660491	0.000115	1.154364	0.195554	-0.002309
1224	6.1150e-01	7.7661	14.614308	0.000462	4.617455	0.782218	-0.009237
1225	6.1200e-01	7.7576	14.577104	0.000372	3.719616	0.630120	-0.007441
1226	6.1250e-01	7.7454	14.572400	0.000047	0.470296	0.079670	-0.000941
1227	6.1300e-01	7.7380	14.549309	0.000231	2.308727	0.391109	-0.004618
1228	6.1350e-01	7.7280	14.557006	-0.000077	-0.769576	-0.130370	0.001539
1229	6.1400e-01	7.7136	14.517664	0.000393	3.933387	0.666334	-0.007868
1230	6.1450e-01	7.7072	14.481316	0.000363	3.634108	0.615635	-0.007270
1231	6.1500e-01	7.6959	14.460362	0.000209	2.094956	0.354895	-0.004191
1232	6.1550e-01	7.6868	14.431712	0.000286	2.864532	0.485265	-0.005730
1233	6.1600e-01	7.6746	14.406909	0.000248	2.479744	0.420080	-0.004960
1234	6.1650e-01	7.6648	14.377403	0.000295	2.950040	0.499750	-0.005901
1235	6.1700e-01	7.6575	14.357732	0.000197	1.966694	0.333167	-0.003934
1236	6.1750e-01	7.6465	14.341910	0.000158	1.581906	0.267982	-0.003164
1237	6.1800e-01	7.6367	14.301713	0.000402	4.018896	0.680819	-0.008039
1238	6.1850e-01	7.6257	14.262800	0.000389	3.890633	0.659091	-0.007783
1239	6.1900e-01	7.6199	14.258523	0.000043	0.427542	0.072428	-0.000855
1240	6.1950e-01	7.6050	14.222175	0.000363	3.634108	0.615635	-0.007270
1241	6.2000e-01	7.5983	14.217471	0.000047	0.470296	0.079670	-0.000941
1242	6.2050e-01	7.5856	14.178130	0.000393	3.933387	0.666334	-0.007868
1243	6.2100e-01	7.5787	14.161452	0.000167	1.667414	0.282468	-0.003335
1244	6.2150e-01	7.5665	14.152900	0.000086	0.855084	0.144855	-0.001711
1245	6.2200e-01	7.5555	14.127670	0.000252	2.522498	0.427323	-0.005046
1246	6.2250e-01	7.5500	14.093460	0.000342	3.420337	0.579421	-0.006842
1247	6.2300e-01	7.5360	14.047276	0.000462	4.617455	0.782218	-0.009237
1248	6.2350e-01	7.5281	14.040862	0.000064	0.641313	0.108641	-0.001283
1249	6.2400e-01	7.5177	14.011784	0.000291	2.907286	0.492508	-0.005816
1250	6.2450e-01	7.5050	13.998100	0.000137	1.368135	0.231768	-0.002737
1251	6.2500e-01	7.4963	13.946785	0.000513	5.130505	0.869131	-0.010263
1252	6.2550e-01	7.4884	13.935666	0.000111	1.111609	0.188312	-0.002224
1253	6.2600e-01	7.4792	13.915568	0.000201	2.009448	0.340410	-0.004020
1254	6.2650e-01	7.4634	13.901884	0.000137	1.368135	0.231768	-0.002737
1255	6.2700e-01	7.4576	13.883068	0.000188	1.881185	0.318681	-0.003763
1256	6.2750e-01	7.4475	13.841161	0.000419	4.189913	0.709790	-0.008381
1257	6.2800e-01	7.4384	13.829615	0.000115	1.154364	0.195554	-0.002309
1258	6.2850e-01	7.4274	13.777445	0.000522	5.216014	0.883617	-0.010434
1259	6.2900e-01	7.4164	13.762906	0.000145	1.453643	0.246254	-0.002908
1260	6.2950e-01	7.4072	13.748366	0.000145	1.453643	0.246254	-0.002908
1261	6.3000e-01	7.3975	13.714156	0.000342	3.420337	0.579421	-0.006842
1262	6.3050e-01	7.3840	13.693630	0.000205	2.052202	0.347652	-0.004105
1263	6.3100e-01	7.3779	13.689354	0.000043	0.427542	0.072428	-0.000855
1264	6.3150e-01	7.3664	13.632908	0.000564	5.643556	0.956044	-0.011289
1265	6.3200e-01	7.3553	13.611526	0.000214	2.137710	0.362138	-0.004276
1266	6.3250e-01	7.3486	13.589290	0.000222	2.223219	0.376623	-0.004447
1267	6.3300e-01	7.3370	13.556363	0.000329	3.292074	0.557692	-0.006585
1268	6.3350e-01	7.3280	13.544389	0.000120	1.197118	0.202797	-0.002395
1269	6.3400e-01	7.3145	13.521725	0.000227	2.265973	0.383866	-0.004533
1270	6.3450e-01	7.3074	13.484949	0.000368	3.676862	0.622877	-0.007355
1271	6.3500e-01	7.2943	13.461430	0.000235	2.351482	0.398352	-0.004704
1272	6.3550e-01	7.2858	13.430213	0.000312	3.121057	0.528721	-0.006243
1273	6.3600e-01	7.2766	13.382319	0.000479	4.788471	0.811189	-0.009579
1274	6.3650e-01	7.2675	13.397714	-0.000154	-1.539152	-0.260739	0.003079
1275	6.3700e-01	7.2546	13.337846	0.000599	5.985589	1.013986	-0.011974
1276	6.3750e-01	7.2449	13.341695	-0.000038	-0.384788	-0.065185	0.000770
1277	6.3800e-01	7.2375	13.322024	0.000197	1.966694	0.333167	-0.003934
1278	6.3850e-01	7.2275	13.269854	0.000522	5.216014	0.883617	-0.010434
1279	6.3900e-01	7.2174	13.261729	0.000081	0.812330	0.137612	-0.001625
1280	6.3950e-01	7.2064	13.211269	0.000504	5.044997	0.854646	-0.010092
1281	6.4000e-01	7.1960	13.209131	0.000021	0.213771	0.036214	-0.000428
1282	6.4050e-01	7.1863	13.190743	0.000184	1.838431	0.311439	-0.003678
1283	6.4100e-01	7.1753	13.147125	0.000436	4.360929	0.738761	-0.008724
1284	6.4150e-01	7.1643	13.133869	0.000133	1.325380	0.224526	-0.002651
1285	6.4200e-01	7.1558	13.099231	0.000346	3.463091	0.586663	-0.006928
1286	6.4250e-01	7.1448	13.068015	0.000312	3.121057	0.528721	-0.006243
1287	6.4300e-01	7.1375	13.039791	0.000282	2.821778	0.478022	-0.005645
1288	6.4350e-01	7.1240	13.023114	0.000167	1.667414	0.282468	-0.003335
1289	6.4400e-01	7.1158	12.996174	0.000269	2.693515	0.456294	-0.005388
1290	6.4450e-01	7.1039	12.959825	0.000363	3.634108	0.615635	-0.007270
1291	6.4500e-01	7.0941	12.937589	0.000222	2.223219	0.376623	-0.004447
1292	6.4550e-01	7.0856	12.896109	0.000415	4.147158	0.702548	-0.008296
1293	6.4600e-01	7.0752	12.887557	0.000086	0.855084	0.144855	-0.001711
1294	6.4650e-01	7.0648	12.878149	0.000094	0.940593	0.159341	-0.001882
1295	6.4700e-01	7.0552	12.856340	0.000218	2.180465	0.369381	-0.004362
1296	6.4750e-01	7.0459	12.821275	0.000351	3.505845	0.593906	-0.007013
1297	6.4800e-01	7.0352	12.795617	0.000257	2.565253	0.434566	-0.005132
1298	6.4850e-01	7.0276	12.766966	0.000286	2.864532	0.485265	-0.005730
1299	6.4900e-01	7.0160	12.721638	0.000453	4.531946	0.767732	-0.009066
1300	6.4950e-01	7.0050	12.713086	0.000086	0.855084	0.144855	-0.001711
1301	6.5000e-01	6.9971	12.687856	0.000252	2.522498	0.427323	-0.005046
1302	6.5050e-01	6.9861	12.649369	0.000385	3.847879	0.651848	-0.007697
1303	6.5100e-01	6.9763	12.607035	0.000423	4.232667	0.717033	-0.008467
1304	6.5150e-01	6.9653	12.611738	-0.000047	-0.470296	-0.079670	0.000941
1305	6.5200e-01	6.9565	12.590357	0.000214	2.137710	0.362138	-0.004276
1306	6.5250e-01	6.9459	12.565555	0.000248	2.479744	0.420080	-0.004960
1307	6.5300e-01	6.9342	12.526213	0.000393	3.933387	0.666334	-0.007868
1308	6.5350e-01	6.9244	12.512957	0.000133	1.325380	0.224526	-0.002651
1309	6.5400e-01	6.9177	12.477892	0.000351	3.505845	0.593906	-0.007013
1310	6.5450e-01	6.9067	12.461642	0.000162	1.624660	0.275225	-0.003250
1311	6.5500e-01	6.8947	12.420590	0.000410	4.104404	0.695305	-0.008210
1312	6.5550e-01	6.8872	12.393650	0.000269	2.693515	0.456294	-0.005388
1313	6.5600e-01	6.8753	12.367564	0.000261	2.608007	0.441808	-0.005217
1314	6.5650e-01	6.8686	12.341907	0.000257	2.565253	0.434566	-0.005132
1315	6.5700e-01	6.8570	12.317532	0.000244	2.436990	0.412837	-0.004875
1316	6.5750e-01	6.8484	12.276053	0.000415	4.147158	0.702548	-0.008296
1317	6.5800e-01	6.8402	12.257237	0.000188	1.881185	0.318681	-0.003763
1318	6.5850e-01	6.8304	12.230724	0.000265	2.650761	0.449051	-0.005303
1319	6.5900e-01	6.8188	12.199508	0.000312	3.121057	0.528721	-0.006243
1320	6.5950e-01	6.8073	12.154607	0.000449	4.489192	0.760490	-0.008980
1321	6.6000e-01	6.7975	12.147337	0.000073	0.726822	0.123127	-0.001454
1322	6.6050e-01	6.7862	12.128522	0.000188	1.881185	0.318681	-0.003763
1323	6.6100e-01	6.7792	12.099016	0.000295	2.950040	0.499750	-0.005901
1324	6.6150e-01	6.7682	12.069510	0.000295	2.950040	0.499750	-0.005901
1325	6.6200e-01	6.7551	12.044707	0.000248	2.479744	0.420080	-0.004960
1326	6.6250e-01	6.7468	12.011353	0.000333	3.334828	0.564935	-0.006671
1327	6.6300e-01	6.7349	11.995530	0.000158	1.581906	0.267982	-0.003164
1328	6.6350e-01	6.7261	11.957044	0.000385	3.847879	0.651848	-0.007697
1329	6.6400e-01	6.7194	11.941650	0.000154	1.539152	0.260739	-0.003079
1330	6.6450e-01	6.7065	11.892900	0.000487	4.873980	0.825675	-0.009750
1331	6.6500e-01	6.6945	11.867670	0.000252	2.522498	0.427323	-0.005046
1332	6.6550e-01	6.6830	11.857835	0.000098	0.983347	0.166583	-0.001967
1333	6.6600e-01	6.6785	11.813790	0.000440	4.403684	0.746004	-0.008809
1334	6.6650e-01	6.6666	11.801816	0.000120	1.197118	0.202797	-0.002395
1335	6.6700e-01	6.6589	11.764613	0.000372	3.719616	0.630120	-0.007441
1336	6.6750e-01	6.6476	11.742376	0.000222	2.223219	0.376623	-0.004447
1337	6.6800e-01	6.6370	11.720995	0.000214	2.137710	0.362138	-0.004276
1338	6.6850e-01	6.6278	11.714153	0.000068	0.684067	0.115884	-0.001368
1339	6.6900e-01	6.6162	11.684647	0.000295	2.950040	0.499750	-0.005901
1340	6.6950e-01	6.6071	11.636753	0.000479	4.788471	0.811189	-0.009579
1341	6.7000e-01	6.5973	11.621786	0.000150	1.496397	0.253497	-0.002993
1342	6.7050e-01	6.5887	11.564912	0.000569	5.686310	0.963287	-0.011375
1343	6.7100e-01	6.5747	11.547807	0.000171	1.710168	0.289710	-0.003421
1344	6.7150e-01	6.5668	11.540537	0.000073	0.726822	0.123127	-0.001454
1345	6.7200e-01	6.5540	11.510176	0.000304	3.035549	0.514236	-0.006072
1346	6.7250e-01	6.5462	11.481097	0.000291	2.907286	0.492508	-0.005816
1347	6.7300e-01	6.5405	11.451163	0.000299	2.992795	0.506993	-0.005987
1348	6.7350e-01	6.5268	11.421230	0.000299	2.992795	0.506993	-0.005987
1349	6.7400e-01	6.5192	11.387447	0.000338	3.377583	0.572178	-0.006756
1350	6.7450e-01	6.5070	11.364355	0.000231	2.308727	0.391109	-0.004618
1351	6.7500e-01	6.4966	11.328007	0.000363	3.634108	0.615635	-0.007270
1352	6.7550e-01	6.4880	11.301495	0.000265	2.650761	0.449051	-0.005303
1353	6.7600e-01	6.4758	11.290804	0.000107	1.068855	0.181069	-0.002138
1354	6.7650e-01	6.4679	11.253601	0.000372	3.719616	0.630120	-0.007441
1355	6.7700e-01	6.4551	11.220673	0.000329	3.292074	0.557692	-0.006585
1356	6.7750e-01	6.4453	11.208272	0.000124	1.239872	0.210040	-0.002480
1357	6.7800e-01	6.4386	11.165082	0.000432	4.318175	0.731519	-0.008638
1358	6.7850e-01	6.4252	11.152253	0.000128	1.282626	0.217283	-0.002566
1359	6.7900e-01	6.4142	11.094096	0.000581	5.814573	0.985015	-0.011631
1360	6.7950e-01	6.4056	11.079557	0.000145	1.453643	0.246254	-0.002908
1361	6.8000e-01	6.3983	11.059886	0.000197	1.966694	0.333167	-0.003934
1362	6.8050e-01	6.3882	11.018834	0.000410	4.104404	0.695305	-0.008210
1363	6.8100e-01	6.3776	10.996170	0.000227	2.265973	0.383866	-0.004533
1364	6.8150e-01	6.3635	10.966664	0.000295	2.950040	0.499750	-0.005901
1365	6.8200e-01	6.3541	10.952552	0.000141	1.410889	0.239011	-0.002822
1366	6.8250e-01	6.3495	10.936303	0.000162	1.624660	0.275225	-0.003250
1367	6.8300e-01	6.3391	10.894395	0.000419	4.189913	0.709790	-0.008381
1368	6.8350e-01	6.3251	10.884132	0.000103	1.026101	0.173826	-0.002053
1369	6.8400e-01	6.3185	10.838804	0.000453	4.531946	0.767732	-0.009066
1370	6.8450e-01	6.3068	10.814429	0.000244	2.436990	0.412837	-0.004875
1371	6.8500e-01	6.2958	10.804166	0.000103	1.026101	0.173826	-0.002053
1372	6.8550e-01	6.2856	10.743444	0.000607	6.071098	1.028472	-0.012145
1373	6.8600e-01	6.2759	10.741305	0.000021	0.213771	0.036214	-0.000428
1374	6.8650e-01	6.2665	10.708378	0.000329	3.292074	0.557692	-0.006585
1375	6.8700e-01	6.2579	10.671603	0.000368	3.676862	0.622877	-0.007355
1376	6.8750e-01	6.2454	10.639531	0.000321	3.206566	0.543207	-0.006414
1377	6.8800e-01	6.2366	10.599334	0.000402	4.018896	0.680819	-0.008039
1378	6.8850e-01	6.2274	10.585650	0.000137	1.368135	0.231768	-0.002737
1379	6.8900e-01	6.2177	10.562558	0.000231	2.308727	0.391109	-0.004618
1380	6.8950e-01	6.2073	10.523644	0.000389	3.890633	0.659091	-0.007783
1381	6.9000e-01	6.1975	10.521078	0.000026	0.256525	0.043457	-0.000513
1382	6.9050e-01	6.1884	10.484730	0.000363	3.634108	0.615635	-0.007270
1383	6.9100e-01	6.1749	10.449237	0.000355	3.548599	0.601149	-0.007099
1384	6.9150e-01	6.1661	10.397067	0.000522	5.216014	0.883617	-0.010434
1385	6.9200e-01	6.1563	10.402199	-0.000051	-0.513051	-0.086913	0.001026
1386	6.9250e-01	6.1450	10.360719	0.000415	4.147158	0.702548	-0.008296
1387	6.9300e-01	6.1359	10.334634	0.000261	2.608007	0.441808	-0.005217
1388	6.9350e-01	6.1273	10.305128	0.000295	2.950040	0.499750	-0.005901
1389	6.9400e-01	6.1188	10.278615	0.000265	2.650761	0.449051	-0.005303
1390	6.9450e-01	6.1060	10.235425	0.000432	4.318175	0.731519	-0.008638
1391	6.9500e-01	6.0962	10.226445	0.000090	0.897838	0.152098	-0.001796
1392	6.9550e-01	6.0864	10.192662	0.000338	3.377583	0.572178	-0.006756
1393	6.9600e-01	6.0764	10.164011	0.000286	2.864532	0.485265	-0.005730
1394	6.9650e-01	6.0626	10.139209	0.000248	2.479744	0.420080	-0.004960
1395	6.9700e-01	6.0590	10.098585	0.000406	4.061650	0.688062	-0.008125
1396	6.9750e-01	6.0468	10.070789	0.000278	2.779024	0.470779	-0.005559
1397	6.9800e-01	6.0394	10.040000	0.000308	3.078303	0.521479	-0.006158
1398	6.9850e-01	6.0254	10.034441	0.000056	0.555805	0.094156	-0.001112
1399	6.9900e-01	6.0175	9.997665	0.000368	3.676862	0.622877	-0.007355
1400	6.9950e-01	6.0074	9.960462	0.000372	3.719616	0.630120	-0.007441
1401	7.0000e-01	5.9973	9.919837	0.000406	4.061650	0.688062	-0.008125
1402	7.0050e-01	5.9857	9.911712	0.000081	0.812330	0.137612	-0.001625
1403	7.0100e-01	5.9763	9.869378	0.000423	4.232667	0.717033	-0.008467
1404	7.0150e-01	5.9668	9.863818	0.000056	0.555805	0.094156	-0.001112
1405	7.0200e-01	5.9576	9.812076	0.000517	5.173259	0.876374	-0.010349
1406	7.0250e-01	5.9454	9.782142	0.000299	2.992795	0.506993	-0.005987
1407	7.0300e-01	5.9375	9.768886	0.000133	1.325380	0.224526	-0.002651
1408	7.0350e-01	5.9271	9.730827	0.000381	3.805125	0.644606	-0.007612
1409	7.0400e-01	5.9169	9.719281	0.000115	1.154364	0.195554	-0.002309
1410	7.0450e-01	5.9076	9.677374	0.000419	4.189913	0.709790	-0.008381
1411	7.0500e-01	5.8963	9.638032	0.000393	3.933387	0.666334	-0.007868
1412	7.0550e-01	5.8887	9.618361	0.000197	1.966694	0.333167	-0.003934
1413	7.0600e-01	5.8759	9.588428	0.000299	2.992795	0.506993	-0.005987
1414	7.0650e-01	5.8670	9.549086	0.000393	3.933387	0.666334	-0.007868
1415	7.0700e-01	5.8591	9.548659	0.000004	0.042754	0.007243	-0.000086
1416	7.0750e-01	5.8472	9.511883	0.000368	3.676862	0.622877	-0.007355
1417	7.0800e-01	5.8362	9.482804	0.000291	2.907286	0.492508	-0.005816
1418	7.0850e-01	5.8246	9.431062	0.000517	5.173259	0.876374	-0.010349
1419	7.0900e-01	5.8200	9.415667	0.000154	1.539152	0.260739	-0.003079
1420	7.0950e-01	5.8069	9.385306	0.000304	3.035549	0.514236	-0.006072
1421	7.1000e-01	5.7971	9.351523	0.000338	3.377583	0.572178	-0.006756
1422	7.1050e-01	5.7849	9.330142	0.000214	2.137710	0.362138	-0.004276
1423	7.1100e-01	5.7782	9.295504	0.000346	3.463091	0.586663	-0.006928
1424	7.1150e-01	5.7660	9.263433	0.000321	3.206566	0.543207	-0.006414
1425	7.1200e-01	5.7587	9.231788	0.000316	3.163812	0.535964	-0.006329
1426	7.1250e-01	5.7477	9.213400	0.000184	1.838431	0.311439	-0.003678
1427	7.1300e-01	5.7370	9.167217	0.000462	4.617455	0.782218	-0.009237
1428	7.1350e-01	5.7272	9.147974	0.000192	1.923939	0.325924	-0.003849
1429	7.1400e-01	5.7190	9.112908	0.000351	3.505845	0.593906	-0.007013
1430	7.1450e-01	5.7065	9.094093	0.000188	1.881185	0.318681	-0.003763
1431	7.1500e-01	5.6958	9.047482	0.000466	4.660209	0.789461	-0.009322
1432	7.1550e-01	5.6873	9.037646	0.000098	0.983347	0.166583	-0.001967
1433	7.1600e-01	5.6775	8.993173	0.000445	4.446438	0.753247	-0.008895
1434	7.1650e-01	5.6677	8.990608	0.000026	0.256525	0.043457	-0.000513
1435	7.1700e-01	5.6586	8.931168	0.000594	5.942835	1.006744	-0.011888
1436	7.1750e-01	5.6503	8.903800	0.000274	2.736269	0.463537	-0.005474
1437	7.1800e-01	5.6384	8.887978	0.000158	1.581906	0.267982	-0.003164
1438	7.1850e-01	5.6277	8.856333	0.000316	3.163812	0.535964	-0.006329
1439	7.1900e-01	5.6140	8.840083	0.000162	1.624660	0.275225	-0.003250
1440	7.1950e-01	5.6076	8.794328	0.000457	4.574700	0.774975	-0.009151
1441	7.2000e-01	5.5972	8.785775	0.000086	0.855084	0.144855	-0.001711
1442	7.2050e-01	5.5847	8.720776	0.000650	6.498640	1.100899	-0.013000
1443	7.2100e-01	5.5756	8.697684	0.000231	2.308727	0.391109	-0.004618
1444	7.2150e-01	5.5682	8.675020	0.000227	2.265973	0.383866	-0.004533
1445	7.2200e-01	5.5582	8.654494	0.000205	2.052202	0.347652	-0.004105
1446	7.2250e-01	5.5505	8.610876	0.000436	4.360929	0.738761	-0.008724
1447	7.2300e-01	5.5371	8.598903	0.000120	1.197118	0.202797	-0.002395
1448	7.2350e-01	5.5267	8.542884	0.000560	5.600801	0.948801	-0.011204
1449	7.2400e-01	5.5164	8.531766	0.000111	1.111609	0.188312	-0.002224
1450	7.2450e-01	5.5084	8.496273	0.000355	3.548599	0.601149	-0.007099
1451	7.2500e-01	5.4974	8.470188	0.000261	2.608007	0.441808	-0.005217
1452	7.2550e-01	5.4884	8.429563	0.000406	4.061650	0.688062	-0.008125
1453	7.2600e-01	5.4773	8.414169	0.000154	1.539152	0.260739	-0.003079
1454	7.2650e-01	5.4684	8.383807	0.000304	3.035549	0.514236	-0.006072
1455	7.2700e-01	5.4572	8.361998	0.000218	2.180465	0.369381	-0.004362
1456	7.2750e-01	5.4468	8.323940	0.000381	3.805125	0.644606	-0.007612
1457	7.2800e-01	5.4370	8.293151	0.000308	3.078303	0.521479	-0.006158
1458	7.2850e-01	5.4227	8.273908	0.000192	1.923939	0.325924	-0.003849
1459	7.2900e-01	5.4153	8.239698	0.000342	3.420337	0.579421	-0.006842
1460	7.2950e-01	5.4071	8.209764	0.000299	2.992795	0.506993	-0.005987
1461	7.3000e-01	5.3980	8.173416	0.000363	3.634108	0.615635	-0.007270
1462	7.3050e-01	5.3854	8.163153	0.000103	1.026101	0.173826	-0.002053
1463	7.3100e-01	5.3748	8.102002	0.000611	6.113852	1.035715	-0.012230
1464	7.3150e-01	5.3668	8.092167	0.000098	0.983347	0.166583	-0.001967
1465	7.3200e-01	5.3546	8.043845	0.000483	4.831226	0.818432	-0.009664
1466	7.3250e-01	5.3461	8.001083	0.000428	4.275421	0.724276	-0.008553
1467	7.3300e-01	5.3372	7.994241	0.000068	0.684067	0.115884	-0.001368
1468	7.3350e-01	5.3279	7.956182	0.000381	3.805125	0.644606	-0.007612
1469	7.3400e-01	5.3156	7.933518	0.000227	2.265973	0.383866	-0.004533
1470	7.3450e-01	5.3046	7.903157	0.000304	3.035549	0.514236	-0.006072
1471	7.3500e-01	5.2991	7.857401	0.000457	4.574700	0.774975	-0.009151
1472	7.3550e-01	5.2902	7.840723	0.000167	1.667414	0.282468	-0.003335
1473	7.3600e-01	5.2747	7.806941	0.000338	3.377583	0.572178	-0.006756
1474	7.3650e-01	5.2673	7.782139	0.000248	2.479744	0.420080	-0.004960
1475	7.3700e-01	5.2576	7.759474	0.000227	2.265973	0.383866	-0.004533
1476	7.3750e-01	5.2460	7.704738	0.000547	5.472539	0.927073	-0.010947
1477	7.3800e-01	5.2351	7.697041	0.000077	0.769576	0.130370	-0.001539
1478	7.3850e-01	5.2255	7.650430	0.000466	4.660209	0.789461	-0.009322
1479	7.3900e-01	5.2148	7.627766	0.000227	2.265973	0.383866	-0.004533
1480	7.3950e-01	5.2094	7.591845	0.000359	3.591354	0.608392	-0.007184
1481	7.4000e-01	5.1947	7.576878	0.000150	1.496397	0.253497	-0.002993
1482	7.4050e-01	5.1859	7.540530	0.000363	3.634108	0.615635	-0.007270
1483	7.4100e-01	5.1776	7.494347	0.000462	4.617455	0.782218	-0.009237
1484	7.4150e-01	5.1642	7.461420	0.000329	3.292074	0.557692	-0.006585
1485	7.4200e-01	5.1566	7.433624	0.000278	2.779024	0.470779	-0.005559
1486	7.4250e-01	5.1465	7.409249	0.000244	2.436990	0.412837	-0.004875
1487	7.4300e-01	5.1392	7.394282	0.000150	1.496397	0.253497	-0.002993
1488	7.4350e-01	5.1253	7.349809	0.000445	4.446438	0.753247	-0.008895
1489	7.4400e-01	5.1154	7.322869	0.000269	2.693515	0.456294	-0.005388
1490	7.4450e-01	5.1041	7.266422	0.000564	5.643556	0.956044	-0.011289
1491	7.4500e-01	5.0940	7.259153	0.000073	0.726822	0.123127	-0.001454
1492	7.4550e-01	5.0868	7.211686	0.000475	4.745717	0.803946	-0.009493
1493	7.4600e-01	5.0769	7.186457	0.000252	2.522498	0.427323	-0.005046
1494	7.4650e-01	5.0665	7.159944	0.000265	2.650761	0.449051	-0.005303
1495	7.4700e-01	5.0543	7.125306	0.000346	3.463091	0.586663	-0.006928
1496	7.4750e-01	5.0458	7.111195	0.000141	1.410889	0.239011	-0.002822
1497	7.4800e-01	5.0336	7.067577	0.000436	4.360929	0.738761	-0.008724
1498	7.4850e-01	5.0253	7.038071	0.000295	2.950040	0.499750	-0.005901
1499	7.4900e-01	5.0180	6.997874	0.000402	4.018896	0.680819	-0.008039
1500	7.4950e-01	5.0069	6.980769	0.000171	1.710168	0.289710	-0.003421
1501	7.5000e-01	4.9973	6.943138	0.000376	3.762370	0.637363	-0.007526
1502	7.5050e-01	4.9881	6.924322	0.000188	1.881185	0.318681	-0.003763
1503	7.5100e-01	4.9780	6.885408	0.000389	3.890633	0.659091	-0.007783
1504	7.5150e-01	4.9673	6.851626	0.000338	3.377583	0.572178	-0.006756
1505	7.5200e-01	4.9570	6.831528	0.000201	2.009448	0.340410	-0.004020
1506	7.5250e-01	4.9481	6.782778	0.000487	4.873980	0.825675	-0.009750
1507	7.5300e-01	4.9371	6.763963	0.000188	1.881185	0.318681	-0.003763
1508	7.5350e-01	4.9263	6.722483	0.000415	4.147158	0.702548	-0.008296
1509	7.5400e-01	4.9176	6.684424	0.000381	3.805125	0.644606	-0.007612
1510	7.5450e-01	4.9084	6.670740	0.000137	1.368135	0.231768	-0.002737
1511	7.5500e-01	4.8965	6.636530	0.000342	3.420337	0.579421	-0.006842
1512	7.5550e-01	4.8860	6.587354	0.000492	4.916734	0.832917	-0.009835
1513	7.5600e-01	4.8798	6.570249	0.000171	1.710168	0.289710	-0.003421
1514	7.5650e-01	4.8662	6.551433	0.000188	1.881185	0.318681	-0.003763
1515	7.5700e-01	4.8553	6.501828	0.000496	4.959488	0.840160	-0.009921
1516	7.5750e-01	4.8456	6.482585	0.000192	1.923939	0.325924	-0.003849
1517	7.5800e-01	4.8383	6.452652	0.000299	2.992795	0.506993	-0.005987
1518	7.5850e-01	4.8248	6.437257	0.000154	1.539152	0.260739	-0.003079
1519	7.5900e-01	4.8169	6.396205	0.000410	4.104404	0.695305	-0.008210
1520	7.5950e-01	4.8053	6.367127	0.000291	2.907286	0.492508	-0.005816
1521	7.6000e-01	4.7964	6.323081	0.000440	4.403684	0.746004	-0.008809
1522	7.6050e-01	4.7870	6.300417	0.000227	2.265973	0.383866	-0.004533
1523	7.6100e-01	4.7762	6.253378	0.000470	4.702963	0.796704	-0.009408
1524	7.6150e-01	4.7687	6.229431	0.000239	2.394236	0.405595	-0.004789
1525	7.6200e-01	4.7571	6.220023	0.000094	0.940593	0.159341	-0.001882
1526	7.6250e-01	4.7485	6.149038	0.000710	7.097199	1.202298	-0.014197
1527	7.6300e-01	4.7363	6.133643	0.000154	1.539152	0.260739	-0.003079
1528	7.6350e-01	4.7269	6.093446	0.000402	4.018896	0.680819	-0.008039
1529	7.6400e-01	4.7174	6.068644	0.000248	2.479744	0.420080	-0.004960
1530	7.6450e-01	4.7076	6.043414	0.000252	2.522498	0.427323	-0.005046
1531	7.6500e-01	4.6957	6.018184	0.000252	2.522498	0.427323	-0.005046
1532	7.6550e-01	4.6851	5.975849	0.000423	4.232667	0.717033	-0.008467
1533	7.6600e-01	4.6777	5.942922	0.000329	3.292074	0.557692	-0.006585
1534	7.6650e-01	4.6663	5.930521	0.000124	1.239872	0.210040	-0.002480
1535	7.6700e-01	4.6585	5.875357	0.000552	5.515293	0.934316	-0.011033
1536	7.6750e-01	4.6490	5.836444	0.000389	3.890633	0.659091	-0.007783
1537	7.6800e-01	4.6359	5.813779	0.000227	2.265973	0.383866	-0.004533
1538	7.6850e-01	4.6286	5.780425	0.000333	3.334828	0.564935	-0.006671
1539	7.6900e-01	4.6152	5.748780	0.000316	3.163812	0.535964	-0.006329
1540	7.6950e-01	4.6066	5.709011	0.000398	3.976141	0.673577	-0.007954
1541	7.7000e-01	4.5993	5.708156	0.000009	0.085508	0.014486	-0.000171
1542	7.7050e-01	4.5880	5.657269	0.000509	5.087751	0.861888	-0.010177
1543	7.7100e-01	4.5749	5.646578	0.000107	1.068855	0.181069	-0.002138
1544	7.7150e-01	4.5670	5.597401	0.000492	4.916734	0.832917	-0.009835
1545	7.7200e-01	4.5564	5.568323	0.000291	2.907286	0.492508	-0.005816
1546	7.7250e-01	4.5505	5.536678	0.000316	3.163812	0.535964	-0.006329
1547	7.7300e-01	4.5389	5.515725	0.000209	2.094956	0.354895	-0.004191
1548	7.7350e-01	4.5276	5.455857	0.000599	5.985589	1.013986	-0.011974
1549	7.7400e-01	4.5181	5.428061	0.000278	2.779024	0.470779	-0.005559
1550	7.7450e-01	4.5084	5.403687	0.000244	2.436990	0.412837	-0.004875
1551	7.7500e-01	4.4962	5.384871	0.000188	1.881185	0.318681	-0.003763
1552	7.7550e-01	4.4876	5.338688	0.000462	4.617455	0.782218	-0.009237
1553	7.7600e-01	4.4778	5.291649	0.000470	4.702963	0.796704	-0.009408
1554	7.7650e-01	4.4669	5.272406	0.000192	1.923939	0.325924	-0.003849
1555	7.7700e-01	4.4563	5.233492	0.000389	3.890633	0.659091	-0.007783
1556	7.7750e-01	4.4464	5.207834	0.000257	2.565253	0.434566	-0.005132
1557	7.7800e-01	4.4368	5.189019	0.000188	1.881185	0.318681	-0.003763
1558	7.7850e-01	4.4267	5.147539	0.000415	4.147158	0.702548	-0.008296
1559	7.7900e-01	4.4159	5.110763	0.000368	3.676862	0.622877	-0.007355
1560	7.7950e-01	4.4049	5.071850	0.000389	3.890633	0.659091	-0.007783
1561	7.8000e-01	4.3970	5.032936	0.000389	3.890633	0.659091	-0.007783
1562	7.8050e-01	4.3857	5.022245	0.000107	1.068855	0.181069	-0.002138
1563	7.8100e-01	4.3771	4.985469	0.000368	3.676862	0.622877	-0.007355
1564	7.8150e-01	4.3659	4.955963	0.000295	2.950040	0.499750	-0.005901
1565	7.8200e-01	4.3564	4.926885	0.000291	2.907286	0.492508	-0.005816
1566	7.8250e-01	4.3475	4.883267	0.000436	4.360929	0.738761	-0.008724
1567	7.8300e-01	4.3396	4.852905	0.000304	3.035549	0.514236	-0.006072
1568	7.8350e-01	4.3279	4.805867	0.000470	4.702963	0.796704	-0.009408
1569	7.8400e-01	4.3177	4.794748	0.000111	1.111609	0.188312	-0.002224
1570	7.8450e-01	4.3069	4.731887	0.000628	6.284869	1.064686	-0.012572
1571	7.8500e-01	4.2975	4.732743	-0.000009	-0.085508	-0.014486	0.000171
1572	7.8550e-01	4.2859	4.676724	0.000560	5.600801	0.948801	-0.011204
1573	7.8600e-01	4.2751	4.652349	0.000244	2.436990	0.412837	-0.004875
1574	7.8650e-01	4.2688	4.627119	0.000252	2.522498	0.427323	-0.005046
1575	7.8700e-01	4.2563	4.605310	0.000218	2.180465	0.369381	-0.004362
1576	7.8750e-01	4.2438	4.541167	0.000641	6.413131	1.086414	-0.012829
1577	7.8800e-01	4.2378	4.513371	0.000278	2.779024	0.470779	-0.005559
1578	7.8850e-01	4.2273	4.487286	0.000261	2.608007	0.441808	-0.005217
1579	7.8900e-01	4.2163	4.447089	0.000402	4.018896	0.680819	-0.008039
1580	7.8950e-01	4.2084	4.421432	0.000257	2.565253	0.434566	-0.005132
1581	7.9000e-01	4.1943	4.388504	0.000329	3.292074	0.557692	-0.006585
1582	7.9050e-01	4.1828	4.352584	0.000359	3.591354	0.608392	-0.007184
1583	7.9100e-01	4.1754	4.305545	0.000470	4.702963	0.796704	-0.009408
1584	7.9150e-01	4.1638	4.288440	0.000171	1.710168	0.289710	-0.003421
1585	7.9200e-01	4.1571	4.259362	0.000291	2.907286	0.492508	-0.005816
1586	7.9250e-01	4.1444	4.220448	0.000389	3.890633	0.659091	-0.007783
1587	7.9300e-01	4.1382	4.171698	0.000487	4.873980	0.825675	-0.009750
1588	7.9350e-01	4.1278	4.158442	0.000133	1.325380	0.224526	-0.002651
1589	7.9400e-01	4.1142	4.121666	0.000368	3.676862	0.622877	-0.007355
1590	7.9450e-01	4.1071	4.073772	0.000479	4.788471	0.811189	-0.009579
1591	7.9500e-01	4.0965	4.057950	0.000158	1.581906	0.267982	-0.003164
1592	7.9550e-01	4.0881	4.022030	0.000359	3.591354	0.608392	-0.007184
1593	7.9600e-01	4.0765	4.006635	0.000154	1.539152	0.260739	-0.003079
1594	7.9650e-01	4.0659	3.946340	0.000603	6.028344	1.021229	-0.012059
1595	7.9700e-01	4.0540	3.929662	0.000167	1.667414	0.282468	-0.003335
1596	7.9750e-01	4.0439	3.876637	0.000530	5.301522	0.898102	-0.010605
1597	7.9800e-01	4.0378	3.852690	0.000239	2.394236	0.405595	-0.004789
1598	7.9850e-01	4.0277	3.826177	0.000265	2.650761	0.449051	-0.005303
1599	7.9900e-01	4.0137	3.801803	0.000244	2.436990	0.412837	-0.004875
1600	7.9950e-01	4.0051	3.753908	0.000479	4.788471	0.811189	-0.009579
1601	8.0000e-01	3.9960	3.714139	0.000398	3.976141	0.673577	-0.007954
1602	8.0050e-01	3.9868	3.680785	0.000333	3.334828	0.564935	-0.006671
1603	8.0100e-01	3.9754	3.664107	0.000167	1.667414	0.282468	-0.003335
1604	8.0150e-01	3.9639	3.612365	0.000517	5.173259	0.876374	-0.010349
1605	8.0200e-01	3.9551	3.587990	0.000244	2.436990	0.412837	-0.004875
1606	8.0250e-01	3.9465	3.562760	0.000252	2.522498	0.427323	-0.005046
1607	8.0300e-01	3.9362	3.511873	0.000509	5.087751	0.861888	-0.010177
1608	8.0350e-01	3.9264	3.495623	0.000162	1.624660	0.275225	-0.003250
1609	8.0400e-01	3.9191	3.448584	0.000470	4.702963	0.796704	-0.009408
1610	8.0450e-01	3.9056	3.431907	0.000167	1.667414	0.282468	-0.003335
1611	8.0500e-01	3.8928	3.392993	0.000389	3.890633	0.659091	-0.007783
1612	8.0550e-01	3.8864	3.343388	0.000496	4.959488	0.840160	-0.009921
1613	8.0600e-01	3.8782	3.304047	0.000393	3.933387	0.666334	-0.007868
1614	8.0650e-01	3.8669	3.299770	0.000043	0.427542	0.072428	-0.000855
1615	8.0700e-01	3.8550	3.240758	0.000590	5.900081	0.999501	-0.011802
1616	8.0750e-01	3.8446	3.200134	0.000406	4.061650	0.688062	-0.008125
1617	8.0800e-01	3.8364	3.184312	0.000158	1.581906	0.267982	-0.003164
1618	8.0850e-01	3.8275	3.128720	0.000556	5.558047	0.941559	-0.011118
1619	8.0900e-01	3.8159	3.125727	0.000030	0.299279	0.050699	-0.000599
1620	8.0950e-01	3.8049	3.066715	0.000590	5.900081	0.999501	-0.011802
1621	8.1000e-01	3.7970	3.021386	0.000453	4.531946	0.767732	-0.009066
1622	8.1050e-01	3.7854	2.996156	0.000252	2.522498	0.427323	-0.005046
1623	8.1100e-01	3.7735	2.991453	0.000047	0.470296	0.079670	-0.000941
1624	8.1150e-01	3.7669	2.941848	0.000496	4.959488	0.840160	-0.009921
1625	8.1200e-01	3.7589	2.913625	0.000282	2.821778	0.478022	-0.005645
1626	8.1250e-01	3.7473	2.867869	0.000457	4.574700	0.774975	-0.009151
1627	8.1300e-01	3.7360	2.829810	0.000381	3.805125	0.644606	-0.007612
1628	8.1350e-01	3.7280	2.817409	0.000124	1.239872	0.210040	-0.002480
1629	8.1400e-01	3.7161	2.763101	0.000543	5.429785	0.919830	-0.010862
1630	8.1450e-01	3.7061	2.740864	0.000222	2.223219	0.376623	-0.004447
1631	8.1500e-01	3.6978	2.703233	0.000376	3.762370	0.637363	-0.007526
1632	8.1550e-01	3.6857	2.681852	0.000214	2.137710	0.362138	-0.004276
1633	8.1600e-01	3.6751	2.626688	0.000552	5.515293	0.934316	-0.011033
1634	8.1650e-01	3.6661	2.595472	0.000312	3.121057	0.528721	-0.006243
1635	8.1700e-01	3.6560	2.583498	0.000120	1.197118	0.202797	-0.002395
1636	8.1750e-01	3.6499	2.524486	0.000590	5.900081	0.999501	-0.011802
1637	8.1800e-01	3.6385	2.491131	0.000333	3.334828	0.564935	-0.006671
1638	8.1850e-01	3.6261	2.474454	0.000167	1.667414	0.282468	-0.003335
1639	8.1900e-01	3.6169	2.424421	0.000500	5.002243	0.847403	-0.010006
1640	8.1950e-01	3.6035	2.406461	0.000180	1.795677	0.304196	-0.003592
1641	8.2000e-01	3.5962	2.354291	0.000522	5.216014	0.883617	-0.010434
1642	8.2050e-01	3.5884	2.320936	0.000333	3.334828	0.564935	-0.006671
1643	8.2100e-01	3.5754	2.278601	0.000423	4.232667	0.717033	-0.008467
1644	8.2150e-01	3.5660	2.252089	0.000265	2.650761	0.449051	-0.005303
1645	8.2200e-01	3.5571	2.216596	0.000355	3.548599	0.601149	-0.007099
1646	8.2250e-01	3.5458	2.199063	0.000175	1.752923	0.296953	-0.003507
1647	8.2300e-01	3.5344	2.131926	0.000671	6.712411	1.137113	-0.013427
1648	8.2350e-01	3.5248	2.096005	0.000359	3.591354	0.608392	-0.007184
1649	8.2400e-01	3.5147	2.068210	0.000278	2.779024	0.470779	-0.005559
1650	8.2450e-01	3.5110	2.054953	0.000133	1.325380	0.224526	-0.002651
1651	8.2500e-01	3.4958	2.011335	0.000436	4.360929	0.738761	-0.008724
1652	8.2550e-01	3.4845	1.986533	0.000248	2.479744	0.420080	-0.004960
1653	8.2600e-01	3.4753	1.947619	0.000389	3.890633	0.659091	-0.007783
1654	8.2650e-01	3.4669	1.919824	0.000278	2.779024	0.470779	-0.005559
1655	8.2700e-01	3.4525	1.886041	0.000338	3.377583	0.572178	-0.006756
1656	8.2750e-01	3.4467	1.847127	0.000389	3.890633	0.659091	-0.007783
1657	8.2800e-01	3.4366	1.793247	0.000539	5.387030	0.912588	-0.010776
1658	8.2850e-01	3.4250	1.764596	0.000286	2.864532	0.485265	-0.005730
1659	8.2900e-01	3.4169	1.727392	0.000372	3.719616	0.630120	-0.007441
1660	8.2950e-01	3.4058	1.683775	0.000436	4.360929	0.738761	-0.008724
1661	8.3000e-01	3.3984	1.649137	0.000346	3.463091	0.586663	-0.006928
1662	8.3050e-01	3.3846	1.621341	0.000278	2.779024	0.470779	-0.005559
1663	8.3100e-01	3.3737	1.576868	0.000445	4.446438	0.753247	-0.008895
1664	8.3150e-01	3.3710	1.553776	0.000231	2.308727	0.391109	-0.004618
1665	8.3200e-01	3.3563	1.513580	0.000402	4.018896	0.680819	-0.008039
1666	8.3250e-01	3.3504	1.469962	0.000436	4.360929	0.738761	-0.008724
1667	8.3300e-01	3.3362	1.459271	0.000107	1.068855	0.181069	-0.002138
1668	8.3350e-01	3.3267	1.400687	0.000586	5.857327	0.992258	-0.011717
1669	8.3400e-01	3.3148	1.370325	0.000304	3.035549	0.514236	-0.006072
1670	8.3450e-01	3.3058	1.351937	0.000184	1.838431	0.311439	-0.003678
1671	8.3500e-01	3.2947	1.318583	0.000333	3.334828	0.564935	-0.006671
1672	8.3550e-01	3.2855	1.277103	0.000415	4.147158	0.702548	-0.008296
1673	8.3600e-01	3.2776	1.239472	0.000376	3.762370	0.637363	-0.007526
1674	8.3650e-01	3.2643	1.209538	0.000299	2.992795	0.506993	-0.005987
1675	8.3700e-01	3.2547	1.162927	0.000466	4.660209	0.789461	-0.009322
1676	8.3750e-01	3.2466	1.138552	0.000244	2.436990	0.412837	-0.004875
1677	8.3800e-01	3.2358	1.098356	0.000402	4.018896	0.680819	-0.008039
1678	8.3850e-01	3.2236	1.054310	0.000440	4.403684	0.746004	-0.008809
1679	8.3900e-01	3.2166	1.037205	0.000171	1.710168	0.289710	-0.003421
1680	8.3950e-01	3.2050	0.990166	0.000470	4.702963	0.796704	-0.009408
1681	8.4000e-01	3.1970	0.962371	0.000278	2.779024	0.470779	-0.005559
1682	8.4050e-01	3.1842	0.903786	0.000586	5.857327	0.992258	-0.011717
1683	8.4100e-01	3.1784	0.881550	0.000222	2.223219	0.376623	-0.004447
1684	8.4150e-01	3.1654	0.836649	0.000449	4.489192	0.760490	-0.008980
1685	8.4200e-01	3.1538	0.799018	0.000376	3.762370	0.637363	-0.007526
1686	8.4250e-01	3.1470	0.778064	0.000209	2.094956	0.354895	-0.004191
1687	8.4300e-01	3.1360	0.730598	0.000475	4.745717	0.803946	-0.009493
1688	8.4350e-01	3.1245	0.707078	0.000235	2.351482	0.398352	-0.004704
1689	8.4400e-01	3.1168	0.664743	0.000423	4.232667	0.717033	-0.008467
1690	8.4450e-01	3.1049	0.613428	0.000513	5.130505	0.869131	-0.010263
1691	8.4500e-01	3.0981	0.598889	0.000145	1.453643	0.246254	-0.002908
1692	8.4550e-01	3.0872	0.565534	0.000333	3.334828	0.564935	-0.006671
1693	8.4600e-01	3.0765	0.520634	0.000449	4.489192	0.760490	-0.008980
1694	8.4650e-01	3.0664	0.477444	0.000432	4.318175	0.731519	-0.008638
1695	8.4700e-01	3.0562	0.452641	0.000248	2.479744	0.420080	-0.004960
1696	8.4750e-01	3.0443	0.412872	0.000398	3.976141	0.673577	-0.007954
1697	8.4800e-01	3.0373	0.379090	0.000338	3.377583	0.572178	-0.006756
1698	8.4850e-01	3.0249	0.326492	0.000526	5.258768	0.890859	-0.010520
1699	8.4900e-01	3.0161	0.300834	0.000257	2.565253	0.434566	-0.005132
1700	8.4950e-01	3.0061	0.276032	0.000248	2.479744	0.420080	-0.004960
1701	8.5000e-01	2.9956	0.237546	0.000385	3.847879	0.651848	-0.007697
1702	8.5050e-01	2.9848	0.220013	0.000175	1.752923	0.296953	-0.003507
1703	8.5100e-01	2.9749	0.140475	0.000795	7.952283	1.347153	-0.015908
1704	8.5150e-01	2.9649	0.120804	0.000197	1.966694	0.333167	-0.003934
1705	8.5200e-01	2.9567	0.069917	0.000509	5.087751	0.861888	-0.010177
1706	8.5250e-01	2.9445	0.051101	0.000188	1.881185	0.318681	-0.003763
1707	8.5300e-01	2.9350	0.026299	0.000248	2.479744	0.420080	-0.004960
1708	8.5350e-01	2.9266	-0.022023	0.000483	4.831226	0.818432	-0.009664
1709	8.5400e-01	2.9148	-0.058798	0.000368	3.676862	0.622877	-0.007355
1710	8.5450e-01	2.9065	-0.106265	0.000475	4.745717	0.803946	-0.009493
1711	8.5500e-01	2.8957	-0.146889	0.000406	4.061650	0.688062	-0.008125
1712	8.5550e-01	2.8876	-0.178106	0.000312	3.121057	0.528721	-0.006243
1713	8.5600e-01	2.8749	-0.192218	0.000141	1.410889	0.239011	-0.002822
1714	8.5650e-01	2.8666	-0.234125	0.000419	4.189913	0.709790	-0.008381
1715	8.5700e-01	2.8571	-0.292710	0.000586	5.857327	0.992258	-0.011717
1716	8.5750e-01	2.8470	-0.311953	0.000192	1.923939	0.325924	-0.003849
1717	8.5800e-01	2.8363	-0.346590	0.000346	3.463091	0.586663	-0.006928
1718	8.5850e-01	2.8262	-0.392346	0.000457	4.574700	0.774975	-0.009151
1719	8.5900e-01	2.8156	-0.435109	0.000428	4.275421	0.724276	-0.008553
1720	8.5950e-01	2.8052	-0.463332	0.000282	2.821778	0.478022	-0.005645
1721	8.6000e-01	2.7960	-0.525765	0.000624	6.242115	1.057443	-0.012487
1722	8.6050e-01	2.7857	-0.549712	0.000239	2.394236	0.405595	-0.004789
1723	8.6100e-01	2.7750	-0.569811	0.000201	2.009448	0.340410	-0.004020
1724	8.6150e-01	2.7661	-0.633954	0.000641	6.413131	1.086414	-0.012829
1725	8.6200e-01	2.7570	-0.647211	0.000133	1.325380	0.224526	-0.002651
1726	8.6250e-01	2.7441	-0.683987	0.000368	3.676862	0.622877	-0.007355
1727	8.6300e-01	2.7346	-0.728032	0.000440	4.403684	0.746004	-0.008809
1728	8.6350e-01	2.7271	-0.759676	0.000316	3.163812	0.535964	-0.006329
1729	8.6400e-01	2.7155	-0.813129	0.000534	5.344276	0.905345	-0.010691
1730	8.6450e-01	2.7075	-0.825531	0.000124	1.239872	0.210040	-0.002480
1731	8.6500e-01	2.6953	-0.881122	0.000556	5.558047	0.941559	-0.011118
1732	8.6550e-01	2.6830	-0.902076	0.000209	2.094956	0.354895	-0.004191
1733	8.6600e-01	2.6779	-0.951680	0.000496	4.959488	0.840160	-0.009921
1734	8.6650e-01	2.6648	-0.987173	0.000355	3.548599	0.601149	-0.007099
1735	8.6700e-01	2.6563	-1.030363	0.000432	4.318175	0.731519	-0.008638
1736	8.6750e-01	2.6437	-1.050889	0.000205	2.052202	0.347652	-0.004105
1737	8.6800e-01	2.6363	-1.087665	0.000368	3.676862	0.622877	-0.007355
1738	8.6850e-01	2.6263	-1.144539	0.000569	5.686310	0.963287	-0.011375
1739	8.6900e-01	2.6172	-1.163355	0.000188	1.881185	0.318681	-0.003763
1740	8.6950e-01	2.6057	-1.204407	0.000410	4.104404	0.695305	-0.008210
1741	8.7000e-01	2.5962	-1.272827	0.000684	6.840674	1.158841	-0.013684
1742	8.7050e-01	2.5859	-1.280524	0.000077	0.769576	0.130370	-0.001539
1743	8.7100e-01	2.5790	-1.310458	0.000299	2.992795	0.506993	-0.005987
1744	8.7150e-01	2.5647	-1.352365	0.000419	4.189913	0.709790	-0.008381
1745	8.7200e-01	2.5557	-1.411805	0.000594	5.942835	1.006744	-0.011888
1746	8.7250e-01	2.5449	-1.428482	0.000167	1.667414	0.282468	-0.003335
1747	8.7300e-01	2.5355	-1.464403	0.000359	3.591354	0.608392	-0.007184
1748	8.7350e-01	2.5238	-1.497758	0.000333	3.334828	0.564935	-0.006671
1749	8.7400e-01	2.5154	-1.541375	0.000436	4.360929	0.738761	-0.008724
1750	8.7450e-01	2.5092	-1.586276	0.000449	4.489192	0.760490	-0.008980
1751	8.7500e-01	2.4951	-1.629038	0.000428	4.275421	0.724276	-0.008553
1752	8.7550e-01	2.4841	-1.649564	0.000205	2.052202	0.347652	-0.004105
1753	8.7600e-01	2.4762	-1.689334	0.000398	3.976141	0.673577	-0.007954
1754	8.7650e-01	2.4655	-1.719695	0.000304	3.035549	0.514236	-0.006072
1755	8.7700e-01	2.4551	-1.775714	0.000560	5.600801	0.948801	-0.011204
1756	8.7750e-01	2.4448	-1.818049	0.000423	4.232667	0.717033	-0.008467
1757	8.7800e-01	2.4379	-1.858246	0.000402	4.018896	0.680819	-0.008039
1758	8.7850e-01	2.4266	-1.886897	0.000286	2.864532	0.485265	-0.005730
1759	8.7900e-01	2.4149	-1.918541	0.000316	3.163812	0.535964	-0.006329
1760	8.7950e-01	2.4066	-1.970283	0.000517	5.173259	0.876374	-0.010349
1761	8.8000e-01	2.3944	-1.989954	0.000197	1.966694	0.333167	-0.003934
1762	8.8050e-01	2.3854	-2.041697	0.000517	5.173259	0.876374	-0.010349
1763	8.8100e-01	2.3765	-2.082321	0.000406	4.061650	0.688062	-0.008125
1764	8.8150e-01	2.3669	-2.126367	0.000440	4.403684	0.746004	-0.008809
1765	8.8200e-01	2.3543	-2.149886	0.000235	2.351482	0.398352	-0.004704
1766	8.8250e-01	2.3471	-2.191793	0.000419	4.189913	0.709790	-0.008381
1767	8.8300e-01	2.3354	-2.244819	0.000530	5.301522	0.898102	-0.010605
1768	8.8350e-01	2.3227	-2.267055	0.000222	2.223219	0.376623	-0.004447
1769	8.8400e-01	2.3148	-2.327351	0.000603	6.028344	1.021229	-0.012059
1770	8.8450e-01	2.3053	-2.337186	0.000098	0.983347	0.166583	-0.001967
1771	8.8500e-01	2.2964	-2.404323	0.000671	6.712411	1.137113	-0.013427
1772	8.8550e-01	2.2813	-2.426560	0.000222	2.223219	0.376623	-0.004447
1773	8.8600e-01	2.2779	-2.475309	0.000487	4.873980	0.825675	-0.009750
1774	8.8650e-01	2.2681	-2.512512	0.000372	3.719616	0.630120	-0.007441
1775	8.8700e-01	2.2556	-2.530900	0.000184	1.838431	0.311439	-0.003678
1776	8.8750e-01	2.2456	-2.582643	0.000517	5.173259	0.876374	-0.010349
1777	8.8800e-01	2.2368	-2.611294	0.000286	2.864532	0.485265	-0.005730
1778	8.8850e-01	2.2250	-2.669023	0.000577	5.771818	0.977772	-0.011546
1779	8.8900e-01	2.2159	-2.686983	0.000180	1.795677	0.304196	-0.003592
1780	8.8950e-01	2.2061	-2.747279	0.000603	6.028344	1.021229	-0.012059
1781	8.9000e-01	2.1970	-2.779778	0.000325	3.249320	0.550450	-0.006500
1782	8.9050e-01	2.1890	-2.812278	0.000325	3.249320	0.550450	-0.006500
1783	8.9100e-01	2.1743	-2.841356	0.000291	2.907286	0.492508	-0.005816
1784	8.9150e-01	2.1680	-2.914908	0.000735	7.353724	1.245755	-0.014710
1785	8.9200e-01	2.1582	-2.922605	0.000077	0.769576	0.130370	-0.001539
1786	8.9250e-01	2.1469	-2.964940	0.000423	4.232667	0.717033	-0.008467
1787	8.9300e-01	2.1344	-3.010696	0.000457	4.574700	0.774975	-0.009151
1788	8.9350e-01	2.1259	-3.038491	0.000278	2.779024	0.470779	-0.005559
1789	8.9400e-01	2.1146	-3.103490	0.000650	6.498640	1.100899	-0.013000
1790	8.9450e-01	2.1045	-3.143260	0.000398	3.976141	0.673577	-0.007954
1791	8.9500e-01	2.0953	-3.180035	0.000368	3.676862	0.622877	-0.007355
1792	8.9550e-01	2.0847	-3.209114	0.000291	2.907286	0.492508	-0.005816
1793	8.9600e-01	2.0763	-3.248883	0.000398	3.976141	0.673577	-0.007954
1794	8.9650e-01	2.0648	-3.275396	0.000265	2.650761	0.449051	-0.005303
1795	8.9700e-01	2.0539	-3.322007	0.000466	4.660209	0.789461	-0.009322
1796	8.9750e-01	2.0457	-3.356217	0.000342	3.420337	0.579421	-0.006842
1797	8.9800e-01	2.0350	-3.406677	0.000504	5.044997	0.854646	-0.010092
1798	8.9850e-01	2.0234	-3.425920	0.000192	1.923939	0.325924	-0.003849
1799	8.9900e-01	2.0143	-3.479373	0.000534	5.344276	0.905345	-0.010691
1800	8.9950e-01	2.0052	-3.515721	0.000363	3.634108	0.615635	-0.007270
1801	9.0000e-01	1.9962	-3.554635	0.000389	3.890633	0.659091	-0.007783
1802	9.0050e-01	1.9852	-3.599108	0.000445	4.446438	0.753247	-0.008895
1803	9.0100e-01	1.9778	-3.646575	0.000475	4.745717	0.803946	-0.009493
1804	9.0150e-01	1.9638	-3.673087	0.000265	2.650761	0.449051	-0.005303
1805	9.0200e-01	1.9553	-3.727823	0.000547	5.472539	0.927073	-0.010947
1806	9.0250e-01	1.9440	-3.743645	0.000158	1.581906	0.267982	-0.003164
1807	9.0300e-01	1.9362	-3.792395	0.000487	4.873980	0.825675	-0.009750
1808	9.0350e-01	1.9267	-3.833019	0.000406	4.061650	0.688062	-0.008125
1809	9.0400e-01	1.9153	-3.903150	0.000701	7.011690	1.187813	-0.014026
1810	9.0450e-01	1.9066	-3.907426	0.000043	0.427542	0.072428	-0.000855
1811	9.0500e-01	1.8950	-3.949333	0.000419	4.189913	0.709790	-0.008381
1812	9.0550e-01	1.8808	-3.985681	0.000363	3.634108	0.615635	-0.007270
1813	9.0600e-01	1.8777	-4.036996	0.000513	5.130505	0.869131	-0.010263
1814	9.0650e-01	1.8622	-4.072917	0.000359	3.591354	0.608392	-0.007184
1815	9.0700e-01	1.8549	-4.129363	0.000564	5.643556	0.956044	-0.011289
1816	9.0750e-01	1.8460	-4.134923	0.000056	0.555805	0.094156	-0.001112
1817	9.0800e-01	1.8385	-4.193935	0.000590	5.900081	0.999501	-0.011802
1818	9.0850e-01	1.8254	-4.229428	0.000355	3.548599	0.601149	-0.007099
1819	9.0900e-01	1.8161	-4.273901	0.000445	4.446438	0.753247	-0.008895
1820	9.0950e-01	1.8065	-4.316236	0.000423	4.232667	0.717033	-0.008467
1821	9.1000e-01	1.7953	-4.355150	0.000389	3.890633	0.659091	-0.007783
1822	9.1050e-01	1.7862	-4.388077	0.000329	3.292074	0.557692	-0.006585
1823	9.1100e-01	1.7770	-4.438537	0.000504	5.044997	0.854646	-0.010092
1824	9.1150e-01	1.7670	-4.480871	0.000423	4.232667	0.717033	-0.008467
1825	9.1200e-01	1.7545	-4.519785	0.000389	3.890633	0.659091	-0.007783
1826	9.1250e-01	1.7453	-4.554423	0.000346	3.463091	0.586663	-0.006928
1827	9.1300e-01	1.7363	-4.592054	0.000376	3.762370	0.637363	-0.007526
1828	9.1350e-01	1.7272	-4.640376	0.000483	4.831226	0.818432	-0.009664
1829	9.1400e-01	1.7150	-4.659191	0.000188	1.881185	0.318681	-0.003763
1830	9.1450e-01	1.7047	-4.696395	0.000372	3.719616	0.630120	-0.007441
1831	9.1500e-01	1.6946	-4.753696	0.000573	5.729064	0.970530	-0.011460
1832	9.1550e-01	1.6840	-4.791755	0.000381	3.805125	0.644606	-0.007612
1833	9.1600e-01	1.6763	-4.838794	0.000470	4.702963	0.796704	-0.009408
1834	9.1650e-01	1.6679	-4.852905	0.000141	1.410889	0.239011	-0.002822
1835	9.1700e-01	1.6545	-4.915339	0.000624	6.242115	1.057443	-0.012487
1836	9.1750e-01	1.6466	-4.949549	0.000342	3.420337	0.579421	-0.006842
1837	9.1800e-01	1.6335	-4.995732	0.000462	4.617455	0.782218	-0.009237
1838	9.1850e-01	1.6235	-5.038922	0.000432	4.318175	0.731519	-0.008638
1839	9.1900e-01	1.6164	-5.079547	0.000406	4.061650	0.688062	-0.008125
1840	9.1950e-01	1.6034	-5.093658	0.000141	1.410889	0.239011	-0.002822
1841	9.2000e-01	1.5961	-5.154809	0.000611	6.113852	1.035715	-0.012230
1842	9.2050e-01	1.5827	-5.206552	0.000517	5.173259	0.876374	-0.010349
1843	9.2100e-01	1.5778	-5.240334	0.000338	3.377583	0.572178	-0.006756
1844	9.2150e-01	1.5667	-5.278393	0.000381	3.805125	0.644606	-0.007612
1845	9.2200e-01	1.5552	-5.316451	0.000381	3.805125	0.644606	-0.007612
1846	9.2250e-01	1.5448	-5.350234	0.000338	3.377583	0.572178	-0.006756
1847	9.2300e-01	1.5342	-5.398128	0.000479	4.788471	0.811189	-0.009579
1848	9.2350e-01	1.5271	-5.446022	0.000479	4.788471	0.811189	-0.009579
1849	9.2400e-01	1.5163	-5.491350	0.000453	4.531946	0.767732	-0.009066
1850	9.2450e-01	1.5068	-5.517863	0.000265	2.650761	0.449051	-0.005303
1851	9.2500e-01	1.4973	-5.558060	0.000402	4.018896	0.680819	-0.008039
1852	9.2550e-01	1.4850	-5.604243	0.000462	4.617455	0.782218	-0.009237
1853	9.2600e-01	1.4722	-5.629901	0.000257	2.565253	0.434566	-0.005132
1854	9.2650e-01	1.4655	-5.683781	0.000539	5.387030	0.912588	-0.010776
1855	9.2700e-01	1.4562	-5.738090	0.000543	5.429785	0.919830	-0.010862
1856	9.2750e-01	1.4449	-5.768879	0.000308	3.078303	0.521479	-0.006158
1857	9.2800e-01	1.4349	-5.808220	0.000393	3.933387	0.666334	-0.007868
1858	9.2850e-01	1.4261	-5.861673	0.000534	5.344276	0.905345	-0.010691
1859	9.2900e-01	1.4148	-5.891180	0.000295	2.950040	0.499750	-0.005901
1860	9.2950e-01	1.4072	-5.951902	0.000607	6.071098	1.028472	-0.012145
1861	9.3000e-01	1.3937	-5.972001	0.000201	2.009448	0.340410	-0.004020
1862	9.3050e-01	1.3840	-6.010487	0.000385	3.847879	0.651848	-0.007697
1863	9.3100e-01	1.3742	-6.071637	0.000611	6.113852	1.035715	-0.012230
1864	9.3150e-01	1.3651	-6.100288	0.000286	2.864532	0.485265	-0.005730
1865	9.3200e-01	1.3532	-6.154597	0.000543	5.429785	0.919830	-0.010862
1866	9.3250e-01	1.3465	-6.182820	0.000282	2.821778	0.478022	-0.005645
1867	9.3300e-01	1.3345	-6.235418	0.000526	5.258768	0.890859	-0.010520
1868	9.3350e-01	1.3253	-6.272621	0.000372	3.719616	0.630120	-0.007441
1869	9.3400e-01	1.3142	-6.327785	0.000552	5.515293	0.934316	-0.011033
1870	9.3450e-01	1.3022	-6.350022	0.000222	2.223219	0.376623	-0.004447
1871	9.3500e-01	1.2958	-6.403047	0.000530	5.301522	0.898102	-0.010605
1872	9.3550e-01	1.2843	-6.437685	0.000346	3.463091	0.586663	-0.006928
1873	9.3600e-01	1.2750	-6.477881	0.000402	4.018896	0.680819	-0.008039
1874	9.3650e-01	1.2642	-6.515940	0.000381	3.805125	0.644606	-0.007612
1875	9.3700e-01	1.2531	-6.575808	0.000599	5.985589	1.013986	-0.011974
1876	9.3750e-01	1.2459	-6.590347	0.000145	1.453643	0.246254	-0.002908
1877	9.3800e-01	1.2349	-6.620281	0.000299	2.992795	0.506993	-0.005987
1878	9.3850e-01	1.2257	-6.675444	0.000552	5.515293	0.934316	-0.011033
1879	9.3900e-01	1.2151	-6.716496	0.000410	4.104404	0.695305	-0.008210
1880	9.3950e-01	1.2065	-6.786199	0.000697	6.968936	1.180570	-0.013941
1881	9.4000e-01	1.1935	-6.826824	0.000406	4.061650	0.688062	-0.008125
1882	9.4050e-01	1.1866	-6.847777	0.000209	2.094956	0.354895	-0.004191
1883	9.4100e-01	1.1756	-6.896954	0.000492	4.916734	0.832917	-0.009835
1884	9.4150e-01	1.1652	-6.926033	0.000291	2.907286	0.492508	-0.005816
1885	9.4200e-01	1.1581	-6.984190	0.000581	5.814573	0.985015	-0.011631
1886	9.4250e-01	1.1459	-7.018400	0.000342	3.420337	0.579421	-0.006842
1887	9.4300e-01	1.1356	-7.058597	0.000402	4.018896	0.680819	-0.008039
1888	9.4350e-01	1.1258	-7.099221	0.000406	4.061650	0.688062	-0.008125
1889	9.4400e-01	1.1147	-7.142411	0.000432	4.318175	0.731519	-0.008638
1890	9.4450e-01	1.1055	-7.188595	0.000462	4.617455	0.782218	-0.009237
1891	9.4500e-01	1.0939	-7.227509	0.000389	3.890633	0.659091	-0.007783
1892	9.4550e-01	1.0837	-7.264284	0.000368	3.676862	0.622877	-0.007355
1893	9.4600e-01	1.0767	-7.302771	0.000385	3.847879	0.651848	-0.007697
1894	9.4650e-01	1.0669	-7.354086	0.000513	5.130505	0.869131	-0.010263
1895	9.4700e-01	1.0559	-7.400269	0.000462	4.617455	0.782218	-0.009237
1896	9.4750e-01	1.0452	-7.462275	0.000620	6.199360	1.050200	-0.012401
1897	9.4800e-01	1.0329	-7.481518	0.000192	1.923939	0.325924	-0.003849
1898	9.4850e-01	1.0272	-7.520860	0.000393	3.933387	0.666334	-0.007868
1899	9.4900e-01	1.0163	-7.573457	0.000526	5.258768	0.890859	-0.010520
1900	9.4950e-01	1.0050	-7.628193	0.000547	5.472539	0.927073	-0.010947
1901	9.5000e-01	0.9961	-7.660265	0.000321	3.206566	0.543207	-0.006414
1902	9.5050e-01	0.9861	-7.698324	0.000381	3.805125	0.644606	-0.007612
1903	9.5100e-01	0.9775	-7.742369	0.000440	4.403684	0.746004	-0.008809
1904	9.5150e-01	0.9642	-7.789836	0.000475	4.745717	0.803946	-0.009493
1905	9.5200e-01	0.9564	-7.839013	0.000492	4.916734	0.832917	-0.009835
1906	9.5250e-01	0.9464	-7.869374	0.000304	3.035549	0.514236	-0.006072
1907	9.5300e-01	0.9372	-7.918123	0.000487	4.873980	0.825675	-0.009750
1908	9.5350e-01	0.9292	-7.957893	0.000398	3.976141	0.673577	-0.007954
1909	9.5400e-01	0.9155	-8.005359	0.000475	4.745717	0.803946	-0.009493
1910	9.5450e-01	0.9055	-8.031444	0.000261	2.608007	0.441808	-0.005217
1911	9.5500e-01	0.8972	-8.089174	0.000577	5.771818	0.977772	-0.011546
1912	9.5550e-01	0.8844	-8.135357	0.000462	4.617455	0.782218	-0.009237
1913	9.5600e-01	0.8739	-8.186244	0.000509	5.087751	0.861888	-0.010177
1914	9.5650e-01	0.8667	-8.232856	0.000466	4.660209	0.789461	-0.009322
1915	9.5700e-01	0.8541	-8.267493	0.000346	3.463091	0.586663	-0.006928
1916	9.5750e-01	0.8426	-8.312822	0.000453	4.531946	0.767732	-0.009066
1917	9.5800e-01	0.8357	-8.343183	0.000304	3.035549	0.514236	-0.006072
1918	9.5850e-01	0.8286	-8.397064	0.000539	5.387030	0.912588	-0.010776
1919	9.5900e-01	0.8162	-8.434267	0.000372	3.719616	0.630120	-0.007441
1920	9.5950e-01	0.8066	-8.472753	0.000385	3.847879	0.651848	-0.007697
1921	9.6000e-01	0.7966	-8.498839	0.000261	2.608007	0.441808	-0.005217
1922	9.6050e-01	0.7840	-8.563838	0.000650	6.498640	1.100899	-0.013000
1923	9.6100e-01	0.7760	-8.612587	0.000487	4.873980	0.825675	-0.009750
1924	9.6150e-01	0.7673	-8.648080	0.000355	3.548599	0.601149	-0.007099
1925	9.6200e-01	0.7567	-8.696401	0.000483	4.831226	0.818432	-0.009664
1926	9.6250e-01	0.7423	-8.731894	0.000355	3.548599	0.601149	-0.007099
1927	9.6300e-01	0.7352	-8.794755	0.000628	6.284869	1.064686	-0.012572
1928	9.6350e-01	0.7253	-8.805018	0.000103	1.026101	0.173826	-0.002053
1929	9.6400e-01	0.7178	-8.849064	0.000440	4.403684	0.746004	-0.008809
1930	9.6450e-01	0.7068	-8.904655	0.000556	5.558047	0.941559	-0.011118
1931	9.6500e-01	0.6947	-8.959391	0.000547	5.472539	0.927073	-0.010947
1932	9.6550e-01	0.6834	-9.008568	0.000492	4.916734	0.832917	-0.009835
1933	9.6600e-01	0.6754	-9.044488	0.000359	3.591354	0.608392	-0.007184
1934	9.6650e-01	0.6679	-9.098797	0.000543	5.429785	0.919830	-0.010862
1935	9.6700e-01	0.6596	-9.135573	0.000368	3.676862	0.622877	-0.007355
1936	9.6750e-01	0.6448	-9.175342	0.000398	3.976141	0.673577	-0.007954
1937	9.6800e-01	0.6384	-9.225801	0.000504	5.044997	0.854646	-0.010092
1938	9.6850e-01	0.6239	-9.260012	0.000342	3.420337	0.579421	-0.006842
1939	9.6900e-01	0.6165	-9.297215	0.000372	3.719616	0.630120	-0.007441
1940	9.6950e-01	0.6057	-9.334418	0.000372	3.719616	0.630120	-0.007441
1941	9.7000e-01	0.5961	-9.387871	0.000534	5.344276	0.905345	-0.010691
1942	9.7050e-01	0.5859	-9.402838	0.000150	1.496397	0.253497	-0.002993
1943	9.7100e-01	0.5760	-9.467837	0.000650	6.498640	1.100899	-0.013000
1944	9.7150e-01	0.5643	-9.517870	0.000500	5.002243	0.847403	-0.010006
1945	9.7200e-01	0.5577	-9.583296	0.000654	6.541394	1.108142	-0.013085
1946	9.7250e-01	0.5457	-9.602539	0.000192	1.923939	0.325924	-0.003849
1947	9.7300e-01	0.5341	-9.653854	0.000513	5.130505	0.869131	-0.010263
1948	9.7350e-01	0.5244	-9.717998	0.000641	6.413131	1.086414	-0.012829
1949	9.7400e-01	0.5170	-9.733393	0.000154	1.539152	0.260739	-0.003079
1950	9.7450e-01	0.5052	-9.803523	0.000701	7.011690	1.187813	-0.014026
1951	9.7500e-01	0.5000	-9.829181	0.000257	2.565253	0.434566	-0.005132
1952	9.7550e-01	0.4851	-9.885627	0.000564	5.643556	0.956044	-0.011289
1953	9.7600e-01	0.4766	-9.922831	0.000372	3.719616	0.630120	-0.007441
1954	9.7650e-01	0.4696	-9.982698	0.000599	5.985589	1.013986	-0.011974
1955	9.7700e-01	0.4559	-10.031020	0.000483	4.831226	0.818432	-0.009664
1956	9.7750e-01	0.4443	-10.059671	0.000286	2.864532	0.485265	-0.005730
1957	9.7800e-01	0.4341	-10.107137	0.000475	4.745717	0.803946	-0.009493
1958	9.7850e-01	0.4240	-10.167005	0.000599	5.985589	1.013986	-0.011974
1959	9.7900e-01	0.4154	-10.188814	0.000218	2.180465	0.369381	-0.004362
1960	9.7950e-01	0.4054	-10.236280	0.000475	4.745717	0.803946	-0.009493
1961	9.8000e-01	0.3944	-10.267069	0.000308	3.078303	0.521479	-0.006158
1962	9.8050e-01	0.3833	-10.324371	0.000573	5.729064	0.970530	-0.011460
1963	9.8100e-01	0.3754	-10.382528	0.000581	5.814573	0.985015	-0.011631
1964	9.8150e-01	0.3650	-10.421442	0.000389	3.890633	0.659091	-0.007783
1965	9.8200e-01	0.3564	-10.458645	0.000372	3.719616	0.630120	-0.007441
1966	9.8250e-01	0.3457	-10.507394	0.000487	4.873980	0.825675	-0.009750
1967	9.8300e-01	0.3362	-10.566407	0.000590	5.900081	0.999501	-0.011802
1968	9.8350e-01	0.3254	-10.585650	0.000192	1.923939	0.325924	-0.003849
1969	9.8400e-01	0.3161	-10.641669	0.000560	5.600801	0.948801	-0.011204
1970	9.8450e-01	0.3045	-10.664761	0.000231	2.308727	0.391109	-0.004618
1971	9.8500e-01	0.2941	-10.716503	0.000517	5.173259	0.876374	-0.010349
1972	9.8550e-01	0.2848	-10.760976	0.000445	4.446438	0.753247	-0.008895
1973	9.8600e-01	0.2734	-10.819133	0.000581	5.814573	0.985015	-0.011631
1974	9.8650e-01	0.2652	-10.871304	0.000522	5.216014	0.883617	-0.010434
1975	9.8700e-01	0.2570	-10.916632	0.000453	4.531946	0.767732	-0.009066
1976	9.8750e-01	0.2474	-10.932454	0.000158	1.581906	0.267982	-0.003164
1977	9.8800e-01	0.2355	-10.993604	0.000611	6.113852	1.035715	-0.012230
1978	9.8850e-01	0.2254	-11.038077	0.000445	4.446438	0.753247	-0.008895
1979	9.8900e-01	0.2139	-11.094524	0.000564	5.643556	0.956044	-0.011289
1980	9.8950e-01	0.2079	-11.140280	0.000457	4.574700	0.774975	-0.009151
1981	9.9000e-01	0.1960	-11.185608	0.000453	4.531946	0.767732	-0.009066
1982	9.9050e-01	0.1827	-11.227515	0.000419	4.189913	0.709790	-0.008381
1983	9.9100e-01	0.1762	-11.282679	0.000552	5.515293	0.934316	-0.011033
1984	9.9150e-01	0.1662	-11.316461	0.000338	3.377583	0.572178	-0.006756
1985	9.9200e-01	0.1563	-11.372480	0.000560	5.600801	0.948801	-0.011204
1986	9.9250e-01	0.1453	-11.401131	0.000286	2.864532	0.485265	-0.005730
1987	9.9300e-01	0.1323	-11.470407	0.000693	6.926182	1.173327	-0.013855
1988	9.9350e-01	0.1248	-11.529846	0.000594	5.942835	1.006744	-0.011888
1989	9.9400e-01	0.1178	-11.544813	0.000150	1.496397	0.253497	-0.002993
1990	9.9450e-01	0.1069	-11.601260	0.000564	5.643556	0.956044	-0.011289
1991	9.9500e-01	0.0948	-11.644022	0.000428	4.275421	0.724276	-0.008553
1992	9.9550e-01	0.0850	-11.698331	0.000543	5.429785	0.919830	-0.010862
1993	9.9600e-01	0.0748	-11.741093	0.000428	4.275421	0.724276	-0.008553
1994	9.9650e-01	0.0634	-11.808231	0.000671	6.712411	1.137113	-0.013427
1995	9.9700e-01	0.0561	-11.829184	0.000209	2.094956	0.354895	-0.004191
1996	9.9750e-01	0.0450	-11.890762	0.000616	6.156606	1.042957	-0.012316
1997	9.9800e-01	0.0363	-11.935235	0.000445	4.446438	0.753247	-0.008895
1998	9.9850e-01	0.0246	-11.963031	0.000278	2.779024	0.470779	-0.005559
1999	9.9900e-01	0.0149	-12.023754	0.000607	6.071098	1.028472	-0.012145
2000	9.9950e-01	0.0043	-12.061812	0.000381	3.805125	0.644606	-0.007612
2001	1.0000e+00	-0.0014	-12.110562	0.000381	3.805125	0.644606	-0.009750

PMax (uC/cm2):	3.67e+01
Pr (uC/cm2):	6.22e+00
-Pr (uC/cm2):	0.00e+00
PLoss (uC/cm2):	0.00e+00
C (Max-Eff) (nF):	3.67e-01
K (Eff):	6.21e+02
Vert. (+/-Pr) Shift (uC/cm2):	3.11e+00
Offset (uC/cm2):	1.83e+01

A (Loop Area - uC/cm2·Volts):	-5.63e-02



Hysteresis Version: 5.48.1 - Radiant Technologies, Inc., 1999 - 9/12/24

