»»»»»»»»»»»»»»»»»»»»»»»»»»»»»»»»»»»» Hysteresis ««««««««««««««««««««««««««««««««««««
»»»  Executed Version:	5.48.1
»»»  Vision Version:	5.48.4 (R)
»»»  Vision Compiled:	9/18/24
»»»  Driver Version:	5.47.0
»»»  Windows Version:	Windows 8 or 8.1
»»»  Processor Information:	x86 (AMD or Intel) - 32 Processors
»»»  Tester Name:	PMF21124-494 (100V)
»»»  Tester S/N:	PMF21124-494
»»»  Internal Amp Type:	100V RevK 270k
»»»  Internal Amp S/N:	iAB2-596/K     
»»»  Execution Count:	1
»»»»»»»»»»»»»»»»»»»»»»»»»»»»»»»»»»»»»»»»»»««««««««««««««««««««««««««««««««««««««««««

Stored:	6/30/2025 - 11:10:52
Configured:	06/30/25 10:19:58 AM
Executed:	06/30/25 11:10:26 AM

»»»»»»»»»»»»»»»»»»»»»»»»»»»»»»»»»»» Sample Info ««««««««««««««««««««««««««««««««««««
Sample Name:	
Lot Name:	
Wafer Name:	
Die Row/Column:	0/0
Capacitor Number:	0
Sample Area (cm2):	1.00e-04
Sample Thickness (microns):	1.50e-01

Amplifier:	Internal

»»»»»»»»»»»»»»»»»»»»»»»»»»»»»»»»»»» Tester Info «««««««««««««««««««««««««««««««««««
Tester Name:	PMF21124-494 (100V)
Tester Serial Number:	PMF21124-494
Return Signal Amp. Level:	1.79 [Index: 2]

»»»»»»»»»»»»»»»»»»»»»»»»»»»»»»»» Hysteresis Info ««««««««««««««««««««««««««««««««««
Task Name:	Hyst-1804
Volts:	10.00
Field:	666.67 (kV/cm)
DCBias:	0.00
DCField:	0.00 (kV/cm)
Hysteresis Period (ms):	1.00e+00
Preset:	Enabled
Preset Delay (ms):	1.00e+03
Profile:	Standard Monopolar

»»»»»»»»»»»»»»»»»»»»»»»»»»»»»»»»»»»»»» Data «««««««««««««««««««««««««««««««««««««««
Points:	2001

Valid Data

Point	Time (ms)	Drive Voltage	Measured Polarization (uC/cm2)	Capacitance (uF)	Normalized Capacitance (uF/cm2)	Dielectric Constant	Instantaneous Current (mA)
   1	0.0000e+00	-0.0030	-16.115486	0.000684	6.841587	1.158996	0.013684
   2	5.0000e-04	0.0053	-16.047066	0.000684	6.841587	1.158996	0.013684
   3	1.0000e-03	0.0176	-16.003876	0.000432	4.318752	0.731616	0.008638
   4	1.5000e-03	0.0280	-15.958975	0.000449	4.489791	0.760591	0.008980
   5	2.0000e-03	0.0356	-15.927331	0.000316	3.164234	0.536036	0.006329
   6	2.5000e-03	0.0460	-15.883286	0.000440	4.404272	0.746104	0.008809
   7	3.0000e-03	0.0555	-15.826839	0.000564	5.644309	0.956172	0.011289
   8	3.5000e-03	0.0656	-15.801182	0.000257	2.565595	0.434624	0.005132
   9	4.0000e-03	0.0760	-15.742169	0.000590	5.900869	0.999634	0.011802
  10	4.5000e-03	0.0863	-15.707532	0.000346	3.463553	0.586742	0.006928
  11	5.0000e-03	0.0990	-15.648092	0.000594	5.943629	1.006878	0.011888
  12	5.5000e-03	0.1057	-15.620724	0.000274	2.736635	0.463598	0.005474
  13	6.0000e-03	0.1183	-15.579672	0.000410	4.104952	0.695398	0.008210
  14	6.5000e-03	0.1257	-15.545889	0.000338	3.378033	0.572254	0.006756
  15	7.0000e-03	0.1373	-15.493291	0.000526	5.259470	0.890978	0.010520
  16	7.5000e-03	0.1427	-15.458226	0.000351	3.506313	0.593986	0.007013
  17	8.0000e-03	0.1550	-15.409904	0.000483	4.831871	0.818541	0.009664
  18	8.5000e-03	0.1642	-15.375694	0.000342	3.420793	0.579498	0.006842
  19	9.0000e-03	0.1746	-15.337208	0.000385	3.848393	0.651935	0.007697
  20	9.5000e-03	0.1843	-15.270071	0.000671	6.713307	1.137265	0.013427
  21	1.0000e-02	0.1968	-15.226453	0.000436	4.361512	0.738860	0.008724
  22	1.0500e-02	0.2059	-15.221749	0.000047	0.470359	0.079681	0.000941
  23	1.1000e-02	0.2142	-15.155467	0.000663	6.627787	1.122778	0.013256
  24	1.1500e-02	0.2248	-15.098593	0.000569	5.687069	0.963416	0.011375
  25	1.2000e-02	0.2377	-15.066949	0.000316	3.164234	0.536036	0.006329
  26	1.2500e-02	0.2481	-15.025897	0.000410	4.104952	0.695398	0.008210
  27	1.3000e-02	0.2555	-14.998957	0.000269	2.693875	0.456355	0.005388
  28	1.3500e-02	0.2637	-14.923694	0.000753	7.525745	1.274896	0.015052
  29	1.4000e-02	0.2779	-14.904451	0.000192	1.924196	0.325968	0.003849
  30	1.4500e-02	0.2889	-14.870241	0.000342	3.420793	0.579498	0.006842
  31	1.5000e-02	0.2941	-14.828334	0.000419	4.190472	0.709885	0.008381
  32	1.5500e-02	0.3067	-14.755638	0.000727	7.269186	1.231433	0.014539
  33	1.6000e-02	0.3207	-14.702185	0.000534	5.344990	0.905466	0.010691
  34	1.6500e-02	0.3245	-14.683797	0.000184	1.838676	0.311480	0.003678
  35	1.7000e-02	0.3333	-14.626067	0.000577	5.772589	0.977903	0.011546
  36	1.7500e-02	0.3471	-14.604686	0.000214	2.137996	0.362186	0.004276
  37	1.8000e-02	0.3571	-14.546101	0.000586	5.858109	0.992390	0.011717
  38	1.8500e-02	0.3689	-14.516595	0.000295	2.950434	0.499817	0.005901
  39	1.9000e-02	0.3775	-14.496069	0.000205	2.052476	0.347699	0.004105
  40	1.9500e-02	0.3880	-14.429787	0.000663	6.627787	1.122778	0.013256
  41	2.0000e-02	0.3973	-14.396432	0.000334	3.335274	0.565011	0.006671
  42	2.0500e-02	0.4061	-14.342124	0.000543	5.430510	0.919953	0.010862
  43	2.1000e-02	0.4182	-14.310907	0.000312	3.121474	0.528792	0.006243
  44	2.1500e-02	0.4279	-14.258737	0.000522	5.216710	0.883735	0.010434
  45	2.2000e-02	0.4366	-14.226665	0.000321	3.206994	0.543279	0.006414
  46	2.2500e-02	0.4488	-14.177488	0.000492	4.917391	0.833029	0.009835
  47	2.3000e-02	0.4578	-14.124463	0.000530	5.302230	0.898222	0.010605
  48	2.3500e-02	0.4671	-14.101799	0.000227	2.266276	0.383917	0.004533
  49	2.4000e-02	0.4767	-14.077852	0.000239	2.394555	0.405649	0.004789
  50	2.4500e-02	0.4885	-14.003872	0.000740	7.397466	1.253165	0.014796
  51	2.5000e-02	0.4962	-13.979070	0.000248	2.480075	0.420136	0.004960
  52	2.5500e-02	0.5077	-13.946143	0.000329	3.292514	0.557767	0.006585
  53	2.6000e-02	0.5164	-13.894828	0.000513	5.131190	0.869247	0.010263
  54	2.6500e-02	0.5263	-13.835816	0.000590	5.900869	0.999634	0.011802
  55	2.7000e-02	0.5364	-13.800323	0.000355	3.549073	0.601229	0.007099
  56	2.7500e-02	0.5478	-13.767396	0.000329	3.292514	0.557767	0.006585
  57	2.8000e-02	0.5621	-13.713087	0.000543	5.430510	0.919953	0.010862
  58	2.8500e-02	0.5664	-13.658351	0.000547	5.473269	0.927197	0.010947
  59	2.9000e-02	0.5764	-13.627562	0.000308	3.078714	0.521548	0.006158
  60	2.9500e-02	0.5871	-13.568978	0.000586	5.858109	0.992390	0.011717
  61	3.0000e-02	0.6017	-13.538616	0.000304	3.035954	0.514305	0.006072
  62	3.0500e-02	0.6055	-13.515952	0.000227	2.266276	0.383917	0.004533
  63	3.1000e-02	0.6168	-13.462499	0.000534	5.344990	0.905466	0.010691
  64	3.1500e-02	0.6287	-13.427861	0.000346	3.463553	0.586742	0.006928
  65	3.2000e-02	0.6390	-13.388947	0.000389	3.891153	0.659179	0.007783
  66	3.2500e-02	0.6487	-13.327797	0.000611	6.114668	1.035853	0.012230
  67	3.3000e-02	0.6554	-13.276482	0.000513	5.131190	0.869247	0.010263
  68	3.3500e-02	0.6628	-13.261515	0.000150	1.496597	0.253530	0.002993
  69	3.4000e-02	0.6773	-13.215331	0.000462	4.618071	0.782322	0.009237
  70	3.4500e-02	0.6864	-13.177273	0.000381	3.805633	0.644692	0.007612
  71	3.5000e-02	0.6966	-13.119971	0.000573	5.729829	0.970659	0.011460
  72	3.5500e-02	0.7076	-13.099445	0.000205	2.052476	0.347699	0.004105
  73	3.6000e-02	0.7166	-13.045992	0.000534	5.344990	0.905466	0.010691
  74	3.6500e-02	0.7257	-13.013065	0.000329	3.292514	0.557767	0.006585
  75	3.7000e-02	0.7352	-12.958756	0.000543	5.430510	0.919953	0.010862
  76	3.7500e-02	0.7468	-12.940368	0.000184	1.838676	0.311480	0.003678
  77	3.8000e-02	0.7581	-12.886060	0.000543	5.430510	0.919953	0.010862
  78	3.8500e-02	0.7661	-12.865534	0.000205	2.052476	0.347699	0.004105
  79	3.9000e-02	0.7792	-12.802245	0.000633	6.328468	1.072071	0.012658
  80	3.9500e-02	0.7858	-12.755207	0.000470	4.703591	0.796810	0.009408
  81	4.0000e-02	0.7952	-12.737246	0.000180	1.795917	0.304236	0.003592
  82	4.0500e-02	0.8072	-12.699615	0.000376	3.762873	0.637448	0.007526
  83	4.1000e-02	0.8150	-12.641886	0.000577	5.772589	0.977903	0.011546
  84	4.1500e-02	0.8252	-12.609386	0.000325	3.249754	0.550523	0.006500
  85	4.2000e-02	0.8350	-12.550374	0.000590	5.900869	0.999634	0.011802
  86	4.2500e-02	0.8475	-12.520013	0.000304	3.035954	0.514305	0.006072
  87	4.3000e-02	0.8604	-12.486658	0.000334	3.335274	0.565011	0.006671
  88	4.3500e-02	0.8659	-12.428501	0.000582	5.815349	0.985147	0.011631
  89	4.4000e-02	0.8747	-12.404554	0.000239	2.394555	0.405649	0.004789
  90	4.4500e-02	0.8875	-12.344686	0.000599	5.986388	1.014122	0.011974
  91	4.5000e-02	0.8949	-12.317746	0.000269	2.693875	0.456355	0.005388
  92	4.5500e-02	0.9067	-12.274556	0.000432	4.318752	0.731616	0.008638
  93	4.6000e-02	0.9187	-12.222386	0.000522	5.216710	0.883735	0.010434
  94	4.6500e-02	0.9286	-12.188176	0.000342	3.420793	0.579498	0.006842
  95	4.7000e-02	0.9392	-12.136861	0.000513	5.131190	0.869247	0.010263
  96	4.7500e-02	0.9474	-12.102223	0.000346	3.463553	0.586742	0.006928
  97	4.8000e-02	0.9576	-12.057750	0.000445	4.447031	0.753348	0.008895
  98	4.8500e-02	0.9665	-12.026961	0.000308	3.078714	0.521548	0.006158
  99	4.9000e-02	0.9790	-11.968376	0.000586	5.858109	0.992390	0.011717
 100	4.9500e-02	0.9875	-11.944429	0.000239	2.394555	0.405649	0.004789
 101	5.0000e-02	0.9969	-11.897818	0.000466	4.660831	0.789566	0.009322
 102	5.0500e-02	1.0059	-11.876009	0.000218	2.180756	0.369430	0.004362
 103	5.1000e-02	1.0171	-11.831108	0.000449	4.489791	0.760591	0.008980
 104	5.1500e-02	1.0297	-11.789629	0.000415	4.147712	0.702641	0.008296
 105	5.2000e-02	1.0384	-11.755419	0.000342	3.420793	0.579498	0.006842
 106	5.2500e-02	1.0468	-11.703249	0.000522	5.216710	0.883735	0.010434
 107	5.3000e-02	1.0590	-11.657493	0.000458	4.575311	0.775079	0.009151
 108	5.3500e-02	1.0658	-11.619862	0.000376	3.762873	0.637448	0.007526
 109	5.4000e-02	1.0797	-11.596770	0.000231	2.309036	0.391161	0.004618
 110	5.4500e-02	1.0874	-11.539040	0.000577	5.772589	0.977903	0.011546
 111	5.5000e-02	1.0982	-11.490291	0.000487	4.874631	0.825785	0.009750
 112	5.5500e-02	1.1052	-11.448811	0.000415	4.147712	0.702641	0.008296
 113	5.6000e-02	1.1183	-11.431706	0.000171	1.710397	0.289749	0.003421
 114	5.6500e-02	1.1284	-11.390227	0.000415	4.147712	0.702641	0.008296
 115	5.7000e-02	1.1380	-11.360721	0.000295	2.950434	0.499817	0.005901
 116	5.7500e-02	1.1447	-11.309406	0.000513	5.131190	0.869247	0.010263
 117	5.8000e-02	1.1566	-11.267926	0.000415	4.147712	0.702641	0.008296
 118	5.8500e-02	1.1658	-11.221742	0.000462	4.618071	0.782322	0.009237
 119	5.9000e-02	1.1770	-11.183256	0.000385	3.848393	0.651935	0.007697
 120	5.9500e-02	1.1909	-11.127237	0.000560	5.601549	0.948928	0.011204
 121	6.0000e-02	1.1989	-11.106711	0.000205	2.052476	0.347699	0.004105
 122	6.0500e-02	1.2110	-11.063093	0.000436	4.361512	0.738860	0.008724
 123	6.1000e-02	1.2175	-11.017338	0.000458	4.575311	0.775079	0.009151
 124	6.1500e-02	1.2276	-10.972437	0.000449	4.489791	0.760591	0.008980
 125	6.2000e-02	1.2386	-10.923260	0.000492	4.917391	0.833029	0.009835
 126	6.2500e-02	1.2471	-10.872800	0.000505	5.045670	0.854760	0.010092
 127	6.3000e-02	1.2537	-10.857833	0.000150	1.496597	0.253530	0.002993
 128	6.3500e-02	1.2675	-10.829610	0.000282	2.822155	0.478086	0.005645
 129	6.4000e-02	1.2790	-10.771453	0.000582	5.815349	0.985147	0.011631
 130	6.4500e-02	1.2872	-10.728691	0.000428	4.275992	0.724373	0.008553
 131	6.5000e-02	1.2936	-10.697901	0.000308	3.078714	0.521548	0.006158
 132	6.5500e-02	1.3094	-10.666685	0.000312	3.121474	0.528792	0.006243
 133	6.6000e-02	1.3173	-10.627771	0.000389	3.891153	0.659179	0.007783
 134	6.6500e-02	1.3267	-10.614515	0.000133	1.325557	0.224556	0.002651
 135	6.7000e-02	1.3373	-10.540963	0.000735	7.354706	1.245921	0.014710
 136	6.7500e-02	1.3470	-10.503332	0.000376	3.762873	0.637448	0.007526
 137	6.8000e-02	1.3562	-10.472543	0.000308	3.078714	0.521548	0.006158
 138	6.8500e-02	1.3662	-10.425077	0.000475	4.746351	0.804054	0.009493
 139	6.9000e-02	1.3773	-10.379321	0.000458	4.575311	0.775079	0.009151
 140	6.9500e-02	1.3879	-10.333565	0.000458	4.575311	0.775079	0.009151
 141	7.0000e-02	1.3971	-10.301920	0.000316	3.164234	0.536036	0.006329
 142	7.0500e-02	1.4069	-10.251033	0.000509	5.088430	0.862003	0.010177
 143	7.1000e-02	1.4172	-10.235211	0.000158	1.582117	0.268018	0.003164
 144	7.1500e-02	1.4265	-10.199718	0.000355	3.549073	0.601229	0.007099
 145	7.2000e-02	1.4355	-10.149258	0.000505	5.045670	0.854760	0.010092
 146	7.2500e-02	1.4497	-10.091956	0.000573	5.729829	0.970659	0.011460
 147	7.3000e-02	1.4583	-10.086397	0.000056	0.555879	0.094168	0.001112
 148	7.3500e-02	1.4684	-10.023536	0.000629	6.285708	1.064828	0.012572
 149	7.4000e-02	1.4767	-9.998307	0.000252	2.522835	0.427380	0.005046
 150	7.4500e-02	1.4850	-9.958110	0.000402	4.019432	0.680910	0.008039
 151	7.5000e-02	1.4981	-9.898242	0.000599	5.986388	1.014122	0.011974
 152	7.5500e-02	1.5070	-9.867881	0.000304	3.035954	0.514305	0.006072
 153	7.6000e-02	1.5152	-9.819132	0.000487	4.874631	0.825785	0.009750
 154	7.6500e-02	1.5263	-9.783639	0.000355	3.549073	0.601229	0.007099
 155	7.7000e-02	1.5357	-9.760547	0.000231	2.309036	0.391161	0.004618
 156	7.7500e-02	1.5463	-9.713508	0.000470	4.703591	0.796810	0.009408
 157	7.8000e-02	1.5591	-9.668180	0.000453	4.532551	0.767835	0.009066
 158	7.8500e-02	1.5658	-9.631404	0.000368	3.677353	0.622960	0.007355
 159	7.9000e-02	1.5765	-9.604464	0.000269	2.693875	0.456355	0.005388
 160	7.9500e-02	1.5859	-9.567260	0.000372	3.720113	0.630204	0.007441
 161	8.0000e-02	1.5965	-9.519794	0.000475	4.746351	0.804054	0.009493
 162	8.0500e-02	1.6071	-9.480025	0.000398	3.976672	0.673667	0.007954
 163	8.1000e-02	1.6170	-9.442821	0.000372	3.720113	0.630204	0.007441
 164	8.1500e-02	1.6272	-9.394072	0.000487	4.874631	0.825785	0.009750
 165	8.2000e-02	1.6370	-9.352165	0.000419	4.190472	0.709885	0.008381
 166	8.2500e-02	1.6467	-9.317099	0.000351	3.506313	0.593986	0.007013
 167	8.3000e-02	1.6559	-9.285028	0.000321	3.206994	0.543279	0.006414
 168	8.3500e-02	1.6669	-9.234995	0.000500	5.002910	0.847516	0.010006
 169	8.4000e-02	1.6767	-9.203779	0.000312	3.121474	0.528792	0.006243
 170	8.4500e-02	1.6850	-9.157168	0.000466	4.660831	0.789566	0.009322
 171	8.5000e-02	1.6961	-9.136214	0.000210	2.095236	0.354943	0.004191
 172	8.5500e-02	1.7050	-9.093451	0.000428	4.275992	0.724373	0.008553
 173	8.6000e-02	1.7185	-9.037433	0.000560	5.601549	0.948928	0.011204
 174	8.6500e-02	1.7270	-9.008354	0.000291	2.907674	0.492573	0.005816
 175	8.7000e-02	1.7371	-8.958322	0.000500	5.002910	0.847516	0.010006
 176	8.7500e-02	1.7472	-8.950625	0.000077	0.769679	0.130387	0.001539
 177	8.8000e-02	1.7566	-8.910428	0.000402	4.019432	0.680910	0.008039
 178	8.8500e-02	1.7638	-8.848422	0.000620	6.200188	1.050340	0.012401
 179	8.9000e-02	1.7764	-8.810791	0.000376	3.762873	0.637448	0.007526
 180	8.9500e-02	1.7850	-8.785989	0.000248	2.480075	0.420136	0.004960
 181	9.0000e-02	1.7976	-8.736384	0.000496	4.960150	0.840272	0.009921
 182	9.0500e-02	1.8063	-8.708589	0.000278	2.779395	0.470842	0.005559
 183	9.1000e-02	1.8174	-8.652142	0.000564	5.644309	0.956172	0.011289
 184	9.1500e-02	1.8262	-8.626912	0.000252	2.522835	0.427380	0.005046
 185	9.2000e-02	1.8373	-8.592702	0.000342	3.420793	0.579498	0.006842
 186	9.2500e-02	1.8462	-8.542670	0.000500	5.002910	0.847516	0.010006
 187	9.3000e-02	1.8561	-8.502901	0.000398	3.976672	0.673667	0.007954
 188	9.3500e-02	1.8706	-8.493921	0.000090	0.897958	0.152118	0.001796
 189	9.4000e-02	1.8787	-8.434909	0.000590	5.900869	0.999634	0.011802
 190	9.4500e-02	1.8898	-8.393857	0.000410	4.104952	0.695398	0.008210
 191	9.5000e-02	1.8979	-8.333561	0.000603	6.029148	1.021365	0.012059
 192	9.5500e-02	1.9060	-8.315173	0.000184	1.838676	0.311480	0.003678
 193	9.6000e-02	1.9147	-8.283957	0.000312	3.121474	0.528792	0.006243
 194	9.6500e-02	1.9287	-8.250602	0.000334	3.335274	0.565011	0.006671
 195	9.7000e-02	1.9356	-8.185603	0.000650	6.499507	1.101046	0.013000
 196	9.7500e-02	1.9471	-8.174057	0.000115	1.154518	0.195581	0.002309
 197	9.8000e-02	1.9565	-8.133860	0.000402	4.019432	0.680910	0.008039
 198	9.8500e-02	1.9679	-8.100506	0.000334	3.335274	0.565011	0.006671
 199	9.9000e-02	1.9785	-8.070144	0.000304	3.035954	0.514305	0.006072
 200	9.9500e-02	1.9867	-8.016263	0.000539	5.387750	0.912709	0.010776
 201	1.0000e-01	1.9963	-7.980343	0.000359	3.591833	0.608473	0.007184
 202	1.0050e-01	2.0051	-7.918765	0.000616	6.157428	1.043097	0.012316
 203	1.0100e-01	2.0174	-7.896528	0.000222	2.223516	0.376674	0.004447
 204	1.0150e-01	2.0251	-7.883272	0.000133	1.325557	0.224556	0.002651
 205	1.0200e-01	2.0364	-7.826398	0.000569	5.687069	0.963416	0.011375
 206	1.0250e-01	2.0480	-7.790477	0.000359	3.591833	0.608473	0.007184
 207	1.0300e-01	2.0554	-7.741728	0.000487	4.874631	0.825785	0.009750
 208	1.0350e-01	2.0680	-7.722057	0.000197	1.966956	0.333211	0.003934
 209	1.0400e-01	2.0763	-7.674163	0.000479	4.789111	0.811297	0.009579
 210	1.0450e-01	2.0880	-7.636960	0.000372	3.720113	0.630204	0.007441
 211	1.0500e-01	2.0981	-7.594625	0.000423	4.233232	0.717129	0.008467
 212	1.0550e-01	2.1069	-7.556566	0.000381	3.805633	0.644692	0.007612
 213	1.0600e-01	2.1162	-7.522784	0.000338	3.378033	0.572254	0.006756
 214	1.0650e-01	2.1271	-7.477883	0.000449	4.489791	0.760591	0.008980
 215	1.0700e-01	2.1375	-7.436404	0.000415	4.147712	0.702641	0.008296
 216	1.0750e-01	2.1461	-7.410318	0.000261	2.608355	0.441867	0.005217
 217	1.0800e-01	2.1595	-7.352161	0.000582	5.815349	0.985147	0.011631
 218	1.0850e-01	2.1661	-7.335484	0.000167	1.667637	0.282505	0.003335
 219	1.0900e-01	2.1759	-7.288445	0.000470	4.703591	0.796810	0.009408
 220	1.0950e-01	2.1846	-7.243545	0.000449	4.489791	0.760591	0.008980
 221	1.1000e-01	2.1964	-7.227295	0.000162	1.624877	0.275262	0.003250
 222	1.1050e-01	2.2070	-7.190947	0.000363	3.634593	0.615717	0.007270
 223	1.1100e-01	2.2153	-7.139204	0.000517	5.173950	0.876491	0.010349
 224	1.1150e-01	2.2266	-7.119961	0.000192	1.924196	0.325968	0.003849
 225	1.1200e-01	2.2375	-7.069073	0.000509	5.088430	0.862003	0.010177
 226	1.1250e-01	2.2449	-7.047692	0.000214	2.137996	0.362186	0.004276
 227	1.1300e-01	2.2578	-7.008351	0.000393	3.933912	0.666423	0.007868
 228	1.1350e-01	2.2656	-6.954470	0.000539	5.387750	0.912709	0.010776
 229	1.1400e-01	2.2760	-6.919405	0.000351	3.506313	0.593986	0.007013
 230	1.1450e-01	2.2888	-6.868517	0.000509	5.088430	0.862003	0.010177
 231	1.1500e-01	2.2968	-6.842432	0.000261	2.608355	0.441867	0.005217
 232	1.1550e-01	2.3059	-6.828748	0.000137	1.368317	0.231799	0.002737
 233	1.1600e-01	2.3189	-6.759900	0.000688	6.884347	1.166240	0.013770
 234	1.1650e-01	2.3280	-6.730822	0.000291	2.907674	0.492573	0.005816
 235	1.1700e-01	2.3358	-6.691480	0.000393	3.933912	0.666423	0.007868
 236	1.1750e-01	2.3489	-6.653422	0.000381	3.805633	0.644692	0.007612
 237	1.1800e-01	2.3557	-6.624771	0.000286	2.864914	0.485330	0.005730
 238	1.1850e-01	2.3683	-6.584574	0.000402	4.019432	0.680910	0.008039
 239	1.1900e-01	2.3778	-6.553357	0.000312	3.121474	0.528792	0.006243
 240	1.1950e-01	2.3895	-6.509740	0.000436	4.361512	0.738860	0.008724
 241	1.2000e-01	2.3967	-6.469970	0.000398	3.976672	0.673667	0.007954
 242	1.2050e-01	2.4079	-6.444741	0.000252	2.522835	0.427380	0.005046
 243	1.2100e-01	2.4184	-6.393853	0.000509	5.088430	0.862003	0.010177
 244	1.2150e-01	2.4261	-6.386156	0.000077	0.769679	0.130387	0.001539
 245	1.2200e-01	2.4412	-6.313032	0.000731	7.311946	1.238677	0.014625
 246	1.2250e-01	2.4469	-6.294216	0.000188	1.881436	0.318724	0.003763
 247	1.2300e-01	2.4548	-6.242046	0.000522	5.216710	0.883735	0.010434
 248	1.2350e-01	2.4630	-6.233066	0.000090	0.897958	0.152118	0.001796
 249	1.2400e-01	2.4760	-6.180468	0.000526	5.259470	0.890978	0.010520
 250	1.2450e-01	2.4908	-6.124449	0.000560	5.601549	0.948928	0.011204
 251	1.2500e-01	2.4979	-6.103923	0.000205	2.052476	0.347699	0.004105
 252	1.2550e-01	2.5076	-6.078266	0.000257	2.565595	0.434624	0.005132
 253	1.2600e-01	2.5179	-6.019681	0.000586	5.858109	0.992390	0.011717
 254	1.2650e-01	2.5302	-6.006852	0.000128	1.282798	0.217312	0.002566
 255	1.2700e-01	2.5385	-5.944847	0.000620	6.200188	1.050340	0.012401
 256	1.2750e-01	2.5461	-5.915340	0.000295	2.950434	0.499817	0.005901
 257	1.2800e-01	2.5594	-5.888400	0.000269	2.693875	0.456355	0.005388
 258	1.2850e-01	2.5674	-5.844355	0.000440	4.404272	0.746104	0.008809
 259	1.2900e-01	2.5783	-5.807579	0.000368	3.677353	0.622960	0.007355
 260	1.2950e-01	2.5896	-5.759685	0.000479	4.789111	0.811297	0.009579
 261	1.3000e-01	2.5964	-5.724620	0.000351	3.506313	0.593986	0.007013
 262	1.3050e-01	2.6038	-5.691692	0.000329	3.292514	0.557767	0.006585
 263	1.3100e-01	2.6181	-5.664752	0.000269	2.693875	0.456355	0.005388
 264	1.3150e-01	2.6273	-5.645937	0.000188	1.881436	0.318724	0.003763
 265	1.3200e-01	2.6385	-5.583931	0.000620	6.200188	1.050340	0.012401
 266	1.3250e-01	2.6468	-5.554852	0.000291	2.907674	0.492573	0.005816
 267	1.3300e-01	2.6563	-5.500972	0.000539	5.387750	0.912709	0.010776
 268	1.3350e-01	2.6668	-5.496695	0.000043	0.427599	0.072437	0.000855
 269	1.3400e-01	2.6760	-5.444525	0.000522	5.216710	0.883735	0.010434
 270	1.3450e-01	2.6888	-5.385940	0.000586	5.858109	0.992390	0.011717
 271	1.3500e-01	2.6981	-5.345744	0.000402	4.019432	0.680910	0.008039
 272	1.3550e-01	2.7082	-5.344888	0.000009	0.085520	0.014487	0.000171
 273	1.3600e-01	2.7182	-5.296139	0.000487	4.874631	0.825785	0.009750
 274	1.3650e-01	2.7303	-5.260646	0.000355	3.549073	0.601229	0.007099
 275	1.3700e-01	2.7374	-5.213607	0.000470	4.703591	0.796810	0.009408
 276	1.3750e-01	2.7484	-5.180680	0.000329	3.292514	0.557767	0.006585
 277	1.3800e-01	2.7579	-5.140483	0.000402	4.019432	0.680910	0.008039
 278	1.3850e-01	2.7676	-5.104563	0.000359	3.591833	0.608473	0.007184
 279	1.3900e-01	2.7765	-5.074202	0.000304	3.035954	0.514305	0.006072
 280	1.3950e-01	2.7881	-5.043412	0.000308	3.078714	0.521548	0.006158
 281	1.4000e-01	2.7982	-5.014334	0.000291	2.907674	0.492573	0.005816
 282	1.4050e-01	2.8081	-4.985255	0.000291	2.907674	0.492573	0.005816
 283	1.4100e-01	2.8159	-4.940782	0.000445	4.447031	0.753348	0.008895
 284	1.4150e-01	2.8284	-4.906572	0.000342	3.420793	0.579498	0.006842
 285	1.4200e-01	2.8375	-4.849698	0.000569	5.687069	0.963416	0.011375
 286	1.4250e-01	2.8479	-4.837297	0.000124	1.240038	0.210068	0.002480
 287	1.4300e-01	2.8571	-4.765884	0.000714	7.140906	1.209702	0.014283
 288	1.4350e-01	2.8679	-4.747923	0.000180	1.795917	0.304236	0.003592
 289	1.4400e-01	2.8777	-4.710292	0.000376	3.762873	0.637448	0.007526
 290	1.4450e-01	2.8870	-4.680786	0.000295	2.950434	0.499817	0.005901
 291	1.4500e-01	2.8976	-4.647859	0.000329	3.292514	0.557767	0.006585
 292	1.4550e-01	2.9068	-4.609373	0.000385	3.848393	0.651935	0.007697
 293	1.4600e-01	2.9166	-4.586281	0.000231	2.309036	0.391161	0.004618
 294	1.4650e-01	2.9293	-4.531117	0.000552	5.516029	0.934441	0.011033
 295	1.4700e-01	2.9382	-4.492204	0.000389	3.891153	0.659179	0.007783
 296	1.4750e-01	2.9472	-4.461414	0.000308	3.078714	0.521548	0.006158
 297	1.4800e-01	2.9607	-4.428915	0.000325	3.249754	0.550523	0.006500
 298	1.4850e-01	2.9694	-4.390856	0.000381	3.805633	0.644692	0.007612
 299	1.4900e-01	2.9791	-4.347239	0.000436	4.361512	0.738860	0.008724
 300	1.4950e-01	2.9871	-4.312601	0.000346	3.463553	0.586742	0.006928
 301	1.5000e-01	3.0011	-4.295068	0.000175	1.753157	0.296993	0.003507
 302	1.5050e-01	3.0075	-4.251023	0.000440	4.404272	0.746104	0.008809
 303	1.5100e-01	3.0170	-4.198853	0.000522	5.216710	0.883735	0.010434
 304	1.5150e-01	3.0286	-4.175333	0.000235	2.351795	0.398405	0.004704
 305	1.5200e-01	3.0396	-4.141123	0.000342	3.420793	0.579498	0.006842
 306	1.5250e-01	3.0453	-4.121452	0.000197	1.966956	0.333211	0.003934
 307	1.5300e-01	3.0556	-4.066716	0.000547	5.473269	0.927197	0.010947
 308	1.5350e-01	3.0692	-4.038493	0.000282	2.822155	0.478086	0.005645
 309	1.5400e-01	3.0774	-4.004711	0.000338	3.378033	0.572254	0.006756
 310	1.5450e-01	3.0881	-3.965369	0.000393	3.933912	0.666423	0.007868
 311	1.5500e-01	3.0978	-3.923462	0.000419	4.190472	0.709885	0.008381
 312	1.5550e-01	3.1065	-3.891818	0.000316	3.164234	0.536036	0.006329
 313	1.5600e-01	3.1183	-3.848200	0.000436	4.361512	0.738860	0.008724
 314	1.5650e-01	3.1253	-3.814417	0.000338	3.378033	0.572254	0.006756
 315	1.5700e-01	3.1345	-3.805865	0.000086	0.855198	0.144875	0.001711
 316	1.5750e-01	3.1461	-3.748136	0.000577	5.772589	0.977903	0.011546
 317	1.5800e-01	3.1586	-3.714781	0.000334	3.335274	0.565011	0.006671
 318	1.5850e-01	3.1671	-3.682709	0.000321	3.206994	0.543279	0.006414
 319	1.5900e-01	3.1781	-3.646361	0.000363	3.634593	0.615717	0.007270
 320	1.5950e-01	3.1870	-3.609585	0.000368	3.677353	0.622960	0.007355
 321	1.6000e-01	3.1971	-3.587348	0.000222	2.223516	0.376674	0.004447
 322	1.6050e-01	3.2062	-3.535606	0.000517	5.173950	0.876491	0.010349
 323	1.6100e-01	3.2162	-3.498402	0.000372	3.720113	0.630204	0.007441
 324	1.6150e-01	3.2242	-3.475738	0.000227	2.266276	0.383917	0.004533
 325	1.6200e-01	3.2365	-3.432120	0.000436	4.361512	0.738860	0.008724
 326	1.6250e-01	3.2469	-3.390641	0.000415	4.147712	0.702641	0.008296
 327	1.6300e-01	3.2565	-3.359852	0.000308	3.078714	0.521548	0.006158
 328	1.6350e-01	3.2666	-3.343602	0.000162	1.624877	0.275262	0.003250
 329	1.6400e-01	3.2800	-3.298274	0.000453	4.532551	0.767835	0.009066
 330	1.6450e-01	3.2874	-3.248669	0.000496	4.960150	0.840272	0.009921
 331	1.6500e-01	3.2983	-3.207617	0.000410	4.104952	0.695398	0.008210
 332	1.6550e-01	3.3041	-3.183243	0.000244	2.437315	0.412892	0.004875
 333	1.6600e-01	3.3168	-3.157157	0.000261	2.608355	0.441867	0.005217
 334	1.6650e-01	3.3273	-3.142191	0.000150	1.496597	0.253530	0.002993
 335	1.6700e-01	3.3352	-3.082323	0.000599	5.986388	1.014122	0.011974
 336	1.6750e-01	3.3485	-3.063507	0.000188	1.881436	0.318724	0.003763
 337	1.6800e-01	3.3563	-3.015613	0.000479	4.789111	0.811297	0.009579
 338	1.6850e-01	3.3658	-2.992949	0.000227	2.266276	0.383917	0.004533
 339	1.6900e-01	3.3756	-2.937786	0.000552	5.516029	0.934441	0.011033
 340	1.6950e-01	3.3858	-2.903576	0.000342	3.420793	0.579498	0.006842
 341	1.7000e-01	3.3984	-2.875352	0.000282	2.822155	0.478086	0.005645
 342	1.7050e-01	3.4076	-2.824893	0.000505	5.045670	0.854760	0.010092
 343	1.7100e-01	3.4171	-2.804367	0.000205	2.052476	0.347699	0.004105
 344	1.7150e-01	3.4262	-2.763742	0.000406	4.062192	0.688154	0.008125
 345	1.7200e-01	3.4404	-2.756473	0.000073	0.726919	0.123143	0.001454
 346	1.7250e-01	3.4460	-2.710717	0.000458	4.575311	0.775079	0.009151
 347	1.7300e-01	3.4573	-2.663678	0.000470	4.703591	0.796810	0.009408
 348	1.7350e-01	3.4673	-2.626902	0.000368	3.677353	0.622960	0.007355
 349	1.7400e-01	3.4779	-2.594830	0.000321	3.206994	0.543279	0.006414
 350	1.7450e-01	3.4865	-2.556772	0.000381	3.805633	0.644692	0.007612
 351	1.7500e-01	3.4961	-2.529403	0.000274	2.736635	0.463598	0.005474
 352	1.7550e-01	3.5071	-2.501180	0.000282	2.822155	0.478086	0.005645
 353	1.7600e-01	3.5182	-2.452859	0.000483	4.831871	0.818541	0.009664
 354	1.7650e-01	3.5281	-2.425491	0.000274	2.736635	0.463598	0.005474
 355	1.7700e-01	3.5388	-2.399405	0.000261	2.608355	0.441867	0.005217
 356	1.7750e-01	3.5468	-2.343387	0.000560	5.601549	0.948928	0.011204
 357	1.7800e-01	3.5562	-2.324571	0.000188	1.881436	0.318724	0.003763
 358	1.7850e-01	3.5681	-2.283091	0.000415	4.147712	0.702641	0.008296
 359	1.7900e-01	3.5803	-2.242467	0.000406	4.062192	0.688154	0.008125
 360	1.7950e-01	3.5886	-2.215099	0.000274	2.736635	0.463598	0.005474
 361	1.8000e-01	3.6030	-2.184310	0.000308	3.078714	0.521548	0.006158
 362	1.8050e-01	3.6069	-2.161218	0.000231	2.309036	0.391161	0.004618
 363	1.8100e-01	3.6157	-2.106910	0.000543	5.430510	0.919953	0.010862
 364	1.8150e-01	3.6281	-2.067568	0.000393	3.933912	0.666423	0.007868
 365	1.8200e-01	3.6386	-2.056450	0.000111	1.111758	0.188337	0.002224
 366	1.8250e-01	3.6508	-2.005135	0.000513	5.131190	0.869247	0.010263
 367	1.8300e-01	3.6594	-1.981188	0.000239	2.394555	0.405649	0.004789
 368	1.8350e-01	3.6662	-1.938425	0.000428	4.275992	0.724373	0.008553
 369	1.8400e-01	3.6801	-1.914906	0.000235	2.351795	0.398405	0.004704
 370	1.8450e-01	3.6865	-1.888393	0.000265	2.651115	0.449111	0.005303
 371	1.8500e-01	3.6949	-1.835368	0.000530	5.302230	0.898222	0.010605
 372	1.8550e-01	3.7080	-1.806289	0.000291	2.907674	0.492573	0.005816
 373	1.8600e-01	3.7183	-1.769941	0.000363	3.634593	0.615717	0.007270
 374	1.8650e-01	3.7253	-1.732738	0.000372	3.720113	0.630204	0.007441
 375	1.8700e-01	3.7378	-1.686982	0.000458	4.575311	0.775079	0.009151
 376	1.8750e-01	3.7466	-1.668166	0.000188	1.881436	0.318724	0.003763
 377	1.8800e-01	3.7552	-1.651061	0.000171	1.710397	0.289749	0.003421
 378	1.8850e-01	3.7685	-1.593759	0.000573	5.729829	0.970659	0.011460
 379	1.8900e-01	3.7772	-1.569385	0.000244	2.437315	0.412892	0.004875
 380	1.8950e-01	3.7924	-1.544155	0.000252	2.522835	0.427380	0.005046
 381	1.9000e-01	3.7964	-1.520208	0.000239	2.394555	0.405649	0.004789
 382	1.9050e-01	3.8101	-1.470603	0.000496	4.960150	0.840272	0.009921
 383	1.9100e-01	3.8202	-1.438531	0.000321	3.206994	0.543279	0.006414
 384	1.9150e-01	3.8281	-1.393631	0.000449	4.489791	0.760591	0.008980
 385	1.9200e-01	3.8382	-1.361131	0.000325	3.249754	0.550523	0.006500
 386	1.9250e-01	3.8477	-1.320507	0.000406	4.062192	0.688154	0.008125
 387	1.9300e-01	3.8562	-1.305112	0.000154	1.539357	0.260774	0.003079
 388	1.9350e-01	3.8663	-1.261067	0.000440	4.404272	0.746104	0.008809
 389	1.9400e-01	3.8763	-1.230278	0.000308	3.078714	0.521548	0.006158
 390	1.9450e-01	3.8889	-1.202910	0.000274	2.736635	0.463598	0.005474
 391	1.9500e-01	3.8977	-1.187943	0.000150	1.496597	0.253530	0.002993
 392	1.9550e-01	3.9075	-1.134917	0.000530	5.302230	0.898222	0.010605
 393	1.9600e-01	3.9160	-1.100280	0.000346	3.463553	0.586742	0.006928
 394	1.9650e-01	3.9261	-1.060938	0.000393	3.933912	0.666423	0.007868
 395	1.9700e-01	3.9368	-1.039129	0.000218	2.180756	0.369430	0.004362
 396	1.9750e-01	3.9497	-0.975413	0.000637	6.371228	1.079315	0.012743
 397	1.9800e-01	3.9581	-0.958736	0.000167	1.667637	0.282505	0.003335
 398	1.9850e-01	3.9661	-0.912980	0.000458	4.575311	0.775079	0.009151
 399	1.9900e-01	3.9783	-0.892882	0.000201	2.009716	0.340455	0.004020
 400	1.9950e-01	3.9862	-0.865086	0.000278	2.779395	0.470842	0.005559
 401	2.0000e-01	3.9954	-0.833442	0.000316	3.164234	0.536036	0.006329
 402	2.0050e-01	4.0077	-0.809495	0.000239	2.394555	0.405649	0.004789
 403	2.0100e-01	4.0179	-0.753903	0.000556	5.558789	0.941684	0.011118
 404	2.0150e-01	4.0272	-0.715417	0.000385	3.848393	0.651935	0.007697
 405	2.0200e-01	4.0381	-0.670516	0.000449	4.489791	0.760591	0.008980
 406	2.0250e-01	4.0466	-0.653411	0.000171	1.710397	0.289749	0.003421
 407	2.0300e-01	4.0573	-0.598675	0.000547	5.473269	0.927197	0.010947
 408	2.0350e-01	4.0710	-0.584136	0.000145	1.453837	0.246287	0.002908
 409	2.0400e-01	4.0764	-0.547360	0.000368	3.677353	0.622960	0.007355
 410	2.0450e-01	4.0858	-0.514006	0.000334	3.335274	0.565011	0.006671
 411	2.0500e-01	4.0958	-0.501604	0.000124	1.240038	0.210068	0.002480
 412	2.0550e-01	4.1051	-0.450289	0.000513	5.131190	0.869247	0.010263
 413	2.0600e-01	4.1168	-0.413514	0.000368	3.677353	0.622960	0.007355
 414	2.0650e-01	4.1260	-0.396836	0.000167	1.667637	0.282505	0.003335
 415	2.0700e-01	4.1367	-0.369896	0.000269	2.693875	0.456355	0.005388
 416	2.0750e-01	4.1467	-0.310028	0.000599	5.986388	1.014122	0.011974
 417	2.0800e-01	4.1571	-0.295489	0.000145	1.453837	0.246287	0.002908
 418	2.0850e-01	4.1666	-0.256148	0.000393	3.933912	0.666423	0.007868
 419	2.0900e-01	4.1772	-0.239898	0.000162	1.624877	0.275262	0.003250
 420	2.0950e-01	4.1876	-0.214240	0.000257	2.565595	0.434624	0.005132
 421	2.1000e-01	4.1983	-0.154373	0.000599	5.986388	1.014122	0.011974
 422	2.1050e-01	4.2065	-0.114604	0.000398	3.976672	0.673667	0.007954
 423	2.1100e-01	4.2191	-0.081676	0.000329	3.292514	0.557767	0.006585
 424	2.1150e-01	4.2300	-0.057729	0.000239	2.394555	0.405649	0.004789
 425	2.1200e-01	4.2377	-0.031644	0.000261	2.608355	0.441867	0.005217
 426	2.1250e-01	4.2474	0.002993	0.000346	3.463553	0.586742	0.006928
 427	2.1300e-01	4.2577	0.034210	0.000312	3.121474	0.528792	0.006243
 428	2.1350e-01	4.2688	0.080394	0.000462	4.618071	0.782322	0.009237
 429	2.1400e-01	4.2793	0.110327	0.000299	2.993194	0.507061	0.005987
 430	2.1450e-01	4.2883	0.133847	0.000235	2.351795	0.398405	0.004704
 431	2.1500e-01	4.2966	0.189438	0.000556	5.558789	0.941684	0.011118
 432	2.1550e-01	4.3060	0.206543	0.000171	1.710397	0.289749	0.003421
 433	2.1600e-01	4.3183	0.232628	0.000261	2.608355	0.441867	0.005217
 434	2.1650e-01	4.3243	0.271542	0.000389	3.891153	0.659179	0.007783
 435	2.1700e-01	4.3365	0.300621	0.000291	2.907674	0.492573	0.005816
 436	2.1750e-01	4.3489	0.363909	0.000633	6.328468	1.072071	0.012658
 437	2.1800e-01	4.3558	0.375883	0.000120	1.197278	0.202824	0.002395
 438	2.1850e-01	4.3671	0.403678	0.000278	2.779395	0.470842	0.005559
 439	2.1900e-01	4.3768	0.425487	0.000218	2.180756	0.369430	0.004362
 440	2.1950e-01	4.3875	0.464401	0.000389	3.891153	0.659179	0.007783
 441	2.2000e-01	4.3973	0.507591	0.000432	4.318752	0.731616	0.008638
 442	2.2050e-01	4.4092	0.533676	0.000261	2.608355	0.441867	0.005217
 443	2.2100e-01	4.4199	0.561900	0.000282	2.822155	0.478086	0.005645
 444	2.2150e-01	4.4269	0.588412	0.000265	2.651115	0.449111	0.005303
 445	2.2200e-01	4.4398	0.630320	0.000419	4.190472	0.709885	0.008381
 446	2.2250e-01	4.4482	0.679924	0.000496	4.960150	0.840272	0.009921
 447	2.2300e-01	4.4598	0.692325	0.000124	1.240038	0.210068	0.002480
 448	2.2350e-01	4.4670	0.741502	0.000492	4.917391	0.833029	0.009835
 449	2.2400e-01	4.4778	0.767587	0.000261	2.608355	0.441867	0.005217
 450	2.2450e-01	4.4876	0.765449	-0.000021	-0.213800	-0.036219	-0.000428
 451	2.2500e-01	4.4958	0.839856	0.000744	7.440226	1.260408	0.014881
 452	2.2550e-01	4.5093	0.854395	0.000145	1.453837	0.246287	0.002908
 453	2.2600e-01	4.5168	0.893737	0.000393	3.933912	0.666423	0.007868
 454	2.2650e-01	4.5282	0.925809	0.000321	3.206994	0.543279	0.006414
 455	2.2700e-01	4.5355	0.955315	0.000295	2.950434	0.499817	0.005901
 456	2.2750e-01	4.5468	0.977979	0.000227	2.266276	0.383917	0.004533
 457	2.2800e-01	4.5615	1.010479	0.000325	3.249754	0.550523	0.006500
 458	2.2850e-01	4.5685	1.046399	0.000359	3.591833	0.608473	0.007184
 459	2.2900e-01	4.5773	1.071629	0.000252	2.522835	0.427380	0.005046
 460	2.2950e-01	4.5901	1.121233	0.000496	4.960150	0.840272	0.009921
 461	2.3000e-01	4.5990	1.149029	0.000278	2.779395	0.470842	0.005559
 462	2.3050e-01	4.6082	1.172976	0.000239	2.394555	0.405649	0.004789
 463	2.3100e-01	4.6161	1.219160	0.000462	4.618071	0.782322	0.009237
 464	2.3150e-01	4.6289	1.254225	0.000351	3.506313	0.593986	0.007013
 465	2.3200e-01	4.6370	1.283731	0.000295	2.950434	0.499817	0.005901
 466	2.3250e-01	4.6490	1.311954	0.000282	2.822155	0.478086	0.005645
 467	2.3300e-01	4.6564	1.355144	0.000432	4.318752	0.731616	0.008638
 468	2.3350e-01	4.6692	1.382085	0.000269	2.693875	0.456355	0.005388
 469	2.3400e-01	4.6783	1.415440	0.000334	3.335274	0.565011	0.006671
 470	2.3450e-01	4.6906	1.423992	0.000086	0.855198	0.144875	0.001711
 471	2.3500e-01	4.6997	1.471886	0.000479	4.789111	0.811297	0.009579
 472	2.3550e-01	4.7083	1.485143	0.000133	1.325557	0.224556	0.002651
 473	2.3600e-01	4.7180	1.531754	0.000466	4.660831	0.789566	0.009322
 474	2.3650e-01	4.7278	1.550569	0.000188	1.881436	0.318724	0.003763
 475	2.3700e-01	4.7391	1.597180	0.000466	4.660831	0.789566	0.009322
 476	2.3750e-01	4.7485	1.611720	0.000145	1.453837	0.246287	0.002908
 477	2.3800e-01	4.7583	1.659186	0.000475	4.746351	0.804054	0.009493
 478	2.3850e-01	4.7662	1.703659	0.000445	4.447031	0.753348	0.008895
 479	2.3900e-01	4.7757	1.718198	0.000145	1.453837	0.246287	0.002908
 480	2.3950e-01	4.7884	1.756685	0.000385	3.848393	0.651935	0.007697
 481	2.4000e-01	4.7980	1.792605	0.000359	3.591833	0.608473	0.007184
 482	2.4050e-01	4.8083	1.829381	0.000368	3.677353	0.622960	0.007355
 483	2.4100e-01	4.8181	1.856321	0.000269	2.693875	0.456355	0.005388
 484	2.4150e-01	4.8303	1.905071	0.000487	4.874631	0.825785	0.009750
 485	2.4200e-01	4.8376	1.925169	0.000201	2.009716	0.340455	0.004020
 486	2.4250e-01	4.8462	1.944412	0.000192	1.924196	0.325968	0.003849
 487	2.4300e-01	4.8590	1.973918	0.000295	2.950434	0.499817	0.005901
 488	2.4350e-01	4.8688	2.017964	0.000440	4.404272	0.746104	0.008809
 489	2.4400e-01	4.8782	2.045332	0.000274	2.736635	0.463598	0.005474
 490	2.4450e-01	4.8901	2.074410	0.000291	2.907674	0.492573	0.005816
 491	2.4500e-01	4.8975	2.108620	0.000342	3.420793	0.579498	0.006842
 492	2.4550e-01	4.9078	2.121449	0.000128	1.282798	0.217312	0.002566
 493	2.4600e-01	4.9182	2.170198	0.000487	4.874631	0.825785	0.009750
 494	2.4650e-01	4.9261	2.211250	0.000410	4.104952	0.695398	0.008210
 495	2.4700e-01	4.9385	2.222796	0.000115	1.154518	0.195581	0.002309
 496	2.4750e-01	4.9487	2.273256	0.000505	5.045670	0.854760	0.010092
 497	2.4800e-01	4.9580	2.274111	0.000009	0.085520	0.014487	0.000171
 498	2.4850e-01	4.9677	2.342104	0.000680	6.798827	1.151752	0.013598
 499	2.4900e-01	4.9786	2.359636	0.000175	1.753157	0.296993	0.003507
 500	2.4950e-01	4.9866	2.392563	0.000329	3.292514	0.557767	0.006585
 501	2.5000e-01	4.9969	2.421214	0.000286	2.864914	0.485330	0.005730
 502	2.5050e-01	5.0079	2.450720	0.000295	2.950434	0.499817	0.005901
 503	2.5100e-01	5.0183	2.507167	0.000564	5.644309	0.956172	0.011289
 504	2.5150e-01	5.0281	2.508022	0.000009	0.085520	0.014487	0.000171
 505	2.5200e-01	5.0391	2.549930	0.000419	4.190472	0.709885	0.008381
 506	2.5250e-01	5.0482	2.581146	0.000312	3.121474	0.528792	0.006243
 507	2.5300e-01	5.0595	2.622198	0.000410	4.104952	0.695398	0.008210
 508	2.5350e-01	5.0665	2.648711	0.000265	2.651115	0.449111	0.005303
 509	2.5400e-01	5.0766	2.659402	0.000107	1.068998	0.181093	0.002138
 510	2.5450e-01	5.0906	2.710717	0.000513	5.131190	0.869247	0.010263
 511	2.5500e-01	5.0980	2.731670	0.000210	2.095236	0.354943	0.004191
 512	2.5550e-01	5.1082	2.773150	0.000415	4.147712	0.702641	0.008296
 513	2.5600e-01	5.1190	2.783413	0.000103	1.026238	0.173849	0.002053
 514	2.5650e-01	5.1276	2.823182	0.000398	3.976672	0.673667	0.007954
 515	2.5700e-01	5.1370	2.850122	0.000269	2.693875	0.456355	0.005388
 516	2.5750e-01	5.1483	2.885188	0.000351	3.506313	0.593986	0.007013
 517	2.5800e-01	5.1569	2.936503	0.000513	5.131190	0.869247	0.010263
 518	2.5850e-01	5.1700	2.954463	0.000180	1.795917	0.304236	0.003592
 519	2.5900e-01	5.1781	2.985680	0.000312	3.121474	0.528792	0.006243
 520	2.5950e-01	5.1843	3.016469	0.000308	3.078714	0.521548	0.006158
 521	2.6000e-01	5.1996	3.037850	0.000214	2.137996	0.362186	0.004276
 522	2.6050e-01	5.2115	3.073343	0.000355	3.549073	0.601229	0.007099
 523	2.6100e-01	5.2191	3.103277	0.000299	2.993194	0.507061	0.005987
 524	2.6150e-01	5.2264	3.129789	0.000265	2.651115	0.449111	0.005303
 525	2.6200e-01	5.2377	3.167420	0.000376	3.762873	0.637448	0.007526
 526	2.6250e-01	5.2478	3.202913	0.000355	3.549073	0.601229	0.007099
 527	2.6300e-01	5.2612	3.238834	0.000359	3.591833	0.608473	0.007184
 528	2.6350e-01	5.2679	3.264064	0.000252	2.522835	0.427380	0.005046
 529	2.6400e-01	5.2789	3.297846	0.000338	3.378033	0.572254	0.006756
 530	2.6450e-01	5.2866	3.329490	0.000316	3.164234	0.536036	0.006329
 531	2.6500e-01	5.2985	3.363273	0.000338	3.378033	0.572254	0.006756
 532	2.6550e-01	5.3094	3.392779	0.000295	2.950434	0.499817	0.005901
 533	2.6600e-01	5.3177	3.413305	0.000205	2.052476	0.347699	0.004105
 534	2.6650e-01	5.3284	3.436397	0.000231	2.309036	0.391161	0.004618
 535	2.6700e-01	5.3383	3.476166	0.000398	3.976672	0.673667	0.007954
 536	2.6750e-01	5.3461	3.513369	0.000372	3.720113	0.630204	0.007441
 537	2.6800e-01	5.3601	3.550145	0.000368	3.677353	0.622960	0.007355
 538	2.6850e-01	5.3650	3.574947	0.000248	2.480075	0.420136	0.004960
 539	2.6900e-01	5.3784	3.611295	0.000363	3.634593	0.615717	0.007270
 540	2.6950e-01	5.3882	3.648499	0.000372	3.720113	0.630204	0.007441
 541	2.7000e-01	5.3964	3.665176	0.000167	1.667637	0.282505	0.003335
 542	2.7050e-01	5.4059	3.686130	0.000210	2.095236	0.354943	0.004191
 543	2.7100e-01	5.4181	3.711360	0.000252	2.522835	0.427380	0.005046
 544	2.7150e-01	5.4272	3.748991	0.000376	3.762873	0.637448	0.007526
 545	2.7200e-01	5.4382	3.794319	0.000453	4.532551	0.767835	0.009066
 546	2.7250e-01	5.4468	3.819977	0.000257	2.565595	0.434624	0.005132
 547	2.7300e-01	5.4572	3.856752	0.000368	3.677353	0.622960	0.007355
 548	2.7350e-01	5.4675	3.863167	0.000064	0.641399	0.108656	0.001283
 549	2.7400e-01	5.4788	3.908923	0.000458	4.575311	0.775079	0.009151
 550	2.7450e-01	5.4846	3.941422	0.000325	3.249754	0.550523	0.006500
 551	2.7500e-01	5.4987	3.971356	0.000299	2.993194	0.507061	0.005987
 552	2.7550e-01	5.5078	4.000434	0.000291	2.907674	0.492573	0.005816
 553	2.7600e-01	5.5151	4.017539	0.000171	1.710397	0.289749	0.003421
 554	2.7650e-01	5.5267	4.059447	0.000419	4.190472	0.709885	0.008381
 555	2.7700e-01	5.5371	4.076124	0.000167	1.667637	0.282505	0.003335
 556	2.7750e-01	5.5472	4.115893	0.000398	3.976672	0.673667	0.007954
 557	2.7800e-01	5.5582	4.152669	0.000368	3.677353	0.622960	0.007355
 558	2.7850e-01	5.5670	4.184313	0.000316	3.164234	0.536036	0.006329
 559	2.7900e-01	5.5774	4.205267	0.000210	2.095236	0.354943	0.004191
 560	2.7950e-01	5.5887	4.240332	0.000351	3.506313	0.593986	0.007013
 561	2.8000e-01	5.5969	4.264707	0.000244	2.437315	0.412892	0.004875
 562	2.8050e-01	5.6079	4.287799	0.000231	2.309036	0.391161	0.004618
 563	2.8100e-01	5.6186	4.336976	0.000492	4.917391	0.833029	0.009835
 564	2.8150e-01	5.6262	4.360495	0.000235	2.351795	0.398405	0.004704
 565	2.8200e-01	5.6366	4.404968	0.000445	4.447031	0.753348	0.008895
 566	2.8250e-01	5.6506	4.414803	0.000098	0.983478	0.166606	0.001967
 567	2.8300e-01	5.6586	4.451151	0.000363	3.634593	0.615717	0.007270
 568	2.8350e-01	5.6677	4.472960	0.000218	2.180756	0.369430	0.004362
 569	2.8400e-01	5.6793	4.509736	0.000368	3.677353	0.622960	0.007355
 570	2.8450e-01	5.6879	4.529835	0.000201	2.009716	0.340455	0.004020
 571	2.8500e-01	5.6976	4.562334	0.000325	3.249754	0.550523	0.006500
 572	2.8550e-01	5.7092	4.606807	0.000445	4.447031	0.753348	0.008895
 573	2.8600e-01	5.7178	4.621346	0.000145	1.453837	0.246287	0.002908
 574	2.8650e-01	5.7248	4.655129	0.000338	3.378033	0.572254	0.006756
 575	2.8700e-01	5.7391	4.690622	0.000355	3.549073	0.601229	0.007099
 576	2.8750e-01	5.7462	4.699602	0.000090	0.897958	0.152118	0.001796
 577	2.8800e-01	5.7562	4.733384	0.000338	3.378033	0.572254	0.006756
 578	2.8850e-01	5.7669	4.772298	0.000389	3.891153	0.659179	0.007783
 579	2.8900e-01	5.7770	4.808646	0.000363	3.634593	0.615717	0.007270
 580	2.8950e-01	5.7877	4.853119	0.000445	4.447031	0.753348	0.008895
 581	2.9000e-01	5.7983	4.877494	0.000244	2.437315	0.412892	0.004875
 582	2.9050e-01	5.8064	4.889895	0.000124	1.240038	0.210068	0.002480
 583	2.9100e-01	5.8185	4.923250	0.000334	3.335274	0.565011	0.006671
 584	2.9150e-01	5.8282	4.944203	0.000210	2.095236	0.354943	0.004191
 585	2.9200e-01	5.8380	4.969433	0.000252	2.522835	0.427380	0.005046
 586	2.9250e-01	5.8478	5.028018	0.000586	5.858109	0.992390	0.011717
 587	2.9300e-01	5.8591	5.048544	0.000205	2.052476	0.347699	0.004105
 588	2.9350e-01	5.8667	5.066932	0.000184	1.838676	0.311480	0.003678
 589	2.9400e-01	5.8777	5.112688	0.000458	4.575311	0.775079	0.009151
 590	2.9450e-01	5.8881	5.125089	0.000124	1.240038	0.210068	0.002480
 591	2.9500e-01	5.8992	5.153740	0.000286	2.864914	0.485330	0.005730
 592	2.9550e-01	5.9088	5.192226	0.000385	3.848393	0.651935	0.007697
 593	2.9600e-01	5.9192	5.224298	0.000321	3.206994	0.543279	0.006414
 594	2.9650e-01	5.9290	5.249100	0.000248	2.480075	0.420136	0.004960
 595	2.9700e-01	5.9375	5.289725	0.000406	4.062192	0.688154	0.008125
 596	2.9750e-01	5.9473	5.331204	0.000415	4.147712	0.702641	0.008296
 597	2.9800e-01	5.9589	5.338474	0.000073	0.726919	0.123143	0.001454
 598	2.9850e-01	5.9680	5.368835	0.000304	3.035954	0.514305	0.006072
 599	2.9900e-01	5.9808	5.398769	0.000299	2.993194	0.507061	0.005987
 600	2.9950e-01	5.9879	5.424427	0.000257	2.565595	0.434624	0.005132
 601	3.0000e-01	5.9985	5.443670	0.000192	1.924196	0.325968	0.003849
 602	3.0050e-01	6.0101	5.498833	0.000552	5.516029	0.934441	0.011033
 603	3.0100e-01	6.0175	5.521070	0.000222	2.223516	0.376674	0.004447
 604	3.0150e-01	6.0260	5.563832	0.000428	4.275992	0.724373	0.008553
 605	3.0200e-01	6.0413	5.582648	0.000188	1.881436	0.318724	0.003763
 606	3.0250e-01	6.0483	5.606595	0.000239	2.394555	0.405649	0.004789
 607	3.0300e-01	6.0565	5.634818	0.000282	2.822155	0.478086	0.005645
 608	3.0350e-01	6.0657	5.665180	0.000304	3.035954	0.514305	0.006072
 609	3.0400e-01	6.0773	5.701100	0.000359	3.591833	0.608473	0.007184
 610	3.0450e-01	6.0892	5.715212	0.000141	1.411077	0.239043	0.002822
 611	3.0500e-01	6.0951	5.769520	0.000543	5.430510	0.919953	0.010862
 612	3.0550e-01	6.1115	5.793895	0.000244	2.437315	0.412892	0.004875
 613	3.0600e-01	6.1211	5.802447	0.000086	0.855198	0.144875	0.001711
 614	3.0650e-01	6.1282	5.848631	0.000462	4.618071	0.782322	0.009237
 615	3.0700e-01	6.1374	5.864881	0.000162	1.624877	0.275262	0.003250
 616	3.0750e-01	6.1484	5.897808	0.000329	3.292514	0.557767	0.006585
 617	3.0800e-01	6.1578	5.925603	0.000278	2.779395	0.470842	0.005559
 618	3.0850e-01	6.1688	5.951689	0.000261	2.608355	0.441867	0.005217
 619	3.0900e-01	6.1807	5.971787	0.000201	2.009716	0.340455	0.004020
 620	3.0950e-01	6.1865	6.012839	0.000410	4.104952	0.695398	0.008210
 621	3.1000e-01	6.1981	6.035931	0.000231	2.309036	0.391161	0.004618
 622	3.1050e-01	6.2061	6.056029	0.000201	2.009716	0.340455	0.004020
 623	3.1100e-01	6.2183	6.103068	0.000470	4.703591	0.796810	0.009408
 624	3.1150e-01	6.2283	6.129153	0.000261	2.608355	0.441867	0.005217
 625	3.1200e-01	6.2366	6.153955	0.000248	2.480075	0.420136	0.004960
 626	3.1250e-01	6.2460	6.183889	0.000299	2.993194	0.507061	0.005987
 627	3.1300e-01	6.2582	6.217244	0.000334	3.335274	0.565011	0.006671
 628	3.1350e-01	6.2683	6.248461	0.000312	3.121474	0.528792	0.006243
 629	3.1400e-01	6.2784	6.299348	0.000509	5.088430	0.862003	0.010177
 630	3.1450e-01	6.2895	6.313887	0.000145	1.453837	0.246287	0.002908
 631	3.1500e-01	6.2982	6.336124	0.000222	2.223516	0.376674	0.004447
 632	3.1550e-01	6.3086	6.339545	0.000034	0.342079	0.057950	0.000684
 633	3.1600e-01	6.3187	6.395564	0.000560	5.601549	0.948928	0.011204
 634	3.1650e-01	6.3281	6.405827	0.000103	1.026238	0.173849	0.002053
 635	3.1700e-01	6.3358	6.468688	0.000629	6.285708	1.064828	0.012572
 636	3.1750e-01	6.3480	6.480233	0.000115	1.154518	0.195581	0.002309
 637	3.1800e-01	6.3588	6.500759	0.000205	2.052476	0.347699	0.004105
 638	3.1850e-01	6.3686	6.549509	0.000487	4.874631	0.825785	0.009750
 639	3.1900e-01	6.3788	6.565758	0.000162	1.624877	0.275262	0.003250
 640	3.1950e-01	6.3898	6.592699	0.000269	2.693875	0.456355	0.005388
 641	3.2000e-01	6.3980	6.621350	0.000286	2.864914	0.485330	0.005730
 642	3.2050e-01	6.4052	6.643159	0.000218	2.180756	0.369430	0.004362
 643	3.2100e-01	6.4178	6.688915	0.000458	4.575311	0.775079	0.009151
 644	3.2150e-01	6.4279	6.715855	0.000269	2.693875	0.456355	0.005388
 645	3.2200e-01	6.4386	6.752631	0.000368	3.677353	0.622960	0.007355
 646	3.2250e-01	6.4478	6.771874	0.000192	1.924196	0.325968	0.003849
 647	3.2300e-01	6.4597	6.805656	0.000338	3.378033	0.572254	0.006756
 648	3.2350e-01	6.4667	6.833024	0.000274	2.736635	0.463598	0.005474
 649	3.2400e-01	6.4764	6.841577	0.000086	0.855198	0.144875	0.001711
 650	3.2450e-01	6.4874	6.890326	0.000487	4.874631	0.825785	0.009750
 651	3.2500e-01	6.5007	6.914273	0.000239	2.394555	0.405649	0.004789
 652	3.2550e-01	6.5057	6.943779	0.000295	2.950434	0.499817	0.005901
 653	3.2600e-01	6.5187	6.980983	0.000372	3.720113	0.630204	0.007441
 654	3.2650e-01	6.5271	6.992956	0.000120	1.197278	0.202824	0.002395
 655	3.2700e-01	6.5393	7.004074	0.000111	1.111758	0.188337	0.002224
 656	3.2750e-01	6.5482	7.063087	0.000590	5.900869	0.999634	0.011802
 657	3.2800e-01	6.5576	7.074633	0.000115	1.154518	0.195581	0.002309
 658	3.2850e-01	6.5680	7.107132	0.000325	3.249754	0.550523	0.006500
 659	3.2900e-01	6.5768	7.123809	0.000167	1.667637	0.282505	0.003335
 660	3.2950e-01	6.5887	7.161013	0.000372	3.720113	0.630204	0.007441
 661	3.3000e-01	6.5967	7.184532	0.000235	2.351795	0.398405	0.004704
 662	3.3050e-01	6.6083	7.231571	0.000470	4.703591	0.796810	0.009408
 663	3.3100e-01	6.6162	7.258511	0.000269	2.693875	0.456355	0.005388
 664	3.3150e-01	6.6278	7.257229	-0.000013	-0.128280	-0.021731	-0.000257
 665	3.3200e-01	6.6394	7.296142	0.000389	3.891153	0.659179	0.007783
 666	3.3250e-01	6.6498	7.333346	0.000372	3.720113	0.630204	0.007441
 667	3.3300e-01	6.6583	7.364135	0.000308	3.078714	0.521548	0.006158
 668	3.3350e-01	6.6699	7.391930	0.000278	2.779395	0.470842	0.005559
 669	3.3400e-01	6.6775	7.404332	0.000124	1.240038	0.210068	0.002480
 670	3.3450e-01	6.6870	7.450515	0.000462	4.618071	0.782322	0.009237
 671	3.3500e-01	6.7010	7.465054	0.000145	1.453837	0.246287	0.002908
 672	3.3550e-01	6.7081	7.504824	0.000398	3.976672	0.673667	0.007954
 673	3.3600e-01	6.7188	7.534330	0.000295	2.950434	0.499817	0.005901
 674	3.3650e-01	6.7249	7.572816	0.000385	3.848393	0.651935	0.007697
 675	3.3700e-01	6.7383	7.579230	0.000064	0.641399	0.108656	0.001283
 676	3.3750e-01	6.7499	7.624131	0.000449	4.489791	0.760591	0.008980
 677	3.3800e-01	6.7609	7.639953	0.000158	1.582117	0.268018	0.003164
 678	3.3850e-01	6.7676	7.683571	0.000436	4.361512	0.738860	0.008724
 679	3.3900e-01	6.7792	7.700248	0.000167	1.667637	0.282505	0.003335
 680	3.3950e-01	6.7886	7.737452	0.000372	3.720113	0.630204	0.007441
 681	3.4000e-01	6.7987	7.748998	0.000115	1.154518	0.195581	0.002309
 682	3.4050e-01	6.8079	7.787912	0.000389	3.891153	0.659179	0.007783
 683	3.4100e-01	6.8176	7.814424	0.000265	2.651115	0.449111	0.005303
 684	3.4150e-01	6.8282	7.847351	0.000329	3.292514	0.557767	0.006585
 685	3.4200e-01	6.8365	7.866595	0.000192	1.924196	0.325968	0.003849
 686	3.4250e-01	6.8463	7.876858	0.000103	1.026238	0.173849	0.002053
 687	3.4300e-01	6.8613	7.911495	0.000346	3.463553	0.586742	0.006928
 688	3.4350e-01	6.8695	7.958962	0.000475	4.746351	0.804054	0.009493
 689	3.4400e-01	6.8799	7.962383	0.000034	0.342079	0.057950	0.000684
 690	3.4450e-01	6.8866	7.997020	0.000346	3.463553	0.586742	0.006928
 691	3.4500e-01	6.8988	8.031230	0.000342	3.420793	0.579498	0.006842
 692	3.4550e-01	6.9092	8.064157	0.000329	3.292514	0.557767	0.006585
 693	3.4600e-01	6.9189	8.102216	0.000381	3.805633	0.644692	0.007612
 694	3.4650e-01	6.9287	8.105637	0.000034	0.342079	0.057950	0.000684
 695	3.4700e-01	6.9382	8.146261	0.000406	4.062192	0.688154	0.008125
 696	3.4750e-01	6.9507	8.167215	0.000210	2.095236	0.354943	0.004191
 697	3.4800e-01	6.9592	8.191162	0.000239	2.394555	0.405649	0.004789
 698	3.4850e-01	6.9678	8.225800	0.000346	3.463553	0.586742	0.006928
 699	3.4900e-01	6.9800	8.274121	0.000483	4.831871	0.818541	0.009664
 700	3.4950e-01	6.9873	8.306193	0.000321	3.206994	0.543279	0.006414
 701	3.5000e-01	6.9992	8.309614	0.000034	0.342079	0.057950	0.000684
 702	3.5050e-01	7.0081	8.339548	0.000299	2.993194	0.507061	0.005987
 703	3.5100e-01	7.0184	8.376752	0.000372	3.720113	0.630204	0.007441
 704	3.5150e-01	7.0294	8.407541	0.000308	3.078714	0.521548	0.006158
 705	3.5200e-01	7.0389	8.436619	0.000291	2.907674	0.492573	0.005816
 706	3.5250e-01	7.0483	8.454152	0.000175	1.753157	0.296993	0.003507
 707	3.5300e-01	7.0618	8.481947	0.000278	2.779395	0.470842	0.005559
 708	3.5350e-01	7.0685	8.522572	0.000406	4.062192	0.688154	0.008125
 709	3.5400e-01	7.0782	8.549940	0.000274	2.736635	0.463598	0.005474
 710	3.5450e-01	7.0908	8.555499	0.000056	0.555879	0.094168	0.001112
 711	3.5500e-01	7.0972	8.582439	0.000269	2.693875	0.456355	0.005388
 712	3.5550e-01	7.1100	8.611518	0.000291	2.907674	0.492573	0.005816
 713	3.5600e-01	7.1191	8.653425	0.000419	4.190472	0.709885	0.008381
 714	3.5650e-01	7.1254	8.681221	0.000278	2.779395	0.470842	0.005559
 715	3.5700e-01	7.1375	8.691911	0.000107	1.068998	0.181093	0.002138
 716	3.5750e-01	7.1448	8.743226	0.000513	5.131190	0.869247	0.010263
 717	3.5800e-01	7.1558	8.746647	0.000034	0.342079	0.057950	0.000684
 718	3.5850e-01	7.1713	8.777864	0.000312	3.121474	0.528792	0.006243
 719	3.5900e-01	7.1827	8.809508	0.000316	3.164234	0.536036	0.006329
 720	3.5950e-01	7.1883	8.834738	0.000252	2.522835	0.427380	0.005046
 721	3.6000e-01	7.1997	8.861679	0.000269	2.693875	0.456355	0.005388
 722	3.6050e-01	7.2067	8.877501	0.000158	1.582117	0.268018	0.003164
 723	3.6100e-01	7.2192	8.904869	0.000274	2.736635	0.463598	0.005474
 724	3.6150e-01	7.2284	8.936085	0.000312	3.121474	0.528792	0.006243
 725	3.6200e-01	7.2403	8.960888	0.000248	2.480075	0.420136	0.004960
 726	3.6250e-01	7.2479	9.012630	0.000517	5.173950	0.876491	0.010349
 727	3.6300e-01	7.2607	9.025459	0.000128	1.282798	0.217312	0.002566
 728	3.6350e-01	7.2699	9.060524	0.000351	3.506313	0.593986	0.007013
 729	3.6400e-01	7.2772	9.098583	0.000381	3.805633	0.644692	0.007612
 730	3.6450e-01	7.2876	9.107991	0.000094	0.940718	0.159362	0.001882
 731	3.6500e-01	7.2974	9.132793	0.000248	2.480075	0.420136	0.004960
 732	3.6550e-01	7.3074	9.176838	0.000440	4.404272	0.746104	0.008809
 733	3.6600e-01	7.3181	9.183680	0.000068	0.684159	0.115900	0.001368
 734	3.6650e-01	7.3291	9.232002	0.000483	4.831871	0.818541	0.009664
 735	3.6700e-01	7.3352	9.275620	0.000436	4.361512	0.738860	0.008724
 736	3.6750e-01	7.3462	9.281607	0.000060	0.598639	0.101412	0.001197
 737	3.6800e-01	7.3578	9.302988	0.000214	2.137996	0.362186	0.004276
 738	3.6850e-01	7.3697	9.323086	0.000201	2.009716	0.340455	0.004020
 739	3.6900e-01	7.3782	9.347033	0.000239	2.394555	0.405649	0.004789
 740	3.6950e-01	7.3877	9.373974	0.000269	2.693875	0.456355	0.005388
 741	3.7000e-01	7.3993	9.426572	0.000526	5.259470	0.890978	0.010520
 742	3.7050e-01	7.4078	9.418874	-0.000077	-0.769679	-0.130387	-0.001539
 743	3.7100e-01	7.4182	9.446670	0.000278	2.779395	0.470842	0.005559
 744	3.7150e-01	7.4316	9.486439	0.000398	3.976672	0.673667	0.007954
 745	3.7200e-01	7.4374	9.500123	0.000137	1.368317	0.231799	0.002737
 746	3.7250e-01	7.4481	9.515945	0.000158	1.582117	0.268018	0.003164
 747	3.7300e-01	7.4585	9.586931	0.000710	7.098146	1.202459	0.014197
 748	3.7350e-01	7.4689	9.596766	0.000098	0.983478	0.166606	0.001967
 749	3.7400e-01	7.4774	9.593345	-0.000034	-0.342079	-0.057950	-0.000684
 750	3.7450e-01	7.4902	9.635253	0.000419	4.190472	0.709885	0.008381
 751	3.7500e-01	7.4988	9.667752	0.000325	3.249754	0.550523	0.006500
 752	3.7550e-01	7.5070	9.694265	0.000265	2.651115	0.449111	0.005303
 753	3.7600e-01	7.5183	9.728903	0.000346	3.463553	0.586742	0.006928
 754	3.7650e-01	7.5287	9.763540	0.000346	3.463553	0.586742	0.006928
 755	3.7700e-01	7.5391	9.794757	0.000312	3.121474	0.528792	0.006243
 756	3.7750e-01	7.5470	9.803737	0.000090	0.897958	0.152118	0.001796
 757	3.7800e-01	7.5598	9.833671	0.000299	2.993194	0.507061	0.005987
 758	3.7850e-01	7.5697	9.845217	0.000115	1.154518	0.195581	0.002309
 759	3.7900e-01	7.5778	9.885413	0.000402	4.019432	0.680910	0.008039
 760	3.7950e-01	7.5885	9.932880	0.000475	4.746351	0.804054	0.009493
 761	3.8000e-01	7.5983	9.947419	0.000145	1.453837	0.246287	0.002908
 762	3.8050e-01	7.6086	9.967090	0.000197	1.966956	0.333211	0.003934
 763	3.8100e-01	7.6178	9.997879	0.000308	3.078714	0.521548	0.006158
 764	3.8150e-01	7.6291	10.008570	0.000107	1.068998	0.181093	0.002138
 765	3.8200e-01	7.6404	10.056464	0.000479	4.789111	0.811297	0.009579
 766	3.8250e-01	7.6459	10.074851	0.000184	1.838676	0.311480	0.003678
 767	3.8300e-01	7.6575	10.103075	0.000282	2.822155	0.478086	0.005645
 768	3.8350e-01	7.6691	10.138140	0.000351	3.506313	0.593986	0.007013
 769	3.8400e-01	7.6764	10.156528	0.000184	1.838676	0.311480	0.003678
 770	3.8450e-01	7.6874	10.205705	0.000492	4.917391	0.833029	0.009835
 771	3.8500e-01	7.6950	10.186034	-0.000197	-1.966956	-0.333211	-0.003934
 772	3.8550e-01	7.7072	10.228369	0.000423	4.233232	0.717129	0.008467
 773	3.8600e-01	7.7161	10.266000	0.000376	3.762873	0.637448	0.007526
 774	3.8650e-01	7.7258	10.286526	0.000205	2.052476	0.347699	0.004105
 775	3.8700e-01	7.7374	10.312183	0.000257	2.565595	0.434624	0.005132
 776	3.8750e-01	7.7478	10.343828	0.000316	3.164234	0.536036	0.006329
 777	3.8800e-01	7.7563	10.380604	0.000368	3.677353	0.622960	0.007355
 778	3.8850e-01	7.7673	10.411393	0.000308	3.078714	0.521548	0.006158
 779	3.8900e-01	7.7789	10.437478	0.000261	2.608355	0.441867	0.005217
 780	3.8950e-01	7.7887	10.443892	0.000064	0.641399	0.108656	0.001283
 781	3.9000e-01	7.7991	10.466129	0.000222	2.223516	0.376674	0.004447
 782	3.9050e-01	7.8082	10.512312	0.000462	4.618071	0.782322	0.009237
 783	3.9100e-01	7.8186	10.546950	0.000346	3.463553	0.586742	0.006928
 784	3.9150e-01	7.8284	10.565338	0.000184	1.838676	0.311480	0.003678
 785	3.9200e-01	7.8412	10.581587	0.000162	1.624877	0.275262	0.003250
 786	3.9250e-01	7.8497	10.635468	0.000539	5.387750	0.912709	0.010776
 787	3.9300e-01	7.8601	10.645731	0.000103	1.026238	0.173849	0.002053
 788	3.9350e-01	7.8682	10.655994	0.000103	1.026238	0.173849	0.002053
 789	3.9400e-01	7.8787	10.718855	0.000629	6.285708	1.064828	0.012572
 790	3.9450e-01	7.8882	10.711158	-0.000077	-0.769679	-0.130387	-0.001539
 791	3.9500e-01	7.8986	10.750499	0.000393	3.933912	0.666423	0.007868
 792	3.9550e-01	7.9071	10.782999	0.000325	3.249754	0.550523	0.006500
 793	3.9600e-01	7.9178	10.811650	0.000286	2.864914	0.485330	0.005730
 794	3.9650e-01	7.9291	10.794117	-0.000175	-1.753157	-0.296993	-0.003507
 795	3.9700e-01	7.9395	10.852702	0.000586	5.858109	0.992390	0.011717
 796	3.9750e-01	7.9449	10.881353	0.000286	2.864914	0.485330	0.005730
 797	3.9800e-01	7.9568	10.901451	0.000201	2.009716	0.340455	0.004020
 798	3.9850e-01	7.9688	10.935661	0.000342	3.420793	0.579498	0.006842
 799	3.9900e-01	7.9776	10.951056	0.000154	1.539357	0.260774	0.003079
 800	3.9950e-01	7.9889	10.991252	0.000402	4.019432	0.680910	0.008039
 801	4.0000e-01	7.9980	11.019903	0.000286	2.864914	0.485330	0.005730
 802	4.0050e-01	8.0066	11.049409	0.000295	2.950434	0.499817	0.005901
 803	4.0100e-01	8.0182	11.055396	0.000060	0.598639	0.101412	0.001197
 804	4.0150e-01	8.0286	11.095165	0.000398	3.976672	0.673667	0.007954
 805	4.0200e-01	8.0396	11.113126	0.000180	1.795917	0.304236	0.003592
 806	4.0250e-01	8.0475	11.135362	0.000222	2.223516	0.376674	0.004447
 807	4.0300e-01	8.0576	11.144770	0.000094	0.940718	0.159362	0.001882
 808	4.0350e-01	8.0682	11.189243	0.000445	4.447031	0.753348	0.008895
 809	4.0400e-01	8.0780	11.196940	0.000077	0.769679	0.130387	0.001539
 810	4.0450e-01	8.0869	11.246545	0.000496	4.960150	0.840272	0.009921
 811	4.0500e-01	8.0975	11.260656	0.000141	1.411077	0.239043	0.002822
 812	4.0550e-01	8.1042	11.307268	0.000466	4.660831	0.789566	0.009322
 813	4.0600e-01	8.1207	11.317958	0.000107	1.068998	0.181093	0.002138
 814	4.0650e-01	8.1250	11.352168	0.000342	3.420793	0.579498	0.006842
 815	4.0700e-01	8.1384	11.368418	0.000162	1.624877	0.275262	0.003250
 816	4.0750e-01	8.1464	11.426575	0.000582	5.815349	0.985147	0.011631
 817	4.0800e-01	8.1580	11.432989	0.000064	0.641399	0.108656	0.001283
 818	4.0850e-01	8.1677	11.448384	0.000154	1.539357	0.260774	0.003079
 819	4.0900e-01	8.1787	11.474041	0.000257	2.565595	0.434624	0.005132
 820	4.0950e-01	8.1891	11.506541	0.000325	3.249754	0.550523	0.006500
 821	4.1000e-01	8.1976	11.536902	0.000304	3.035954	0.514305	0.006072
 822	4.1050e-01	8.2050	11.536047	-0.000009	-0.085520	-0.014487	-0.000171
 823	4.1100e-01	8.2172	11.603612	0.000676	6.756067	1.144509	0.013513
 824	4.1150e-01	8.2266	11.607033	0.000034	0.342079	0.057950	0.000684
 825	4.1200e-01	8.2373	11.671177	0.000641	6.413988	1.086559	0.012829
 826	4.1250e-01	8.2465	11.673742	0.000026	0.256560	0.043462	0.000513
 827	4.1300e-01	8.2544	11.689992	0.000162	1.624877	0.275262	0.003250
 828	4.1350e-01	8.2697	11.724202	0.000342	3.420793	0.579498	0.006842
 829	4.1400e-01	8.2776	11.746011	0.000218	2.180756	0.369430	0.004362
 830	4.1450e-01	8.2861	11.770813	0.000248	2.480075	0.420136	0.004960
 831	4.1500e-01	8.2953	11.760978	-0.000098	-0.983478	-0.166606	-0.001967
 832	4.1550e-01	8.3081	11.805451	0.000445	4.447031	0.753348	0.008895
 833	4.1600e-01	8.3185	11.846075	0.000406	4.062192	0.688154	0.008125
 834	4.1650e-01	8.3301	11.877292	0.000312	3.121474	0.528792	0.006243
 835	4.1700e-01	8.3365	11.916634	0.000393	3.933912	0.666423	0.007868
 836	4.1750e-01	8.3478	11.921765	0.000051	0.513119	0.086925	0.001026
 837	4.1800e-01	8.3569	11.965810	0.000440	4.404272	0.746104	0.008809
 838	4.1850e-01	8.3682	11.959824	-0.000060	-0.598639	-0.101412	-0.001197
 839	4.1900e-01	8.3762	11.999165	0.000393	3.933912	0.666423	0.007868
 840	4.1950e-01	8.3856	12.026533	0.000274	2.736635	0.463598	0.005474
 841	4.2000e-01	8.3990	12.047914	0.000214	2.137996	0.362186	0.004276
 842	4.2050e-01	8.4088	12.089394	0.000415	4.147712	0.702641	0.008296
 843	4.2100e-01	8.4174	12.107354	0.000180	1.795917	0.304236	0.003592
 844	4.2150e-01	8.4265	12.127880	0.000205	2.052476	0.347699	0.004105
 845	4.2200e-01	8.4399	12.154821	0.000269	2.693875	0.456355	0.005388
 846	4.2250e-01	8.4494	12.178340	0.000235	2.351795	0.398405	0.004704
 847	4.2300e-01	8.4583	12.218109	0.000398	3.976672	0.673667	0.007954
 848	4.2350e-01	8.4705	12.237352	0.000192	1.924196	0.325968	0.003849
 849	4.2400e-01	8.4790	12.253602	0.000162	1.624877	0.275262	0.003250
 850	4.2450e-01	8.4882	12.266431	0.000128	1.282798	0.217312	0.002566
 851	4.2500e-01	8.5010	12.309621	0.000432	4.318752	0.731616	0.008638
 852	4.2550e-01	8.5077	12.331002	0.000214	2.137996	0.362186	0.004276
 853	4.2600e-01	8.5156	12.364357	0.000334	3.335274	0.565011	0.006671
 854	4.2650e-01	8.5303	12.378896	0.000145	1.453837	0.246287	0.002908
 855	4.2700e-01	8.5413	12.413534	0.000346	3.463553	0.586742	0.006928
 856	4.2750e-01	8.5504	12.440902	0.000274	2.736635	0.463598	0.005474
 857	4.2800e-01	8.5602	12.458862	0.000180	1.795917	0.304236	0.003592
 858	4.2850e-01	8.5706	12.478533	0.000197	1.966956	0.333211	0.003934
 859	4.2900e-01	8.5760	12.502480	0.000239	2.394555	0.405649	0.004789
 860	4.2950e-01	8.5913	12.530703	0.000282	2.822155	0.478086	0.005645
 861	4.3000e-01	8.5986	12.567052	0.000363	3.634593	0.615717	0.007270
 862	4.3050e-01	8.6098	12.604255	0.000372	3.720113	0.630204	0.007441
 863	4.3100e-01	8.6194	12.618367	0.000141	1.411077	0.239043	0.002822
 864	4.3150e-01	8.6279	12.651294	0.000329	3.292514	0.557767	0.006585
 865	4.3200e-01	8.6401	12.669254	0.000180	1.795917	0.304236	0.003592
 866	4.3250e-01	8.6469	12.709023	0.000398	3.976672	0.673667	0.007954
 867	4.3300e-01	8.6584	12.709023	0.000000	0.000000	0.000000	0.000000
 868	4.3350e-01	8.6688	12.762904	0.000539	5.387750	0.912709	0.010776
 869	4.3400e-01	8.6780	12.758628	-0.000043	-0.427599	-0.072437	-0.000855
 870	4.3450e-01	8.6877	12.812508	0.000539	5.387750	0.912709	0.010776
 871	4.3500e-01	8.6981	12.833034	0.000205	2.052476	0.347699	0.004105
 872	4.3550e-01	8.7085	12.855271	0.000222	2.223516	0.376674	0.004447
 873	4.3600e-01	8.7201	12.866389	0.000111	1.111758	0.188337	0.002224
 874	4.3650e-01	8.7280	12.883494	0.000171	1.710397	0.289749	0.003421
 875	4.3700e-01	8.7402	12.918560	0.000351	3.506313	0.593986	0.007013
 876	4.3750e-01	8.7500	12.951487	0.000329	3.292514	0.557767	0.006585
 877	4.3800e-01	8.7573	12.974578	0.000231	2.309036	0.391161	0.004618
 878	4.3850e-01	8.7683	13.013065	0.000385	3.848393	0.651935	0.007697
 879	4.3900e-01	8.7766	13.020762	0.000077	0.769679	0.130387	0.001539
 880	4.3950e-01	8.7897	13.027604	0.000068	0.684159	0.115900	0.001368
 881	4.4000e-01	8.7988	13.059676	0.000321	3.206994	0.543279	0.006414
 882	4.4050e-01	8.8068	13.099017	0.000393	3.933912	0.666423	0.007868
 883	4.4100e-01	8.8184	13.125530	0.000265	2.651115	0.449111	0.005303
 884	4.4150e-01	8.8306	13.119543	-0.000060	-0.598639	-0.101412	-0.001197
 885	4.4200e-01	8.8367	13.188391	0.000688	6.884347	1.166240	0.013770
 886	4.4250e-01	8.8474	13.193095	0.000047	0.470359	0.079681	0.000941
 887	4.4300e-01	8.8556	13.247403	0.000543	5.430510	0.919953	0.010862
 888	4.4350e-01	8.8696	13.255101	0.000077	0.769679	0.130387	0.001539
 889	4.4400e-01	8.8776	13.272206	0.000171	1.710397	0.289749	0.003421
 890	4.4450e-01	8.8873	13.314968	0.000428	4.275992	0.724373	0.008553
 891	4.4500e-01	8.8959	13.323093	0.000081	0.812438	0.137631	0.001625
 892	4.4550e-01	8.9087	13.355593	0.000325	3.249754	0.550523	0.006500
 893	4.4600e-01	8.9185	13.383388	0.000278	2.779395	0.470842	0.005559
 894	4.4650e-01	8.9252	13.404769	0.000214	2.137996	0.362186	0.004276
 895	4.4700e-01	8.9368	13.430855	0.000261	2.608355	0.441867	0.005217
 896	4.4750e-01	8.9459	13.476611	0.000458	4.575311	0.775079	0.009151
 897	4.4800e-01	8.9569	13.493288	0.000167	1.667637	0.282505	0.003335
 898	4.4850e-01	8.9676	13.515097	0.000218	2.180756	0.369430	0.004362
 899	4.4900e-01	8.9783	13.537761	0.000227	2.266276	0.383917	0.004533
 900	4.4950e-01	8.9856	13.545886	0.000081	0.812438	0.137631	0.001625
 901	4.5000e-01	8.9984	13.561708	0.000158	1.582117	0.268018	0.003164
 902	4.5050e-01	9.0076	13.622858	0.000611	6.114668	1.035853	0.012230
 903	4.5100e-01	9.0173	13.640819	0.000180	1.795917	0.304236	0.003592
 904	4.5150e-01	9.0283	13.648088	0.000073	0.726919	0.123143	0.001454
 905	4.5200e-01	9.0393	13.681015	0.000329	3.292514	0.557767	0.006585
 906	4.5250e-01	9.0485	13.704107	0.000231	2.309036	0.391161	0.004618
 907	4.5300e-01	9.0588	13.735751	0.000316	3.164234	0.536036	0.006329
 908	4.5350e-01	9.0686	13.773810	0.000381	3.805633	0.644692	0.007612
 909	4.5400e-01	9.0784	13.800750	0.000269	2.693875	0.456355	0.005388
 910	4.5450e-01	9.0872	13.793053	-0.000077	-0.769679	-0.130387	-0.001539
 911	4.5500e-01	9.0952	13.814434	0.000214	2.137996	0.362186	0.004276
 912	4.5550e-01	9.1064	13.859335	0.000449	4.489791	0.760591	0.008980
 913	4.5600e-01	9.1223	13.881572	0.000222	2.223516	0.376674	0.004447
 914	4.5650e-01	9.1284	13.908084	0.000265	2.651115	0.449111	0.005303
 915	4.5700e-01	9.1370	13.944433	0.000363	3.634593	0.615717	0.007270
 916	4.5750e-01	9.1467	13.972656	0.000282	2.822155	0.478086	0.005645
 917	4.5800e-01	9.1571	13.993609	0.000210	2.095236	0.354943	0.004191
 918	4.5850e-01	9.1705	14.032096	0.000385	3.848393	0.651935	0.007697
 919	4.5900e-01	9.1779	14.038510	0.000064	0.641399	0.108656	0.001283
 920	4.5950e-01	9.1882	14.066306	0.000278	2.779395	0.470842	0.005559
 921	4.6000e-01	9.1988	14.107358	0.000410	4.104952	0.695398	0.008210
 922	4.6050e-01	9.2065	14.117193	0.000098	0.983478	0.166606	0.001967
 923	4.6100e-01	9.2163	14.120614	0.000034	0.342079	0.057950	0.000684
 924	4.6150e-01	9.2291	14.163377	0.000428	4.275992	0.724373	0.008553
 925	4.6200e-01	9.2383	14.196304	0.000329	3.292514	0.557767	0.006585
 926	4.6250e-01	9.2487	14.232224	0.000359	3.591833	0.608473	0.007184
 927	4.6300e-01	9.2572	14.257027	0.000248	2.480075	0.420136	0.004960
 928	4.6350e-01	9.2682	14.300644	0.000436	4.361512	0.738860	0.008724
 929	4.6400e-01	9.2767	14.301072	0.000004	0.042760	0.007244	0.000086
 930	4.6450e-01	9.2871	14.324164	0.000231	2.309036	0.391161	0.004618
 931	4.6500e-01	9.2999	14.344690	0.000205	2.052476	0.347699	0.004105
 932	4.6550e-01	9.3085	14.379327	0.000346	3.463553	0.586742	0.006928
 933	4.6600e-01	9.3176	14.415676	0.000363	3.634593	0.615717	0.007270
 934	4.6650e-01	9.3280	14.431498	0.000158	1.582117	0.268018	0.003164
 935	4.6700e-01	9.3378	14.447320	0.000158	1.582117	0.268018	0.003164
 936	4.6750e-01	9.3451	14.469129	0.000218	2.180756	0.369430	0.004362
 937	4.6800e-01	9.3579	14.509326	0.000402	4.019432	0.680910	0.008039
 938	4.6850e-01	9.3683	14.530279	0.000210	2.095236	0.354943	0.004191
 939	4.6900e-01	9.3799	14.567055	0.000368	3.677353	0.622960	0.007355
 940	4.6950e-01	9.3860	14.561068	-0.000060	-0.598639	-0.101412	-0.001197
 941	4.7000e-01	9.3970	14.608107	0.000470	4.703591	0.796810	0.009408
 942	4.7050e-01	9.4043	14.634192	0.000261	2.608355	0.441867	0.005217
 943	4.7100e-01	9.4214	14.646166	0.000120	1.197278	0.202824	0.002395
 944	4.7150e-01	9.4299	14.680376	0.000342	3.420793	0.579498	0.006842
 945	4.7200e-01	9.4373	14.689356	0.000090	0.897958	0.152118	0.001796
 946	4.7250e-01	9.4507	14.741526	0.000522	5.216710	0.883735	0.010434
 947	4.7300e-01	9.4592	14.756065	0.000145	1.453837	0.246287	0.002908
 948	4.7350e-01	9.4684	14.772743	0.000167	1.667637	0.282505	0.003335
 949	4.7400e-01	9.4788	14.797545	0.000248	2.480075	0.420136	0.004960
 950	4.7450e-01	9.4885	14.820637	0.000231	2.309036	0.391161	0.004618
 951	4.7500e-01	9.5007	14.859123	0.000385	3.848393	0.651935	0.007697
 952	4.7550e-01	9.5123	14.864682	0.000056	0.555879	0.094168	0.001112
 953	4.7600e-01	9.5209	14.897182	0.000325	3.249754	0.550523	0.006500
 954	4.7650e-01	9.5258	14.933957	0.000368	3.677353	0.622960	0.007355
 955	4.7700e-01	9.5380	14.975009	0.000410	4.104952	0.695398	0.008210
 956	4.7750e-01	9.5465	14.979713	0.000047	0.470359	0.079681	0.000941
 957	4.7800e-01	9.5570	15.012641	0.000329	3.292514	0.557767	0.006585
 958	4.7850e-01	9.5679	15.013923	0.000013	0.128280	0.021731	0.000257
 959	4.7900e-01	9.5761	15.047278	0.000334	3.335274	0.565011	0.006671
 960	4.7950e-01	9.5886	15.078495	0.000312	3.121474	0.528792	0.006243
 961	4.8000e-01	9.5966	15.105435	0.000269	2.693875	0.456355	0.005388
 962	4.8050e-01	9.6075	15.130665	0.000252	2.522835	0.427380	0.005046
 963	4.8100e-01	9.6179	15.173855	0.000432	4.318752	0.731616	0.008638
 964	4.8150e-01	9.6286	15.166586	-0.000073	-0.726919	-0.123143	-0.001454
 965	4.8200e-01	9.6375	15.194809	0.000282	2.822155	0.478086	0.005645
 966	4.8250e-01	9.6454	15.228164	0.000334	3.335274	0.565011	0.006671
 967	4.8300e-01	9.6552	15.256387	0.000282	2.822155	0.478086	0.005645
 968	4.8350e-01	9.6661	15.271354	0.000150	1.496597	0.253530	0.002993
 969	4.8400e-01	9.6780	15.322241	0.000509	5.088430	0.862003	0.010177
 970	4.8450e-01	9.6902	15.330366	0.000081	0.812438	0.137631	0.001625
 971	4.8500e-01	9.6967	15.352175	0.000218	2.180756	0.369430	0.004362
 972	4.8550e-01	9.7076	15.402635	0.000505	5.045670	0.854760	0.010092
 973	4.8600e-01	9.7180	15.427865	0.000252	2.522835	0.427380	0.005046
 974	4.8650e-01	9.7247	15.461219	0.000334	3.335274	0.565011	0.006671
 975	4.8700e-01	9.7375	15.465923	0.000047	0.470359	0.079681	0.000941
 976	4.8750e-01	9.7504	15.482601	0.000167	1.667637	0.282505	0.003335
 977	4.8800e-01	9.7565	15.508258	0.000257	2.565595	0.434624	0.005132
 978	4.8850e-01	9.7662	15.511252	0.000030	0.299319	0.050706	0.000599
 979	4.8900e-01	9.7778	15.552304	0.000410	4.104952	0.695398	0.008210
 980	4.8950e-01	9.7876	15.583520	0.000312	3.121474	0.528792	0.006243
 981	4.9000e-01	9.8010	15.587797	0.000043	0.427599	0.072437	0.000855
 982	4.9050e-01	9.8077	15.627566	0.000398	3.976672	0.673667	0.007954
 983	4.9100e-01	9.8169	15.666480	0.000389	3.891153	0.659179	0.007783
 984	4.9150e-01	9.8303	15.685723	0.000192	1.924196	0.325968	0.003849
 985	4.9200e-01	9.8370	15.675460	-0.000103	-1.026238	-0.173849	-0.002053
 986	4.9250e-01	9.8468	15.737465	0.000620	6.200188	1.050340	0.012401
 987	4.9300e-01	9.8560	15.784932	0.000475	4.746351	0.804054	0.009493
 988	4.9350e-01	9.8682	15.779373	-0.000056	-0.555879	-0.094168	-0.001112
 989	4.9400e-01	9.8792	15.812300	0.000329	3.292514	0.557767	0.006585
 990	4.9450e-01	9.8877	15.835819	0.000235	2.351795	0.398405	0.004704
 991	4.9500e-01	9.8962	15.875161	0.000393	3.933912	0.666423	0.007868
 992	4.9550e-01	9.9060	15.884568	0.000094	0.940718	0.159362	0.001882
 993	4.9600e-01	9.9182	15.923482	0.000389	3.891153	0.659179	0.007783
 994	4.9650e-01	9.9298	15.949140	0.000257	2.565595	0.434624	0.005132
 995	4.9700e-01	9.9377	15.975653	0.000265	2.651115	0.449111	0.005303
 996	4.9750e-01	9.9463	15.992330	0.000167	1.667637	0.282505	0.003335
 997	4.9800e-01	9.9597	16.020553	0.000282	2.822155	0.478086	0.005645
 998	4.9850e-01	9.9689	16.043645	0.000231	2.309036	0.391161	0.004618
 999	4.9900e-01	9.9786	16.074006	0.000304	3.035954	0.514305	0.006072
1000	4.9950e-01	9.9890	16.115486	0.000415	4.147712	0.702641	0.008296
1001	5.0000e-01	9.9966	16.115058	-0.000004	-0.042760	-0.007244	-0.000086
1002	5.0050e-01	9.9866	16.072296	0.000428	4.275992	0.724373	-0.008553
1003	5.0100e-01	9.9750	16.040224	0.000321	3.206994	0.543279	-0.006414
1004	5.0150e-01	9.9670	16.033382	0.000068	0.684159	0.115900	-0.001368
1005	5.0200e-01	9.9573	16.023119	0.000103	1.026238	0.173849	-0.002053
1006	5.0250e-01	9.9463	16.004304	0.000188	1.881436	0.318724	-0.003763
1007	5.0300e-01	9.9377	15.992758	0.000115	1.154518	0.195581	-0.002309
1008	5.0350e-01	9.9280	15.972232	0.000205	2.052476	0.347699	-0.004105
1009	5.0400e-01	9.9182	15.935456	0.000368	3.677353	0.622960	-0.007355
1010	5.0450e-01	9.9048	15.923055	0.000124	1.240038	0.210068	-0.002480
1011	5.0500e-01	9.8969	15.917068	0.000060	0.598639	0.101412	-0.001197
1012	5.0550e-01	9.8871	15.857200	0.000599	5.986388	1.014122	-0.011974
1013	5.0600e-01	9.8749	15.862760	-0.000056	-0.555879	-0.094168	0.001112
1014	5.0650e-01	9.8639	15.850786	0.000120	1.197278	0.202824	-0.002395
1015	5.0700e-01	9.8566	15.817004	0.000338	3.378033	0.572254	-0.006756
1016	5.0750e-01	9.8463	15.819142	-0.000021	-0.213800	-0.036219	0.000428
1017	5.0800e-01	9.8355	15.797761	0.000214	2.137996	0.362186	-0.004276
1018	5.0850e-01	9.8254	15.784932	0.000128	1.282798	0.217312	-0.002566
1019	5.0900e-01	9.8181	15.754570	0.000304	3.035954	0.514305	-0.006072
1020	5.0950e-01	9.8053	15.740031	0.000145	1.453837	0.246287	-0.002908
1021	5.1000e-01	9.7961	15.724637	0.000154	1.539357	0.260774	-0.003079
1022	5.1050e-01	9.7839	15.692992	0.000316	3.164234	0.536036	-0.006329
1023	5.1100e-01	9.7792	15.673749	0.000192	1.924196	0.325968	-0.003849
1024	5.1150e-01	9.7656	15.666052	0.000077	0.769679	0.130387	-0.001539
1025	5.1200e-01	9.7565	15.638256	0.000278	2.779395	0.470842	-0.005559
1026	5.1250e-01	9.7479	15.627993	0.000103	1.026238	0.173849	-0.002053
1027	5.1300e-01	9.7388	15.595066	0.000329	3.292514	0.557767	-0.006585
1028	5.1350e-01	9.7249	15.574968	0.000201	2.009716	0.340455	-0.004020
1029	5.1400e-01	9.7174	15.541613	0.000334	3.335274	0.565011	-0.006671
1030	5.1450e-01	9.7046	15.516383	0.000252	2.522835	0.427380	-0.005046
1031	5.1500e-01	9.6930	15.513817	0.000026	0.256560	0.043462	-0.000513
1032	5.1550e-01	9.6875	15.509113	0.000047	0.470359	0.079681	-0.000941
1033	5.1600e-01	9.6777	15.469344	0.000398	3.976672	0.673667	-0.007954
1034	5.1650e-01	9.6643	15.446680	0.000227	2.266276	0.383917	-0.004533
1035	5.1700e-01	9.6576	15.432141	0.000145	1.453837	0.246287	-0.002908
1036	5.1750e-01	9.6472	15.401780	0.000304	3.035954	0.514305	-0.006072
1037	5.1800e-01	9.6368	15.388951	0.000128	1.282798	0.217312	-0.002566
1038	5.1850e-01	9.6265	15.360727	0.000282	2.822155	0.478086	-0.005645
1039	5.1900e-01	9.6155	15.363293	-0.000026	-0.256560	-0.043462	0.000513
1040	5.1950e-01	9.6039	15.339774	0.000235	2.351795	0.398405	-0.004704
1041	5.2000e-01	9.5966	15.304281	0.000355	3.549073	0.601229	-0.007099
1042	5.2050e-01	9.5868	15.289314	0.000150	1.496597	0.253530	-0.002993
1043	5.2100e-01	9.5752	15.260663	0.000286	2.864914	0.485330	-0.005730
1044	5.2150e-01	9.5648	15.232868	0.000278	2.779395	0.470842	-0.005559
1045	5.2200e-01	9.5587	15.233723	-0.000009	-0.085520	-0.014487	0.000171
1046	5.2250e-01	9.5447	15.223887	0.000098	0.983478	0.166606	-0.001967
1047	5.2300e-01	9.5343	15.182835	0.000410	4.104952	0.695398	-0.008210
1048	5.2350e-01	9.5258	15.161882	0.000210	2.095236	0.354943	-0.004191
1049	5.2400e-01	9.5200	15.133658	0.000282	2.822155	0.478086	-0.005645
1050	5.2450e-01	9.5056	15.106290	0.000274	2.736635	0.463598	-0.005474
1051	5.2500e-01	9.4952	15.072508	0.000338	3.378033	0.572254	-0.006756
1052	5.2550e-01	9.4849	15.071653	0.000009	0.085520	0.014487	-0.000171
1053	5.2600e-01	9.4757	15.048561	0.000231	2.309036	0.391161	-0.004618
1054	5.2650e-01	9.4678	15.036588	0.000120	1.197278	0.202824	-0.002395
1055	5.2700e-01	9.4514	15.037443	-0.000009	-0.085520	-0.014487	0.000171
1056	5.2750e-01	9.4470	14.989976	0.000475	4.746351	0.804054	-0.009493
1057	5.2800e-01	9.4348	14.970733	0.000192	1.924196	0.325968	-0.003849
1058	5.2850e-01	9.4269	14.931819	0.000389	3.891153	0.659179	-0.007783
1059	5.2900e-01	9.4177	14.924122	0.000077	0.769679	0.130387	-0.001539
1060	5.2950e-01	9.4049	14.897182	0.000269	2.693875	0.456355	-0.005388
1061	5.3000e-01	9.3964	14.875373	0.000218	2.180756	0.369430	-0.004362
1062	5.3050e-01	9.3878	14.858268	0.000171	1.710397	0.289749	-0.003421
1063	5.3100e-01	9.3756	14.845011	0.000133	1.325557	0.224556	-0.002651
1064	5.3150e-01	9.3652	14.825768	0.000192	1.924196	0.325968	-0.003849
1065	5.3200e-01	9.3573	14.797117	0.000286	2.864914	0.485330	-0.005730
1066	5.3250e-01	9.3445	14.766756	0.000304	3.035954	0.514305	-0.006072
1067	5.3300e-01	9.3353	14.765473	0.000013	0.128280	0.021731	-0.000257
1068	5.3350e-01	9.3292	14.714586	0.000509	5.088430	0.862003	-0.010177
1069	5.3400e-01	9.3152	14.700046	0.000145	1.453837	0.246287	-0.002908
1070	5.3450e-01	9.3079	14.694487	0.000056	0.555879	0.094168	-0.001112
1071	5.3500e-01	9.2975	14.681659	0.000128	1.282798	0.217312	-0.002566
1072	5.3550e-01	9.2883	14.635903	0.000458	4.575311	0.775079	-0.009151
1073	5.3600e-01	9.2770	14.607679	0.000282	2.822155	0.478086	-0.005645
1074	5.3650e-01	9.2670	14.590147	0.000175	1.753157	0.296993	-0.003507
1075	5.3700e-01	9.2584	14.568338	0.000218	2.180756	0.369430	-0.004362
1076	5.3750e-01	9.2474	14.537121	0.000312	3.121474	0.528792	-0.006243
1077	5.3800e-01	9.2346	14.521299	0.000158	1.582117	0.268018	-0.003164
1078	5.3850e-01	9.2273	14.511464	0.000098	0.983478	0.166606	-0.001967
1079	5.3900e-01	9.2139	14.500773	0.000107	1.068998	0.181093	-0.002138
1080	5.3950e-01	9.2068	14.455017	0.000458	4.575311	0.775079	-0.009151
1081	5.4000e-01	9.1974	14.428504	0.000265	2.651115	0.449111	-0.005303
1082	5.4050e-01	9.1898	14.423373	0.000051	0.513119	0.086925	-0.001026
1083	5.4100e-01	9.1772	14.399426	0.000239	2.394555	0.405649	-0.004789
1084	5.4150e-01	9.1687	14.378045	0.000214	2.137996	0.362186	-0.004276
1085	5.4200e-01	9.1565	14.347256	0.000308	3.078714	0.521548	-0.006158
1086	5.4250e-01	9.1479	14.328868	0.000184	1.838676	0.311480	-0.003678
1087	5.4300e-01	9.1364	14.333572	-0.000047	-0.470359	-0.079681	0.000941
1088	5.4350e-01	9.1278	14.292947	0.000406	4.062192	0.688154	-0.008125
1089	5.4400e-01	9.1196	14.275415	0.000175	1.753157	0.296993	-0.003507
1090	5.4450e-01	9.1083	14.244626	0.000308	3.078714	0.521548	-0.006158
1091	5.4500e-01	9.0967	14.212981	0.000316	3.164234	0.536036	-0.006329
1092	5.4550e-01	9.0881	14.201863	0.000111	1.111758	0.188337	-0.002224
1093	5.4600e-01	9.0796	14.175350	0.000265	2.651115	0.449111	-0.005303
1094	5.4650e-01	9.0668	14.144989	0.000304	3.035954	0.514305	-0.006072
1095	5.4700e-01	9.0564	14.135581	0.000094	0.940718	0.159362	-0.001882
1096	5.4750e-01	9.0454	14.111634	0.000239	2.394555	0.405649	-0.004789
1097	5.4800e-01	9.0375	14.099233	0.000124	1.240038	0.210068	-0.002480
1098	5.4850e-01	9.0265	14.045780	0.000534	5.344990	0.905466	-0.010691
1099	5.4900e-01	9.0155	14.044069	0.000017	0.171040	0.028975	-0.000342
1100	5.4950e-01	9.0070	14.014991	0.000291	2.907674	0.492573	-0.005816
1101	5.5000e-01	8.9972	14.002590	0.000124	1.240038	0.210068	-0.002480
1102	5.5050e-01	8.9850	13.977360	0.000252	2.522835	0.427380	-0.005046
1103	5.5100e-01	8.9758	13.936308	0.000410	4.104952	0.695398	-0.008210
1104	5.5150e-01	8.9673	13.915782	0.000205	2.052476	0.347699	-0.004105
1105	5.5200e-01	8.9587	13.906374	0.000094	0.940718	0.159362	-0.001882
1106	5.5250e-01	8.9490	13.891835	0.000145	1.453837	0.246287	-0.002908
1107	5.5300e-01	8.9362	13.868743	0.000231	2.309036	0.391161	-0.004618
1108	5.5350e-01	8.9270	13.844796	0.000239	2.394555	0.405649	-0.004789
1109	5.5400e-01	8.9148	13.824698	0.000201	2.009716	0.340455	-0.004020
1110	5.5450e-01	8.9075	13.776376	0.000483	4.831871	0.818541	-0.009664
1111	5.5500e-01	8.8953	13.746014	0.000304	3.035954	0.514305	-0.006072
1112	5.5550e-01	8.8867	13.751574	-0.000056	-0.555879	-0.094168	0.001112
1113	5.5600e-01	8.8776	13.719929	0.000316	3.164234	0.536036	-0.006329
1114	5.5650e-01	8.8684	13.700686	0.000192	1.924196	0.325968	-0.003849
1115	5.5700e-01	8.8605	13.660489	0.000402	4.019432	0.680910	-0.008039
1116	5.5750e-01	8.8464	13.644667	0.000158	1.582117	0.268018	-0.003164
1117	5.5800e-01	8.8379	13.625424	0.000192	1.924196	0.325968	-0.003849
1118	5.5850e-01	8.8251	13.606181	0.000192	1.924196	0.325968	-0.003849
1119	5.5900e-01	8.8177	13.610457	-0.000043	-0.427599	-0.072437	0.000855
1120	5.5950e-01	8.8074	13.542037	0.000684	6.841587	1.158996	-0.013684
1121	5.6000e-01	8.7976	13.545886	-0.000038	-0.384839	-0.065194	0.000770
1122	5.6050e-01	8.7854	13.506544	0.000393	3.933912	0.666423	-0.007868
1123	5.6100e-01	8.7756	13.500130	0.000064	0.641399	0.108656	-0.001283
1124	5.6150e-01	8.7683	13.442401	0.000577	5.772589	0.977903	-0.011546
1125	5.6200e-01	8.7604	13.440690	0.000017	0.171040	0.028975	-0.000342
1126	5.6250e-01	8.7500	13.400066	0.000406	4.062192	0.688154	-0.008125
1127	5.6300e-01	8.7372	13.392796	0.000073	0.726919	0.123143	-0.001454
1128	5.6350e-01	8.7268	13.373553	0.000192	1.924196	0.325968	-0.003849
1129	5.6400e-01	8.7183	13.340198	0.000334	3.335274	0.565011	-0.006671
1130	5.6450e-01	8.7079	13.326514	0.000137	1.368317	0.231799	-0.002737
1131	5.6500e-01	8.6963	13.319672	0.000068	0.684159	0.115900	-0.001368
1132	5.6550e-01	8.6874	13.276054	0.000436	4.361512	0.738860	-0.008724
1133	5.6600e-01	8.6780	13.273916	0.000021	0.213800	0.036219	-0.000428
1134	5.6650e-01	8.6664	13.236713	0.000372	3.720113	0.630204	-0.007441
1135	5.6700e-01	8.6560	13.220891	0.000158	1.582117	0.268018	-0.003164
1136	5.6750e-01	8.6462	13.187536	0.000334	3.335274	0.565011	-0.006671
1137	5.6800e-01	8.6359	13.170003	0.000175	1.753157	0.296993	-0.003507
1138	5.6850e-01	8.6267	13.153326	0.000167	1.667637	0.282505	-0.003335
1139	5.6900e-01	8.6169	13.124675	0.000286	2.864914	0.485330	-0.005730
1140	5.6950e-01	8.6060	13.103294	0.000214	2.137996	0.362186	-0.004276
1141	5.7000e-01	8.5968	13.059676	0.000436	4.361512	0.738860	-0.008724
1142	5.7050e-01	8.5904	13.042571	0.000171	1.710397	0.289749	-0.003421
1143	5.7100e-01	8.5760	13.012209	0.000304	3.035954	0.514305	-0.006072
1144	5.7150e-01	8.5675	13.001091	0.000111	1.111758	0.188337	-0.002224
1145	5.7200e-01	8.5571	12.990828	0.000103	1.026238	0.173849	-0.002053
1146	5.7250e-01	8.5492	12.972013	0.000188	1.881436	0.318724	-0.003763
1147	5.7300e-01	8.5379	12.930105	0.000419	4.190472	0.709885	-0.008381
1148	5.7350e-01	8.5284	12.918987	0.000111	1.111758	0.188337	-0.002224
1149	5.7400e-01	8.5158	12.883494	0.000355	3.549073	0.601229	-0.007099
1150	5.7450e-01	8.5065	12.867672	0.000158	1.582117	0.268018	-0.003164
1151	5.7500e-01	8.4988	12.838594	0.000291	2.907674	0.492573	-0.005816
1152	5.7550e-01	8.4863	12.815502	0.000231	2.309036	0.391161	-0.004618
1153	5.7600e-01	8.4778	12.790272	0.000252	2.522835	0.427380	-0.005046
1154	5.7650e-01	8.4698	12.768463	0.000218	2.180756	0.369430	-0.004362
1155	5.7700e-01	8.4576	12.738529	0.000299	2.993194	0.507061	-0.005987
1156	5.7750e-01	8.4467	12.729549	0.000090	0.897958	0.152118	-0.001796
1157	5.7800e-01	8.4387	12.716293	0.000133	1.325557	0.224556	-0.002651
1158	5.7850e-01	8.4283	12.678662	0.000376	3.762873	0.637448	-0.007526
1159	5.7900e-01	8.4155	12.652149	0.000265	2.651115	0.449111	-0.005303
1160	5.7950e-01	8.4076	12.641031	0.000111	1.111758	0.188337	-0.002224
1161	5.8000e-01	8.3978	12.602544	0.000385	3.848393	0.651935	-0.007697
1162	5.8050e-01	8.3868	12.586722	0.000158	1.582117	0.268018	-0.003164
1163	5.8100e-01	8.3795	12.550802	0.000359	3.591833	0.608473	-0.007184
1164	5.8150e-01	8.3673	12.521296	0.000295	2.950434	0.499817	-0.005901
1165	5.8200e-01	8.3594	12.508039	0.000133	1.325557	0.224556	-0.002651
1166	5.8250e-01	8.3472	12.466132	0.000419	4.190472	0.709885	-0.008381
1167	5.8300e-01	8.3380	12.425080	0.000410	4.104952	0.695398	-0.008210
1168	5.8350e-01	8.3282	12.454586	-0.000295	-2.950434	-0.499817	0.005901
1169	5.8400e-01	8.3179	12.413962	0.000406	4.062192	0.688154	-0.008125
1170	5.8450e-01	8.3075	12.403271	0.000107	1.068998	0.181093	-0.002138
1171	5.8500e-01	8.2971	12.372054	0.000312	3.121474	0.528792	-0.006243
1172	5.8550e-01	8.2880	12.344259	0.000278	2.779395	0.470842	-0.005559
1173	5.8600e-01	8.2784	12.317746	0.000265	2.651115	0.449111	-0.005303
1174	5.8650e-01	8.2669	12.294227	0.000235	2.351795	0.398405	-0.004704
1175	5.8700e-01	8.2599	12.289950	0.000043	0.427599	0.072437	-0.000855
1176	5.8750e-01	8.2458	12.263438	0.000265	2.651115	0.449111	-0.005303
1177	5.8800e-01	8.2385	12.221958	0.000415	4.147712	0.702641	-0.008296
1178	5.8850e-01	8.2269	12.205281	0.000167	1.667637	0.282505	-0.003335
1179	5.8900e-01	8.2153	12.182616	0.000227	2.266276	0.383917	-0.004533
1180	5.8950e-01	8.2068	12.142847	0.000398	3.976672	0.673667	-0.007954
1181	5.9000e-01	8.1952	12.131301	0.000115	1.154518	0.195581	-0.002309
1182	5.9050e-01	8.1860	12.100085	0.000312	3.121474	0.528792	-0.006243
1183	5.9100e-01	8.1787	12.054329	0.000458	4.575311	0.775079	-0.009151
1184	5.9150e-01	8.1696	12.029099	0.000252	2.522835	0.427380	-0.005046
1185	5.9200e-01	8.1586	11.991896	0.000372	3.720113	0.630204	-0.007441
1186	5.9250e-01	8.1476	12.006862	-0.000150	-1.496597	-0.253530	0.002993
1187	5.9300e-01	8.1403	11.965810	0.000410	4.104952	0.695398	-0.008210
1188	5.9350e-01	8.1268	11.965383	0.000004	0.042760	0.007244	-0.000086
1189	5.9400e-01	8.1165	11.930745	0.000346	3.463553	0.586742	-0.006928
1190	5.9450e-01	8.1073	11.920482	0.000103	1.026238	0.173849	-0.002053
1191	5.9500e-01	8.0981	11.893542	0.000269	2.693875	0.456355	-0.005388
1192	5.9550e-01	8.0859	11.865318	0.000282	2.822155	0.478086	-0.005645
1193	5.9600e-01	8.0786	11.846931	0.000184	1.838676	0.311480	-0.003678
1194	5.9650e-01	8.0682	11.811865	0.000351	3.506313	0.593986	-0.007013
1195	5.9700e-01	8.0574	11.775517	0.000363	3.634593	0.615717	-0.007270
1196	5.9750e-01	8.0469	11.742590	0.000329	3.292514	0.557767	-0.006585
1197	5.9800e-01	8.0350	11.728051	0.000145	1.453837	0.246287	-0.002908
1198	5.9850e-01	8.0261	11.699400	0.000286	2.864914	0.485330	-0.005730
1199	5.9900e-01	8.0200	11.679729	0.000197	1.966956	0.333211	-0.003934
1200	5.9950e-01	8.0072	11.678874	0.000009	0.085520	0.014487	-0.000171
1201	6.0000e-01	7.9987	11.652789	0.000261	2.608355	0.441867	-0.005217
1202	6.0050e-01	7.9843	11.627559	0.000252	2.522835	0.427380	-0.005046
1203	6.0100e-01	7.9773	11.577527	0.000500	5.002910	0.847516	-0.010006
1204	6.0150e-01	7.9681	11.569402	0.000081	0.812438	0.137631	-0.001625
1205	6.0200e-01	7.9590	11.537330	0.000321	3.206994	0.543279	-0.006414
1206	6.0250e-01	7.9462	11.510390	0.000269	2.693875	0.456355	-0.005388
1207	6.0300e-01	7.9376	11.480456	0.000299	2.993194	0.507061	-0.005987
1208	6.0350e-01	7.9300	11.469765	0.000107	1.068998	0.181093	-0.002138
1209	6.0400e-01	7.9181	11.433845	0.000359	3.591833	0.608473	-0.007184
1210	6.0450e-01	7.9071	11.415457	0.000184	1.838676	0.311480	-0.003678
1211	6.0500e-01	7.8955	11.380391	0.000351	3.506313	0.593986	-0.007013
1212	6.0550e-01	7.8882	11.369701	0.000107	1.068998	0.181093	-0.002138
1213	6.0600e-01	7.8766	11.335063	0.000346	3.463553	0.586742	-0.006928
1214	6.0650e-01	7.8693	11.322234	0.000128	1.282798	0.217312	-0.002566
1215	6.0700e-01	7.8540	11.282465	0.000398	3.976672	0.673667	-0.007954
1216	6.0750e-01	7.8467	11.273485	0.000090	0.897958	0.152118	-0.001796
1217	6.0800e-01	7.8357	11.235426	0.000381	3.805633	0.644692	-0.007612
1218	6.0850e-01	7.8259	11.221742	0.000137	1.368317	0.231799	-0.002737
1219	6.0900e-01	7.8168	11.190526	0.000312	3.121474	0.528792	-0.006243
1220	6.0950e-01	7.8091	11.146908	0.000436	4.361512	0.738860	-0.008724
1221	6.1000e-01	7.7997	11.125527	0.000214	2.137996	0.362186	-0.004276
1222	6.1050e-01	7.7875	11.096876	0.000286	2.864914	0.485330	-0.005730
1223	6.1100e-01	7.7740	11.106711	-0.000098	-0.983478	-0.166606	0.001967
1224	6.1150e-01	7.7661	11.064376	0.000423	4.233232	0.717129	-0.008467
1225	6.1200e-01	7.7570	11.037008	0.000274	2.736635	0.463598	-0.005474
1226	6.1250e-01	7.7472	11.037864	-0.000009	-0.085520	-0.014487	0.000171
1227	6.1300e-01	7.7368	10.975430	0.000624	6.242948	1.057584	-0.012487
1228	6.1350e-01	7.7264	10.975003	0.000004	0.042760	0.007244	-0.000086
1229	6.1400e-01	7.7185	10.939082	0.000359	3.591833	0.608473	-0.007184
1230	6.1450e-01	7.7075	10.912997	0.000261	2.608355	0.441867	-0.005217
1231	6.1500e-01	7.6959	10.889478	0.000235	2.351795	0.398405	-0.004704
1232	6.1550e-01	7.6868	10.865103	0.000244	2.437315	0.412892	-0.004875
1233	6.1600e-01	7.6764	10.831748	0.000334	3.335274	0.565011	-0.006671
1234	6.1650e-01	7.6666	10.800532	0.000312	3.121474	0.528792	-0.006243
1235	6.1700e-01	7.6587	10.781716	0.000188	1.881436	0.318724	-0.003763
1236	6.1750e-01	7.6471	10.759907	0.000218	2.180756	0.369430	-0.004362
1237	6.1800e-01	7.6361	10.735533	0.000244	2.437315	0.412892	-0.004875
1238	6.1850e-01	7.6263	10.707737	0.000278	2.779395	0.470842	-0.005559
1239	6.1900e-01	7.6202	10.704316	0.000034	0.342079	0.057950	-0.000684
1240	6.1950e-01	7.6041	10.674810	0.000295	2.950434	0.499817	-0.005901
1241	6.2000e-01	7.5946	10.624350	0.000505	5.045670	0.854760	-0.010092
1242	6.2050e-01	7.5864	10.608955	0.000154	1.539357	0.260774	-0.003079
1243	6.2100e-01	7.5769	10.598265	0.000107	1.068998	0.181093	-0.002138
1244	6.2150e-01	7.5677	10.569186	0.000291	2.907674	0.492573	-0.005816
1245	6.2200e-01	7.5537	10.561917	0.000073	0.726919	0.123143	-0.001454
1246	6.2250e-01	7.5449	10.527279	0.000346	3.463553	0.586742	-0.006928
1247	6.2300e-01	7.5360	10.494352	0.000329	3.292514	0.557767	-0.006585
1248	6.2350e-01	7.5244	10.472971	0.000214	2.137996	0.362186	-0.004276
1249	6.2400e-01	7.5179	10.453727	0.000192	1.924196	0.325968	-0.003849
1250	6.2450e-01	7.5055	10.421656	0.000321	3.206994	0.543279	-0.006414
1251	6.2500e-01	7.4960	10.412248	0.000094	0.940718	0.159362	-0.001882
1252	6.2550e-01	7.4884	10.360078	0.000522	5.216710	0.883735	-0.010434
1253	6.2600e-01	7.4756	10.349815	0.000103	1.026238	0.173849	-0.002053
1254	6.2650e-01	7.4664	10.305341	0.000445	4.447031	0.753348	-0.008895
1255	6.2700e-01	7.4554	10.281394	0.000239	2.394555	0.405649	-0.004789
1256	6.2750e-01	7.4451	10.283105	-0.000017	-0.171040	-0.028975	0.000342
1257	6.2800e-01	7.4353	10.250605	0.000325	3.249754	0.550523	-0.006500
1258	6.2850e-01	7.4275	10.223237	0.000274	2.736635	0.463598	-0.005474
1259	6.2900e-01	7.4158	10.178337	0.000449	4.489791	0.760591	-0.008980
1260	6.2950e-01	7.4048	10.167219	0.000111	1.111758	0.188337	-0.002224
1261	6.3000e-01	7.3970	10.153535	0.000137	1.368317	0.231799	-0.002737
1262	6.3050e-01	7.3871	10.105213	0.000483	4.831871	0.818541	-0.009664
1263	6.3100e-01	7.3798	10.085114	0.000201	2.009716	0.340455	-0.004020
1264	6.3150e-01	7.3676	10.045773	0.000393	3.933912	0.666423	-0.007868
1265	6.3200e-01	7.3547	10.045345	0.000004	0.042760	0.007244	-0.000086
1266	6.3250e-01	7.3444	9.994458	0.000509	5.088430	0.862003	-0.010177
1267	6.3300e-01	7.3380	9.966662	0.000278	2.779395	0.470842	-0.005559
1268	6.3350e-01	7.3236	9.959820	0.000068	0.684159	0.115900	-0.001368
1269	6.3400e-01	7.3187	9.923900	0.000359	3.591833	0.608473	-0.007184
1270	6.3450e-01	7.3059	9.904229	0.000197	1.966956	0.333211	-0.003934
1271	6.3500e-01	7.2949	9.840085	0.000641	6.413988	1.086559	-0.012829
1272	6.3550e-01	7.2870	9.831533	0.000086	0.855198	0.144875	-0.001711
1273	6.3600e-01	7.2760	9.825974	0.000056	0.555879	0.094168	-0.001112
1274	6.3650e-01	7.2659	9.804592	0.000214	2.137996	0.362186	-0.004276
1275	6.3700e-01	7.2595	9.771238	0.000334	3.335274	0.565011	-0.006671
1276	6.3750e-01	7.2479	9.761402	0.000098	0.983478	0.166606	-0.001967
1277	6.3800e-01	7.2369	9.747718	0.000137	1.368317	0.231799	-0.002737
1278	6.3850e-01	7.2253	9.698541	0.000492	4.917391	0.833029	-0.009835
1279	6.3900e-01	7.2174	9.679298	0.000192	1.924196	0.325968	-0.003849
1280	6.3950e-01	7.2046	9.640384	0.000389	3.891153	0.659179	-0.007783
1281	6.4000e-01	7.1948	9.631832	0.000086	0.855198	0.144875	-0.001711
1282	6.4050e-01	7.1881	9.604036	0.000278	2.779395	0.470842	-0.005559
1283	6.4100e-01	7.1771	9.570254	0.000338	3.378033	0.572254	-0.006756
1284	6.4150e-01	7.1674	9.539037	0.000312	3.121474	0.528792	-0.006243
1285	6.4200e-01	7.1553	9.531767	0.000073	0.726919	0.123143	-0.001454
1286	6.4250e-01	7.1466	9.486439	0.000453	4.532551	0.767835	-0.009066
1287	6.4300e-01	7.1356	9.490288	-0.000038	-0.384839	-0.065194	0.000770
1288	6.4350e-01	7.1259	9.449663	0.000406	4.062192	0.688154	-0.008125
1289	6.4400e-01	7.1173	9.411605	0.000381	3.805633	0.644692	-0.007612
1290	6.4450e-01	7.1082	9.408611	0.000030	0.299319	0.050706	-0.000599
1291	6.4500e-01	7.0966	9.376539	0.000321	3.206994	0.543279	-0.006414
1292	6.4550e-01	7.0859	9.337625	0.000389	3.891153	0.659179	-0.007783
1293	6.4600e-01	7.0758	9.302560	0.000351	3.506313	0.593986	-0.007013
1294	6.4650e-01	7.0650	9.287166	0.000154	1.539357	0.260774	-0.003079
1295	6.4700e-01	7.0575	9.252528	0.000346	3.463553	0.586742	-0.006928
1296	6.4750e-01	7.0486	9.230719	0.000218	2.180756	0.369430	-0.004362
1297	6.4800e-01	7.0392	9.211476	0.000192	1.924196	0.325968	-0.003849
1298	6.4850e-01	7.0282	9.199503	0.000120	1.197278	0.202824	-0.002395
1299	6.4900e-01	7.0172	9.163582	0.000359	3.591833	0.608473	-0.007184
1300	6.4950e-01	7.0087	9.135359	0.000282	2.822155	0.478086	-0.005645
1301	6.5000e-01	6.9958	9.098583	0.000368	3.677353	0.622960	-0.007355
1302	6.5050e-01	6.9855	9.072925	0.000257	2.565595	0.434624	-0.005132
1303	6.5100e-01	6.9763	9.045557	0.000274	2.736635	0.463598	-0.005474
1304	6.5150e-01	6.9685	9.043847	0.000017	0.171040	0.028975	-0.000342
1305	6.5200e-01	6.9574	8.984835	0.000590	5.900869	0.999634	-0.011802
1306	6.5250e-01	6.9455	8.968585	0.000162	1.624877	0.275262	-0.003250
1307	6.5300e-01	6.9363	8.927533	0.000410	4.104952	0.695398	-0.008210
1308	6.5350e-01	6.9254	8.906152	0.000214	2.137996	0.362186	-0.004276
1309	6.5400e-01	6.9186	8.902303	0.000038	0.384839	0.065194	-0.000770
1310	6.5450e-01	6.9061	8.853554	0.000487	4.874631	0.825785	-0.009750
1311	6.5500e-01	6.8970	8.833028	0.000205	2.052476	0.347699	-0.004105
1312	6.5550e-01	6.8854	8.818488	0.000145	1.453837	0.246287	-0.002908
1313	6.5600e-01	6.8774	8.796680	0.000218	2.180756	0.369430	-0.004362
1314	6.5650e-01	6.8665	8.759476	0.000372	3.720113	0.630204	-0.007441
1315	6.5700e-01	6.8552	8.731253	0.000282	2.822155	0.478086	-0.005645
1316	6.5750e-01	6.8475	8.713720	0.000175	1.753157	0.296993	-0.003507
1317	6.5800e-01	6.8427	8.684214	0.000295	2.950434	0.499817	-0.005901
1318	6.5850e-01	6.8250	8.640169	0.000440	4.404272	0.746104	-0.008809
1319	6.5900e-01	6.8170	8.620926	0.000192	1.924196	0.325968	-0.003849
1320	6.5950e-01	6.8066	8.613656	0.000073	0.726919	0.123143	-0.001454
1321	6.6000e-01	6.7963	8.584150	0.000295	2.950434	0.499817	-0.005901
1322	6.6050e-01	6.7856	8.556782	0.000274	2.736635	0.463598	-0.005474
1323	6.6100e-01	6.7773	8.519151	0.000376	3.762873	0.637448	-0.007526
1324	6.6150e-01	6.7670	8.489217	0.000299	2.993194	0.507061	-0.005987
1325	6.6200e-01	6.7569	8.473822	0.000154	1.539357	0.260774	-0.003079
1326	6.6250e-01	6.7450	8.454152	0.000197	1.966956	0.333211	-0.003934
1327	6.6300e-01	6.7358	8.416948	0.000372	3.720113	0.630204	-0.007441
1328	6.6350e-01	6.7267	8.362212	0.000547	5.473269	0.927197	-0.010947
1329	6.6400e-01	6.7169	8.366488	-0.000043	-0.427599	-0.072437	0.000855
1330	6.6450e-01	6.7067	8.330140	0.000363	3.634593	0.615717	-0.007270
1331	6.6500e-01	6.6968	8.301489	0.000286	2.864914	0.485330	-0.005730
1332	6.6550e-01	6.6858	8.282246	0.000192	1.924196	0.325968	-0.003849
1333	6.6600e-01	6.6779	8.250602	0.000316	3.164234	0.536036	-0.006329
1334	6.6650e-01	6.6676	8.218958	0.000316	3.164234	0.536036	-0.006329
1335	6.6700e-01	6.6571	8.191162	0.000278	2.779395	0.470842	-0.005559
1336	6.6750e-01	6.6467	8.171064	0.000201	2.009716	0.340455	-0.004020
1337	6.6800e-01	6.6396	8.134288	0.000368	3.677353	0.622960	-0.007355
1338	6.6850e-01	6.6284	8.124025	0.000103	1.026238	0.173849	-0.002053
1339	6.6900e-01	6.6165	8.103927	0.000201	2.009716	0.340455	-0.004020
1340	6.6950e-01	6.6064	8.071427	0.000325	3.249754	0.550523	-0.006500
1341	6.7000e-01	6.5979	8.036789	0.000346	3.463553	0.586742	-0.006928
1342	6.7050e-01	6.5869	8.006856	0.000299	2.993194	0.507061	-0.005987
1343	6.7100e-01	6.5753	7.988468	0.000184	1.838676	0.311480	-0.003678
1344	6.7150e-01	6.5674	7.952975	0.000355	3.549073	0.601229	-0.007099
1345	6.7200e-01	6.5570	7.929455	0.000235	2.351795	0.398405	-0.004704
1346	6.7250e-01	6.5457	7.884127	0.000453	4.532551	0.767835	-0.009066
1347	6.7300e-01	6.5369	7.887548	-0.000034	-0.342079	-0.057950	0.000684
1348	6.7350e-01	6.5271	7.828964	0.000586	5.858109	0.992390	-0.011717
1349	6.7400e-01	6.5173	7.827681	0.000013	0.128280	0.021731	-0.000257
1350	6.7450e-01	6.5045	7.772945	0.000547	5.473269	0.927197	-0.010947
1351	6.7500e-01	6.4951	7.761399	0.000115	1.154518	0.195581	-0.002309
1352	6.7550e-01	6.4874	7.750708	0.000107	1.068998	0.181093	-0.002138
1353	6.7600e-01	6.4734	7.729327	0.000214	2.137996	0.362186	-0.004276
1354	6.7650e-01	6.4636	7.693834	0.000355	3.549073	0.601229	-0.007099
1355	6.7700e-01	6.4581	7.659196	0.000346	3.463553	0.586742	-0.006928
1356	6.7750e-01	6.4496	7.622848	0.000363	3.634593	0.615717	-0.007270
1357	6.7800e-01	6.4374	7.587783	0.000351	3.506313	0.593986	-0.007013
1358	6.7850e-01	6.4294	7.547158	0.000406	4.062192	0.688154	-0.008125
1359	6.7900e-01	6.4160	7.535185	0.000120	1.197278	0.202824	-0.002395
1360	6.7950e-01	6.4044	7.514659	0.000205	2.052476	0.347699	-0.004105
1361	6.8000e-01	6.3971	7.500120	0.000145	1.453837	0.246287	-0.002908
1362	6.8050e-01	6.3855	7.484725	0.000154	1.539357	0.260774	-0.003079
1363	6.8100e-01	6.3757	7.440252	0.000445	4.447031	0.753348	-0.008895
1364	6.8150e-01	6.3678	7.420154	0.000201	2.009716	0.340455	-0.004020
1365	6.8200e-01	6.3556	7.372260	0.000479	4.789111	0.811297	-0.009579
1366	6.8250e-01	6.3448	7.356010	0.000162	1.624877	0.275262	-0.003250
1367	6.8300e-01	6.3354	7.353017	0.000030	0.299319	0.050706	-0.000599
1368	6.8350e-01	6.3275	7.319234	0.000338	3.378033	0.572254	-0.006756
1369	6.8400e-01	6.3174	7.270057	0.000492	4.917391	0.833029	-0.009835
1370	6.8450e-01	6.3071	7.259794	0.000103	1.026238	0.173849	-0.002053
1371	6.8500e-01	6.2959	7.241834	0.000180	1.795917	0.304236	-0.003592
1372	6.8550e-01	6.2848	7.180256	0.000616	6.157428	1.043097	-0.012316
1373	6.8600e-01	6.2769	7.159730	0.000205	2.052476	0.347699	-0.004105
1374	6.8650e-01	6.2665	7.140914	0.000188	1.881436	0.318724	-0.003763
1375	6.8700e-01	6.2573	7.123809	0.000171	1.710397	0.289749	-0.003421
1376	6.8750e-01	6.2447	7.081475	0.000423	4.233232	0.717129	-0.008467
1377	6.8800e-01	6.2347	7.061804	0.000197	1.966956	0.333211	-0.003934
1378	6.8850e-01	6.2274	7.020752	0.000410	4.104952	0.695398	-0.008210
1379	6.8900e-01	6.2189	7.021179	-0.000004	-0.042760	-0.007244	0.000086
1380	6.8950e-01	6.2073	6.979700	0.000415	4.147712	0.702641	-0.008296
1381	6.9000e-01	6.1957	6.950194	0.000295	2.950434	0.499817	-0.005901
1382	6.9050e-01	6.1871	6.904865	0.000453	4.532551	0.767835	-0.009066
1383	6.9100e-01	6.1755	6.890754	0.000141	1.411077	0.239043	-0.002822
1384	6.9150e-01	6.1682	6.861675	0.000291	2.907674	0.492573	-0.005816
1385	6.9200e-01	6.1581	6.834307	0.000274	2.736635	0.463598	-0.005474
1386	6.9250e-01	6.1487	6.794966	0.000393	3.933912	0.666423	-0.007868
1387	6.9300e-01	6.1371	6.777861	0.000171	1.710397	0.289749	-0.003421
1388	6.9350e-01	6.1292	6.739802	0.000381	3.805633	0.644692	-0.007612
1389	6.9400e-01	6.1151	6.729539	0.000103	1.026238	0.173849	-0.002053
1390	6.9450e-01	6.1075	6.675658	0.000539	5.387750	0.912709	-0.010776
1391	6.9500e-01	6.0974	6.663257	0.000124	1.240038	0.210068	-0.002480
1392	6.9550e-01	6.0876	6.624343	0.000389	3.891153	0.659179	-0.007783
1393	6.9600e-01	6.0785	6.623488	0.000009	0.085520	0.014487	-0.000171
1394	6.9650e-01	6.0651	6.593554	0.000299	2.993194	0.507061	-0.005987
1395	6.9700e-01	6.0577	6.552930	0.000406	4.062192	0.688154	-0.008125
1396	6.9750e-01	6.0507	6.528555	0.000244	2.437315	0.412892	-0.004875
1397	6.9800e-01	6.0361	6.473819	0.000547	5.473269	0.927197	-0.010947
1398	6.9850e-01	6.0266	6.454148	0.000197	1.966956	0.333211	-0.003934
1399	6.9900e-01	6.0144	6.438326	0.000158	1.582117	0.268018	-0.003164
1400	6.9950e-01	6.0072	6.398129	0.000402	4.019432	0.680910	-0.008039
1401	7.0000e-01	5.9985	6.387439	0.000107	1.068998	0.181093	-0.002138
1402	7.0050e-01	5.9872	6.357933	0.000295	2.950434	0.499817	-0.005901
1403	7.0100e-01	5.9767	6.330992	0.000269	2.693875	0.456355	-0.005388
1404	7.0150e-01	5.9714	6.307045	0.000239	2.394555	0.405649	-0.004789
1405	7.0200e-01	5.9558	6.285236	0.000218	2.180756	0.369430	-0.004362
1406	7.0250e-01	5.9485	6.224513	0.000607	6.071908	1.028609	-0.012145
1407	7.0300e-01	5.9381	6.226652	-0.000021	-0.213800	-0.036219	0.000428
1408	7.0350e-01	5.9253	6.178758	0.000479	4.789111	0.811297	-0.009579
1409	7.0400e-01	5.9167	6.163791	0.000150	1.496597	0.253530	-0.002993
1410	7.0450e-01	5.9100	6.147113	0.000167	1.667637	0.282505	-0.003335
1411	7.0500e-01	5.8972	6.085535	0.000616	6.157428	1.043097	-0.012316
1412	7.0550e-01	5.8858	6.095798	-0.000103	-1.026238	-0.173849	0.002053
1413	7.0600e-01	5.8771	6.040207	0.000556	5.558789	0.941684	-0.011118
1414	7.0650e-01	5.8669	6.007280	0.000329	3.292514	0.557767	-0.006585
1415	7.0700e-01	5.8569	5.985899	0.000214	2.137996	0.362186	-0.004276
1416	7.0750e-01	5.8453	5.961096	0.000248	2.480075	0.420136	-0.004960
1417	7.0800e-01	5.8357	5.921755	0.000393	3.933912	0.666423	-0.007868
1418	7.0850e-01	5.8295	5.886262	0.000355	3.549073	0.601229	-0.007099
1419	7.0900e-01	5.8154	5.885834	0.000004	0.042760	0.007244	-0.000086
1420	7.0950e-01	5.8072	5.849059	0.000368	3.677353	0.622960	-0.007355
1421	7.1000e-01	5.7962	5.825111	0.000239	2.394555	0.405649	-0.004789
1422	7.1050e-01	5.7861	5.786198	0.000389	3.891153	0.659179	-0.007783
1423	7.1100e-01	5.7739	5.771658	0.000145	1.453837	0.246287	-0.002908
1424	7.1150e-01	5.7642	5.734455	0.000372	3.720113	0.630204	-0.007441
1425	7.1200e-01	5.7550	5.690410	0.000440	4.404272	0.746104	-0.008809
1426	7.1250e-01	5.7492	5.670311	0.000201	2.009716	0.340455	-0.004020
1427	7.1300e-01	5.7376	5.641660	0.000286	2.864914	0.485330	-0.005730
1428	7.1350e-01	5.7269	5.605312	0.000363	3.634593	0.615717	-0.007270
1429	7.1400e-01	5.7172	5.606595	-0.000013	-0.128280	-0.021731	0.000257
1430	7.1450e-01	5.7080	5.557418	0.000492	4.917391	0.833029	-0.009835
1431	7.1500e-01	5.6927	5.539885	0.000175	1.753157	0.296993	-0.003507
1432	7.1550e-01	5.6876	5.503965	0.000359	3.591833	0.608473	-0.007184
1433	7.1600e-01	5.6812	5.479163	0.000248	2.480075	0.420136	-0.004960
1434	7.1650e-01	5.6665	5.461202	0.000180	1.795917	0.304236	-0.003592
1435	7.1700e-01	5.6561	5.397059	0.000641	6.413988	1.086559	-0.012829
1436	7.1750e-01	5.6448	5.378243	0.000188	1.881436	0.318724	-0.003763
1437	7.1800e-01	5.6348	5.374822	0.000034	0.342079	0.057950	-0.000684
1438	7.1850e-01	5.6232	5.348309	0.000265	2.651115	0.449111	-0.005303
1439	7.1900e-01	5.6183	5.308540	0.000398	3.976672	0.673667	-0.007954
1440	7.1950e-01	5.6085	5.286304	0.000222	2.223516	0.376674	-0.004447
1441	7.2000e-01	5.5975	5.252094	0.000342	3.420793	0.579498	-0.006842
1442	7.2050e-01	5.5878	5.226008	0.000261	2.608355	0.441867	-0.005217
1443	7.2100e-01	5.5780	5.181535	0.000445	4.447031	0.753348	-0.008895
1444	7.2150e-01	5.5661	5.159299	0.000222	2.223516	0.376674	-0.004447
1445	7.2200e-01	5.5527	5.128510	0.000308	3.078714	0.521548	-0.006158
1446	7.2250e-01	5.5481	5.094728	0.000338	3.378033	0.572254	-0.006756
1447	7.2300e-01	5.5396	5.086175	0.000086	0.855198	0.144875	-0.001711
1448	7.2350e-01	5.5273	5.037426	0.000487	4.874631	0.825785	-0.009750
1449	7.2400e-01	5.5170	5.011768	0.000257	2.565595	0.434624	-0.005132
1450	7.2450e-01	5.5057	4.989104	0.000227	2.266276	0.383917	-0.004533
1451	7.2500e-01	5.4969	4.958743	0.000304	3.035954	0.514305	-0.006072
1452	7.2550e-01	5.4877	4.923250	0.000355	3.549073	0.601229	-0.007099
1453	7.2600e-01	5.4749	4.892033	0.000312	3.121474	0.528792	-0.006243
1454	7.2650e-01	5.4663	4.841573	0.000505	5.045670	0.854760	-0.010092
1455	7.2700e-01	5.4584	4.843284	-0.000017	-0.171040	-0.028975	0.000342
1456	7.2750e-01	5.4486	4.808219	0.000351	3.506313	0.593986	-0.007013
1457	7.2800e-01	5.4370	4.778285	0.000299	2.993194	0.507061	-0.005987
1458	7.2850e-01	5.4254	4.747068	0.000312	3.121474	0.528792	-0.006243
1459	7.2900e-01	5.4153	4.722266	0.000248	2.480075	0.420136	-0.004960
1460	7.2950e-01	5.4079	4.688056	0.000342	3.420793	0.579498	-0.006842
1461	7.3000e-01	5.3973	4.661115	0.000269	2.693875	0.456355	-0.005388
1462	7.3050e-01	5.3856	4.623484	0.000376	3.762873	0.637448	-0.007526
1463	7.3100e-01	5.3772	4.604669	0.000188	1.881436	0.318724	-0.003763
1464	7.3150e-01	5.3662	4.566183	0.000385	3.848393	0.651935	-0.007697
1465	7.3200e-01	5.3572	4.535394	0.000308	3.078714	0.521548	-0.006158
1466	7.3250e-01	5.3464	4.523420	0.000120	1.197278	0.202824	-0.002395
1467	7.3300e-01	5.3357	4.487072	0.000363	3.634593	0.615717	-0.007270
1468	7.3350e-01	5.3275	4.458421	0.000286	2.864914	0.485330	-0.005730
1469	7.3400e-01	5.3180	4.395133	0.000633	6.328468	1.072071	-0.012658
1470	7.3450e-01	5.3064	4.387863	0.000073	0.726919	0.123143	-0.001454
1471	7.3500e-01	5.2968	4.344245	0.000436	4.361512	0.738860	-0.008724
1472	7.3550e-01	5.2869	4.337403	0.000068	0.684159	0.115900	-0.001368
1473	7.3600e-01	5.2777	4.300627	0.000368	3.677353	0.622960	-0.007355
1474	7.3650e-01	5.2646	4.271976	0.000286	2.864914	0.485330	-0.005730
1475	7.3700e-01	5.2557	4.261286	0.000107	1.068998	0.181093	-0.002138
1476	7.3750e-01	5.2463	4.201418	0.000599	5.986388	1.014122	-0.011974
1477	7.3800e-01	5.2370	4.190300	0.000111	1.111758	0.188337	-0.002224
1478	7.3850e-01	5.2283	4.158228	0.000321	3.206994	0.543279	-0.006414
1479	7.3900e-01	5.2161	4.121880	0.000363	3.634593	0.615717	-0.007270
1480	7.3950e-01	5.2081	4.091091	0.000308	3.078714	0.521548	-0.006158
1481	7.4000e-01	5.1953	4.056881	0.000342	3.420793	0.579498	-0.006842
1482	7.4050e-01	5.1846	4.043625	0.000133	1.325557	0.224556	-0.002651
1483	7.4100e-01	5.1756	4.003000	0.000406	4.062192	0.688154	-0.008125
1484	7.4150e-01	5.1659	3.977770	0.000252	2.522835	0.427380	-0.005046
1485	7.4200e-01	5.1566	3.941850	0.000359	3.591833	0.608473	-0.007184
1486	7.4250e-01	5.1474	3.920041	0.000218	2.180756	0.369430	-0.004362
1487	7.4300e-01	5.1364	3.886258	0.000338	3.378033	0.572254	-0.006756
1488	7.4350e-01	5.1276	3.871719	0.000145	1.453837	0.246287	-0.002908
1489	7.4400e-01	5.1172	3.824253	0.000475	4.746351	0.804054	-0.009493
1490	7.4450e-01	5.1065	3.796885	0.000274	2.736635	0.463598	-0.005474
1491	7.4500e-01	5.0952	3.763958	0.000329	3.292514	0.557767	-0.006585
1492	7.4550e-01	5.0848	3.738728	0.000252	2.522835	0.427380	-0.005046
1493	7.4600e-01	5.0769	3.712215	0.000265	2.651115	0.449111	-0.005303
1494	7.4650e-01	5.0668	3.678005	0.000342	3.420793	0.579498	-0.006842
1495	7.4700e-01	5.0531	3.657479	0.000205	2.052476	0.347699	-0.004105
1496	7.4750e-01	5.0452	3.604453	0.000530	5.302230	0.898222	-0.010605
1497	7.4800e-01	5.0339	3.609585	-0.000051	-0.513119	-0.086925	0.001026
1498	7.4850e-01	5.0278	3.562974	0.000466	4.660831	0.789566	-0.009322
1499	7.4900e-01	5.0159	3.519356	0.000436	4.361512	0.738860	-0.008724
1500	7.4950e-01	5.0027	3.488139	0.000312	3.121474	0.528792	-0.006243
1501	7.5000e-01	4.9960	3.474028	0.000141	1.411077	0.239043	-0.002822
1502	7.5050e-01	4.9869	3.430410	0.000436	4.361512	0.738860	-0.008724
1503	7.5100e-01	4.9751	3.410312	0.000201	2.009716	0.340455	-0.004020
1504	7.5150e-01	4.9677	3.369260	0.000410	4.104952	0.695398	-0.008210
1505	7.5200e-01	4.9597	3.348306	0.000210	2.095236	0.354943	-0.004191
1506	7.5250e-01	4.9454	3.325642	0.000227	2.266276	0.383917	-0.004533
1507	7.5300e-01	4.9377	3.284162	0.000415	4.147712	0.702641	-0.008296
1508	7.5350e-01	4.9268	3.266202	0.000180	1.795917	0.304236	-0.003592
1509	7.5400e-01	4.9170	3.228143	0.000381	3.805633	0.644692	-0.007612
1510	7.5450e-01	4.9080	3.205907	0.000222	2.223516	0.376674	-0.004447
1511	7.5500e-01	4.8956	3.158868	0.000470	4.703591	0.796810	-0.009408
1512	7.5550e-01	4.8857	3.142191	0.000167	1.667637	0.282505	-0.003335
1513	7.5600e-01	4.8773	3.095579	0.000466	4.660831	0.789566	-0.009322
1514	7.5650e-01	4.8669	3.081040	0.000145	1.453837	0.246287	-0.002908
1515	7.5700e-01	4.8566	3.051962	0.000291	2.907674	0.492573	-0.005816
1516	7.5750e-01	4.8459	3.002785	0.000492	4.917391	0.833029	-0.009835
1517	7.5800e-01	4.8355	2.968575	0.000342	3.420793	0.579498	-0.006842
1518	7.5850e-01	4.8267	2.929661	0.000389	3.891153	0.659179	-0.007783
1519	7.5900e-01	4.8163	2.927523	0.000021	0.213800	0.036219	-0.000428
1520	7.5950e-01	4.8111	2.885188	0.000423	4.233232	0.717129	-0.008467
1521	7.6000e-01	4.7949	2.850550	0.000346	3.463553	0.586742	-0.006928
1522	7.6050e-01	4.7882	2.827886	0.000227	2.266276	0.383917	-0.004533
1523	7.6100e-01	4.7766	2.787262	0.000406	4.062192	0.688154	-0.008125
1524	7.6150e-01	4.7644	2.762032	0.000252	2.522835	0.427380	-0.005046
1525	7.6200e-01	4.7568	2.732098	0.000299	2.993194	0.507061	-0.005987
1526	7.6250e-01	4.7455	2.695322	0.000368	3.677353	0.622960	-0.007355
1527	7.6300e-01	4.7388	2.679072	0.000162	1.624877	0.275262	-0.003250
1528	7.6350e-01	4.7284	2.643579	0.000355	3.549073	0.601229	-0.007099
1529	7.6400e-01	4.7171	2.608942	0.000346	3.463553	0.586742	-0.006928
1530	7.6450e-01	4.7054	2.585422	0.000235	2.351795	0.398405	-0.004704
1531	7.6500e-01	4.6951	2.527693	0.000577	5.772589	0.977903	-0.011546
1532	7.6550e-01	4.6912	2.521279	0.000064	0.641399	0.108656	-0.001283
1533	7.6600e-01	4.6765	2.493911	0.000274	2.736635	0.463598	-0.005474
1534	7.6650e-01	4.6661	2.461839	0.000321	3.206994	0.543279	-0.006414
1535	7.6700e-01	4.6576	2.411807	0.000500	5.002910	0.847516	-0.010006
1536	7.6750e-01	4.6479	2.388287	0.000235	2.351795	0.398405	-0.004704
1537	7.6800e-01	4.6394	2.372465	0.000158	1.582117	0.268018	-0.003164
1538	7.6850e-01	4.6262	2.324143	0.000483	4.831871	0.818541	-0.009664
1539	7.6900e-01	4.6156	2.304900	0.000192	1.924196	0.325968	-0.003849
1540	7.6950e-01	4.6083	2.260000	0.000449	4.489791	0.760591	-0.008980
1541	7.7000e-01	4.5975	2.235625	0.000244	2.437315	0.412892	-0.004875
1542	7.7050e-01	4.5871	2.203553	0.000321	3.206994	0.543279	-0.006414
1543	7.7100e-01	4.5773	2.165922	0.000376	3.762873	0.637448	-0.007526
1544	7.7150e-01	4.5673	2.135561	0.000304	3.035954	0.514305	-0.006072
1545	7.7200e-01	4.5581	2.120166	0.000154	1.539357	0.260774	-0.003079
1546	7.7250e-01	4.5465	2.076976	0.000432	4.318752	0.731616	-0.008638
1547	7.7300e-01	4.5380	2.052601	0.000244	2.437315	0.412892	-0.004875
1548	7.7350e-01	4.5267	2.016253	0.000363	3.634593	0.615717	-0.007270
1549	7.7400e-01	4.5178	1.996155	0.000201	2.009716	0.340455	-0.004020
1550	7.7450e-01	4.5056	1.971353	0.000248	2.480075	0.420136	-0.004960
1551	7.7500e-01	4.4971	1.910630	0.000607	6.071908	1.028609	-0.012145
1552	7.7550e-01	4.4904	1.895663	0.000150	1.496597	0.253530	-0.002993
1553	7.7600e-01	4.4778	1.863163	0.000325	3.249754	0.550523	-0.006500
1554	7.7650e-01	4.4662	1.825532	0.000376	3.762873	0.637448	-0.007526
1555	7.7700e-01	4.4580	1.799447	0.000261	2.608355	0.441867	-0.005217
1556	7.7750e-01	4.4447	1.775500	0.000239	2.394555	0.405649	-0.004789
1557	7.7800e-01	4.4366	1.741290	0.000342	3.420793	0.579498	-0.006842
1558	7.7850e-01	4.4260	1.680567	0.000607	6.071908	1.028609	-0.012145
1559	7.7900e-01	4.4165	1.673298	0.000073	0.726919	0.123143	-0.001454
1560	7.7950e-01	4.4058	1.646785	0.000265	2.651115	0.449111	-0.005303
1561	7.8000e-01	4.3958	1.597608	0.000492	4.917391	0.833029	-0.009835
1562	7.8050e-01	4.3851	1.560832	0.000368	3.677353	0.622960	-0.007355
1563	7.8100e-01	4.3761	1.536885	0.000239	2.394555	0.405649	-0.004789
1564	7.8150e-01	4.3671	1.512938	0.000239	2.394555	0.405649	-0.004789
1565	7.8200e-01	4.3579	1.491557	0.000214	2.137996	0.362186	-0.004276
1566	7.8250e-01	4.3472	1.452215	0.000393	3.933912	0.666423	-0.007868
1567	7.8300e-01	4.3359	1.429551	0.000227	2.266276	0.383917	-0.004533
1568	7.8350e-01	4.3268	1.375243	0.000543	5.430510	0.919953	-0.010862
1569	7.8400e-01	4.3152	1.349158	0.000261	2.608355	0.441867	-0.005217
1570	7.8450e-01	4.3071	1.327349	0.000218	2.180756	0.369430	-0.004362
1571	7.8500e-01	4.2976	1.273040	0.000543	5.430510	0.919953	-0.010862
1572	7.8550e-01	4.2871	1.261495	0.000115	1.154518	0.195581	-0.002309
1573	7.8600e-01	4.2781	1.223008	0.000385	3.848393	0.651935	-0.007697
1574	7.8650e-01	4.2651	1.197778	0.000252	2.522835	0.427380	-0.005046
1575	7.8700e-01	4.2572	1.156299	0.000415	4.147712	0.702641	-0.008296
1576	7.8750e-01	4.2468	1.119095	0.000372	3.720113	0.630204	-0.007441
1577	7.8800e-01	4.2358	1.101135	0.000180	1.795917	0.304236	-0.003592
1578	7.8850e-01	4.2281	1.062221	0.000389	3.891153	0.659179	-0.007783
1579	7.8900e-01	4.2160	1.026728	0.000355	3.549073	0.601229	-0.007099
1580	7.8950e-01	4.2065	1.010906	0.000158	1.582117	0.268018	-0.003164
1581	7.9000e-01	4.1951	0.948045	0.000629	6.285708	1.064828	-0.012572
1582	7.9050e-01	4.1872	0.954032	-0.000060	-0.598639	-0.101412	0.001197
1583	7.9100e-01	4.1772	0.903145	0.000509	5.088430	0.862003	-0.010177
1584	7.9150e-01	4.1653	0.883901	0.000192	1.924196	0.325968	-0.003849
1585	7.9200e-01	4.1577	0.826600	0.000573	5.729829	0.970659	-0.011460
1586	7.9250e-01	4.1467	0.796238	0.000304	3.035954	0.514305	-0.006072
1587	7.9300e-01	4.1380	0.785120	0.000111	1.111758	0.188337	-0.002224
1588	7.9350e-01	4.1261	0.749627	0.000355	3.549073	0.601229	-0.007099
1589	7.9400e-01	4.1174	0.705154	0.000445	4.447031	0.753348	-0.008895
1590	7.9450e-01	4.1055	0.673937	0.000312	3.121474	0.528792	-0.006243
1591	7.9500e-01	4.0958	0.643576	0.000304	3.035954	0.514305	-0.006072
1592	7.9550e-01	4.0875	0.595682	0.000479	4.789111	0.811297	-0.009579
1593	7.9600e-01	4.0768	0.573018	0.000227	2.266276	0.383917	-0.004533
1594	7.9650e-01	4.0650	0.542229	0.000308	3.078714	0.521548	-0.006158
1595	7.9700e-01	4.0573	0.514861	0.000274	2.736635	0.463598	-0.005474
1596	7.9750e-01	4.0466	0.483217	0.000316	3.164234	0.536036	-0.006329
1597	7.9800e-01	4.0378	0.429763	0.000534	5.344990	0.905466	-0.010691
1598	7.9850e-01	4.0259	0.418218	0.000115	1.154518	0.195581	-0.002309
1599	7.9900e-01	4.0143	0.380586	0.000376	3.762873	0.637448	-0.007526
1600	7.9950e-01	4.0079	0.348942	0.000316	3.164234	0.536036	-0.006329
1601	8.0000e-01	3.9991	0.320291	0.000286	2.864914	0.485330	-0.005730
1602	8.0050e-01	3.9873	0.272825	0.000475	4.746351	0.804054	-0.009493
1603	8.0100e-01	3.9735	0.253154	0.000197	1.966956	0.333211	-0.003934
1604	8.0150e-01	3.9673	0.225359	0.000278	2.779395	0.470842	-0.005559
1605	8.0200e-01	3.9566	0.189438	0.000359	3.591833	0.608473	-0.007184
1606	8.0250e-01	3.9471	0.159932	0.000295	2.950434	0.499817	-0.005901
1607	8.0300e-01	3.9351	0.141116	0.000188	1.881436	0.318724	-0.003763
1608	8.0350e-01	3.9309	0.101347	0.000398	3.976672	0.673667	-0.007954
1609	8.0400e-01	3.9178	0.048322	0.000530	5.302230	0.898222	-0.010605
1610	8.0450e-01	3.9059	0.011546	0.000368	3.677353	0.622960	-0.007355
1611	8.0500e-01	3.8979	-0.010263	0.000218	2.180756	0.369430	-0.004362
1612	8.0550e-01	3.8873	-0.038486	0.000282	2.822155	0.478086	-0.005645
1613	8.0600e-01	3.8733	-0.076545	0.000381	3.805633	0.644692	-0.007612
1614	8.0650e-01	3.8657	-0.114176	0.000376	3.762873	0.637448	-0.007526
1615	8.0700e-01	3.8560	-0.133419	0.000192	1.924196	0.325968	-0.003849
1616	8.0750e-01	3.8474	-0.176609	0.000432	4.318752	0.731616	-0.008638
1617	8.0800e-01	3.8364	-0.206115	0.000295	2.950434	0.499817	-0.005901
1618	8.0850e-01	3.8306	-0.247595	0.000415	4.147712	0.702641	-0.008296
1619	8.0900e-01	3.8152	-0.273680	0.000261	2.608355	0.441867	-0.005217
1620	8.0950e-01	3.8049	-0.331410	0.000577	5.772589	0.977903	-0.011546
1621	8.1000e-01	3.7973	-0.336113	0.000047	0.470359	0.079681	-0.000941
1622	8.1050e-01	3.7860	-0.387428	0.000513	5.131190	0.869247	-0.010263
1623	8.1100e-01	3.7744	-0.390422	0.000030	0.299319	0.050706	-0.000599
1624	8.1150e-01	3.7643	-0.431046	0.000406	4.062192	0.688154	-0.008125
1625	8.1200e-01	3.7592	-0.476375	0.000453	4.532551	0.767835	-0.009066
1626	8.1250e-01	3.7442	-0.494335	0.000180	1.795917	0.304236	-0.003592
1627	8.1300e-01	3.7378	-0.545222	0.000509	5.088430	0.862003	-0.010177
1628	8.1350e-01	3.7288	-0.560617	0.000154	1.539357	0.260774	-0.003079
1629	8.1400e-01	3.7152	-0.602096	0.000415	4.147712	0.702641	-0.008296
1630	8.1450e-01	3.7055	-0.625188	0.000231	2.309036	0.391161	-0.004618
1631	8.1500e-01	3.6957	-0.654694	0.000295	2.950434	0.499817	-0.005901
1632	8.1550e-01	3.6885	-0.706865	0.000522	5.216710	0.883735	-0.010434
1633	8.1600e-01	3.6752	-0.750055	0.000432	4.318752	0.731616	-0.008638
1634	8.1650e-01	3.6649	-0.774002	0.000239	2.394555	0.405649	-0.004789
1635	8.1700e-01	3.6591	-0.818902	0.000449	4.489791	0.760591	-0.008980
1636	8.1750e-01	3.6469	-0.831304	0.000124	1.240038	0.210068	-0.002480
1637	8.1800e-01	3.6383	-0.863803	0.000325	3.249754	0.550523	-0.006500
1638	8.1850e-01	3.6252	-0.883046	0.000192	1.924196	0.325968	-0.003849
1639	8.1900e-01	3.6163	-0.926236	0.000432	4.318752	0.731616	-0.008638
1640	8.1950e-01	3.6078	-0.981828	0.000556	5.558789	0.941684	-0.011118
1641	8.2000e-01	3.5962	-1.006630	0.000248	2.480075	0.420136	-0.004960
1642	8.2050e-01	3.5864	-1.031860	0.000252	2.522835	0.427380	-0.005046
1643	8.2100e-01	3.5815	-1.081464	0.000496	4.960150	0.840272	-0.009921
1644	8.2150e-01	3.5663	-1.111826	0.000304	3.035954	0.514305	-0.006072
1645	8.2200e-01	3.5577	-1.128931	0.000171	1.710397	0.289749	-0.003421
1646	8.2250e-01	3.5477	-1.166134	0.000372	3.720113	0.630204	-0.007441
1647	8.2300e-01	3.5376	-1.224719	0.000586	5.858109	0.992390	-0.011717
1648	8.2350e-01	3.5266	-1.257646	0.000329	3.292514	0.557767	-0.006585
1649	8.2400e-01	3.5193	-1.277744	0.000201	2.009716	0.340455	-0.004020
1650	8.2450e-01	3.5059	-1.298270	0.000205	2.052476	0.347699	-0.004105
1651	8.2500e-01	3.4970	-1.348302	0.000500	5.002910	0.847516	-0.010006
1652	8.2550e-01	3.4866	-1.374388	0.000261	2.608355	0.441867	-0.005217
1653	8.2600e-01	3.4775	-1.417578	0.000432	4.318752	0.731616	-0.008638
1654	8.2650e-01	3.4662	-1.445373	0.000278	2.779395	0.470842	-0.005559
1655	8.2700e-01	3.4552	-1.474024	0.000286	2.864914	0.485330	-0.005730
1656	8.2750e-01	3.4479	-1.514221	0.000402	4.019432	0.680910	-0.008039
1657	8.2800e-01	3.4372	-1.559122	0.000449	4.489791	0.760591	-0.008980
1658	8.2850e-01	3.4247	-1.574516	0.000154	1.539357	0.260774	-0.003079
1659	8.2900e-01	3.4161	-1.613858	0.000393	3.933912	0.666423	-0.007868
1660	8.2950e-01	3.4053	-1.650206	0.000363	3.634593	0.615717	-0.007270
1661	8.3000e-01	3.3972	-1.686554	0.000363	3.634593	0.615717	-0.007270
1662	8.3050e-01	3.3850	-1.730172	0.000436	4.361512	0.738860	-0.008724
1663	8.3100e-01	3.3768	-1.754119	0.000239	2.394555	0.405649	-0.004789
1664	8.3150e-01	3.3694	-1.785763	0.000316	3.164234	0.536036	-0.006329
1665	8.3200e-01	3.3543	-1.808427	0.000227	2.266276	0.383917	-0.004533
1666	8.3250e-01	3.3475	-1.843065	0.000346	3.463553	0.586742	-0.006928
1667	8.3300e-01	3.3362	-1.893525	0.000505	5.045670	0.854760	-0.010092
1668	8.3350e-01	3.3257	-1.916616	0.000231	2.309036	0.391161	-0.004618
1669	8.3400e-01	3.3150	-1.951254	0.000346	3.463553	0.586742	-0.006928
1670	8.3450e-01	3.3078	-1.977767	0.000265	2.651115	0.449111	-0.005303
1671	8.3500e-01	3.2956	-2.026944	0.000492	4.917391	0.833029	-0.009835
1672	8.3550e-01	3.2867	-2.072272	0.000453	4.532551	0.767835	-0.009066
1673	8.3600e-01	3.2751	-2.090232	0.000180	1.795917	0.304236	-0.003592
1674	8.3650e-01	3.2654	-2.126153	0.000359	3.591833	0.608473	-0.007184
1675	8.3700e-01	3.2526	-2.177896	0.000517	5.173950	0.876491	-0.010349
1676	8.3750e-01	3.2480	-2.217237	0.000393	3.933912	0.666423	-0.007868
1677	8.3800e-01	3.2379	-2.227500	0.000103	1.026238	0.173849	-0.002053
1678	8.3850e-01	3.2257	-2.262565	0.000351	3.506313	0.593986	-0.007013
1679	8.3900e-01	3.2153	-2.302334	0.000398	3.976672	0.673667	-0.007954
1680	8.3950e-01	3.2065	-2.351084	0.000487	4.874631	0.825785	-0.009750
1681	8.4000e-01	3.1976	-2.370327	0.000192	1.924196	0.325968	-0.003849
1682	8.4050e-01	3.1873	-2.407958	0.000376	3.762873	0.637448	-0.007526
1683	8.4100e-01	3.1770	-2.443878	0.000359	3.591833	0.608473	-0.007184
1684	8.4150e-01	3.1650	-2.476806	0.000329	3.292514	0.557767	-0.006585
1685	8.4200e-01	3.1558	-2.517858	0.000410	4.104952	0.695398	-0.008210
1686	8.4250e-01	3.1467	-2.542660	0.000248	2.480075	0.420136	-0.004960
1687	8.4300e-01	3.1361	-2.572166	0.000295	2.950434	0.499817	-0.005901
1688	8.4350e-01	3.1287	-2.620488	0.000483	4.831871	0.818541	-0.009664
1689	8.4400e-01	3.1171	-2.641014	0.000205	2.052476	0.347699	-0.004105
1690	8.4450e-01	3.1055	-2.688908	0.000479	4.789111	0.811297	-0.009579
1691	8.4500e-01	3.0969	-2.717131	0.000282	2.822155	0.478086	-0.005645
1692	8.4550e-01	3.0865	-2.754334	0.000372	3.720113	0.630204	-0.007441
1693	8.4600e-01	3.0753	-2.788544	0.000342	3.420793	0.579498	-0.006842
1694	8.4650e-01	3.0710	-2.839859	0.000513	5.131190	0.869247	-0.010263
1695	8.4700e-01	3.0563	-2.862096	0.000222	2.223516	0.376674	-0.004447
1696	8.4750e-01	3.0446	-2.898444	0.000363	3.634593	0.615717	-0.007270
1697	8.4800e-01	3.0371	-2.916404	0.000180	1.795917	0.304236	-0.003592
1698	8.4850e-01	3.0257	-2.971568	0.000552	5.516029	0.934441	-0.011033
1699	8.4900e-01	3.0130	-3.016041	0.000445	4.447031	0.753348	-0.008895
1700	8.4950e-01	3.0060	-3.034429	0.000184	1.838676	0.311480	-0.003678
1701	8.5000e-01	2.9947	-3.080612	0.000462	4.618071	0.782322	-0.009237
1702	8.5050e-01	2.9865	-3.098145	0.000175	1.753157	0.296993	-0.003507
1703	8.5100e-01	2.9761	-3.148177	0.000500	5.002910	0.847516	-0.010006
1704	8.5150e-01	2.9675	-3.187519	0.000393	3.933912	0.666423	-0.007868
1705	8.5200e-01	2.9551	-3.201203	0.000137	1.368317	0.231799	-0.002737
1706	8.5250e-01	2.9446	-3.278603	0.000774	7.739545	1.311114	-0.015480
1707	8.5300e-01	2.9346	-3.282879	0.000043	0.427599	0.072437	-0.000855
1708	8.5350e-01	2.9262	-3.319655	0.000368	3.677353	0.622960	-0.007355
1709	8.5400e-01	2.9179	-3.374391	0.000547	5.473269	0.927197	-0.010947
1710	8.5450e-01	2.9067	-3.390213	0.000158	1.582117	0.268018	-0.003164
1711	8.5500e-01	2.8955	-3.429127	0.000389	3.891153	0.659179	-0.007783
1712	8.5550e-01	2.8871	-3.464620	0.000355	3.549073	0.601229	-0.007099
1713	8.5600e-01	2.8767	-3.486856	0.000222	2.223516	0.376674	-0.004447
1714	8.5650e-01	2.8650	-3.550573	0.000637	6.371228	1.079315	-0.012743
1715	8.5700e-01	2.8558	-3.555704	0.000051	0.513119	0.086925	-0.001026
1716	8.5750e-01	2.8455	-3.606592	0.000509	5.088430	0.862003	-0.010177
1717	8.5800e-01	2.8365	-3.644650	0.000381	3.805633	0.644692	-0.007612
1718	8.5850e-01	2.8246	-3.690834	0.000462	4.618071	0.782322	-0.009237
1719	8.5900e-01	2.8170	-3.704945	0.000141	1.411077	0.239043	-0.002822
1720	8.5950e-01	2.8049	-3.752412	0.000475	4.746351	0.804054	-0.009493
1721	8.6000e-01	2.7960	-3.801589	0.000492	4.917391	0.833029	-0.009835
1722	8.6050e-01	2.7858	-3.827246	0.000257	2.565595	0.434624	-0.005132
1723	8.6100e-01	2.7747	-3.851621	0.000244	2.437315	0.412892	-0.004875
1724	8.6150e-01	2.7640	-3.905502	0.000539	5.387750	0.912709	-0.010776
1725	8.6200e-01	2.7558	-3.933297	0.000278	2.779395	0.470842	-0.005559
1726	8.6250e-01	2.7464	-3.975205	0.000419	4.190472	0.709885	-0.008381
1727	8.6300e-01	2.7367	-4.010270	0.000351	3.506313	0.593986	-0.007013
1728	8.6350e-01	2.7252	-4.032506	0.000222	2.223516	0.376674	-0.004447
1729	8.6400e-01	2.7145	-4.072275	0.000398	3.976672	0.673667	-0.007954
1730	8.6450e-01	2.7051	-4.130005	0.000577	5.772589	0.977903	-0.011546
1731	8.6500e-01	2.6960	-4.128294	-0.000017	-0.171040	-0.028975	0.000342
1732	8.6550e-01	2.6855	-4.193293	0.000650	6.499507	1.101046	-0.013000
1733	8.6600e-01	2.6765	-4.217668	0.000244	2.437315	0.412892	-0.004875
1734	8.6650e-01	2.6648	-4.242043	0.000244	2.437315	0.412892	-0.004875
1735	8.6700e-01	2.6556	-4.288654	0.000466	4.660831	0.789566	-0.009322
1736	8.6750e-01	2.6450	-4.325430	0.000368	3.677353	0.622960	-0.007355
1737	8.6800e-01	2.6337	-4.359640	0.000342	3.420793	0.579498	-0.006842
1738	8.6850e-01	2.6247	-4.404968	0.000453	4.532551	0.767835	-0.009066
1739	8.6900e-01	2.6177	-4.452007	0.000470	4.703591	0.796810	-0.009408
1740	8.6950e-01	2.6057	-4.463980	0.000120	1.197278	0.202824	-0.002395
1741	8.7000e-01	2.5951	-4.514868	0.000509	5.088430	0.862003	-0.010177
1742	8.7050e-01	2.5861	-4.531545	0.000167	1.667637	0.282505	-0.003335
1743	8.7100e-01	2.5752	-4.584571	0.000530	5.302230	0.898222	-0.010605
1744	8.7150e-01	2.5650	-4.617070	0.000325	3.249754	0.550523	-0.006500
1745	8.7200e-01	2.5580	-4.655984	0.000389	3.891153	0.659179	-0.007783
1746	8.7250e-01	2.5474	-4.694470	0.000385	3.848393	0.651935	-0.007697
1747	8.7300e-01	2.5366	-4.729108	0.000346	3.463553	0.586742	-0.006928
1748	8.7350e-01	2.5290	-4.753483	0.000244	2.437315	0.412892	-0.004875
1749	8.7400e-01	2.5168	-4.798383	0.000449	4.489791	0.760591	-0.008980
1750	8.7450e-01	2.5083	-4.842429	0.000440	4.404272	0.746104	-0.008809
1751	8.7500e-01	2.4976	-4.880487	0.000381	3.805633	0.644692	-0.007612
1752	8.7550e-01	2.4838	-4.892888	0.000124	1.240038	0.210068	-0.002480
1753	8.7600e-01	2.4757	-4.957032	0.000641	6.413988	1.086559	-0.012829
1754	8.7650e-01	2.4686	-4.984828	0.000278	2.779395	0.470842	-0.005559
1755	8.7700e-01	2.4561	-5.016044	0.000312	3.121474	0.528792	-0.006243
1756	8.7750e-01	2.4487	-5.068642	0.000526	5.259470	0.890978	-0.010520
1757	8.7800e-01	2.4339	-5.098149	0.000295	2.950434	0.499817	-0.005901
1758	8.7850e-01	2.4240	-5.104135	0.000060	0.598639	0.101412	-0.001197
1759	8.7900e-01	2.4124	-5.180680	0.000765	7.654025	1.296627	-0.015309
1760	8.7950e-01	2.4031	-5.193081	0.000124	1.240038	0.210068	-0.002480
1761	8.8000e-01	2.3969	-5.226864	0.000338	3.378033	0.572254	-0.006756
1762	8.8050e-01	2.3853	-5.275613	0.000487	4.874631	0.825785	-0.009750
1763	8.8100e-01	2.3774	-5.319231	0.000436	4.361512	0.738860	-0.008724
1764	8.8150e-01	2.3685	-5.344888	0.000257	2.565595	0.434624	-0.005132
1765	8.8200e-01	2.3553	-5.384657	0.000398	3.976672	0.673667	-0.007954
1766	8.8250e-01	2.3456	-5.433834	0.000492	4.917391	0.833029	-0.009835
1767	8.8300e-01	2.3360	-5.465479	0.000316	3.164234	0.536036	-0.006329
1768	8.8350e-01	2.3285	-5.503965	0.000385	3.848393	0.651935	-0.007697
1769	8.8400e-01	2.3135	-5.542024	0.000381	3.805633	0.644692	-0.007612
1770	8.8450e-01	2.3047	-5.587352	0.000453	4.532551	0.767835	-0.009066
1771	8.8500e-01	2.2954	-5.622417	0.000351	3.506313	0.593986	-0.007013
1772	8.8550e-01	2.2882	-5.649785	0.000274	2.736635	0.463598	-0.005474
1773	8.8600e-01	2.2739	-5.681002	0.000312	3.121474	0.528792	-0.006243
1774	8.8650e-01	2.2656	-5.722909	0.000419	4.190472	0.709885	-0.008381
1775	8.8700e-01	2.2571	-5.762678	0.000398	3.976672	0.673667	-0.007954
1776	8.8750e-01	2.2449	-5.811855	0.000492	4.917391	0.833029	-0.009835
1777	8.8800e-01	2.2369	-5.832809	0.000210	2.095236	0.354943	-0.004191
1778	8.8850e-01	2.2266	-5.876427	0.000436	4.361512	0.738860	-0.008724
1779	8.8900e-01	2.2173	-5.907643	0.000312	3.121474	0.528792	-0.006243
1780	8.8950e-01	2.2060	-5.943564	0.000359	3.591833	0.608473	-0.007184
1781	8.9000e-01	2.1951	-5.988464	0.000449	4.489791	0.760591	-0.008980
1782	8.9050e-01	2.1863	-6.032510	0.000440	4.404272	0.746104	-0.008809
1783	8.9100e-01	2.1768	-6.066292	0.000338	3.378033	0.572254	-0.006756
1784	8.9150e-01	2.1687	-6.111620	0.000453	4.532551	0.767835	-0.009066
1785	8.9200e-01	2.1535	-6.117607	0.000060	0.598639	0.101412	-0.001197
1786	8.9250e-01	2.1460	-6.182179	0.000646	6.456748	1.093803	-0.012914
1787	8.9300e-01	2.1357	-6.237770	0.000556	5.558789	0.941684	-0.011118
1788	8.9350e-01	2.1248	-6.247605	0.000098	0.983478	0.166606	-0.001967
1789	8.9400e-01	2.1149	-6.286519	0.000389	3.891153	0.659179	-0.007783
1790	8.9450e-01	2.1066	-6.312604	0.000261	2.608355	0.441867	-0.005217
1791	8.9500e-01	2.0950	-6.364347	0.000517	5.173950	0.876491	-0.010349
1792	8.9550e-01	2.0859	-6.398129	0.000338	3.378033	0.572254	-0.006756
1793	8.9600e-01	2.0746	-6.412669	0.000145	1.453837	0.246287	-0.002908
1794	8.9650e-01	2.0633	-6.472964	0.000603	6.029148	1.021365	-0.012059
1795	8.9700e-01	2.0557	-6.516582	0.000436	4.361512	0.738860	-0.008724
1796	8.9750e-01	2.0458	-6.572600	0.000560	5.601549	0.948928	-0.011204
1797	8.9800e-01	2.0380	-6.595692	0.000231	2.309036	0.391161	-0.004618
1798	8.9850e-01	2.0282	-6.630758	0.000351	3.506313	0.593986	-0.007013
1799	8.9900e-01	2.0148	-6.673948	0.000432	4.318752	0.731616	-0.008638
1800	8.9950e-01	2.0030	-6.699178	0.000252	2.522835	0.427380	-0.005046
1801	9.0000e-01	1.9953	-6.745361	0.000462	4.618071	0.782322	-0.009237
1802	9.0050e-01	1.9830	-6.785558	0.000402	4.019432	0.680910	-0.008039
1803	9.0100e-01	1.9755	-6.816347	0.000308	3.078714	0.521548	-0.006158
1804	9.0150e-01	1.9646	-6.837728	0.000214	2.137996	0.362186	-0.004276
1805	9.0200e-01	1.9553	-6.918549	0.000808	8.081624	1.369064	-0.016164
1806	9.0250e-01	1.9449	-6.951904	0.000334	3.335274	0.565011	-0.006671
1807	9.0300e-01	1.9357	-6.974568	0.000227	2.266276	0.383917	-0.004533
1808	9.0350e-01	1.9278	-7.015620	0.000410	4.104952	0.695398	-0.008210
1809	9.0400e-01	1.9168	-7.067363	0.000517	5.173950	0.876491	-0.010349
1810	9.0450e-01	1.9037	-7.098580	0.000312	3.121474	0.528792	-0.006243
1811	9.0500e-01	1.8951	-7.146474	0.000479	4.789111	0.811297	-0.009579
1812	9.0550e-01	1.8838	-7.189236	0.000428	4.275992	0.724373	-0.008553
1813	9.0600e-01	1.8752	-7.209335	0.000201	2.009716	0.340455	-0.004020
1814	9.0650e-01	1.8655	-7.253380	0.000440	4.404272	0.746104	-0.008809
1815	9.0700e-01	1.8568	-7.285024	0.000316	3.164234	0.536036	-0.006329
1816	9.0750e-01	1.8464	-7.324793	0.000398	3.976672	0.673667	-0.007954
1817	9.0800e-01	1.8349	-7.359859	0.000351	3.506313	0.593986	-0.007013
1818	9.0850e-01	1.8251	-7.395351	0.000355	3.549073	0.601229	-0.007099
1819	9.0900e-01	1.8131	-7.444528	0.000492	4.917391	0.833029	-0.009835
1820	9.0950e-01	1.8068	-7.460351	0.000158	1.582117	0.268018	-0.003164
1821	9.1000e-01	1.7941	-7.519363	0.000590	5.900869	0.999634	-0.011802
1822	9.1050e-01	1.7860	-7.546303	0.000269	2.693875	0.456355	-0.005388
1823	9.1100e-01	1.7758	-7.595480	0.000492	4.917391	0.833029	-0.009835
1824	9.1150e-01	1.7650	-7.621565	0.000261	2.608355	0.441867	-0.005217
1825	9.1200e-01	1.7554	-7.669887	0.000483	4.831871	0.818541	-0.009664
1826	9.1250e-01	1.7450	-7.711794	0.000419	4.190472	0.709885	-0.008381
1827	9.1300e-01	1.7342	-7.752846	0.000410	4.104952	0.695398	-0.008210
1828	9.1350e-01	1.7245	-7.795181	0.000423	4.233232	0.717129	-0.008467
1829	9.1400e-01	1.7159	-7.821694	0.000265	2.651115	0.449111	-0.005303
1830	9.1450e-01	1.7049	-7.861463	0.000398	3.976672	0.673667	-0.007954
1831	9.1500e-01	1.6959	-7.912350	0.000509	5.088430	0.862003	-0.010177
1832	9.1550e-01	1.6866	-7.943139	0.000308	3.078714	0.521548	-0.006158
1833	9.1600e-01	1.6739	-7.979488	0.000363	3.634593	0.615717	-0.007270
1834	9.1650e-01	1.6653	-8.033368	0.000539	5.387750	0.912709	-0.010776
1835	9.1700e-01	1.6555	-8.059881	0.000265	2.651115	0.449111	-0.005303
1836	9.1750e-01	1.6461	-8.113762	0.000539	5.387750	0.912709	-0.010776
1837	9.1800e-01	1.6364	-8.138137	0.000244	2.437315	0.412892	-0.004875
1838	9.1850e-01	1.6252	-8.174912	0.000368	3.677353	0.622960	-0.007355
1839	9.1900e-01	1.6154	-8.207840	0.000329	3.292514	0.557767	-0.006585
1840	9.1950e-01	1.6047	-8.251457	0.000436	4.361512	0.738860	-0.008724
1841	9.2000e-01	1.5941	-8.307904	0.000564	5.644309	0.956172	-0.011289
1842	9.2050e-01	1.5839	-8.330996	0.000231	2.309036	0.391161	-0.004618
1843	9.2100e-01	1.5758	-8.379745	0.000487	4.874631	0.825785	-0.009750
1844	9.2150e-01	1.5685	-8.436191	0.000564	5.644309	0.956172	-0.011289
1845	9.2200e-01	1.5572	-8.443033	0.000068	0.684159	0.115900	-0.001368
1846	9.2250e-01	1.5471	-8.474678	0.000316	3.164234	0.536036	-0.006329
1847	9.2300e-01	1.5337	-8.522999	0.000483	4.831871	0.818541	-0.009664
1848	9.2350e-01	1.5250	-8.570466	0.000475	4.746351	0.804054	-0.009493
1849	9.2400e-01	1.5152	-8.612801	0.000423	4.233232	0.717129	-0.008467
1850	9.2450e-01	1.5073	-8.643590	0.000308	3.078714	0.521548	-0.006158
1851	9.2500e-01	1.4948	-8.692767	0.000492	4.917391	0.833029	-0.009835
1852	9.2550e-01	1.4809	-8.709444	0.000167	1.667637	0.282505	-0.003335
1853	9.2600e-01	1.4768	-8.770594	0.000611	6.114668	1.035853	-0.012230
1854	9.2650e-01	1.4642	-8.824475	0.000539	5.387750	0.912709	-0.010776
1855	9.2700e-01	1.4556	-8.847567	0.000231	2.309036	0.391161	-0.004618
1856	9.2750e-01	1.4463	-8.909573	0.000620	6.200188	1.050340	-0.012401
1857	9.2800e-01	1.4350	-8.940789	0.000312	3.121474	0.528792	-0.006243
1858	9.2850e-01	1.4275	-8.973289	0.000325	3.249754	0.550523	-0.006500
1859	9.2900e-01	1.4156	-9.021183	0.000479	4.789111	0.811297	-0.009579
1860	9.2950e-01	1.4035	-9.062662	0.000415	4.147712	0.702641	-0.008296
1861	9.3000e-01	1.3942	-9.108418	0.000458	4.575311	0.775079	-0.009151
1862	9.3050e-01	1.3846	-9.131082	0.000227	2.266276	0.383917	-0.004533
1863	9.3100e-01	1.3751	-9.170424	0.000393	3.933912	0.666423	-0.007868
1864	9.3150e-01	1.3663	-9.206345	0.000359	3.591833	0.608473	-0.007184
1865	9.3200e-01	1.3560	-9.257660	0.000513	5.131190	0.869247	-0.010263
1866	9.3250e-01	1.3470	-9.291014	0.000334	3.335274	0.565011	-0.006671
1867	9.3300e-01	1.3347	-9.334632	0.000436	4.361512	0.738860	-0.008724
1868	9.3350e-01	1.3262	-9.354731	0.000201	2.009716	0.340455	-0.004020
1869	9.3400e-01	1.3148	-9.416309	0.000616	6.157428	1.043097	-0.012316
1870	9.3450e-01	1.3041	-9.448808	0.000325	3.249754	0.550523	-0.006500
1871	9.3500e-01	1.2978	-9.497985	0.000492	4.917391	0.833029	-0.009835
1872	9.3550e-01	1.2875	-9.538182	0.000402	4.019432	0.680910	-0.008039
1873	9.3600e-01	1.2741	-9.585648	0.000475	4.746351	0.804054	-0.009493
1874	9.3650e-01	1.2650	-9.607457	0.000218	2.180756	0.369430	-0.004362
1875	9.3700e-01	1.2516	-9.649364	0.000419	4.190472	0.709885	-0.008381
1876	9.3750e-01	1.2443	-9.682291	0.000329	3.292514	0.557767	-0.006585
1877	9.3800e-01	1.2355	-9.728903	0.000466	4.660831	0.789566	-0.009322
1878	9.3850e-01	1.2251	-9.771665	0.000428	4.275992	0.724373	-0.008553
1879	9.3900e-01	1.2164	-9.813145	0.000415	4.147712	0.702641	-0.008296
1880	9.3950e-01	1.2061	-9.856763	0.000436	4.361512	0.738860	-0.008724
1881	9.4000e-01	1.1952	-9.893111	0.000363	3.634593	0.615717	-0.007270
1882	9.4050e-01	1.1868	-9.942288	0.000492	4.917391	0.833029	-0.009835
1883	9.4100e-01	1.1778	-9.958110	0.000158	1.582117	0.268018	-0.003164
1884	9.4150e-01	1.1639	-10.005576	0.000475	4.746351	0.804054	-0.009493
1885	9.4200e-01	1.1575	-10.037648	0.000321	3.206994	0.543279	-0.006414
1886	9.4250e-01	1.1482	-10.094095	0.000564	5.644309	0.956172	-0.011289
1887	9.4300e-01	1.1382	-10.142416	0.000483	4.831871	0.818541	-0.009664
1888	9.4350e-01	1.1263	-10.168929	0.000265	2.651115	0.449111	-0.005303
1889	9.4400e-01	1.1169	-10.217678	0.000487	4.874631	0.825785	-0.009750
1890	9.4450e-01	1.1061	-10.258303	0.000406	4.062192	0.688154	-0.008125
1891	9.4500e-01	1.0976	-10.284815	0.000265	2.651115	0.449111	-0.005303
1892	9.4550e-01	1.0866	-10.347676	0.000629	6.285708	1.064828	-0.012572
1893	9.4600e-01	1.0789	-10.376327	0.000286	2.864914	0.485330	-0.005730
1894	9.4650e-01	1.0670	-10.410110	0.000338	3.378033	0.572254	-0.006756
1895	9.4700e-01	1.0551	-10.455866	0.000458	4.575311	0.775079	-0.009151
1896	9.4750e-01	1.0458	-10.492214	0.000363	3.634593	0.615717	-0.007270
1897	9.4800e-01	1.0372	-10.546950	0.000547	5.473269	0.927197	-0.010947
1898	9.4850e-01	1.0252	-10.584581	0.000376	3.762873	0.637448	-0.007526
1899	9.4900e-01	1.0140	-10.615797	0.000312	3.121474	0.528792	-0.006243
1900	9.4950e-01	1.0018	-10.665402	0.000496	4.960150	0.840272	-0.009921
1901	9.5000e-01	0.9959	-10.705171	0.000398	3.976672	0.673667	-0.007954
1902	9.5050e-01	0.9865	-10.757341	0.000522	5.216710	0.883735	-0.010434
1903	9.5100e-01	0.9758	-10.784709	0.000274	2.736635	0.463598	-0.005474
1904	9.5150e-01	0.9651	-10.833459	0.000487	4.874631	0.825785	-0.009750
1905	9.5200e-01	0.9557	-10.856123	0.000227	2.266276	0.383917	-0.004533
1906	9.5250e-01	0.9451	-10.907438	0.000513	5.131190	0.869247	-0.010263
1907	9.5300e-01	0.9338	-10.969016	0.000616	6.157428	1.043097	-0.012316
1908	9.5350e-01	0.9243	-11.007502	0.000385	3.848393	0.651935	-0.007697
1909	9.5400e-01	0.9180	-11.051548	0.000440	4.404272	0.746104	-0.008809
1910	9.5450e-01	0.9045	-11.083619	0.000321	3.206994	0.543279	-0.006414
1911	9.5500e-01	0.8964	-11.116974	0.000334	3.335274	0.565011	-0.006671
1912	9.5550e-01	0.8875	-11.170000	0.000530	5.302230	0.898222	-0.010605
1913	9.5600e-01	0.8767	-11.210624	0.000406	4.062192	0.688154	-0.008125
1914	9.5650e-01	0.8643	-11.243124	0.000325	3.249754	0.550523	-0.006500
1915	9.5700e-01	0.8528	-11.286314	0.000432	4.318752	0.731616	-0.008638
1916	9.5750e-01	0.8455	-11.336774	0.000505	5.045670	0.854760	-0.010092
1917	9.5800e-01	0.8374	-11.376543	0.000398	3.976672	0.673667	-0.007954
1918	9.5850e-01	0.8278	-11.397924	0.000214	2.137996	0.362186	-0.004276
1919	9.5900e-01	0.8137	-11.473186	0.000753	7.525745	1.274896	-0.015052
1920	9.5950e-01	0.8067	-11.483877	0.000107	1.068998	0.181093	-0.002138
1921	9.6000e-01	0.7967	-11.518087	0.000342	3.420793	0.579498	-0.006842
1922	9.6050e-01	0.7870	-11.575816	0.000577	5.772589	0.977903	-0.011546
1923	9.6100e-01	0.7779	-11.623710	0.000479	4.789111	0.811297	-0.009579
1924	9.6150e-01	0.7677	-11.648085	0.000244	2.437315	0.412892	-0.004875
1925	9.6200e-01	0.7541	-11.700255	0.000522	5.216710	0.883735	-0.010434
1926	9.6250e-01	0.7455	-11.759267	0.000590	5.900869	0.999634	-0.011802
1927	9.6300e-01	0.7385	-11.799037	0.000398	3.976672	0.673667	-0.007954
1928	9.6350e-01	0.7254	-11.816569	0.000175	1.753157	0.296993	-0.003507
1929	9.6400e-01	0.7124	-11.875154	0.000586	5.858109	0.992390	-0.011717
1930	9.6450e-01	0.7056	-11.914923	0.000398	3.976672	0.673667	-0.007954
1931	9.6500e-01	0.6948	-11.956830	0.000419	4.190472	0.709885	-0.008381
1932	9.6550e-01	0.6858	-11.985054	0.000282	2.822155	0.478086	-0.005645
1933	9.6600e-01	0.6755	-12.039790	0.000547	5.473269	0.927197	-0.010947
1934	9.6650e-01	0.6622	-12.097091	0.000573	5.729829	0.970659	-0.011460
1935	9.6700e-01	0.6533	-12.149689	0.000526	5.259470	0.890978	-0.010520
1936	9.6750e-01	0.6448	-12.183044	0.000334	3.335274	0.565011	-0.006671
1937	9.6800e-01	0.6353	-12.205281	0.000222	2.223516	0.376674	-0.004447
1938	9.6850e-01	0.6251	-12.245905	0.000406	4.062192	0.688154	-0.008125
1939	9.6900e-01	0.6155	-12.301924	0.000560	5.601549	0.948928	-0.011204
1940	9.6950e-01	0.6075	-12.328864	0.000269	2.693875	0.456355	-0.005388
1941	9.7000e-01	0.5958	-12.380607	0.000517	5.173950	0.876491	-0.010349
1942	9.7050e-01	0.5872	-12.410113	0.000295	2.950434	0.499817	-0.005901
1943	9.7100e-01	0.5771	-12.469553	0.000594	5.943629	1.006878	-0.011888
1944	9.7150e-01	0.5659	-12.521723	0.000522	5.216710	0.883735	-0.010434
1945	9.7200e-01	0.5578	-12.550802	0.000291	2.907674	0.492573	-0.005816
1946	9.7250e-01	0.5460	-12.598268	0.000475	4.746351	0.804054	-0.009493
1947	9.7300e-01	0.5365	-12.638893	0.000406	4.062192	0.688154	-0.008125
1948	9.7350e-01	0.5269	-12.690208	0.000513	5.131190	0.869247	-0.010263
1949	9.7400e-01	0.5150	-12.730404	0.000402	4.019432	0.680910	-0.008039
1950	9.7450e-01	0.5038	-12.761621	0.000312	3.121474	0.528792	-0.006243
1951	9.7500e-01	0.4962	-12.819350	0.000577	5.772589	0.977903	-0.011546
1952	9.7550e-01	0.4855	-12.871521	0.000522	5.216710	0.883735	-0.010434
1953	9.7600e-01	0.4750	-12.896751	0.000252	2.522835	0.427380	-0.005046
1954	9.7650e-01	0.4655	-12.918132	0.000214	2.137996	0.362186	-0.004276
1955	9.7700e-01	0.4545	-12.967736	0.000496	4.960150	0.840272	-0.009921
1956	9.7750e-01	0.4452	-13.025893	0.000582	5.815349	0.985147	-0.011631
1957	9.7800e-01	0.4358	-13.050268	0.000244	2.437315	0.412892	-0.004875
1958	9.7850e-01	0.4243	-13.101583	0.000513	5.131190	0.869247	-0.010263
1959	9.7900e-01	0.4169	-13.154181	0.000526	5.259470	0.890978	-0.010520
1960	9.7950e-01	0.4054	-13.190102	0.000359	3.591833	0.608473	-0.007184
1961	9.8000e-01	0.3959	-13.252535	0.000624	6.242948	1.057584	-0.012487
1962	9.8050e-01	0.3867	-13.276482	0.000239	2.394555	0.405649	-0.004789
1963	9.8100e-01	0.3770	-13.305133	0.000286	2.864914	0.485330	-0.005730
1964	9.8150e-01	0.3696	-13.359869	0.000547	5.473269	0.927197	-0.010947
1965	9.8200e-01	0.3555	-13.426578	0.000667	6.670547	1.130021	-0.013342
1966	9.8250e-01	0.3435	-13.464209	0.000376	3.762873	0.637448	-0.007526
1967	9.8300e-01	0.3355	-13.520656	0.000564	5.644309	0.956172	-0.011289
1968	9.8350e-01	0.3244	-13.567267	0.000466	4.660831	0.789566	-0.009322
1969	9.8400e-01	0.3141	-13.587793	0.000205	2.052476	0.347699	-0.004105
1970	9.8450e-01	0.3052	-13.631839	0.000440	4.404272	0.746104	-0.008809
1971	9.8500e-01	0.2958	-13.665621	0.000338	3.378033	0.572254	-0.006756
1972	9.8550e-01	0.2866	-13.695982	0.000304	3.035954	0.514305	-0.006072
1973	9.8600e-01	0.2763	-13.755422	0.000594	5.943629	1.006878	-0.011888
1974	9.8650e-01	0.2643	-13.811869	0.000564	5.644309	0.956172	-0.011289
1975	9.8700e-01	0.2576	-13.840520	0.000286	2.864914	0.485330	-0.005730
1976	9.8750e-01	0.2472	-13.885420	0.000449	4.489791	0.760591	-0.008980
1977	9.8800e-01	0.2358	-13.928610	0.000432	4.318752	0.731616	-0.008638
1978	9.8850e-01	0.2246	-13.979070	0.000505	5.045670	0.854760	-0.010092
1979	9.8900e-01	0.2148	-14.038938	0.000599	5.986388	1.014122	-0.011974
1980	9.8950e-01	0.2056	-14.068016	0.000291	2.907674	0.492573	-0.005816
1981	9.9000e-01	0.1961	-14.109924	0.000419	4.190472	0.709885	-0.008381
1982	9.9050e-01	0.1848	-14.156107	0.000462	4.618071	0.782322	-0.009237
1983	9.9100e-01	0.1767	-14.214264	0.000582	5.815349	0.985147	-0.011631
1984	9.9150e-01	0.1650	-14.233080	0.000188	1.881436	0.318724	-0.003763
1985	9.9200e-01	0.1556	-14.275415	0.000423	4.233232	0.717129	-0.008467
1986	9.9250e-01	0.1445	-14.340414	0.000650	6.499507	1.101046	-0.013000
1987	9.9300e-01	0.1346	-14.363078	0.000227	2.266276	0.383917	-0.004533
1988	9.9350e-01	0.1230	-14.398143	0.000351	3.506313	0.593986	-0.007013
1989	9.9400e-01	0.1137	-14.447320	0.000492	4.917391	0.833029	-0.009835
1990	9.9450e-01	0.1067	-14.514885	0.000676	6.756067	1.144509	-0.013513
1991	9.9500e-01	0.0967	-14.534983	0.000201	2.009716	0.340455	-0.004020
1992	9.9550e-01	0.0830	-14.614949	0.000800	7.996105	1.354577	-0.015993
1993	9.9600e-01	0.0756	-14.635047	0.000201	2.009716	0.340455	-0.004020
1994	9.9650e-01	0.0649	-14.683797	0.000487	4.874631	0.825785	-0.009750
1995	9.9700e-01	0.0554	-14.738533	0.000547	5.473269	0.927197	-0.010947
1996	9.9750e-01	0.0460	-14.769322	0.000308	3.078714	0.521548	-0.006158
1997	9.9800e-01	0.0356	-14.818071	0.000487	4.874631	0.825785	-0.009750
1998	9.9850e-01	0.0236	-14.859551	0.000415	4.147712	0.702641	-0.008296
1999	9.9900e-01	0.0134	-14.910438	0.000509	5.088430	0.862003	-0.010177
2000	9.9950e-01	0.0089	-14.945503	0.000351	3.506313	0.593986	-0.007013
2001	1.0000e+00	-0.0050	-14.994253	0.000351	3.506313	0.593986	-0.009750

PMax (uC/cm2):	3.22e+01
Pr (uC/cm2):	1.12e+00
-Pr (uC/cm2):	0.00e+00
PLoss (uC/cm2):	0.00e+00
C (Max-Eff) (nF):	3.22e-01
K (Eff):	5.46e+02
Vert. (+/-Pr) Shift (uC/cm2):	5.61e-01
Offset (uC/cm2):	1.61e+01

A (Loop Area - uC/cm2·Volts):	-1.22e-02



Hysteresis Version: 5.48.1 - Radiant Technologies, Inc., 1999 - 9/12/24

