»»»»»»»»»»»»»»»»»»»»»»»»»»»»»»»»»»»» Hysteresis ««««««««««««««««««««««««««««««««««««
»»»  Executed Version:	5.48.1
»»»  Vision Version:	5.48.4 (R)
»»»  Vision Compiled:	9/18/24
»»»  Driver Version:	5.47.0
»»»  Windows Version:	Windows 8 or 8.1
»»»  Processor Information:	x86 (AMD or Intel) - 32 Processors
»»»  Tester Name:	PMF21124-494 (100V)
»»»  Tester S/N:	PMF21124-494
»»»  Internal Amp Type:	100V RevK 270k
»»»  Internal Amp S/N:	iAB2-596/K     
»»»  Execution Count:	1
»»»»»»»»»»»»»»»»»»»»»»»»»»»»»»»»»»»»»»»»»»««««««««««««««««««««««««««««««««««««««««««

Stored:	6/30/2025 - 12:25:25
Configured:	06/30/25 10:19:58 AM
Executed:	06/30/25 12:25:03 PM

»»»»»»»»»»»»»»»»»»»»»»»»»»»»»»»»»»» Sample Info ««««««««««««««««««««««««««««««««««««
Sample Name:	
Lot Name:	
Wafer Name:	
Die Row/Column:	0/0
Capacitor Number:	0
Sample Area (cm2):	1.00e-04
Sample Thickness (microns):	1.50e-01

Amplifier:	Internal

»»»»»»»»»»»»»»»»»»»»»»»»»»»»»»»»»»» Tester Info «««««««««««««««««««««««««««««««««««
Tester Name:	PMF21124-494 (100V)
Tester Serial Number:	PMF21124-494
Return Signal Amp. Level:	1.79 [Index: 2]

»»»»»»»»»»»»»»»»»»»»»»»»»»»»»»»» Hysteresis Info ««««««««««««««««««««««««««««««««««
Task Name:	Hyst-1804
Volts:	10.00
Field:	666.67 (kV/cm)
DCBias:	0.00
DCField:	0.00 (kV/cm)
Hysteresis Period (ms):	1.00e+00
Preset:	Enabled
Preset Delay (ms):	1.00e+03
Profile:	Standard Monopolar

»»»»»»»»»»»»»»»»»»»»»»»»»»»»»»»»»»»»»» Data «««««««««««««««««««««««««««««««««««««««
Points:	2001

Valid Data

Point	Time (ms)	Drive Voltage	Measured Polarization (uC/cm2)	Capacitance (uF)	Normalized Capacitance (uF/cm2)	Dielectric Constant	Instantaneous Current (mA)
   1	0.0000e+00	-0.0035	-18.575828	0.000817	8.166677	1.383473	0.016335
   2	5.0000e-04	0.0075	-18.494152	0.000817	8.166677	1.383473	0.016335
   3	1.0000e-03	0.0167	-18.431718	0.000624	6.242591	1.057524	0.012487
   4	1.5000e-03	0.0272	-18.399647	0.000321	3.206810	0.543248	0.006414
   5	2.0000e-03	0.0368	-18.372278	0.000274	2.736478	0.463572	0.005474
   6	2.5000e-03	0.0494	-18.294023	0.000782	7.824617	1.325526	0.015651
   7	3.0000e-03	0.0589	-18.245274	0.000487	4.874352	0.825738	0.009750
   8	3.5000e-03	0.0676	-18.211491	0.000338	3.377840	0.572222	0.006756
   9	4.0000e-03	0.0768	-18.144354	0.000671	6.712923	1.137200	0.013427
  10	4.5000e-03	0.0859	-18.123401	0.000210	2.095116	0.354922	0.004191
  11	5.0000e-03	0.0953	-18.057974	0.000654	6.541893	1.108227	0.013085
  12	5.5000e-03	0.1064	-18.021626	0.000363	3.634385	0.615681	0.007270
  13	6.0000e-03	0.1143	-17.965179	0.000564	5.643986	0.956117	0.011289
  14	6.5000e-03	0.1275	-17.889917	0.000753	7.525315	1.274823	0.015052
  15	7.0000e-03	0.1361	-17.862549	0.000274	2.736478	0.463572	0.005474
  16	7.5000e-03	0.1459	-17.812517	0.000500	5.002624	0.847467	0.010006
  17	8.0000e-03	0.1541	-17.739821	0.000727	7.268770	1.231363	0.014539
  18	8.5000e-03	0.1685	-17.699624	0.000402	4.019202	0.680871	0.008039
  19	9.0000e-03	0.1760	-17.641895	0.000577	5.772259	0.977847	0.011546
  20	9.5000e-03	0.1864	-17.608112	0.000338	3.377840	0.572222	0.006756
  21	1.0000e-02	0.1953	-17.573047	0.000351	3.506113	0.593952	0.007013
  22	1.0500e-02	0.2082	-17.514890	0.000582	5.815016	0.985090	0.011631
  23	1.1000e-02	0.2145	-17.458016	0.000569	5.686744	0.963360	0.011375
  24	1.1500e-02	0.2247	-17.407983	0.000500	5.002624	0.847467	0.010006
  25	1.2000e-02	0.2373	-17.356668	0.000513	5.130897	0.869197	0.010263
  26	1.2500e-02	0.2444	-17.304926	0.000517	5.173654	0.876441	0.010349
  27	1.3000e-02	0.2579	-17.270288	0.000346	3.463355	0.586708	0.006928
  28	1.3500e-02	0.2665	-17.219828	0.000505	5.045382	0.854711	0.010092
  29	1.4000e-02	0.2760	-17.163382	0.000564	5.643986	0.956117	0.011289
  30	1.4500e-02	0.2852	-17.138152	0.000252	2.522691	0.427355	0.005046
  31	1.5000e-02	0.2960	-17.072298	0.000658	6.584651	1.115470	0.013171
  32	1.5500e-02	0.3068	-17.012002	0.000603	6.028803	1.021307	0.012059
  33	1.6000e-02	0.3165	-16.971806	0.000402	4.019202	0.680871	0.008039
  34	1.6500e-02	0.3262	-16.922201	0.000496	4.959867	0.840224	0.009921
  35	1.7000e-02	0.3336	-16.858057	0.000641	6.413621	1.086497	0.012829
  36	1.7500e-02	0.3442	-16.831117	0.000269	2.693721	0.456329	0.005388
  37	1.8000e-02	0.3580	-16.775526	0.000556	5.558471	0.941631	0.011118
  38	1.8500e-02	0.3699	-16.709671	0.000658	6.584651	1.115470	0.013171
  39	1.9000e-02	0.3761	-16.664343	0.000453	4.532292	0.767791	0.009066
  40	1.9500e-02	0.3878	-16.631416	0.000329	3.292325	0.557735	0.006585
  41	2.0000e-02	0.3964	-16.550595	0.000808	8.081162	1.368986	0.016164
  42	2.0500e-02	0.4123	-16.518523	0.000321	3.206810	0.543248	0.006414
  43	2.1000e-02	0.4175	-16.476188	0.000423	4.232990	0.717088	0.008467
  44	2.1500e-02	0.4271	-16.420169	0.000560	5.601229	0.948874	0.011204
  45	2.2000e-02	0.4370	-16.391091	0.000291	2.907508	0.492545	0.005816
  46	2.2500e-02	0.4451	-16.340203	0.000509	5.088139	0.861954	0.010177
  47	2.3000e-02	0.4576	-16.291026	0.000492	4.917109	0.832981	0.009835
  48	2.3500e-02	0.4662	-16.232869	0.000582	5.815016	0.985090	0.011631
  49	2.4000e-02	0.4764	-16.189679	0.000432	4.318505	0.731574	0.008638
  50	2.4500e-02	0.4858	-16.128101	0.000616	6.157076	1.043037	0.012316
  51	2.5000e-02	0.4976	-16.079779	0.000483	4.831594	0.818494	0.009664
  52	2.5500e-02	0.5050	-16.040438	0.000393	3.933687	0.666385	0.007868
  53	2.6000e-02	0.5132	-15.988268	0.000522	5.216411	0.883684	0.010434
  54	2.6500e-02	0.5264	-15.941656	0.000466	4.660564	0.789521	0.009322
  55	2.7000e-02	0.5367	-15.899322	0.000423	4.232990	0.717088	0.008467
  56	2.7500e-02	0.5496	-15.865112	0.000342	3.420598	0.579465	0.006842
  57	2.8000e-02	0.5548	-15.808665	0.000564	5.643986	0.956117	0.011289
  58	2.8500e-02	0.5688	-15.743238	0.000654	6.541893	1.108227	0.013085
  59	2.9000e-02	0.5781	-15.704752	0.000385	3.848172	0.651898	0.007697
  60	2.9500e-02	0.5885	-15.650871	0.000539	5.387441	0.912657	0.010776
  61	3.0000e-02	0.5972	-15.593997	0.000569	5.686744	0.963360	0.011375
  62	3.0500e-02	0.6093	-15.562780	0.000312	3.121295	0.528762	0.006243
  63	3.1000e-02	0.6168	-15.500775	0.000620	6.199833	1.050280	0.012401
  64	3.1500e-02	0.6271	-15.472552	0.000282	2.821993	0.478059	0.005645
  65	3.2000e-02	0.6380	-15.398572	0.000740	7.397043	1.253093	0.014796
  66	3.2500e-02	0.6470	-15.349823	0.000487	4.874352	0.825738	0.009750
  67	3.3000e-02	0.6562	-15.319462	0.000304	3.035780	0.514275	0.006072
  68	3.3500e-02	0.6651	-15.245055	0.000744	7.439800	1.260336	0.014881
  69	3.4000e-02	0.6775	-15.221535	0.000235	2.351661	0.398382	0.004704
  70	3.4500e-02	0.6876	-15.171503	0.000500	5.002624	0.847467	0.010006
  71	3.5000e-02	0.6975	-15.113774	0.000577	5.772259	0.977847	0.011546
  72	3.5500e-02	0.7083	-15.077426	0.000363	3.634385	0.615681	0.007270
  73	3.6000e-02	0.7154	-15.011144	0.000663	6.627408	1.122713	0.013256
  74	3.6500e-02	0.7256	-14.958974	0.000522	5.216411	0.883684	0.010434
  75	3.7000e-02	0.7355	-14.924764	0.000342	3.420598	0.579465	0.006842
  76	3.7500e-02	0.7445	-14.879863	0.000449	4.489534	0.760548	0.008980
  77	3.8000e-02	0.7576	-14.825127	0.000547	5.472956	0.927144	0.010947
  78	3.8500e-02	0.7654	-14.783220	0.000419	4.190232	0.709845	0.008381
  79	3.9000e-02	0.7754	-14.744733	0.000385	3.848172	0.651898	0.007697
  80	3.9500e-02	0.7858	-14.683155	0.000616	6.157076	1.043037	0.012316
  81	4.0000e-02	0.7956	-14.624998	0.000582	5.815016	0.985090	0.011631
  82	4.0500e-02	0.8071	-14.579242	0.000458	4.575049	0.775034	0.009151
  83	4.1000e-02	0.8154	-14.534342	0.000449	4.489534	0.760548	0.008980
  84	4.1500e-02	0.8253	-14.485592	0.000487	4.874352	0.825738	0.009750
  85	4.2000e-02	0.8380	-14.455231	0.000304	3.035780	0.514275	0.006072
  86	4.2500e-02	0.8464	-14.395363	0.000599	5.986046	1.014064	0.011974
  87	4.3000e-02	0.8573	-14.357305	0.000381	3.805415	0.644655	0.007612
  88	4.3500e-02	0.8649	-14.308556	0.000487	4.874352	0.825738	0.009750
  89	4.4000e-02	0.8759	-14.260234	0.000483	4.831594	0.818494	0.009664
  90	4.4500e-02	0.8856	-14.206353	0.000539	5.387441	0.912657	0.010776
  91	4.5000e-02	0.8962	-14.150762	0.000556	5.558471	0.941631	0.011118
  92	4.5500e-02	0.9063	-14.107999	0.000428	4.275747	0.724331	0.008553
  93	4.6000e-02	0.9193	-14.043428	0.000646	6.456378	1.093740	0.012914
  94	4.6500e-02	0.9265	-14.021619	0.000218	2.180631	0.369409	0.004362
  95	4.7000e-02	0.9376	-13.956620	0.000650	6.499136	1.100983	0.013000
  96	4.7500e-02	0.9470	-13.920272	0.000363	3.634385	0.615681	0.007270
  97	4.8000e-02	0.9603	-13.866819	0.000534	5.344684	0.905414	0.010691
  98	4.8500e-02	0.9668	-13.830470	0.000363	3.634385	0.615681	0.007270
  99	4.9000e-02	0.9775	-13.763333	0.000671	6.712923	1.137200	0.013427
 100	4.9500e-02	0.9882	-13.723992	0.000393	3.933687	0.666385	0.007868
 101	5.0000e-02	1.0006	-13.668828	0.000552	5.515714	0.934387	0.011033
 102	5.0500e-02	1.0077	-13.643598	0.000252	2.522691	0.427355	0.005046
 103	5.1000e-02	1.0175	-13.585441	0.000582	5.815016	0.985090	0.011631
 104	5.1500e-02	1.0279	-13.538402	0.000470	4.703322	0.796764	0.009408
 105	5.2000e-02	1.0352	-13.487515	0.000509	5.088139	0.861954	0.010177
 106	5.2500e-02	1.0471	-13.444325	0.000432	4.318505	0.731574	0.008638
 107	5.3000e-02	1.0557	-13.390872	0.000534	5.344684	0.905414	0.010691
 108	5.3500e-02	1.0651	-13.343833	0.000470	4.703322	0.796764	0.009408
 109	5.4000e-02	1.0740	-13.301926	0.000419	4.190232	0.709845	0.008381
 110	5.4500e-02	1.0883	-13.255314	0.000466	4.660564	0.789521	0.009322
 111	5.5000e-02	1.0977	-13.206993	0.000483	4.831594	0.818494	0.009664
 112	5.5500e-02	1.1060	-13.164658	0.000423	4.232990	0.717088	0.008467
 113	5.6000e-02	1.1172	-13.127454	0.000372	3.719900	0.630168	0.007441
 114	5.6500e-02	1.1256	-13.062883	0.000646	6.456378	1.093740	0.012914
 115	5.7000e-02	1.1372	-13.027390	0.000355	3.548870	0.601195	0.007099
 116	5.7500e-02	1.1447	-12.972227	0.000552	5.515714	0.934387	0.011033
 117	5.8000e-02	1.1552	-12.921339	0.000509	5.088139	0.861954	0.010177
 118	5.8500e-02	1.1667	-12.898675	0.000227	2.266146	0.383896	0.004533
 119	5.9000e-02	1.1758	-12.828117	0.000705	7.054983	1.195146	0.014112
 120	5.9500e-02	1.1856	-12.783644	0.000445	4.446777	0.753304	0.008895
 121	6.0000e-02	1.1978	-12.738315	0.000453	4.532292	0.767791	0.009066
 122	6.0500e-02	1.2070	-12.685290	0.000530	5.301926	0.898171	0.010605
 123	6.1000e-02	1.2183	-12.619436	0.000658	6.584651	1.115470	0.013171
 124	6.1500e-02	1.2268	-12.587791	0.000316	3.164053	0.536005	0.006329
 125	6.2000e-02	1.2376	-12.553154	0.000346	3.463355	0.586708	0.006928
 126	6.2500e-02	1.2469	-12.506970	0.000462	4.617807	0.782278	0.009237
 127	6.3000e-02	1.2562	-12.469339	0.000376	3.762657	0.637411	0.007526
 128	6.3500e-02	1.2663	-12.416314	0.000530	5.301926	0.898171	0.010605
 129	6.4000e-02	1.2756	-12.362433	0.000539	5.387441	0.912657	0.010776
 130	6.4500e-02	1.2867	-12.323947	0.000385	3.848172	0.651898	0.007697
 131	6.5000e-02	1.2982	-12.268783	0.000552	5.515714	0.934387	0.011033
 132	6.5500e-02	1.3068	-12.216613	0.000522	5.216411	0.883684	0.010434
 133	6.6000e-02	1.3168	-12.173423	0.000432	4.318505	0.731574	0.008638
 134	6.6500e-02	1.3262	-12.124673	0.000487	4.874352	0.825738	0.009750
 135	6.7000e-02	1.3370	-12.094739	0.000299	2.993023	0.507032	0.005987
 136	6.7500e-02	1.3458	-12.038293	0.000564	5.643986	0.956117	0.011289
 137	6.8000e-02	1.3547	-12.019905	0.000184	1.838571	0.311462	0.003678
 138	6.8500e-02	1.3658	-11.950630	0.000693	6.926710	1.173416	0.013855
 139	6.9000e-02	1.3736	-11.899742	0.000509	5.088139	0.861954	0.010177
 140	6.9500e-02	1.3858	-11.865105	0.000346	3.463355	0.586708	0.006928
 141	7.0000e-02	1.3959	-11.827901	0.000372	3.719900	0.630168	0.007441
 142	7.0500e-02	1.4061	-11.783428	0.000445	4.446777	0.753304	0.008895
 143	7.1000e-02	1.4165	-11.729120	0.000543	5.430199	0.919901	0.010862
 144	7.1500e-02	1.4293	-11.683364	0.000458	4.575049	0.775034	0.009151
 145	7.2000e-02	1.4325	-11.632049	0.000513	5.130897	0.869197	0.010263
 146	7.2500e-02	1.4452	-11.595273	0.000368	3.677143	0.622925	0.007355
 147	7.3000e-02	1.4566	-11.523432	0.000718	7.183255	1.216876	0.014368
 148	7.3500e-02	1.4673	-11.475966	0.000475	4.746079	0.804008	0.009493
 149	7.4000e-02	1.4788	-11.440900	0.000351	3.506113	0.593952	0.007013
 150	7.4500e-02	1.4867	-11.393862	0.000470	4.703322	0.796764	0.009408
 151	7.5000e-02	1.4996	-11.348106	0.000458	4.575049	0.775034	0.009151
 152	7.5500e-02	1.5066	-11.308764	0.000393	3.933687	0.666385	0.007868
 153	7.6000e-02	1.5173	-11.250180	0.000586	5.857774	0.992334	0.011717
 154	7.6500e-02	1.5266	-11.221101	0.000291	2.907508	0.492545	0.005816
 155	7.7000e-02	1.5349	-11.160806	0.000603	6.028803	1.021307	0.012059
 156	7.7500e-02	1.5456	-11.124030	0.000368	3.677143	0.622925	0.007355
 157	7.8000e-02	1.5576	-11.072715	0.000513	5.130897	0.869197	0.010263
 158	7.8500e-02	1.5654	-11.042354	0.000304	3.035780	0.514275	0.006072
 159	7.9000e-02	1.5755	-10.993177	0.000492	4.917109	0.832981	0.009835
 160	7.9500e-02	1.5869	-10.931171	0.000620	6.199833	1.050280	0.012401
 161	8.0000e-02	1.5961	-10.892257	0.000389	3.890930	0.659141	0.007783
 162	8.0500e-02	1.6038	-10.849067	0.000432	4.318505	0.731574	0.008638
 163	8.1000e-02	1.6141	-10.786634	0.000624	6.242591	1.057524	0.012487
 164	8.1500e-02	1.6259	-10.754562	0.000321	3.206810	0.543248	0.006414
 165	8.2000e-02	1.6366	-10.736174	0.000184	1.838571	0.311462	0.003678
 166	8.2500e-02	1.6447	-10.688280	0.000479	4.788837	0.811251	0.009579
 167	8.3000e-02	1.6562	-10.636537	0.000517	5.173654	0.876441	0.010349
 168	8.3500e-02	1.6661	-10.568972	0.000676	6.755680	1.144443	0.013513
 169	8.4000e-02	1.6782	-10.537328	0.000316	3.164053	0.536005	0.006329
 170	8.4500e-02	1.6841	-10.468908	0.000684	6.841195	1.158930	0.013684
 171	8.5000e-02	1.6975	-10.456079	0.000128	1.282724	0.217299	0.002566
 172	8.5500e-02	1.7075	-10.413745	0.000423	4.232990	0.717088	0.008467
 173	8.6000e-02	1.7175	-10.335917	0.000778	7.781860	1.318283	0.015566
 174	8.6500e-02	1.7251	-10.301279	0.000346	3.463355	0.586708	0.006928
 175	8.7000e-02	1.7366	-10.254668	0.000466	4.660564	0.789521	0.009322
 176	8.7500e-02	1.7485	-10.211050	0.000436	4.361262	0.738818	0.008724
 177	8.8000e-02	1.7578	-10.177268	0.000338	3.377840	0.572222	0.006756
 178	8.8500e-02	1.7654	-10.122959	0.000543	5.430199	0.919901	0.010862
 179	8.9000e-02	1.7767	-10.093453	0.000295	2.950266	0.499789	0.005901
 180	8.9500e-02	1.7847	-10.036579	0.000569	5.686744	0.963360	0.011375
 181	9.0000e-02	1.7957	-10.002797	0.000338	3.377840	0.572222	0.006756
 182	9.0500e-02	1.8063	-9.963027	0.000398	3.976445	0.673628	0.007954
 183	9.1000e-02	1.8178	-9.908719	0.000543	5.430199	0.919901	0.010862
 184	9.1500e-02	1.8272	-9.849707	0.000590	5.900531	0.999577	0.011802
 185	9.2000e-02	1.8353	-9.817207	0.000325	3.249568	0.550492	0.006500
 186	9.2500e-02	1.8457	-9.758623	0.000586	5.857774	0.992334	0.011717
 187	9.3000e-02	1.8575	-9.731255	0.000274	2.736478	0.463572	0.005474
 188	9.3500e-02	1.8678	-9.680795	0.000505	5.045382	0.854711	0.010092
 189	9.4000e-02	1.8744	-9.629480	0.000513	5.130897	0.869197	0.010263
 190	9.4500e-02	1.8867	-9.586290	0.000432	4.318505	0.731574	0.008638
 191	9.5000e-02	1.8974	-9.542672	0.000436	4.361262	0.738818	0.008724
 192	9.5500e-02	1.9061	-9.493923	0.000487	4.874352	0.825738	0.009750
 193	9.6000e-02	1.9154	-9.449450	0.000445	4.446777	0.753304	0.008895
 194	9.6500e-02	1.9250	-9.414812	0.000346	3.463355	0.586708	0.006928
 195	9.7000e-02	1.9369	-9.390437	0.000244	2.437176	0.412869	0.004875
 196	9.7500e-02	1.9482	-9.315175	0.000753	7.525315	1.274823	0.015052
 197	9.8000e-02	1.9540	-9.267281	0.000479	4.788837	0.811251	0.009579
 198	9.8500e-02	1.9642	-9.219815	0.000475	4.746079	0.804008	0.009493
 199	9.9000e-02	1.9768	-9.172776	0.000470	4.703322	0.796764	0.009408
 200	9.9500e-02	1.9861	-9.161230	0.000115	1.154452	0.195569	0.002309
 201	1.0000e-01	1.9961	-9.110770	0.000505	5.045382	0.854711	0.010092
 202	1.0050e-01	2.0061	-9.066297	0.000445	4.446777	0.753304	0.008895
 203	1.0100e-01	2.0190	-9.029094	0.000372	3.719900	0.630168	0.007441
 204	1.0150e-01	2.0272	-8.960674	0.000684	6.841195	1.158930	0.013684
 205	1.0200e-01	2.0355	-8.934161	0.000265	2.650963	0.449085	0.005303
 206	1.0250e-01	2.0459	-8.888833	0.000453	4.532292	0.767791	0.009066
 207	1.0300e-01	2.0554	-8.842649	0.000462	4.617807	0.782278	0.009237
 208	1.0350e-01	2.0660	-8.807584	0.000351	3.506113	0.593952	0.007013
 209	1.0400e-01	2.0756	-8.758835	0.000487	4.874352	0.825738	0.009750
 210	1.0450e-01	2.0880	-8.712651	0.000462	4.617807	0.782278	0.009237
 211	1.0500e-01	2.0987	-8.661764	0.000509	5.088139	0.861954	0.010177
 212	1.0550e-01	2.1072	-8.595909	0.000658	6.584651	1.115470	0.013171
 213	1.0600e-01	2.1181	-8.582653	0.000133	1.325482	0.224543	0.002651
 214	1.0650e-01	2.1268	-8.515088	0.000676	6.755680	1.144443	0.013513
 215	1.0700e-01	2.1373	-8.505681	0.000094	0.940664	0.159353	0.001882
 216	1.0750e-01	2.1475	-8.456076	0.000496	4.959867	0.840224	0.009921
 217	1.0800e-01	2.1553	-8.406044	0.000500	5.002624	0.847467	0.010006
 218	1.0850e-01	2.1674	-8.356012	0.000500	5.002624	0.847467	0.010006
 219	1.0900e-01	2.1764	-8.317953	0.000381	3.805415	0.644655	0.007612
 220	1.0950e-01	2.1863	-8.260224	0.000577	5.772259	0.977847	0.011546
 221	1.1000e-01	2.1982	-8.227296	0.000329	3.292325	0.557735	0.006585
 222	1.1050e-01	2.2073	-8.184962	0.000423	4.232990	0.717088	0.008467
 223	1.1100e-01	2.2169	-8.109272	0.000757	7.568072	1.282066	0.015138
 224	1.1150e-01	2.2264	-8.093022	0.000162	1.624784	0.275246	0.003250
 225	1.1200e-01	2.2369	-8.058384	0.000346	3.463355	0.586708	0.006928
 226	1.1250e-01	2.2452	-8.006214	0.000522	5.216411	0.883684	0.010434
 227	1.1300e-01	2.2569	-7.956610	0.000496	4.959867	0.840224	0.009921
 228	1.1350e-01	2.2670	-7.910426	0.000462	4.617807	0.782278	0.009237
 229	1.1400e-01	2.2772	-7.885624	0.000248	2.479933	0.420112	0.004960
 230	1.1450e-01	2.2849	-7.849703	0.000359	3.591628	0.608438	0.007184
 231	1.1500e-01	2.2960	-7.801382	0.000483	4.831594	0.818494	0.009664
 232	1.1550e-01	2.3083	-7.752632	0.000487	4.874352	0.825738	0.009750
 233	1.1600e-01	2.3173	-7.702600	0.000500	5.002624	0.847467	0.010006
 234	1.1650e-01	2.3281	-7.646581	0.000560	5.601229	0.948874	0.011204
 235	1.1700e-01	2.3366	-7.612371	0.000342	3.420598	0.579465	0.006842
 236	1.1750e-01	2.3471	-7.576451	0.000359	3.591628	0.608438	0.007184
 237	1.1800e-01	2.3563	-7.510169	0.000663	6.627408	1.122713	0.013256
 238	1.1850e-01	2.3660	-7.476386	0.000338	3.377840	0.572222	0.006756
 239	1.1900e-01	2.3759	-7.448591	0.000278	2.779236	0.470815	0.005559
 240	1.1950e-01	2.3880	-7.417802	0.000308	3.078538	0.521518	0.006158
 241	1.2000e-01	2.3987	-7.351092	0.000667	6.670166	1.129957	0.013342
 242	1.2050e-01	2.4075	-7.317738	0.000334	3.335083	0.564978	0.006671
 243	1.2100e-01	2.4148	-7.262146	0.000556	5.558471	0.941631	0.011118
 244	1.2150e-01	2.4243	-7.215107	0.000470	4.703322	0.796764	0.009408
 245	1.2200e-01	2.4345	-7.186884	0.000282	2.821993	0.478059	0.005645
 246	1.2250e-01	2.4484	-7.121030	0.000658	6.584651	1.115470	0.013171
 247	1.2300e-01	2.4586	-7.107774	0.000133	1.325482	0.224543	0.002651
 248	1.2350e-01	2.4664	-7.078267	0.000295	2.950266	0.499789	0.005901
 249	1.2400e-01	2.4760	-7.012841	0.000654	6.541893	1.108227	0.013085
 250	1.2450e-01	2.4875	-6.961953	0.000509	5.088139	0.861954	0.010177
 251	1.2500e-01	2.4960	-6.915770	0.000462	4.617807	0.782278	0.009237
 252	1.2550e-01	2.5081	-6.884125	0.000316	3.164053	0.536005	0.006329
 253	1.2600e-01	2.5165	-6.829817	0.000543	5.430199	0.919901	0.010862
 254	1.2650e-01	2.5261	-6.799456	0.000304	3.035780	0.514275	0.006072
 255	1.2700e-01	2.5380	-6.763963	0.000355	3.548870	0.601195	0.007099
 256	1.2750e-01	2.5506	-6.698964	0.000650	6.499136	1.100983	0.013000
 257	1.2800e-01	2.5568	-6.680576	0.000184	1.838571	0.311462	0.003678
 258	1.2850e-01	2.5655	-6.617287	0.000633	6.328106	1.072010	0.012658
 259	1.2900e-01	2.5745	-6.596761	0.000205	2.052359	0.347679	0.004105
 260	1.2950e-01	2.5876	-6.537321	0.000594	5.943288	1.006820	0.011888
 261	1.3000e-01	2.5964	-6.512947	0.000244	2.437176	0.412869	0.004875
 262	1.3050e-01	2.6053	-6.466336	0.000466	4.660564	0.789521	0.009322
 263	1.3100e-01	2.6160	-6.413738	0.000526	5.259169	0.890927	0.010520
 264	1.3150e-01	2.6239	-6.379100	0.000346	3.463355	0.586708	0.006928
 265	1.3200e-01	2.6360	-6.353870	0.000252	2.522691	0.427355	0.005046
 266	1.3250e-01	2.6468	-6.278608	0.000753	7.525315	1.274823	0.015052
 267	1.3300e-01	2.6586	-6.272194	0.000064	0.641362	0.108650	0.001283
 268	1.3350e-01	2.6662	-6.207622	0.000646	6.456378	1.093740	0.012914
 269	1.3400e-01	2.6776	-6.171274	0.000363	3.634385	0.615681	0.007270
 270	1.3450e-01	2.6886	-6.131933	0.000393	3.933687	0.666385	0.007868
 271	1.3500e-01	2.6992	-6.070782	0.000611	6.114318	1.035794	0.012230
 272	1.3550e-01	2.7052	-6.034434	0.000363	3.634385	0.615681	0.007270
 273	1.3600e-01	2.7162	-5.992954	0.000415	4.147475	0.702601	0.008296
 274	1.3650e-01	2.7277	-5.963448	0.000295	2.950266	0.499789	0.005901
 275	1.3700e-01	2.7380	-5.912561	0.000509	5.088139	0.861954	0.010177
 276	1.3750e-01	2.7493	-5.859963	0.000526	5.259169	0.890927	0.010520
 277	1.3800e-01	2.7576	-5.819339	0.000406	4.061960	0.688115	0.008125
 278	1.3850e-01	2.7667	-5.794536	0.000248	2.479933	0.420112	0.004960
 279	1.3900e-01	2.7753	-5.762464	0.000321	3.206810	0.543248	0.006414
 280	1.3950e-01	2.7887	-5.704307	0.000582	5.815016	0.985090	0.011631
 281	1.4000e-01	2.7974	-5.652992	0.000513	5.130897	0.869197	0.010263
 282	1.4050e-01	2.8076	-5.620493	0.000325	3.249568	0.550492	0.006500
 283	1.4100e-01	2.8181	-5.570461	0.000500	5.002624	0.847467	0.010006
 284	1.4150e-01	2.8284	-5.522139	0.000483	4.831594	0.818494	0.009664
 285	1.4200e-01	2.8387	-5.502041	0.000201	2.009601	0.340436	0.004020
 286	1.4250e-01	2.8461	-5.484080	0.000180	1.795814	0.304219	0.003592
 287	1.4300e-01	2.8555	-5.423785	0.000603	6.028803	1.021307	0.012059
 288	1.4350e-01	2.8641	-5.375036	0.000487	4.874352	0.825738	0.009750
 289	1.4400e-01	2.8778	-5.327569	0.000475	4.746079	0.804008	0.009493
 290	1.4450e-01	2.8815	-5.304050	0.000235	2.351661	0.398382	0.004704
 291	1.4500e-01	2.8986	-5.248886	0.000552	5.515714	0.934387	0.011033
 292	1.4550e-01	2.9073	-5.216387	0.000325	3.249568	0.550492	0.006500
 293	1.4600e-01	2.9178	-5.163361	0.000530	5.301926	0.898171	0.010605
 294	1.4650e-01	2.9276	-5.150105	0.000133	1.325482	0.224543	0.002651
 295	1.4700e-01	2.9361	-5.097079	0.000530	5.301926	0.898171	0.010605
 296	1.4750e-01	2.9451	-5.048758	0.000483	4.831594	0.818494	0.009664
 297	1.4800e-01	2.9556	-5.000436	0.000483	4.831594	0.818494	0.009664
 298	1.4850e-01	2.9649	-4.970930	0.000295	2.950266	0.499789	0.005901
 299	1.4900e-01	2.9758	-4.921753	0.000492	4.917109	0.832981	0.009835
 300	1.4950e-01	2.9871	-4.877708	0.000440	4.404020	0.746061	0.008809
 301	1.5000e-01	2.9968	-4.833662	0.000440	4.404020	0.746061	0.008809
 302	1.5050e-01	3.0042	-4.799452	0.000342	3.420598	0.579465	0.006842
 303	1.5100e-01	3.0149	-4.765242	0.000342	3.420598	0.579465	0.006842
 304	1.5150e-01	3.0261	-4.701954	0.000633	6.328106	1.072010	0.012658
 305	1.5200e-01	3.0371	-4.679717	0.000222	2.223389	0.376652	0.004447
 306	1.5250e-01	3.0473	-4.636955	0.000428	4.275747	0.724331	0.008553
 307	1.5300e-01	3.0573	-4.586067	0.000509	5.088139	0.861954	0.010177
 308	1.5350e-01	3.0658	-4.540739	0.000453	4.532292	0.767791	0.009066
 309	1.5400e-01	3.0798	-4.512088	0.000286	2.864751	0.485302	0.005730
 310	1.5450e-01	3.0850	-4.453076	0.000590	5.900531	0.999577	0.011802
 311	1.5500e-01	3.0963	-4.430839	0.000222	2.223389	0.376652	0.004447
 312	1.5550e-01	3.1070	-4.384228	0.000466	4.660564	0.789521	0.009322
 313	1.5600e-01	3.1166	-4.347452	0.000368	3.677143	0.622925	0.007355
 314	1.5650e-01	3.1274	-4.293144	0.000543	5.430199	0.919901	0.010862
 315	1.5700e-01	3.1378	-4.262355	0.000308	3.078538	0.521518	0.006158
 316	1.5750e-01	3.1495	-4.214889	0.000475	4.746079	0.804008	0.009493
 317	1.5800e-01	3.1604	-4.172554	0.000423	4.232990	0.717088	0.008467
 318	1.5850e-01	3.1683	-4.149462	0.000231	2.308903	0.391139	0.004618
 319	1.5900e-01	3.1764	-4.093443	0.000560	5.601229	0.948874	0.011204
 320	1.5950e-01	3.1882	-4.074627	0.000188	1.881329	0.318706	0.003763
 321	1.6000e-01	3.1958	-4.029727	0.000449	4.489534	0.760548	0.008980
 322	1.6050e-01	3.2062	-3.979695	0.000500	5.002624	0.847467	0.010006
 323	1.6100e-01	3.2186	-3.960451	0.000192	1.924086	0.325949	0.003849
 324	1.6150e-01	3.2286	-3.909564	0.000509	5.088139	0.861954	0.010177
 325	1.6200e-01	3.2393	-3.847131	0.000624	6.242591	1.057524	0.012487
 326	1.6250e-01	3.2460	-3.815487	0.000316	3.164053	0.536005	0.006329
 327	1.6300e-01	3.2562	-3.778283	0.000372	3.719900	0.630168	0.007441
 328	1.6350e-01	3.2664	-3.718416	0.000599	5.986046	1.014064	0.011974
 329	1.6400e-01	3.2780	-3.689765	0.000286	2.864751	0.485302	0.005730
 330	1.6450e-01	3.2867	-3.662397	0.000274	2.736478	0.463572	0.005474
 331	1.6500e-01	3.2956	-3.610654	0.000517	5.173654	0.876441	0.010349
 332	1.6550e-01	3.3063	-3.582003	0.000286	2.864751	0.485302	0.005730
 333	1.6600e-01	3.3173	-3.540523	0.000415	4.147475	0.702601	0.008296
 334	1.6650e-01	3.3292	-3.484505	0.000560	5.601229	0.948874	0.011204
 335	1.6700e-01	3.3368	-3.445163	0.000393	3.933687	0.666385	0.007868
 336	1.6750e-01	3.3484	-3.406677	0.000385	3.848172	0.651898	0.007697
 337	1.6800e-01	3.3559	-3.376315	0.000304	3.035780	0.514275	0.006072
 338	1.6850e-01	3.3682	-3.336546	0.000398	3.976445	0.673628	0.007954
 339	1.6900e-01	3.3766	-3.299770	0.000368	3.677143	0.622925	0.007355
 340	1.6950e-01	3.3844	-3.259146	0.000406	4.061960	0.688115	0.008125
 341	1.7000e-01	3.3942	-3.211680	0.000475	4.746079	0.804008	0.009493
 342	1.7050e-01	3.4058	-3.178325	0.000334	3.335083	0.564978	0.006671
 343	1.7100e-01	3.4162	-3.125727	0.000526	5.259169	0.890927	0.010520
 344	1.7150e-01	3.4280	-3.105201	0.000205	2.052359	0.347679	0.004105
 345	1.7200e-01	3.4361	-3.048754	0.000564	5.643986	0.956117	0.011289
 346	1.7250e-01	3.4467	-3.018393	0.000304	3.035780	0.514275	0.006072
 347	1.7300e-01	3.4540	-2.973492	0.000449	4.489534	0.760548	0.008980
 348	1.7350e-01	3.4677	-2.927736	0.000458	4.575049	0.775034	0.009151
 349	1.7400e-01	3.4753	-2.898658	0.000291	2.907508	0.492545	0.005816
 350	1.7450e-01	3.4851	-2.844777	0.000539	5.387441	0.912657	0.010776
 351	1.7500e-01	3.4973	-2.803725	0.000410	4.104717	0.695358	0.008210
 352	1.7550e-01	3.5078	-2.781061	0.000227	2.266146	0.383896	0.004533
 353	1.7600e-01	3.5187	-2.737016	0.000440	4.404020	0.746061	0.008809
 354	1.7650e-01	3.5248	-2.698529	0.000385	3.848172	0.651898	0.007697
 355	1.7700e-01	3.5385	-2.670306	0.000282	2.821993	0.478059	0.005645
 356	1.7750e-01	3.5474	-2.607017	0.000633	6.328106	1.072010	0.012658
 357	1.7800e-01	3.5575	-2.586491	0.000205	2.052359	0.347679	0.004105
 358	1.7850e-01	3.5666	-2.541591	0.000449	4.489534	0.760548	0.008980
 359	1.7900e-01	3.5762	-2.501822	0.000398	3.976445	0.673628	0.007954
 360	1.7950e-01	3.5889	-2.459914	0.000419	4.190232	0.709845	0.008381
 361	1.8000e-01	3.5965	-2.426560	0.000334	3.335083	0.564978	0.006671
 362	1.8050e-01	3.6063	-2.368403	0.000582	5.815016	0.985090	0.011631
 363	1.8100e-01	3.6191	-2.336331	0.000321	3.206810	0.543248	0.006414
 364	1.8150e-01	3.6285	-2.306825	0.000295	2.950266	0.499789	0.005901
 365	1.8200e-01	3.6398	-2.261069	0.000458	4.575049	0.775034	0.009151
 366	1.8250e-01	3.6482	-2.230707	0.000304	3.035780	0.514275	0.006072
 367	1.8300e-01	3.6554	-2.184096	0.000466	4.660564	0.789521	0.009322
 368	1.8350e-01	3.6644	-2.140906	0.000432	4.318505	0.731574	0.008638
 369	1.8400e-01	3.6783	-2.093440	0.000475	4.746079	0.804008	0.009493
 370	1.8450e-01	3.6884	-2.063506	0.000299	2.993023	0.507032	0.005987
 371	1.8500e-01	3.6978	-2.050677	0.000128	1.282724	0.217299	0.002566
 372	1.8550e-01	3.7088	-1.992948	0.000577	5.772259	0.977847	0.011546
 373	1.8600e-01	3.7170	-1.950185	0.000428	4.275747	0.724331	0.008553
 374	1.8650e-01	3.7280	-1.914265	0.000359	3.591628	0.608438	0.007184
 375	1.8700e-01	3.7370	-1.866371	0.000479	4.788837	0.811251	0.009579
 376	1.8750e-01	3.7485	-1.835154	0.000312	3.121295	0.528762	0.006243
 377	1.8800e-01	3.7584	-1.788543	0.000466	4.660564	0.789521	0.009322
 378	1.8850e-01	3.7683	-1.754760	0.000338	3.377840	0.572222	0.006756
 379	1.8900e-01	3.7794	-1.709432	0.000453	4.532292	0.767791	0.009066
 380	1.8950e-01	3.7892	-1.682064	0.000274	2.736478	0.463572	0.005474
 381	1.9000e-01	3.7970	-1.652985	0.000291	2.907508	0.492545	0.005816
 382	1.9050e-01	3.8069	-1.605091	0.000479	4.788837	0.811251	0.009579
 383	1.9100e-01	3.8190	-1.575585	0.000295	2.950266	0.499789	0.005901
 384	1.9150e-01	3.8264	-1.511869	0.000637	6.370863	1.079253	0.012743
 385	1.9200e-01	3.8361	-1.479797	0.000321	3.206810	0.543248	0.006414
 386	1.9250e-01	3.8472	-1.446015	0.000338	3.377840	0.572222	0.006756
 387	1.9300e-01	3.8562	-1.397693	0.000483	4.831594	0.818494	0.009664
 388	1.9350e-01	3.8693	-1.379733	0.000180	1.795814	0.304219	0.003592
 389	1.9400e-01	3.8763	-1.320293	0.000594	5.943288	1.006820	0.011888
 390	1.9450e-01	3.8861	-1.276248	0.000440	4.404020	0.746061	0.008809
 391	1.9500e-01	3.8968	-1.250162	0.000261	2.608206	0.441842	0.005217
 392	1.9550e-01	3.9047	-1.186019	0.000641	6.413621	1.086497	0.012829
 393	1.9600e-01	3.9182	-1.160361	0.000257	2.565448	0.434599	0.005132
 394	1.9650e-01	3.9249	-1.139408	0.000210	2.095116	0.354922	0.004191
 395	1.9700e-01	3.9368	-1.098356	0.000410	4.104717	0.695358	0.008210
 396	1.9750e-01	3.9529	-1.059014	0.000393	3.933687	0.666385	0.007868
 397	1.9800e-01	3.9606	-1.026942	0.000321	3.206810	0.543248	0.006414
 398	1.9850e-01	3.9656	-0.971351	0.000556	5.558471	0.941631	0.011118
 399	1.9900e-01	3.9755	-0.939279	0.000321	3.206810	0.543248	0.006414
 400	1.9950e-01	3.9856	-0.893523	0.000458	4.575049	0.775034	0.009151
 401	2.0000e-01	3.9972	-0.889247	0.000043	0.427575	0.072433	0.000855
 402	2.0050e-01	4.0067	-0.811419	0.000778	7.781860	1.318283	0.015566
 403	2.0100e-01	4.0173	-0.781485	0.000299	2.993023	0.507032	0.005987
 404	2.0150e-01	4.0271	-0.748558	0.000329	3.292325	0.557735	0.006585
 405	2.0200e-01	4.0404	-0.713920	0.000346	3.463355	0.586708	0.006928
 406	2.0250e-01	4.0486	-0.680566	0.000334	3.335083	0.564978	0.006671
 407	2.0300e-01	4.0561	-0.638658	0.000419	4.190232	0.709845	0.008381
 408	2.0350e-01	4.0688	-0.600172	0.000385	3.848172	0.651898	0.007697
 409	2.0400e-01	4.0767	-0.562541	0.000376	3.762657	0.637411	0.007526
 410	2.0450e-01	4.0881	-0.522772	0.000398	3.976445	0.673628	0.007954
 411	2.0500e-01	4.0993	-0.478726	0.000440	4.404020	0.746061	0.008809
 412	2.0550e-01	4.1090	-0.447082	0.000316	3.164053	0.536005	0.006329
 413	2.0600e-01	4.1153	-0.403892	0.000432	4.318505	0.731574	0.008638
 414	2.0650e-01	4.1263	-0.370110	0.000338	3.377840	0.572222	0.006756
 415	2.0700e-01	4.1345	-0.323926	0.000462	4.617807	0.782278	0.009237
 416	2.0750e-01	4.1458	-0.289716	0.000342	3.420598	0.579465	0.006842
 417	2.0800e-01	4.1565	-0.257217	0.000325	3.249568	0.550492	0.006500
 418	2.0850e-01	4.1708	-0.216592	0.000406	4.061960	0.688115	0.008125
 419	2.0900e-01	4.1754	-0.182382	0.000342	3.420598	0.579465	0.006842
 420	2.0950e-01	4.1867	-0.146889	0.000355	3.548870	0.601195	0.007099
 421	2.1000e-01	4.1962	-0.115673	0.000312	3.121295	0.528762	0.006243
 422	2.1050e-01	4.2082	-0.063930	0.000517	5.173654	0.876441	0.010349
 423	2.1100e-01	4.2194	-0.039128	0.000248	2.479933	0.420112	0.004960
 424	2.1150e-01	4.2279	0.016464	0.000556	5.558471	0.941631	0.011118
 425	2.1200e-01	4.2366	0.036562	0.000201	2.009601	0.340436	0.004020
 426	2.1250e-01	4.2487	0.079324	0.000428	4.275747	0.724331	0.008553
 427	2.1300e-01	4.2581	0.125936	0.000466	4.660564	0.789521	0.009322
 428	2.1350e-01	4.2700	0.144751	0.000188	1.881329	0.318706	0.003763
 429	2.1400e-01	4.2769	0.202481	0.000577	5.772259	0.977847	0.011546
 430	2.1450e-01	4.2859	0.232842	0.000304	3.035780	0.514275	0.006072
 431	2.1500e-01	4.2981	0.289288	0.000564	5.643986	0.956117	0.011289
 432	2.1550e-01	4.3102	0.311097	0.000218	2.180631	0.369409	0.004362
 433	2.1600e-01	4.3170	0.349156	0.000381	3.805415	0.644655	0.007612
 434	2.1650e-01	4.3256	0.383794	0.000346	3.463355	0.586708	0.006928
 435	2.1700e-01	4.3369	0.426129	0.000423	4.232990	0.717088	0.008467
 436	2.1750e-01	4.3488	0.462049	0.000359	3.591628	0.608438	0.007184
 437	2.1800e-01	4.3567	0.481292	0.000192	1.924086	0.325949	0.003849
 438	2.1850e-01	4.3686	0.548002	0.000667	6.670166	1.129957	0.013342
 439	2.1900e-01	4.3770	0.577080	0.000291	2.907508	0.492545	0.005816
 440	2.1950e-01	4.3880	0.601027	0.000239	2.394418	0.405625	0.004789
 441	2.2000e-01	4.3979	0.661322	0.000603	6.028803	1.021307	0.012059
 442	2.2050e-01	4.4058	0.680138	0.000188	1.881329	0.318706	0.003763
 443	2.2100e-01	4.4196	0.731881	0.000517	5.173654	0.876441	0.010349
 444	2.2150e-01	4.4278	0.754117	0.000222	2.223389	0.376652	0.004447
 445	2.2200e-01	4.4374	0.788755	0.000346	3.463355	0.586708	0.006928
 446	2.2250e-01	4.4473	0.837504	0.000487	4.874352	0.825738	0.009750
 447	2.2300e-01	4.4582	0.869576	0.000321	3.206810	0.543248	0.006414
 448	2.2350e-01	4.4681	0.918753	0.000492	4.917109	0.832981	0.009835
 449	2.2400e-01	4.4769	0.940562	0.000218	2.180631	0.369409	0.004362
 450	2.2450e-01	4.4873	0.981186	0.000406	4.061960	0.688115	0.008125
 451	2.2500e-01	4.4958	1.030363	0.000492	4.917109	0.832981	0.009835
 452	2.2550e-01	4.5062	1.042764	0.000124	1.239967	0.210056	0.002480
 453	2.2600e-01	4.5166	1.084672	0.000419	4.190232	0.709845	0.008381
 454	2.2650e-01	4.5282	1.132566	0.000479	4.788837	0.811251	0.009579
 455	2.2700e-01	4.5358	1.183453	0.000509	5.088139	0.861954	0.010177
 456	2.2750e-01	4.5447	1.226643	0.000432	4.318505	0.731574	0.008638
 457	2.2800e-01	4.5569	1.218091	-0.000086	-0.855149	-0.144866	-0.001711
 458	2.2850e-01	4.5654	1.282662	0.000646	6.456378	1.093740	0.012914
 459	2.2900e-01	4.5764	1.313879	0.000312	3.121295	0.528762	0.006243
 460	2.2950e-01	4.5892	1.354931	0.000410	4.104717	0.695358	0.008210
 461	2.3000e-01	4.6002	1.404108	0.000492	4.917109	0.832981	0.009835
 462	2.3050e-01	4.6072	1.425061	0.000210	2.095116	0.354922	0.004191
 463	2.3100e-01	4.6167	1.461409	0.000363	3.634385	0.615681	0.007270
 464	2.3150e-01	4.6240	1.500751	0.000393	3.933687	0.666385	0.007868
 465	2.3200e-01	4.6390	1.519139	0.000184	1.838571	0.311462	0.003678
 466	2.3250e-01	4.6480	1.582855	0.000637	6.370863	1.079253	0.012743
 467	2.3300e-01	4.6601	1.611506	0.000286	2.864751	0.485302	0.005730
 468	2.3350e-01	4.6680	1.660255	0.000487	4.874352	0.825738	0.009750
 469	2.3400e-01	4.6771	1.689334	0.000291	2.907508	0.492545	0.005816
 470	2.3450e-01	4.6863	1.725682	0.000363	3.634385	0.615681	0.007270
 471	2.3500e-01	4.6951	1.753905	0.000282	2.821993	0.478059	0.005645
 472	2.3550e-01	4.7070	1.775286	0.000214	2.137874	0.362166	0.004276
 473	2.3600e-01	4.7169	1.836437	0.000611	6.114318	1.035794	0.012230
 474	2.3650e-01	4.7321	1.862950	0.000265	2.650963	0.449085	0.005303
 475	2.3700e-01	4.7377	1.898442	0.000355	3.548870	0.601195	0.007099
 476	2.3750e-01	4.7464	1.935646	0.000372	3.719900	0.630168	0.007441
 477	2.3800e-01	4.7577	1.954889	0.000192	1.924086	0.325949	0.003849
 478	2.3850e-01	4.7684	2.016467	0.000616	6.157076	1.043037	0.012316
 479	2.3900e-01	4.7791	2.025875	0.000094	0.940664	0.159353	0.001882
 480	2.3950e-01	4.7852	2.084459	0.000586	5.857774	0.992334	0.011717
 481	2.4000e-01	4.7980	2.102420	0.000180	1.795814	0.304219	0.003592
 482	2.4050e-01	4.8071	2.143899	0.000415	4.147475	0.702601	0.008296
 483	2.4100e-01	4.8203	2.188372	0.000445	4.446777	0.753304	0.008895
 484	2.4150e-01	4.8291	2.213175	0.000248	2.479933	0.420112	0.004960
 485	2.4200e-01	4.8367	2.243964	0.000308	3.078538	0.521518	0.006158
 486	2.4250e-01	4.8480	2.289720	0.000458	4.575049	0.775034	0.009151
 487	2.4300e-01	4.8602	2.327351	0.000376	3.762657	0.637411	0.007526
 488	2.4350e-01	4.8651	2.370968	0.000436	4.361262	0.738818	0.008724
 489	2.4400e-01	4.8755	2.400047	0.000291	2.907508	0.492545	0.005816
 490	2.4450e-01	4.8877	2.433402	0.000334	3.335083	0.564978	0.006671
 491	2.4500e-01	4.8981	2.468467	0.000351	3.506113	0.593952	0.007013
 492	2.4550e-01	4.9063	2.510374	0.000419	4.190232	0.709845	0.008381
 493	2.4600e-01	4.9188	2.559979	0.000496	4.959867	0.840224	0.009921
 494	2.4650e-01	4.9287	2.590340	0.000304	3.035780	0.514275	0.006072
 495	2.4700e-01	4.9402	2.617280	0.000269	2.693721	0.456329	0.005388
 496	2.4750e-01	4.9463	2.655767	0.000385	3.848172	0.651898	0.007697
 497	2.4800e-01	4.9554	2.699385	0.000436	4.361262	0.738818	0.008724
 498	2.4850e-01	4.9680	2.716062	0.000167	1.667541	0.282489	0.003335
 499	2.4900e-01	4.9777	2.769515	0.000534	5.344684	0.905414	0.010691
 500	2.4950e-01	4.9878	2.800304	0.000308	3.078538	0.521518	0.006158
 501	2.5000e-01	4.9969	2.819547	0.000192	1.924086	0.325949	0.003849
 502	2.5050e-01	5.0067	2.886684	0.000671	6.712923	1.137200	0.013427
 503	2.5100e-01	5.0215	2.914052	0.000274	2.736478	0.463572	0.005474
 504	2.5150e-01	5.0284	2.937144	0.000231	2.308903	0.391139	0.004618
 505	2.5200e-01	5.0372	2.973492	0.000363	3.634385	0.615681	0.007270
 506	2.5250e-01	5.0478	2.986749	0.000133	1.325482	0.224543	0.002651
 507	2.5300e-01	5.0562	3.055596	0.000688	6.883953	1.166173	0.013770
 508	2.5350e-01	5.0684	3.054314	-0.000013	-0.128272	-0.021730	-0.000257
 509	2.5400e-01	5.0806	3.121023	0.000667	6.670166	1.129957	0.013342
 510	2.5450e-01	5.0888	3.161220	0.000402	4.019202	0.680871	0.008039
 511	2.5500e-01	5.0977	3.176614	0.000154	1.539269	0.260759	0.003079
 512	2.5550e-01	5.1056	3.213390	0.000368	3.677143	0.622925	0.007355
 513	2.5600e-01	5.1172	3.243324	0.000299	2.993023	0.507032	0.005987
 514	2.5650e-01	5.1282	3.287797	0.000445	4.446777	0.753304	0.008895
 515	2.5700e-01	5.1373	3.321579	0.000338	3.377840	0.572222	0.006756
 516	2.5750e-01	5.1459	3.372039	0.000505	5.045382	0.854711	0.010092
 517	2.5800e-01	5.1570	3.399407	0.000274	2.736478	0.463572	0.005474
 518	2.5850e-01	5.1672	3.432334	0.000329	3.292325	0.557735	0.006585
 519	2.5900e-01	5.1758	3.467827	0.000355	3.548870	0.601195	0.007099
 520	2.5950e-01	5.1880	3.501610	0.000338	3.377840	0.572222	0.006756
 521	2.6000e-01	5.1978	3.540951	0.000393	3.933687	0.666385	0.007868
 522	2.6050e-01	5.2081	3.580293	0.000393	3.933687	0.666385	0.007868
 523	2.6100e-01	5.2168	3.606378	0.000261	2.608206	0.441842	0.005217
 524	2.6150e-01	5.2264	3.642298	0.000359	3.591628	0.608438	0.007184
 525	2.6200e-01	5.2364	3.692330	0.000500	5.002624	0.847467	0.010006
 526	2.6250e-01	5.2502	3.733810	0.000415	4.147475	0.702601	0.008296
 527	2.6300e-01	5.2583	3.751343	0.000175	1.753056	0.296976	0.003507
 528	2.6350e-01	5.2676	3.771013	0.000197	1.966844	0.333192	0.003934
 529	2.6400e-01	5.2789	3.833447	0.000624	6.242591	1.057524	0.012487
 530	2.6450e-01	5.2881	3.841144	0.000077	0.769634	0.130380	0.001539
 531	2.6500e-01	5.2969	3.883479	0.000423	4.232990	0.717088	0.008467
 532	2.6550e-01	5.3082	3.906998	0.000235	2.351661	0.398382	0.004704
 533	2.6600e-01	5.3171	3.955748	0.000487	4.874352	0.825738	0.009750
 534	2.6650e-01	5.3259	3.994662	0.000389	3.890930	0.659141	0.007783
 535	2.6700e-01	5.3369	4.047687	0.000530	5.301926	0.898171	0.010605
 536	2.6750e-01	5.3444	4.059233	0.000115	1.154452	0.195569	0.002309
 537	2.6800e-01	5.3589	4.091732	0.000325	3.249568	0.550492	0.006500
 538	2.6850e-01	5.3705	4.131929	0.000402	4.019202	0.680871	0.008039
 539	2.6900e-01	5.3766	4.156304	0.000244	2.437176	0.412869	0.004875
 540	2.6950e-01	5.3870	4.190942	0.000346	3.463355	0.586708	0.006928
 541	2.7000e-01	5.3967	4.246105	0.000552	5.515714	0.934387	0.011033
 542	2.7050e-01	5.4068	4.274756	0.000286	2.864751	0.485302	0.005730
 543	2.7100e-01	5.4160	4.300414	0.000257	2.565448	0.434599	0.005132
 544	2.7150e-01	5.4291	4.332485	0.000321	3.206810	0.543248	0.006414
 545	2.7200e-01	5.4370	4.384228	0.000517	5.173654	0.876441	0.010349
 546	2.7250e-01	5.4456	4.405182	0.000210	2.095116	0.354922	0.004191
 547	2.7300e-01	5.4572	4.456069	0.000509	5.088139	0.861954	0.010177
 548	2.7350e-01	5.4681	4.477450	0.000214	2.137874	0.362166	0.004276
 549	2.7400e-01	5.4767	4.506957	0.000295	2.950266	0.499789	0.005901
 550	2.7450e-01	5.4861	4.544588	0.000376	3.762657	0.637411	0.007526
 551	2.7500e-01	5.4962	4.583929	0.000393	3.933687	0.666385	0.007868
 552	2.7550e-01	5.5066	4.614291	0.000304	3.035780	0.514275	0.006072
 553	2.7600e-01	5.5173	4.661757	0.000475	4.746079	0.804008	0.009493
 554	2.7650e-01	5.5280	4.669882	0.000081	0.812392	0.137623	0.001625
 555	2.7700e-01	5.5383	4.711361	0.000415	4.147475	0.702601	0.008296
 556	2.7750e-01	5.5478	4.749420	0.000381	3.805415	0.644655	0.007612
 557	2.7800e-01	5.5583	4.796031	0.000466	4.660564	0.789521	0.009322
 558	2.7850e-01	5.5655	4.819123	0.000231	2.308903	0.391139	0.004618
 559	2.7900e-01	5.5774	4.860603	0.000415	4.147475	0.702601	0.008296
 560	2.7950e-01	5.5875	4.904648	0.000440	4.404020	0.746061	0.008809
 561	2.8000e-01	5.5984	4.909352	0.000047	0.470332	0.079676	0.000941
 562	2.8050e-01	5.6097	4.960667	0.000513	5.130897	0.869197	0.010263
 563	2.8100e-01	5.6177	5.009844	0.000492	4.917109	0.832981	0.009835
 564	2.8150e-01	5.6250	5.031653	0.000218	2.180631	0.369409	0.004362
 565	2.8200e-01	5.6354	5.051324	0.000197	1.966844	0.333192	0.003934
 566	2.8250e-01	5.6491	5.107342	0.000560	5.601229	0.948874	0.011204
 567	2.8300e-01	5.6607	5.128296	0.000210	2.095116	0.354922	0.004191
 568	2.8350e-01	5.6671	5.153954	0.000257	2.565448	0.434599	0.005132
 569	2.8400e-01	5.6775	5.203558	0.000496	4.959867	0.840224	0.009921
 570	2.8450e-01	5.6850	5.224512	0.000210	2.095116	0.354922	0.004191
 571	2.8500e-01	5.7001	5.265136	0.000406	4.061960	0.688115	0.008125
 572	2.8550e-01	5.7086	5.315168	0.000500	5.002624	0.847467	0.010006
 573	2.8600e-01	5.7196	5.323293	0.000081	0.812392	0.137623	0.001625
 574	2.8650e-01	5.7269	5.361780	0.000385	3.848172	0.651898	0.007697
 575	2.8700e-01	5.7413	5.406253	0.000445	4.446777	0.753304	0.008895
 576	2.8750e-01	5.7468	5.449870	0.000436	4.361262	0.738818	0.008724
 577	2.8800e-01	5.7581	5.464837	0.000150	1.496511	0.253516	0.002993
 578	2.8850e-01	5.7654	5.502041	0.000372	3.719900	0.630168	0.007441
 579	2.8900e-01	5.7776	5.531974	0.000299	2.993023	0.507032	0.005987
 580	2.8950e-01	5.7883	5.569178	0.000372	3.719900	0.630168	0.007441
 581	2.9000e-01	5.7959	5.611513	0.000423	4.232990	0.717088	0.008467
 582	2.9050e-01	5.8032	5.654703	0.000432	4.318505	0.731574	0.008638
 583	2.9100e-01	5.8185	5.657269	0.000026	0.256545	0.043460	0.000513
 584	2.9150e-01	5.8258	5.720129	0.000629	6.285348	1.064767	0.012572
 585	2.9200e-01	5.8368	5.733386	0.000133	1.325482	0.224543	0.002651
 586	2.9250e-01	5.8469	5.770162	0.000368	3.677143	0.622925	0.007355
 587	2.9300e-01	5.8575	5.818483	0.000483	4.831594	0.818494	0.009664
 588	2.9350e-01	5.8667	5.839865	0.000214	2.137874	0.362166	0.004276
 589	2.9400e-01	5.8772	5.862101	0.000222	2.223389	0.376652	0.004447
 590	2.9450e-01	5.8868	5.915127	0.000530	5.301926	0.898171	0.010605
 591	2.9500e-01	5.8960	5.947626	0.000325	3.249568	0.550492	0.006500
 592	2.9550e-01	5.9085	5.984830	0.000372	3.719900	0.630168	0.007441
 593	2.9600e-01	5.9193	5.996803	0.000120	1.197209	0.202813	0.002395
 594	2.9650e-01	5.9259	6.050684	0.000539	5.387441	0.912657	0.010776
 595	2.9700e-01	5.9375	6.078907	0.000282	2.821993	0.478059	0.005645
 596	2.9750e-01	5.9485	6.099861	0.000210	2.095116	0.354922	0.004191
 597	2.9800e-01	5.9598	6.150748	0.000509	5.088139	0.861954	0.010177
 598	2.9850e-01	5.9677	6.185813	0.000351	3.506113	0.593952	0.007013
 599	2.9900e-01	5.9772	6.204201	0.000184	1.838571	0.311462	0.003678
 600	2.9950e-01	5.9869	6.249957	0.000458	4.575049	0.775034	0.009151
 601	3.0000e-01	5.9973	6.259365	0.000094	0.940664	0.159353	0.001882
 602	3.0050e-01	6.0046	6.325219	0.000658	6.584651	1.115470	0.013171
 603	3.0100e-01	6.0178	6.328640	0.000034	0.342060	0.057946	0.000684
 604	3.0150e-01	6.0278	6.380383	0.000517	5.173654	0.876441	0.010349
 605	3.0200e-01	6.0373	6.403047	0.000227	2.266146	0.383896	0.004533
 606	3.0250e-01	6.0486	6.427422	0.000244	2.437176	0.412869	0.004875
 607	3.0300e-01	6.0580	6.470612	0.000432	4.318505	0.731574	0.008638
 608	3.0350e-01	6.0660	6.506105	0.000355	3.548870	0.601195	0.007099
 609	3.0400e-01	6.0797	6.545446	0.000393	3.933687	0.666385	0.007868
 610	3.0450e-01	6.0876	6.572814	0.000274	2.736478	0.463572	0.005474
 611	3.0500e-01	6.0986	6.609162	0.000363	3.634385	0.615681	0.007270
 612	3.0550e-01	6.1060	6.623702	0.000145	1.453754	0.246273	0.002908
 613	3.0600e-01	6.1157	6.660050	0.000363	3.634385	0.615681	0.007270
 614	3.0650e-01	6.1252	6.701102	0.000410	4.104717	0.695358	0.008210
 615	3.0700e-01	6.1369	6.735312	0.000342	3.420598	0.579465	0.006842
 616	3.0750e-01	6.1481	6.773798	0.000385	3.848172	0.651898	0.007697
 617	3.0800e-01	6.1584	6.809719	0.000359	3.591628	0.608438	0.007184
 618	3.0850e-01	6.1667	6.848633	0.000389	3.890930	0.659141	0.007783
 619	3.0900e-01	6.1765	6.890112	0.000415	4.147475	0.702601	0.008296
 620	3.0950e-01	6.1914	6.887546	-0.000026	-0.256545	-0.043460	-0.000513
 621	3.1000e-01	6.1975	6.938434	0.000509	5.088139	0.861954	0.010177
 622	3.1050e-01	6.2080	6.965374	0.000269	2.693721	0.456329	0.005388
 623	3.1100e-01	6.2177	6.999584	0.000342	3.420598	0.579465	0.006842
 624	3.1150e-01	6.2268	7.036360	0.000368	3.677143	0.622925	0.007355
 625	3.1200e-01	6.2383	7.069715	0.000334	3.335083	0.564978	0.006671
 626	3.1250e-01	6.2476	7.109056	0.000393	3.933687	0.666385	0.007868
 627	3.1300e-01	6.2592	7.124879	0.000158	1.582026	0.268003	0.003164
 628	3.1350e-01	6.2712	7.171062	0.000462	4.617807	0.782278	0.009237
 629	3.1400e-01	6.2762	7.208693	0.000376	3.762657	0.637411	0.007526
 630	3.1450e-01	6.2891	7.222377	0.000137	1.368239	0.231786	0.002737
 631	3.1500e-01	6.2979	7.266422	0.000440	4.404020	0.746061	0.008809
 632	3.1550e-01	6.3074	7.271126	0.000047	0.470332	0.079676	0.000941
 633	3.1600e-01	6.3171	7.329711	0.000586	5.857774	0.992334	0.011717
 634	3.1650e-01	6.3266	7.361355	0.000316	3.164053	0.536005	0.006329
 635	3.1700e-01	6.3403	7.392144	0.000308	3.078538	0.521518	0.006158
 636	3.1750e-01	6.3457	7.434907	0.000428	4.275747	0.724331	0.008553
 637	3.1800e-01	6.3580	7.449874	0.000150	1.496511	0.253516	0.002993
 638	3.1850e-01	6.3669	7.494774	0.000449	4.489534	0.760548	0.008980
 639	3.1900e-01	6.3785	7.514873	0.000201	2.009601	0.340436	0.004020
 640	3.1950e-01	6.3864	7.549510	0.000346	3.463355	0.586708	0.006928
 641	3.2000e-01	6.3968	7.613654	0.000641	6.413621	1.086497	0.012829
 642	3.2050e-01	6.4069	7.620496	0.000068	0.684120	0.115893	0.001368
 643	3.2100e-01	6.4188	7.649575	0.000291	2.907508	0.492545	0.005816
 644	3.2150e-01	6.4264	7.697896	0.000483	4.831594	0.818494	0.009664
 645	3.2200e-01	6.4368	7.701745	0.000038	0.384817	0.065190	0.000770
 646	3.2250e-01	6.4484	7.735955	0.000342	3.420598	0.579465	0.006842
 647	3.2300e-01	6.4575	7.777862	0.000419	4.190232	0.709845	0.008381
 648	3.2350e-01	6.4655	7.816349	0.000385	3.848172	0.651898	0.007697
 649	3.2400e-01	6.4758	7.843289	0.000269	2.693721	0.456329	0.005388
 650	3.2450e-01	6.4874	7.871940	0.000286	2.864751	0.485302	0.005730
 651	3.2500e-01	6.4975	7.892894	0.000210	2.095116	0.354922	0.004191
 652	3.2550e-01	6.5076	7.934373	0.000415	4.147475	0.702601	0.008296
 653	3.2600e-01	6.5158	7.980129	0.000458	4.575049	0.775034	0.009151
 654	3.2650e-01	6.5259	7.992958	0.000128	1.282724	0.217299	0.002566
 655	3.2700e-01	6.5370	8.029306	0.000363	3.634385	0.615681	0.007270
 656	3.2750e-01	6.5479	8.066937	0.000376	3.762657	0.637411	0.007526
 657	3.2800e-01	6.5559	8.129798	0.000629	6.285348	1.064767	0.012572
 658	3.2850e-01	6.5662	8.132364	0.000026	0.256545	0.043460	0.000513
 659	3.2900e-01	6.5750	8.152462	0.000201	2.009601	0.340436	0.004020
 660	3.2950e-01	6.5851	8.200784	0.000483	4.831594	0.818494	0.009664
 661	3.3000e-01	6.6003	8.238842	0.000381	3.805415	0.644655	0.007612
 662	3.3050e-01	6.6109	8.267066	0.000282	2.821993	0.478059	0.005645
 663	3.3100e-01	6.6153	8.285026	0.000180	1.795814	0.304219	0.003592
 664	3.3150e-01	6.6284	8.336769	0.000517	5.173654	0.876441	0.010349
 665	3.3200e-01	6.6377	8.374827	0.000381	3.805415	0.644655	0.007612
 666	3.3250e-01	6.6452	8.414596	0.000398	3.976445	0.673628	0.007954
 667	3.3300e-01	6.6571	8.422294	0.000077	0.769634	0.130380	0.001539
 668	3.3350e-01	6.6675	8.440681	0.000184	1.838571	0.311462	0.003678
 669	3.3400e-01	6.6766	8.480878	0.000402	4.019202	0.680871	0.008039
 670	3.3450e-01	6.6861	8.509102	0.000282	2.821993	0.478059	0.005645
 671	3.3500e-01	6.6959	8.542884	0.000338	3.377840	0.572222	0.006756
 672	3.3550e-01	6.7053	8.582225	0.000393	3.933687	0.666385	0.007868
 673	3.3600e-01	6.7157	8.591633	0.000094	0.940664	0.159353	0.001882
 674	3.3650e-01	6.7261	8.642948	0.000513	5.130897	0.869197	0.010263
 675	3.3700e-01	6.7371	8.663047	0.000201	2.009601	0.340436	0.004020
 676	3.3750e-01	6.7496	8.706237	0.000432	4.318505	0.731574	0.008638
 677	3.3800e-01	6.7584	8.734460	0.000282	2.821993	0.478059	0.005645
 678	3.3850e-01	6.7657	8.767387	0.000329	3.292325	0.557735	0.006585
 679	3.3900e-01	6.7743	8.808012	0.000406	4.061960	0.688115	0.008125
 680	3.3950e-01	6.7859	8.849064	0.000410	4.104717	0.695358	0.008210
 681	3.4000e-01	6.7944	8.861037	0.000120	1.197209	0.202813	0.002395
 682	3.4050e-01	6.8050	8.894392	0.000334	3.335083	0.564978	0.006671
 683	3.4100e-01	6.8179	8.927319	0.000329	3.292325	0.557735	0.006585
 684	3.4150e-01	6.8256	8.965378	0.000381	3.805415	0.644655	0.007612
 685	3.4200e-01	6.8375	8.990180	0.000248	2.479933	0.420112	0.004960
 686	3.4250e-01	6.8469	9.029949	0.000398	3.976445	0.673628	0.007954
 687	3.4300e-01	6.8552	9.066725	0.000368	3.677143	0.622925	0.007355
 688	3.4350e-01	6.8658	9.094948	0.000282	2.821993	0.478059	0.005645
 689	3.4400e-01	6.8771	9.107777	0.000128	1.282724	0.217299	0.002566
 690	3.4450e-01	6.8872	9.147546	0.000398	3.976445	0.673628	0.007954
 691	3.4500e-01	6.8958	9.158664	0.000111	1.111694	0.188326	0.002224
 692	3.4550e-01	6.9077	9.223663	0.000650	6.499136	1.100983	0.013000
 693	3.4600e-01	6.9183	9.263005	0.000393	3.933687	0.666385	0.007868
 694	3.4650e-01	6.9270	9.271557	0.000086	0.855149	0.144866	0.001711
 695	3.4700e-01	6.9360	9.304485	0.000329	3.292325	0.557735	0.006585
 696	3.4750e-01	6.9466	9.328432	0.000239	2.394418	0.405625	0.004789
 697	3.4800e-01	6.9562	9.388299	0.000599	5.986046	1.014064	0.011974
 698	3.4850e-01	6.9666	9.400273	0.000120	1.197209	0.202813	0.002395
 699	3.4900e-01	6.9772	9.434483	0.000342	3.420598	0.579465	0.006842
 700	3.4950e-01	6.9879	9.459713	0.000252	2.522691	0.427355	0.005046
 701	3.5000e-01	6.9989	9.484087	0.000244	2.437176	0.412869	0.004875
 702	3.5050e-01	7.0084	9.511028	0.000269	2.693721	0.456329	0.005388
 703	3.5100e-01	7.0190	9.552080	0.000410	4.104717	0.695358	0.008210
 704	3.5150e-01	7.0291	9.590138	0.000381	3.805415	0.644655	0.007612
 705	3.5200e-01	7.0367	9.621355	0.000312	3.121295	0.528762	0.006243
 706	3.5250e-01	7.0471	9.642309	0.000210	2.095116	0.354922	0.004191
 707	3.5300e-01	7.0575	9.694051	0.000517	5.173654	0.876441	0.010349
 708	3.5350e-01	7.0667	9.703887	0.000098	0.983422	0.166596	0.001967
 709	3.5400e-01	7.0782	9.747932	0.000440	4.404020	0.746061	0.008809
 710	3.5450e-01	7.0859	9.784708	0.000368	3.677143	0.622925	0.007355
 711	3.5500e-01	7.0984	9.803523	0.000188	1.881329	0.318706	0.003763
 712	3.5550e-01	7.1057	9.833029	0.000295	2.950266	0.499789	0.005901
 713	3.5600e-01	7.1155	9.886483	0.000534	5.344684	0.905414	0.010691
 714	3.5650e-01	7.1277	9.880068	-0.000064	-0.641362	-0.108650	-0.001283
 715	3.5700e-01	7.1362	9.933521	0.000534	5.344684	0.905414	0.010691
 716	3.5750e-01	7.1472	9.966876	0.000334	3.335083	0.564978	0.006671
 717	3.5800e-01	7.1588	10.009211	0.000423	4.232990	0.717088	0.008467
 718	3.5850e-01	7.1677	10.028882	0.000197	1.966844	0.333192	0.003934
 719	3.5900e-01	7.1805	10.045987	0.000171	1.710299	0.289732	0.003421
 720	3.5950e-01	7.1878	10.084045	0.000381	3.805415	0.644655	0.007612
 721	3.6000e-01	7.1960	10.120821	0.000368	3.677143	0.622925	0.007355
 722	3.6050e-01	7.2078	10.140492	0.000197	1.966844	0.333192	0.003934
 723	3.6100e-01	7.2205	10.180261	0.000398	3.976445	0.673628	0.007954
 724	3.6150e-01	7.2279	10.213616	0.000334	3.335083	0.564978	0.006671
 725	3.6200e-01	7.2375	10.257234	0.000436	4.361262	0.738818	0.008724
 726	3.6250e-01	7.2467	10.282036	0.000248	2.479933	0.420112	0.004960
 727	3.6300e-01	7.2607	10.296148	0.000141	1.410997	0.239029	0.002822
 728	3.6350e-01	7.2687	10.334206	0.000381	3.805415	0.644655	0.007612
 729	3.6400e-01	7.2772	10.368416	0.000342	3.420598	0.579465	0.006842
 730	3.6450e-01	7.2882	10.402199	0.000338	3.377840	0.572222	0.006756
 731	3.6500e-01	7.3006	10.415455	0.000133	1.325482	0.224543	0.002651
 732	3.6550e-01	7.3077	10.471474	0.000560	5.601229	0.948874	0.011204
 733	3.6600e-01	7.3169	10.493710	0.000222	2.223389	0.376652	0.004447
 734	3.6650e-01	7.3279	10.515519	0.000218	2.180631	0.369409	0.004362
 735	3.6700e-01	7.3376	10.536901	0.000214	2.137874	0.362166	0.004276
 736	3.6750e-01	7.3486	10.586077	0.000492	4.917109	0.832981	0.009835
 737	3.6800e-01	7.3590	10.604465	0.000184	1.838571	0.311462	0.003678
 738	3.6850e-01	7.3671	10.639958	0.000355	3.548870	0.601195	0.007099
 739	3.6900e-01	7.3773	10.652787	0.000128	1.282724	0.217299	0.002566
 740	3.6950e-01	7.3889	10.701109	0.000483	4.831594	0.818494	0.009664
 741	3.7000e-01	7.3993	10.737884	0.000368	3.677143	0.622925	0.007355
 742	3.7050e-01	7.4081	10.761831	0.000239	2.394418	0.405625	0.004789
 743	3.7100e-01	7.4179	10.793903	0.000321	3.206810	0.543248	0.006414
 744	3.7150e-01	7.4280	10.830252	0.000363	3.634385	0.615681	0.007270
 745	3.7200e-01	7.4387	10.846074	0.000158	1.582026	0.268003	0.003164
 746	3.7250e-01	7.4490	10.884132	0.000381	3.805415	0.644655	0.007612
 747	3.7300e-01	7.4573	10.909362	0.000252	2.522691	0.427355	0.005046
 748	3.7350e-01	7.4664	10.949131	0.000398	3.976445	0.673628	0.007954
 749	3.7400e-01	7.4768	10.982914	0.000338	3.377840	0.572222	0.006756
 750	3.7450e-01	7.4854	10.979493	-0.000034	-0.342060	-0.057946	-0.000684
 751	3.7500e-01	7.4951	11.025249	0.000458	4.575049	0.775034	0.009151
 752	3.7550e-01	7.5052	11.092813	0.000676	6.755680	1.144443	0.013513
 753	3.7600e-01	7.5171	11.099655	0.000068	0.684120	0.115893	0.001368
 754	3.7650e-01	7.5256	11.150115	0.000505	5.045382	0.854711	0.010092
 755	3.7700e-01	7.5378	11.156957	0.000068	0.684120	0.115893	0.001368
 756	3.7750e-01	7.5507	11.192023	0.000351	3.506113	0.593952	0.007013
 757	3.7800e-01	7.5587	11.210410	0.000184	1.838571	0.311462	0.003678
 758	3.7850e-01	7.5699	11.221956	0.000115	1.154452	0.195569	0.002309
 759	3.7900e-01	7.5775	11.283534	0.000616	6.157076	1.043037	0.012316
 760	3.7950e-01	7.5885	11.316889	0.000334	3.335083	0.564978	0.006671
 761	3.8000e-01	7.5986	11.346395	0.000295	2.950266	0.499789	0.005901
 762	3.8050e-01	7.6065	11.384026	0.000376	3.762657	0.637411	0.007526
 763	3.8100e-01	7.6160	11.423795	0.000398	3.976445	0.673628	0.007954
 764	3.8150e-01	7.6270	11.441328	0.000175	1.753056	0.296976	0.003507
 765	3.8200e-01	7.6361	11.469551	0.000282	2.821993	0.478059	0.005645
 766	3.8250e-01	7.6489	11.498202	0.000286	2.864751	0.485302	0.005730
 767	3.8300e-01	7.6569	11.526425	0.000282	2.821993	0.478059	0.005645
 768	3.8350e-01	7.6672	11.551655	0.000252	2.522691	0.427355	0.005046
 769	3.8400e-01	7.6761	11.580734	0.000291	2.907508	0.492545	0.005816
 770	3.8450e-01	7.6880	11.612806	0.000321	3.206810	0.543248	0.006414
 771	3.8500e-01	7.6971	11.638463	0.000257	2.565448	0.434599	0.005132
 772	3.8550e-01	7.7078	11.673529	0.000351	3.506113	0.593952	0.007013
 773	3.8600e-01	7.7173	11.723133	0.000496	4.959867	0.840224	0.009921
 774	3.8650e-01	7.7277	11.735534	0.000124	1.239967	0.210056	0.002480
 775	3.8700e-01	7.7386	11.785994	0.000505	5.045382	0.854711	0.010092
 776	3.8750e-01	7.7469	11.810369	0.000244	2.437176	0.412869	0.004875
 777	3.8800e-01	7.7573	11.823625	0.000133	1.325482	0.224543	0.002651
 778	3.8850e-01	7.7661	11.855269	0.000316	3.164053	0.536005	0.006329
 779	3.8900e-01	7.7774	11.887769	0.000325	3.249568	0.550492	0.006500
 780	3.8950e-01	7.7866	11.927538	0.000398	3.976445	0.673628	0.007954
 781	3.9000e-01	7.7991	11.945071	0.000175	1.753056	0.296976	0.003507
 782	3.9050e-01	7.8070	11.992537	0.000475	4.746079	0.804008	0.009493
 783	3.9100e-01	7.8168	12.001517	0.000090	0.897907	0.152110	0.001796
 784	3.9150e-01	7.8247	12.030596	0.000291	2.907508	0.492545	0.005816
 785	3.9200e-01	7.8397	12.085759	0.000552	5.515714	0.934387	0.011033
 786	3.9250e-01	7.8497	12.113127	0.000274	2.736478	0.463572	0.005474
 787	3.9300e-01	7.8577	12.114838	0.000017	0.171030	0.028973	0.000342
 788	3.9350e-01	7.8680	12.155462	0.000406	4.061960	0.688115	0.008125
 789	3.9400e-01	7.8766	12.202501	0.000470	4.703322	0.796764	0.009408
 790	3.9450e-01	7.8860	12.226876	0.000244	2.437176	0.412869	0.004875
 791	3.9500e-01	7.8961	12.262369	0.000355	3.548870	0.601195	0.007099
 792	3.9550e-01	7.9083	12.290164	0.000278	2.779236	0.470815	0.005559
 793	3.9600e-01	7.9153	12.314966	0.000248	2.479933	0.420112	0.004960
 794	3.9650e-01	7.9260	12.346183	0.000312	3.121295	0.528762	0.006243
 795	3.9700e-01	7.9388	12.372696	0.000265	2.650963	0.449085	0.005303
 796	3.9750e-01	7.9498	12.398781	0.000261	2.608206	0.441842	0.005217
 797	3.9800e-01	7.9568	12.435984	0.000372	3.719900	0.630168	0.007441
 798	3.9850e-01	7.9681	12.453517	0.000175	1.753056	0.296976	0.003507
 799	3.9900e-01	7.9773	12.512529	0.000590	5.900531	0.999577	0.011802
 800	3.9950e-01	7.9871	12.526213	0.000137	1.368239	0.231786	0.002737
 801	4.0000e-01	7.9987	12.544601	0.000184	1.838571	0.311462	0.003678
 802	4.0050e-01	8.0060	12.592068	0.000475	4.746079	0.804008	0.009493
 803	4.0100e-01	8.0200	12.601048	0.000090	0.897907	0.152110	0.001796
 804	4.0150e-01	8.0252	12.640817	0.000398	3.976445	0.673628	0.007954
 805	4.0200e-01	8.0386	12.657494	0.000167	1.667541	0.282489	0.003335
 806	4.0250e-01	8.0481	12.696408	0.000389	3.890930	0.659141	0.007783
 807	4.0300e-01	8.0554	12.733184	0.000368	3.677143	0.622925	0.007355
 808	4.0350e-01	8.0682	12.764401	0.000312	3.121295	0.528762	0.006243
 809	4.0400e-01	8.0789	12.812722	0.000483	4.831594	0.818494	0.009664
 810	4.0450e-01	8.0869	12.825123	0.000124	1.239967	0.210056	0.002480
 811	4.0500e-01	8.0942	12.860189	0.000351	3.506113	0.593952	0.007013
 812	4.0550e-01	8.1097	12.890550	0.000304	3.035780	0.514275	0.006072
 813	4.0600e-01	8.1183	12.910221	0.000197	1.966844	0.333192	0.003934
 814	4.0650e-01	8.1323	12.950418	0.000402	4.019202	0.680871	0.008039
 815	4.0700e-01	8.1409	12.969233	0.000188	1.881329	0.318706	0.003763
 816	4.0750e-01	8.1464	13.005154	0.000359	3.591628	0.608438	0.007184
 817	4.0800e-01	8.1567	13.031239	0.000261	2.608206	0.441842	0.005217
 818	4.0850e-01	8.1683	13.079133	0.000479	4.788837	0.811251	0.009579
 819	4.0900e-01	8.1790	13.105646	0.000265	2.650963	0.449085	0.005303
 820	4.0950e-01	8.1860	13.135152	0.000295	2.950266	0.499789	0.005901
 821	4.1000e-01	8.1973	13.162092	0.000269	2.693721	0.456329	0.005388
 822	4.1050e-01	8.2068	13.184329	0.000222	2.223389	0.376652	0.004447
 823	4.1100e-01	8.2214	13.198013	0.000137	1.368239	0.231786	0.002737
 824	4.1150e-01	8.2318	13.239492	0.000415	4.147475	0.702601	0.008296
 825	4.1200e-01	8.2394	13.271137	0.000316	3.164053	0.536005	0.006329
 826	4.1250e-01	8.2495	13.302781	0.000316	3.164053	0.536005	0.006329
 827	4.1300e-01	8.2581	13.336136	0.000334	3.335083	0.564978	0.006671
 828	4.1350e-01	8.2666	13.352385	0.000162	1.624784	0.275246	0.003250
 829	4.1400e-01	8.2745	13.401135	0.000487	4.874352	0.825738	0.009750
 830	4.1450e-01	8.2886	13.409260	0.000081	0.812392	0.137623	0.001625
 831	4.1500e-01	8.2990	13.466989	0.000577	5.772259	0.977847	0.011546
 832	4.1550e-01	8.3081	13.481528	0.000145	1.453754	0.246273	0.002908
 833	4.1600e-01	8.3167	13.506758	0.000252	2.522691	0.427355	0.005046
 834	4.1650e-01	8.3270	13.554652	0.000479	4.788837	0.811251	0.009579
 835	4.1700e-01	8.3374	13.559784	0.000051	0.513090	0.086920	0.001026
 836	4.1750e-01	8.3502	13.605540	0.000458	4.575049	0.775034	0.009151
 837	4.1800e-01	8.3588	13.645736	0.000402	4.019202	0.680871	0.008039
 838	4.1850e-01	8.3667	13.669256	0.000235	2.351661	0.398382	0.004704
 839	4.1900e-01	8.3765	13.709880	0.000406	4.061960	0.688115	0.008125
 840	4.1950e-01	8.3865	13.706459	-0.000034	-0.342060	-0.057946	-0.000684
 841	4.2000e-01	8.3972	13.757774	0.000513	5.130897	0.869197	0.010263
 842	4.2050e-01	8.4070	13.785997	0.000282	2.821993	0.478059	0.005645
 843	4.2100e-01	8.4174	13.813793	0.000278	2.779236	0.470815	0.005559
 844	4.2150e-01	8.4271	13.855273	0.000415	4.147475	0.702601	0.008296
 845	4.2200e-01	8.4375	13.880503	0.000252	2.522691	0.427355	0.005046
 846	4.2250e-01	8.4473	13.892904	0.000124	1.239967	0.210056	0.002480
 847	4.2300e-01	8.4564	13.920272	0.000274	2.736478	0.463572	0.005474
 848	4.2350e-01	8.4680	13.972014	0.000517	5.173654	0.876441	0.010349
 849	4.2400e-01	8.4772	13.992113	0.000201	2.009601	0.340436	0.004020
 850	4.2450e-01	8.4888	14.027178	0.000351	3.506113	0.593952	0.007013
 851	4.2500e-01	8.4979	14.063099	0.000359	3.591628	0.608438	0.007184
 852	4.2550e-01	8.5077	14.077638	0.000145	1.453754	0.246273	0.002908
 853	4.2600e-01	8.5162	14.094743	0.000171	1.710299	0.289732	0.003421
 854	4.2650e-01	8.5309	14.126815	0.000321	3.206810	0.543248	0.006414
 855	4.2700e-01	8.5345	14.169150	0.000423	4.232990	0.717088	0.008467
 856	4.2750e-01	8.5492	14.199511	0.000304	3.035780	0.514275	0.006072
 857	4.2800e-01	8.5596	14.235432	0.000359	3.591628	0.608438	0.007184
 858	4.2850e-01	8.5687	14.243556	0.000081	0.812392	0.137623	0.001625
 859	4.2900e-01	8.5773	14.282470	0.000389	3.890930	0.659141	0.007783
 860	4.2950e-01	8.5876	14.300858	0.000184	1.838571	0.311462	0.003678
 861	4.3000e-01	8.5962	14.355594	0.000547	5.472956	0.927144	0.010947
 862	4.3050e-01	8.6060	14.367568	0.000120	1.197209	0.202813	0.002395
 863	4.3100e-01	8.6182	14.401778	0.000342	3.420598	0.579465	0.006842
 864	4.3150e-01	8.6279	14.429573	0.000278	2.779236	0.470815	0.005559
 865	4.3200e-01	8.6389	14.459080	0.000295	2.950266	0.499789	0.005901
 866	4.3250e-01	8.6469	14.499276	0.000402	4.019202	0.680871	0.008039
 867	4.3300e-01	8.6597	14.508257	0.000090	0.897907	0.152110	0.001796
 868	4.3350e-01	8.6682	14.547598	0.000393	3.933687	0.666385	0.007868
 869	4.3400e-01	8.6786	14.577959	0.000304	3.035780	0.514275	0.006072
 870	4.3450e-01	8.6859	14.604045	0.000261	2.608206	0.441842	0.005217
 871	4.3500e-01	8.6963	14.657070	0.000530	5.301926	0.898171	0.010605
 872	4.3550e-01	8.7061	14.682728	0.000257	2.565448	0.434599	0.005132
 873	4.3600e-01	8.7155	14.703254	0.000205	2.052359	0.347679	0.004105
 874	4.3650e-01	8.7256	14.718648	0.000154	1.539269	0.260759	0.003079
 875	4.3700e-01	8.7372	14.757134	0.000385	3.848172	0.651898	0.007697
 876	4.3750e-01	8.7457	14.806739	0.000496	4.959867	0.840224	0.009921
 877	4.3800e-01	8.7561	14.835817	0.000291	2.907508	0.492545	0.005816
 878	4.3850e-01	8.7665	14.853350	0.000175	1.753056	0.296976	0.003507
 879	4.3900e-01	8.7775	14.873021	0.000197	1.966844	0.333192	0.003934
 880	4.3950e-01	8.7866	14.920487	0.000475	4.746079	0.804008	0.009493
 881	4.4000e-01	8.7982	14.942296	0.000218	2.180631	0.369409	0.004362
 882	4.4050e-01	8.8068	14.977361	0.000351	3.506113	0.593952	0.007013
 883	4.4100e-01	8.8196	14.998315	0.000210	2.095116	0.354922	0.004191
 884	4.4150e-01	8.8275	15.024828	0.000265	2.650963	0.449085	0.005303
 885	4.4200e-01	8.8391	15.059038	0.000342	3.420598	0.579465	0.006842
 886	4.4250e-01	8.8470	15.080847	0.000218	2.180631	0.369409	0.004362
 887	4.4300e-01	8.8574	15.111636	0.000308	3.078538	0.521518	0.006158
 888	4.4350e-01	8.8641	15.145418	0.000338	3.377840	0.572222	0.006756
 889	4.4400e-01	8.8745	15.169365	0.000239	2.394418	0.405625	0.004789
 890	4.4450e-01	8.8870	15.198444	0.000291	2.907508	0.492545	0.005816
 891	4.4500e-01	8.8968	15.248903	0.000505	5.045382	0.854711	0.010092
 892	4.4550e-01	8.9063	15.261305	0.000124	1.239967	0.210056	0.002480
 893	4.4600e-01	8.9191	15.304495	0.000432	4.318505	0.731574	0.008638
 894	4.4650e-01	8.9264	15.322027	0.000175	1.753056	0.296976	0.003507
 895	4.4700e-01	8.9362	15.354527	0.000325	3.249568	0.550492	0.006500
 896	4.4750e-01	8.9478	15.387882	0.000334	3.335083	0.564978	0.006671
 897	4.4800e-01	8.9587	15.413539	0.000257	2.565448	0.434599	0.005132
 898	4.4850e-01	8.9667	15.443473	0.000299	2.993023	0.507032	0.005987
 899	4.4900e-01	8.9777	15.492650	0.000492	4.917109	0.832981	0.009835
 900	4.4950e-01	8.9871	15.509755	0.000171	1.710299	0.289732	0.003421
 901	4.5000e-01	8.9978	15.549952	0.000402	4.019202	0.680871	0.008039
 902	4.5050e-01	9.0033	15.575182	0.000252	2.522691	0.427355	0.005046
 903	4.5100e-01	9.0179	15.592287	0.000171	1.710299	0.289732	0.003421
 904	4.5150e-01	9.0253	15.638898	0.000466	4.660564	0.789521	0.009322
 905	4.5200e-01	9.0369	15.644884	0.000060	0.598605	0.101406	0.001197
 906	4.5250e-01	9.0472	15.670542	0.000257	2.565448	0.434599	0.005132
 907	4.5300e-01	9.0564	15.726133	0.000556	5.558471	0.941631	0.011118
 908	4.5350e-01	9.0656	15.738962	0.000128	1.282724	0.217299	0.002566
 909	4.5400e-01	9.0771	15.776165	0.000372	3.719900	0.630168	0.007441
 910	4.5450e-01	9.0869	15.822777	0.000466	4.660564	0.789521	0.009322
 911	4.5500e-01	9.0955	15.827908	0.000051	0.513090	0.086920	0.001026
 912	4.5550e-01	9.1083	15.868533	0.000406	4.061960	0.688115	0.008125
 913	4.5600e-01	9.1174	15.908729	0.000402	4.019202	0.680871	0.008039
 914	4.5650e-01	9.1296	15.895473	-0.000133	-1.325482	-0.224543	-0.002651
 915	4.5700e-01	9.1376	15.951064	0.000556	5.558471	0.941631	0.011118
 916	4.5750e-01	9.1455	15.975011	0.000239	2.394418	0.405625	0.004789
 917	4.5800e-01	9.1583	16.028037	0.000530	5.301926	0.898171	0.010605
 918	4.5850e-01	9.1664	16.028892	0.000009	0.085515	0.014487	0.000171
 919	4.5900e-01	9.1785	16.072937	0.000440	4.404020	0.746061	0.008809
 920	4.5950e-01	9.1882	16.104154	0.000312	3.121295	0.528762	0.006243
 921	4.6000e-01	9.1986	16.108858	0.000047	0.470332	0.079676	0.000941
 922	4.6050e-01	9.2059	16.169581	0.000607	6.071561	1.028550	0.012145
 923	4.6100e-01	9.2169	16.192672	0.000231	2.308903	0.391139	0.004618
 924	4.6150e-01	9.2242	16.222179	0.000295	2.950266	0.499789	0.005901
 925	4.6200e-01	9.2389	16.273066	0.000509	5.088139	0.861954	0.010177
 926	4.6250e-01	9.2499	16.283757	0.000107	1.068937	0.181083	0.002138
 927	4.6300e-01	9.2566	16.300862	0.000171	1.710299	0.289732	0.003421
 928	4.6350e-01	9.2670	16.349183	0.000483	4.831594	0.818494	0.009664
 929	4.6400e-01	9.2749	16.356025	0.000068	0.684120	0.115893	0.001368
 930	4.6450e-01	9.2883	16.400498	0.000445	4.446777	0.753304	0.008895
 931	4.6500e-01	9.2970	16.432998	0.000325	3.249568	0.550492	0.006500
 932	4.6550e-01	9.3066	16.474478	0.000415	4.147475	0.702601	0.008296
 933	4.6600e-01	9.3188	16.497569	0.000231	2.308903	0.391139	0.004618
 934	4.6650e-01	9.3262	16.517240	0.000197	1.966844	0.333192	0.003934
 935	4.6700e-01	9.3396	16.565134	0.000479	4.788837	0.811251	0.009579
 936	4.6750e-01	9.3459	16.581811	0.000167	1.667541	0.282489	0.003335
 937	4.6800e-01	9.3567	16.610035	0.000282	2.821993	0.478059	0.005645
 938	4.6850e-01	9.3661	16.650659	0.000406	4.061960	0.688115	0.008125
 939	4.6900e-01	9.3781	16.672896	0.000222	2.223389	0.376652	0.004447
 940	4.6950e-01	9.3866	16.708816	0.000359	3.591628	0.608438	0.007184
 941	4.7000e-01	9.3958	16.738322	0.000295	2.950266	0.499789	0.005901
 942	4.7050e-01	9.4073	16.764835	0.000265	2.650963	0.449085	0.005303
 943	4.7100e-01	9.4183	16.785789	0.000210	2.095116	0.354922	0.004191
 944	4.7150e-01	9.4263	16.830262	0.000445	4.446777	0.753304	0.008895
 945	4.7200e-01	9.4366	16.843091	0.000128	1.282724	0.217299	0.002566
 946	4.7250e-01	9.4482	16.888846	0.000458	4.575049	0.775034	0.009151
 947	4.7300e-01	9.4568	16.943582	0.000547	5.472956	0.927144	0.010947
 948	4.7350e-01	9.4672	16.948286	0.000047	0.470332	0.079676	0.000941
 949	4.7400e-01	9.4788	16.974799	0.000265	2.650963	0.449085	0.005303
 950	4.7450e-01	9.4855	17.027825	0.000530	5.301926	0.898171	0.010605
 951	4.7500e-01	9.4958	17.044930	0.000171	1.710299	0.289732	0.003421
 952	4.7550e-01	9.5062	17.067594	0.000227	2.266146	0.383896	0.004533
 953	4.7600e-01	9.5172	17.099238	0.000316	3.164053	0.536005	0.006329
 954	4.7650e-01	9.5288	17.136014	0.000368	3.677143	0.622925	0.007355
 955	4.7700e-01	9.5392	17.136441	0.000004	0.042757	0.007243	0.000086
 956	4.7750e-01	9.5462	17.180914	0.000445	4.446777	0.753304	0.008895
 957	4.7800e-01	9.5563	17.236933	0.000560	5.601229	0.948874	0.011204
 958	4.7850e-01	9.5667	17.251900	0.000150	1.496511	0.253516	0.002993
 959	4.7900e-01	9.5789	17.283972	0.000321	3.206810	0.543248	0.006414
 960	4.7950e-01	9.5880	17.327590	0.000436	4.361262	0.738818	0.008724
 961	4.8000e-01	9.5953	17.331866	0.000043	0.427575	0.072433	0.000855
 962	4.8050e-01	9.6075	17.384892	0.000530	5.301926	0.898171	0.010605
 963	4.8100e-01	9.6210	17.400286	0.000154	1.539269	0.260759	0.003079
 964	4.8150e-01	9.6265	17.442621	0.000423	4.232990	0.717088	0.008467
 965	4.8200e-01	9.6381	17.469134	0.000265	2.650963	0.449085	0.005303
 966	4.8250e-01	9.6478	17.500351	0.000312	3.121295	0.528762	0.006243
 967	4.8300e-01	9.6564	17.527291	0.000269	2.693721	0.456329	0.005388
 968	4.8350e-01	9.6652	17.558508	0.000312	3.121295	0.528762	0.006243
 969	4.8400e-01	9.6747	17.599987	0.000415	4.147475	0.702601	0.008296
 970	4.8450e-01	9.6875	17.613244	0.000133	1.325482	0.224543	0.002651
 971	4.8500e-01	9.6967	17.634625	0.000214	2.137874	0.362166	0.004276
 972	4.8550e-01	9.7040	17.693210	0.000586	5.857774	0.992334	0.011717
 973	4.8600e-01	9.7177	17.706466	0.000133	1.325482	0.224543	0.002651
 974	4.8650e-01	9.7253	17.750939	0.000445	4.446777	0.753304	0.008895
 975	4.8700e-01	9.7357	17.771893	0.000210	2.095116	0.354922	0.004191
 976	4.8750e-01	9.7461	17.789425	0.000175	1.753056	0.296976	0.003507
 977	4.8800e-01	9.7546	17.858273	0.000688	6.883953	1.166173	0.013770
 978	4.8850e-01	9.7656	17.871957	0.000137	1.368239	0.231786	0.002737
 979	4.8900e-01	9.7772	17.907022	0.000351	3.506113	0.593952	0.007013
 980	4.8950e-01	9.7845	17.933535	0.000265	2.650963	0.449085	0.005303
 981	4.9000e-01	9.7968	17.953633	0.000201	2.009601	0.340436	0.004020
 982	4.9050e-01	9.8083	18.003238	0.000496	4.959867	0.840224	0.009921
 983	4.9100e-01	9.8151	18.016067	0.000128	1.282724	0.217299	0.002566
 984	4.9150e-01	9.8309	18.054553	0.000385	3.848172	0.651898	0.007697
 985	4.9200e-01	9.8383	18.066526	0.000120	1.197209	0.202813	0.002395
 986	4.9250e-01	9.8450	18.122118	0.000556	5.558471	0.941631	0.011118
 987	4.9300e-01	9.8547	18.151624	0.000295	2.950266	0.499789	0.005901
 988	4.9350e-01	9.8657	18.196524	0.000449	4.489534	0.760548	0.008980
 989	4.9400e-01	9.8761	18.214912	0.000184	1.838571	0.311462	0.003678
 990	4.9450e-01	9.8865	18.240142	0.000252	2.522691	0.427355	0.005046
 991	4.9500e-01	9.8969	18.276918	0.000368	3.677143	0.622925	0.007355
 992	4.9550e-01	9.9026	18.293168	0.000162	1.624784	0.275246	0.003250
 993	4.9600e-01	9.9170	18.325667	0.000325	3.249568	0.550492	0.006500
 994	4.9650e-01	9.9268	18.364154	0.000385	3.848172	0.651898	0.007697
 995	4.9700e-01	9.9365	18.389811	0.000257	2.565448	0.434599	0.005132
 996	4.9750e-01	9.9463	18.432146	0.000423	4.232990	0.717088	0.008467
 997	4.9800e-01	9.9548	18.462935	0.000308	3.078538	0.521518	0.006158
 998	4.9850e-01	9.9661	18.490731	0.000278	2.779236	0.470815	0.005559
 999	4.9900e-01	9.9756	18.533493	0.000428	4.275747	0.724331	0.008553
1000	4.9950e-01	9.9835	18.568131	0.000346	3.463355	0.586708	0.006928
1001	5.0000e-01	9.9982	18.575828	0.000077	0.769634	0.130380	0.001539
1002	5.0050e-01	9.9884	18.561289	0.000145	1.453754	0.246273	-0.002908
1003	5.0100e-01	9.9756	18.520664	0.000406	4.061960	0.688115	-0.008125
1004	5.0150e-01	9.9622	18.525368	-0.000047	-0.470332	-0.079676	0.000941
1005	5.0200e-01	9.9573	18.495435	0.000299	2.993023	0.507032	-0.005987
1006	5.0250e-01	9.9475	18.482606	0.000128	1.282724	0.217299	-0.002566
1007	5.0300e-01	9.9365	18.469349	0.000133	1.325482	0.224543	-0.002651
1008	5.0350e-01	9.9261	18.447541	0.000218	2.180631	0.369409	-0.004362
1009	5.0400e-01	9.9158	18.433001	0.000145	1.453754	0.246273	-0.002908
1010	5.0450e-01	9.9054	18.414613	0.000184	1.838571	0.311462	-0.003678
1011	5.0500e-01	9.8956	18.375272	0.000393	3.933687	0.666385	-0.007868
1012	5.0550e-01	9.8859	18.370996	0.000043	0.427575	0.072433	-0.000855
1013	5.0600e-01	9.8737	18.354746	0.000162	1.624784	0.275246	-0.003250
1014	5.0650e-01	9.8676	18.335930	0.000188	1.881329	0.318706	-0.003763
1015	5.0700e-01	9.8547	18.301720	0.000342	3.420598	0.579465	-0.006842
1016	5.0750e-01	9.8468	18.270504	0.000312	3.121295	0.528762	-0.006243
1017	5.0800e-01	9.8370	18.282477	-0.000120	-1.197209	-0.202813	0.002395
1018	5.0850e-01	9.8260	18.245274	0.000372	3.719900	0.630168	-0.007441
1019	5.0900e-01	9.8151	18.252971	-0.000077	-0.769634	-0.130380	0.001539
1020	5.0950e-01	9.8035	18.235438	0.000175	1.753056	0.296976	-0.003507
1021	5.1000e-01	9.7949	18.193531	0.000419	4.190232	0.709845	-0.008381
1022	5.1050e-01	9.7864	18.181558	0.000120	1.197209	0.202813	-0.002395
1023	5.1100e-01	9.7766	18.163597	0.000180	1.795814	0.304219	-0.003592
1024	5.1150e-01	9.7668	18.160604	0.000030	0.299302	0.050703	-0.000599
1025	5.1200e-01	9.7574	18.092612	0.000680	6.798438	1.151687	-0.013598
1026	5.1250e-01	9.7449	18.092612	-0.000000	-0.000000	-0.000000	0.000000
1027	5.1300e-01	9.7366	18.066526	0.000261	2.608206	0.441842	-0.005217
1028	5.1350e-01	9.7278	18.060112	0.000064	0.641362	0.108650	-0.001283
1029	5.1400e-01	9.7186	18.044290	0.000158	1.582026	0.268003	-0.003164
1030	5.1450e-01	9.7052	17.999817	0.000445	4.446777	0.753304	-0.008895
1031	5.1500e-01	9.6948	17.983567	0.000162	1.624784	0.275246	-0.003250
1032	5.1550e-01	9.6851	17.984850	-0.000013	-0.128272	-0.021730	0.000257
1033	5.1600e-01	9.6744	17.963041	0.000218	2.180631	0.369409	-0.004362
1034	5.1650e-01	9.6674	17.942087	0.000210	2.095116	0.354922	-0.004191
1035	5.1700e-01	9.6558	17.926693	0.000154	1.539269	0.260759	-0.003079
1036	5.1750e-01	9.6472	17.892911	0.000338	3.377840	0.572222	-0.006756
1037	5.1800e-01	9.6362	17.876661	0.000162	1.624784	0.275246	-0.003250
1038	5.1850e-01	9.6252	17.847582	0.000291	2.907508	0.492545	-0.005816
1039	5.1900e-01	9.6143	17.810379	0.000372	3.719900	0.630168	-0.007441
1040	5.1950e-01	9.6045	17.786432	0.000239	2.394418	0.405625	-0.004789
1041	5.2000e-01	9.5953	17.797122	-0.000107	-1.068937	-0.181083	0.002138
1042	5.2050e-01	9.5844	17.757353	0.000398	3.976445	0.673628	-0.007954
1043	5.2100e-01	9.5782	17.732979	0.000244	2.437176	0.412869	-0.004875
1044	5.2150e-01	9.5636	17.709887	0.000231	2.308903	0.391139	-0.004618
1045	5.2200e-01	9.5563	17.694920	0.000150	1.496511	0.253516	-0.002993
1046	5.2250e-01	9.5483	17.695775	-0.000009	-0.085515	-0.014487	0.000171
1047	5.2300e-01	9.5355	17.644033	0.000517	5.173654	0.876441	-0.010349
1048	5.2350e-01	9.5258	17.626500	0.000175	1.753056	0.296976	-0.003507
1049	5.2400e-01	9.5154	17.608540	0.000180	1.795814	0.304219	-0.003592
1050	5.2450e-01	9.5074	17.572192	0.000363	3.634385	0.615681	-0.007270
1051	5.2500e-01	9.4965	17.575613	-0.000034	-0.342060	-0.057946	0.000684
1052	5.2550e-01	9.4843	17.524298	0.000513	5.130897	0.869197	-0.010263
1053	5.2600e-01	9.4781	17.532422	-0.000081	-0.812392	-0.137623	0.001625
1054	5.2650e-01	9.4644	17.510186	0.000222	2.223389	0.376652	-0.004447
1055	5.2700e-01	9.4562	17.490943	0.000192	1.924086	0.325949	-0.003849
1056	5.2750e-01	9.4458	17.467423	0.000235	2.351661	0.398382	-0.004704
1057	5.2800e-01	9.4354	17.453739	0.000137	1.368239	0.231786	-0.002737
1058	5.2850e-01	9.4254	17.413970	0.000398	3.976445	0.673628	-0.007954
1059	5.2900e-01	9.4183	17.388740	0.000252	2.522691	0.427355	-0.005046
1060	5.2950e-01	9.4037	17.375912	0.000128	1.282724	0.217299	-0.002566
1061	5.3000e-01	9.3945	17.349826	0.000261	2.608206	0.441842	-0.005217
1062	5.3050e-01	9.3896	17.297229	0.000526	5.259169	0.890927	-0.010520
1063	5.3100e-01	9.3750	17.288248	0.000090	0.897907	0.152110	-0.001796
1064	5.3150e-01	9.3655	17.281406	0.000068	0.684120	0.115893	-0.001368
1065	5.3200e-01	9.3549	17.239499	0.000419	4.190232	0.709845	-0.008381
1066	5.3250e-01	9.3466	17.210421	0.000291	2.907508	0.492545	-0.005816
1067	5.3300e-01	9.3347	17.213842	-0.000034	-0.342060	-0.057946	0.000684
1068	5.3350e-01	9.3274	17.177493	0.000363	3.634385	0.615681	-0.007270
1069	5.3400e-01	9.3146	17.134731	0.000428	4.275747	0.724331	-0.008553
1070	5.3450e-01	9.3103	17.153119	-0.000184	-1.838571	-0.311462	0.003678
1071	5.3500e-01	9.2969	17.101376	0.000517	5.173654	0.876441	-0.010349
1072	5.3550e-01	9.2853	17.058614	0.000428	4.275747	0.724331	-0.008553
1073	5.3600e-01	9.2755	17.059469	-0.000009	-0.085515	-0.014487	0.000171
1074	5.3650e-01	9.2657	17.041509	0.000180	1.795814	0.304219	-0.003592
1075	5.3700e-01	9.2590	17.031673	0.000098	0.983422	0.166596	-0.001967
1076	5.3750e-01	9.2456	16.979075	0.000526	5.259169	0.890927	-0.010520
1077	5.3800e-01	9.2352	16.957266	0.000218	2.180631	0.369409	-0.004362
1078	5.3850e-01	9.2285	16.944865	0.000124	1.239967	0.210056	-0.002480
1079	5.3900e-01	9.2157	16.930326	0.000145	1.453754	0.246273	-0.002908
1080	5.3950e-01	9.2078	16.891412	0.000389	3.890930	0.659141	-0.007783
1081	5.4000e-01	9.1969	16.870031	0.000214	2.137874	0.362166	-0.004276
1082	5.4050e-01	9.1876	16.852926	0.000171	1.710299	0.289732	-0.003421
1083	5.4100e-01	9.1763	16.840525	0.000124	1.239967	0.210056	-0.002480
1084	5.4150e-01	9.1666	16.807170	0.000334	3.335083	0.564978	-0.006671
1085	5.4200e-01	9.1559	16.778947	0.000282	2.821993	0.478059	-0.005645
1086	5.4250e-01	9.1437	16.744309	0.000346	3.463355	0.586708	-0.006928
1087	5.4300e-01	9.1327	16.735757	0.000086	0.855149	0.144866	-0.001711
1088	5.4350e-01	9.1254	16.699408	0.000363	3.634385	0.615681	-0.007270
1089	5.4400e-01	9.1156	16.697698	0.000017	0.171030	0.028973	-0.000342
1090	5.4450e-01	9.1034	16.667764	0.000299	2.993023	0.507032	-0.005987
1091	5.4500e-01	9.0991	16.645100	0.000227	2.266146	0.383896	-0.004533
1092	5.4550e-01	9.0869	16.604048	0.000410	4.104717	0.695358	-0.008210
1093	5.4600e-01	9.0784	16.580101	0.000239	2.394418	0.405625	-0.004789
1094	5.4650e-01	9.0643	16.566845	0.000133	1.325482	0.224543	-0.002651
1095	5.4700e-01	9.0552	16.563424	0.000034	0.342060	0.057946	-0.000684
1096	5.4750e-01	9.0466	16.513391	0.000500	5.002624	0.847467	-0.010006
1097	5.4800e-01	9.0405	16.507405	0.000060	0.598605	0.101406	-0.001197
1098	5.4850e-01	9.0262	16.466780	0.000406	4.061960	0.688115	-0.008125
1099	5.4900e-01	9.0173	16.447110	0.000197	1.966844	0.333192	-0.003934
1100	5.4950e-01	9.0070	16.423162	0.000239	2.394418	0.405625	-0.004789
1101	5.5000e-01	8.9954	16.409906	0.000133	1.325482	0.224543	-0.002651
1102	5.5050e-01	8.9850	16.358591	0.000513	5.130897	0.869197	-0.010263
1103	5.5100e-01	8.9771	16.348756	0.000098	0.983422	0.166596	-0.001967
1104	5.5150e-01	8.9661	16.318822	0.000299	2.993023	0.507032	-0.005987
1105	5.5200e-01	8.9557	16.294447	0.000244	2.437176	0.412869	-0.004875
1106	5.5250e-01	8.9447	16.290599	0.000038	0.384817	0.065190	-0.000770
1107	5.5300e-01	8.9362	16.244415	0.000462	4.617807	0.782278	-0.009237
1108	5.5350e-01	8.9270	16.217902	0.000265	2.650963	0.449085	-0.005303
1109	5.5400e-01	8.9191	16.204646	0.000133	1.325482	0.224543	-0.002651
1110	5.5450e-01	8.9066	16.178133	0.000265	2.650963	0.449085	-0.005303
1111	5.5500e-01	8.8953	16.163594	0.000145	1.453754	0.246273	-0.002908
1112	5.5550e-01	8.8867	16.122542	0.000410	4.104717	0.695358	-0.008210
1113	5.5600e-01	8.8783	16.119549	0.000030	0.299302	0.050703	-0.000599
1114	5.5650e-01	8.8660	16.076358	0.000432	4.318505	0.731574	-0.008638
1115	5.5700e-01	8.8568	16.050701	0.000257	2.565448	0.434599	-0.005132
1116	5.5750e-01	8.8483	16.023760	0.000269	2.693721	0.456329	-0.005388
1117	5.5800e-01	8.8358	16.010076	0.000137	1.368239	0.231786	-0.002737
1118	5.5850e-01	8.8260	15.982708	0.000274	2.736478	0.463572	-0.005474
1119	5.5900e-01	8.8153	15.983136	-0.000004	-0.042757	-0.007243	0.000086
1120	5.5950e-01	8.8080	15.931821	0.000513	5.130897	0.869197	-0.010263
1121	5.6000e-01	8.7964	15.907446	0.000244	2.437176	0.412869	-0.004875
1122	5.6050e-01	8.7878	15.892907	0.000145	1.453754	0.246273	-0.002908
1123	5.6100e-01	8.7775	15.861263	0.000316	3.164053	0.536005	-0.006329
1124	5.6150e-01	8.7668	15.838599	0.000227	2.266146	0.383896	-0.004533
1125	5.6200e-01	8.7598	15.802251	0.000363	3.634385	0.615681	-0.007270
1126	5.6250e-01	8.7466	15.768896	0.000334	3.335083	0.564978	-0.006671
1127	5.6300e-01	8.7360	15.756067	0.000128	1.282724	0.217299	-0.002566
1128	5.6350e-01	8.7274	15.740673	0.000154	1.539269	0.260759	-0.003079
1129	5.6400e-01	8.7177	15.703042	0.000376	3.762657	0.637411	-0.007526
1130	5.6450e-01	8.7073	15.682088	0.000210	2.095116	0.354922	-0.004191
1131	5.6500e-01	8.6966	15.647023	0.000351	3.506113	0.593952	-0.007013
1132	5.6550e-01	8.6880	15.636332	0.000107	1.068937	0.181083	-0.002138
1133	5.6600e-01	8.6755	15.593997	0.000423	4.232990	0.717088	-0.008467
1134	5.6650e-01	8.6670	15.565774	0.000282	2.821993	0.478059	-0.005645
1135	5.6700e-01	8.6572	15.549952	0.000158	1.582026	0.268003	-0.003164
1136	5.6750e-01	8.6450	15.523439	0.000265	2.650963	0.449085	-0.005303
1137	5.6800e-01	8.6365	15.499064	0.000244	2.437176	0.412869	-0.004875
1138	5.6850e-01	8.6258	15.484525	0.000145	1.453754	0.246273	-0.002908
1139	5.6900e-01	8.6179	15.446894	0.000376	3.762657	0.637411	-0.007526
1140	5.6950e-01	8.6060	15.441762	0.000051	0.513090	0.086920	-0.001026
1141	5.7000e-01	8.5968	15.396007	0.000458	4.575049	0.775034	-0.009151
1142	5.7050e-01	8.5870	15.381895	0.000141	1.410997	0.239029	-0.002822
1143	5.7100e-01	8.5754	15.355382	0.000265	2.650963	0.449085	-0.005303
1144	5.7150e-01	8.5666	15.328442	0.000269	2.693721	0.456329	-0.005388
1145	5.7200e-01	8.5553	15.302357	0.000261	2.608206	0.441842	-0.005217
1146	5.7250e-01	8.5486	15.268574	0.000338	3.377840	0.572222	-0.006756
1147	5.7300e-01	8.5370	15.247193	0.000214	2.137874	0.362166	-0.004276
1148	5.7350e-01	8.5254	15.236930	0.000103	1.026179	0.173839	-0.002053
1149	5.7400e-01	8.5184	15.204858	0.000321	3.206810	0.543248	-0.006414
1150	5.7450e-01	8.5052	15.185187	0.000197	1.966844	0.333192	-0.003934
1151	5.7500e-01	8.4943	15.147129	0.000381	3.805415	0.644655	-0.007612
1152	5.7550e-01	8.4869	15.111208	0.000359	3.591628	0.608438	-0.007184
1153	5.7600e-01	8.4772	15.093248	0.000180	1.795814	0.304219	-0.003592
1154	5.7650e-01	8.4698	15.065880	0.000274	2.736478	0.463572	-0.005474
1155	5.7700e-01	8.4564	15.040650	0.000252	2.522691	0.427355	-0.005046
1156	5.7750e-01	8.4485	15.016275	0.000244	2.437176	0.412869	-0.004875
1157	5.7800e-01	8.4399	14.987197	0.000291	2.907508	0.492545	-0.005816
1158	5.7850e-01	8.4259	14.976934	0.000103	1.026179	0.173839	-0.002053
1159	5.7900e-01	8.4146	14.930323	0.000466	4.660564	0.789521	-0.009322
1160	5.7950e-01	8.4070	14.923908	0.000064	0.641362	0.108650	-0.001283
1161	5.8000e-01	8.3961	14.885850	0.000381	3.805415	0.644655	-0.007612
1162	5.8050e-01	8.3850	14.874304	0.000115	1.154452	0.195569	-0.002309
1163	5.8100e-01	8.3759	14.835817	0.000385	3.848172	0.651898	-0.007697
1164	5.8150e-01	8.3667	14.811870	0.000239	2.394418	0.405625	-0.004789
1165	5.8200e-01	8.3575	14.785358	0.000265	2.650963	0.449085	-0.005303
1166	5.8250e-01	8.3456	14.760128	0.000252	2.522691	0.427355	-0.005046
1167	5.8300e-01	8.3368	14.730194	0.000299	2.993023	0.507032	-0.005987
1168	5.8350e-01	8.3267	14.702826	0.000274	2.736478	0.463572	-0.005474
1169	5.8400e-01	8.3176	14.665195	0.000376	3.762657	0.637411	-0.007526
1170	5.8450e-01	8.3081	14.653649	0.000115	1.154452	0.195569	-0.002309
1171	5.8500e-01	8.2986	14.627136	0.000265	2.650963	0.449085	-0.005303
1172	5.8550e-01	8.2861	14.590361	0.000368	3.677143	0.622925	-0.007355
1173	5.8600e-01	8.2751	14.574538	0.000158	1.582026	0.268003	-0.003164
1174	5.8650e-01	8.2666	14.550164	0.000244	2.437176	0.412869	-0.004875
1175	5.8700e-01	8.2570	14.537763	0.000124	1.239967	0.210056	-0.002480
1176	5.8750e-01	8.2477	14.490724	0.000470	4.703322	0.796764	-0.009408
1177	5.8800e-01	8.2404	14.466349	0.000244	2.437176	0.412869	-0.004875
1178	5.8850e-01	8.2263	14.445396	0.000210	2.095116	0.354922	-0.004191
1179	5.8900e-01	8.2166	14.419738	0.000257	2.565448	0.434599	-0.005132
1180	5.8950e-01	8.2050	14.397502	0.000222	2.223389	0.376652	-0.004447
1181	5.9000e-01	8.1961	14.360298	0.000372	3.719900	0.630168	-0.007441
1182	5.9050e-01	8.1839	14.335496	0.000248	2.479933	0.420112	-0.004960
1183	5.9100e-01	8.1775	14.301713	0.000338	3.377840	0.572222	-0.006756
1184	5.9150e-01	8.1662	14.272207	0.000295	2.950266	0.499789	-0.005901
1185	5.9200e-01	8.1567	14.274773	-0.000026	-0.256545	-0.043460	0.000513
1186	5.9250e-01	8.1482	14.214050	0.000607	6.071561	1.028550	-0.012145
1187	5.9300e-01	8.1366	14.212767	0.000013	0.128272	0.021730	-0.000257
1188	5.9350e-01	8.1277	14.180268	0.000325	3.249568	0.550492	-0.006500
1189	5.9400e-01	8.1180	14.143492	0.000368	3.677143	0.622925	-0.007355
1190	5.9450e-01	8.1073	14.115269	0.000282	2.821993	0.478059	-0.005645
1191	5.9500e-01	8.0975	14.092177	0.000231	2.308903	0.391139	-0.004618
1192	5.9550e-01	8.0878	14.066947	0.000252	2.522691	0.427355	-0.005046
1193	5.9600e-01	8.0765	14.038296	0.000286	2.864751	0.485302	-0.005730
1194	5.9650e-01	8.0652	14.008363	0.000299	2.993023	0.507032	-0.005987
1195	5.9700e-01	8.0560	13.989547	0.000188	1.881329	0.318706	-0.003763
1196	5.9750e-01	8.0487	13.955337	0.000342	3.420598	0.579465	-0.006842
1197	5.9800e-01	8.0374	13.956620	-0.000013	-0.128272	-0.021730	0.000257
1198	5.9850e-01	8.0264	13.896325	0.000603	6.028803	1.021307	-0.012059
1199	5.9900e-01	8.0157	13.897180	-0.000009	-0.085515	-0.014487	0.000171
1200	5.9950e-01	8.0048	13.868957	0.000282	2.821993	0.478059	-0.005645
1201	6.0000e-01	7.9974	13.833036	0.000359	3.591628	0.608438	-0.007184
1202	6.0050e-01	7.9883	13.815076	0.000180	1.795814	0.304219	-0.003592
1203	6.0100e-01	7.9764	13.787280	0.000278	2.779236	0.470815	-0.005559
1204	6.0150e-01	7.9669	13.766327	0.000210	2.095116	0.354922	-0.004191
1205	6.0200e-01	7.9555	13.739814	0.000265	2.650963	0.449085	-0.005303
1206	6.0250e-01	7.9456	13.707314	0.000325	3.249568	0.550492	-0.006500
1207	6.0300e-01	7.9364	13.681657	0.000257	2.565448	0.434599	-0.005132
1208	6.0350e-01	7.9276	13.626066	0.000556	5.558471	0.941631	-0.011118
1209	6.0400e-01	7.9163	13.620079	0.000060	0.598605	0.101406	-0.001197
1210	6.0450e-01	7.9095	13.575178	0.000449	4.489534	0.760548	-0.008980
1211	6.0500e-01	7.8949	13.559784	0.000154	1.539269	0.260759	-0.003079
1212	6.0550e-01	7.8870	13.538402	0.000214	2.137874	0.362166	-0.004276
1213	6.0600e-01	7.8778	13.514028	0.000244	2.437176	0.412869	-0.004875
1214	6.0650e-01	7.8635	13.496495	0.000175	1.753056	0.296976	-0.003507
1215	6.0700e-01	7.8534	13.440049	0.000564	5.643986	0.956117	-0.011289
1216	6.0750e-01	7.8467	13.421661	0.000184	1.838571	0.311462	-0.003678
1217	6.0800e-01	7.8363	13.398997	0.000227	2.266146	0.383896	-0.004533
1218	6.0850e-01	7.8271	13.369490	0.000295	2.950266	0.499789	-0.005901
1219	6.0900e-01	7.8162	13.340840	0.000286	2.864751	0.485302	-0.005730
1220	6.0950e-01	7.8052	13.312189	0.000286	2.864751	0.485302	-0.005730
1221	6.1000e-01	7.7957	13.290807	0.000214	2.137874	0.362166	-0.004276
1222	6.1050e-01	7.7869	13.277979	0.000128	1.282724	0.217299	-0.002566
1223	6.1100e-01	7.7756	13.230085	0.000479	4.788837	0.811251	-0.009579
1224	6.1150e-01	7.7643	13.217683	0.000124	1.239967	0.210056	-0.002480
1225	6.1200e-01	7.7576	13.182191	0.000355	3.548870	0.601195	-0.007099
1226	6.1250e-01	7.7460	13.161665	0.000205	2.052359	0.347679	-0.004105
1227	6.1300e-01	7.7396	13.126172	0.000355	3.548870	0.601195	-0.007099
1228	6.1350e-01	7.7264	13.076139	0.000500	5.002624	0.847467	-0.010006
1229	6.1400e-01	7.7165	13.071863	0.000043	0.427575	0.072433	-0.000855
1230	6.1450e-01	7.7081	13.032522	0.000393	3.933687	0.666385	-0.007868
1231	6.1500e-01	7.6953	13.014134	0.000184	1.838571	0.311462	-0.003678
1232	6.1550e-01	7.6877	12.997884	0.000162	1.624784	0.275246	-0.003250
1233	6.1600e-01	7.6764	12.957687	0.000402	4.019202	0.680871	-0.008039
1234	6.1650e-01	7.6666	12.937589	0.000201	2.009601	0.340436	-0.004020
1235	6.1700e-01	7.6563	12.904662	0.000329	3.292325	0.557735	-0.006585
1236	6.1750e-01	7.6501	12.868314	0.000363	3.634385	0.615681	-0.007270
1237	6.1800e-01	7.6349	12.852919	0.000154	1.539269	0.260759	-0.003079
1238	6.1850e-01	7.6260	12.824268	0.000286	2.864751	0.485302	-0.005730
1239	6.1900e-01	7.6166	12.823413	0.000009	0.085515	0.014487	-0.000171
1240	6.1950e-01	7.6074	12.767394	0.000560	5.601229	0.948874	-0.011204
1241	6.2000e-01	7.5955	12.740026	0.000274	2.736478	0.463572	-0.005474
1242	6.2050e-01	7.5867	12.693415	0.000466	4.660564	0.789521	-0.009322
1243	6.2100e-01	7.5754	12.692132	0.000013	0.128272	0.021730	-0.000257
1244	6.2150e-01	7.5641	12.682297	0.000098	0.983422	0.166596	-0.001967
1245	6.2200e-01	7.5562	12.641672	0.000406	4.061960	0.688115	-0.008125
1246	6.2250e-01	7.5452	12.596772	0.000449	4.489534	0.760548	-0.008980
1247	6.2300e-01	7.5375	12.569404	0.000274	2.736478	0.463572	-0.005474
1248	6.2350e-01	7.5235	12.548022	0.000214	2.137874	0.362166	-0.004276
1249	6.2400e-01	7.5168	12.506543	0.000415	4.147475	0.702601	-0.008296
1250	6.2450e-01	7.5101	12.476609	0.000299	2.993023	0.507032	-0.005987
1251	6.2500e-01	7.4957	12.475326	0.000013	0.128272	0.021730	-0.000257
1252	6.2550e-01	7.4872	12.436412	0.000389	3.890930	0.659141	-0.007783
1253	6.2600e-01	7.4753	12.411610	0.000248	2.479933	0.420112	-0.004960
1254	6.2650e-01	7.4655	12.372268	0.000393	3.933687	0.666385	-0.007868
1255	6.2700e-01	7.4542	12.359012	0.000133	1.325482	0.224543	-0.002651
1256	6.2750e-01	7.4457	12.321808	0.000372	3.719900	0.630168	-0.007441
1257	6.2800e-01	7.4359	12.293158	0.000286	2.864751	0.485302	-0.005730
1258	6.2850e-01	7.4275	12.267928	0.000252	2.522691	0.427355	-0.005046
1259	6.2900e-01	7.4179	12.247829	0.000201	2.009601	0.340436	-0.004020
1260	6.2950e-01	7.4080	12.225165	0.000227	2.266146	0.383896	-0.004533
1261	6.3000e-01	7.3953	12.200363	0.000248	2.479933	0.420112	-0.004960
1262	6.3050e-01	7.3883	12.140068	0.000603	6.028803	1.021307	-0.012059
1263	6.3100e-01	7.3755	12.129377	0.000107	1.068937	0.181083	-0.002138
1264	6.3150e-01	7.3627	12.110134	0.000192	1.924086	0.325949	-0.003849
1265	6.3200e-01	7.3560	12.072503	0.000376	3.762657	0.637411	-0.007526
1266	6.3250e-01	7.3474	12.045990	0.000265	2.650963	0.449085	-0.005303
1267	6.3300e-01	7.3364	12.007932	0.000381	3.805415	0.644655	-0.007612
1268	6.3350e-01	7.3273	11.979708	0.000282	2.821993	0.478059	-0.005645
1269	6.3400e-01	7.3175	11.956189	0.000235	2.351661	0.398382	-0.004704
1270	6.3450e-01	7.3077	11.920268	0.000359	3.591628	0.608438	-0.007184
1271	6.3500e-01	7.2955	11.889052	0.000312	3.121295	0.528762	-0.006243
1272	6.3550e-01	7.2864	11.886486	0.000026	0.256545	0.043460	-0.000513
1273	6.3600e-01	7.2760	11.859973	0.000265	2.650963	0.449085	-0.005303
1274	6.3650e-01	7.2693	11.819776	0.000402	4.019202	0.680871	-0.008039
1275	6.3700e-01	7.2583	11.791553	0.000282	2.821993	0.478059	-0.005645
1276	6.3750e-01	7.2455	11.761192	0.000304	3.035780	0.514275	-0.006072
1277	6.3800e-01	7.2366	11.723133	0.000381	3.805415	0.644655	-0.007612
1278	6.3850e-01	7.2272	11.688495	0.000346	3.463355	0.586708	-0.006928
1279	6.3900e-01	7.2168	11.684647	0.000038	0.384817	0.065190	-0.000770
1280	6.3950e-01	7.2076	11.640601	0.000440	4.404020	0.746061	-0.008809
1281	6.4000e-01	7.1951	11.626917	0.000137	1.368239	0.231786	-0.002737
1282	6.4050e-01	7.1851	11.576030	0.000509	5.088139	0.861954	-0.010177
1283	6.4100e-01	7.1765	11.553366	0.000227	2.266146	0.383896	-0.004533
1284	6.4150e-01	7.1661	11.532412	0.000210	2.095116	0.354922	-0.004191
1285	6.4200e-01	7.1539	11.511886	0.000205	2.052359	0.347679	-0.004105
1286	6.4250e-01	7.1468	11.489222	0.000227	2.266146	0.383896	-0.004533
1287	6.4300e-01	7.1399	11.450736	0.000385	3.848172	0.651898	-0.007697
1288	6.4350e-01	7.1246	11.421230	0.000295	2.950266	0.499789	-0.005901
1289	6.4400e-01	7.1179	11.400704	0.000205	2.052359	0.347679	-0.004105
1290	6.4450e-01	7.1082	11.372908	0.000278	2.779236	0.470815	-0.005559
1291	6.4500e-01	7.0972	11.329718	0.000432	4.318505	0.731574	-0.008638
1292	6.4550e-01	7.0856	11.304916	0.000248	2.479933	0.420112	-0.004960
1293	6.4600e-01	7.0746	11.271988	0.000329	3.292325	0.557735	-0.006585
1294	6.4650e-01	7.0654	11.241199	0.000308	3.078538	0.521518	-0.006158
1295	6.4700e-01	7.0581	11.237351	0.000038	0.384817	0.065190	-0.000770
1296	6.4750e-01	7.0453	11.200575	0.000368	3.677143	0.622925	-0.007355
1297	6.4800e-01	7.0361	11.166365	0.000342	3.420598	0.579465	-0.006842
1298	6.4850e-01	7.0258	11.136004	0.000304	3.035780	0.514275	-0.006072
1299	6.4900e-01	7.0143	11.102221	0.000338	3.377840	0.572222	-0.006756
1300	6.4950e-01	7.0059	11.095807	0.000064	0.641362	0.108650	-0.001283
1301	6.5000e-01	6.9940	11.040216	0.000556	5.558471	0.941631	-0.011118
1302	6.5050e-01	6.9852	11.007288	0.000329	3.292325	0.557735	-0.006585
1303	6.5100e-01	6.9775	10.977355	0.000299	2.993023	0.507032	-0.005987
1304	6.5150e-01	6.9675	10.965809	0.000115	1.154452	0.195569	-0.002309
1305	6.5200e-01	6.9574	10.909362	0.000564	5.643986	0.956117	-0.011289
1306	6.5250e-01	6.9476	10.892685	0.000167	1.667541	0.282489	-0.003335
1307	6.5300e-01	6.9370	10.873442	0.000192	1.924086	0.325949	-0.003849
1308	6.5350e-01	6.9232	10.870021	0.000034	0.342060	0.057946	-0.000684
1309	6.5400e-01	6.9186	10.802028	0.000680	6.798438	1.151687	-0.013598
1310	6.5450e-01	6.9055	10.784068	0.000180	1.795814	0.304219	-0.003592
1311	6.5500e-01	6.8939	10.741733	0.000423	4.232990	0.717088	-0.008467
1312	6.5550e-01	6.8863	10.728904	0.000128	1.282724	0.217299	-0.002566
1313	6.5600e-01	6.8738	10.689990	0.000389	3.890930	0.659141	-0.007783
1314	6.5650e-01	6.8677	10.666899	0.000231	2.308903	0.391139	-0.004618
1315	6.5700e-01	6.8565	10.630123	0.000368	3.677143	0.622925	-0.007355
1316	6.5750e-01	6.8463	10.622853	0.000073	0.726877	0.123136	-0.001454
1317	6.5800e-01	6.8384	10.574104	0.000487	4.874352	0.825738	-0.009750
1318	6.5850e-01	6.8292	10.543315	0.000308	3.078538	0.521518	-0.006158
1319	6.5900e-01	6.8158	10.520223	0.000231	2.308903	0.391139	-0.004618
1320	6.5950e-01	6.8085	10.497131	0.000231	2.308903	0.391139	-0.004618
1321	6.6000e-01	6.7981	10.468908	0.000282	2.821993	0.478059	-0.005645
1322	6.6050e-01	6.7856	10.435126	0.000338	3.377840	0.572222	-0.006756
1323	6.6100e-01	6.7755	10.405620	0.000295	2.950266	0.499789	-0.005901
1324	6.6150e-01	6.7670	10.365850	0.000398	3.976445	0.673628	-0.007954
1325	6.6200e-01	6.7566	10.338482	0.000274	2.736478	0.463572	-0.005474
1326	6.6250e-01	6.7468	10.320095	0.000184	1.838571	0.311462	-0.003678
1327	6.6300e-01	6.7377	10.273056	0.000470	4.703322	0.796764	-0.009408
1328	6.6350e-01	6.7249	10.250819	0.000222	2.223389	0.376652	-0.004447
1329	6.6400e-01	6.7166	10.213188	0.000376	3.762657	0.637411	-0.007526
1330	6.6450e-01	6.7065	10.205919	0.000073	0.726877	0.123136	-0.001454
1331	6.6500e-01	6.6965	10.161446	0.000445	4.446777	0.753304	-0.008895
1332	6.6550e-01	6.6870	10.132367	0.000291	2.907508	0.492545	-0.005816
1333	6.6600e-01	6.6754	10.098585	0.000338	3.377840	0.572222	-0.006756
1334	6.6650e-01	6.6663	10.065658	0.000329	3.292325	0.557735	-0.006585
1335	6.6700e-01	6.6571	10.065658	-0.000000	-0.000000	-0.000000	0.000000
1336	6.6750e-01	6.6452	10.026316	0.000393	3.933687	0.666385	-0.007868
1337	6.6800e-01	6.6376	9.975429	0.000509	5.088139	0.861954	-0.010177
1338	6.6850e-01	6.6266	9.951482	0.000239	2.394418	0.405625	-0.004789
1339	6.6900e-01	6.6174	9.909574	0.000419	4.190232	0.709845	-0.008381
1340	6.6950e-01	6.6055	9.904870	0.000047	0.470332	0.079676	-0.000941
1341	6.7000e-01	6.5967	9.874937	0.000299	2.993023	0.507032	-0.005987
1342	6.7050e-01	6.5866	9.834312	0.000406	4.061960	0.688115	-0.008125
1343	6.7100e-01	6.5784	9.792833	0.000415	4.147475	0.702601	-0.008296
1344	6.7150e-01	6.5662	9.762044	0.000308	3.078538	0.521518	-0.006158
1345	6.7200e-01	6.5582	9.741090	0.000210	2.095116	0.354922	-0.004191
1346	6.7250e-01	6.5472	9.715432	0.000257	2.565448	0.434599	-0.005132
1347	6.7300e-01	6.5375	9.690630	0.000248	2.479933	0.420112	-0.004960
1348	6.7350e-01	6.5247	9.656420	0.000342	3.420598	0.579465	-0.006842
1349	6.7400e-01	6.5186	9.621355	0.000351	3.506113	0.593952	-0.007013
1350	6.7450e-01	6.5051	9.591849	0.000295	2.950266	0.499789	-0.005901
1351	6.7500e-01	6.4978	9.568329	0.000235	2.351661	0.398382	-0.004704
1352	6.7550e-01	6.4844	9.541389	0.000269	2.693721	0.456329	-0.005388
1353	6.7600e-01	6.4774	9.522573	0.000188	1.881329	0.318706	-0.003763
1354	6.7650e-01	6.4661	9.490074	0.000325	3.249568	0.550492	-0.006500
1355	6.7700e-01	6.4578	9.459713	0.000304	3.035780	0.514275	-0.006072
1356	6.7750e-01	6.4462	9.412246	0.000475	4.746079	0.804008	-0.009493
1357	6.7800e-01	6.4362	9.391292	0.000210	2.095116	0.354922	-0.004191
1358	6.7850e-01	6.4288	9.367345	0.000239	2.394418	0.405625	-0.004789
1359	6.7900e-01	6.4194	9.319024	0.000483	4.831594	0.818494	-0.009664
1360	6.7950e-01	6.4059	9.304057	0.000150	1.496511	0.253516	-0.002993
1361	6.8000e-01	6.3968	9.265998	0.000381	3.805415	0.644655	-0.007612
1362	6.8050e-01	6.3876	9.223236	0.000428	4.275747	0.724331	-0.008553
1363	6.8100e-01	6.3782	9.240768	-0.000175	-1.753056	-0.296976	0.003507
1364	6.8150e-01	6.3666	9.170210	0.000705	7.054983	1.195146	-0.014112
1365	6.8200e-01	6.3570	9.154816	0.000154	1.539269	0.260759	-0.003079
1366	6.8250e-01	6.3489	9.100935	0.000539	5.387441	0.912657	-0.010776
1367	6.8300e-01	6.3361	9.113764	-0.000128	-1.282724	-0.217299	0.002566
1368	6.8350e-01	6.3254	9.036363	0.000774	7.739102	1.311039	-0.015480
1369	6.8400e-01	6.3159	9.029521	0.000068	0.684120	0.115893	-0.001368
1370	6.8450e-01	6.3077	9.000871	0.000286	2.864751	0.485302	-0.005730
1371	6.8500e-01	6.2961	8.983338	0.000175	1.753056	0.296976	-0.003507
1372	6.8550e-01	6.2892	8.928602	0.000547	5.472956	0.927144	-0.010947
1373	6.8600e-01	6.2787	8.905510	0.000231	2.308903	0.391139	-0.004618
1374	6.8650e-01	6.2680	8.882846	0.000227	2.266146	0.383896	-0.004533
1375	6.8700e-01	6.2579	8.833669	0.000492	4.917109	0.832981	-0.009835
1376	6.8750e-01	6.2469	8.798176	0.000355	3.548870	0.601195	-0.007099
1377	6.8800e-01	6.2387	8.786203	0.000120	1.197209	0.202813	-0.002395
1378	6.8850e-01	6.2259	8.735315	0.000509	5.088139	0.861954	-0.010177
1379	6.8900e-01	6.2152	8.714789	0.000205	2.052359	0.347679	-0.004105
1380	6.8950e-01	6.2042	8.689559	0.000252	2.522691	0.427355	-0.005046
1381	6.9000e-01	6.1975	8.661764	0.000278	2.779236	0.470815	-0.005559
1382	6.9050e-01	6.1877	8.621139	0.000406	4.061960	0.688115	-0.008125
1383	6.9100e-01	6.1786	8.598048	0.000231	2.308903	0.391139	-0.004618
1384	6.9150e-01	6.1667	8.554857	0.000432	4.318505	0.731574	-0.008638
1385	6.9200e-01	6.1554	8.541601	0.000133	1.325482	0.224543	-0.002651
1386	6.9250e-01	6.1462	8.502260	0.000393	3.933687	0.666385	-0.007868
1387	6.9300e-01	6.1346	8.484727	0.000175	1.753056	0.296976	-0.003507
1388	6.9350e-01	6.1267	8.429136	0.000556	5.558471	0.941631	-0.011118
1389	6.9400e-01	6.1163	8.406044	0.000231	2.308903	0.391139	-0.004618
1390	6.9450e-01	6.1069	8.385518	0.000205	2.052359	0.347679	-0.004105
1391	6.9500e-01	6.0968	8.354301	0.000312	3.121295	0.528762	-0.006243
1392	6.9550e-01	6.0895	8.312394	0.000419	4.190232	0.709845	-0.008381
1393	6.9600e-01	6.0748	8.296999	0.000154	1.539269	0.260759	-0.003079
1394	6.9650e-01	6.0669	8.267493	0.000295	2.950266	0.499789	-0.005901
1395	6.9700e-01	6.0565	8.233283	0.000342	3.420598	0.579465	-0.006842
1396	6.9750e-01	6.0480	8.203777	0.000295	2.950266	0.499789	-0.005901
1397	6.9800e-01	6.0388	8.161015	0.000428	4.275747	0.724331	-0.008553
1398	6.9850e-01	6.0260	8.144337	0.000167	1.667541	0.282489	-0.003335
1399	6.9900e-01	6.0138	8.116969	0.000274	2.736478	0.463572	-0.005474
1400	6.9950e-01	6.0037	8.085325	0.000316	3.164053	0.536005	-0.006329
1401	7.0000e-01	5.9967	8.028878	0.000564	5.643986	0.956117	-0.011289
1402	7.0050e-01	5.9833	8.021181	0.000077	0.769634	0.130380	-0.001539
1403	7.0100e-01	5.9760	7.958748	0.000624	6.242591	1.057524	-0.012487
1404	7.0150e-01	5.9653	7.918551	0.000402	4.019202	0.680871	-0.008039
1405	7.0200e-01	5.9546	7.912564	0.000060	0.598605	0.101406	-0.001197
1406	7.0250e-01	5.9442	7.897597	0.000150	1.496511	0.253516	-0.002993
1407	7.0300e-01	5.9363	7.856973	0.000406	4.061960	0.688115	-0.008125
1408	7.0350e-01	5.9277	7.823191	0.000338	3.377840	0.572222	-0.006756
1409	7.0400e-01	5.9174	7.789408	0.000338	3.377840	0.572222	-0.006756
1410	7.0450e-01	5.9052	7.768455	0.000210	2.095116	0.354922	-0.004191
1411	7.0500e-01	5.8955	7.715857	0.000526	5.259169	0.890927	-0.010520
1412	7.0550e-01	5.8850	7.695331	0.000205	2.052359	0.347679	-0.004105
1413	7.0600e-01	5.8771	7.672666	0.000227	2.266146	0.383896	-0.004533
1414	7.0650e-01	5.8676	7.634180	0.000385	3.848172	0.651898	-0.007697
1415	7.0700e-01	5.8575	7.586286	0.000479	4.788837	0.811251	-0.009579
1416	7.0750e-01	5.8463	7.577734	0.000086	0.855149	0.144866	-0.001711
1417	7.0800e-01	5.8380	7.540103	0.000376	3.762657	0.637411	-0.007526
1418	7.0850e-01	5.8273	7.507603	0.000325	3.249568	0.550492	-0.006500
1419	7.0900e-01	5.8156	7.491353	0.000162	1.624784	0.275246	-0.003250
1420	7.0950e-01	5.8051	7.449018	0.000423	4.232990	0.717088	-0.008467
1421	7.1000e-01	5.7983	7.400697	0.000483	4.831594	0.818494	-0.009664
1422	7.1050e-01	5.7849	7.373329	0.000274	2.736478	0.463572	-0.005474
1423	7.1100e-01	5.7758	7.341685	0.000316	3.164053	0.536005	-0.006329
1424	7.1150e-01	5.7654	7.322014	0.000197	1.966844	0.333192	-0.003934
1425	7.1200e-01	5.7553	7.280106	0.000419	4.190232	0.709845	-0.008381
1426	7.1250e-01	5.7460	7.248462	0.000316	3.164053	0.536005	-0.006329
1427	7.1300e-01	5.7367	7.208693	0.000398	3.976445	0.673628	-0.007954
1428	7.1350e-01	5.7253	7.189450	0.000192	1.924086	0.325949	-0.003849
1429	7.1400e-01	5.7162	7.169779	0.000197	1.966844	0.333192	-0.003934
1430	7.1450e-01	5.7065	7.118037	0.000517	5.173654	0.876441	-0.010349
1431	7.1500e-01	5.6946	7.105635	0.000124	1.239967	0.210056	-0.002480
1432	7.1550e-01	5.6873	7.043630	0.000620	6.199833	1.050280	-0.012401
1433	7.1600e-01	5.6747	7.013696	0.000299	2.993023	0.507032	-0.005987
1434	7.1650e-01	5.6659	6.998301	0.000154	1.539269	0.260759	-0.003079
1435	7.1700e-01	5.6531	6.959388	0.000389	3.890930	0.659141	-0.007783
1436	7.1750e-01	5.6464	6.926888	0.000325	3.249568	0.550492	-0.006500
1437	7.1800e-01	5.6354	6.896527	0.000304	3.035780	0.514275	-0.006072
1438	7.1850e-01	5.6256	6.874290	0.000222	2.223389	0.376652	-0.004447
1439	7.1900e-01	5.6140	6.833238	0.000410	4.104717	0.695358	-0.008210
1440	7.1950e-01	5.6052	6.806725	0.000265	2.650963	0.449085	-0.005303
1441	7.2000e-01	5.5975	6.775936	0.000308	3.078538	0.521518	-0.006158
1442	7.2050e-01	5.5841	6.730180	0.000458	4.575049	0.775034	-0.009151
1443	7.2100e-01	5.5768	6.703240	0.000269	2.693721	0.456329	-0.005388
1444	7.2150e-01	5.5652	6.671596	0.000316	3.164053	0.536005	-0.006329
1445	7.2200e-01	5.5566	6.627123	0.000445	4.446777	0.753304	-0.008895
1446	7.2250e-01	5.5469	6.592057	0.000351	3.506113	0.593952	-0.007013
1447	7.2300e-01	5.5356	6.562124	0.000299	2.993023	0.507032	-0.005987
1448	7.2350e-01	5.5237	6.561268	0.000009	0.085515	0.014487	-0.000171
1449	7.2400e-01	5.5167	6.501401	0.000599	5.986046	1.014064	-0.011974
1450	7.2450e-01	5.5054	6.483868	0.000175	1.753056	0.296976	-0.003507
1451	7.2500e-01	5.4974	6.439823	0.000440	4.404020	0.746061	-0.008809
1452	7.2550e-01	5.4843	6.428705	0.000111	1.111694	0.188326	-0.002224
1453	7.2600e-01	5.4749	6.391074	0.000376	3.762657	0.637411	-0.007526
1454	7.2650e-01	5.4651	6.352587	0.000385	3.848172	0.651898	-0.007697
1455	7.2700e-01	5.4587	6.305976	0.000466	4.660564	0.789521	-0.009322
1456	7.2750e-01	5.4492	6.287161	0.000188	1.881329	0.318706	-0.003763
1457	7.2800e-01	5.4349	6.237984	0.000492	4.917109	0.832981	-0.009835
1458	7.2850e-01	5.4272	6.225583	0.000124	1.239967	0.210056	-0.002480
1459	7.2900e-01	5.4156	6.176406	0.000492	4.917109	0.832981	-0.009835
1460	7.2950e-01	5.4059	6.162294	0.000141	1.410997	0.239029	-0.002822
1461	7.3000e-01	5.3958	6.122952	0.000393	3.933687	0.666385	-0.007868
1462	7.3050e-01	5.3857	6.072065	0.000509	5.088139	0.861954	-0.010177
1463	7.3100e-01	5.3778	6.055815	0.000162	1.624784	0.275246	-0.003250
1464	7.3150e-01	5.3662	6.007494	0.000483	4.831594	0.818494	-0.009664
1465	7.3200e-01	5.3568	5.997231	0.000103	1.026179	0.173839	-0.002053
1466	7.3250e-01	5.3470	5.941212	0.000560	5.601229	0.948874	-0.011204
1467	7.3300e-01	5.3365	5.912561	0.000286	2.864751	0.485302	-0.005730
1468	7.3350e-01	5.3268	5.887759	0.000248	2.479933	0.420112	-0.004960
1469	7.3400e-01	5.3168	5.858252	0.000295	2.950266	0.499789	-0.005901
1470	7.3450e-01	5.3088	5.806937	0.000513	5.130897	0.869197	-0.010263
1471	7.3500e-01	5.2942	5.797102	0.000098	0.983422	0.166596	-0.001967
1472	7.3550e-01	5.2842	5.760326	0.000368	3.677143	0.622925	-0.007355
1473	7.3600e-01	5.2765	5.722695	0.000376	3.762657	0.637411	-0.007526
1474	7.3650e-01	5.2650	5.676084	0.000466	4.660564	0.789521	-0.009322
1475	7.3700e-01	5.2563	5.650854	0.000252	2.522691	0.427355	-0.005046
1476	7.3750e-01	5.2457	5.606381	0.000445	4.446777	0.753304	-0.008895
1477	7.3800e-01	5.2341	5.582007	0.000244	2.437176	0.412869	-0.004875
1478	7.3850e-01	5.2264	5.558060	0.000239	2.394418	0.405625	-0.004789
1479	7.3900e-01	5.2161	5.523849	0.000342	3.420598	0.579465	-0.006842
1480	7.3950e-01	5.2100	5.496054	0.000278	2.779236	0.470815	-0.005559
1481	7.4000e-01	5.1990	5.465265	0.000308	3.078538	0.521518	-0.006158
1482	7.4050e-01	5.1871	5.411812	0.000534	5.344684	0.905414	-0.010691
1483	7.4100e-01	5.1758	5.390858	0.000210	2.095116	0.354922	-0.004191
1484	7.4150e-01	5.1666	5.362207	0.000286	2.864751	0.485302	-0.005730
1485	7.4200e-01	5.1514	5.324576	0.000376	3.762657	0.637411	-0.007526
1486	7.4250e-01	5.1459	5.301912	0.000227	2.266146	0.383896	-0.004533
1487	7.4300e-01	5.1349	5.239906	0.000620	6.199833	1.050280	-0.012401
1488	7.4350e-01	5.1282	5.223657	0.000162	1.624784	0.275246	-0.003250
1489	7.4400e-01	5.1155	5.197144	0.000265	2.650963	0.449085	-0.005303
1490	7.4450e-01	5.1064	5.168921	0.000282	2.821993	0.478059	-0.005645
1491	7.4500e-01	5.0952	5.119316	0.000496	4.959867	0.840224	-0.009921
1492	7.4550e-01	5.0854	5.064580	0.000547	5.472956	0.927144	-0.010947
1493	7.4600e-01	5.0745	5.067573	-0.000030	-0.299302	-0.050703	0.000599
1494	7.4650e-01	5.0690	5.051751	0.000158	1.582026	0.268003	-0.003164
1495	7.4700e-01	5.0568	4.997870	0.000539	5.387441	0.912657	-0.010776
1496	7.4750e-01	5.0452	4.954253	0.000436	4.361262	0.738818	-0.008724
1497	7.4800e-01	5.0330	4.934582	0.000197	1.966844	0.333192	-0.003934
1498	7.4850e-01	5.0247	4.888398	0.000462	4.617807	0.782278	-0.009237
1499	7.4900e-01	5.0177	4.867445	0.000210	2.095116	0.354922	-0.004191
1500	7.4950e-01	5.0043	4.823827	0.000436	4.361262	0.738818	-0.008724
1501	7.5000e-01	4.9941	4.796459	0.000274	2.736478	0.463572	-0.005474
1502	7.5050e-01	4.9872	4.755407	0.000410	4.104717	0.695358	-0.008210
1503	7.5100e-01	4.9789	4.723763	0.000316	3.164053	0.536005	-0.006329
1504	7.5150e-01	4.9683	4.678434	0.000453	4.532292	0.767791	-0.009066
1505	7.5200e-01	4.9567	4.651922	0.000265	2.650963	0.449085	-0.005303
1506	7.5250e-01	4.9451	4.628402	0.000235	2.351661	0.398382	-0.004704
1507	7.5300e-01	4.9390	4.587350	0.000410	4.104717	0.695358	-0.008210
1508	7.5350e-01	4.9255	4.544160	0.000432	4.318505	0.731574	-0.008638
1509	7.5400e-01	4.9188	4.517647	0.000265	2.650963	0.449085	-0.005303
1510	7.5450e-01	4.9054	4.478733	0.000389	3.890930	0.659141	-0.007783
1511	7.5500e-01	4.8962	4.448372	0.000304	3.035780	0.514275	-0.006072
1512	7.5550e-01	4.8871	4.425708	0.000227	2.266146	0.383896	-0.004533
1513	7.5600e-01	4.8776	4.379952	0.000458	4.575049	0.775034	-0.009151
1514	7.5650e-01	4.8669	4.335906	0.000440	4.404020	0.746061	-0.008809
1515	7.5700e-01	4.8560	4.307683	0.000282	2.821993	0.478059	-0.005645
1516	7.5750e-01	4.8462	4.277749	0.000299	2.993023	0.507032	-0.005987
1517	7.5800e-01	4.8361	4.248243	0.000295	2.950266	0.499789	-0.005901
1518	7.5850e-01	4.8264	4.220020	0.000282	2.821993	0.478059	-0.005645
1519	7.5900e-01	4.8191	4.166994	0.000530	5.301926	0.898171	-0.010605
1520	7.5950e-01	4.8050	4.141337	0.000257	2.565448	0.434599	-0.005132
1521	7.6000e-01	4.7974	4.095153	0.000462	4.617807	0.782278	-0.009237
1522	7.6050e-01	4.7872	4.072062	0.000231	2.308903	0.391139	-0.004618
1523	7.6100e-01	4.7739	4.039990	0.000321	3.206810	0.543248	-0.006414
1524	7.6150e-01	4.7687	4.001931	0.000381	3.805415	0.644655	-0.007612
1525	7.6200e-01	4.7549	3.988247	0.000137	1.368239	0.231786	-0.002737
1526	7.6250e-01	4.7455	3.921538	0.000667	6.670166	1.129957	-0.013342
1527	7.6300e-01	4.7362	3.909564	0.000120	1.197209	0.202813	-0.002395
1528	7.6350e-01	4.7278	3.875354	0.000342	3.420598	0.579465	-0.006842
1529	7.6400e-01	4.7198	3.846703	0.000286	2.864751	0.485302	-0.005730
1530	7.6450e-01	4.7083	3.770586	0.000761	7.610830	1.289309	-0.015223
1531	7.6500e-01	4.6956	3.744928	0.000257	2.565448	0.434599	-0.005132
1532	7.6550e-01	4.6851	3.724402	0.000205	2.052359	0.347679	-0.004105
1533	7.6600e-01	4.6759	3.697462	0.000269	2.693721	0.456329	-0.005388
1534	7.6650e-01	4.6671	3.633318	0.000641	6.413621	1.086497	-0.012829
1535	7.6700e-01	4.6570	3.641871	-0.000086	-0.855149	-0.144866	0.001711
1536	7.6750e-01	4.6484	3.594404	0.000475	4.746079	0.804008	-0.009493
1537	7.6800e-01	4.6387	3.555490	0.000389	3.890930	0.659141	-0.007783
1538	7.6850e-01	4.6265	3.522991	0.000325	3.249568	0.550492	-0.006500
1539	7.6900e-01	4.6152	3.484505	0.000385	3.848172	0.651898	-0.007697
1540	7.6950e-01	4.6069	3.425492	0.000590	5.900531	0.999577	-0.011802
1541	7.7000e-01	4.5972	3.443453	-0.000180	-1.795814	-0.304219	0.003592
1542	7.7050e-01	4.5880	3.385295	0.000582	5.815016	0.985090	-0.011631
1543	7.7100e-01	4.5758	3.351513	0.000338	3.377840	0.572222	-0.006756
1544	7.7150e-01	4.5686	3.318158	0.000334	3.335083	0.564978	-0.006671
1545	7.7200e-01	4.5570	3.273258	0.000449	4.489534	0.760548	-0.008980
1546	7.7250e-01	4.5471	3.243324	0.000299	2.993023	0.507032	-0.005987
1547	7.7300e-01	4.5349	3.212107	0.000312	3.121295	0.528762	-0.006243
1548	7.7350e-01	4.5245	3.175759	0.000363	3.634385	0.615681	-0.007270
1549	7.7400e-01	4.5160	3.142404	0.000334	3.335083	0.564978	-0.006671
1550	7.7450e-01	4.5062	3.094083	0.000483	4.831594	0.818494	-0.009664
1551	7.7500e-01	4.4954	3.062866	0.000312	3.121295	0.528762	-0.006243
1552	7.7550e-01	4.4846	3.034643	0.000282	2.821993	0.478059	-0.005645
1553	7.7600e-01	4.4754	2.981190	0.000534	5.344684	0.905414	-0.010691
1554	7.7650e-01	4.4702	2.959381	0.000218	2.180631	0.369409	-0.004362
1555	7.7700e-01	4.4550	2.918756	0.000406	4.061960	0.688115	-0.008125
1556	7.7750e-01	4.4458	2.883263	0.000355	3.548870	0.601195	-0.007099
1557	7.7800e-01	4.4403	2.838363	0.000449	4.489534	0.760548	-0.008980
1558	7.7850e-01	4.4269	2.807574	0.000308	3.078538	0.521518	-0.006158
1559	7.7900e-01	4.4165	2.760535	0.000470	4.703322	0.796764	-0.009408
1560	7.7950e-01	4.4046	2.744285	0.000162	1.624784	0.275246	-0.003250
1561	7.8000e-01	4.3997	2.726325	0.000180	1.795814	0.304219	-0.003592
1562	7.8050e-01	4.3860	2.673727	0.000526	5.259169	0.890927	-0.010520
1563	7.8100e-01	4.3765	2.634813	0.000389	3.890930	0.659141	-0.007783
1564	7.8150e-01	4.3655	2.598465	0.000363	3.634385	0.615681	-0.007270
1565	7.8200e-01	4.3552	2.572380	0.000261	2.608206	0.441842	-0.005217
1566	7.8250e-01	4.3451	2.538170	0.000342	3.420598	0.579465	-0.006842
1567	7.8300e-01	4.3372	2.516789	0.000214	2.137874	0.362166	-0.004276
1568	7.8350e-01	4.3262	2.453072	0.000637	6.370863	1.079253	-0.012743
1569	7.8400e-01	4.3149	2.420573	0.000325	3.249568	0.550492	-0.006500
1570	7.8450e-01	4.3054	2.378238	0.000423	4.232990	0.717088	-0.008467
1571	7.8500e-01	4.2957	2.329061	0.000492	4.917109	0.832981	-0.009835
1572	7.8550e-01	4.2847	2.320936	0.000081	0.812392	0.137623	-0.001625
1573	7.8600e-01	4.2766	2.283733	0.000372	3.719900	0.630168	-0.007441
1574	7.8650e-01	4.2636	2.243108	0.000406	4.061960	0.688115	-0.008125
1575	7.8700e-01	4.2578	2.211464	0.000316	3.164053	0.536005	-0.006329
1576	7.8750e-01	4.2444	2.175971	0.000355	3.548870	0.601195	-0.007099
1577	7.8800e-01	4.2355	2.136630	0.000393	3.933687	0.666385	-0.007868
1578	7.8850e-01	4.2261	2.110545	0.000261	2.608206	0.441842	-0.005217
1579	7.8900e-01	4.2147	2.069493	0.000410	4.104717	0.695358	-0.008210
1580	7.8950e-01	4.2036	2.022881	0.000466	4.660564	0.789521	-0.009322
1581	7.9000e-01	4.1956	2.001500	0.000214	2.137874	0.362166	-0.004276
1582	7.9050e-01	4.1864	1.945909	0.000556	5.558471	0.941631	-0.011118
1583	7.9100e-01	4.1763	1.939922	0.000060	0.598605	0.101406	-0.001197
1584	7.9150e-01	4.1656	1.888607	0.000513	5.130897	0.869197	-0.010263
1585	7.9200e-01	4.1568	1.859529	0.000291	2.907508	0.492545	-0.005816
1586	7.9250e-01	4.1449	1.801371	0.000582	5.815016	0.985090	-0.011631
1587	7.9300e-01	4.1354	1.769300	0.000321	3.206810	0.543248	-0.006414
1588	7.9350e-01	4.1254	1.735517	0.000338	3.377840	0.572222	-0.006756
1589	7.9400e-01	4.1156	1.701307	0.000342	3.420598	0.579465	-0.006842
1590	7.9450e-01	4.1048	1.673084	0.000282	2.821993	0.478059	-0.005645
1591	7.9500e-01	4.0991	1.635880	0.000372	3.719900	0.630168	-0.007441
1592	7.9550e-01	4.0845	1.583283	0.000526	5.259169	0.890927	-0.010520
1593	7.9600e-01	4.0738	1.553349	0.000299	2.993023	0.507032	-0.005987
1594	7.9650e-01	4.0665	1.516573	0.000368	3.677143	0.622925	-0.007355
1595	7.9700e-01	4.0532	1.483218	0.000334	3.335083	0.564978	-0.006671
1596	7.9750e-01	4.0440	1.444304	0.000389	3.890930	0.659141	-0.007783
1597	7.9800e-01	4.0344	1.405390	0.000389	3.890930	0.659141	-0.007783
1598	7.9850e-01	4.0262	1.359207	0.000462	4.617807	0.782278	-0.009237
1599	7.9900e-01	4.0179	1.327563	0.000316	3.164053	0.536005	-0.006329
1600	7.9950e-01	4.0057	1.303188	0.000244	2.437176	0.412869	-0.004875
1601	8.0000e-01	3.9954	1.248880	0.000543	5.430199	0.919901	-0.010862
1602	8.0050e-01	3.9840	1.233057	0.000158	1.582026	0.268003	-0.003164
1603	8.0100e-01	3.9777	1.201841	0.000312	3.121295	0.528762	-0.006243
1604	8.0150e-01	3.9645	1.183881	0.000180	1.795814	0.304219	-0.003592
1605	8.0200e-01	3.9542	1.113322	0.000705	7.054983	1.195146	-0.014112
1606	8.0250e-01	3.9467	1.088093	0.000252	2.522691	0.427355	-0.005046
1607	8.0300e-01	3.9362	1.056876	0.000312	3.121295	0.528762	-0.006243
1608	8.0350e-01	3.9246	0.994015	0.000629	6.285348	1.064767	-0.012572
1609	8.0400e-01	3.9172	0.971351	0.000227	2.266146	0.383896	-0.004533
1610	8.0450e-01	3.9069	0.946549	0.000248	2.479933	0.420112	-0.004960
1611	8.0500e-01	3.8995	0.902076	0.000445	4.446777	0.753304	-0.008895
1612	8.0550e-01	3.8843	0.855464	0.000466	4.660564	0.789521	-0.009322
1613	8.0600e-01	3.8742	0.830234	0.000252	2.522691	0.427355	-0.005046
1614	8.0650e-01	3.8681	0.785334	0.000449	4.489534	0.760548	-0.008980
1615	8.0700e-01	3.8559	0.737012	0.000483	4.831594	0.818494	-0.009664
1616	8.0750e-01	3.8455	0.707506	0.000295	2.950266	0.499789	-0.005901
1617	8.0800e-01	3.8364	0.667737	0.000398	3.976445	0.673628	-0.007954
1618	8.0850e-01	3.8252	0.637803	0.000299	2.993023	0.507032	-0.005987
1619	8.0900e-01	3.8138	0.597179	0.000406	4.061960	0.688115	-0.008125
1620	8.0950e-01	3.8049	0.543726	0.000534	5.344684	0.905414	-0.010691
1621	8.1000e-01	3.7973	0.523627	0.000201	2.009601	0.340436	-0.004020
1622	8.1050e-01	3.7881	0.484286	0.000393	3.933687	0.666385	-0.007868
1623	8.1100e-01	3.7744	0.461194	0.000231	2.308903	0.391139	-0.004618
1624	8.1150e-01	3.7666	0.401326	0.000599	5.986046	1.014064	-0.011974
1625	8.1200e-01	3.7558	0.384649	0.000167	1.667541	0.282489	-0.003335
1626	8.1250e-01	3.7459	0.339321	0.000453	4.532292	0.767791	-0.009066
1627	8.1300e-01	3.7332	0.287150	0.000522	5.216411	0.883684	-0.010434
1628	8.1350e-01	3.7270	0.239684	0.000475	4.746079	0.804008	-0.009493
1629	8.1400e-01	3.7164	0.226428	0.000133	1.325482	0.224543	-0.002651
1630	8.1450e-01	3.7048	0.182810	0.000436	4.361262	0.738818	-0.008724
1631	8.1500e-01	3.6935	0.143896	0.000389	3.890930	0.659141	-0.007783
1632	8.1550e-01	3.6871	0.096002	0.000479	4.788837	0.811251	-0.009579
1633	8.1600e-01	3.6777	0.074621	0.000214	2.137874	0.362166	-0.004276
1634	8.1650e-01	3.6639	0.031003	0.000436	4.361262	0.738818	-0.008724
1635	8.1700e-01	3.6581	-0.023306	0.000543	5.430199	0.919901	-0.010862
1636	8.1750e-01	3.6444	-0.043404	0.000201	2.009601	0.340436	-0.004020
1637	8.1800e-01	3.6346	-0.088732	0.000453	4.532292	0.767791	-0.009066
1638	8.1850e-01	3.6249	-0.098995	0.000103	1.026179	0.173839	-0.002053
1639	8.1900e-01	3.6182	-0.148172	0.000492	4.917109	0.832981	-0.009835
1640	8.1950e-01	3.6047	-0.191362	0.000432	4.318505	0.731574	-0.008638
1641	8.2000e-01	3.5959	-0.227710	0.000363	3.634385	0.615681	-0.007270
1642	8.2050e-01	3.5864	-0.268762	0.000410	4.104717	0.695358	-0.008210
1643	8.2100e-01	3.5767	-0.306821	0.000381	3.805415	0.644655	-0.007612
1644	8.2150e-01	3.5648	-0.350867	0.000440	4.404020	0.746061	-0.008809
1645	8.2200e-01	3.5562	-0.391063	0.000402	4.019202	0.680871	-0.008039
1646	8.2250e-01	3.5452	-0.427411	0.000363	3.634385	0.615681	-0.007270
1647	8.2300e-01	3.5361	-0.448793	0.000214	2.137874	0.362166	-0.004276
1648	8.2350e-01	3.5242	-0.489417	0.000406	4.061960	0.688115	-0.008125
1649	8.2400e-01	3.5162	-0.537311	0.000479	4.788837	0.811251	-0.009579
1650	8.2450e-01	3.5040	-0.565534	0.000282	2.821993	0.478059	-0.005645
1651	8.2500e-01	3.4949	-0.620270	0.000547	5.472956	0.927144	-0.010947
1652	8.2550e-01	3.4863	-0.660895	0.000406	4.061960	0.688115	-0.008125
1653	8.2600e-01	3.4756	-0.702375	0.000415	4.147475	0.702601	-0.008296
1654	8.2650e-01	3.4637	-0.725894	0.000235	2.351661	0.398382	-0.004704
1655	8.2700e-01	3.4535	-0.780630	0.000547	5.472956	0.927144	-0.010947
1656	8.2750e-01	3.4464	-0.806287	0.000257	2.565448	0.434599	-0.005132
1657	8.2800e-01	3.4341	-0.841780	0.000355	3.548870	0.601195	-0.007099
1658	8.2850e-01	3.4241	-0.901220	0.000594	5.943288	1.006820	-0.011888
1659	8.2900e-01	3.4167	-0.910628	0.000094	0.940664	0.159353	-0.001882
1660	8.2950e-01	3.4056	-0.947831	0.000372	3.719900	0.630168	-0.007441
1661	8.3000e-01	3.3969	-1.022666	0.000748	7.482557	1.267580	-0.014967
1662	8.3050e-01	3.3841	-1.040198	0.000175	1.753056	0.296976	-0.003507
1663	8.3100e-01	3.3728	-1.064145	0.000239	2.394418	0.405625	-0.004789
1664	8.3150e-01	3.3667	-1.107763	0.000436	4.361262	0.738818	-0.008724
1665	8.3200e-01	3.3563	-1.142401	0.000346	3.463355	0.586708	-0.006928
1666	8.3250e-01	3.3441	-1.215097	0.000727	7.268770	1.231363	-0.014539
1667	8.3300e-01	3.3350	-1.250590	0.000355	3.548870	0.601195	-0.007099
1668	8.3350e-01	3.3258	-1.268978	0.000184	1.838571	0.311462	-0.003678
1669	8.3400e-01	3.3160	-1.309175	0.000402	4.019202	0.680871	-0.008039
1670	8.3450e-01	3.3057	-1.344668	0.000355	3.548870	0.601195	-0.007099
1671	8.3500e-01	3.2983	-1.383154	0.000385	3.848172	0.651898	-0.007697
1672	8.3550e-01	3.2831	-1.418647	0.000355	3.548870	0.601195	-0.007099
1673	8.3600e-01	3.2758	-1.473811	0.000552	5.515714	0.934387	-0.011033
1674	8.3650e-01	3.2651	-1.521277	0.000475	4.746079	0.804008	-0.009493
1675	8.3700e-01	3.2557	-1.555915	0.000346	3.463355	0.586708	-0.006928
1676	8.3750e-01	3.2458	-1.555915	-0.000000	-0.000000	-0.000000	0.000000
1677	8.3800e-01	3.2349	-1.625190	0.000693	6.926710	1.173416	-0.013855
1678	8.3850e-01	3.2277	-1.655124	0.000299	2.993023	0.507032	-0.005987
1679	8.3900e-01	3.2152	-1.683775	0.000286	2.864751	0.485302	-0.005730
1680	8.3950e-01	3.2062	-1.724399	0.000406	4.061960	0.688115	-0.008125
1681	8.4000e-01	3.1959	-1.793674	0.000693	6.926710	1.173416	-0.013855
1682	8.4050e-01	3.1839	-1.811207	0.000175	1.753056	0.296976	-0.003507
1683	8.4100e-01	3.1757	-1.863377	0.000522	5.216411	0.883684	-0.010434
1684	8.4150e-01	3.1659	-1.898442	0.000351	3.506113	0.593952	-0.007013
1685	8.4200e-01	3.1557	-1.932652	0.000342	3.420598	0.579465	-0.006842
1686	8.4250e-01	3.1448	-1.989954	0.000573	5.729501	0.970604	-0.011460
1687	8.4300e-01	3.1342	-2.018177	0.000282	2.821993	0.478059	-0.005645
1688	8.4350e-01	3.1232	-2.068637	0.000505	5.045382	0.854711	-0.010092
1689	8.4400e-01	3.1140	-2.089163	0.000205	2.052359	0.347679	-0.004105
1690	8.4450e-01	3.1046	-2.140478	0.000513	5.130897	0.869197	-0.010263
1691	8.4500e-01	3.0978	-2.173405	0.000329	3.292325	0.557735	-0.006585
1692	8.4550e-01	3.0865	-2.220444	0.000470	4.703322	0.796764	-0.009408
1693	8.4600e-01	3.0759	-2.242253	0.000218	2.180631	0.369409	-0.004362
1694	8.4650e-01	3.0659	-2.303404	0.000611	6.114318	1.035794	-0.012230
1695	8.4700e-01	3.0557	-2.341462	0.000381	3.805415	0.644655	-0.007612
1696	8.4750e-01	3.0446	-2.388929	0.000475	4.746079	0.804008	-0.009493
1697	8.4800e-01	3.0359	-2.421000	0.000321	3.206810	0.543248	-0.006414
1698	8.4850e-01	3.0240	-2.469322	0.000483	4.831594	0.818494	-0.009664
1699	8.4900e-01	3.0157	-2.513368	0.000440	4.404020	0.746061	-0.008809
1700	8.4950e-01	3.0067	-2.541163	0.000278	2.779236	0.470815	-0.005559
1701	8.5000e-01	2.9946	-2.578794	0.000376	3.762657	0.637411	-0.007526
1702	8.5050e-01	2.9877	-2.602741	0.000239	2.394418	0.405625	-0.004789
1703	8.5100e-01	2.9755	-2.667740	0.000650	6.499136	1.100983	-0.013000
1704	8.5150e-01	2.9648	-2.707509	0.000398	3.976445	0.673628	-0.007954
1705	8.5200e-01	2.9556	-2.728463	0.000210	2.095116	0.354922	-0.004191
1706	8.5250e-01	2.9440	-2.778923	0.000505	5.045382	0.854711	-0.010092
1707	8.5300e-01	2.9376	-2.828955	0.000500	5.002624	0.847467	-0.010006
1708	8.5350e-01	2.9227	-2.844777	0.000158	1.582026	0.268003	-0.003164
1709	8.5400e-01	2.9169	-2.907210	0.000624	6.242591	1.057524	-0.012487
1710	8.5450e-01	2.9061	-2.932013	0.000248	2.479933	0.420112	-0.004960
1711	8.5500e-01	2.8949	-2.981190	0.000492	4.917109	0.832981	-0.009835
1712	8.5550e-01	2.8847	-3.033788	0.000526	5.259169	0.890927	-0.010520
1713	8.5600e-01	2.8735	-3.066715	0.000329	3.292325	0.557735	-0.006585
1714	8.5650e-01	2.8659	-3.108194	0.000415	4.147475	0.702601	-0.008296
1715	8.5700e-01	2.8546	-3.151812	0.000436	4.361262	0.738818	-0.008724
1716	8.5750e-01	2.8453	-3.186450	0.000346	3.463355	0.586708	-0.006928
1717	8.5800e-01	2.8356	-3.254015	0.000676	6.755680	1.144443	-0.013513
1718	8.5850e-01	2.8265	-3.267271	0.000133	1.325482	0.224543	-0.002651
1719	8.5900e-01	2.8143	-3.299770	0.000325	3.249568	0.550492	-0.006500
1720	8.5950e-01	2.8076	-3.337401	0.000376	3.762657	0.637411	-0.007526
1721	8.6000e-01	2.7963	-3.392137	0.000547	5.472956	0.927144	-0.010947
1722	8.6050e-01	2.7838	-3.429769	0.000376	3.762657	0.637411	-0.007526
1723	8.6100e-01	2.7744	-3.475097	0.000453	4.532292	0.767791	-0.009066
1724	8.6150e-01	2.7658	-3.511017	0.000359	3.591628	0.608438	-0.007184
1725	8.6200e-01	2.7562	-3.555063	0.000440	4.404020	0.746061	-0.008809
1726	8.6250e-01	2.7463	-3.587990	0.000329	3.292325	0.557735	-0.006585
1727	8.6300e-01	2.7380	-3.640160	0.000522	5.216411	0.883684	-0.010434
1728	8.6350e-01	2.7277	-3.666245	0.000261	2.608206	0.441842	-0.005217
1729	8.6400e-01	2.7140	-3.706014	0.000398	3.976445	0.673628	-0.007954
1730	8.6450e-01	2.7041	-3.753908	0.000479	4.788837	0.811251	-0.009579
1731	8.6500e-01	2.6970	-3.800947	0.000470	4.703322	0.796764	-0.009408
1732	8.6550e-01	2.6862	-3.833447	0.000325	3.249568	0.550492	-0.006500
1733	8.6600e-01	2.6780	-3.894170	0.000607	6.071561	1.028550	-0.012145
1734	8.6650e-01	2.6649	-3.917261	0.000231	2.308903	0.391139	-0.004618
1735	8.6700e-01	2.6563	-3.968576	0.000513	5.130897	0.869197	-0.010263
1736	8.6750e-01	2.6459	-4.000648	0.000321	3.206810	0.543248	-0.006414
1737	8.6800e-01	2.6385	-4.059233	0.000586	5.857774	0.992334	-0.011717
1738	8.6850e-01	2.6280	-4.106699	0.000475	4.746079	0.804008	-0.009493
1739	8.6900e-01	2.6146	-4.148179	0.000415	4.147475	0.702601	-0.008296
1740	8.6950e-01	2.6044	-4.167422	0.000192	1.924086	0.325949	-0.003849
1741	8.7000e-01	2.5952	-4.203770	0.000363	3.634385	0.615681	-0.007270
1742	8.7050e-01	2.5865	-4.242684	0.000389	3.890930	0.659141	-0.007783
1743	8.7100e-01	2.5778	-4.292289	0.000496	4.959867	0.840224	-0.009921
1744	8.7150e-01	2.5676	-4.340183	0.000479	4.788837	0.811251	-0.009579
1745	8.7200e-01	2.5546	-4.378669	0.000385	3.848172	0.651898	-0.007697
1746	8.7250e-01	2.5455	-4.425708	0.000470	4.703322	0.796764	-0.009408
1747	8.7300e-01	2.5340	-4.465049	0.000393	3.933687	0.666385	-0.007868
1748	8.7350e-01	2.5262	-4.488569	0.000235	2.351661	0.398382	-0.004704
1749	8.7400e-01	2.5140	-4.559982	0.000714	7.140498	1.209633	-0.014283
1750	8.7450e-01	2.5064	-4.586923	0.000269	2.693721	0.456329	-0.005388
1751	8.7500e-01	2.4953	-4.629685	0.000428	4.275747	0.724331	-0.008553
1752	8.7550e-01	2.4862	-4.664323	0.000346	3.463355	0.586708	-0.006928
1753	8.7600e-01	2.4750	-4.707513	0.000432	4.318505	0.731574	-0.008638
1754	8.7650e-01	2.4680	-4.753269	0.000458	4.575049	0.775034	-0.009151
1755	8.7700e-01	2.4530	-4.782347	0.000291	2.907508	0.492545	-0.005816
1756	8.7750e-01	2.4484	-4.848202	0.000658	6.584651	1.115470	-0.013171
1757	8.7800e-01	2.4348	-4.884550	0.000363	3.634385	0.615681	-0.007270
1758	8.7850e-01	2.4257	-4.912773	0.000282	2.821993	0.478059	-0.005645
1759	8.7900e-01	2.4170	-4.956391	0.000436	4.361262	0.738818	-0.008724
1760	8.7950e-01	2.4063	-4.999581	0.000432	4.318505	0.731574	-0.008638
1761	8.8000e-01	2.3978	-5.053462	0.000539	5.387441	0.912657	-0.010776
1762	8.8050e-01	2.3856	-5.072277	0.000188	1.881329	0.318706	-0.003763
1763	8.8100e-01	2.3759	-5.124020	0.000517	5.173654	0.876441	-0.010349
1764	8.8150e-01	2.3669	-5.178756	0.000547	5.472956	0.927144	-0.010947
1765	8.8200e-01	2.3547	-5.225795	0.000470	4.703322	0.796764	-0.009408
1766	8.8250e-01	2.3441	-5.275399	0.000496	4.959867	0.840224	-0.009921
1767	8.8300e-01	2.3361	-5.302340	0.000269	2.693721	0.456329	-0.005388
1768	8.8350e-01	2.3260	-5.336977	0.000346	3.463355	0.586708	-0.006928
1769	8.8400e-01	2.3151	-5.380167	0.000432	4.318505	0.731574	-0.008638
1770	8.8450e-01	2.3046	-5.429344	0.000492	4.917109	0.832981	-0.009835
1771	8.8500e-01	2.2974	-5.489212	0.000599	5.986046	1.014064	-0.011974
1772	8.8550e-01	2.2849	-5.528553	0.000393	3.933687	0.666385	-0.007868
1773	8.8600e-01	2.2775	-5.563191	0.000346	3.463355	0.586708	-0.006928
1774	8.8650e-01	2.2658	-5.608519	0.000453	4.532292	0.767791	-0.009066
1775	8.8700e-01	2.2574	-5.634177	0.000257	2.565448	0.434599	-0.005132
1776	8.8750e-01	2.2458	-5.679077	0.000449	4.489534	0.760548	-0.008980
1777	8.8800e-01	2.2346	-5.719274	0.000402	4.019202	0.680871	-0.008039
1778	8.8850e-01	2.2232	-5.788977	0.000697	6.969468	1.180660	-0.013941
1779	8.8900e-01	2.2159	-5.818911	0.000299	2.993023	0.507032	-0.005987
1780	8.8950e-01	2.2052	-5.864239	0.000453	4.532292	0.767791	-0.009066
1781	8.9000e-01	2.1960	-5.912133	0.000479	4.788837	0.811251	-0.009579
1782	8.9050e-01	2.1875	-5.954041	0.000419	4.190232	0.709845	-0.008381
1783	8.9100e-01	2.1758	-5.987823	0.000338	3.377840	0.572222	-0.006756
1784	8.9150e-01	2.1657	-6.029730	0.000419	4.190232	0.709845	-0.008381
1785	8.9200e-01	2.1533	-6.074631	0.000449	4.489534	0.760548	-0.008980
1786	8.9250e-01	2.1452	-6.117821	0.000432	4.318505	0.731574	-0.008638
1787	8.9300e-01	2.1351	-6.165287	0.000475	4.746079	0.804008	-0.009493
1788	8.9350e-01	2.1265	-6.209760	0.000445	4.446777	0.753304	-0.008895
1789	8.9400e-01	2.1143	-6.258937	0.000492	4.917109	0.832981	-0.009835
1790	8.9450e-01	2.1054	-6.297851	0.000389	3.890930	0.659141	-0.007783
1791	8.9500e-01	2.0947	-6.353015	0.000552	5.515714	0.934387	-0.011033
1792	8.9550e-01	2.0847	-6.382949	0.000299	2.993023	0.507032	-0.005987
1793	8.9600e-01	2.0760	-6.422718	0.000398	3.976445	0.673628	-0.007954
1794	8.9650e-01	2.0660	-6.460349	0.000376	3.762657	0.637411	-0.007526
1795	8.9700e-01	2.0544	-6.505249	0.000449	4.489534	0.760548	-0.008980
1796	8.9750e-01	2.0451	-6.557420	0.000522	5.216411	0.883684	-0.010434
1797	8.9800e-01	2.0364	-6.604459	0.000470	4.703322	0.796764	-0.009408
1798	8.9850e-01	2.0255	-6.664326	0.000599	5.986046	1.014064	-0.011974
1799	8.9900e-01	2.0174	-6.689128	0.000248	2.479933	0.420112	-0.004960
1800	8.9950e-01	2.0045	-6.731463	0.000423	4.232990	0.717088	-0.008467
1801	9.0000e-01	1.9934	-6.761825	0.000304	3.035780	0.514275	-0.006072
1802	9.0050e-01	1.9818	-6.799456	0.000376	3.762657	0.637411	-0.007526
1803	9.0100e-01	1.9772	-6.862744	0.000633	6.328106	1.072010	-0.012658
1804	9.0150e-01	1.9669	-6.900803	0.000381	3.805415	0.644655	-0.007612
1805	9.0200e-01	1.9528	-6.949552	0.000487	4.874352	0.825738	-0.009750
1806	9.0250e-01	1.9450	-7.004288	0.000547	5.472956	0.927144	-0.010947
1807	9.0300e-01	1.9348	-7.034650	0.000304	3.035780	0.514275	-0.006072
1808	9.0350e-01	1.9252	-7.090241	0.000556	5.558471	0.941631	-0.011118
1809	9.0400e-01	1.9160	-7.124879	0.000346	3.463355	0.586708	-0.006928
1810	9.0450e-01	1.9065	-7.173200	0.000483	4.831594	0.818494	-0.009664
1811	9.0500e-01	1.8968	-7.203562	0.000304	3.035780	0.514275	-0.006072
1812	9.0550e-01	1.8855	-7.271126	0.000676	6.755680	1.144443	-0.013513
1813	9.0600e-01	1.8764	-7.314317	0.000432	4.318505	0.731574	-0.008638
1814	9.0650e-01	1.8631	-7.345106	0.000308	3.078538	0.521518	-0.006158
1815	9.0700e-01	1.8553	-7.399414	0.000543	5.430199	0.919901	-0.010862
1816	9.0750e-01	1.8446	-7.422078	0.000227	2.266146	0.383896	-0.004533
1817	9.0800e-01	1.8378	-7.495630	0.000735	7.354285	1.245850	-0.014710
1818	9.0850e-01	1.8246	-7.537965	0.000423	4.232990	0.717088	-0.008467
1819	9.0900e-01	1.8159	-7.570892	0.000329	3.292325	0.557735	-0.006585
1820	9.0950e-01	1.8061	-7.626055	0.000552	5.515714	0.934387	-0.011033
1821	9.1000e-01	1.7943	-7.658982	0.000329	3.292325	0.557735	-0.006585
1822	9.1050e-01	1.7858	-7.705166	0.000462	4.617807	0.782278	-0.009237
1823	9.1100e-01	1.7738	-7.742369	0.000372	3.719900	0.630168	-0.007441
1824	9.1150e-01	1.7673	-7.800526	0.000582	5.815016	0.985090	-0.011631
1825	9.1200e-01	1.7555	-7.843289	0.000428	4.275747	0.724331	-0.008553
1826	9.1250e-01	1.7442	-7.880065	0.000368	3.677143	0.622925	-0.007355
1827	9.1300e-01	1.7349	-7.920262	0.000402	4.019202	0.680871	-0.008039
1828	9.1350e-01	1.7258	-7.961314	0.000410	4.104717	0.695358	-0.008210
1829	9.1400e-01	1.7167	-8.026740	0.000654	6.541893	1.108227	-0.013085
1830	9.1450e-01	1.7063	-8.057529	0.000308	3.078538	0.521518	-0.006158
1831	9.1500e-01	1.6952	-8.098154	0.000406	4.061960	0.688115	-0.008125
1832	9.1550e-01	1.6853	-8.152034	0.000539	5.387441	0.912657	-0.010776
1833	9.1600e-01	1.6737	-8.205488	0.000534	5.344684	0.905414	-0.010691
1834	9.1650e-01	1.6676	-8.249533	0.000440	4.404020	0.746061	-0.008809
1835	9.1700e-01	1.6553	-8.288875	0.000393	3.933687	0.666385	-0.007868
1836	9.1750e-01	1.6444	-8.345749	0.000569	5.686744	0.963360	-0.011375
1837	9.1800e-01	1.6352	-8.370551	0.000248	2.479933	0.420112	-0.004960
1838	9.1850e-01	1.6237	-8.417162	0.000466	4.660564	0.789521	-0.009322
1839	9.1900e-01	1.6144	-8.476174	0.000590	5.900531	0.999577	-0.011802
1840	9.1950e-01	1.6058	-8.521075	0.000449	4.489534	0.760548	-0.008980
1841	9.2000e-01	1.5952	-8.564265	0.000432	4.318505	0.731574	-0.008638
1842	9.2050e-01	1.5861	-8.605745	0.000415	4.147475	0.702601	-0.008296
1843	9.2100e-01	1.5780	-8.653639	0.000479	4.788837	0.811251	-0.009579
1844	9.2150e-01	1.5649	-8.703671	0.000500	5.002624	0.847467	-0.010006
1845	9.2200e-01	1.5565	-8.731467	0.000278	2.779236	0.470815	-0.005559
1846	9.2250e-01	1.5438	-8.775084	0.000436	4.361262	0.738818	-0.008724
1847	9.2300e-01	1.5355	-8.822551	0.000475	4.746079	0.804008	-0.009493
1848	9.2350e-01	1.5241	-8.867452	0.000449	4.489534	0.760548	-0.008980
1849	9.2400e-01	1.5173	-8.900379	0.000329	3.292325	0.557735	-0.006585
1850	9.2450e-01	1.5030	-8.968799	0.000684	6.841195	1.158930	-0.013684
1851	9.2500e-01	1.4941	-9.018403	0.000496	4.959867	0.840224	-0.009921
1852	9.2550e-01	1.4847	-9.060311	0.000419	4.190232	0.709845	-0.008381
1853	9.2600e-01	1.4758	-9.104784	0.000445	4.446777	0.753304	-0.008895
1854	9.2650e-01	1.4674	-9.153960	0.000492	4.917109	0.832981	-0.009835
1855	9.2700e-01	1.4551	-9.202710	0.000487	4.874352	0.825738	-0.009750
1856	9.2750e-01	1.4442	-9.261294	0.000586	5.857774	0.992334	-0.011717
1857	9.2800e-01	1.4343	-9.303202	0.000419	4.190232	0.709845	-0.008381
1858	9.2850e-01	1.4262	-9.348102	0.000449	4.489534	0.760548	-0.008980
1859	9.2900e-01	1.4157	-9.387016	0.000389	3.890930	0.659141	-0.007783
1860	9.2950e-01	1.4059	-9.425075	0.000381	3.805415	0.644655	-0.007612
1861	9.3000e-01	1.3962	-9.482804	0.000577	5.772259	0.977847	-0.011546
1862	9.3050e-01	1.3849	-9.541389	0.000586	5.857774	0.992334	-0.011717
1863	9.3100e-01	1.3758	-9.557211	0.000158	1.582026	0.268003	-0.003164
1864	9.3150e-01	1.3647	-9.637177	0.000800	7.995647	1.354499	-0.015993
1865	9.3200e-01	1.3551	-9.672242	0.000351	3.506113	0.593952	-0.007013
1866	9.3250e-01	1.3449	-9.713722	0.000415	4.147475	0.702601	-0.008296
1867	9.3300e-01	1.3338	-9.743228	0.000295	2.950266	0.499789	-0.005901
1868	9.3350e-01	1.3260	-9.799247	0.000560	5.601229	0.948874	-0.011204
1869	9.3400e-01	1.3141	-9.868950	0.000697	6.969468	1.180660	-0.013941
1870	9.3450e-01	1.3046	-9.900594	0.000316	3.164053	0.536005	-0.006329
1871	9.3500e-01	1.2936	-9.955758	0.000552	5.515714	0.934387	-0.011033
1872	9.3550e-01	1.2850	-9.988257	0.000325	3.249568	0.550492	-0.006500
1873	9.3600e-01	1.2766	-10.041711	0.000534	5.344684	0.905414	-0.010691
1874	9.3650e-01	1.2640	-10.097729	0.000560	5.601229	0.948874	-0.011204
1875	9.3700e-01	1.2531	-10.116545	0.000188	1.881329	0.318706	-0.003763
1876	9.3750e-01	1.2444	-10.184110	0.000676	6.755680	1.144443	-0.013513
1877	9.3800e-01	1.2347	-10.238846	0.000547	5.472956	0.927144	-0.010947
1878	9.3850e-01	1.2250	-10.281181	0.000423	4.232990	0.717088	-0.008467
1879	9.3900e-01	1.2159	-10.306838	0.000257	2.565448	0.434599	-0.005132
1880	9.3950e-01	1.2050	-10.362429	0.000556	5.558471	0.941631	-0.011118
1881	9.4000e-01	1.1971	-10.404337	0.000419	4.190232	0.709845	-0.008381
1882	9.4050e-01	1.1870	-10.445816	0.000415	4.147475	0.702601	-0.008296
1883	9.4100e-01	1.1770	-10.501835	0.000560	5.601229	0.948874	-0.011204
1884	9.4150e-01	1.1663	-10.568117	0.000663	6.627408	1.122713	-0.013256
1885	9.4200e-01	1.1597	-10.602327	0.000342	3.420598	0.579465	-0.006842
1886	9.4250e-01	1.1455	-10.663478	0.000611	6.114318	1.035794	-0.012230
1887	9.4300e-01	1.1372	-10.691273	0.000278	2.779236	0.470815	-0.005559
1888	9.4350e-01	1.1256	-10.757983	0.000667	6.670166	1.129957	-0.013342
1889	9.4400e-01	1.1160	-10.790482	0.000325	3.249568	0.550492	-0.006500
1890	9.4450e-01	1.1087	-10.833245	0.000428	4.275747	0.724331	-0.008553
1891	9.4500e-01	1.0947	-10.878146	0.000449	4.489534	0.760548	-0.008980
1892	9.4550e-01	1.0867	-10.935447	0.000573	5.729501	0.970604	-0.011460
1893	9.4600e-01	1.0754	-10.982914	0.000475	4.746079	0.804008	-0.009493
1894	9.4650e-01	1.0652	-11.022255	0.000393	3.933687	0.666385	-0.007868
1895	9.4700e-01	1.0541	-11.074426	0.000522	5.216411	0.883684	-0.010434
1896	9.4750e-01	1.0464	-11.152681	0.000782	7.824617	1.325526	-0.015651
1897	9.4800e-01	1.0331	-11.162516	0.000098	0.983422	0.166596	-0.001967
1898	9.4850e-01	1.0244	-11.234785	0.000723	7.226013	1.224120	-0.014454
1899	9.4900e-01	1.0188	-11.276692	0.000419	4.190232	0.709845	-0.008381
1900	9.4950e-01	1.0046	-11.298074	0.000214	2.137874	0.362166	-0.004276
1901	9.5000e-01	0.9937	-11.364355	0.000663	6.627408	1.122713	-0.013256
1902	9.5050e-01	0.9851	-11.404552	0.000402	4.019202	0.680871	-0.008039
1903	9.5100e-01	0.9729	-11.455012	0.000505	5.045382	0.854711	-0.010092
1904	9.5150e-01	0.9639	-11.506755	0.000517	5.173654	0.876441	-0.010349
1905	9.5200e-01	0.9548	-11.567477	0.000607	6.071561	1.028550	-0.012145
1906	9.5250e-01	0.9427	-11.594418	0.000269	2.693721	0.456329	-0.005388
1907	9.5300e-01	0.9346	-11.652575	0.000582	5.815016	0.985090	-0.011631
1908	9.5350e-01	0.9269	-11.687640	0.000351	3.506113	0.593952	-0.007013
1909	9.5400e-01	0.9164	-11.750929	0.000633	6.328106	1.072010	-0.012658
1910	9.5450e-01	0.9090	-11.807375	0.000564	5.643986	0.956117	-0.011289
1911	9.5500e-01	0.8987	-11.843296	0.000359	3.591628	0.608438	-0.007184
1912	9.5550e-01	0.8868	-11.898032	0.000547	5.472956	0.927144	-0.010947
1913	9.5600e-01	0.8793	-11.932669	0.000346	3.463355	0.586708	-0.006928
1914	9.5650e-01	0.8661	-11.980564	0.000479	4.788837	0.811251	-0.009579
1915	9.5700e-01	0.8543	-12.045990	0.000654	6.541893	1.108227	-0.013085
1916	9.5750e-01	0.8459	-12.087897	0.000419	4.190232	0.709845	-0.008381
1917	9.5800e-01	0.8344	-12.137930	0.000500	5.002624	0.847467	-0.010006
1918	9.5850e-01	0.8245	-12.197797	0.000599	5.986046	1.014064	-0.011974
1919	9.5900e-01	0.8164	-12.235001	0.000372	3.719900	0.630168	-0.007441
1920	9.5950e-01	0.8064	-12.285888	0.000509	5.088139	0.861954	-0.010177
1921	9.6000e-01	0.7950	-12.320526	0.000346	3.463355	0.586708	-0.006928
1922	9.6050e-01	0.7875	-12.376117	0.000556	5.558471	0.941631	-0.011118
1923	9.6100e-01	0.7718	-12.432563	0.000564	5.643986	0.956117	-0.011289
1924	9.6150e-01	0.7658	-12.475326	0.000428	4.275747	0.724331	-0.008553
1925	9.6200e-01	0.7543	-12.536476	0.000611	6.114318	1.035794	-0.012230
1926	9.6250e-01	0.7464	-12.555720	0.000192	1.924086	0.325949	-0.003849
1927	9.6300e-01	0.7376	-12.626705	0.000710	7.097740	1.202390	-0.014197
1928	9.6350e-01	0.7263	-12.666474	0.000398	3.976445	0.673628	-0.007954
1929	9.6400e-01	0.7155	-12.703250	0.000368	3.677143	0.622925	-0.007355
1930	9.6450e-01	0.7066	-12.766539	0.000633	6.328106	1.072010	-0.012658
1931	9.6500e-01	0.6967	-12.808874	0.000423	4.232990	0.717088	-0.008467
1932	9.6550e-01	0.6842	-12.870452	0.000616	6.157076	1.043037	-0.012316
1933	9.6600e-01	0.6750	-12.910648	0.000402	4.019202	0.680871	-0.008039
1934	9.6650e-01	0.6674	-12.968378	0.000577	5.772259	0.977847	-0.011546
1935	9.6700e-01	0.6546	-13.000877	0.000325	3.249568	0.550492	-0.006500
1936	9.6750e-01	0.6435	-13.049627	0.000487	4.874352	0.825738	-0.009750
1937	9.6800e-01	0.6351	-13.108639	0.000590	5.900531	0.999577	-0.011802
1938	9.6850e-01	0.6258	-13.157816	0.000492	4.917109	0.832981	-0.009835
1939	9.6900e-01	0.6135	-13.214690	0.000569	5.686744	0.963360	-0.011375
1940	9.6950e-01	0.6062	-13.260874	0.000462	4.617807	0.782278	-0.009237
1941	9.7000e-01	0.5968	-13.299787	0.000389	3.890930	0.659141	-0.007783
1942	9.7050e-01	0.5882	-13.363504	0.000637	6.370863	1.079253	-0.012743
1943	9.7100e-01	0.5753	-13.413536	0.000500	5.002624	0.847467	-0.010006
1944	9.7150e-01	0.5660	-13.464423	0.000509	5.088139	0.861954	-0.010177
1945	9.7200e-01	0.5554	-13.517876	0.000534	5.344684	0.905414	-0.010691
1946	9.7250e-01	0.5426	-13.565770	0.000479	4.788837	0.811251	-0.009579
1947	9.7300e-01	0.5359	-13.613237	0.000475	4.746079	0.804008	-0.009493
1948	9.7350e-01	0.5230	-13.657710	0.000445	4.446777	0.753304	-0.008895
1949	9.7400e-01	0.5132	-13.708170	0.000505	5.045382	0.854711	-0.010092
1950	9.7450e-01	0.5051	-13.757774	0.000496	4.959867	0.840224	-0.009921
1951	9.7500e-01	0.4942	-13.811655	0.000539	5.387441	0.912657	-0.010776
1952	9.7550e-01	0.4855	-13.864680	0.000530	5.301926	0.898171	-0.010605
1953	9.7600e-01	0.4775	-13.912574	0.000479	4.788837	0.811251	-0.009579
1954	9.7650e-01	0.4655	-13.954054	0.000415	4.147475	0.702601	-0.008296
1955	9.7700e-01	0.4549	-14.008790	0.000547	5.472956	0.927144	-0.010947
1956	9.7750e-01	0.4461	-14.062243	0.000534	5.344684	0.905414	-0.010691
1957	9.7800e-01	0.4348	-14.099447	0.000372	3.719900	0.630168	-0.007441
1958	9.7850e-01	0.4231	-14.172143	0.000727	7.268770	1.231363	-0.014539
1959	9.7900e-01	0.4102	-14.220465	0.000483	4.831594	0.818494	-0.009664
1960	9.7950e-01	0.4059	-14.249116	0.000286	2.864751	0.485302	-0.005730
1961	9.8000e-01	0.3988	-14.331220	0.000821	8.209434	1.390716	-0.016421
1962	9.8050e-01	0.3850	-14.341910	0.000107	1.068937	0.181083	-0.002138
1963	9.8100e-01	0.3780	-14.400067	0.000582	5.815016	0.985090	-0.011631
1964	9.8150e-01	0.3634	-14.459935	0.000599	5.986046	1.014064	-0.011974
1965	9.8200e-01	0.3587	-14.502697	0.000428	4.275747	0.724331	-0.008553
1966	9.8250e-01	0.3451	-14.548881	0.000462	4.617807	0.782278	-0.009237
1967	9.8300e-01	0.3343	-14.614308	0.000654	6.541893	1.108227	-0.013085
1968	9.8350e-01	0.3257	-14.664767	0.000505	5.045382	0.854711	-0.010092
1969	9.8400e-01	0.3159	-14.725490	0.000607	6.071561	1.028550	-0.012145
1970	9.8450e-01	0.3059	-14.781937	0.000564	5.643986	0.956117	-0.011289
1971	9.8500e-01	0.2942	-14.808877	0.000269	2.693721	0.456329	-0.005388
1972	9.8550e-01	0.2852	-14.854205	0.000453	4.532292	0.767791	-0.009066
1973	9.8600e-01	0.2753	-14.917066	0.000629	6.285348	1.064767	-0.012572
1974	9.8650e-01	0.2641	-14.979927	0.000629	6.285348	1.064767	-0.012572
1975	9.8700e-01	0.2541	-15.017986	0.000381	3.805415	0.644655	-0.007612
1976	9.8750e-01	0.2467	-15.070584	0.000526	5.259169	0.890927	-0.010520
1977	9.8800e-01	0.2330	-15.131307	0.000607	6.071561	1.028550	-0.012145
1978	9.8850e-01	0.2252	-15.168938	0.000376	3.762657	0.637411	-0.007526
1979	9.8900e-01	0.2158	-15.225384	0.000564	5.643986	0.956117	-0.011289
1980	9.8950e-01	0.2074	-15.272423	0.000470	4.703322	0.796764	-0.009408
1981	9.9000e-01	0.1945	-15.322883	0.000505	5.045382	0.854711	-0.010092
1982	9.9050e-01	0.1840	-15.366500	0.000436	4.361262	0.738818	-0.008724
1983	9.9100e-01	0.1786	-15.438769	0.000723	7.226013	1.224120	-0.014454
1984	9.9150e-01	0.1649	-15.496926	0.000582	5.815016	0.985090	-0.011631
1985	9.9200e-01	0.1559	-15.520018	0.000231	2.308903	0.391139	-0.004618
1986	9.9250e-01	0.1431	-15.576037	0.000560	5.601229	0.948874	-0.011204
1987	9.9300e-01	0.1366	-15.648305	0.000723	7.226013	1.224120	-0.014454
1988	9.9350e-01	0.1268	-15.697910	0.000496	4.959867	0.840224	-0.009921
1989	9.9400e-01	0.1138	-15.723140	0.000252	2.522691	0.427355	-0.005046
1990	9.9450e-01	0.1059	-15.790705	0.000676	6.755680	1.144443	-0.013513
1991	9.9500e-01	0.0938	-15.838599	0.000479	4.788837	0.811251	-0.009579
1992	9.9550e-01	0.0848	-15.875802	0.000372	3.719900	0.630168	-0.007441
1993	9.9600e-01	0.0756	-15.927972	0.000522	5.216411	0.883684	-0.010434
1994	9.9650e-01	0.0678	-16.016918	0.000889	8.893554	1.506609	-0.017789
1995	9.9700e-01	0.0556	-16.067806	0.000509	5.088139	0.861954	-0.010177
1996	9.9750e-01	0.0445	-16.114845	0.000470	4.703322	0.796764	-0.009408
1997	9.9800e-01	0.0367	-16.139219	0.000244	2.437176	0.412869	-0.004875
1998	9.9850e-01	0.0264	-16.217475	0.000782	7.824617	1.325526	-0.015651
1999	9.9900e-01	0.0138	-16.252968	0.000355	3.548870	0.601195	-0.007099
2000	9.9950e-01	0.0060	-16.297441	0.000445	4.446777	0.753304	-0.008895
2001	1.0000e+00	-0.0025	-16.372275	0.000445	4.446777	0.753304	-0.014967

PMax (uC/cm2):	3.71e+01
Pr (uC/cm2):	2.20e+00
-Pr (uC/cm2):	0.00e+00
PLoss (uC/cm2):	0.00e+00
C (Max-Eff) (nF):	3.72e-01
K (Eff):	6.29e+02
Vert. (+/-Pr) Shift (uC/cm2):	1.10e+00
Offset (uC/cm2):	1.86e+01

A (Loop Area - uC/cm2·Volts):	-2.02e-02



Hysteresis Version: 5.48.1 - Radiant Technologies, Inc., 1999 - 9/12/24

