»»»»»»»»»»»»»»»»»»»»»»»»»»»»»»»»»»»» Hysteresis ««««««««««««««««««««««««««««««««««««
»»»  Executed Version:	5.48.1
»»»  Vision Version:	5.48.4 (R)
»»»  Vision Compiled:	9/18/24
»»»  Driver Version:	5.47.0
»»»  Windows Version:	Windows 8 or 8.1
»»»  Processor Information:	x86 (AMD or Intel) - 32 Processors
»»»  Tester Name:	PMF21124-494 (100V)
»»»  Tester S/N:	PMF21124-494
»»»  Internal Amp Type:	100V RevK 270k
»»»  Internal Amp S/N:	iAB2-596/K     
»»»  Execution Count:	1
»»»»»»»»»»»»»»»»»»»»»»»»»»»»»»»»»»»»»»»»»»««««««««««««««««««««««««««««««««««««««««««

Stored:	6/30/2025 - 12:28:33
Configured:	06/30/25 10:19:58 AM
Executed:	06/30/25 12:28:13 PM

»»»»»»»»»»»»»»»»»»»»»»»»»»»»»»»»»»» Sample Info ««««««««««««««««««««««««««««««««««««
Sample Name:	
Lot Name:	
Wafer Name:	
Die Row/Column:	0/0
Capacitor Number:	0
Sample Area (cm2):	1.00e-04
Sample Thickness (microns):	1.50e-01

Amplifier:	Internal

»»»»»»»»»»»»»»»»»»»»»»»»»»»»»»»»»»» Tester Info «««««««««««««««««««««««««««««««««««
Tester Name:	PMF21124-494 (100V)
Tester Serial Number:	PMF21124-494
Return Signal Amp. Level:	1.79 [Index: 2]

»»»»»»»»»»»»»»»»»»»»»»»»»»»»»»»» Hysteresis Info ««««««««««««««««««««««««««««««««««
Task Name:	Hyst-1804
Volts:	10.00
Field:	666.67 (kV/cm)
DCBias:	0.00
DCField:	0.00 (kV/cm)
Hysteresis Period (ms):	1.00e+00
Preset:	Enabled
Preset Delay (ms):	1.00e+03
Profile:	Standard Monopolar

»»»»»»»»»»»»»»»»»»»»»»»»»»»»»»»»»»»»»» Data «««««««««««««««««««««««««««««««««««««««
Points:	2001

Valid Data

Point	Time (ms)	Drive Voltage	Measured Polarization (uC/cm2)	Capacitance (uF)	Normalized Capacitance (uF/cm2)	Dielectric Constant	Instantaneous Current (mA)
   1	0.0000e+00	-0.0043	-18.180489	0.000654	6.541818	1.108214	0.013085
   2	5.0000e-04	0.0056	-18.115062	0.000654	6.541818	1.108214	0.013085
   3	1.0000e-03	0.0155	-18.062036	0.000530	5.301866	0.898160	0.010605
   4	1.5000e-03	0.0266	-18.000031	0.000620	6.199762	1.050268	0.012401
   5	2.0000e-03	0.0346	-17.972235	0.000278	2.779204	0.470810	0.005559
   6	2.5000e-03	0.0461	-17.924769	0.000475	4.746025	0.803998	0.009493
   7	3.0000e-03	0.0571	-17.842665	0.000821	8.209341	1.390700	0.016421
   8	3.5000e-03	0.0655	-17.813158	0.000295	2.950232	0.499783	0.005901
   9	4.0000e-03	0.0782	-17.754146	0.000590	5.900464	0.999566	0.011802
  10	4.5000e-03	0.0856	-17.725495	0.000286	2.864718	0.485296	0.005730
  11	5.0000e-03	0.0977	-17.671187	0.000543	5.430137	0.919890	0.010862
  12	5.5000e-03	0.1041	-17.628424	0.000428	4.275698	0.724323	0.008553
  13	6.0000e-03	0.1136	-17.561287	0.000671	6.712846	1.137187	0.013427
  14	6.5000e-03	0.1272	-17.534774	0.000265	2.650933	0.449080	0.005303
  15	7.0000e-03	0.1323	-17.471486	0.000633	6.328033	1.071998	0.012658
  16	7.5000e-03	0.1451	-17.416750	0.000547	5.472894	0.927133	0.010947
  17	8.0000e-03	0.1588	-17.369283	0.000475	4.746025	0.803998	0.009493
  18	8.5000e-03	0.1672	-17.332508	0.000368	3.677100	0.622918	0.007355
  19	9.0000e-03	0.1744	-17.290600	0.000419	4.190184	0.709836	0.008381
  20	9.5000e-03	0.1854	-17.228167	0.000624	6.242519	1.057511	0.012487
  21	1.0000e-02	0.1965	-17.192247	0.000359	3.591586	0.608431	0.007184
  22	1.0500e-02	0.2051	-17.131096	0.000611	6.114248	1.035782	0.012230
  23	1.1000e-02	0.2154	-17.103300	0.000278	2.779204	0.470810	0.005559
  24	1.1500e-02	0.2257	-17.052841	0.000505	5.045324	0.854701	0.010092
  25	1.2000e-02	0.2361	-16.994684	0.000581	5.814950	0.985079	0.011631
  26	1.2500e-02	0.2448	-16.939520	0.000552	5.515651	0.934377	0.011033
  27	1.3000e-02	0.2569	-16.904455	0.000351	3.506073	0.593945	0.007013
  28	1.3500e-02	0.2691	-16.865113	0.000393	3.933642	0.666377	0.007868
  29	1.4000e-02	0.2768	-16.790706	0.000744	7.439715	1.260322	0.014881
  30	1.4500e-02	0.2864	-16.745378	0.000453	4.532240	0.767782	0.009066
  31	1.5000e-02	0.2944	-16.709458	0.000359	3.591586	0.608431	0.007184
  32	1.5500e-02	0.3050	-16.635906	0.000735	7.354201	1.245835	0.014710
  33	1.6000e-02	0.3162	-16.603407	0.000325	3.249531	0.550485	0.006500
  34	1.6500e-02	0.3283	-16.550381	0.000530	5.301866	0.898160	0.010605
  35	1.7000e-02	0.3345	-16.511895	0.000385	3.848128	0.651891	0.007697
  36	1.7500e-02	0.3466	-16.468705	0.000432	4.318455	0.731566	0.008638
  37	1.8000e-02	0.3566	-16.412686	0.000560	5.601165	0.948863	0.011204
  38	1.8500e-02	0.3662	-16.348114	0.000646	6.456304	1.093728	0.012914
  39	1.9000e-02	0.3758	-16.307062	0.000410	4.104670	0.695350	0.008210
  40	1.9500e-02	0.3848	-16.273707	0.000334	3.335045	0.564972	0.006671
  41	2.0000e-02	0.3958	-16.217261	0.000564	5.643922	0.956106	0.011289
  42	2.0500e-02	0.4053	-16.157821	0.000594	5.943220	1.006809	0.011888
  43	2.1000e-02	0.4186	-16.151834	0.000060	0.598598	0.101405	0.001197
  44	2.1500e-02	0.4245	-16.067592	0.000842	8.423125	1.426916	0.016848
  45	2.2000e-02	0.4350	-16.020126	0.000475	4.746025	0.803998	0.009493
  46	2.2500e-02	0.4443	-15.964962	0.000552	5.515651	0.934377	0.011033
  47	2.3000e-02	0.4558	-15.935883	0.000291	2.907475	0.492540	0.005816
  48	2.3500e-02	0.4665	-15.899108	0.000368	3.677100	0.622918	0.007355
  49	2.4000e-02	0.4785	-15.829832	0.000693	6.926631	1.173403	0.013855
  50	2.4500e-02	0.4884	-15.768254	0.000616	6.157005	1.043025	0.012316
  51	2.5000e-02	0.4948	-15.727202	0.000410	4.104670	0.695350	0.008210
  52	2.5500e-02	0.5082	-15.693848	0.000334	3.335045	0.564972	0.006671
  53	2.6000e-02	0.5175	-15.642533	0.000513	5.130838	0.869187	0.010263
  54	2.6500e-02	0.5241	-15.579244	0.000633	6.328033	1.071998	0.012658
  55	2.7000e-02	0.5354	-15.533488	0.000457	4.574997	0.775025	0.009151
  56	2.7500e-02	0.5487	-15.492436	0.000410	4.104670	0.695350	0.008210
  57	2.8000e-02	0.5540	-15.440266	0.000522	5.216352	0.883674	0.010434
  58	2.8500e-02	0.5653	-15.400069	0.000402	4.019156	0.680864	0.008039
  59	2.9000e-02	0.5738	-15.344050	0.000560	5.601165	0.948863	0.011204
  60	2.9500e-02	0.5875	-15.310695	0.000334	3.335045	0.564972	0.006671
  61	3.0000e-02	0.5985	-15.257670	0.000530	5.301866	0.898160	0.010605
  62	3.0500e-02	0.6059	-15.209348	0.000483	4.831539	0.818485	0.009664
  63	3.1000e-02	0.6180	-15.155467	0.000539	5.387380	0.912647	0.010776
  64	3.1500e-02	0.6242	-15.101159	0.000543	5.430137	0.919890	0.010862
  65	3.2000e-02	0.6393	-15.060107	0.000410	4.104670	0.695350	0.008210
  66	3.2500e-02	0.6479	-15.008364	0.000517	5.173595	0.876431	0.010349
  67	3.3000e-02	0.6569	-14.943365	0.000650	6.499061	1.100971	0.013000
  68	3.3500e-02	0.6667	-14.936096	0.000073	0.726869	0.123135	0.001454
  69	3.4000e-02	0.6777	-14.870241	0.000658	6.584575	1.115457	0.013171
  70	3.4500e-02	0.6853	-14.834748	0.000355	3.548829	0.601188	0.007099
  71	3.5000e-02	0.6940	-14.771887	0.000629	6.285276	1.064755	0.012572
  72	3.5500e-02	0.7073	-14.731263	0.000406	4.061913	0.688107	0.008125
  73	3.6000e-02	0.7169	-14.681231	0.000500	5.002567	0.847458	0.010006
  74	3.6500e-02	0.7246	-14.647876	0.000334	3.335045	0.564972	0.006671
  75	3.7000e-02	0.7354	-14.584588	0.000633	6.328033	1.071998	0.012658
  76	3.7500e-02	0.7487	-14.537121	0.000475	4.746025	0.803998	0.009493
  77	3.8000e-02	0.7568	-14.490510	0.000466	4.660511	0.789512	0.009322
  78	3.8500e-02	0.7658	-14.441333	0.000492	4.917053	0.832971	0.009835
  79	3.9000e-02	0.7754	-14.400281	0.000410	4.104670	0.695350	0.008210
  80	3.9500e-02	0.7867	-14.353242	0.000470	4.703268	0.796755	0.009408
  81	4.0000e-02	0.7979	-14.271994	0.000812	8.123827	1.376213	0.016250
  82	4.0500e-02	0.8069	-14.251040	0.000210	2.095092	0.354918	0.004191
  83	4.1000e-02	0.8173	-14.211271	0.000398	3.976399	0.673620	0.007954
  84	4.1500e-02	0.8276	-14.153114	0.000581	5.814950	0.985079	0.011631
  85	4.2000e-02	0.8350	-14.096667	0.000564	5.643922	0.956106	0.011289
  86	4.2500e-02	0.8467	-14.059464	0.000372	3.719857	0.630161	0.007441
  87	4.3000e-02	0.8557	-14.025254	0.000342	3.420559	0.579458	0.006842
  88	4.3500e-02	0.8673	-13.949136	0.000761	7.610743	1.289295	0.015223
  89	4.4000e-02	0.8749	-13.939301	0.000098	0.983411	0.166594	0.001967
  90	4.4500e-02	0.8859	-13.866177	0.000731	7.311444	1.238592	0.014625
  91	4.5000e-02	0.8945	-13.828119	0.000381	3.805371	0.644647	0.007612
  92	4.5500e-02	0.9076	-13.777231	0.000509	5.088081	0.861944	0.010177
  93	4.6000e-02	0.9163	-13.731903	0.000453	4.532240	0.767782	0.009066
  94	4.6500e-02	0.9255	-13.688285	0.000436	4.361212	0.738809	0.008724
  95	4.7000e-02	0.9361	-13.668187	0.000201	2.009578	0.340432	0.004020
  96	4.7500e-02	0.9491	-13.606181	0.000620	6.199762	1.050268	0.012401
  97	4.8000e-02	0.9552	-13.560425	0.000457	4.574997	0.775025	0.009151
  98	4.8500e-02	0.9665	-13.506972	0.000534	5.344623	0.905404	0.010691
  99	4.9000e-02	0.9763	-13.453946	0.000530	5.301866	0.898160	0.010605
 100	4.9500e-02	0.9863	-13.415888	0.000381	3.805371	0.644647	0.007612
 101	5.0000e-02	0.9975	-13.379540	0.000363	3.634343	0.615674	0.007270
 102	5.0500e-02	1.0118	-13.326514	0.000530	5.301866	0.898160	0.010605
 103	5.1000e-02	1.0178	-13.276482	0.000500	5.002567	0.847458	0.010006
 104	5.1500e-02	1.0262	-13.239279	0.000372	3.719857	0.630161	0.007441
 105	5.2000e-02	1.0354	-13.192667	0.000466	4.660511	0.789512	0.009322
 106	5.2500e-02	1.0464	-13.122109	0.000705	7.054902	1.195133	0.014112
 107	5.3000e-02	1.0586	-13.086616	0.000355	3.548829	0.601188	0.007099
 108	5.3500e-02	1.0669	-13.026749	0.000599	5.985977	1.014052	0.011974
 109	5.4000e-02	1.0769	-13.012209	0.000145	1.453737	0.246270	0.002908
 110	5.4500e-02	1.0854	-12.943362	0.000688	6.883874	1.166160	0.013770
 111	5.5000e-02	1.0946	-12.907869	0.000355	3.548829	0.601188	0.007099
 112	5.5500e-02	1.1062	-12.855271	0.000526	5.259109	0.890917	0.010520
 113	5.6000e-02	1.1164	-12.786851	0.000684	6.841117	1.158917	0.013684
 114	5.6500e-02	1.1264	-12.767608	0.000192	1.924064	0.325945	0.003849
 115	5.7000e-02	1.1372	-12.695339	0.000723	7.225930	1.224106	0.014454
 116	5.7500e-02	1.1425	-12.661557	0.000338	3.377802	0.572215	0.006756
 117	5.8000e-02	1.1548	-12.609814	0.000517	5.173595	0.876431	0.010349
 118	5.8500e-02	1.1641	-12.560210	0.000496	4.959810	0.840215	0.009921
 119	5.9000e-02	1.1775	-12.532842	0.000274	2.736447	0.463567	0.005474
 120	5.9500e-02	1.1869	-12.476395	0.000564	5.643922	0.956106	0.011289
 121	6.0000e-02	1.1974	-12.449027	0.000274	2.736447	0.463567	0.005474
 122	6.0500e-02	1.2115	-12.379752	0.000693	6.926631	1.173403	0.013855
 123	6.1000e-02	1.2162	-12.351101	0.000286	2.864718	0.485296	0.005730
 124	6.1500e-02	1.2282	-12.300641	0.000505	5.045324	0.854701	0.010092
 125	6.2000e-02	1.2354	-12.246333	0.000543	5.430137	0.919890	0.010862
 126	6.2500e-02	1.2479	-12.211267	0.000351	3.506073	0.593945	0.007013
 127	6.3000e-02	1.2549	-12.151827	0.000594	5.943220	1.006809	0.011888
 128	6.3500e-02	1.2680	-12.119328	0.000325	3.249531	0.550485	0.006500
 129	6.4000e-02	1.2743	-12.070151	0.000492	4.917053	0.832971	0.009835
 130	6.4500e-02	1.2862	-12.028244	0.000419	4.190184	0.709836	0.008381
 131	6.5000e-02	1.2963	-12.000020	0.000282	2.821961	0.478053	0.005645
 132	6.5500e-02	1.3031	-11.920910	0.000791	7.910042	1.339997	0.015822
 133	6.6000e-02	1.3161	-11.897390	0.000235	2.351634	0.398378	0.004704
 134	6.6500e-02	1.3268	-11.867457	0.000299	2.992989	0.507026	0.005987
 135	6.7000e-02	1.3369	-11.802030	0.000654	6.541818	1.108214	0.013085
 136	6.7500e-02	1.3460	-11.757557	0.000445	4.446726	0.753296	0.008895
 137	6.8000e-02	1.3563	-11.723347	0.000342	3.420559	0.579458	0.006842
 138	6.8500e-02	1.3669	-11.667756	0.000556	5.558408	0.941620	0.011118
 139	6.9000e-02	1.3786	-11.616013	0.000517	5.173595	0.876431	0.010349
 140	6.9500e-02	1.3861	-11.570257	0.000457	4.574997	0.775025	0.009151
 141	7.0000e-02	1.3962	-11.530488	0.000398	3.976399	0.673620	0.007954
 142	7.0500e-02	1.4064	-11.479173	0.000513	5.130838	0.869187	0.010263
 143	7.1000e-02	1.4206	-11.425720	0.000534	5.344623	0.905404	0.010691
 144	7.1500e-02	1.4240	-11.395358	0.000304	3.035746	0.514269	0.006072
 145	7.2000e-02	1.4373	-11.341478	0.000539	5.387380	0.912647	0.010776
 146	7.2500e-02	1.4461	-11.303847	0.000376	3.762614	0.637404	0.007526
 147	7.3000e-02	1.4551	-11.272202	0.000316	3.164017	0.535999	0.006329
 148	7.3500e-02	1.4632	-11.202072	0.000701	7.012145	1.187890	0.014026
 149	7.4000e-02	1.4771	-11.144770	0.000573	5.729436	0.970593	0.011460
 150	7.4500e-02	1.4851	-11.123816	0.000210	2.095092	0.354918	0.004191
 151	7.5000e-02	1.4948	-11.066087	0.000577	5.772193	0.977836	0.011546
 152	7.5500e-02	1.5080	-11.040857	0.000252	2.522662	0.427350	0.005046
 153	7.6000e-02	1.5173	-10.993818	0.000470	4.703268	0.796755	0.009408
 154	7.6500e-02	1.5253	-10.926253	0.000676	6.755603	1.144430	0.013513
 155	7.7000e-02	1.5359	-10.901451	0.000248	2.479905	0.420107	0.004960
 156	7.7500e-02	1.5466	-10.859544	0.000419	4.190184	0.709836	0.008381
 157	7.8000e-02	1.5552	-10.788130	0.000714	7.140416	1.209619	0.014283
 158	7.8500e-02	1.5649	-10.749217	0.000389	3.890885	0.659134	0.007783
 159	7.9000e-02	1.5799	-10.713724	0.000355	3.548829	0.601188	0.007099
 160	7.9500e-02	1.5881	-10.679086	0.000346	3.463316	0.586702	0.006928
 161	8.0000e-02	1.5948	-10.606390	0.000727	7.268687	1.231349	0.014539
 162	8.0500e-02	1.6048	-10.588002	0.000184	1.838550	0.311459	0.003678
 163	8.1000e-02	1.6174	-10.529417	0.000586	5.857707	0.992322	0.011717
 164	8.1500e-02	1.6287	-10.489220	0.000402	4.019156	0.680864	0.008039
 165	8.2000e-02	1.6357	-10.454155	0.000351	3.506073	0.593945	0.007013
 166	8.2500e-02	1.6463	-10.410110	0.000440	4.403969	0.746053	0.008809
 167	8.3000e-02	1.6555	-10.348104	0.000620	6.199762	1.050268	0.012401
 168	8.3500e-02	1.6663	-10.320308	0.000278	2.779204	0.470810	0.005559
 169	8.4000e-02	1.6768	-10.269421	0.000509	5.088081	0.861944	0.010177
 170	8.4500e-02	1.6870	-10.218106	0.000513	5.130838	0.869187	0.010263
 171	8.5000e-02	1.6943	-10.166791	0.000513	5.130838	0.869187	0.010263
 172	8.5500e-02	1.7055	-10.145410	0.000214	2.137849	0.362161	0.004276
 173	8.6000e-02	1.7169	-10.071003	0.000744	7.439715	1.260322	0.014881
 174	8.6500e-02	1.7262	-10.050049	0.000210	2.095092	0.354918	0.004191
 175	8.7000e-02	1.7339	-9.991465	0.000586	5.857707	0.992322	0.011717
 176	8.7500e-02	1.7459	-9.964952	0.000265	2.650933	0.449080	0.005303
 177	8.8000e-02	1.7558	-9.920906	0.000440	4.403969	0.746053	0.008809
 178	8.8500e-02	1.7657	-9.867881	0.000530	5.301866	0.898160	0.010605
 179	8.9000e-02	1.7747	-9.812717	0.000552	5.515651	0.934377	0.011033
 180	8.9500e-02	1.7867	-9.776369	0.000363	3.634343	0.615674	0.007270
 181	9.0000e-02	1.7943	-9.753277	0.000231	2.308877	0.391134	0.004618
 182	9.0500e-02	1.8086	-9.672028	0.000812	8.123827	1.376213	0.016250
 183	9.1000e-02	1.8172	-9.641239	0.000308	3.078503	0.521512	0.006158
 184	9.1500e-02	1.8225	-9.593345	0.000479	4.788782	0.811242	0.009579
 185	9.2000e-02	1.8347	-9.561274	0.000321	3.206774	0.543242	0.006414
 186	9.2500e-02	1.8457	-9.502261	0.000590	5.900464	0.999566	0.011802
 187	9.3000e-02	1.8576	-9.478742	0.000235	2.351634	0.398378	0.004704
 188	9.3500e-02	1.8668	-9.395783	0.000829	8.294854	1.405186	0.016592
 189	9.4000e-02	1.8760	-9.373118	0.000227	2.266120	0.383891	0.004533
 190	9.4500e-02	1.8854	-9.335060	0.000381	3.805371	0.644647	0.007612
 191	9.5000e-02	1.8977	-9.283745	0.000513	5.130838	0.869187	0.010263
 192	9.5500e-02	1.9067	-9.261081	0.000227	2.266120	0.383891	0.004533
 193	9.6000e-02	1.9145	-9.218746	0.000423	4.232941	0.717080	0.008467
 194	9.6500e-02	1.9303	-9.167858	0.000509	5.088081	0.861944	0.010177
 195	9.7000e-02	1.9370	-9.107563	0.000603	6.028734	1.021295	0.012059
 196	9.7500e-02	1.9446	-9.081050	0.000265	2.650933	0.449080	0.005303
 197	9.8000e-02	1.9560	-9.032729	0.000483	4.831539	0.818485	0.009664
 198	9.8500e-02	1.9640	-8.990821	0.000419	4.190184	0.709836	0.008381
 199	9.9000e-02	1.9760	-8.941644	0.000492	4.917053	0.832971	0.009835
 200	9.9500e-02	1.9831	-8.894178	0.000475	4.746025	0.803998	0.009493
 201	1.0000e-01	1.9986	-8.859113	0.000351	3.506073	0.593945	0.007013
 202	1.0050e-01	2.0068	-8.804804	0.000543	5.430137	0.919890	0.010862
 203	1.0100e-01	2.0139	-8.770594	0.000342	3.420559	0.579458	0.006842
 204	1.0150e-01	2.0267	-8.732963	0.000376	3.762614	0.637404	0.007526
 205	1.0200e-01	2.0341	-8.658129	0.000748	7.482472	1.267565	0.014967
 206	1.0250e-01	2.0462	-8.625629	0.000325	3.249531	0.550485	0.006500
 207	1.0300e-01	2.0579	-8.612801	0.000128	1.282709	0.217297	0.002566
 208	1.0350e-01	2.0668	-8.548657	0.000641	6.413547	1.086484	0.012829
 209	1.0400e-01	2.0769	-8.524282	0.000244	2.437148	0.412864	0.004875
 210	1.0450e-01	2.0886	-8.467836	0.000564	5.643922	0.956106	0.011289
 211	1.0500e-01	2.0941	-8.417804	0.000500	5.002567	0.847458	0.010006
 212	1.0550e-01	2.1060	-8.376752	0.000410	4.104670	0.695350	0.008210
 213	1.0600e-01	2.1159	-8.344680	0.000321	3.206774	0.543242	0.006414
 214	1.0650e-01	2.1290	-8.304055	0.000406	4.061913	0.688107	0.008125
 215	1.0700e-01	2.1381	-8.264286	0.000398	3.976399	0.673620	0.007954
 216	1.0750e-01	2.1455	-8.207412	0.000569	5.686679	0.963349	0.011375
 217	1.0800e-01	2.1552	-8.167215	0.000402	4.019156	0.680864	0.008039
 218	1.0850e-01	2.1661	-8.119749	0.000475	4.746025	0.803998	0.009493
 219	1.0900e-01	2.1764	-8.076559	0.000432	4.318455	0.731566	0.008638
 220	1.0950e-01	2.1864	-8.034224	0.000423	4.232941	0.717080	0.008467
 221	1.1000e-01	2.1963	-7.988040	0.000462	4.617754	0.782269	0.009237
 222	1.1050e-01	2.2073	-7.952547	0.000355	3.548829	0.601188	0.007099
 223	1.1100e-01	2.2162	-7.908929	0.000436	4.361212	0.738809	0.008724
 224	1.1150e-01	2.2256	-7.868305	0.000406	4.061913	0.688107	0.008125
 225	1.1200e-01	2.2402	-7.815707	0.000526	5.259109	0.890917	0.010520
 226	1.1250e-01	2.2478	-7.775083	0.000406	4.061913	0.688107	0.008125
 227	1.1300e-01	2.2571	-7.725051	0.000500	5.002567	0.847458	0.010006
 228	1.1350e-01	2.2667	-7.710939	0.000141	1.410980	0.239027	0.002822
 229	1.1400e-01	2.2766	-7.632256	0.000787	7.867285	1.332754	0.015737
 230	1.1450e-01	2.2858	-7.605316	0.000269	2.693690	0.456323	0.005388
 231	1.1500e-01	2.2961	-7.579658	0.000257	2.565419	0.434594	0.005132
 232	1.1550e-01	2.3086	-7.530909	0.000487	4.874296	0.825728	0.009750
 233	1.1600e-01	2.3163	-7.495843	0.000351	3.506073	0.593945	0.007013
 234	1.1650e-01	2.3292	-7.421864	0.000740	7.396958	1.253079	0.014796
 235	1.1700e-01	2.3359	-7.381667	0.000402	4.019156	0.680864	0.008039
 236	1.1750e-01	2.3493	-7.356865	0.000248	2.479905	0.420107	0.004960
 237	1.1800e-01	2.3584	-7.293149	0.000637	6.370790	1.079241	0.012743
 238	1.1850e-01	2.3669	-7.276044	0.000171	1.710279	0.289729	0.003421
 239	1.1900e-01	2.3746	-7.222163	0.000539	5.387380	0.912647	0.010776
 240	1.1950e-01	2.3849	-7.169565	0.000526	5.259109	0.890917	0.010520
 241	1.2000e-01	2.3982	-7.158019	0.000115	1.154439	0.195567	0.002309
 242	1.2050e-01	2.4055	-7.099007	0.000590	5.900464	0.999566	0.011802
 243	1.2100e-01	2.4171	-7.049403	0.000496	4.959810	0.840215	0.009921
 244	1.2150e-01	2.4274	-7.016476	0.000329	3.292288	0.557729	0.006585
 245	1.2200e-01	2.4372	-6.989963	0.000265	2.650933	0.449080	0.005303
 246	1.2250e-01	2.4466	-6.916839	0.000731	7.311444	1.238592	0.014625
 247	1.2300e-01	2.4590	-6.889898	0.000269	2.693690	0.456323	0.005388
 248	1.2350e-01	2.4664	-6.839439	0.000505	5.045324	0.854701	0.010092
 249	1.2400e-01	2.4771	-6.819340	0.000201	2.009578	0.340432	0.004020
 250	1.2450e-01	2.4860	-6.762466	0.000569	5.686679	0.963349	0.011375
 251	1.2500e-01	2.4985	-6.722697	0.000398	3.976399	0.673620	0.007954
 252	1.2550e-01	2.5067	-6.677369	0.000453	4.532240	0.767782	0.009066
 253	1.2600e-01	2.5163	-6.635034	0.000423	4.232941	0.717080	0.008467
 254	1.2650e-01	2.5288	-6.581153	0.000539	5.387380	0.912647	0.010776
 255	1.2700e-01	2.5366	-6.562337	0.000188	1.881307	0.318702	0.003763
 256	1.2750e-01	2.5476	-6.516582	0.000457	4.574997	0.775025	0.009151
 257	1.2800e-01	2.5572	-6.454148	0.000624	6.242519	1.057511	0.012487
 258	1.2850e-01	2.5676	-6.454148	0.000000	0.000000	0.000000	0.000000
 259	1.2900e-01	2.5775	-6.384445	0.000697	6.969388	1.180646	0.013941
 260	1.2950e-01	2.5879	-6.327144	0.000573	5.729436	0.970593	0.011460
 261	1.3000e-01	2.5986	-6.301914	0.000252	2.522662	0.427350	0.005046
 262	1.3050e-01	2.6080	-6.254447	0.000475	4.746025	0.803998	0.009493
 263	1.3100e-01	2.6147	-6.209974	0.000445	4.446726	0.753296	0.008895
 264	1.3150e-01	2.6270	-6.172771	0.000372	3.719857	0.630161	0.007441
 265	1.3200e-01	2.6358	-6.139416	0.000334	3.335045	0.564972	0.006671
 266	1.3250e-01	2.6463	-6.109055	0.000304	3.035746	0.514269	0.006072
 267	1.3300e-01	2.6575	-6.053463	0.000556	5.558408	0.941620	0.011118
 268	1.3350e-01	2.6669	-6.005142	0.000483	4.831539	0.818485	0.009664
 269	1.3400e-01	2.6778	-5.968794	0.000363	3.634343	0.615674	0.007270
 270	1.3450e-01	2.6901	-5.935439	0.000334	3.335045	0.564972	0.006671
 271	1.3500e-01	2.6973	-5.876854	0.000586	5.857707	0.992322	0.011717
 272	1.3550e-01	2.7081	-5.837513	0.000393	3.933642	0.666377	0.007868
 273	1.3600e-01	2.7176	-5.800309	0.000372	3.719857	0.630161	0.007441
 274	1.3650e-01	2.7279	-5.761823	0.000385	3.848128	0.651891	0.007697
 275	1.3700e-01	2.7384	-5.728468	0.000334	3.335045	0.564972	0.006671
 276	1.3750e-01	2.7470	-5.674160	0.000543	5.430137	0.919890	0.010862
 277	1.3800e-01	2.7576	-5.653634	0.000205	2.052335	0.347675	0.004105
 278	1.3850e-01	2.7679	-5.591200	0.000624	6.242519	1.057511	0.012487
 279	1.3900e-01	2.7777	-5.558273	0.000329	3.292288	0.557729	0.006585
 280	1.3950e-01	2.7893	-5.511662	0.000466	4.660511	0.789512	0.009322
 281	1.4000e-01	2.7959	-5.468044	0.000436	4.361212	0.738809	0.008724
 282	1.4050e-01	2.8058	-5.431696	0.000363	3.634343	0.615674	0.007270
 283	1.4100e-01	2.8168	-5.397486	0.000342	3.420559	0.579458	0.006842
 284	1.4150e-01	2.8278	-5.359428	0.000381	3.805371	0.644647	0.007612
 285	1.4200e-01	2.8369	-5.323079	0.000363	3.634343	0.615674	0.007270
 286	1.4250e-01	2.8473	-5.261501	0.000616	6.157005	1.043025	0.012316
 287	1.4300e-01	2.8568	-5.236271	0.000252	2.522662	0.427350	0.005046
 288	1.4350e-01	2.8690	-5.180253	0.000560	5.601165	0.948863	0.011204
 289	1.4400e-01	2.8766	-5.148181	0.000321	3.206774	0.543242	0.006414
 290	1.4450e-01	2.8854	-5.117819	0.000304	3.035746	0.514269	0.006072
 291	1.4500e-01	2.8954	-5.080188	0.000376	3.762614	0.637404	0.007526
 292	1.4550e-01	2.9085	-5.028446	0.000517	5.173595	0.876431	0.010349
 293	1.4600e-01	2.9170	-4.976275	0.000522	5.216352	0.883674	0.010434
 294	1.4650e-01	2.9272	-4.927526	0.000487	4.874296	0.825728	0.009750
 295	1.4700e-01	2.9376	-4.900158	0.000274	2.736447	0.463567	0.005474
 296	1.4750e-01	2.9475	-4.862955	0.000372	3.719857	0.630161	0.007441
 297	1.4800e-01	2.9559	-4.837725	0.000252	2.522662	0.427350	0.005046
 298	1.4850e-01	2.9660	-4.792396	0.000453	4.532240	0.767782	0.009066
 299	1.4900e-01	2.9761	-4.746213	0.000462	4.617754	0.782269	0.009237
 300	1.4950e-01	2.9871	-4.709865	0.000363	3.634343	0.615674	0.007270
 301	1.5000e-01	2.9990	-4.642728	0.000671	6.712846	1.137187	0.013427
 302	1.5050e-01	3.0060	-4.613221	0.000295	2.950232	0.499783	0.005901
 303	1.5100e-01	3.0173	-4.583715	0.000295	2.950232	0.499783	0.005901
 304	1.5150e-01	3.0261	-4.540953	0.000428	4.275698	0.724323	0.008553
 305	1.5200e-01	3.0377	-4.494342	0.000466	4.660511	0.789512	0.009322
 306	1.5250e-01	3.0460	-4.470395	0.000239	2.394391	0.405621	0.004789
 307	1.5300e-01	3.0582	-4.420362	0.000500	5.002567	0.847458	0.010006
 308	1.5350e-01	3.0661	-4.381876	0.000385	3.848128	0.651891	0.007697
 309	1.5400e-01	3.0786	-4.335693	0.000462	4.617754	0.782269	0.009237
 310	1.5450e-01	3.0869	-4.301055	0.000346	3.463316	0.586702	0.006928
 311	1.5500e-01	3.0951	-4.268555	0.000325	3.249531	0.550485	0.006500
 312	1.5550e-01	3.1078	-4.242043	0.000265	2.650933	0.449080	0.005303
 313	1.5600e-01	3.1177	-4.180465	0.000616	6.157005	1.043025	0.012316
 314	1.5650e-01	3.1256	-4.156945	0.000235	2.351634	0.398378	0.004704
 315	1.5700e-01	3.1381	-4.104347	0.000526	5.259109	0.890917	0.010520
 316	1.5750e-01	3.1482	-4.056026	0.000483	4.831539	0.818485	0.009664
 317	1.5800e-01	3.1561	-4.008559	0.000475	4.746025	0.803998	0.009493
 318	1.5850e-01	3.1674	-3.976915	0.000316	3.164017	0.535999	0.006329
 319	1.5900e-01	3.1754	-3.938856	0.000381	3.805371	0.644647	0.007612
 320	1.5950e-01	3.1844	-3.892245	0.000466	4.660511	0.789512	0.009322
 321	1.6000e-01	3.1964	-3.867015	0.000252	2.522662	0.427350	0.005046
 322	1.6050e-01	3.2065	-3.848627	0.000184	1.838550	0.311459	0.003678
 323	1.6100e-01	3.2191	-3.786194	0.000624	6.242519	1.057511	0.012487
 324	1.6150e-01	3.2251	-3.737873	0.000483	4.831539	0.818485	0.009664
 325	1.6200e-01	3.2355	-3.699386	0.000385	3.848128	0.651891	0.007697
 326	1.6250e-01	3.2471	-3.672873	0.000265	2.650933	0.449080	0.005303
 327	1.6300e-01	3.2556	-3.624124	0.000487	4.874296	0.825728	0.009750
 328	1.6350e-01	3.2666	-3.581789	0.000423	4.232941	0.717080	0.008467
 329	1.6400e-01	3.2777	-3.550145	0.000316	3.164017	0.535999	0.006329
 330	1.6450e-01	3.2874	-3.509521	0.000406	4.061913	0.688107	0.008125
 331	1.6500e-01	3.2980	-3.463337	0.000462	4.617754	0.782269	0.009237
 332	1.6550e-01	3.3057	-3.424851	0.000385	3.848128	0.651891	0.007697
 333	1.6600e-01	3.3176	-3.387220	0.000376	3.762614	0.637404	0.007526
 334	1.6650e-01	3.3276	-3.344457	0.000428	4.275698	0.724323	0.008553
 335	1.6700e-01	3.3368	-3.279886	0.000646	6.456304	1.093728	0.012914
 336	1.6750e-01	3.3493	-3.266629	0.000133	1.325466	0.224540	0.002651
 337	1.6800e-01	3.3569	-3.231137	0.000355	3.548829	0.601188	0.007099
 338	1.6850e-01	3.3672	-3.186664	0.000445	4.446726	0.753296	0.008895
 339	1.6900e-01	3.3759	-3.150315	0.000363	3.634343	0.615674	0.007270
 340	1.6950e-01	3.3862	-3.118244	0.000321	3.206774	0.543242	0.006414
 341	1.7000e-01	3.3974	-3.073770	0.000445	4.446726	0.753296	0.008895
 342	1.7050e-01	3.4094	-3.017324	0.000564	5.643922	0.956106	0.011289
 343	1.7100e-01	3.4174	-3.002785	0.000145	1.453737	0.246270	0.002908
 344	1.7150e-01	3.4278	-2.955318	0.000475	4.746025	0.803998	0.009493
 345	1.7200e-01	3.4370	-2.901437	0.000539	5.387380	0.912647	0.010776
 346	1.7250e-01	3.4486	-2.861668	0.000398	3.976399	0.673620	0.007954
 347	1.7300e-01	3.4557	-2.837294	0.000244	2.437148	0.412864	0.004875
 348	1.7350e-01	3.4669	-2.790683	0.000466	4.660511	0.789512	0.009322
 349	1.7400e-01	3.4784	-2.738940	0.000517	5.173595	0.876431	0.010349
 350	1.7450e-01	3.4860	-2.717131	0.000218	2.180606	0.369405	0.004362
 351	1.7500e-01	3.4970	-2.682493	0.000346	3.463316	0.586702	0.006928
 352	1.7550e-01	3.5065	-2.660257	0.000222	2.223363	0.376648	0.004447
 353	1.7600e-01	3.5156	-2.615784	0.000445	4.446726	0.753296	0.008895
 354	1.7650e-01	3.5284	-2.569173	0.000466	4.660511	0.789512	0.009322
 355	1.7700e-01	3.5382	-2.525982	0.000432	4.318455	0.731566	0.008638
 356	1.7750e-01	3.5461	-2.474667	0.000513	5.130838	0.869187	0.010263
 357	1.7800e-01	3.5556	-2.453714	0.000210	2.095092	0.354918	0.004191
 358	1.7850e-01	3.5651	-2.405392	0.000483	4.831539	0.818485	0.009664
 359	1.7900e-01	3.5767	-2.368189	0.000372	3.719857	0.630161	0.007441
 360	1.7950e-01	3.5907	-2.349801	0.000184	1.838550	0.311459	0.003678
 361	1.8000e-01	3.5957	-2.286512	0.000633	6.328033	1.071998	0.012658
 362	1.8050e-01	3.6066	-2.239901	0.000466	4.660511	0.789512	0.009322
 363	1.8100e-01	3.6177	-2.220230	0.000197	1.966821	0.333189	0.003934
 364	1.8150e-01	3.6290	-2.180889	0.000393	3.933642	0.666377	0.007868
 365	1.8200e-01	3.6383	-2.135133	0.000457	4.574997	0.775025	0.009151
 366	1.8250e-01	3.6479	-2.100068	0.000351	3.506073	0.593945	0.007013
 367	1.8300e-01	3.6575	-2.069279	0.000308	3.078503	0.521512	0.006158
 368	1.8350e-01	3.6673	-2.042766	0.000265	2.650933	0.449080	0.005303
 369	1.8400e-01	3.6768	-1.973918	0.000688	6.883874	1.166160	0.013770
 370	1.8450e-01	3.6859	-1.943984	0.000299	2.992989	0.507026	0.005987
 371	1.8500e-01	3.6981	-1.905498	0.000385	3.848128	0.651891	0.007697
 372	1.8550e-01	3.7070	-1.872999	0.000325	3.249531	0.550485	0.006500
 373	1.8600e-01	3.7170	-1.821684	0.000513	5.130838	0.869187	0.010263
 374	1.8650e-01	3.7273	-1.799020	0.000227	2.266120	0.383891	0.004533
 375	1.8700e-01	3.7354	-1.751125	0.000479	4.788782	0.811242	0.009579
 376	1.8750e-01	3.7457	-1.719054	0.000321	3.206774	0.543242	0.006414
 377	1.8800e-01	3.7585	-1.676291	0.000428	4.275698	0.724323	0.008553
 378	1.8850e-01	3.7659	-1.630535	0.000457	4.574997	0.775025	0.009151
 379	1.8900e-01	3.7747	-1.586917	0.000436	4.361212	0.738809	0.008724
 380	1.8950e-01	3.7878	-1.565536	0.000214	2.137849	0.362161	0.004276
 381	1.9000e-01	3.7996	-1.515076	0.000505	5.045324	0.854701	0.010092
 382	1.9050e-01	3.8046	-1.494550	0.000205	2.052335	0.347675	0.004105
 383	1.9100e-01	3.8159	-1.442380	0.000522	5.216352	0.883674	0.010434
 384	1.9150e-01	3.8246	-1.392348	0.000500	5.002567	0.847458	0.010006
 385	1.9200e-01	3.8364	-1.373960	0.000184	1.838550	0.311459	0.003678
 386	1.9250e-01	3.8495	-1.329915	0.000440	4.403969	0.746053	0.008809
 387	1.9300e-01	3.8568	-1.293566	0.000363	3.634343	0.615674	0.007270
 388	1.9350e-01	3.8663	-1.249521	0.000440	4.403969	0.746053	0.008809
 389	1.9400e-01	3.8766	-1.221725	0.000278	2.779204	0.470810	0.005559
 390	1.9450e-01	3.8882	-1.192647	0.000291	2.907475	0.492540	0.005816
 391	1.9500e-01	3.8950	-1.136628	0.000560	5.601165	0.948863	0.011204
 392	1.9550e-01	3.9064	-1.105411	0.000312	3.121260	0.528756	0.006243
 393	1.9600e-01	3.9185	-1.072484	0.000329	3.292288	0.557729	0.006585
 394	1.9650e-01	3.9246	-1.021597	0.000509	5.088081	0.861944	0.010177
 395	1.9700e-01	3.9357	-0.994229	0.000274	2.736447	0.463567	0.005474
 396	1.9750e-01	3.9447	-0.955742	0.000385	3.848128	0.651891	0.007697
 397	1.9800e-01	3.9569	-0.915118	0.000406	4.061913	0.688107	0.008125
 398	1.9850e-01	3.9667	-0.876632	0.000385	3.848128	0.651891	0.007697
 399	1.9900e-01	3.9777	-0.857389	0.000192	1.924064	0.325945	0.003849
 400	1.9950e-01	3.9868	-0.808639	0.000487	4.874296	0.825728	0.009750
 401	2.0000e-01	3.9957	-0.756897	0.000517	5.173595	0.876431	0.010349
 402	2.0050e-01	4.0065	-0.730812	0.000261	2.608176	0.441837	0.005217
 403	2.0100e-01	4.0173	-0.694891	0.000359	3.591586	0.608431	0.007184
 404	2.0150e-01	4.0274	-0.663247	0.000316	3.164017	0.535999	0.006329
 405	2.0200e-01	4.0369	-0.606373	0.000569	5.686679	0.963349	0.011375
 406	2.0250e-01	4.0474	-0.579432	0.000269	2.693690	0.456323	0.005388
 407	2.0300e-01	4.0555	-0.519992	0.000594	5.943220	1.006809	0.011888
 408	2.0350e-01	4.0674	-0.492197	0.000278	2.779204	0.470810	0.005559
 409	2.0400e-01	4.0778	-0.458414	0.000338	3.377802	0.572215	0.006756
 410	2.0450e-01	4.0860	-0.413941	0.000445	4.446726	0.753296	0.008895
 411	2.0500e-01	4.0986	-0.381442	0.000325	3.249531	0.550485	0.006500
 412	2.0550e-01	4.1080	-0.355784	0.000257	2.565419	0.434594	0.005132
 413	2.0600e-01	4.1168	-0.330982	0.000248	2.479905	0.420107	0.004960
 414	2.0650e-01	4.1279	-0.296344	0.000346	3.463316	0.586702	0.006928
 415	2.0700e-01	4.1394	-0.217234	0.000791	7.910042	1.339997	0.015822
 416	2.0750e-01	4.1458	-0.202694	0.000145	1.453737	0.246270	0.002908
 417	2.0800e-01	4.1571	-0.168057	0.000346	3.463316	0.586702	0.006928
 418	2.0850e-01	4.1676	-0.154373	0.000137	1.368223	0.231783	0.002737
 419	2.0900e-01	4.1748	-0.088946	0.000654	6.541818	1.108214	0.013085
 420	2.0950e-01	4.1858	-0.045328	0.000436	4.361212	0.738809	0.008724
 421	2.1000e-01	4.1980	-0.032927	0.000124	1.239952	0.210054	0.002480
 422	2.1050e-01	4.2072	0.009408	0.000423	4.232941	0.717080	0.008467
 423	2.1100e-01	4.2180	0.053453	0.000440	4.403969	0.746053	0.008809
 424	2.1150e-01	4.2258	0.087236	0.000338	3.377802	0.572215	0.006756
 425	2.1200e-01	4.2377	0.117169	0.000299	2.992989	0.507026	0.005987
 426	2.1250e-01	4.2484	0.161215	0.000440	4.403969	0.746053	0.008809
 427	2.1300e-01	4.2572	0.203977	0.000428	4.275698	0.724323	0.008553
 428	2.1350e-01	4.2667	0.262562	0.000586	5.857707	0.992322	0.011717
 429	2.1400e-01	4.2755	0.276674	0.000141	1.410980	0.239027	0.002822
 430	2.1450e-01	4.2871	0.298482	0.000218	2.180606	0.369405	0.004362
 431	2.1500e-01	4.2944	0.352791	0.000543	5.430137	0.919890	0.010862
 432	2.1550e-01	4.3083	0.396836	0.000440	4.403969	0.746053	0.008809
 433	2.1600e-01	4.3170	0.422066	0.000252	2.522662	0.427350	0.005046
 434	2.1650e-01	4.3214	0.460552	0.000385	3.848128	0.651891	0.007697
 435	2.1700e-01	4.3375	0.471671	0.000111	1.111682	0.188324	0.002224
 436	2.1750e-01	4.3483	0.540518	0.000688	6.883874	1.166160	0.013770
 437	2.1800e-01	4.3579	0.566176	0.000257	2.565419	0.434594	0.005132
 438	2.1850e-01	4.3665	0.613642	0.000475	4.746025	0.803998	0.009493
 439	2.1900e-01	4.3762	0.660681	0.000470	4.703268	0.796755	0.009408
 440	2.1950e-01	4.3869	0.693608	0.000329	3.292288	0.557729	0.006585
 441	2.2000e-01	4.3961	0.710286	0.000167	1.667522	0.282486	0.003335
 442	2.2050e-01	4.4086	0.752193	0.000419	4.190184	0.709836	0.008381
 443	2.2100e-01	4.4196	0.781271	0.000291	2.907475	0.492540	0.005816
 444	2.2150e-01	4.4293	0.830876	0.000496	4.959810	0.840215	0.009921
 445	2.2200e-01	4.4365	0.876632	0.000457	4.574997	0.775025	0.009151
 446	2.2250e-01	4.4473	0.895875	0.000192	1.924064	0.325945	0.003849
 447	2.2300e-01	4.4568	0.942486	0.000466	4.660511	0.789512	0.009322
 448	2.2350e-01	4.4690	0.966861	0.000244	2.437148	0.412864	0.004875
 449	2.2400e-01	4.4763	0.989097	0.000222	2.223363	0.376648	0.004447
 450	2.2450e-01	4.4873	1.045116	0.000560	5.601165	0.948863	0.011204
 451	2.2500e-01	4.4960	1.071629	0.000265	2.650933	0.449080	0.005303
 452	2.2550e-01	4.5093	1.123372	0.000517	5.173595	0.876431	0.010349
 453	2.2600e-01	4.5193	1.145608	0.000222	2.223363	0.376648	0.004447
 454	2.2650e-01	4.5294	1.202055	0.000564	5.643922	0.956106	0.011289
 455	2.2700e-01	4.5370	1.228567	0.000265	2.650933	0.449080	0.005303
 456	2.2750e-01	4.5462	1.249093	0.000205	2.052335	0.347675	0.004105
 457	2.2800e-01	4.5554	1.294422	0.000453	4.532240	0.767782	0.009066
 458	2.2850e-01	4.5654	1.332908	0.000385	3.848128	0.651891	0.007697
 459	2.2900e-01	4.5764	1.381657	0.000487	4.874296	0.825728	0.009750
 460	2.2950e-01	4.5892	1.411163	0.000295	2.950232	0.499783	0.005901
 461	2.3000e-01	4.5984	1.442808	0.000316	3.164017	0.535999	0.006329
 462	2.3050e-01	4.6069	1.474024	0.000312	3.121260	0.528756	0.006243
 463	2.3100e-01	4.6180	1.514221	0.000402	4.019156	0.680864	0.008039
 464	2.3150e-01	4.6271	1.558694	0.000445	4.446726	0.753296	0.008895
 465	2.3200e-01	4.6378	1.575799	0.000171	1.710279	0.289729	0.003421
 466	2.3250e-01	4.6484	1.611720	0.000359	3.591586	0.608431	0.007184
 467	2.3300e-01	4.6570	1.653627	0.000419	4.190184	0.709836	0.008381
 468	2.3350e-01	4.6637	1.683133	0.000295	2.950232	0.499783	0.005901
 469	2.3400e-01	4.6796	1.731882	0.000487	4.874296	0.825728	0.009750
 470	2.3450e-01	4.6869	1.754974	0.000231	2.308877	0.391134	0.004618
 471	2.3500e-01	4.6964	1.816980	0.000620	6.199762	1.050268	0.012401
 472	2.3550e-01	4.7089	1.838789	0.000218	2.180606	0.369405	0.004362
 473	2.3600e-01	4.7171	1.876847	0.000381	3.805371	0.644647	0.007612
 474	2.3650e-01	4.7247	1.887110	0.000103	1.026168	0.173837	0.002053
 475	2.3700e-01	4.7388	1.930728	0.000436	4.361212	0.738809	0.008724
 476	2.3750e-01	4.7446	1.984181	0.000534	5.344623	0.905404	0.010691
 477	2.3800e-01	4.7571	2.025661	0.000415	4.147427	0.702593	0.008296
 478	2.3850e-01	4.7662	2.053884	0.000282	2.821961	0.478053	0.005645
 479	2.3900e-01	4.7754	2.079542	0.000257	2.565419	0.434594	0.005132
 480	2.3950e-01	4.7882	2.109475	0.000299	2.992989	0.507026	0.005987
 481	2.4000e-01	4.7968	2.168915	0.000594	5.943220	1.006809	0.011888
 482	2.4050e-01	4.8083	2.178751	0.000098	0.983411	0.166594	0.001967
 483	2.4100e-01	4.8169	2.214671	0.000359	3.591586	0.608431	0.007184
 484	2.4150e-01	4.8300	2.256151	0.000415	4.147427	0.702593	0.008296
 485	2.4200e-01	4.8401	2.294210	0.000381	3.805371	0.644647	0.007612
 486	2.4250e-01	4.8456	2.357071	0.000629	6.285276	1.064755	0.012572
 487	2.4300e-01	4.8550	2.375031	0.000180	1.795793	0.304216	0.003592
 488	2.4350e-01	4.8676	2.395984	0.000210	2.095092	0.354918	0.004191
 489	2.4400e-01	4.8779	2.422070	0.000261	2.608176	0.441837	0.005217
 490	2.4450e-01	4.8889	2.466543	0.000445	4.446726	0.753296	0.008895
 491	2.4500e-01	4.8993	2.503746	0.000372	3.719857	0.630161	0.007441
 492	2.4550e-01	4.9078	2.557627	0.000539	5.387380	0.912647	0.010776
 493	2.4600e-01	4.9170	2.605948	0.000483	4.831539	0.818485	0.009664
 494	2.4650e-01	4.9280	2.610225	0.000043	0.427570	0.072432	0.000855
 495	2.4700e-01	4.9384	2.665388	0.000552	5.515651	0.934377	0.011033
 496	2.4750e-01	4.9469	2.683776	0.000184	1.838550	0.311459	0.003678
 497	2.4800e-01	4.9579	2.723973	0.000402	4.019156	0.680864	0.008039
 498	2.4850e-01	4.9695	2.762032	0.000381	3.805371	0.644647	0.007612
 499	2.4900e-01	4.9774	2.793676	0.000316	3.164017	0.535999	0.006329
 500	2.4950e-01	4.9890	2.803084	0.000094	0.940654	0.159351	0.001882
 501	2.5000e-01	4.9963	2.862096	0.000590	5.900464	0.999566	0.011802
 502	2.5050e-01	5.0061	2.884332	0.000222	2.223363	0.376648	0.004447
 503	2.5100e-01	5.0166	2.915977	0.000316	3.164017	0.535999	0.006329
 504	2.5150e-01	5.0287	2.963016	0.000470	4.703268	0.796755	0.009408
 505	2.5200e-01	5.0385	3.016896	0.000539	5.387380	0.912647	0.010776
 506	2.5250e-01	5.0485	3.034001	0.000171	1.710279	0.289729	0.003421
 507	2.5300e-01	5.0562	3.075481	0.000415	4.147427	0.702593	0.008296
 508	2.5350e-01	5.0684	3.088310	0.000128	1.282709	0.217297	0.002566
 509	2.5400e-01	5.0769	3.143046	0.000547	5.472894	0.927133	0.010947
 510	2.5450e-01	5.0906	3.166993	0.000239	2.394391	0.405621	0.004789
 511	2.5500e-01	5.0955	3.216597	0.000496	4.959810	0.840215	0.009921
 512	2.5550e-01	5.1035	3.246959	0.000304	3.035746	0.514269	0.006072
 513	2.5600e-01	5.1173	3.256794	0.000098	0.983411	0.166594	0.001967
 514	2.5650e-01	5.1263	3.314096	0.000573	5.729436	0.970593	0.011460
 515	2.5700e-01	5.1385	3.354720	0.000406	4.061913	0.688107	0.008125
 516	2.5750e-01	5.1471	3.360279	0.000056	0.555841	0.094162	0.001112
 517	2.5800e-01	5.1590	3.418864	0.000586	5.857707	0.992322	0.011717
 518	2.5850e-01	5.1660	3.445804	0.000269	2.693690	0.456323	0.005388
 519	2.5900e-01	5.1776	3.477876	0.000321	3.206774	0.543242	0.006414
 520	2.5950e-01	5.1874	3.521494	0.000436	4.361212	0.738809	0.008724
 521	2.6000e-01	5.1968	3.547579	0.000261	2.608176	0.441837	0.005217
 522	2.6050e-01	5.2069	3.574947	0.000274	2.736447	0.463567	0.005474
 523	2.6100e-01	5.2155	3.618993	0.000440	4.403969	0.746053	0.008809
 524	2.6150e-01	5.2293	3.640802	0.000218	2.180606	0.369405	0.004362
 525	2.6200e-01	5.2374	3.684847	0.000440	4.403969	0.746053	0.008809
 526	2.6250e-01	5.2472	3.728892	0.000440	4.403969	0.746053	0.008809
 527	2.6300e-01	5.2576	3.762675	0.000338	3.377802	0.572215	0.006756
 528	2.6350e-01	5.2701	3.802444	0.000398	3.976399	0.673620	0.007954
 529	2.6400e-01	5.2762	3.839647	0.000372	3.719857	0.630161	0.007441
 530	2.6450e-01	5.2875	3.843068	0.000034	0.342056	0.057946	0.000684
 531	2.6500e-01	5.2960	3.902508	0.000594	5.943220	1.006809	0.011888
 532	2.6550e-01	5.3064	3.927738	0.000252	2.522662	0.427350	0.005046
 533	2.6600e-01	5.3162	3.949975	0.000222	2.223363	0.376648	0.004447
 534	2.6650e-01	5.3265	3.988461	0.000385	3.848128	0.651891	0.007697
 535	2.6700e-01	5.3369	4.035500	0.000470	4.703268	0.796755	0.009408
 536	2.6750e-01	5.3485	4.056453	0.000210	2.095092	0.354918	0.004191
 537	2.6800e-01	5.3577	4.090236	0.000338	3.377802	0.572215	0.006756
 538	2.6850e-01	5.3668	4.131715	0.000415	4.147427	0.702593	0.008296
 539	2.6900e-01	5.3738	4.169774	0.000381	3.805371	0.644647	0.007612
 540	2.6950e-01	5.3864	4.195432	0.000257	2.565419	0.434594	0.005132
 541	2.7000e-01	5.3973	4.223655	0.000282	2.821961	0.478053	0.005645
 542	2.7050e-01	5.4053	4.271549	0.000479	4.788782	0.811242	0.009579
 543	2.7100e-01	5.4169	4.282667	0.000111	1.111682	0.188324	0.002224
 544	2.7150e-01	5.4276	4.334837	0.000522	5.216352	0.883674	0.010434
 545	2.7200e-01	5.4382	4.372041	0.000372	3.719857	0.630161	0.007441
 546	2.7250e-01	5.4486	4.401975	0.000299	2.992989	0.507026	0.005987
 547	2.7300e-01	5.4575	4.438750	0.000368	3.677100	0.622918	0.007355
 548	2.7350e-01	5.4660	4.468256	0.000295	2.950232	0.499783	0.005901
 549	2.7400e-01	5.4765	4.502039	0.000338	3.377802	0.572215	0.006756
 550	2.7450e-01	5.4855	4.530262	0.000282	2.821961	0.478053	0.005645
 551	2.7500e-01	5.4987	4.581577	0.000513	5.130838	0.869187	0.010263
 552	2.7550e-01	5.5078	4.608090	0.000265	2.650933	0.449080	0.005303
 553	2.7600e-01	5.5194	4.633320	0.000252	2.522662	0.427350	0.005046
 554	2.7650e-01	5.5281	4.672661	0.000393	3.933642	0.666377	0.007868
 555	2.7700e-01	5.5399	4.680786	0.000081	0.812383	0.137621	0.001625
 556	2.7750e-01	5.5505	4.742792	0.000620	6.199762	1.050268	0.012401
 557	2.7800e-01	5.5606	4.774436	0.000316	3.164017	0.535999	0.006329
 558	2.7850e-01	5.5652	4.816771	0.000423	4.232941	0.717080	0.008467
 559	2.7900e-01	5.5774	4.829172	0.000124	1.239952	0.210054	0.002480
 560	2.7950e-01	5.5862	4.879204	0.000500	5.002567	0.847458	0.010006
 561	2.8000e-01	5.5975	4.921539	0.000423	4.232941	0.717080	0.008467
 562	2.8050e-01	5.6110	4.930519	0.000090	0.897897	0.152108	0.001796
 563	2.8100e-01	5.6183	4.971144	0.000406	4.061913	0.688107	0.008125
 564	2.8150e-01	5.6252	5.001505	0.000304	3.035746	0.514269	0.006072
 565	2.8200e-01	5.6348	5.021604	0.000201	2.009578	0.340432	0.004020
 566	2.8250e-01	5.6470	5.082326	0.000607	6.071491	1.028538	0.012145
 567	2.8300e-01	5.6561	5.110122	0.000278	2.779204	0.470810	0.005559
 568	2.8350e-01	5.6653	5.153740	0.000436	4.361212	0.738809	0.008724
 569	2.8400e-01	5.6793	5.161865	0.000081	0.812383	0.137621	0.001625
 570	2.8450e-01	5.6848	5.232423	0.000705	7.054902	1.195133	0.014112
 571	2.8500e-01	5.6982	5.228147	-0.000043	-0.427570	-0.072432	-0.000855
 572	2.8550e-01	5.7080	5.282027	0.000539	5.387380	0.912647	0.010776
 573	2.8600e-01	5.7159	5.321797	0.000398	3.976399	0.673620	0.007954
 574	2.8650e-01	5.7263	5.343178	0.000214	2.137849	0.362161	0.004276
 575	2.8700e-01	5.7364	5.360710	0.000175	1.753036	0.296972	0.003507
 576	2.8750e-01	5.7458	5.400907	0.000402	4.019156	0.680864	0.008039
 577	2.8800e-01	5.7578	5.456071	0.000552	5.515651	0.934377	0.011033
 578	2.8850e-01	5.7666	5.454360	-0.000017	-0.171028	-0.028973	-0.000342
 579	2.8900e-01	5.7785	5.500972	0.000466	4.660511	0.789512	0.009322
 580	2.8950e-01	5.7892	5.527057	0.000261	2.608176	0.441837	0.005217
 581	2.9000e-01	5.7965	5.571102	0.000440	4.403969	0.746053	0.008809
 582	2.9050e-01	5.8063	5.612582	0.000415	4.147427	0.702593	0.008296
 583	2.9100e-01	5.8179	5.617713	0.000051	0.513084	0.086919	0.001026
 584	2.9150e-01	5.8267	5.658765	0.000410	4.104670	0.695350	0.008210
 585	2.9200e-01	5.8377	5.705376	0.000466	4.660511	0.789512	0.009322
 586	2.9250e-01	5.8469	5.729323	0.000239	2.394391	0.405621	0.004789
 587	2.9300e-01	5.8575	5.763533	0.000342	3.420559	0.579458	0.006842
 588	2.9350e-01	5.8655	5.819552	0.000560	5.601165	0.948863	0.011204
 589	2.9400e-01	5.8771	5.835374	0.000158	1.582008	0.267999	0.003164
 590	2.9450e-01	5.8881	5.870012	0.000346	3.463316	0.586702	0.006928
 591	2.9500e-01	5.8960	5.892249	0.000222	2.223363	0.376648	0.004447
 592	2.9550e-01	5.9071	5.932873	0.000406	4.061913	0.688107	0.008125
 593	2.9600e-01	5.9155	5.965800	0.000329	3.292288	0.557729	0.006585
 594	2.9650e-01	5.9247	6.005569	0.000398	3.976399	0.673620	0.007954
 595	2.9700e-01	5.9357	6.027378	0.000218	2.180606	0.369405	0.004362
 596	2.9750e-01	5.9460	6.060305	0.000329	3.292288	0.557729	0.006585
 597	2.9800e-01	5.9583	6.082970	0.000227	2.266120	0.383891	0.004533
 598	2.9850e-01	5.9668	6.126587	0.000436	4.361212	0.738809	0.008724
 599	2.9900e-01	5.9790	6.168067	0.000415	4.147427	0.702593	0.008296
 600	2.9950e-01	5.9857	6.200566	0.000325	3.249531	0.550485	0.006500
 601	3.0000e-01	5.9995	6.239053	0.000385	3.848128	0.651891	0.007697
 602	3.0050e-01	6.0072	6.247178	0.000081	0.812383	0.137621	0.001625
 603	3.0100e-01	6.0153	6.296355	0.000492	4.917053	0.832971	0.009835
 604	3.0150e-01	6.0272	6.324150	0.000278	2.779204	0.470810	0.005559
 605	3.0200e-01	6.0373	6.353229	0.000291	2.907475	0.492540	0.005816
 606	3.0250e-01	6.0493	6.376320	0.000231	2.308877	0.391134	0.004618
 607	3.0300e-01	6.0571	6.433622	0.000573	5.729436	0.970593	0.011460
 608	3.0350e-01	6.0674	6.450300	0.000167	1.667522	0.282486	0.003335
 609	3.0400e-01	6.0791	6.503325	0.000530	5.301866	0.898160	0.010605
 610	3.0450e-01	6.0880	6.528127	0.000248	2.479905	0.420107	0.004960
 611	3.0500e-01	6.0989	6.554640	0.000265	2.650933	0.449080	0.005303
 612	3.0550e-01	6.1096	6.574739	0.000201	2.009578	0.340432	0.004020
 613	3.0600e-01	6.1194	6.615363	0.000406	4.061913	0.688107	0.008125
 614	3.0650e-01	6.1273	6.656843	0.000415	4.147427	0.702593	0.008296
 615	3.0700e-01	6.1395	6.691053	0.000342	3.420559	0.579458	0.006842
 616	3.0750e-01	6.1478	6.722269	0.000312	3.121260	0.528756	0.006243
 617	3.0800e-01	6.1584	6.751775	0.000295	2.950232	0.499783	0.005901
 618	3.0850e-01	6.1652	6.775295	0.000235	2.351634	0.398378	0.004704
 619	3.0900e-01	6.1774	6.810788	0.000355	3.548829	0.601188	0.007099
 620	3.0950e-01	6.1865	6.872366	0.000616	6.157005	1.043025	0.012316
 621	3.1000e-01	6.1981	6.869372	-0.000030	-0.299299	-0.050703	-0.000599
 622	3.1050e-01	6.2074	6.890326	0.000210	2.095092	0.354918	0.004191
 623	3.1100e-01	6.2183	6.949338	0.000590	5.900464	0.999566	0.011802
 624	3.1150e-01	6.2250	6.979272	0.000299	2.992989	0.507026	0.005987
 625	3.1200e-01	6.2373	6.987825	0.000086	0.855140	0.144865	0.001711
 626	3.1250e-01	6.2476	7.033153	0.000453	4.532240	0.767782	0.009066
 627	3.1300e-01	6.2567	7.068218	0.000351	3.506073	0.593945	0.007013
 628	3.1350e-01	6.2668	7.114402	0.000462	4.617754	0.782269	0.009237
 629	3.1400e-01	6.2793	7.134928	0.000205	2.052335	0.347675	0.004105
 630	3.1450e-01	6.2866	7.169565	0.000346	3.463316	0.586702	0.006928
 631	3.1500e-01	6.2970	7.185815	0.000162	1.624765	0.275243	0.003250
 632	3.1550e-01	6.3112	7.217032	0.000312	3.121260	0.528756	0.006243
 633	3.1600e-01	6.3153	7.267492	0.000505	5.045324	0.854701	0.010092
 634	3.1650e-01	6.3275	7.278610	0.000111	1.111682	0.188324	0.002224
 635	3.1700e-01	6.3373	7.313675	0.000351	3.506073	0.593945	0.007013
 636	3.1750e-01	6.3458	7.344464	0.000308	3.078503	0.521512	0.006158
 637	3.1800e-01	6.3556	7.376536	0.000321	3.206774	0.543242	0.006414
 638	3.1850e-01	6.3672	7.401766	0.000252	2.522662	0.427350	0.005046
 639	3.1900e-01	6.3757	7.473607	0.000718	7.183173	1.216862	0.014368
 640	3.1950e-01	6.3861	7.486863	0.000133	1.325466	0.224540	0.002651
 641	3.2000e-01	6.3956	7.509100	0.000222	2.223363	0.376648	0.004447
 642	3.2050e-01	6.4050	7.545020	0.000359	3.591586	0.608431	0.007184
 643	3.2100e-01	6.4185	7.577947	0.000329	3.292288	0.557729	0.006585
 644	3.2150e-01	6.4282	7.610019	0.000321	3.206774	0.543242	0.006414
 645	3.2200e-01	6.4368	7.641236	0.000312	3.121260	0.528756	0.006243
 646	3.2250e-01	6.4481	7.678012	0.000368	3.677100	0.622918	0.007355
 647	3.2300e-01	6.4575	7.718209	0.000402	4.019156	0.680864	0.008039
 648	3.2350e-01	6.4676	7.716498	-0.000017	-0.171028	-0.028973	-0.000342
 649	3.2400e-01	6.4746	7.750708	0.000342	3.420559	0.579458	0.006842
 650	3.2450e-01	6.4893	7.802878	0.000522	5.216352	0.883674	0.010434
 651	3.2500e-01	6.4990	7.829819	0.000269	2.693690	0.456323	0.005388
 652	3.2550e-01	6.5063	7.882417	0.000526	5.259109	0.890917	0.010520
 653	3.2600e-01	6.5167	7.890114	0.000077	0.769626	0.130378	0.001539
 654	3.2650e-01	6.5285	7.915344	0.000252	2.522662	0.427350	0.005046
 655	3.2700e-01	6.5393	7.962383	0.000470	4.703268	0.796755	0.009408
 656	3.2750e-01	6.5448	7.993172	0.000308	3.078503	0.521512	0.006158
 657	3.2800e-01	6.5570	8.012842	0.000197	1.966821	0.333189	0.003934
 658	3.2850e-01	6.5677	8.052184	0.000393	3.933642	0.666377	0.007868
 659	3.2900e-01	6.5747	8.079552	0.000274	2.736447	0.463567	0.005474
 660	3.2950e-01	6.5875	8.110341	0.000308	3.078503	0.521512	0.006158
 661	3.3000e-01	6.5979	8.123597	0.000133	1.325466	0.224540	0.002651
 662	3.3050e-01	6.6071	8.178333	0.000547	5.472894	0.927133	0.010947
 663	3.3100e-01	6.6174	8.219813	0.000415	4.147427	0.702593	0.008296
 664	3.3150e-01	6.6266	8.241194	0.000214	2.137849	0.362161	0.004276
 665	3.3200e-01	6.6379	8.251885	0.000107	1.068925	0.181081	0.002138
 666	3.3250e-01	6.6455	8.312180	0.000603	6.028734	1.021295	0.012059
 667	3.3300e-01	6.6541	8.313891	0.000017	0.171028	0.028973	0.000342
 668	3.3350e-01	6.6663	8.367344	0.000534	5.344623	0.905404	0.010691
 669	3.3400e-01	6.6772	8.403692	0.000363	3.634343	0.615674	0.007270
 670	3.3450e-01	6.6864	8.419942	0.000162	1.624765	0.275243	0.003250
 671	3.3500e-01	6.6980	8.440895	0.000210	2.095092	0.354918	0.004191
 672	3.3550e-01	6.7087	8.496059	0.000552	5.515651	0.934377	0.011033
 673	3.3600e-01	6.7169	8.517013	0.000210	2.095092	0.354918	0.004191
 674	3.3650e-01	6.7273	8.541815	0.000248	2.479905	0.420107	0.004960
 675	3.3700e-01	6.7374	8.585433	0.000436	4.361212	0.738809	0.008724
 676	3.3750e-01	6.7438	8.616222	0.000308	3.078503	0.521512	0.006158
 677	3.3800e-01	6.7557	8.645728	0.000295	2.950232	0.499783	0.005901
 678	3.3850e-01	6.7679	8.664116	0.000184	1.838550	0.311459	0.003678
 679	3.3900e-01	6.7761	8.704740	0.000406	4.061913	0.688107	0.008125
 680	3.3950e-01	6.7865	8.723128	0.000184	1.838550	0.311459	0.003678
 681	3.4000e-01	6.7981	8.785989	0.000629	6.285276	1.064755	0.012572
 682	3.4050e-01	6.8066	8.793686	0.000077	0.769626	0.130378	0.001539
 683	3.4100e-01	6.8170	8.830034	0.000363	3.634343	0.615674	0.007270
 684	3.4150e-01	6.8286	8.837732	0.000077	0.769626	0.130378	0.001539
 685	3.4200e-01	6.8359	8.885626	0.000479	4.788782	0.811242	0.009579
 686	3.4250e-01	6.8500	8.920691	0.000351	3.506073	0.593945	0.007013
 687	3.4300e-01	6.8591	8.957039	0.000363	3.634343	0.615674	0.007270
 688	3.4350e-01	6.8680	8.996381	0.000393	3.933642	0.666377	0.007868
 689	3.4400e-01	6.8793	9.014768	0.000184	1.838550	0.311459	0.003678
 690	3.4450e-01	6.8884	9.047268	0.000325	3.249531	0.550485	0.006500
 691	3.4500e-01	6.8970	9.082333	0.000351	3.506073	0.593945	0.007013
 692	3.4550e-01	6.9080	9.104142	0.000218	2.180606	0.369405	0.004362
 693	3.4600e-01	6.9203	9.142628	0.000385	3.848128	0.651891	0.007697
 694	3.4650e-01	6.9293	9.169141	0.000265	2.650933	0.449080	0.005303
 695	3.4700e-01	6.9391	9.194799	0.000257	2.565419	0.434594	0.005132
 696	3.4750e-01	6.9489	9.234568	0.000398	3.976399	0.673620	0.007954
 697	3.4800e-01	6.9580	9.237134	0.000026	0.256542	0.043459	0.000513
 698	3.4850e-01	6.9684	9.297856	0.000607	6.071491	1.028538	0.012145
 699	3.4900e-01	6.9763	9.318382	0.000205	2.052335	0.347675	0.004105
 700	3.4950e-01	6.9876	9.359007	0.000406	4.061913	0.688107	0.008125
 701	3.5000e-01	6.9958	9.388941	0.000299	2.992989	0.507026	0.005987
 702	3.5050e-01	7.0081	9.411177	0.000222	2.223363	0.376648	0.004447
 703	3.5100e-01	7.0166	9.446242	0.000351	3.506073	0.593945	0.007013
 704	3.5150e-01	7.0259	9.456078	0.000098	0.983411	0.166594	0.001967
 705	3.5200e-01	7.0368	9.499268	0.000432	4.318455	0.731566	0.008638
 706	3.5250e-01	7.0483	9.535616	0.000363	3.634343	0.615674	0.007270
 707	3.5300e-01	7.0593	9.577523	0.000419	4.190184	0.709836	0.008381
 708	3.5350e-01	7.0667	9.596339	0.000188	1.881307	0.318702	0.003763
 709	3.5400e-01	7.0773	9.606174	0.000098	0.983411	0.166594	0.001967
 710	3.5450e-01	7.0892	9.665614	0.000594	5.943220	1.006809	0.011888
 711	3.5500e-01	7.0978	9.694693	0.000291	2.907475	0.492540	0.005816
 712	3.5550e-01	7.1066	9.703245	0.000086	0.855140	0.144865	0.001711
 713	3.5600e-01	7.1155	9.743442	0.000402	4.019156	0.680864	0.008039
 714	3.5650e-01	7.1265	9.765251	0.000218	2.180606	0.369405	0.004362
 715	3.5700e-01	7.1399	9.810579	0.000453	4.532240	0.767782	0.009066
 716	3.5750e-01	7.1466	9.850776	0.000402	4.019156	0.680864	0.008039
 717	3.5800e-01	7.1570	9.867881	0.000171	1.710279	0.289729	0.003421
 718	3.5850e-01	7.1661	9.903374	0.000355	3.548829	0.601188	0.007099
 719	3.5900e-01	7.1777	9.934590	0.000312	3.121260	0.528756	0.006243
 720	3.5950e-01	7.1878	9.972221	0.000376	3.762614	0.637404	0.007526
 721	3.6000e-01	7.1988	9.989754	0.000175	1.753036	0.296972	0.003507
 722	3.6050e-01	7.2083	10.037220	0.000475	4.746025	0.803998	0.009493
 723	3.6100e-01	7.2165	10.060312	0.000231	2.308877	0.391134	0.004618
 724	3.6150e-01	7.2269	10.083832	0.000235	2.351634	0.398378	0.004704
 725	3.6200e-01	7.2375	10.100509	0.000167	1.667522	0.282486	0.003335
 726	3.6250e-01	7.2498	10.132153	0.000316	3.164017	0.535999	0.006329
 727	3.6300e-01	7.2584	10.151396	0.000192	1.924064	0.325945	0.003849
 728	3.6350e-01	7.2665	10.197580	0.000462	4.617754	0.782269	0.009237
 729	3.6400e-01	7.2784	10.223237	0.000257	2.565419	0.434594	0.005132
 730	3.6450e-01	7.2864	10.271559	0.000483	4.831539	0.818485	0.009664
 731	3.6500e-01	7.2949	10.283960	0.000124	1.239952	0.210054	0.002480
 732	3.6550e-01	7.3053	10.336131	0.000522	5.216352	0.883674	0.010434
 733	3.6600e-01	7.3163	10.353663	0.000175	1.753036	0.296972	0.003507
 734	3.6650e-01	7.3260	10.375900	0.000222	2.223363	0.376648	0.004447
 735	3.6700e-01	7.3352	10.420373	0.000445	4.446726	0.753296	0.008895
 736	3.6750e-01	7.3477	10.455010	0.000346	3.463316	0.586702	0.006928
 737	3.6800e-01	7.3587	10.469977	0.000150	1.496494	0.253513	0.002993
 738	3.6850e-01	7.3669	10.491786	0.000218	2.180606	0.369405	0.004362
 739	3.6900e-01	7.3752	10.516588	0.000248	2.479905	0.420107	0.004960
 740	3.6950e-01	7.3885	10.542674	0.000261	2.608176	0.441837	0.005217
 741	3.7000e-01	7.3975	10.593561	0.000509	5.088081	0.861944	0.010177
 742	3.7050e-01	7.4078	10.629054	0.000355	3.548829	0.601188	0.007099
 743	3.7100e-01	7.4158	10.645304	0.000162	1.624765	0.275243	0.003250
 744	3.7150e-01	7.4287	10.687638	0.000423	4.232941	0.717080	0.008467
 745	3.7200e-01	7.4408	10.711158	0.000235	2.351634	0.398378	0.004704
 746	3.7250e-01	7.4495	10.729546	0.000184	1.838550	0.311459	0.003678
 747	3.7300e-01	7.4567	10.777867	0.000483	4.831539	0.818485	0.009664
 748	3.7350e-01	7.4664	10.793262	0.000154	1.539251	0.260756	0.003079
 749	3.7400e-01	7.4768	10.831321	0.000381	3.805371	0.644647	0.007612
 750	3.7450e-01	7.4866	10.858261	0.000269	2.693690	0.456323	0.005388
 751	3.7500e-01	7.4988	10.889905	0.000316	3.164017	0.535999	0.006329
 752	3.7550e-01	7.5098	10.901451	0.000115	1.154439	0.195567	0.002309
 753	3.7600e-01	7.5154	10.947635	0.000462	4.617754	0.782269	0.009237
 754	3.7650e-01	7.5275	10.969444	0.000218	2.180606	0.369405	0.004362
 755	3.7700e-01	7.5342	11.010923	0.000415	4.147427	0.702593	0.008296
 756	3.7750e-01	7.5458	11.045988	0.000351	3.506073	0.593945	0.007013
 757	3.7800e-01	7.5568	11.052403	0.000064	0.641355	0.108648	0.001283
 758	3.7850e-01	7.5702	11.063093	0.000107	1.068925	0.181081	0.002138
 759	3.7900e-01	7.5769	11.128948	0.000658	6.584575	1.115457	0.013171
 760	3.7950e-01	7.5864	11.146908	0.000180	1.795793	0.304216	0.003592
 761	3.8000e-01	7.5946	11.180263	0.000334	3.335045	0.564972	0.006671
 762	3.8050e-01	7.6068	11.215756	0.000355	3.548829	0.601188	0.007099
 763	3.8100e-01	7.6184	11.244407	0.000286	2.864718	0.485296	0.005730
 764	3.8150e-01	7.6257	11.287597	0.000432	4.318455	0.731566	0.008638
 765	3.8200e-01	7.6361	11.318386	0.000308	3.078503	0.521512	0.006158
 766	3.8250e-01	7.6465	11.350030	0.000316	3.164017	0.535999	0.006329
 767	3.8300e-01	7.6563	11.363286	0.000133	1.325466	0.224540	0.002651
 768	3.8350e-01	7.6691	11.371411	0.000081	0.812383	0.137621	0.001625
 769	3.8400e-01	7.6764	11.407759	0.000363	3.634343	0.615674	0.007270
 770	3.8450e-01	7.6898	11.452232	0.000445	4.446726	0.753296	0.008895
 771	3.8500e-01	7.7002	11.458219	0.000060	0.598598	0.101405	0.001197
 772	3.8550e-01	7.7063	11.497988	0.000398	3.976399	0.673620	0.007954
 773	3.8600e-01	7.7167	11.557428	0.000594	5.943220	1.006809	0.011888
 774	3.8650e-01	7.7274	11.559139	0.000017	0.171028	0.028973	0.000342
 775	3.8700e-01	7.7402	11.598480	0.000393	3.933642	0.666377	0.007868
 776	3.8750e-01	7.7472	11.626276	0.000278	2.779204	0.470810	0.005559
 777	3.8800e-01	7.7563	11.636539	0.000103	1.026168	0.173837	0.002053
 778	3.8850e-01	7.7686	11.689137	0.000526	5.259109	0.890917	0.010520
 779	3.8900e-01	7.7771	11.721209	0.000321	3.206774	0.543242	0.006414
 780	3.8950e-01	7.7893	11.740880	0.000197	1.966821	0.333189	0.003934
 781	3.9000e-01	7.7969	11.769103	0.000282	2.821961	0.478053	0.005645
 782	3.9050e-01	7.8094	11.809300	0.000402	4.019156	0.680864	0.008039
 783	3.9100e-01	7.8192	11.817424	0.000081	0.812383	0.137621	0.001625
 784	3.9150e-01	7.8271	11.850352	0.000329	3.292288	0.557729	0.006585
 785	3.9200e-01	7.8384	11.891404	0.000410	4.104670	0.695350	0.008210
 786	3.9250e-01	7.8456	11.923903	0.000325	3.249531	0.550485	0.006500
 787	3.9300e-01	7.8571	11.946995	0.000231	2.308877	0.391134	0.004618
 788	3.9350e-01	7.8693	11.967093	0.000201	2.009578	0.340432	0.004020
 789	3.9400e-01	7.8796	12.000448	0.000334	3.335045	0.564972	0.006671
 790	3.9450e-01	7.8864	12.027816	0.000274	2.736447	0.463567	0.005474
 791	3.9500e-01	7.8986	12.056467	0.000286	2.864718	0.485296	0.005730
 792	3.9550e-01	7.9086	12.100085	0.000436	4.361212	0.738809	0.008724
 793	3.9600e-01	7.9172	12.121894	0.000218	2.180606	0.369405	0.004362
 794	3.9650e-01	7.9266	12.166367	0.000445	4.446726	0.753296	0.008895
 795	3.9700e-01	7.9352	12.188603	0.000222	2.223363	0.376648	0.004447
 796	3.9750e-01	7.9480	12.217682	0.000291	2.907475	0.492540	0.005816
 797	3.9800e-01	7.9572	12.254030	0.000363	3.634343	0.615674	0.007270
 798	3.9850e-01	7.9688	12.290378	0.000363	3.634343	0.615674	0.007270
 799	3.9900e-01	7.9773	12.307483	0.000171	1.710279	0.289729	0.003421
 800	3.9950e-01	7.9852	12.331430	0.000239	2.394391	0.405621	0.004789
 801	4.0000e-01	7.9956	12.350246	0.000188	1.881307	0.318702	0.003763
 802	4.0050e-01	8.0090	12.396857	0.000466	4.660511	0.789512	0.009322
 803	4.0100e-01	8.0188	12.416100	0.000192	1.924064	0.325945	0.003849
 804	4.0150e-01	8.0273	12.465704	0.000496	4.959810	0.840215	0.009921
 805	4.0200e-01	8.0368	12.472974	0.000073	0.726869	0.123135	0.001454
 806	4.0250e-01	8.0487	12.497776	0.000248	2.479905	0.420107	0.004960
 807	4.0300e-01	8.0554	12.530703	0.000329	3.292288	0.557729	0.006585
 808	4.0350e-01	8.0670	12.566624	0.000359	3.591586	0.608431	0.007184
 809	4.0400e-01	8.0780	12.594420	0.000278	2.779204	0.470810	0.005559
 810	4.0450e-01	8.0853	12.629057	0.000346	3.463316	0.586702	0.006928
 811	4.0500e-01	8.0975	12.641031	0.000120	1.197195	0.202810	0.002395
 812	4.0550e-01	8.1070	12.682510	0.000415	4.147427	0.702593	0.008296
 813	4.0600e-01	8.1158	12.711589	0.000291	2.907475	0.492540	0.005816
 814	4.0650e-01	8.1293	12.735536	0.000239	2.394391	0.405621	0.004789
 815	4.0700e-01	8.1396	12.780437	0.000449	4.489483	0.760539	0.008980
 816	4.0750e-01	8.1448	12.793693	0.000133	1.325466	0.224540	0.002651
 817	4.0800e-01	8.1580	12.830041	0.000363	3.634343	0.615674	0.007270
 818	4.0850e-01	8.1689	12.851850	0.000218	2.180606	0.369405	0.004362
 819	4.0900e-01	8.1781	12.907869	0.000560	5.601165	0.948863	0.011204
 820	4.0950e-01	8.1851	12.911290	0.000034	0.342056	0.057946	0.000684
 821	4.1000e-01	8.1995	12.920270	0.000090	0.897897	0.152108	0.001796
 822	4.1050e-01	8.2068	12.975861	0.000556	5.558408	0.941620	0.011118
 823	4.1100e-01	8.2159	12.970302	-0.000056	-0.555841	-0.094162	-0.001112
 824	4.1150e-01	8.2281	13.029742	0.000594	5.943220	1.006809	0.011888
 825	4.1200e-01	8.2373	13.050696	0.000210	2.095092	0.354918	0.004191
 826	4.1250e-01	8.2452	13.103294	0.000526	5.259109	0.890917	0.010520
 827	4.1300e-01	8.2559	13.111419	0.000081	0.812383	0.137621	0.001625
 828	4.1350e-01	8.2672	13.147339	0.000359	3.591586	0.608431	0.007184
 829	4.1400e-01	8.2767	13.179411	0.000321	3.206774	0.543242	0.006414
 830	4.1450e-01	8.2861	13.193523	0.000141	1.410980	0.239027	0.002822
 831	4.1500e-01	8.2971	13.230298	0.000368	3.677100	0.622918	0.007355
 832	4.1550e-01	8.3058	13.279475	0.000492	4.917053	0.832971	0.009835
 833	4.1600e-01	8.3173	13.288883	0.000094	0.940654	0.159351	0.001882
 834	4.1650e-01	8.3264	13.321383	0.000325	3.249531	0.550485	0.006500
 835	4.1700e-01	8.3337	13.347040	0.000257	2.565419	0.434594	0.005132
 836	4.1750e-01	8.3484	13.360724	0.000137	1.368223	0.231783	0.002737
 837	4.1800e-01	8.3588	13.391513	0.000308	3.078503	0.521512	0.006158
 838	4.1850e-01	8.3667	13.427006	0.000355	3.548829	0.601188	0.007099
 839	4.1900e-01	8.3777	13.468058	0.000410	4.104670	0.695350	0.008210
 840	4.1950e-01	8.3875	13.494143	0.000261	2.608176	0.441837	0.005217
 841	4.2000e-01	8.3972	13.519373	0.000252	2.522662	0.427350	0.005046
 842	4.2050e-01	8.4079	13.554438	0.000351	3.506073	0.593945	0.007013
 843	4.2100e-01	8.4155	13.567695	0.000133	1.325466	0.224540	0.002651
 844	4.2150e-01	8.4271	13.595490	0.000278	2.779204	0.470810	0.005559
 845	4.2200e-01	8.4375	13.646805	0.000513	5.130838	0.869187	0.010263
 846	4.2250e-01	8.4467	13.672035	0.000252	2.522662	0.427350	0.005046
 847	4.2300e-01	8.4583	13.694699	0.000227	2.266120	0.383891	0.004533
 848	4.2350e-01	8.4686	13.734041	0.000393	3.933642	0.666377	0.007868
 849	4.2400e-01	8.4772	13.751574	0.000175	1.753036	0.296972	0.003507
 850	4.2450e-01	8.4900	13.772527	0.000210	2.095092	0.354918	0.004191
 851	4.2500e-01	8.4946	13.831540	0.000590	5.900464	0.999566	0.011802
 852	4.2550e-01	8.5065	13.830257	-0.000013	-0.128271	-0.021730	-0.000257
 853	4.2600e-01	8.5190	13.863611	0.000334	3.335045	0.564972	0.006671
 854	4.2650e-01	8.5278	13.911933	0.000483	4.831539	0.818485	0.009664
 855	4.2700e-01	8.5376	13.926472	0.000145	1.453737	0.246270	0.002908
 856	4.2750e-01	8.5461	13.981208	0.000547	5.472894	0.927133	0.010947
 857	4.2800e-01	8.5583	13.986767	0.000056	0.555841	0.094162	0.001112
 858	4.2850e-01	8.5660	14.026964	0.000402	4.019156	0.680864	0.008039
 859	4.2900e-01	8.5754	14.038510	0.000115	1.154439	0.195567	0.002309
 860	4.2950e-01	8.5889	14.061602	0.000231	2.308877	0.391134	0.004618
 861	4.3000e-01	8.5968	14.097095	0.000355	3.548829	0.601188	0.007099
 862	4.3050e-01	8.6099	14.130877	0.000338	3.377802	0.572215	0.006756
 863	4.3100e-01	8.6194	14.142851	0.000120	1.197195	0.202810	0.002395
 864	4.3150e-01	8.6298	14.186041	0.000432	4.318455	0.731566	0.008638
 865	4.3200e-01	8.6377	14.208705	0.000227	2.266120	0.383891	0.004533
 866	4.3250e-01	8.6462	14.245908	0.000372	3.719857	0.630161	0.007441
 867	4.3300e-01	8.6572	14.282257	0.000363	3.634343	0.615674	0.007270
 868	4.3350e-01	8.6658	14.303210	0.000210	2.095092	0.354918	0.004191
 869	4.3400e-01	8.6768	14.299789	-0.000034	-0.342056	-0.057946	-0.000684
 870	4.3450e-01	8.6865	14.366499	0.000667	6.670089	1.129944	0.013342
 871	4.3500e-01	8.6969	14.398143	0.000316	3.164017	0.535999	0.006329
 872	4.3550e-01	8.7079	14.422090	0.000239	2.394391	0.405621	0.004789
 873	4.3600e-01	8.7173	14.449458	0.000274	2.736447	0.463567	0.005474
 874	4.3650e-01	8.7256	14.495214	0.000457	4.574997	0.775025	0.009151
 875	4.3700e-01	8.7390	14.492648	-0.000026	-0.256542	-0.043459	-0.000513
 876	4.3750e-01	8.7482	14.558930	0.000663	6.627332	1.122700	0.013256
 877	4.3800e-01	8.7561	14.573042	0.000141	1.410980	0.239027	0.002822
 878	4.3850e-01	8.7665	14.576035	0.000030	0.299299	0.050703	0.000599
 879	4.3900e-01	8.7793	14.617515	0.000415	4.147427	0.702593	0.008296
 880	4.3950e-01	8.7897	14.667975	0.000505	5.045324	0.854701	0.010092
 881	4.4000e-01	8.7988	14.671823	0.000038	0.384813	0.065189	0.000770
 882	4.4050e-01	8.8086	14.703467	0.000316	3.164017	0.535999	0.006329
 883	4.4100e-01	8.8171	14.718862	0.000154	1.539251	0.260756	0.003079
 884	4.4150e-01	8.8281	14.755210	0.000363	3.634343	0.615674	0.007270
 885	4.4200e-01	8.8361	14.802249	0.000470	4.703268	0.796755	0.009408
 886	4.4250e-01	8.8474	14.833893	0.000316	3.164017	0.535999	0.006329
 887	4.4300e-01	8.8580	14.833038	-0.000009	-0.085514	-0.014486	-0.000171
 888	4.4350e-01	8.8684	14.872807	0.000398	3.976399	0.673620	0.007954
 889	4.4400e-01	8.8782	14.911293	0.000385	3.848128	0.651891	0.007697
 890	4.4450e-01	8.8873	14.932247	0.000210	2.095092	0.354918	0.004191
 891	4.4500e-01	8.8995	14.989549	0.000573	5.729436	0.970593	0.011460
 892	4.4550e-01	8.9050	15.000667	0.000111	1.111682	0.188324	0.002224
 893	4.4600e-01	8.9197	15.028890	0.000282	2.821961	0.478053	0.005645
 894	4.4650e-01	8.9276	15.043002	0.000141	1.410980	0.239027	0.002822
 895	4.4700e-01	8.9392	15.081916	0.000389	3.890885	0.659134	0.007783
 896	4.4750e-01	8.9496	15.118264	0.000363	3.634343	0.615674	0.007270
 897	4.4800e-01	8.9581	15.143921	0.000257	2.565419	0.434594	0.005132
 898	4.4850e-01	8.9664	15.177276	0.000334	3.335045	0.564972	0.006671
 899	4.4900e-01	8.9764	15.196092	0.000188	1.881307	0.318702	0.003763
 900	4.4950e-01	8.9856	15.203789	0.000077	0.769626	0.130378	0.001539
 901	4.5000e-01	8.9960	15.252966	0.000492	4.917053	0.832971	0.009835
 902	4.5050e-01	9.0067	15.279906	0.000269	2.693690	0.456323	0.005388
 903	4.5100e-01	9.0181	15.300005	0.000201	2.009578	0.340432	0.004020
 904	4.5150e-01	9.0259	15.340629	0.000406	4.061913	0.688107	0.008125
 905	4.5200e-01	9.0375	15.378688	0.000381	3.805371	0.644647	0.007612
 906	4.5250e-01	9.0479	15.399214	0.000205	2.052335	0.347675	0.004105
 907	4.5300e-01	9.0579	15.427009	0.000278	2.779204	0.470810	0.005559
 908	4.5350e-01	9.0668	15.458226	0.000312	3.121260	0.528756	0.006243
 909	4.5400e-01	9.0778	15.495429	0.000372	3.719857	0.630161	0.007441
 910	4.5450e-01	9.0900	15.509113	0.000137	1.368223	0.231783	0.002737
 911	4.5500e-01	9.0964	15.539902	0.000308	3.078503	0.521512	0.006158
 912	4.5550e-01	9.1064	15.563849	0.000239	2.394391	0.405621	0.004789
 913	4.5600e-01	9.1162	15.615592	0.000517	5.173595	0.876431	0.010349
 914	4.5650e-01	9.1272	15.640394	0.000248	2.479905	0.420107	0.004960
 915	4.5700e-01	9.1357	15.651513	0.000111	1.111682	0.188324	0.002224
 916	4.5750e-01	9.1461	15.682302	0.000308	3.078503	0.521512	0.006158
 917	4.5800e-01	9.1577	15.726347	0.000440	4.403969	0.746053	0.008809
 918	4.5850e-01	9.1699	15.759274	0.000329	3.292288	0.557729	0.006585
 919	4.5900e-01	9.1779	15.773814	0.000145	1.453737	0.246270	0.002908
 920	4.5950e-01	9.1870	15.819997	0.000462	4.617754	0.782269	0.009237
 921	4.6000e-01	9.1943	15.820425	0.000004	0.042757	0.007243	0.000086
 922	4.6050e-01	9.2059	15.862332	0.000419	4.190184	0.709836	0.008381
 923	4.6100e-01	9.2188	15.888417	0.000261	2.608176	0.441837	0.005217
 924	4.6150e-01	9.2255	15.900818	0.000124	1.239952	0.210054	0.002480
 925	4.6200e-01	9.2377	15.948712	0.000479	4.788782	0.811242	0.009579
 926	4.6250e-01	9.2487	15.991475	0.000428	4.275698	0.724323	0.008553
 927	4.6300e-01	9.2584	15.987199	-0.000043	-0.427570	-0.072432	-0.000855
 928	4.6350e-01	9.2657	16.041507	0.000543	5.430137	0.919890	0.010862
 929	4.6400e-01	9.2761	16.041507	0.000000	0.000000	0.000000	0.000000
 930	4.6450e-01	9.2871	16.101374	0.000599	5.985977	1.014052	0.011974
 931	4.6500e-01	9.2969	16.133874	0.000325	3.249531	0.550485	0.006500
 932	4.6550e-01	9.3097	16.147130	0.000133	1.325466	0.224540	0.002651
 933	4.6600e-01	9.3176	16.167656	0.000205	2.052335	0.347675	0.004105
 934	4.6650e-01	9.3286	16.212129	0.000445	4.446726	0.753296	0.008895
 935	4.6700e-01	9.3396	16.245912	0.000338	3.377802	0.572215	0.006756
 936	4.6750e-01	9.3445	16.268576	0.000227	2.266120	0.383891	0.004533
 937	4.6800e-01	9.3585	16.287819	0.000192	1.924064	0.325945	0.003849
 938	4.6850e-01	9.3671	16.320746	0.000329	3.292288	0.557729	0.006585
 939	4.6900e-01	9.3774	16.367785	0.000470	4.703268	0.796755	0.009408
 940	4.6950e-01	9.3866	16.389166	0.000214	2.137849	0.362161	0.004276
 941	4.7000e-01	9.3979	16.407127	0.000180	1.795793	0.304216	0.003592
 942	4.7050e-01	9.4073	16.460152	0.000530	5.301866	0.898160	0.010605
 943	4.7100e-01	9.4177	16.476402	0.000162	1.624765	0.275243	0.003250
 944	4.7150e-01	9.4287	16.499494	0.000231	2.308877	0.391134	0.004618
 945	4.7200e-01	9.4403	16.535842	0.000363	3.634343	0.615674	0.007270
 946	4.7250e-01	9.4476	16.565348	0.000295	2.950232	0.499783	0.005901
 947	4.7300e-01	9.4568	16.603407	0.000381	3.805371	0.644647	0.007612
 948	4.7350e-01	9.4702	16.608966	0.000056	0.555841	0.094162	0.001112
 949	4.7400e-01	9.4788	16.650018	0.000410	4.104670	0.695350	0.008210
 950	4.7450e-01	9.4861	16.679951	0.000299	2.992989	0.507026	0.005987
 951	4.7500e-01	9.4965	16.713306	0.000334	3.335045	0.564972	0.006671
 952	4.7550e-01	9.5084	16.740247	0.000269	2.693690	0.456323	0.005388
 953	4.7600e-01	9.5160	16.775740	0.000355	3.548829	0.601188	0.007099
 954	4.7650e-01	9.5245	16.786430	0.000107	1.068925	0.181081	0.002138
 955	4.7700e-01	9.5355	16.820213	0.000338	3.377802	0.572215	0.006756
 956	4.7750e-01	9.5459	16.861692	0.000415	4.147427	0.702593	0.008296
 957	4.7800e-01	9.5569	16.900606	0.000389	3.890885	0.659134	0.007783
 958	4.7850e-01	9.5648	16.912152	0.000115	1.154439	0.195567	0.002309
 959	4.7900e-01	9.5758	16.944652	0.000325	3.249531	0.550485	0.006500
 960	4.7950e-01	9.5856	16.970737	0.000261	2.608176	0.441837	0.005217
 961	4.8000e-01	9.5956	17.003664	0.000329	3.292288	0.557729	0.006585
 962	4.8050e-01	9.6051	17.019058	0.000154	1.539251	0.260756	0.003079
 963	4.8100e-01	9.6155	17.054124	0.000351	3.506073	0.593945	0.007013
 964	4.8150e-01	9.6277	17.105011	0.000509	5.088081	0.861944	0.010177
 965	4.8200e-01	9.6381	17.124254	0.000192	1.924064	0.325945	0.003849
 966	4.8250e-01	9.6472	17.144353	0.000201	2.009578	0.340432	0.004020
 967	4.8300e-01	9.6558	17.167872	0.000235	2.351634	0.398378	0.004704
 968	4.8350e-01	9.6680	17.214483	0.000466	4.660511	0.789512	0.009322
 969	4.8400e-01	9.6790	17.270502	0.000560	5.601165	0.948863	0.011204
 970	4.8450e-01	9.6899	17.270930	0.000004	0.042757	0.007243	0.000086
 971	4.8500e-01	9.6948	17.288035	0.000171	1.710279	0.289729	0.003421
 972	4.8550e-01	9.7052	17.319679	0.000316	3.164017	0.535999	0.006329
 973	4.8600e-01	9.7162	17.361586	0.000419	4.190184	0.709836	0.008381
 974	4.8650e-01	9.7269	17.371849	0.000103	1.026168	0.173837	0.002053
 975	4.8700e-01	9.7360	17.419316	0.000475	4.746025	0.803998	0.009493
 976	4.8750e-01	9.7452	17.453953	0.000346	3.463316	0.586702	0.006928
 977	4.8800e-01	9.7571	17.484315	0.000304	3.035746	0.514269	0.006072
 978	4.8850e-01	9.7675	17.514248	0.000299	2.992989	0.507026	0.005987
 979	4.8900e-01	9.7778	17.524511	0.000103	1.026168	0.173837	0.002053
 980	4.8950e-01	9.7876	17.578820	0.000543	5.430137	0.919890	0.010862
 981	4.9000e-01	9.7968	17.583096	0.000043	0.427570	0.072432	0.000855
 982	4.9050e-01	9.8062	17.618161	0.000351	3.506073	0.593945	0.007013
 983	4.9100e-01	9.8172	17.655792	0.000376	3.762614	0.637404	0.007526
 984	4.9150e-01	9.8260	17.685726	0.000299	2.992989	0.507026	0.005987
 985	4.9200e-01	9.8358	17.710101	0.000244	2.437148	0.412864	0.004875
 986	4.9250e-01	9.8447	17.758422	0.000483	4.831539	0.818485	0.009664
 987	4.9300e-01	9.8572	17.782797	0.000244	2.437148	0.412864	0.004875
 988	4.9350e-01	9.8672	17.804606	0.000218	2.180606	0.369405	0.004362
 989	4.9400e-01	9.8761	17.832829	0.000282	2.821961	0.478053	0.005645
 990	4.9450e-01	9.8872	17.853783	0.000210	2.095092	0.354918	0.004191
 991	4.9500e-01	9.8956	17.886710	0.000329	3.292288	0.557729	0.006585
 992	4.9550e-01	9.9054	17.923913	0.000372	3.719857	0.630161	0.007441
 993	4.9600e-01	9.9158	17.967959	0.000440	4.403969	0.746053	0.008809
 994	4.9650e-01	9.9255	17.997037	0.000291	2.907475	0.492540	0.005816
 995	4.9700e-01	9.9361	18.028254	0.000312	3.121260	0.528756	0.006243
 996	4.9750e-01	9.9451	18.032103	0.000038	0.384813	0.065189	0.000770
 997	4.9800e-01	9.9573	18.091115	0.000590	5.900464	0.999566	0.011802
 998	4.9850e-01	9.9683	18.101806	0.000107	1.068925	0.181081	0.002138
 999	4.9900e-01	9.9756	18.123614	0.000218	2.180606	0.369405	0.004362
1000	4.9950e-01	9.9854	18.175785	0.000522	5.216352	0.883674	0.010434
1001	5.0000e-01	9.9957	18.180489	0.000047	0.470327	0.079676	0.000941
1002	5.0050e-01	9.9866	18.142858	0.000376	3.762614	0.637404	-0.007526
1003	5.0100e-01	9.9731	18.119766	0.000231	2.308877	0.391134	-0.004618
1004	5.0150e-01	9.9658	18.123187	-0.000034	-0.342056	-0.057946	0.000684
1005	5.0200e-01	9.9554	18.092398	0.000308	3.078503	0.521512	-0.006158
1006	5.0250e-01	9.9475	18.083418	0.000090	0.897897	0.152108	-0.001796
1007	5.0300e-01	9.9365	18.071016	0.000124	1.239952	0.210054	-0.002480
1008	5.0350e-01	9.9292	18.041938	0.000291	2.907475	0.492540	-0.005816
1009	5.0400e-01	9.9158	18.026971	0.000150	1.496494	0.253513	-0.002993
1010	5.0450e-01	9.9054	18.021412	0.000056	0.555841	0.094162	-0.001112
1011	5.0500e-01	9.8956	18.000031	0.000214	2.137849	0.362161	-0.004276
1012	5.0550e-01	9.8871	17.967104	0.000329	3.292288	0.557729	-0.006585
1013	5.0600e-01	9.8761	17.961972	0.000051	0.513084	0.086919	-0.001026
1014	5.0650e-01	9.8669	17.917071	0.000449	4.489483	0.760539	-0.008980
1015	5.0700e-01	9.8560	17.911512	0.000056	0.555841	0.094162	-0.001112
1016	5.0750e-01	9.8453	17.893552	0.000180	1.795793	0.304216	-0.003592
1017	5.0800e-01	9.8352	17.876019	0.000175	1.753036	0.296972	-0.003507
1018	5.0850e-01	9.8248	17.839244	0.000368	3.677100	0.622918	-0.007355
1019	5.0900e-01	9.8157	17.853355	-0.000141	-1.410980	-0.239027	0.002822
1020	5.0950e-01	9.8050	17.836250	0.000171	1.710279	0.289729	-0.003421
1021	5.1000e-01	9.7931	17.791350	0.000449	4.489483	0.760539	-0.008980
1022	5.1050e-01	9.7876	17.779376	0.000120	1.197195	0.202810	-0.002395
1023	5.1100e-01	9.7769	17.757995	0.000214	2.137849	0.362161	-0.004276
1024	5.1150e-01	9.7647	17.713094	0.000449	4.489483	0.760539	-0.008980
1025	5.1200e-01	9.7589	17.737469	-0.000244	-2.437148	-0.412864	0.004875
1026	5.1250e-01	9.7452	17.713949	0.000235	2.351634	0.398378	-0.004704
1027	5.1300e-01	9.7351	17.676318	0.000376	3.762614	0.637404	-0.007526
1028	5.1350e-01	9.7269	17.645102	0.000312	3.121260	0.528756	-0.006243
1029	5.1400e-01	9.7141	17.663062	-0.000180	-1.795793	-0.304216	0.003592
1030	5.1450e-01	9.7052	17.622438	0.000406	4.061913	0.688107	-0.008125
1031	5.1500e-01	9.6924	17.600629	0.000218	2.180606	0.369405	-0.004362
1032	5.1550e-01	9.6841	17.583096	0.000175	1.753036	0.296972	-0.003507
1033	5.1600e-01	9.6762	17.547603	0.000355	3.548829	0.601188	-0.007099
1034	5.1650e-01	9.6667	17.542044	0.000056	0.555841	0.094162	-0.001112
1035	5.1700e-01	9.6558	17.509117	0.000329	3.292288	0.557729	-0.006585
1036	5.1750e-01	9.6463	17.499709	0.000094	0.940654	0.159351	-0.001882
1037	5.1800e-01	9.6362	17.477045	0.000227	2.266120	0.383891	-0.004533
1038	5.1850e-01	9.6265	17.448394	0.000286	2.864718	0.485296	-0.005730
1039	5.1900e-01	9.6167	17.439842	0.000086	0.855140	0.144865	-0.001711
1040	5.1950e-01	9.6057	17.385533	0.000543	5.430137	0.919890	-0.010862
1041	5.2000e-01	9.5972	17.398362	-0.000128	-1.282709	-0.217297	0.002566
1042	5.2050e-01	9.5874	17.370139	0.000282	2.821961	0.478053	-0.005645
1043	5.2100e-01	9.5753	17.351323	0.000188	1.881307	0.318702	-0.003763
1044	5.2150e-01	9.5682	17.311554	0.000398	3.976399	0.673620	-0.007954
1045	5.2200e-01	9.5624	17.312837	-0.000013	-0.128271	-0.021730	0.000257
1046	5.2250e-01	9.5447	17.271785	0.000410	4.104670	0.695350	-0.008210
1047	5.2300e-01	9.5349	17.241851	0.000299	2.992989	0.507026	-0.005987
1048	5.2350e-01	9.5239	17.238858	0.000030	0.299299	0.050703	-0.000599
1049	5.2400e-01	9.5166	17.211490	0.000274	2.736447	0.463567	-0.005474
1050	5.2450e-01	9.5047	17.185832	0.000257	2.565419	0.434594	-0.005132
1051	5.2500e-01	9.4946	17.164879	0.000210	2.095092	0.354918	-0.004191
1052	5.2550e-01	9.4855	17.168300	-0.000034	-0.342056	-0.057946	0.000684
1053	5.2600e-01	9.4742	17.125537	0.000428	4.275698	0.724323	-0.008553
1054	5.2650e-01	9.4666	17.112708	0.000128	1.282709	0.217297	-0.002566
1055	5.2700e-01	9.4531	17.080636	0.000321	3.206774	0.543242	-0.006414
1056	5.2750e-01	9.4476	17.048992	0.000316	3.164017	0.535999	-0.006329
1057	5.2800e-01	9.4348	17.046854	0.000021	0.213785	0.036216	-0.000428
1058	5.2850e-01	9.4275	17.010506	0.000363	3.634343	0.615674	-0.007270
1059	5.2900e-01	9.4168	16.978434	0.000321	3.206774	0.543242	-0.006414
1060	5.2950e-01	9.4055	16.959618	0.000188	1.881307	0.318702	-0.003763
1061	5.3000e-01	9.3964	16.956625	0.000030	0.299299	0.050703	-0.000599
1062	5.3050e-01	9.3831	16.916428	0.000402	4.019156	0.680864	-0.008039
1063	5.3100e-01	9.3726	16.910869	0.000056	0.555841	0.094162	-0.001112
1064	5.3150e-01	9.3652	16.872383	0.000385	3.848128	0.651891	-0.007697
1065	5.3200e-01	9.3567	16.851002	0.000214	2.137849	0.362161	-0.004276
1066	5.3250e-01	9.3463	16.846725	0.000043	0.427570	0.072432	-0.000855
1067	5.3300e-01	9.3341	16.796693	0.000500	5.002567	0.847458	-0.010006
1068	5.3350e-01	9.3250	16.792845	0.000038	0.384813	0.065189	-0.000770
1069	5.3400e-01	9.3170	16.769325	0.000235	2.351634	0.398378	-0.004704
1070	5.3450e-01	9.3063	16.733832	0.000355	3.548829	0.601188	-0.007099
1071	5.3500e-01	9.2972	16.716727	0.000171	1.710279	0.289729	-0.003421
1072	5.3550e-01	9.2871	16.691497	0.000252	2.522662	0.427350	-0.005046
1073	5.3600e-01	9.2749	16.675675	0.000158	1.582008	0.267999	-0.003164
1074	5.3650e-01	9.2657	16.655149	0.000205	2.052335	0.347675	-0.004105
1075	5.3700e-01	9.2554	16.626498	0.000286	2.864718	0.485296	-0.005730
1076	5.3750e-01	9.2468	16.604262	0.000222	2.223363	0.376648	-0.004447
1077	5.3800e-01	9.2365	16.572618	0.000316	3.164017	0.535999	-0.006329
1078	5.3850e-01	9.2267	16.555085	0.000175	1.753036	0.296972	-0.003507
1079	5.3900e-01	9.2163	16.560216	-0.000051	-0.513084	-0.086919	0.001026
1080	5.3950e-01	9.2059	16.510184	0.000500	5.002567	0.847458	-0.010006
1081	5.4000e-01	9.1962	16.493507	0.000167	1.667522	0.282486	-0.003335
1082	5.4050e-01	9.1870	16.464856	0.000286	2.864718	0.485296	-0.005730
1083	5.4100e-01	9.1766	16.438343	0.000265	2.650933	0.449080	-0.005303
1084	5.4150e-01	9.1656	16.425087	0.000133	1.325466	0.224540	-0.002651
1085	5.4200e-01	9.1589	16.387883	0.000372	3.719857	0.630161	-0.007441
1086	5.4250e-01	9.1467	16.373344	0.000145	1.453737	0.246270	-0.002908
1087	5.4300e-01	9.1364	16.345121	0.000282	2.821961	0.478053	-0.005645
1088	5.4350e-01	9.1272	16.316898	0.000282	2.821961	0.478053	-0.005645
1089	5.4400e-01	9.1159	16.300648	0.000162	1.624765	0.275243	-0.003250
1090	5.4450e-01	9.1046	16.304069	-0.000034	-0.342056	-0.057946	0.000684
1091	5.4500e-01	9.0948	16.266865	0.000372	3.719857	0.630161	-0.007441
1092	5.4550e-01	9.0845	16.239925	0.000269	2.693690	0.456323	-0.005388
1093	5.4600e-01	9.0784	16.198445	0.000415	4.147427	0.702593	-0.008296
1094	5.4650e-01	9.0656	16.192031	0.000064	0.641355	0.108648	-0.001283
1095	5.4700e-01	9.0570	16.169795	0.000222	2.223363	0.376648	-0.004447
1096	5.4750e-01	9.0448	16.136867	0.000329	3.292288	0.557729	-0.006585
1097	5.4800e-01	9.0375	16.116769	0.000201	2.009578	0.340432	-0.004020
1098	5.4850e-01	9.0271	16.081276	0.000355	3.548829	0.601188	-0.007099
1099	5.4900e-01	9.0179	16.051342	0.000299	2.992989	0.507026	-0.005987
1100	5.4950e-01	9.0073	16.042362	0.000090	0.897897	0.152108	-0.001796
1101	5.5000e-01	8.9966	16.026112	0.000162	1.624765	0.275243	-0.003250
1102	5.5050e-01	8.9819	15.991475	0.000346	3.463316	0.586702	-0.006928
1103	5.5100e-01	8.9795	15.968811	0.000227	2.266120	0.383891	-0.004533
1104	5.5150e-01	8.9661	15.930324	0.000385	3.848128	0.651891	-0.007697
1105	5.5200e-01	8.9563	15.920061	0.000103	1.026168	0.173837	-0.002053
1106	5.5250e-01	8.9465	15.893549	0.000265	2.650933	0.449080	-0.005303
1107	5.5300e-01	8.9380	15.879437	0.000141	1.410980	0.239027	-0.002822
1108	5.5350e-01	8.9264	15.859339	0.000201	2.009578	0.340432	-0.004020
1109	5.5400e-01	8.9166	15.817004	0.000423	4.232941	0.717080	-0.008467
1110	5.5450e-01	8.9053	15.793057	0.000239	2.394391	0.405621	-0.004789
1111	5.5500e-01	8.8998	15.781938	0.000111	1.111682	0.188324	-0.002224
1112	5.5550e-01	8.8849	15.748156	0.000338	3.377802	0.572215	-0.006756
1113	5.5600e-01	8.8782	15.710525	0.000376	3.762614	0.637404	-0.007526
1114	5.5650e-01	8.8678	15.713091	-0.000026	-0.256542	-0.043459	0.000513
1115	5.5700e-01	8.8550	15.668190	0.000449	4.489483	0.760539	-0.008980
1116	5.5750e-01	8.8464	15.644243	0.000239	2.394391	0.405621	-0.004789
1117	5.5800e-01	8.8385	15.632270	0.000120	1.197195	0.202810	-0.002395
1118	5.5850e-01	8.8257	15.601053	0.000312	3.121260	0.528756	-0.006243
1119	5.5900e-01	8.8153	15.610888	-0.000098	-0.983411	-0.166594	0.001967
1120	5.5950e-01	8.8068	15.560856	0.000500	5.002567	0.847458	-0.010006
1121	5.6000e-01	8.8013	15.530922	0.000299	2.992989	0.507026	-0.005987
1122	5.6050e-01	8.7866	15.516383	0.000145	1.453737	0.246270	-0.002908
1123	5.6100e-01	8.7781	15.485166	0.000312	3.121260	0.528756	-0.006243
1124	5.6150e-01	8.7683	15.483884	0.000013	0.128271	0.021730	-0.000257
1125	5.6200e-01	8.7558	15.418029	0.000658	6.584575	1.115457	-0.013171
1126	5.6250e-01	8.7469	15.424444	-0.000064	-0.641355	-0.108648	0.001283
1127	5.6300e-01	8.7390	15.381254	0.000432	4.318455	0.731566	-0.008638
1128	5.6350e-01	8.7262	15.358589	0.000227	2.266120	0.383891	-0.004533
1129	5.6400e-01	8.7170	15.345761	0.000128	1.282709	0.217297	-0.002566
1130	5.6450e-01	8.7067	15.301715	0.000440	4.403969	0.746053	-0.008809
1131	5.6500e-01	8.6969	15.288886	0.000128	1.282709	0.217297	-0.002566
1132	5.6550e-01	8.6847	15.262801	0.000261	2.608176	0.441837	-0.005217
1133	5.6600e-01	8.6768	15.228164	0.000346	3.463316	0.586702	-0.006928
1134	5.6650e-01	8.6707	15.194381	0.000338	3.377802	0.572215	-0.006756
1135	5.6700e-01	8.6548	15.167013	0.000274	2.736447	0.463567	-0.005474
1136	5.6750e-01	8.6450	15.165303	0.000017	0.171028	0.028973	-0.000342
1137	5.6800e-01	8.6377	15.145204	0.000201	2.009578	0.340432	-0.004020
1138	5.6850e-01	8.6279	15.123395	0.000218	2.180606	0.369405	-0.004362
1139	5.6900e-01	8.6139	15.098593	0.000248	2.479905	0.420107	-0.004960
1140	5.6950e-01	8.6072	15.062673	0.000359	3.591586	0.608431	-0.007184
1141	5.7000e-01	8.5968	15.032739	0.000299	2.992989	0.507026	-0.005987
1142	5.7050e-01	8.5876	14.995963	0.000368	3.677100	0.622918	-0.007355
1143	5.7100e-01	8.5754	14.978858	0.000171	1.710279	0.289729	-0.003421
1144	5.7150e-01	8.5657	14.972871	0.000060	0.598598	0.101405	-0.001197
1145	5.7200e-01	8.5553	14.909583	0.000633	6.328033	1.071998	-0.012658
1146	5.7250e-01	8.5431	14.913431	-0.000038	-0.384813	-0.065189	0.000770
1147	5.7300e-01	8.5382	14.863827	0.000496	4.959810	0.840215	-0.009921
1148	5.7350e-01	8.5266	14.865537	-0.000017	-0.171028	-0.028973	0.000342
1149	5.7400e-01	8.5193	14.826196	0.000393	3.933642	0.666377	-0.007868
1150	5.7450e-01	8.5040	14.796262	0.000299	2.992989	0.507026	-0.005987
1151	5.7500e-01	8.4949	14.791131	0.000051	0.513084	0.086919	-0.001026
1152	5.7550e-01	8.4872	14.762907	0.000282	2.821961	0.478053	-0.005645
1153	5.7600e-01	8.4766	14.728697	0.000342	3.420559	0.579458	-0.006842
1154	5.7650e-01	8.4662	14.697908	0.000308	3.078503	0.521512	-0.006158
1155	5.7700e-01	8.4570	14.683369	0.000145	1.453737	0.246270	-0.002908
1156	5.7750e-01	8.4479	14.658139	0.000252	2.522662	0.427350	-0.005046
1157	5.7800e-01	8.4363	14.619225	0.000389	3.890885	0.659134	-0.007783
1158	5.7850e-01	8.4259	14.604258	0.000150	1.496494	0.253513	-0.002993
1159	5.7900e-01	8.4167	14.591857	0.000124	1.239952	0.210054	-0.002480
1160	5.7950e-01	8.4039	14.563206	0.000286	2.864718	0.485296	-0.005730
1161	5.8000e-01	8.3984	14.535411	0.000278	2.779204	0.470810	-0.005559
1162	5.8050e-01	8.3868	14.512747	0.000227	2.266120	0.383891	-0.004533
1163	5.8100e-01	8.3771	14.472977	0.000398	3.976399	0.673620	-0.007954
1164	5.8150e-01	8.3661	14.456728	0.000162	1.624765	0.275243	-0.003250
1165	5.8200e-01	8.3563	14.428077	0.000286	2.864718	0.485296	-0.005730
1166	5.8250e-01	8.3459	14.401136	0.000269	2.693690	0.456323	-0.005388
1167	5.8300e-01	8.3362	14.384031	0.000171	1.710279	0.289729	-0.003421
1168	5.8350e-01	8.3276	14.344262	0.000398	3.976399	0.673620	-0.007954
1169	5.8400e-01	8.3148	14.341696	0.000026	0.256542	0.043459	-0.000513
1170	5.8450e-01	8.3044	14.299362	0.000423	4.232941	0.717080	-0.008467
1171	5.8500e-01	8.2965	14.273276	0.000261	2.608176	0.441837	-0.005217
1172	5.8550e-01	8.2849	14.245053	0.000282	2.821961	0.478053	-0.005645
1173	5.8600e-01	8.2764	14.225810	0.000192	1.924064	0.325945	-0.003849
1174	5.8650e-01	8.2648	14.190745	0.000351	3.506073	0.593945	-0.007013
1175	5.8700e-01	8.2568	14.170646	0.000201	2.009578	0.340432	-0.004020
1176	5.8750e-01	8.2449	14.144989	0.000257	2.565419	0.434594	-0.005132
1177	5.8800e-01	8.2346	14.104364	0.000406	4.061913	0.688107	-0.008125
1178	5.8850e-01	8.2257	14.081273	0.000231	2.308877	0.391134	-0.004618
1179	5.8900e-01	8.2144	14.075286	0.000060	0.598598	0.101405	-0.001197
1180	5.8950e-01	8.2065	14.025254	0.000500	5.002567	0.847458	-0.010006
1181	5.9000e-01	8.1952	14.026109	-0.000009	-0.085514	-0.014486	0.000171
1182	5.9050e-01	8.1848	14.011997	0.000141	1.410980	0.239027	-0.002822
1183	5.9100e-01	8.1754	13.964959	0.000470	4.703268	0.796755	-0.009408
1184	5.9150e-01	8.1635	13.941867	0.000231	2.308877	0.391134	-0.004618
1185	5.9200e-01	8.1549	13.913644	0.000282	2.821961	0.478053	-0.005645
1186	5.9250e-01	8.1445	13.908084	0.000056	0.555841	0.094162	-0.001112
1187	5.9300e-01	8.1366	13.846506	0.000616	6.157005	1.043025	-0.012316
1188	5.9350e-01	8.1238	13.837526	0.000090	0.897897	0.152108	-0.001796
1189	5.9400e-01	8.1165	13.811013	0.000265	2.650933	0.449080	-0.005303
1190	5.9450e-01	8.1024	13.794764	0.000162	1.624765	0.275243	-0.003250
1191	5.9500e-01	8.0942	13.754139	0.000406	4.061913	0.688107	-0.008125
1192	5.9550e-01	8.0859	13.707956	0.000462	4.617754	0.782269	-0.009237
1193	5.9600e-01	8.0780	13.710522	-0.000026	-0.256542	-0.043459	0.000513
1194	5.9650e-01	8.0652	13.685292	0.000252	2.522662	0.427350	-0.005046
1195	5.9700e-01	8.0573	13.642529	0.000428	4.275698	0.724323	-0.008553
1196	5.9750e-01	8.0457	13.614306	0.000282	2.821961	0.478053	-0.005645
1197	5.9800e-01	8.0365	13.610885	0.000034	0.342056	0.057946	-0.000684
1198	5.9850e-01	8.0261	13.573254	0.000376	3.762614	0.637404	-0.007526
1199	5.9900e-01	8.0157	13.530064	0.000432	4.318455	0.731566	-0.008638
1200	5.9950e-01	8.0060	13.524077	0.000060	0.598598	0.101405	-0.001197
1201	6.0000e-01	7.9950	13.516380	0.000077	0.769626	0.130378	-0.001539
1202	6.0050e-01	7.9871	13.471907	0.000445	4.446726	0.753296	-0.008895
1203	6.0100e-01	7.9782	13.433848	0.000381	3.805371	0.644647	-0.007612
1204	6.0150e-01	7.9645	13.380822	0.000530	5.301866	0.898160	-0.010605
1205	6.0200e-01	7.9578	13.386809	-0.000060	-0.598598	-0.101405	0.001197
1206	6.0250e-01	7.9468	13.360724	0.000261	2.608176	0.441837	-0.005217
1207	6.0300e-01	7.9333	13.310264	0.000505	5.045324	0.854701	-0.010092
1208	6.0350e-01	7.9263	13.311547	-0.000013	-0.128271	-0.021730	0.000257
1209	6.0400e-01	7.9175	13.274344	0.000372	3.719857	0.630161	-0.007441
1210	6.0450e-01	7.9044	13.246548	0.000278	2.779204	0.470810	-0.005559
1211	6.0500e-01	7.8961	13.222601	0.000239	2.394391	0.405621	-0.004789
1212	6.0550e-01	7.8845	13.202075	0.000205	2.052335	0.347675	-0.004105
1213	6.0600e-01	7.8757	13.178983	0.000231	2.308877	0.391134	-0.004618
1214	6.0650e-01	7.8650	13.141780	0.000372	3.719857	0.630161	-0.007441
1215	6.0700e-01	7.8583	13.107570	0.000342	3.420559	0.579458	-0.006842
1216	6.0750e-01	7.8448	13.065663	0.000419	4.190184	0.709836	-0.008381
1217	6.0800e-01	7.8345	13.059676	0.000060	0.598598	0.101405	-0.001197
1218	6.0850e-01	7.8256	13.011354	0.000483	4.831539	0.818485	-0.009664
1219	6.0900e-01	7.8180	12.979710	0.000316	3.164017	0.535999	-0.006329
1220	6.0950e-01	7.8052	13.001091	-0.000214	-2.137849	-0.362161	0.004276
1221	6.1000e-01	7.7936	12.957473	0.000436	4.361212	0.738809	-0.008724
1222	6.1050e-01	7.7863	12.938658	0.000188	1.881307	0.318702	-0.003763
1223	6.1100e-01	7.7771	12.883494	0.000552	5.515651	0.934377	-0.011033
1224	6.1150e-01	7.7655	12.871093	0.000124	1.239952	0.210054	-0.002480
1225	6.1200e-01	7.7563	12.836883	0.000342	3.420559	0.579458	-0.006842
1226	6.1250e-01	7.7460	12.800963	0.000359	3.591586	0.608431	-0.007184
1227	6.1300e-01	7.7368	12.800963	-0.000000	-0.000000	-0.000000	0.000000
1228	6.1350e-01	7.7252	12.760766	0.000402	4.019156	0.680864	-0.008039
1229	6.1400e-01	7.7161	12.734253	0.000265	2.650933	0.449080	-0.005303
1230	6.1450e-01	7.7054	12.699615	0.000346	3.463316	0.586702	-0.006928
1231	6.1500e-01	7.6953	12.682083	0.000175	1.753036	0.296972	-0.003507
1232	6.1550e-01	7.6843	12.658991	0.000231	2.308877	0.391134	-0.004618
1233	6.1600e-01	7.6767	12.613663	0.000453	4.532240	0.767782	-0.009066
1234	6.1650e-01	7.6666	12.599123	0.000145	1.453737	0.246270	-0.002908
1235	6.1700e-01	7.6569	12.553795	0.000453	4.532240	0.767782	-0.009066
1236	6.1750e-01	7.6428	12.552085	0.000017	0.171028	0.028973	-0.000342
1237	6.1800e-01	7.6355	12.523861	0.000282	2.821961	0.478053	-0.005645
1238	6.1850e-01	7.6270	12.482809	0.000410	4.104670	0.695350	-0.008210
1239	6.1900e-01	7.6151	12.453731	0.000291	2.907475	0.492540	-0.005816
1240	6.1950e-01	7.6074	12.435343	0.000184	1.838550	0.311459	-0.003678
1241	6.2000e-01	7.5934	12.409258	0.000261	2.608176	0.441837	-0.005217
1242	6.2050e-01	7.5842	12.391298	0.000180	1.795793	0.304216	-0.003592
1243	6.2100e-01	7.5763	12.356660	0.000346	3.463316	0.586702	-0.006928
1244	6.2150e-01	7.5659	12.338272	0.000184	1.838550	0.311459	-0.003678
1245	6.2200e-01	7.5543	12.312615	0.000257	2.565419	0.434594	-0.005132
1246	6.2250e-01	7.5446	12.283536	0.000291	2.907475	0.492540	-0.005816
1247	6.2300e-01	7.5366	12.248898	0.000346	3.463316	0.586702	-0.006928
1248	6.2350e-01	7.5262	12.210840	0.000381	3.805371	0.644647	-0.007612
1249	6.2400e-01	7.5183	12.190741	0.000201	2.009578	0.340432	-0.004020
1250	6.2450e-01	7.5076	12.147551	0.000432	4.318455	0.731566	-0.008638
1251	6.2500e-01	7.4969	12.148406	-0.000009	-0.085514	-0.014486	0.000171
1252	6.2550e-01	7.4890	12.102651	0.000457	4.574997	0.775025	-0.009151
1253	6.2600e-01	7.4768	12.073144	0.000295	2.950232	0.499783	-0.005901
1254	6.2650e-01	7.4677	12.043211	0.000299	2.992989	0.507026	-0.005987
1255	6.2700e-01	7.4591	12.021829	0.000214	2.137849	0.362161	-0.004276
1256	6.2750e-01	7.4490	11.999165	0.000227	2.266120	0.383891	-0.004533
1257	6.2800e-01	7.4368	11.996172	0.000030	0.299299	0.050703	-0.000599
1258	6.2850e-01	7.4243	11.950844	0.000453	4.532240	0.767782	-0.009066
1259	6.2900e-01	7.4167	11.912357	0.000385	3.848128	0.651891	-0.007697
1260	6.2950e-01	7.4060	11.886272	0.000261	2.608176	0.441837	-0.005217
1261	6.3000e-01	7.3981	11.871305	0.000150	1.496494	0.253513	-0.002993
1262	6.3050e-01	7.3880	11.841799	0.000295	2.950232	0.499783	-0.005901
1263	6.3100e-01	7.3749	11.810155	0.000316	3.164017	0.535999	-0.006329
1264	6.3150e-01	7.3651	11.776372	0.000338	3.377802	0.572215	-0.006756
1265	6.3200e-01	7.3553	11.754136	0.000222	2.223363	0.376648	-0.004447
1266	6.3250e-01	7.3456	11.725485	0.000286	2.864718	0.485296	-0.005730
1267	6.3300e-01	7.3395	11.701538	0.000239	2.394391	0.405621	-0.004789
1268	6.3350e-01	7.3260	11.682723	0.000188	1.881307	0.318702	-0.003763
1269	6.3400e-01	7.3169	11.646374	0.000363	3.634343	0.615674	-0.007270
1270	6.3450e-01	7.3061	11.616013	0.000304	3.035746	0.514269	-0.006072
1271	6.3500e-01	7.2968	11.604467	0.000115	1.154439	0.195567	-0.002309
1272	6.3550e-01	7.2870	11.552297	0.000522	5.216352	0.883674	-0.010434
1273	6.3600e-01	7.2769	11.518514	0.000338	3.377802	0.572215	-0.006756
1274	6.3650e-01	7.2681	11.512100	0.000064	0.641355	0.108648	-0.001283
1275	6.3700e-01	7.2577	11.470193	0.000419	4.190184	0.709836	-0.008381
1276	6.3750e-01	7.2430	11.437693	0.000325	3.249531	0.550485	-0.006500
1277	6.3800e-01	7.2369	11.391510	0.000462	4.617754	0.782269	-0.009237
1278	6.3850e-01	7.2272	11.394931	-0.000034	-0.342056	-0.057946	0.000684
1279	6.3900e-01	7.2192	11.370556	0.000244	2.437148	0.412864	-0.004875
1280	6.3950e-01	7.2061	11.341050	0.000295	2.950232	0.499783	-0.005901
1281	6.4000e-01	7.1964	11.294439	0.000466	4.660511	0.789512	-0.009322
1282	6.4050e-01	7.1881	11.282038	0.000124	1.239952	0.210054	-0.002480
1283	6.4100e-01	7.1753	11.247828	0.000342	3.420559	0.579458	-0.006842
1284	6.4150e-01	7.1664	11.211907	0.000359	3.591586	0.608431	-0.007184
1285	6.4200e-01	7.1570	11.181118	0.000308	3.078503	0.521512	-0.006158
1286	6.4250e-01	7.1466	11.164441	0.000167	1.667522	0.282486	-0.003335
1287	6.4300e-01	7.1344	11.134935	0.000295	2.950232	0.499783	-0.005901
1288	6.4350e-01	7.1265	11.094738	0.000402	4.019156	0.680864	-0.008039
1289	6.4400e-01	7.1167	11.070363	0.000244	2.437148	0.412864	-0.004875
1290	6.4450e-01	7.1057	11.063949	0.000064	0.641355	0.108648	-0.001283
1291	6.4500e-01	7.0953	11.028456	0.000355	3.548829	0.601188	-0.007099
1292	6.4550e-01	7.0874	11.001943	0.000265	2.650933	0.449080	-0.005303
1293	6.4600e-01	7.0778	10.970726	0.000312	3.121260	0.528756	-0.006243
1294	6.4650e-01	7.0679	10.945497	0.000252	2.522662	0.427350	-0.005046
1295	6.4700e-01	7.0590	10.904017	0.000415	4.147427	0.702593	-0.008296
1296	6.4750e-01	7.0477	10.898885	0.000051	0.513084	0.086919	-0.001026
1297	6.4800e-01	7.0361	10.865531	0.000334	3.335045	0.564972	-0.006671
1298	6.4850e-01	7.0264	10.846715	0.000188	1.881307	0.318702	-0.003763
1299	6.4900e-01	7.0190	10.806946	0.000398	3.976399	0.673620	-0.007954
1300	6.4950e-01	7.0090	10.765039	0.000419	4.190184	0.709836	-0.008381
1301	6.5000e-01	6.9962	10.755203	0.000098	0.983411	0.166594	-0.001967
1302	6.5050e-01	6.9876	10.708165	0.000470	4.703268	0.796755	-0.009408
1303	6.5100e-01	6.9763	10.674382	0.000338	3.377802	0.572215	-0.006756
1304	6.5150e-01	6.9654	10.643593	0.000308	3.078503	0.521512	-0.006158
1305	6.5200e-01	6.9589	10.628626	0.000150	1.496494	0.253513	-0.002993
1306	6.5250e-01	6.9470	10.601686	0.000269	2.693690	0.456323	-0.005388
1307	6.5300e-01	6.9373	10.566193	0.000355	3.548829	0.601188	-0.007099
1308	6.5350e-01	6.9247	10.547805	0.000184	1.838550	0.311459	-0.003678
1309	6.5400e-01	6.9162	10.506753	0.000410	4.104670	0.695350	-0.008210
1310	6.5450e-01	6.9067	10.477247	0.000295	2.950232	0.499783	-0.005901
1311	6.5500e-01	6.8951	10.468694	0.000086	0.855140	0.144865	-0.001711
1312	6.5550e-01	6.8879	10.430208	0.000385	3.848128	0.651891	-0.007697
1313	6.5600e-01	6.8765	10.393860	0.000363	3.634343	0.615674	-0.007270
1314	6.5650e-01	6.8680	10.370768	0.000231	2.308877	0.391134	-0.004618
1315	6.5700e-01	6.8570	10.343828	0.000269	2.693690	0.456323	-0.005388
1316	6.5750e-01	6.8463	10.317743	0.000261	2.608176	0.441837	-0.005217
1317	6.5800e-01	6.8384	10.286526	0.000312	3.121260	0.528756	-0.006243
1318	6.5850e-01	6.8268	10.264717	0.000218	2.180606	0.369405	-0.004362
1319	6.5900e-01	6.8155	10.215113	0.000496	4.959810	0.840215	-0.009921
1320	6.5950e-01	6.8060	10.199290	0.000158	1.582008	0.267999	-0.003164
1321	6.6000e-01	6.7950	10.154817	0.000445	4.446726	0.753296	-0.008895
1322	6.6050e-01	6.7853	10.127449	0.000274	2.736447	0.463567	-0.005474
1323	6.6100e-01	6.7743	10.113765	0.000137	1.368223	0.231783	-0.002737
1324	6.6150e-01	6.7664	10.085114	0.000286	2.864718	0.485296	-0.005730
1325	6.6200e-01	6.7554	10.052615	0.000325	3.249531	0.550485	-0.006500
1326	6.6250e-01	6.7462	10.026957	0.000257	2.565419	0.434594	-0.005132
1327	6.6300e-01	6.7365	9.986333	0.000406	4.061913	0.688107	-0.008125
1328	6.6350e-01	6.7242	9.962814	0.000235	2.351634	0.398378	-0.004704
1329	6.6400e-01	6.7165	9.923044	0.000398	3.976399	0.673620	-0.007954
1330	6.6450e-01	6.7096	9.894821	0.000282	2.821961	0.478053	-0.005645
1331	6.6500e-01	6.6956	9.863177	0.000316	3.164017	0.535999	-0.006329
1332	6.6550e-01	6.6840	9.836664	0.000265	2.650933	0.449080	-0.005303
1333	6.6600e-01	6.6757	9.815711	0.000210	2.095092	0.354918	-0.004191
1334	6.6650e-01	6.6647	9.785349	0.000304	3.035746	0.514269	-0.006072
1335	6.6700e-01	6.6534	9.748573	0.000368	3.677100	0.622918	-0.007355
1336	6.6750e-01	6.6452	9.720778	0.000278	2.779204	0.470810	-0.005559
1337	6.6800e-01	6.6364	9.693410	0.000274	2.736447	0.463567	-0.005474
1338	6.6850e-01	6.6235	9.681864	0.000115	1.154439	0.195567	-0.002309
1339	6.6900e-01	6.6162	9.645088	0.000368	3.677100	0.622918	-0.007355
1340	6.6950e-01	6.6061	9.610023	0.000351	3.506073	0.593945	-0.007013
1341	6.7000e-01	6.5936	9.589497	0.000205	2.052335	0.347675	-0.004105
1342	6.7050e-01	6.5849	9.549300	0.000402	4.019156	0.680864	-0.008039
1343	6.7100e-01	6.5753	9.529629	0.000197	1.966821	0.333189	-0.003934
1344	6.7150e-01	6.5669	9.475748	0.000539	5.387380	0.912647	-0.010776
1345	6.7200e-01	6.5573	9.484301	-0.000086	-0.855140	-0.144865	0.001711
1346	6.7250e-01	6.5454	9.446242	0.000381	3.805371	0.644647	-0.007612
1347	6.7300e-01	6.5375	9.400486	0.000457	4.574997	0.775025	-0.009151
1348	6.7350e-01	6.5271	9.379105	0.000214	2.137849	0.362161	-0.004276
1349	6.7400e-01	6.5155	9.345323	0.000338	3.377802	0.572215	-0.006756
1350	6.7450e-01	6.5065	9.323086	0.000222	2.223363	0.376648	-0.004447
1351	6.7500e-01	6.4978	9.304271	0.000188	1.881307	0.318702	-0.003763
1352	6.7550e-01	6.4880	9.255094	0.000492	4.917053	0.832971	-0.009835
1353	6.7600e-01	6.4752	9.221311	0.000338	3.377802	0.572215	-0.006756
1354	6.7650e-01	6.4648	9.209338	0.000120	1.197195	0.202810	-0.002395
1355	6.7700e-01	6.4521	9.175556	0.000338	3.377802	0.572215	-0.006756
1356	6.7750e-01	6.4462	9.131938	0.000436	4.361212	0.738809	-0.008724
1357	6.7800e-01	6.4334	9.100293	0.000316	3.164017	0.535999	-0.006329
1358	6.7850e-01	6.4270	9.076774	0.000235	2.351634	0.398378	-0.004704
1359	6.7900e-01	6.4160	9.045130	0.000316	3.164017	0.535999	-0.006329
1360	6.7950e-01	6.4053	9.015196	0.000299	2.992989	0.507026	-0.005987
1361	6.8000e-01	6.3947	8.986118	0.000291	2.907475	0.492540	-0.005816
1362	6.8050e-01	6.3861	8.960032	0.000261	2.608176	0.441837	-0.005217
1363	6.8100e-01	6.3763	8.923257	0.000368	3.677100	0.622918	-0.007355
1364	6.8150e-01	6.3681	8.885626	0.000376	3.762614	0.637404	-0.007526
1365	6.8200e-01	6.3553	8.838159	0.000475	4.746025	0.803998	-0.009493
1366	6.8250e-01	6.3452	8.855264	-0.000171	-1.710279	-0.289729	0.003421
1367	6.8300e-01	6.3379	8.804804	0.000505	5.045324	0.854701	-0.010092
1368	6.8350e-01	6.3232	8.774443	0.000304	3.035746	0.514269	-0.006072
1369	6.8400e-01	6.3147	8.747930	0.000265	2.650933	0.449080	-0.005303
1370	6.8450e-01	6.3049	8.716714	0.000312	3.121260	0.528756	-0.006243
1371	6.8500e-01	6.2959	8.696615	0.000201	2.009578	0.340432	-0.004020
1372	6.8550e-01	6.2857	8.657701	0.000389	3.890885	0.659134	-0.007783
1373	6.8600e-01	6.2781	8.635037	0.000227	2.266120	0.383891	-0.004533
1374	6.8650e-01	6.2689	8.611518	0.000235	2.351634	0.398378	-0.004704
1375	6.8700e-01	6.2598	8.579018	0.000325	3.249531	0.550485	-0.006500
1376	6.8750e-01	6.2463	8.565762	0.000133	1.325466	0.224540	-0.002651
1377	6.8800e-01	6.2347	8.506322	0.000594	5.943220	1.006809	-0.011888
1378	6.8850e-01	6.2253	8.473822	0.000325	3.249531	0.550485	-0.006500
1379	6.8900e-01	6.2177	8.452869	0.000210	2.095092	0.354918	-0.004191
1380	6.8950e-01	6.2056	8.417376	0.000355	3.548829	0.601188	-0.007099
1381	6.9000e-01	6.1957	8.383594	0.000338	3.377802	0.572215	-0.006756
1382	6.9050e-01	6.1871	8.368627	0.000150	1.496494	0.253513	-0.002993
1383	6.9100e-01	6.1749	8.332706	0.000359	3.591586	0.608431	-0.007184
1384	6.9150e-01	6.1636	8.282674	0.000500	5.002567	0.847458	-0.010006
1385	6.9200e-01	6.1597	8.277970	0.000047	0.470327	0.079676	-0.000941
1386	6.9250e-01	6.1469	8.234352	0.000436	4.361212	0.738809	-0.008724
1387	6.9300e-01	6.1353	8.206984	0.000274	2.736447	0.463567	-0.005474
1388	6.9350e-01	6.1295	8.180472	0.000265	2.650933	0.449080	-0.005303
1389	6.9400e-01	6.1172	8.115045	0.000654	6.541818	1.108214	-0.013085
1390	6.9450e-01	6.1053	8.125308	-0.000103	-1.026168	-0.173837	0.002053
1391	6.9500e-01	6.0983	8.088960	0.000363	3.634343	0.615674	-0.007270
1392	6.9550e-01	6.0849	8.073138	0.000158	1.582008	0.267999	-0.003164
1393	6.9600e-01	6.0751	8.017119	0.000560	5.601165	0.948863	-0.011204
1394	6.9650e-01	6.0632	7.977777	0.000393	3.933642	0.666377	-0.007868
1395	6.9700e-01	6.0553	7.946133	0.000316	3.164017	0.535999	-0.006329
1396	6.9750e-01	6.0474	7.922186	0.000239	2.394391	0.405621	-0.004789
1397	6.9800e-01	6.0342	7.905936	0.000162	1.624765	0.275243	-0.003250
1398	6.9850e-01	6.0266	7.869588	0.000363	3.634343	0.615674	-0.007270
1399	6.9900e-01	6.0138	7.832385	0.000372	3.719857	0.630161	-0.007441
1400	6.9950e-01	6.0059	7.803306	0.000291	2.907475	0.492540	-0.005816
1401	7.0000e-01	5.9979	7.773800	0.000295	2.950232	0.499783	-0.005901
1402	7.0050e-01	5.9875	7.748998	0.000248	2.479905	0.420107	-0.004960
1403	7.0100e-01	5.9753	7.713932	0.000351	3.506073	0.593945	-0.007013
1404	7.0150e-01	5.9662	7.683999	0.000299	2.992989	0.507026	-0.005987
1405	7.0200e-01	5.9546	7.660052	0.000239	2.394391	0.405621	-0.004789
1406	7.0250e-01	5.9473	7.600184	0.000599	5.985977	1.014052	-0.011974
1407	7.0300e-01	5.9378	7.609164	-0.000090	-0.897897	-0.152108	0.001796
1408	7.0350e-01	5.9271	7.552718	0.000564	5.643922	0.956106	-0.011289
1409	7.0400e-01	5.9180	7.521929	0.000308	3.078503	0.521512	-0.006158
1410	7.0450e-01	5.9039	7.509100	0.000128	1.282709	0.217297	-0.002566
1411	7.0500e-01	5.8957	7.456930	0.000522	5.216352	0.883674	-0.010434
1412	7.0550e-01	5.8856	7.443246	0.000137	1.368223	0.231783	-0.002737
1413	7.0600e-01	5.8752	7.384661	0.000586	5.857707	0.992322	-0.011717
1414	7.0650e-01	5.8646	7.353872	0.000308	3.078503	0.521512	-0.006158
1415	7.0700e-01	5.8578	7.341471	0.000124	1.239952	0.210054	-0.002480
1416	7.0750e-01	5.8453	7.300846	0.000406	4.061913	0.688107	-0.008125
1417	7.0800e-01	5.8350	7.276899	0.000239	2.394391	0.405621	-0.004789
1418	7.0850e-01	5.8264	7.252525	0.000244	2.437148	0.412864	-0.004875
1419	7.0900e-01	5.8154	7.220453	0.000321	3.206774	0.543242	-0.006414
1420	7.0950e-01	5.8060	7.175124	0.000453	4.532240	0.767782	-0.009066
1421	7.1000e-01	5.7954	7.157164	0.000180	1.795793	0.304216	-0.003592
1422	7.1050e-01	5.7864	7.130651	0.000265	2.650933	0.449080	-0.005303
1423	7.1100e-01	5.7751	7.092165	0.000385	3.848128	0.651891	-0.007697
1424	7.1150e-01	5.7666	7.051968	0.000402	4.019156	0.680864	-0.008039
1425	7.1200e-01	5.7550	7.053251	-0.000013	-0.128271	-0.021730	0.000257
1426	7.1250e-01	5.7458	6.983548	0.000697	6.969388	1.180646	-0.013941
1427	7.1300e-01	5.7367	6.964305	0.000192	1.924064	0.325945	-0.003849
1428	7.1350e-01	5.7251	6.933944	0.000304	3.035746	0.514269	-0.006072
1429	7.1400e-01	5.7187	6.914701	0.000192	1.924064	0.325945	-0.003849
1430	7.1450e-01	5.7077	6.869800	0.000449	4.489483	0.760539	-0.008980
1431	7.1500e-01	5.6940	6.816775	0.000530	5.301866	0.898160	-0.010605
1432	7.1550e-01	5.6882	6.798387	0.000184	1.838550	0.311459	-0.003678
1433	7.1600e-01	5.6754	6.782564	0.000158	1.582008	0.267999	-0.003164
1434	7.1650e-01	5.6648	6.750065	0.000325	3.249531	0.550485	-0.006500
1435	7.1700e-01	5.6561	6.722269	0.000278	2.779204	0.470810	-0.005559
1436	7.1750e-01	5.6458	6.707730	0.000145	1.453737	0.246270	-0.002908
1437	7.1800e-01	5.6356	6.666678	0.000410	4.104670	0.695350	-0.008210
1438	7.1850e-01	5.6265	6.596975	0.000697	6.969388	1.180646	-0.013941
1439	7.1900e-01	5.6146	6.573028	0.000239	2.394391	0.405621	-0.004789
1440	7.1950e-01	5.6057	6.550792	0.000222	2.223363	0.376648	-0.004447
1441	7.2000e-01	5.5963	6.514871	0.000359	3.591586	0.608431	-0.007184
1442	7.2050e-01	5.5841	6.516582	-0.000017	-0.171028	-0.028973	0.000342
1443	7.2100e-01	5.5774	6.458852	0.000577	5.772193	0.977836	-0.011546
1444	7.2150e-01	5.5676	6.441747	0.000171	1.710279	0.289729	-0.003421
1445	7.2200e-01	5.5566	6.396846	0.000449	4.489483	0.760539	-0.008980
1446	7.2250e-01	5.5470	6.369478	0.000274	2.736447	0.463567	-0.005474
1447	7.2300e-01	5.5359	6.335696	0.000338	3.377802	0.572215	-0.006756
1448	7.2350e-01	5.5270	6.311321	0.000244	2.437148	0.412864	-0.004875
1449	7.2400e-01	5.5164	6.262145	0.000492	4.917053	0.832971	-0.009835
1450	7.2450e-01	5.5066	6.212968	0.000492	4.917053	0.832971	-0.009835
1451	7.2500e-01	5.4987	6.201849	0.000111	1.111682	0.188324	-0.002224
1452	7.2550e-01	5.4840	6.177047	0.000248	2.479905	0.420107	-0.004960
1453	7.2600e-01	5.4750	6.139416	0.000376	3.762614	0.637404	-0.007526
1454	7.2650e-01	5.4657	6.115897	0.000235	2.351634	0.398378	-0.004704
1455	7.2700e-01	5.4572	6.067575	0.000483	4.831539	0.818485	-0.009664
1456	7.2750e-01	5.4431	6.062444	0.000051	0.513084	0.086919	-0.001026
1457	7.2800e-01	5.4370	6.020964	0.000415	4.147427	0.702593	-0.008296
1458	7.2850e-01	5.4269	5.967083	0.000539	5.387380	0.912647	-0.010776
1459	7.2900e-01	5.4169	5.961524	0.000056	0.555841	0.094162	-0.001112
1460	7.2950e-01	5.4059	5.900801	0.000607	6.071491	1.028538	-0.012145
1461	7.3000e-01	5.3967	5.887972	0.000128	1.282709	0.217297	-0.002566
1462	7.3050e-01	5.3873	5.835802	0.000522	5.216352	0.883674	-0.010434
1463	7.3100e-01	5.3757	5.826394	0.000094	0.940654	0.159351	-0.001882
1464	7.3150e-01	5.3668	5.778928	0.000475	4.746025	0.803998	-0.009493
1465	7.3200e-01	5.3558	5.750705	0.000282	2.821961	0.478053	-0.005645
1466	7.3250e-01	5.3458	5.730179	0.000205	2.052335	0.347675	-0.004105
1467	7.3300e-01	5.3375	5.682712	0.000475	4.746025	0.803998	-0.009493
1468	7.3350e-01	5.3262	5.645081	0.000376	3.762614	0.637404	-0.007526
1469	7.3400e-01	5.3137	5.634818	0.000103	1.026168	0.173837	-0.002053
1470	7.3450e-01	5.3052	5.587779	0.000470	4.703268	0.796755	-0.009408
1471	7.3500e-01	5.2954	5.554425	0.000334	3.335045	0.564972	-0.006671
1472	7.3550e-01	5.2835	5.506958	0.000475	4.746025	0.803998	-0.009493
1473	7.3600e-01	5.2744	5.505675	0.000013	0.128271	0.021730	-0.000257
1474	7.3650e-01	5.2673	5.473176	0.000325	3.249531	0.550485	-0.006500
1475	7.3700e-01	5.2554	5.423144	0.000500	5.002567	0.847458	-0.010006
1476	7.3750e-01	5.2466	5.420150	0.000030	0.299299	0.050703	-0.000599
1477	7.3800e-01	5.2365	5.374822	0.000453	4.532240	0.767782	-0.009066
1478	7.3850e-01	5.2267	5.333770	0.000410	4.104670	0.695350	-0.008210
1479	7.3900e-01	5.2158	5.311106	0.000227	2.266120	0.383891	-0.004533
1480	7.3950e-01	5.2057	5.270482	0.000406	4.061913	0.688107	-0.008125
1481	7.4000e-01	5.1971	5.234561	0.000359	3.591586	0.608431	-0.007184
1482	7.4050e-01	5.1862	5.194364	0.000402	4.019156	0.680864	-0.008039
1483	7.4100e-01	5.1764	5.153312	0.000410	4.104670	0.695350	-0.008210
1484	7.4150e-01	5.1691	5.137062	0.000162	1.624765	0.275243	-0.003250
1485	7.4200e-01	5.1547	5.113115	0.000239	2.394391	0.405621	-0.004789
1486	7.4250e-01	5.1465	5.076767	0.000363	3.634343	0.615674	-0.007270
1487	7.4300e-01	5.1361	5.022031	0.000547	5.472894	0.927133	-0.010947
1488	7.4350e-01	5.1282	5.008775	0.000133	1.325466	0.224540	-0.002651
1489	7.4400e-01	5.1132	4.980979	0.000278	2.779204	0.470810	-0.005559
1490	7.4450e-01	5.1077	4.927954	0.000530	5.301866	0.898160	-0.010605
1491	7.4500e-01	5.0970	4.924533	0.000034	0.342056	0.057946	-0.000684
1492	7.4550e-01	5.0833	4.857823	0.000667	6.670089	1.129944	-0.013342
1493	7.4600e-01	5.0763	4.839863	0.000180	1.795793	0.304216	-0.003592
1494	7.4650e-01	5.0662	4.819764	0.000201	2.009578	0.340432	-0.004020
1495	7.4700e-01	5.0537	4.757331	0.000624	6.242519	1.057511	-0.012487
1496	7.4750e-01	5.0449	4.734667	0.000227	2.266120	0.383891	-0.004533
1497	7.4800e-01	5.0336	4.726115	0.000086	0.855140	0.144865	-0.001711
1498	7.4850e-01	5.0256	4.685490	0.000406	4.061913	0.688107	-0.008125
1499	7.4900e-01	5.0180	4.639307	0.000462	4.617754	0.782269	-0.009237
1500	7.4950e-01	5.0061	4.604241	0.000351	3.506073	0.593945	-0.007013
1501	7.5000e-01	4.9963	4.568321	0.000359	3.591586	0.608431	-0.007184
1502	7.5050e-01	4.9875	4.530262	0.000381	3.805371	0.644647	-0.007612
1503	7.5100e-01	4.9756	4.495625	0.000346	3.463316	0.586702	-0.006928
1504	7.5150e-01	4.9634	4.477664	0.000180	1.795793	0.304216	-0.003592
1505	7.5200e-01	4.9573	4.424639	0.000530	5.301866	0.898160	-0.010605
1506	7.5250e-01	4.9477	4.419080	0.000056	0.555841	0.094162	-0.001112
1507	7.5300e-01	4.9377	4.365199	0.000539	5.387380	0.912647	-0.010776
1508	7.5350e-01	4.9275	4.341252	0.000239	2.394391	0.405621	-0.004789
1509	7.5400e-01	4.9179	4.286516	0.000547	5.472894	0.927133	-0.010947
1510	7.5450e-01	4.9063	4.289937	-0.000034	-0.342056	-0.057946	0.000684
1511	7.5500e-01	4.8983	4.239905	0.000500	5.002567	0.847458	-0.010006
1512	7.5550e-01	4.8871	4.198853	0.000410	4.104670	0.695350	-0.008210
1513	7.5600e-01	4.8756	4.174478	0.000244	2.437148	0.412864	-0.004875
1514	7.5650e-01	4.8677	4.145399	0.000291	2.907475	0.492540	-0.005816
1515	7.5700e-01	4.8573	4.088953	0.000564	5.643922	0.956106	-0.011289
1516	7.5750e-01	4.8465	4.075269	0.000137	1.368223	0.231783	-0.002737
1517	7.5800e-01	4.8364	4.047473	0.000278	2.779204	0.470810	-0.005559
1518	7.5850e-01	4.8262	3.997013	0.000505	5.045324	0.854701	-0.010092
1519	7.5900e-01	4.8157	3.982047	0.000150	1.496494	0.253513	-0.002993
1520	7.5950e-01	4.8077	3.923890	0.000581	5.814950	0.985079	-0.011631
1521	7.6000e-01	4.7974	3.892245	0.000316	3.164017	0.535999	-0.006329
1522	7.6050e-01	4.7855	3.852904	0.000393	3.933642	0.666377	-0.007868
1523	7.6100e-01	4.7749	3.820832	0.000321	3.206774	0.543242	-0.006414
1524	7.6150e-01	4.7647	3.781490	0.000393	3.933642	0.666377	-0.007868
1525	7.6200e-01	4.7577	3.769944	0.000115	1.154439	0.195567	-0.002309
1526	7.6250e-01	4.7473	3.737873	0.000321	3.206774	0.543242	-0.006414
1527	7.6300e-01	4.7364	3.697248	0.000406	4.061913	0.688107	-0.008125
1528	7.6350e-01	4.7250	3.660472	0.000368	3.677100	0.622918	-0.007355
1529	7.6400e-01	4.7162	3.632677	0.000278	2.779204	0.470810	-0.005559
1530	7.6450e-01	4.7043	3.582645	0.000500	5.002567	0.847458	-0.010006
1531	7.6500e-01	4.6954	3.556559	0.000261	2.608176	0.441837	-0.005217
1532	7.6550e-01	4.6844	3.528336	0.000282	2.821961	0.478053	-0.005645
1533	7.6600e-01	4.6765	3.469324	0.000590	5.900464	0.999566	-0.011802
1534	7.6650e-01	4.6664	3.463765	0.000056	0.555841	0.094162	-0.001112
1535	7.6700e-01	4.6527	3.425278	0.000385	3.848128	0.651891	-0.007697
1536	7.6750e-01	4.6454	3.373963	0.000513	5.130838	0.869187	-0.010263
1537	7.6800e-01	4.6378	3.348734	0.000252	2.522662	0.427350	-0.005046
1538	7.6850e-01	4.6246	3.317945	0.000308	3.078503	0.521512	-0.006158
1539	7.6900e-01	4.6167	3.288866	0.000291	2.907475	0.492540	-0.005816
1540	7.6950e-01	4.6066	3.248669	0.000402	4.019156	0.680864	-0.008039
1541	7.7000e-01	4.5953	3.196927	0.000517	5.173595	0.876431	-0.010349
1542	7.7050e-01	4.5868	3.162289	0.000346	3.463316	0.586702	-0.006928
1543	7.7100e-01	4.5764	3.149033	0.000133	1.325466	0.224540	-0.002651
1544	7.7150e-01	4.5639	3.118671	0.000304	3.035746	0.514269	-0.006072
1545	7.7200e-01	4.5575	3.077191	0.000415	4.147427	0.702593	-0.008296
1546	7.7250e-01	4.5462	3.039988	0.000372	3.719857	0.630161	-0.007441
1547	7.7300e-01	4.5337	3.002357	0.000376	3.762614	0.637404	-0.007526
1548	7.7350e-01	4.5229	2.968147	0.000342	3.420559	0.579458	-0.006842
1549	7.7400e-01	4.5154	2.934792	0.000334	3.335045	0.564972	-0.006671
1550	7.7450e-01	4.5056	2.924957	0.000098	0.983411	0.166594	-0.001967
1551	7.7500e-01	4.4989	2.865517	0.000594	5.943220	1.006809	-0.011888
1552	7.7550e-01	4.4855	2.828314	0.000372	3.719857	0.630161	-0.007441
1553	7.7600e-01	4.4757	2.800518	0.000278	2.779204	0.470810	-0.005559
1554	7.7650e-01	4.4649	2.780847	0.000197	1.966821	0.333189	-0.003934
1555	7.7700e-01	4.4568	2.725684	0.000552	5.515651	0.934377	-0.011033
1556	7.7750e-01	4.4458	2.703875	0.000218	2.180606	0.369405	-0.004362
1557	7.7800e-01	4.4350	2.672658	0.000312	3.121260	0.528756	-0.006243
1558	7.7850e-01	4.4226	2.621771	0.000509	5.088081	0.861944	-0.010177
1559	7.7900e-01	4.4160	2.606376	0.000154	1.539251	0.260756	-0.003079
1560	7.7950e-01	4.4049	2.540522	0.000658	6.584575	1.115457	-0.013171
1561	7.8000e-01	4.3988	2.515292	0.000252	2.522662	0.427350	-0.005046
1562	7.8050e-01	4.3839	2.476378	0.000389	3.890885	0.659134	-0.007783
1563	7.8100e-01	4.3752	2.429339	0.000470	4.703268	0.796755	-0.009408
1564	7.8150e-01	4.3658	2.404109	0.000252	2.522662	0.427350	-0.005046
1565	7.8200e-01	4.3542	2.365195	0.000389	3.890885	0.659134	-0.007783
1566	7.8250e-01	4.3448	2.354932	0.000103	1.026168	0.173837	-0.002053
1567	7.8300e-01	4.3359	2.307466	0.000475	4.746025	0.803998	-0.009493
1568	7.8350e-01	4.3246	2.280526	0.000269	2.693690	0.456323	-0.005388
1569	7.8400e-01	4.3158	2.247598	0.000329	3.292288	0.557729	-0.006585
1570	7.8450e-01	4.3073	2.203125	0.000445	4.446726	0.753296	-0.008895
1571	7.8500e-01	4.2960	2.159935	0.000432	4.318455	0.731566	-0.008638
1572	7.8550e-01	4.2877	2.137699	0.000222	2.223363	0.376648	-0.004447
1573	7.8600e-01	4.2752	2.098357	0.000393	3.933642	0.666377	-0.007868
1574	7.8650e-01	4.2667	2.062009	0.000363	3.634343	0.615674	-0.007270
1575	7.8700e-01	4.2557	2.008556	0.000534	5.344623	0.905404	-0.010691
1576	7.8750e-01	4.2458	1.981188	0.000274	2.736447	0.463567	-0.005474
1577	7.8800e-01	4.2355	1.942274	0.000389	3.890885	0.659134	-0.007783
1578	7.8850e-01	4.2290	1.917899	0.000244	2.437148	0.412864	-0.004875
1579	7.8900e-01	4.2172	1.883262	0.000346	3.463316	0.586702	-0.006928
1580	7.8950e-01	4.2059	1.856321	0.000269	2.693690	0.456323	-0.005388
1581	7.9000e-01	4.1956	1.814414	0.000419	4.190184	0.709836	-0.008381
1582	7.9050e-01	4.1858	1.775073	0.000393	3.933642	0.666377	-0.007868
1583	7.9100e-01	4.1731	1.737014	0.000381	3.805371	0.644647	-0.007612
1584	7.9150e-01	4.1675	1.708363	0.000286	2.864718	0.485296	-0.005730
1585	7.9200e-01	4.1534	1.683561	0.000248	2.479905	0.420107	-0.004960
1586	7.9250e-01	4.1455	1.641653	0.000419	4.190184	0.709836	-0.008381
1587	7.9300e-01	4.1354	1.584779	0.000569	5.686679	0.963349	-0.011375
1588	7.9350e-01	4.1257	1.571951	0.000128	1.282709	0.217297	-0.002566
1589	7.9400e-01	4.1156	1.536030	0.000359	3.591586	0.608431	-0.007184
1590	7.9450e-01	4.1058	1.488136	0.000479	4.788782	0.811242	-0.009579
1591	7.9500e-01	4.0964	1.445373	0.000428	4.275698	0.724323	-0.008553
1592	7.9550e-01	4.0843	1.410736	0.000346	3.463316	0.586702	-0.006928
1593	7.9600e-01	4.0747	1.379947	0.000308	3.078503	0.521512	-0.006158
1594	7.9650e-01	4.0646	1.337184	0.000428	4.275698	0.724323	-0.008553
1595	7.9700e-01	4.0524	1.304685	0.000325	3.249531	0.550485	-0.006500
1596	7.9750e-01	4.0475	1.276034	0.000286	2.864718	0.485296	-0.005730
1597	7.9800e-01	4.0372	1.231988	0.000440	4.403969	0.746053	-0.008809
1598	7.9850e-01	4.0207	1.205048	0.000269	2.693690	0.456323	-0.005388
1599	7.9900e-01	4.0152	1.154588	0.000505	5.045324	0.854701	-0.010092
1600	7.9950e-01	4.0042	1.140477	0.000141	1.410980	0.239027	-0.002822
1601	8.0000e-01	3.9936	1.083175	0.000573	5.729436	0.970593	-0.011460
1602	8.0050e-01	3.9832	1.062649	0.000205	2.052335	0.347675	-0.004105
1603	8.0100e-01	3.9746	1.005775	0.000569	5.686679	0.963349	-0.011375
1604	8.0150e-01	3.9636	0.980972	0.000248	2.479905	0.420107	-0.004960
1605	8.0200e-01	3.9554	0.945907	0.000351	3.506073	0.593945	-0.007013
1606	8.0250e-01	3.9438	0.916401	0.000295	2.950232	0.499783	-0.005901
1607	8.0300e-01	3.9352	0.890743	0.000257	2.565419	0.434594	-0.005132
1608	8.0350e-01	3.9285	0.836863	0.000539	5.387380	0.912647	-0.010776
1609	8.0400e-01	3.9185	0.794955	0.000419	4.190184	0.709836	-0.008381
1610	8.0450e-01	3.9042	0.781699	0.000133	1.325466	0.224540	-0.002651
1611	8.0500e-01	3.8956	0.726535	0.000552	5.515651	0.934377	-0.011033
1612	8.0550e-01	3.8852	0.695319	0.000312	3.121260	0.528756	-0.006243
1613	8.0600e-01	3.8770	0.659826	0.000355	3.548829	0.601188	-0.007099
1614	8.0650e-01	3.8654	0.623050	0.000368	3.677100	0.622918	-0.007355
1615	8.0700e-01	3.8547	0.577722	0.000453	4.532240	0.767782	-0.009066
1616	8.0750e-01	3.8449	0.517427	0.000603	6.028734	1.021295	-0.012059
1617	8.0800e-01	3.8339	0.520848	-0.000034	-0.342056	-0.057946	0.000684
1618	8.0850e-01	3.8248	0.461835	0.000590	5.900464	0.999566	-0.011802
1619	8.0900e-01	3.8162	0.446013	0.000158	1.582008	0.267999	-0.003164
1620	8.0950e-01	3.8033	0.407527	0.000385	3.848128	0.651891	-0.007697
1621	8.1000e-01	3.7964	0.353218	0.000543	5.430137	0.919890	-0.010862
1622	8.1050e-01	3.7869	0.333548	0.000197	1.966821	0.333189	-0.003934
1623	8.1100e-01	3.7746	0.298482	0.000351	3.506073	0.593945	-0.007013
1624	8.1150e-01	3.7653	0.260851	0.000376	3.762614	0.637404	-0.007526
1625	8.1200e-01	3.7555	0.214240	0.000466	4.660511	0.789512	-0.009322
1626	8.1250e-01	3.7469	0.174043	0.000402	4.019156	0.680864	-0.008039
1627	8.1300e-01	3.7357	0.130426	0.000436	4.361212	0.738809	-0.008724
1628	8.1350e-01	3.7256	0.106051	0.000244	2.437148	0.412864	-0.004875
1629	8.1400e-01	3.7183	0.069275	0.000368	3.677100	0.622918	-0.007355
1630	8.1450e-01	3.7061	0.040197	0.000291	2.907475	0.492540	-0.005816
1631	8.1500e-01	3.6993	0.001283	0.000389	3.890885	0.659134	-0.007783
1632	8.1550e-01	3.6855	-0.032072	0.000334	3.335045	0.564972	-0.006671
1633	8.1600e-01	3.6775	-0.091939	0.000599	5.985977	1.014052	-0.011974
1634	8.1650e-01	3.6671	-0.129570	0.000376	3.762614	0.637404	-0.007526
1635	8.1700e-01	3.6548	-0.143682	0.000141	1.410980	0.239027	-0.002822
1636	8.1750e-01	3.6487	-0.179175	0.000355	3.548829	0.601188	-0.007099
1637	8.1800e-01	3.6366	-0.226641	0.000475	4.746025	0.803998	-0.009493
1638	8.1850e-01	3.6275	-0.274963	0.000483	4.831539	0.818485	-0.009664
1639	8.1900e-01	3.6139	-0.286937	0.000120	1.197195	0.202810	-0.002395
1640	8.1950e-01	3.6055	-0.335686	0.000487	4.874296	0.825728	-0.009750
1641	8.2000e-01	3.5956	-0.389139	0.000534	5.344623	0.905404	-0.010691
1642	8.2050e-01	3.5875	-0.414797	0.000257	2.565419	0.434594	-0.005132
1643	8.2100e-01	3.5791	-0.471671	0.000569	5.686679	0.963349	-0.011375
1644	8.2150e-01	3.5654	-0.500322	0.000286	2.864718	0.485296	-0.005730
1645	8.2200e-01	3.5559	-0.531966	0.000316	3.164017	0.535999	-0.006329
1646	8.2250e-01	3.5452	-0.580287	0.000483	4.831539	0.818485	-0.009664
1647	8.2300e-01	3.5378	-0.599103	0.000188	1.881307	0.318702	-0.003763
1648	8.2350e-01	3.5268	-0.637162	0.000381	3.805371	0.644647	-0.007612
1649	8.2400e-01	3.5162	-0.692325	0.000552	5.515651	0.934377	-0.011033
1650	8.2450e-01	3.5037	-0.711141	0.000188	1.881307	0.318702	-0.003763
1651	8.2500e-01	3.4961	-0.754759	0.000436	4.361212	0.738809	-0.008724
1652	8.2550e-01	3.4857	-0.799659	0.000449	4.489483	0.760539	-0.008980
1653	8.2600e-01	3.4742	-0.835152	0.000355	3.548829	0.601188	-0.007099
1654	8.2650e-01	3.4674	-0.874921	0.000398	3.976399	0.673620	-0.007954
1655	8.2700e-01	3.4555	-0.906566	0.000316	3.164017	0.535999	-0.006329
1656	8.2750e-01	3.4453	-0.939920	0.000334	3.335045	0.564972	-0.006671
1657	8.2800e-01	3.4351	-0.988670	0.000487	4.874296	0.825728	-0.009750
1658	8.2850e-01	3.4253	-1.031005	0.000423	4.232941	0.717080	-0.008467
1659	8.2900e-01	3.4137	-1.053241	0.000222	2.223363	0.376648	-0.004447
1660	8.2950e-01	3.4039	-1.104128	0.000509	5.088081	0.861944	-0.010177
1661	8.3000e-01	3.3952	-1.143042	0.000389	3.890885	0.659134	-0.007783
1662	8.3050e-01	3.3850	-1.166989	0.000239	2.394391	0.405621	-0.004789
1663	8.3100e-01	3.3740	-1.222153	0.000552	5.515651	0.934377	-0.011033
1664	8.3150e-01	3.3664	-1.249093	0.000269	2.693690	0.456323	-0.005388
1665	8.3200e-01	3.3557	-1.296987	0.000479	4.788782	0.811242	-0.009579
1666	8.3250e-01	3.3459	-1.320507	0.000235	2.351634	0.398378	-0.004704
1667	8.3300e-01	3.3351	-1.359848	0.000393	3.933642	0.666377	-0.007868
1668	8.3350e-01	3.3266	-1.426986	0.000671	6.712846	1.137187	-0.013427
1669	8.3400e-01	3.3160	-1.451360	0.000244	2.437148	0.412864	-0.004875
1670	8.3450e-01	3.3069	-1.480011	0.000286	2.864718	0.485296	-0.005730
1671	8.3500e-01	3.2971	-1.530471	0.000505	5.045324	0.854701	-0.010092
1672	8.3550e-01	3.2861	-1.554418	0.000239	2.394391	0.405621	-0.004789
1673	8.3600e-01	3.2753	-1.573233	0.000188	1.881307	0.318702	-0.003763
1674	8.3650e-01	3.2663	-1.623266	0.000500	5.002567	0.847458	-0.010006
1675	8.3700e-01	3.2559	-1.688265	0.000650	6.499061	1.100971	-0.013000
1676	8.3750e-01	3.2458	-1.723757	0.000355	3.548829	0.601188	-0.007099
1677	8.3800e-01	3.2352	-1.764810	0.000410	4.104670	0.695350	-0.008210
1678	8.3850e-01	3.2260	-1.799447	0.000346	3.463316	0.586702	-0.006928
1679	8.3900e-01	3.2156	-1.832802	0.000334	3.335045	0.564972	-0.006671
1680	8.3950e-01	3.2068	-1.880696	0.000479	4.788782	0.811242	-0.009579
1681	8.4000e-01	3.1958	-1.905071	0.000244	2.437148	0.412864	-0.004875
1682	8.4050e-01	3.1839	-1.959379	0.000543	5.430137	0.919890	-0.010862
1683	8.4100e-01	3.1757	-1.985892	0.000265	2.650933	0.449080	-0.005303
1684	8.4150e-01	3.1633	-2.011977	0.000261	2.608176	0.441837	-0.005217
1685	8.4200e-01	3.1562	-2.056878	0.000449	4.489483	0.760539	-0.008980
1686	8.4250e-01	3.1442	-2.107337	0.000505	5.045324	0.854701	-0.010092
1687	8.4300e-01	3.1363	-2.142403	0.000351	3.506073	0.593945	-0.007013
1688	8.4350e-01	3.1250	-2.180034	0.000376	3.762614	0.637404	-0.007526
1689	8.4400e-01	3.1149	-2.216809	0.000368	3.677100	0.622918	-0.007355
1690	8.4450e-01	3.1050	-2.262565	0.000457	4.574997	0.775025	-0.009151
1691	8.4500e-01	3.0953	-2.293354	0.000308	3.078503	0.521512	-0.006158
1692	8.4550e-01	3.0870	-2.353222	0.000599	5.985977	1.014052	-0.011974
1693	8.4600e-01	3.0743	-2.381873	0.000286	2.864718	0.485296	-0.005730
1694	8.4650e-01	3.0647	-2.419076	0.000372	3.719857	0.630161	-0.007441
1695	8.4700e-01	3.0548	-2.464404	0.000453	4.532240	0.767782	-0.009066
1696	8.4750e-01	3.0447	-2.496049	0.000316	3.164017	0.535999	-0.006329
1697	8.4800e-01	3.0360	-2.531542	0.000355	3.548829	0.601188	-0.007099
1698	8.4850e-01	3.0252	-2.585422	0.000539	5.387380	0.912647	-0.010776
1699	8.4900e-01	3.0141	-2.612790	0.000274	2.736447	0.463567	-0.005474
1700	8.4950e-01	3.0060	-2.634172	0.000214	2.137849	0.362161	-0.004276
1701	8.5000e-01	2.9969	-2.688052	0.000539	5.387380	0.912647	-0.010776
1702	8.5050e-01	2.9839	-2.738940	0.000509	5.088081	0.861944	-0.010177
1703	8.5100e-01	2.9767	-2.775288	0.000363	3.634343	0.615674	-0.007270
1704	8.5150e-01	2.9634	-2.814630	0.000393	3.933642	0.666377	-0.007868
1705	8.5200e-01	2.9553	-2.856537	0.000419	4.190184	0.709836	-0.008381
1706	8.5250e-01	2.9443	-2.881767	0.000252	2.522662	0.427350	-0.005046
1707	8.5300e-01	2.9367	-2.953608	0.000718	7.183173	1.216862	-0.014368
1708	8.5350e-01	2.9245	-2.972423	0.000188	1.881307	0.318702	-0.003763
1709	8.5400e-01	2.9173	-2.988245	0.000158	1.582008	0.267999	-0.003164
1710	8.5450e-01	2.9053	-3.036567	0.000483	4.831539	0.818485	-0.009664
1711	8.5500e-01	2.8949	-3.093014	0.000564	5.643922	0.956106	-0.011289
1712	8.5550e-01	2.8845	-3.122520	0.000295	2.950232	0.499783	-0.005901
1713	8.5600e-01	2.8738	-3.163144	0.000406	4.061913	0.688107	-0.008125
1714	8.5650e-01	2.8634	-3.187091	0.000239	2.394391	0.405621	-0.004789
1715	8.5700e-01	2.8546	-3.266202	0.000791	7.910042	1.339997	-0.015822
1716	8.5750e-01	2.8445	-3.296563	0.000304	3.035746	0.514269	-0.006072
1717	8.5800e-01	2.8366	-3.324359	0.000278	2.779204	0.470810	-0.005559
1718	8.5850e-01	2.8258	-3.374391	0.000500	5.002567	0.847458	-0.010006
1719	8.5900e-01	2.8149	-3.411167	0.000368	3.677100	0.622918	-0.007355
1720	8.5950e-01	2.8037	-3.455212	0.000440	4.403969	0.746053	-0.008809
1721	8.6000e-01	2.7943	-3.477449	0.000222	2.223363	0.376648	-0.004447
1722	8.6050e-01	2.7850	-3.529191	0.000517	5.173595	0.876431	-0.010349
1723	8.6100e-01	2.7751	-3.559125	0.000299	2.992989	0.507026	-0.005987
1724	8.6150e-01	2.7649	-3.610440	0.000513	5.130838	0.869187	-0.010263
1725	8.6200e-01	2.7557	-3.653203	0.000428	4.275698	0.724323	-0.008553
1726	8.6250e-01	2.7451	-3.691689	0.000385	3.848128	0.651891	-0.007697
1727	8.6300e-01	2.7347	-3.737873	0.000462	4.617754	0.782269	-0.009237
1728	8.6350e-01	2.7260	-3.783628	0.000457	4.574997	0.775025	-0.009151
1729	8.6400e-01	2.7167	-3.821259	0.000376	3.762614	0.637404	-0.007526
1730	8.6450e-01	2.7051	-3.862311	0.000410	4.104670	0.695350	-0.008210
1731	8.6500e-01	2.6953	-3.902081	0.000398	3.976399	0.673620	-0.007954
1732	8.6550e-01	2.6846	-3.945698	0.000436	4.361212	0.738809	-0.008724
1733	8.6600e-01	2.6746	-3.981191	0.000355	3.548829	0.601188	-0.007099
1734	8.6650e-01	2.6642	-4.021816	0.000406	4.061913	0.688107	-0.008125
1735	8.6700e-01	2.6547	-4.048328	0.000265	2.650933	0.449080	-0.005303
1736	8.6750e-01	2.6471	-4.091946	0.000436	4.361212	0.738809	-0.008724
1737	8.6800e-01	2.6357	-4.132998	0.000410	4.104670	0.695350	-0.008210
1738	8.6850e-01	2.6262	-4.159939	0.000269	2.693690	0.456323	-0.005388
1739	8.6900e-01	2.6144	-4.222800	0.000629	6.285276	1.064755	-0.012572
1740	8.6950e-01	2.6060	-4.239905	0.000171	1.710279	0.289729	-0.003421
1741	8.7000e-01	2.5990	-4.292075	0.000522	5.216352	0.883674	-0.010434
1742	8.7050e-01	2.5849	-4.345100	0.000530	5.301866	0.898160	-0.010605
1743	8.7100e-01	2.5764	-4.381876	0.000368	3.677100	0.622918	-0.007355
1744	8.7150e-01	2.5652	-4.410955	0.000291	2.907475	0.492540	-0.005816
1745	8.7200e-01	2.5568	-4.463980	0.000530	5.301866	0.898160	-0.010605
1746	8.7250e-01	2.5461	-4.507170	0.000432	4.318455	0.731566	-0.008638
1747	8.7300e-01	2.5347	-4.546940	0.000398	3.976399	0.673620	-0.007954
1748	8.7350e-01	2.5253	-4.578156	0.000312	3.121260	0.528756	-0.006243
1749	8.7400e-01	2.5159	-4.614077	0.000359	3.591586	0.608431	-0.007184
1750	8.7450e-01	2.5073	-4.663254	0.000492	4.917053	0.832971	-0.009835
1751	8.7500e-01	2.4973	-4.706444	0.000432	4.318455	0.731566	-0.008638
1752	8.7550e-01	2.4854	-4.756476	0.000500	5.002567	0.847458	-0.010006
1753	8.7600e-01	2.4768	-4.796673	0.000402	4.019156	0.680864	-0.008039
1754	8.7650e-01	2.4646	-4.841146	0.000445	4.446726	0.753296	-0.008895
1755	8.7700e-01	2.4573	-4.881343	0.000402	4.019156	0.680864	-0.008039
1756	8.7750e-01	2.4457	-4.912559	0.000312	3.121260	0.528756	-0.006243
1757	8.7800e-01	2.4338	-4.957032	0.000445	4.446726	0.753296	-0.008895
1758	8.7850e-01	2.4254	-4.974565	0.000175	1.753036	0.296972	-0.003507
1759	8.7900e-01	2.4159	-5.054958	0.000804	8.038313	1.361727	-0.016079
1760	8.7950e-01	2.4034	-5.079333	0.000244	2.437148	0.412864	-0.004875
1761	8.8000e-01	2.3941	-5.111405	0.000321	3.206774	0.543242	-0.006414
1762	8.8050e-01	2.3866	-5.172128	0.000607	6.071491	1.028538	-0.012145
1763	8.8100e-01	2.3755	-5.211897	0.000398	3.976399	0.673620	-0.007954
1764	8.8150e-01	2.3676	-5.251666	0.000398	3.976399	0.673620	-0.007954
1765	8.8200e-01	2.3526	-5.292718	0.000410	4.104670	0.695350	-0.008210
1766	8.8250e-01	2.3468	-5.344461	0.000517	5.173595	0.876431	-0.010349
1767	8.8300e-01	2.3349	-5.382519	0.000381	3.805371	0.644647	-0.007612
1768	8.8350e-01	2.3245	-5.422288	0.000398	3.976399	0.673620	-0.007954
1769	8.8400e-01	2.3148	-5.464196	0.000419	4.190184	0.709836	-0.008381
1770	8.8450e-01	2.3044	-5.507386	0.000432	4.318455	0.731566	-0.008638
1771	8.8500e-01	2.2957	-5.563832	0.000564	5.643922	0.956106	-0.011289
1772	8.8550e-01	2.2858	-5.585641	0.000218	2.180606	0.369405	-0.004362
1773	8.8600e-01	2.2752	-5.631397	0.000457	4.574997	0.775025	-0.009151
1774	8.8650e-01	2.2658	-5.680147	0.000487	4.874296	0.825728	-0.009750
1775	8.8700e-01	2.2547	-5.737876	0.000577	5.772193	0.977836	-0.011546
1776	8.8750e-01	2.2437	-5.771658	0.000338	3.377802	0.572215	-0.006756
1777	8.8800e-01	2.2379	-5.802020	0.000304	3.035746	0.514269	-0.006072
1778	8.8850e-01	2.2266	-5.846493	0.000445	4.446726	0.753296	-0.008895
1779	8.8900e-01	2.2150	-5.900374	0.000539	5.387380	0.912647	-0.010776
1780	8.8950e-01	2.2057	-5.928597	0.000282	2.821961	0.478053	-0.005645
1781	8.9000e-01	2.1954	-5.971787	0.000432	4.318455	0.731566	-0.008638
1782	8.9050e-01	2.1854	-6.008990	0.000372	3.719857	0.630161	-0.007441
1783	8.9100e-01	2.1753	-6.047477	0.000385	3.848128	0.651891	-0.007697
1784	8.9150e-01	2.1626	-6.098792	0.000513	5.130838	0.869187	-0.010263
1785	8.9200e-01	2.1543	-6.158232	0.000594	5.943220	1.006809	-0.011888
1786	8.9250e-01	2.1448	-6.180896	0.000227	2.266120	0.383891	-0.004533
1787	8.9300e-01	2.1369	-6.222375	0.000415	4.147427	0.702593	-0.008296
1788	8.9350e-01	2.1275	-6.266848	0.000445	4.446726	0.753296	-0.008895
1789	8.9400e-01	2.1172	-6.322867	0.000560	5.601165	0.948863	-0.011204
1790	8.9450e-01	2.1069	-6.347242	0.000244	2.437148	0.412864	-0.004875
1791	8.9500e-01	2.0959	-6.398129	0.000509	5.088081	0.861944	-0.010177
1792	8.9550e-01	2.0847	-6.449444	0.000513	5.130838	0.869187	-0.010263
1793	8.9600e-01	2.0764	-6.487931	0.000385	3.848128	0.651891	-0.007697
1794	8.9650e-01	2.0657	-6.529410	0.000415	4.147427	0.702593	-0.008296
1795	8.9700e-01	2.0584	-6.561482	0.000321	3.206774	0.543242	-0.006414
1796	8.9750e-01	2.0453	-6.620922	0.000594	5.943220	1.006809	-0.011888
1797	8.9800e-01	2.0352	-6.665823	0.000449	4.489483	0.760539	-0.008980
1798	8.9850e-01	2.0258	-6.700888	0.000351	3.506073	0.593945	-0.007013
1799	8.9900e-01	2.0155	-6.737236	0.000363	3.634343	0.615674	-0.007270
1800	8.9950e-01	2.0049	-6.782137	0.000449	4.489483	0.760539	-0.008980
1801	9.0000e-01	1.9974	-6.817630	0.000355	3.548829	0.601188	-0.007099
1802	9.0050e-01	1.9846	-6.877925	0.000603	6.028734	1.021295	-0.012059
1803	9.0100e-01	1.9754	-6.913845	0.000359	3.591586	0.608431	-0.007184
1804	9.0150e-01	1.9656	-6.945917	0.000321	3.206774	0.543242	-0.006414
1805	9.0200e-01	1.9569	-7.005357	0.000594	5.943220	1.006809	-0.011888
1806	9.0250e-01	1.9458	-7.048120	0.000428	4.275698	0.724323	-0.008553
1807	9.0300e-01	1.9342	-7.093448	0.000453	4.532240	0.767782	-0.009066
1808	9.0350e-01	1.9234	-7.149039	0.000556	5.558408	0.941620	-0.011118
1809	9.0400e-01	1.9178	-7.193085	0.000440	4.403969	0.746053	-0.008809
1810	9.0450e-01	1.9044	-7.216177	0.000231	2.308877	0.391134	-0.004618
1811	9.0500e-01	1.8957	-7.249959	0.000338	3.377802	0.572215	-0.006756
1812	9.0550e-01	1.8860	-7.285452	0.000355	3.548829	0.601188	-0.007099
1813	9.0600e-01	1.8742	-7.337622	0.000522	5.216352	0.883674	-0.010434
1814	9.0650e-01	1.8660	-7.403904	0.000663	6.627332	1.122700	-0.013256
1815	9.0700e-01	1.8570	-7.444528	0.000406	4.061913	0.688107	-0.008125
1816	9.0750e-01	1.8461	-7.491995	0.000475	4.746025	0.803998	-0.009493
1817	9.0800e-01	1.8344	-7.539889	0.000479	4.788782	0.811242	-0.009579
1818	9.0850e-01	1.8265	-7.583934	0.000440	4.403969	0.746053	-0.008809
1819	9.0900e-01	1.8130	-7.604460	0.000205	2.052335	0.347675	-0.004105
1820	9.0950e-01	1.8080	-7.660479	0.000560	5.601165	0.948863	-0.011204
1821	9.1000e-01	1.7944	-7.716070	0.000556	5.558408	0.941620	-0.011118
1822	9.1050e-01	1.7849	-7.737024	0.000210	2.095092	0.354918	-0.004191
1823	9.1100e-01	1.7783	-7.787056	0.000500	5.002567	0.847458	-0.010006
1824	9.1150e-01	1.7645	-7.835378	0.000483	4.831539	0.818485	-0.009664
1825	9.1200e-01	1.7537	-7.867877	0.000325	3.249531	0.550485	-0.006500
1826	9.1250e-01	1.7451	-7.914916	0.000470	4.703268	0.796755	-0.009408
1827	9.1300e-01	1.7346	-7.961100	0.000462	4.617754	0.782269	-0.009237
1828	9.1350e-01	1.7236	-8.012842	0.000517	5.173595	0.876431	-0.010349
1829	9.1400e-01	1.7116	-8.047908	0.000351	3.506073	0.593945	-0.007013
1830	9.1450e-01	1.7049	-8.084683	0.000368	3.677100	0.622918	-0.007355
1831	9.1500e-01	1.6960	-8.139419	0.000547	5.472894	0.927133	-0.010947
1832	9.1550e-01	1.6837	-8.189879	0.000505	5.045324	0.854701	-0.010092
1833	9.1600e-01	1.6747	-8.229221	0.000393	3.933642	0.666377	-0.007868
1834	9.1650e-01	1.6647	-8.275832	0.000466	4.660511	0.789512	-0.009322
1835	9.1700e-01	1.6530	-8.319450	0.000436	4.361212	0.738809	-0.008724
1836	9.1750e-01	1.6457	-8.348528	0.000291	2.907475	0.492540	-0.005816
1837	9.1800e-01	1.6368	-8.398988	0.000505	5.045324	0.854701	-0.010092
1838	9.1850e-01	1.6247	-8.457573	0.000586	5.857707	0.992322	-0.011717
1839	9.1900e-01	1.6157	-8.485796	0.000282	2.821961	0.478053	-0.005645
1840	9.1950e-01	1.6040	-8.544381	0.000586	5.857707	0.992322	-0.011717
1841	9.2000e-01	1.5936	-8.579446	0.000351	3.506073	0.593945	-0.007013
1842	9.2050e-01	1.5854	-8.634182	0.000547	5.472894	0.927133	-0.010947
1843	9.2100e-01	1.5765	-8.681221	0.000470	4.703268	0.796755	-0.009408
1844	9.2150e-01	1.5662	-8.739805	0.000586	5.857707	0.992322	-0.011717
1845	9.2200e-01	1.5526	-8.785989	0.000462	4.617754	0.782269	-0.009237
1846	9.2250e-01	1.5432	-8.833455	0.000475	4.746025	0.803998	-0.009493
1847	9.2300e-01	1.5333	-8.869376	0.000359	3.591586	0.608431	-0.007184
1848	9.2350e-01	1.5228	-8.882632	0.000133	1.325466	0.224540	-0.002651
1849	9.2400e-01	1.5155	-8.924539	0.000419	4.190184	0.709836	-0.008381
1850	9.2450e-01	1.5005	-8.994670	0.000701	7.012145	1.187890	-0.014026
1851	9.2500e-01	1.4967	-9.030163	0.000355	3.548829	0.601188	-0.007099
1852	9.2550e-01	1.4849	-9.091313	0.000611	6.114248	1.035782	-0.012230
1853	9.2600e-01	1.4740	-9.131082	0.000398	3.976399	0.673620	-0.007954
1854	9.2650e-01	1.4656	-9.157595	0.000265	2.650933	0.449080	-0.005303
1855	9.2700e-01	1.4553	-9.211904	0.000543	5.430137	0.919890	-0.010862
1856	9.2750e-01	1.4446	-9.269633	0.000577	5.772193	0.977836	-0.011546
1857	9.2800e-01	1.4323	-9.302560	0.000329	3.292288	0.557729	-0.006585
1858	9.2850e-01	1.4269	-9.347461	0.000449	4.489483	0.760539	-0.008980
1859	9.2900e-01	1.4144	-9.394500	0.000470	4.703268	0.796755	-0.009408
1860	9.2950e-01	1.4053	-9.450946	0.000564	5.643922	0.956106	-0.011289
1861	9.3000e-01	1.3940	-9.496274	0.000453	4.532240	0.767782	-0.009066
1862	9.3050e-01	1.3850	-9.543313	0.000470	4.703268	0.796755	-0.009408
1863	9.3100e-01	1.3742	-9.598477	0.000552	5.515651	0.934377	-0.011033
1864	9.3150e-01	1.3644	-9.619003	0.000205	2.052335	0.347675	-0.004105
1865	9.3200e-01	1.3541	-9.668180	0.000492	4.917053	0.832971	-0.009835
1866	9.3250e-01	1.3458	-9.710942	0.000428	4.275698	0.724323	-0.008553
1867	9.3300e-01	1.3369	-9.755415	0.000445	4.446726	0.753296	-0.008895
1868	9.3350e-01	1.3235	-9.809296	0.000539	5.387380	0.912647	-0.010776
1869	9.3400e-01	1.3175	-9.863605	0.000543	5.430137	0.919890	-0.010862
1870	9.3450e-01	1.3053	-9.895676	0.000321	3.206774	0.543242	-0.006414
1871	9.3500e-01	1.2964	-9.957682	0.000620	6.199762	1.050268	-0.012401
1872	9.3550e-01	1.2836	-10.005149	0.000475	4.746025	0.803998	-0.009493
1873	9.3600e-01	1.2743	-10.044062	0.000389	3.890885	0.659134	-0.007783
1874	9.3650e-01	1.2628	-10.093667	0.000496	4.959810	0.840215	-0.009921
1875	9.3700e-01	1.2555	-10.146265	0.000526	5.259109	0.890917	-0.010520
1876	9.3750e-01	1.2456	-10.164653	0.000184	1.838550	0.311459	-0.003678
1877	9.3800e-01	1.2376	-10.250605	0.000859	8.594153	1.455889	-0.017191
1878	9.3850e-01	1.2242	-10.272414	0.000218	2.180606	0.369405	-0.004362
1879	9.3900e-01	1.2141	-10.318170	0.000457	4.574997	0.775025	-0.009151
1880	9.3950e-01	1.2032	-10.365637	0.000475	4.746025	0.803998	-0.009493
1881	9.4000e-01	1.1954	-10.405833	0.000402	4.019156	0.680864	-0.008039
1882	9.4050e-01	1.1864	-10.449024	0.000432	4.318455	0.731566	-0.008638
1883	9.4100e-01	1.1743	-10.510174	0.000611	6.114248	1.035782	-0.012230
1884	9.4150e-01	1.1657	-10.547377	0.000372	3.719857	0.630161	-0.007441
1885	9.4200e-01	1.1543	-10.594844	0.000475	4.746025	0.803998	-0.009493
1886	9.4250e-01	1.1464	-10.644021	0.000492	4.917053	0.832971	-0.009835
1887	9.4300e-01	1.1356	-10.673527	0.000295	2.950232	0.499783	-0.005901
1888	9.4350e-01	1.1270	-10.711586	0.000381	3.805371	0.644647	-0.007612
1889	9.4400e-01	1.1128	-10.779150	0.000676	6.755603	1.144430	-0.013513
1890	9.4450e-01	1.1053	-10.830038	0.000509	5.088081	0.861944	-0.010177
1891	9.4500e-01	1.0977	-10.861254	0.000312	3.121260	0.528756	-0.006243
1892	9.4550e-01	1.0864	-10.904872	0.000436	4.361212	0.738809	-0.008724
1893	9.4600e-01	1.0774	-10.954904	0.000500	5.002567	0.847458	-0.010006
1894	9.4650e-01	1.0670	-11.020331	0.000654	6.541818	1.108214	-0.013085
1895	9.4700e-01	1.0589	-11.055396	0.000351	3.506073	0.593945	-0.007013
1896	9.4750e-01	1.0455	-11.105856	0.000505	5.045324	0.854701	-0.010092
1897	9.4800e-01	1.0342	-11.154178	0.000483	4.831539	0.818485	-0.009664
1898	9.4850e-01	1.0275	-11.178980	0.000248	2.479905	0.420107	-0.004960
1899	9.4900e-01	1.0138	-11.259373	0.000804	8.038313	1.361727	-0.016079
1900	9.4950e-01	1.0065	-11.299143	0.000398	3.976399	0.673620	-0.007954
1901	9.5000e-01	0.9968	-11.346609	0.000475	4.746025	0.803998	-0.009493
1902	9.5050e-01	0.9839	-11.415029	0.000684	6.841117	1.158917	-0.013684
1903	9.5100e-01	0.9750	-11.436838	0.000218	2.180606	0.369405	-0.004362
1904	9.5150e-01	0.9672	-11.481311	0.000445	4.446726	0.753296	-0.008895
1905	9.5200e-01	0.9573	-11.526639	0.000453	4.532240	0.767782	-0.009066
1906	9.5250e-01	0.9457	-11.596342	0.000697	6.969388	1.180646	-0.013941
1907	9.5300e-01	0.9341	-11.641243	0.000449	4.489483	0.760539	-0.008980
1908	9.5350e-01	0.9244	-11.666900	0.000257	2.565419	0.434594	-0.005132
1909	9.5400e-01	0.9168	-11.737459	0.000705	7.054902	1.195133	-0.014112
1910	9.5450e-01	0.9041	-11.782787	0.000453	4.532240	0.767782	-0.009066
1911	9.5500e-01	0.8941	-11.809727	0.000269	2.693690	0.456323	-0.005388
1912	9.5550e-01	0.8838	-11.869167	0.000594	5.943220	1.006809	-0.011888
1913	9.5600e-01	0.8790	-11.914495	0.000453	4.532240	0.767782	-0.009066
1914	9.5650e-01	0.8656	-11.977784	0.000633	6.328033	1.071998	-0.012658
1915	9.5700e-01	0.8589	-12.023540	0.000457	4.574997	0.775025	-0.009151
1916	9.5750e-01	0.8435	-12.048342	0.000248	2.479905	0.420107	-0.004960
1917	9.5800e-01	0.8380	-12.088967	0.000406	4.061913	0.688107	-0.008125
1918	9.5850e-01	0.8244	-12.138999	0.000500	5.002567	0.847458	-0.010006
1919	9.5900e-01	0.8167	-12.189031	0.000500	5.002567	0.847458	-0.010006
1920	9.5950e-01	0.8053	-12.242056	0.000530	5.301866	0.898160	-0.010605
1921	9.6000e-01	0.7942	-12.303634	0.000616	6.157005	1.043025	-0.012316
1922	9.6050e-01	0.7835	-12.360936	0.000573	5.729436	0.970593	-0.011460
1923	9.6100e-01	0.7735	-12.385311	0.000244	2.437148	0.412864	-0.004875
1924	9.6150e-01	0.7648	-12.425080	0.000398	3.976399	0.673620	-0.007954
1925	9.6200e-01	0.7570	-12.490934	0.000658	6.584575	1.115457	-0.013171
1926	9.6250e-01	0.7467	-12.541822	0.000509	5.088081	0.861944	-0.010177
1927	9.6300e-01	0.7360	-12.587578	0.000457	4.574997	0.775025	-0.009151
1928	9.6350e-01	0.7240	-12.626491	0.000389	3.890885	0.659134	-0.007783
1929	9.6400e-01	0.7151	-12.688925	0.000624	6.242519	1.057511	-0.012487
1930	9.6450e-01	0.7050	-12.730404	0.000415	4.147427	0.702593	-0.008296
1931	9.6500e-01	0.6953	-12.796686	0.000663	6.627332	1.122700	-0.013256
1932	9.6550e-01	0.6828	-12.830469	0.000338	3.377802	0.572215	-0.006756
1933	9.6600e-01	0.6718	-12.869383	0.000389	3.890885	0.659134	-0.007783
1934	9.6650e-01	0.6653	-12.921553	0.000522	5.216352	0.883674	-0.010434
1935	9.6700e-01	0.6543	-12.969019	0.000475	4.746025	0.803998	-0.009493
1936	9.6750e-01	0.6471	-13.021617	0.000526	5.259109	0.890917	-0.010520
1937	9.6800e-01	0.6358	-13.060531	0.000389	3.890885	0.659134	-0.007783
1938	9.6850e-01	0.6284	-13.119116	0.000586	5.857707	0.992322	-0.011717
1939	9.6900e-01	0.6137	-13.176845	0.000577	5.772193	0.977836	-0.011546
1940	9.6950e-01	0.6047	-13.191384	0.000145	1.453737	0.246270	-0.002908
1941	9.7000e-01	0.5963	-13.247403	0.000560	5.601165	0.948863	-0.011204
1942	9.7050e-01	0.5885	-13.292304	0.000449	4.489483	0.760539	-0.008980
1943	9.7100e-01	0.5740	-13.356875	0.000646	6.456304	1.093728	-0.012914
1944	9.7150e-01	0.5640	-13.391941	0.000351	3.506073	0.593945	-0.007013
1945	9.7200e-01	0.5545	-13.457367	0.000654	6.541818	1.108214	-0.013085
1946	9.7250e-01	0.5453	-13.527070	0.000697	6.969388	1.180646	-0.013941
1947	9.7300e-01	0.5354	-13.548452	0.000214	2.137849	0.362161	-0.004276
1948	9.7350e-01	0.5243	-13.607464	0.000590	5.900464	0.999566	-0.011802
1949	9.7400e-01	0.5173	-13.653220	0.000457	4.574997	0.775025	-0.009151
1950	9.7450e-01	0.5087	-13.709666	0.000564	5.643922	0.956106	-0.011289
1951	9.7500e-01	0.4965	-13.750718	0.000410	4.104670	0.695350	-0.008210
1952	9.7550e-01	0.4866	-13.811869	0.000611	6.114248	1.035782	-0.012230
1953	9.7600e-01	0.4745	-13.843941	0.000321	3.206774	0.543242	-0.006414
1954	9.7650e-01	0.4628	-13.883710	0.000398	3.976399	0.673620	-0.007954
1955	9.7700e-01	0.4554	-13.954268	0.000705	7.054902	1.195133	-0.014112
1956	9.7750e-01	0.4434	-14.001307	0.000470	4.703268	0.796755	-0.009408
1957	9.7800e-01	0.4367	-14.031241	0.000299	2.992989	0.507026	-0.005987
1958	9.7850e-01	0.4255	-14.095812	0.000646	6.456304	1.093728	-0.012914
1959	9.7900e-01	0.4134	-14.156962	0.000611	6.114248	1.035782	-0.012230
1960	9.7950e-01	0.4031	-14.191172	0.000342	3.420559	0.579458	-0.006842
1961	9.8000e-01	0.3970	-14.245481	0.000543	5.430137	0.919890	-0.010862
1962	9.8050e-01	0.3835	-14.277980	0.000325	3.249531	0.550485	-0.006500
1963	9.8100e-01	0.3755	-14.335710	0.000577	5.772193	0.977836	-0.011546
1964	9.8150e-01	0.3662	-14.408834	0.000731	7.311444	1.238592	-0.014625
1965	9.8200e-01	0.3551	-14.457583	0.000487	4.874296	0.825728	-0.009750
1966	9.8250e-01	0.3464	-14.488800	0.000312	3.121260	0.528756	-0.006243
1967	9.8300e-01	0.3361	-14.559358	0.000705	7.054902	1.195133	-0.014112
1968	9.8350e-01	0.3246	-14.610245	0.000509	5.088081	0.861944	-0.010177
1969	9.8400e-01	0.3146	-14.642745	0.000325	3.249531	0.550485	-0.006500
1970	9.8450e-01	0.3030	-14.679520	0.000368	3.677100	0.622918	-0.007355
1971	9.8500e-01	0.2969	-14.735112	0.000556	5.558408	0.941620	-0.011118
1972	9.8550e-01	0.2860	-14.802677	0.000676	6.755603	1.144430	-0.013513
1973	9.8600e-01	0.2759	-14.837742	0.000351	3.506073	0.593945	-0.007013
1974	9.8650e-01	0.2644	-14.902313	0.000646	6.456304	1.093728	-0.012914
1975	9.8700e-01	0.2534	-14.939089	0.000368	3.677100	0.622918	-0.007355
1976	9.8750e-01	0.2460	-14.979713	0.000406	4.061913	0.688107	-0.008125
1977	9.8800e-01	0.2345	-15.028463	0.000487	4.874296	0.825728	-0.009750
1978	9.8850e-01	0.2246	-15.095172	0.000667	6.670089	1.129944	-0.013342
1979	9.8900e-01	0.2159	-15.154184	0.000590	5.900464	0.999566	-0.011802
1980	9.8950e-01	0.2056	-15.203789	0.000496	4.959810	0.840215	-0.009921
1981	9.9000e-01	0.1942	-15.235433	0.000316	3.164017	0.535999	-0.006329
1982	9.9050e-01	0.1842	-15.308557	0.000731	7.311444	1.238592	-0.014625
1983	9.9100e-01	0.1739	-15.342767	0.000342	3.420559	0.579458	-0.006842
1984	9.9150e-01	0.1646	-15.399214	0.000564	5.643922	0.956106	-0.011289
1985	9.9200e-01	0.1571	-15.435134	0.000359	3.591586	0.608431	-0.007184
1986	9.9250e-01	0.1460	-15.498850	0.000637	6.370790	1.079241	-0.012743
1987	9.9300e-01	0.1350	-15.551876	0.000530	5.301866	0.898160	-0.010605
1988	9.9350e-01	0.1261	-15.573685	0.000218	2.180606	0.369405	-0.004362
1989	9.9400e-01	0.1147	-15.665197	0.000915	9.149994	1.550051	-0.018302
1990	9.9450e-01	0.1035	-15.704111	0.000389	3.890885	0.659134	-0.007783
1991	9.9500e-01	0.0955	-15.740886	0.000368	3.677100	0.622918	-0.007355
1992	9.9550e-01	0.0847	-15.796905	0.000560	5.601165	0.948863	-0.011204
1993	9.9600e-01	0.0740	-15.832398	0.000355	3.548829	0.601188	-0.007099
1994	9.9650e-01	0.0632	-15.902956	0.000705	7.054902	1.195133	-0.014112
1995	9.9700e-01	0.0549	-15.948285	0.000453	4.532240	0.767782	-0.009066
1996	9.9750e-01	0.0445	-16.005159	0.000569	5.686679	0.963349	-0.011375
1997	9.9800e-01	0.0381	-16.045356	0.000402	4.019156	0.680864	-0.008039
1998	9.9850e-01	0.0263	-16.082987	0.000376	3.762614	0.637404	-0.007526
1999	9.9900e-01	0.0149	-16.149696	0.000667	6.670089	1.129944	-0.013342
2000	9.9950e-01	0.0051	-16.183479	0.000338	3.377802	0.572215	-0.006756
2001	1.0000e+00	-0.0068	-16.258741	0.000338	3.377802	0.572215	-0.015052

PMax (uC/cm2):	3.64e+01
Pr (uC/cm2):	1.92e+00
-Pr (uC/cm2):	0.00e+00
PLoss (uC/cm2):	0.00e+00
C (Max-Eff) (nF):	3.64e-01
K (Eff):	6.16e+02
Vert. (+/-Pr) Shift (uC/cm2):	9.62e-01
Offset (uC/cm2):	1.82e+01

A (Loop Area - uC/cm2·Volts):	-1.36e-02



Hysteresis Version: 5.48.1 - Radiant Technologies, Inc., 1999 - 9/12/24

