»»»»»»»»»»»»»»»»»»»»»»»»»»»»»»»»»»»» Hysteresis ««««««««««««««««««««««««««««««««««««
»»»  Executed Version:	5.48.1
»»»  Vision Version:	5.48.4 (R)
»»»  Vision Compiled:	9/18/24
»»»  Driver Version:	5.47.0
»»»  Windows Version:	Windows 8 or 8.1
»»»  Processor Information:	x86 (AMD or Intel) - 32 Processors
»»»  Tester Name:	PMF21124-494 (100V)
»»»  Tester S/N:	PMF21124-494
»»»  Internal Amp Type:	100V RevK 270k
»»»  Internal Amp S/N:	iAB2-596/K     
»»»  Execution Count:	1
»»»»»»»»»»»»»»»»»»»»»»»»»»»»»»»»»»»»»»»»»»««««««««««««««««««««««««««««««««««««««««««

Stored:	6/30/2025 - 14:14:14
Configured:	06/30/25 10:19:58 AM
Executed:	06/30/25 02:13:51 PM

»»»»»»»»»»»»»»»»»»»»»»»»»»»»»»»»»»» Sample Info ««««««««««««««««««««««««««««««««««««
Sample Name:	
Lot Name:	
Wafer Name:	
Die Row/Column:	0/0
Capacitor Number:	0
Sample Area (cm2):	1.00e-04
Sample Thickness (microns):	1.50e-01

Amplifier:	Internal

»»»»»»»»»»»»»»»»»»»»»»»»»»»»»»»»»»» Tester Info «««««««««««««««««««««««««««««««««««
Tester Name:	PMF21124-494 (100V)
Tester Serial Number:	PMF21124-494
Return Signal Amp. Level:	1.79 [Index: 2]

»»»»»»»»»»»»»»»»»»»»»»»»»»»»»»»» Hysteresis Info ««««««««««««««««««««««««««««««««««
Task Name:	Hyst-1804
Volts:	10.00
Field:	666.67 (kV/cm)
DCBias:	0.00
DCField:	0.00 (kV/cm)
Hysteresis Period (ms):	1.00e+00
Preset:	Enabled
Preset Delay (ms):	1.00e+03
Profile:	Standard Monopolar

»»»»»»»»»»»»»»»»»»»»»»»»»»»»»»»»»»»»»» Data «««««««««««««««««««««««««««««««««««««««
Points:	2001

Valid Data

Point	Time (ms)	Drive Voltage	Measured Polarization (uC/cm2)	Capacitance (uF)	Normalized Capacitance (uF/cm2)	Dielectric Constant	Instantaneous Current (mA)
   1	0.0000e+00	-0.0047	-21.878592	0.000671	6.713000	1.137213	0.013427
   2	5.0000e-04	0.0063	-21.811455	0.000671	6.713000	1.137213	0.013427
   3	1.0000e-03	0.0163	-21.752870	0.000586	5.857841	0.992345	0.011717
   4	1.5000e-03	0.0277	-21.699845	0.000530	5.301987	0.898181	0.010605
   5	2.0000e-03	0.0351	-21.648102	0.000517	5.173713	0.876451	0.010349
   6	2.5000e-03	0.0449	-21.594649	0.000534	5.344745	0.905424	0.010691
   7	3.0000e-03	0.0556	-21.527084	0.000676	6.755758	1.144456	0.013513
   8	3.5000e-03	0.0650	-21.474058	0.000530	5.301987	0.898181	0.010605
   9	4.0000e-03	0.0755	-21.427875	0.000462	4.617860	0.782287	0.009237
  10	4.5000e-03	0.0850	-21.370145	0.000577	5.772325	0.977858	0.011546
  11	5.0000e-03	0.0958	-21.314554	0.000556	5.558535	0.941641	0.011118
  12	5.5000e-03	0.1068	-21.238437	0.000761	7.610917	1.289324	0.015223
  13	6.0000e-03	0.1134	-21.204227	0.000342	3.420637	0.579472	0.006842
  14	6.5000e-03	0.1263	-21.149491	0.000547	5.473019	0.927155	0.010947
  15	7.0000e-03	0.1371	-21.108866	0.000406	4.062006	0.688122	0.008125
  16	7.5000e-03	0.1439	-21.021203	0.000877	8.765382	1.484896	0.017533
  17	8.0000e-03	0.1540	-20.961336	0.000599	5.986114	1.014075	0.011974
  18	8.5000e-03	0.1641	-20.933540	0.000278	2.779267	0.470821	0.005559
  19	9.0000e-03	0.1759	-20.868113	0.000654	6.541968	1.108239	0.013085
  20	9.5000e-03	0.1865	-20.788147	0.000800	7.995739	1.354515	0.015993
  21	1.0000e-02	0.1980	-20.745385	0.000428	4.275796	0.724339	0.008553
  22	1.0500e-02	0.2077	-20.691504	0.000539	5.387503	0.912668	0.010776
  23	1.1000e-02	0.2184	-20.629926	0.000616	6.157146	1.043049	0.012316
  24	1.1500e-02	0.2275	-20.577756	0.000522	5.216471	0.883694	0.010434
  25	1.2000e-02	0.2370	-20.523875	0.000539	5.387503	0.912668	0.010776
  26	1.2500e-02	0.2441	-20.469139	0.000547	5.473019	0.927155	0.010947
  27	1.3000e-02	0.2537	-20.399436	0.000697	6.969548	1.180673	0.013941
  28	1.3500e-02	0.2631	-20.345128	0.000543	5.430261	0.919911	0.010862
  29	1.4000e-02	0.2747	-20.308352	0.000368	3.677185	0.622932	0.007355
  30	1.4500e-02	0.2854	-20.245491	0.000629	6.285420	1.064779	0.012572
  31	1.5000e-02	0.2963	-20.186906	0.000586	5.857841	0.992345	0.011717
  32	1.5500e-02	0.3060	-20.147565	0.000393	3.933732	0.666392	0.007868
  33	1.6000e-02	0.3158	-20.078290	0.000693	6.926790	1.173430	0.013855
  34	1.6500e-02	0.3279	-20.023981	0.000543	5.430261	0.919911	0.010862
  35	1.7000e-02	0.3370	-19.951285	0.000727	7.268853	1.231377	0.014539
  36	1.7500e-02	0.3484	-19.909378	0.000419	4.190280	0.709853	0.008381
  37	1.8000e-02	0.3574	-19.858918	0.000505	5.045439	0.854721	0.010092
  38	1.8500e-02	0.3693	-19.797767	0.000611	6.114388	1.035805	0.012230
  39	1.9000e-02	0.3756	-19.731058	0.000667	6.670242	1.129970	0.013342
  40	1.9500e-02	0.3880	-19.673328	0.000577	5.772325	0.977858	0.011546
  41	2.0000e-02	0.3956	-19.636553	0.000368	3.677185	0.622932	0.007355
  42	2.0500e-02	0.4063	-19.586093	0.000505	5.045439	0.854721	0.010092
  43	2.1000e-02	0.4166	-19.525798	0.000603	6.028872	1.021319	0.012059
  44	2.1500e-02	0.4251	-19.467641	0.000582	5.815083	0.985102	0.011631
  45	2.2000e-02	0.4353	-19.406063	0.000616	6.157146	1.043049	0.012316
  46	2.2500e-02	0.4434	-19.355175	0.000509	5.088197	0.861964	0.010177
  47	2.3000e-02	0.4551	-19.308992	0.000462	4.617860	0.782287	0.009237
  48	2.3500e-02	0.4659	-19.247414	0.000616	6.157146	1.043049	0.012316
  49	2.4000e-02	0.4757	-19.202941	0.000445	4.446828	0.753313	0.008895
  50	2.4500e-02	0.4861	-19.131527	0.000714	7.140579	1.209647	0.014283
  51	2.5000e-02	0.4955	-19.057976	0.000735	7.354369	1.245864	0.014710
  52	2.5500e-02	0.5074	-19.010082	0.000479	4.788892	0.811260	0.009579
  53	2.6000e-02	0.5157	-18.965181	0.000449	4.489586	0.760556	0.008980
  54	2.6500e-02	0.5258	-18.918142	0.000470	4.703376	0.796773	0.009408
  55	2.7000e-02	0.5372	-18.857419	0.000607	6.071630	1.028562	0.012145
  56	2.7500e-02	0.5482	-18.827486	0.000299	2.993057	0.507038	0.005987
  57	2.8000e-02	0.5591	-18.750513	0.000770	7.696433	1.303811	0.015395
  58	2.8500e-02	0.5650	-18.678244	0.000723	7.226095	1.224134	0.014454
  59	2.9000e-02	0.5782	-18.628212	0.000500	5.002681	0.847477	0.010006
  60	2.9500e-02	0.5850	-18.584167	0.000440	4.404070	0.746070	0.008809
  61	3.0000e-02	0.5962	-18.511898	0.000723	7.226095	1.224134	0.014454
  62	3.0500e-02	0.6094	-18.455452	0.000564	5.644051	0.956128	0.011289
  63	3.1000e-02	0.6170	-18.422097	0.000334	3.335121	0.564985	0.006671
  64	3.1500e-02	0.6282	-18.350683	0.000714	7.140579	1.209647	0.014283
  65	3.2000e-02	0.6377	-18.303645	0.000470	4.703376	0.796773	0.009408
  66	3.2500e-02	0.6480	-18.227955	0.000757	7.568159	1.282081	0.015138
  67	3.3000e-02	0.6554	-18.203580	0.000244	2.437204	0.412873	0.004875
  68	3.3500e-02	0.6657	-18.130456	0.000731	7.311611	1.238620	0.014625
  69	3.4000e-02	0.6757	-18.061181	0.000693	6.926790	1.173430	0.013855
  70	3.4500e-02	0.6854	-18.017563	0.000436	4.361312	0.738826	0.008724
  71	3.5000e-02	0.6940	-17.984636	0.000329	3.292363	0.557741	0.006585
  72	3.5500e-02	0.7089	-17.896973	0.000877	8.765382	1.484896	0.017533
  73	3.6000e-02	0.7184	-17.859770	0.000372	3.719943	0.630175	0.007441
  74	3.6500e-02	0.7255	-17.802468	0.000573	5.729567	0.970615	0.011460
  75	3.7000e-02	0.7375	-17.757567	0.000449	4.489586	0.760556	0.008980
  76	3.7500e-02	0.7468	-17.696844	0.000607	6.071630	1.028562	0.012145
  77	3.8000e-02	0.7595	-17.632273	0.000646	6.456452	1.093753	0.012914
  78	3.8500e-02	0.7670	-17.584807	0.000475	4.746134	0.804017	0.009493
  79	3.9000e-02	0.7740	-17.526222	0.000586	5.857841	0.992345	0.011717
  80	3.9500e-02	0.7884	-17.469775	0.000564	5.644051	0.956128	0.011289
  81	4.0000e-02	0.7973	-17.411191	0.000586	5.857841	0.992345	0.011717
  82	4.0500e-02	0.8067	-17.361159	0.000500	5.002681	0.847477	0.010006
  83	4.1000e-02	0.8147	-17.314547	0.000466	4.660618	0.789530	0.009322
  84	4.1500e-02	0.8285	-17.268364	0.000462	4.617860	0.782287	0.009237
  85	4.2000e-02	0.8374	-17.195668	0.000727	7.268853	1.231377	0.014539
  86	4.2500e-02	0.8443	-17.139649	0.000560	5.601293	0.948885	0.011204
  87	4.3000e-02	0.8575	-17.092610	0.000470	4.703376	0.796773	0.009408
  88	4.3500e-02	0.8621	-17.023762	0.000688	6.884032	1.166187	0.013770
  89	4.4000e-02	0.8755	-16.988697	0.000351	3.506153	0.593958	0.007013
  90	4.4500e-02	0.8871	-16.921560	0.000671	6.713000	1.137213	0.013427
  91	4.5000e-02	0.8920	-16.877514	0.000440	4.404070	0.746070	0.008809
  92	4.5500e-02	0.9070	-16.797548	0.000800	7.995739	1.354515	0.015993
  93	4.6000e-02	0.9151	-16.764621	0.000329	3.292363	0.557741	0.006585
  94	4.6500e-02	0.9302	-16.710313	0.000543	5.430261	0.919911	0.010862
  95	4.7000e-02	0.9377	-16.655149	0.000552	5.515777	0.934398	0.011033
  96	4.7500e-02	0.9456	-16.584163	0.000710	7.097821	1.202404	0.014197
  97	4.8000e-02	0.9555	-16.541828	0.000423	4.233038	0.717096	0.008467
  98	4.8500e-02	0.9694	-16.479395	0.000624	6.242662	1.057536	0.012487
  99	4.9000e-02	0.9782	-16.438343	0.000410	4.104764	0.695366	0.008210
 100	4.9500e-02	0.9843	-16.369923	0.000684	6.841274	1.158943	0.013684
 101	5.0000e-02	0.9974	-16.333575	0.000363	3.634427	0.615689	0.007270
 102	5.0500e-02	1.0067	-16.247195	0.000864	8.637108	1.463166	0.017276
 103	5.1000e-02	1.0166	-16.224958	0.000222	2.223414	0.376657	0.004447
 104	5.1500e-02	1.0260	-16.158249	0.000667	6.670242	1.129970	0.013342
 105	5.2000e-02	1.0371	-16.086408	0.000718	7.183337	1.216890	0.014368
 106	5.2500e-02	1.0451	-16.031672	0.000547	5.473019	0.927155	0.010947
 107	5.3000e-02	1.0553	-16.008152	0.000235	2.351688	0.398387	0.004704
 108	5.3500e-02	1.0652	-15.911081	0.000971	9.706057	1.644251	0.019414
 109	5.4000e-02	1.0768	-15.886279	0.000248	2.479962	0.420117	0.004960
 110	5.4500e-02	1.0866	-15.850786	0.000355	3.548911	0.601202	0.007099
 111	5.5000e-02	1.1000	-15.778945	0.000718	7.183337	1.216890	0.014368
 112	5.5500e-02	1.1037	-15.729340	0.000496	4.959923	0.840234	0.009921
 113	5.6000e-02	1.1176	-15.652796	0.000765	7.653675	1.296568	0.015309
 114	5.6500e-02	1.1261	-15.607467	0.000453	4.532344	0.767800	0.009066
 115	5.7000e-02	1.1362	-15.566843	0.000406	4.062006	0.688122	0.008125
 116	5.7500e-02	1.1477	-15.513817	0.000530	5.301987	0.898181	0.010605
 117	5.8000e-02	1.1584	-15.443259	0.000706	7.055063	1.195160	0.014112
 118	5.8500e-02	1.1678	-15.379115	0.000641	6.413694	1.086509	0.012829
 119	5.9000e-02	1.1768	-15.334642	0.000445	4.446828	0.753313	0.008895
 120	5.9500e-02	1.1871	-15.283755	0.000509	5.088197	0.861964	0.010177
 121	6.0000e-02	1.1990	-15.248690	0.000351	3.506153	0.593958	0.007013
 122	6.0500e-02	1.2089	-15.190960	0.000577	5.772325	0.977858	0.011546
 123	6.1000e-02	1.2169	-15.131520	0.000594	5.943356	1.006832	0.011888
 124	6.1500e-02	1.2257	-15.082771	0.000487	4.874407	0.825747	0.009750
 125	6.2000e-02	1.2356	-15.008792	0.000740	7.397127	1.253107	0.014796
 126	6.2500e-02	1.2456	-14.978003	0.000308	3.078573	0.521524	0.006158
 127	6.3000e-02	1.2555	-14.914287	0.000637	6.370936	1.079266	0.012743
 128	6.3500e-02	1.2669	-14.856557	0.000577	5.772325	0.977858	0.011546
 129	6.4000e-02	1.2749	-14.810374	0.000462	4.617860	0.782287	0.009237
 130	6.4500e-02	1.2870	-14.750934	0.000594	5.943356	1.006832	0.011888
 131	6.5000e-02	1.2961	-14.706888	0.000440	4.404070	0.746070	0.008809
 132	6.5500e-02	1.3083	-14.644455	0.000624	6.242662	1.057536	0.012487
 133	6.6000e-02	1.3156	-14.585443	0.000590	5.900599	0.999588	0.011802
 134	6.6500e-02	1.3259	-14.551660	0.000338	3.377879	0.572228	0.006756
 135	6.7000e-02	1.3345	-14.495214	0.000564	5.644051	0.956128	0.011289
 136	6.7500e-02	1.3461	-14.446892	0.000483	4.831650	0.818504	0.009664
 137	6.8000e-02	1.3574	-14.372913	0.000740	7.397127	1.253107	0.014796
 138	6.8500e-02	1.3648	-14.338703	0.000342	3.420637	0.579472	0.006842
 139	6.9000e-02	1.3754	-14.286960	0.000517	5.173713	0.876451	0.010349
 140	6.9500e-02	1.3861	-14.222817	0.000641	6.413694	1.086509	0.012829
 141	7.0000e-02	1.3952	-14.187324	0.000355	3.548911	0.601202	0.007099
 142	7.0500e-02	1.4055	-14.116766	0.000706	7.055063	1.195160	0.014112
 143	7.1000e-02	1.4166	-14.065023	0.000517	5.173713	0.876451	0.010349
 144	7.1500e-02	1.4252	-14.011142	0.000539	5.387503	0.912668	0.010776
 145	7.2000e-02	1.4349	-13.958117	0.000530	5.301987	0.898181	0.010605
 146	7.2500e-02	1.4458	-13.910223	0.000479	4.788892	0.811260	0.009579
 147	7.3000e-02	1.4558	-13.852493	0.000577	5.772325	0.977858	0.011546
 148	7.3500e-02	1.4645	-13.790915	0.000616	6.157146	1.043049	0.012316
 149	7.4000e-02	1.4798	-13.735324	0.000556	5.558535	0.941641	0.011118
 150	7.4500e-02	1.4847	-13.680160	0.000552	5.515777	0.934398	0.011033
 151	7.5000e-02	1.4949	-13.639536	0.000406	4.062006	0.688122	0.008125
 152	7.5500e-02	1.5106	-13.578813	0.000607	6.071630	1.028562	0.012145
 153	7.6000e-02	1.5168	-13.535623	0.000432	4.318554	0.731583	0.008638
 154	7.6500e-02	1.5265	-13.476183	0.000594	5.943356	1.006832	0.011888
 155	7.7000e-02	1.5364	-13.433848	0.000423	4.233038	0.717096	0.008467
 156	7.7500e-02	1.5475	-13.373980	0.000599	5.986114	1.014075	0.011974
 157	7.8000e-02	1.5558	-13.320100	0.000539	5.387503	0.912668	0.010776
 158	7.8500e-02	1.5640	-13.281186	0.000389	3.890974	0.659149	0.007783
 159	7.9000e-02	1.5801	-13.216187	0.000650	6.499210	1.100996	0.013000
 160	7.9500e-02	1.5868	-13.150760	0.000654	6.541968	1.108239	0.013085
 161	8.0000e-02	1.5955	-13.113129	0.000376	3.762701	0.637419	0.007526
 162	8.0500e-02	1.6090	-13.068656	0.000445	4.446828	0.753313	0.008895
 163	8.1000e-02	1.6148	-13.016486	0.000522	5.216471	0.883694	0.010434
 164	8.1500e-02	1.6267	-12.951059	0.000654	6.541968	1.108239	0.013085
 165	8.2000e-02	1.6376	-12.885205	0.000658	6.584726	1.115483	0.013171
 166	8.2500e-02	1.6467	-12.837311	0.000479	4.788892	0.811260	0.009579
 167	8.3000e-02	1.6560	-12.774022	0.000633	6.328178	1.072022	0.012658
 168	8.3500e-02	1.6663	-12.736391	0.000376	3.762701	0.637419	0.007526
 169	8.4000e-02	1.6763	-12.690635	0.000458	4.575102	0.775043	0.009151
 170	8.4500e-02	1.6858	-12.647017	0.000436	4.361312	0.738826	0.008724
 171	8.5000e-02	1.6975	-12.571328	0.000757	7.568159	1.282081	0.015138
 172	8.5500e-02	1.7079	-12.525144	0.000462	4.617860	0.782287	0.009237
 173	8.6000e-02	1.7181	-12.473402	0.000517	5.173713	0.876451	0.010349
 174	8.6500e-02	1.7249	-12.429356	0.000440	4.404070	0.746070	0.008809
 175	8.7000e-02	1.7342	-12.385738	0.000436	4.361312	0.738826	0.008724
 176	8.7500e-02	1.7424	-12.313897	0.000718	7.183337	1.216890	0.014368
 177	8.8000e-02	1.7585	-12.263010	0.000509	5.088197	0.861964	0.010177
 178	8.8500e-02	1.7659	-12.215544	0.000475	4.746134	0.804017	0.009493
 179	8.9000e-02	1.7737	-12.150972	0.000646	6.456452	1.093753	0.012914
 180	8.9500e-02	1.7865	-12.111631	0.000393	3.933732	0.666392	0.007868
 181	9.0000e-02	1.7960	-12.055184	0.000564	5.644051	0.956128	0.011289
 182	9.0500e-02	1.8039	-12.019691	0.000355	3.548911	0.601202	0.007099
 183	9.1000e-02	1.8152	-11.959396	0.000603	6.028872	1.021319	0.012059
 184	9.1500e-02	1.8254	-11.890976	0.000684	6.841274	1.158943	0.013684
 185	9.2000e-02	1.8375	-11.858904	0.000321	3.206847	0.543255	0.006414
 186	9.2500e-02	1.8475	-11.787491	0.000714	7.140579	1.209647	0.014283
 187	9.3000e-02	1.8576	-11.739597	0.000479	4.788892	0.811260	0.009579
 188	9.3500e-02	1.8678	-11.686571	0.000530	5.301987	0.898181	0.010605
 189	9.4000e-02	1.8769	-11.643809	0.000428	4.275796	0.724339	0.008553
 190	9.4500e-02	1.8873	-11.595915	0.000479	4.788892	0.811260	0.009579
 191	9.5000e-02	1.8983	-11.547165	0.000487	4.874407	0.825747	0.009750
 192	9.5500e-02	1.9049	-11.486870	0.000603	6.028872	1.021319	0.012059
 193	9.6000e-02	1.9168	-11.452660	0.000342	3.420637	0.579472	0.006842
 194	9.6500e-02	1.9264	-11.398352	0.000543	5.430261	0.919911	0.010862
 195	9.7000e-02	1.9363	-11.350030	0.000483	4.831650	0.818504	0.009664
 196	9.7500e-02	1.9463	-11.261939	0.000881	8.808140	1.492139	0.017618
 197	9.8000e-02	1.9566	-11.237565	0.000244	2.437204	0.412873	0.004875
 198	9.8500e-02	1.9690	-11.181973	0.000556	5.558535	0.941641	0.011118
 199	9.9000e-02	1.9768	-11.130658	0.000513	5.130955	0.869207	0.010263
 200	9.9500e-02	1.9872	-11.090461	0.000402	4.019248	0.680879	0.008039
 201	1.0000e-01	1.9975	-11.019476	0.000710	7.097821	1.202404	0.014197
 202	1.0050e-01	2.0056	-10.965595	0.000539	5.387503	0.912668	0.010776
 203	1.0100e-01	2.0142	-10.909148	0.000564	5.644051	0.956128	0.011289
 204	1.0150e-01	2.0276	-10.869379	0.000398	3.976490	0.673636	0.007954
 205	1.0200e-01	2.0348	-10.809939	0.000594	5.943356	1.006832	0.011888
 206	1.0250e-01	2.0467	-10.755203	0.000547	5.473019	0.927155	0.010947
 207	1.0300e-01	2.0581	-10.721849	0.000334	3.335121	0.564985	0.006671
 208	1.0350e-01	2.0656	-10.671389	0.000505	5.045439	0.854721	0.010092
 209	1.0400e-01	2.0792	-10.627343	0.000440	4.404070	0.746070	0.008809
 210	1.0450e-01	2.0862	-10.590995	0.000363	3.634427	0.615689	0.007270
 211	1.0500e-01	2.0999	-10.520437	0.000706	7.055063	1.195160	0.014112
 212	1.0550e-01	2.1046	-10.453300	0.000671	6.713000	1.137213	0.013427
 213	1.0600e-01	2.1157	-10.419517	0.000338	3.377879	0.572228	0.006756
 214	1.0650e-01	2.1262	-10.360505	0.000590	5.900599	0.999588	0.011802
 215	1.0700e-01	2.1356	-10.310473	0.000500	5.002681	0.847477	0.010006
 216	1.0750e-01	2.1461	-10.245046	0.000654	6.541968	1.108239	0.013085
 217	1.0800e-01	2.1558	-10.213830	0.000312	3.121331	0.528768	0.006243
 218	1.0850e-01	2.1652	-10.162942	0.000509	5.088197	0.861964	0.010177
 219	1.0900e-01	2.1780	-10.105213	0.000577	5.772325	0.977858	0.011546
 220	1.0950e-01	2.1875	-10.041924	0.000633	6.328178	1.072022	0.012658
 221	1.1000e-01	2.1976	-9.997024	0.000449	4.489586	0.760556	0.008980
 222	1.1050e-01	2.2064	-9.961103	0.000359	3.591669	0.608445	0.007184
 223	1.1100e-01	2.2156	-9.911926	0.000492	4.917165	0.832990	0.009835
 224	1.1150e-01	2.2242	-9.837519	0.000744	7.439885	1.260351	0.014881
 225	1.1200e-01	2.2360	-9.817421	0.000201	2.009624	0.340440	0.004020
 226	1.1250e-01	2.2449	-9.756698	0.000607	6.071630	1.028562	0.012145
 227	1.1300e-01	2.2562	-9.713936	0.000428	4.275796	0.724339	0.008553
 228	1.1350e-01	2.2665	-9.648081	0.000658	6.584726	1.115483	0.013171
 229	1.1400e-01	2.2773	-9.593773	0.000543	5.430261	0.919911	0.010862
 230	1.1450e-01	2.2871	-9.548017	0.000458	4.575102	0.775043	0.009151
 231	1.1500e-01	2.2949	-9.495419	0.000526	5.259229	0.890938	0.010520
 232	1.1550e-01	2.3093	-9.450091	0.000453	4.532344	0.767800	0.009066
 233	1.1600e-01	2.3151	-9.376112	0.000740	7.397127	1.253107	0.014796
 234	1.1650e-01	2.3267	-9.344040	0.000321	3.206847	0.543255	0.006414
 235	1.1700e-01	2.3383	-9.304271	0.000398	3.976490	0.673636	0.007954
 236	1.1750e-01	2.3456	-9.255949	0.000483	4.831650	0.818504	0.009664
 237	1.1800e-01	2.3582	-9.182398	0.000735	7.354369	1.245864	0.014710
 238	1.1850e-01	2.3648	-9.132365	0.000500	5.002681	0.847477	0.010006
 239	1.1900e-01	2.3776	-9.107135	0.000252	2.522720	0.427360	0.005046
 240	1.1950e-01	2.3866	-9.026742	0.000804	8.038497	1.361758	0.016079
 241	1.2000e-01	2.3967	-8.983124	0.000436	4.361312	0.738826	0.008724
 242	1.2050e-01	2.4057	-8.946776	0.000363	3.634427	0.615689	0.007270
 243	1.2100e-01	2.4173	-8.905724	0.000410	4.104764	0.695366	0.008210
 244	1.2150e-01	2.4280	-8.834311	0.000714	7.140579	1.209647	0.014283
 245	1.2200e-01	2.4384	-8.791976	0.000423	4.233038	0.717096	0.008467
 246	1.2250e-01	2.4450	-8.736384	0.000556	5.558535	0.941641	0.011118
 247	1.2300e-01	2.4557	-8.671385	0.000650	6.499210	1.100996	0.013000
 248	1.2350e-01	2.4658	-8.634182	0.000372	3.719943	0.630175	0.007441
 249	1.2400e-01	2.4776	-8.562768	0.000714	7.140579	1.209647	0.014283
 250	1.2450e-01	2.4857	-8.528558	0.000342	3.420637	0.579472	0.006842
 251	1.2500e-01	2.4958	-8.498197	0.000304	3.035815	0.514281	0.006072
 252	1.2550e-01	2.5037	-8.455435	0.000428	4.275796	0.724339	0.008553
 253	1.2600e-01	2.5169	-8.393857	0.000616	6.157146	1.043049	0.012316
 254	1.2650e-01	2.5288	-8.337838	0.000560	5.601293	0.948885	0.011204
 255	1.2700e-01	2.5371	-8.287805	0.000500	5.002681	0.847477	0.010006
 256	1.2750e-01	2.5459	-8.245898	0.000419	4.190280	0.709853	0.008381
 257	1.2800e-01	2.5589	-8.190307	0.000556	5.558535	0.941641	0.011118
 258	1.2850e-01	2.5653	-8.143696	0.000466	4.660618	0.789530	0.009322
 259	1.2900e-01	2.5758	-8.096657	0.000470	4.703376	0.796773	0.009408
 260	1.2950e-01	2.5864	-8.058598	0.000381	3.805458	0.644662	0.007612
 261	1.3000e-01	2.5946	-7.992744	0.000658	6.584726	1.115483	0.013171
 262	1.3050e-01	2.6044	-7.942712	0.000500	5.002681	0.847477	0.010006
 263	1.3100e-01	2.6160	-7.890114	0.000526	5.259229	0.890938	0.010520
 264	1.3150e-01	2.6253	-7.845213	0.000449	4.489586	0.760556	0.008980
 265	1.3200e-01	2.6367	-7.804589	0.000406	4.062006	0.688122	0.008125
 266	1.3250e-01	2.6471	-7.772089	0.000325	3.249605	0.550498	0.006500
 267	1.3300e-01	2.6575	-7.712649	0.000594	5.943356	1.006832	0.011888
 268	1.3350e-01	2.6675	-7.659196	0.000534	5.344745	0.905424	0.010691
 269	1.3400e-01	2.6767	-7.612158	0.000470	4.703376	0.796773	0.009408
 270	1.3450e-01	2.6863	-7.547158	0.000650	6.499210	1.100996	0.013000
 271	1.3500e-01	2.6962	-7.503541	0.000436	4.361312	0.738826	0.008724
 272	1.3550e-01	2.7058	-7.448805	0.000547	5.473019	0.927155	0.010947
 273	1.3600e-01	2.7156	-7.417588	0.000312	3.121331	0.528768	0.006243
 274	1.3650e-01	2.7263	-7.360714	0.000569	5.686809	0.963371	0.011375
 275	1.3700e-01	2.7376	-7.291011	0.000697	6.969548	1.180673	0.013941
 276	1.3750e-01	2.7446	-7.270913	0.000201	2.009624	0.340440	0.004020
 277	1.3800e-01	2.7541	-7.220025	0.000509	5.088197	0.861964	0.010177
 278	1.3850e-01	2.7667	-7.172986	0.000470	4.703376	0.796773	0.009408
 279	1.3900e-01	2.7759	-7.117823	0.000552	5.515777	0.934398	0.011033
 280	1.3950e-01	2.7869	-7.049403	0.000684	6.841274	1.158943	0.013684
 281	1.4000e-01	2.7969	-7.026311	0.000231	2.308930	0.391143	0.004618
 282	1.4050e-01	2.8088	-6.973285	0.000530	5.301987	0.898181	0.010605
 283	1.4100e-01	2.8189	-6.915128	0.000582	5.815083	0.985102	0.011631
 284	1.4150e-01	2.8257	-6.879208	0.000359	3.591669	0.608445	0.007184
 285	1.4200e-01	2.8377	-6.816347	0.000629	6.285420	1.064779	0.012572
 286	1.4250e-01	2.8470	-6.770163	0.000462	4.617860	0.782287	0.009237
 287	1.4300e-01	2.8566	-6.744933	0.000252	2.522720	0.427360	0.005046
 288	1.4350e-01	2.8699	-6.682073	0.000629	6.285420	1.064779	0.012572
 289	1.4400e-01	2.8760	-6.636744	0.000453	4.532344	0.767800	0.009066
 290	1.4450e-01	2.8882	-6.571745	0.000650	6.499210	1.100996	0.013000
 291	1.4500e-01	2.8979	-6.521713	0.000500	5.002681	0.847477	0.010006
 292	1.4550e-01	2.9071	-6.499049	0.000227	2.266172	0.383900	0.004533
 293	1.4600e-01	2.9172	-6.437043	0.000620	6.199904	1.050292	0.012401
 294	1.4650e-01	2.9291	-6.407537	0.000295	2.950299	0.499794	0.005901
 295	1.4700e-01	2.9376	-6.335696	0.000718	7.183337	1.216890	0.014368
 296	1.4750e-01	2.9469	-6.277111	0.000586	5.857841	0.992345	0.011717
 297	1.4800e-01	2.9579	-6.253592	0.000235	2.351688	0.398387	0.004704
 298	1.4850e-01	2.9654	-6.212540	0.000410	4.104764	0.695366	0.008210
 299	1.4900e-01	2.9761	-6.159942	0.000526	5.259229	0.890938	0.010520
 300	1.4950e-01	2.9872	-6.112903	0.000470	4.703376	0.796773	0.009408
 301	1.5000e-01	2.9956	-6.050470	0.000624	6.242662	1.057536	0.012487
 302	1.5050e-01	3.0035	-5.997444	0.000530	5.301987	0.898181	0.010605
 303	1.5100e-01	3.0148	-5.945702	0.000517	5.173713	0.876451	0.010349
 304	1.5150e-01	3.0252	-5.910637	0.000351	3.506153	0.593958	0.007013
 305	1.5200e-01	3.0386	-5.853335	0.000573	5.729567	0.970615	0.011460
 306	1.5250e-01	3.0452	-5.806724	0.000466	4.660618	0.789530	0.009322
 307	1.5300e-01	3.0574	-5.758402	0.000483	4.831650	0.818504	0.009664
 308	1.5350e-01	3.0667	-5.700245	0.000582	5.815083	0.985102	0.011631
 309	1.5400e-01	3.0766	-5.667318	0.000329	3.292363	0.557741	0.006585
 310	1.5450e-01	3.0881	-5.619851	0.000475	4.746134	0.804017	0.009493
 311	1.5500e-01	3.0981	-5.559556	0.000603	6.028872	1.021319	0.012059
 312	1.5550e-01	3.1055	-5.514228	0.000453	4.532344	0.767800	0.009066
 313	1.5600e-01	3.1165	-5.475314	0.000389	3.890974	0.659149	0.007783
 314	1.5650e-01	3.1257	-5.436828	0.000385	3.848216	0.651906	0.007697
 315	1.5700e-01	3.1369	-5.370973	0.000658	6.584726	1.115483	0.013171
 316	1.5750e-01	3.1462	-5.341040	0.000299	2.993057	0.507038	0.005987
 317	1.5800e-01	3.1584	-5.304692	0.000363	3.634427	0.615689	0.007270
 318	1.5850e-01	3.1646	-5.243541	0.000611	6.114388	1.035805	0.012230
 319	1.5900e-01	3.1754	-5.209331	0.000342	3.420637	0.579472	0.006842
 320	1.5950e-01	3.1838	-5.140911	0.000684	6.841274	1.158943	0.013684
 321	1.6000e-01	3.1970	-5.105418	0.000355	3.548911	0.601202	0.007099
 322	1.6050e-01	3.2047	-5.055814	0.000496	4.959923	0.840234	0.009921
 323	1.6100e-01	3.2162	-4.988676	0.000671	6.713000	1.137213	0.013427
 324	1.6150e-01	3.2257	-4.948480	0.000402	4.019248	0.680879	0.008039
 325	1.6200e-01	3.2367	-4.904434	0.000440	4.404070	0.746070	0.008809
 326	1.6250e-01	3.2452	-4.877066	0.000274	2.736509	0.463577	0.005474
 327	1.6300e-01	3.2556	-4.800949	0.000761	7.610917	1.289324	0.015223
 328	1.6350e-01	3.2670	-4.757759	0.000432	4.318554	0.731583	0.008638
 329	1.6400e-01	3.2767	-4.729536	0.000282	2.822025	0.478064	0.005645
 330	1.6450e-01	3.2849	-4.661543	0.000680	6.798516	1.151700	0.013598
 331	1.6500e-01	3.2990	-4.624340	0.000372	3.719943	0.630175	0.007441
 332	1.6550e-01	3.3057	-4.558058	0.000663	6.627484	1.122726	0.013256
 333	1.6600e-01	3.3179	-4.527696	0.000304	3.035815	0.514281	0.006072
 334	1.6650e-01	3.3261	-4.477237	0.000505	5.045439	0.854721	0.010092
 335	1.6700e-01	3.3350	-4.454572	0.000227	2.266172	0.383900	0.004533
 336	1.6750e-01	3.3450	-4.390001	0.000646	6.456452	1.093753	0.012914
 337	1.6800e-01	3.3572	-4.330134	0.000599	5.986114	1.014075	0.011974
 338	1.6850e-01	3.3643	-4.302338	0.000278	2.779267	0.470821	0.005559
 339	1.6900e-01	3.3759	-4.268555	0.000338	3.377879	0.572228	0.006756
 340	1.6950e-01	3.3875	-4.176616	0.000919	9.192961	1.557330	0.018388
 341	1.7000e-01	3.3955	-4.164643	0.000120	1.197223	0.202815	0.002395
 342	1.7050e-01	3.4073	-4.097078	0.000676	6.755758	1.144456	0.013513
 343	1.7100e-01	3.4167	-4.052605	0.000445	4.446828	0.753313	0.008895
 344	1.7150e-01	3.4273	-3.998724	0.000539	5.387503	0.912668	0.010776
 345	1.7200e-01	3.4351	-3.948264	0.000505	5.045439	0.854721	0.010092
 346	1.7250e-01	3.4479	-3.924317	0.000239	2.394446	0.405630	0.004789
 347	1.7300e-01	3.4550	-3.857608	0.000667	6.670242	1.129970	0.013342
 348	1.7350e-01	3.4668	-3.826819	0.000308	3.078573	0.521524	0.006158
 349	1.7400e-01	3.4753	-3.774648	0.000522	5.216471	0.883694	0.010434
 350	1.7450e-01	3.4888	-3.739583	0.000351	3.506153	0.593958	0.007013
 351	1.7500e-01	3.4973	-3.681854	0.000577	5.772325	0.977858	0.011546
 352	1.7550e-01	3.5071	-3.617282	0.000646	6.456452	1.093753	0.012914
 353	1.7600e-01	3.5181	-3.616427	0.000009	0.085516	0.014487	0.000171
 354	1.7650e-01	3.5291	-3.562546	0.000539	5.387503	0.912668	0.010776
 355	1.7700e-01	3.5367	-3.509093	0.000534	5.344745	0.905424	0.010691
 356	1.7750e-01	3.5468	-3.464192	0.000449	4.489586	0.760556	0.008980
 357	1.7800e-01	3.5562	-3.408173	0.000560	5.601293	0.948885	0.011204
 358	1.7850e-01	3.5660	-3.369687	0.000385	3.848216	0.651906	0.007697
 359	1.7900e-01	3.5764	-3.305543	0.000641	6.413694	1.086509	0.012829
 360	1.7950e-01	3.5877	-3.281596	0.000239	2.394446	0.405630	0.004789
 361	1.8000e-01	3.5938	-3.218735	0.000629	6.285420	1.064779	0.012572
 362	1.8050e-01	3.6093	-3.153309	0.000654	6.541968	1.108239	0.013085
 363	1.8100e-01	3.6154	-3.118671	0.000346	3.463395	0.586715	0.006928
 364	1.8150e-01	3.6292	-3.093441	0.000252	2.522720	0.427360	0.005046
 365	1.8200e-01	3.6331	-3.050679	0.000428	4.275796	0.724339	0.008553
 366	1.8250e-01	3.6459	-3.000219	0.000505	5.045439	0.854721	0.010092
 367	1.8300e-01	3.6568	-2.933937	0.000663	6.627484	1.122726	0.013256
 368	1.8350e-01	3.6659	-2.895023	0.000389	3.890974	0.659149	0.007783
 369	1.8400e-01	3.6768	-2.858247	0.000368	3.677185	0.622932	0.007355
 370	1.8450e-01	3.6871	-2.818906	0.000393	3.933732	0.666392	0.007868
 371	1.8500e-01	3.6987	-2.770584	0.000483	4.831650	0.818504	0.009664
 372	1.8550e-01	3.7093	-2.718841	0.000517	5.173713	0.876451	0.010349
 373	1.8600e-01	3.7170	-2.670092	0.000487	4.874407	0.825747	0.009750
 374	1.8650e-01	3.7260	-2.608087	0.000620	6.199904	1.050292	0.012401
 375	1.8700e-01	3.7379	-2.575159	0.000329	3.292363	0.557741	0.006585
 376	1.8750e-01	3.7457	-2.525555	0.000496	4.959923	0.840234	0.009921
 377	1.8800e-01	3.7576	-2.486641	0.000389	3.890974	0.659149	0.007783
 378	1.8850e-01	3.7648	-2.443878	0.000428	4.275796	0.724339	0.008553
 379	1.8900e-01	3.7762	-2.386577	0.000573	5.729567	0.970615	0.011460
 380	1.8950e-01	3.7897	-2.372037	0.000145	1.453771	0.246275	0.002908
 381	1.9000e-01	3.7962	-2.301907	0.000701	7.012306	1.187917	0.014026
 382	1.9050e-01	3.8035	-2.251019	0.000509	5.088197	0.861964	0.010177
 383	1.9100e-01	3.8138	-2.222796	0.000282	2.822025	0.478064	0.005645
 384	1.9150e-01	3.8275	-2.171909	0.000509	5.088197	0.861964	0.010177
 385	1.9200e-01	3.8379	-2.141975	0.000299	2.993057	0.507038	0.005987
 386	1.9250e-01	3.8478	-2.087667	0.000543	5.430261	0.919911	0.010862
 387	1.9300e-01	3.8571	-2.028654	0.000590	5.900599	0.999588	0.011802
 388	1.9350e-01	3.8663	-1.970497	0.000582	5.815083	0.985102	0.011631
 389	1.9400e-01	3.8785	-1.933721	0.000368	3.677185	0.622932	0.007355
 390	1.9450e-01	3.8852	-1.914906	0.000188	1.881350	0.318709	0.003763
 391	1.9500e-01	3.8959	-1.864019	0.000509	5.088197	0.861964	0.010177
 392	1.9550e-01	3.9059	-1.810565	0.000534	5.344745	0.905424	0.010691
 393	1.9600e-01	3.9160	-1.745139	0.000654	6.541968	1.108239	0.013085
 394	1.9650e-01	3.9267	-1.728889	0.000162	1.624802	0.275249	0.003250
 395	1.9700e-01	3.9380	-1.662179	0.000667	6.670242	1.129970	0.013342
 396	1.9750e-01	3.9484	-1.622410	0.000398	3.976490	0.673636	0.007954
 397	1.9800e-01	3.9539	-1.598463	0.000239	2.394446	0.405630	0.004789
 398	1.9850e-01	3.9664	-1.537313	0.000611	6.114388	1.035805	0.012230
 399	1.9900e-01	3.9728	-1.512511	0.000248	2.479962	0.420117	0.004960
 400	1.9950e-01	3.9862	-1.456919	0.000556	5.558535	0.941641	0.011118
 401	2.0000e-01	3.9960	-1.431262	0.000257	2.565478	0.434604	0.005132
 402	2.0050e-01	4.0070	-1.360276	0.000710	7.097821	1.202404	0.014197
 403	2.0100e-01	4.0192	-1.302119	0.000582	5.815083	0.985102	0.011631
 404	2.0150e-01	4.0256	-1.259784	0.000423	4.233038	0.717096	0.008467
 405	2.0200e-01	4.0341	-1.231133	0.000286	2.864783	0.485307	0.005730
 406	2.0250e-01	4.0448	-1.166989	0.000641	6.413694	1.086509	0.012829
 407	2.0300e-01	4.0582	-1.148601	0.000184	1.838592	0.311466	0.003678
 408	2.0350e-01	4.0675	-1.077616	0.000710	7.097821	1.202404	0.014197
 409	2.0400e-01	4.0759	-1.058373	0.000192	1.924108	0.325953	0.003849
 410	2.0450e-01	4.0857	-1.007485	0.000509	5.088197	0.861964	0.010177
 411	2.0500e-01	4.0964	-0.960019	0.000475	4.746134	0.804017	0.009493
 412	2.0550e-01	4.1078	-0.917256	0.000428	4.275796	0.724339	0.008553
 413	2.0600e-01	4.1174	-0.878342	0.000389	3.890974	0.659149	0.007783
 414	2.0650e-01	4.1260	-0.830021	0.000483	4.831650	0.818504	0.009664
 415	2.0700e-01	4.1364	-0.785975	0.000440	4.404070	0.746070	0.008809
 416	2.0750e-01	4.1483	-0.747917	0.000381	3.805458	0.644662	0.007612
 417	2.0800e-01	4.1571	-0.685483	0.000624	6.242662	1.057536	0.012487
 418	2.0850e-01	4.1693	-0.640583	0.000449	4.489586	0.760556	0.008980
 419	2.0900e-01	4.1779	-0.594399	0.000462	4.617860	0.782287	0.009237
 420	2.0950e-01	4.1884	-0.576866	0.000175	1.753076	0.296979	0.003507
 421	2.1000e-01	4.1956	-0.513150	0.000637	6.370936	1.079266	0.012743
 422	2.1050e-01	4.2047	-0.482789	0.000304	3.035815	0.514281	0.006072
 423	2.1100e-01	4.2145	-0.428481	0.000543	5.430261	0.919911	0.010862
 424	2.1150e-01	4.2277	-0.366475	0.000620	6.199904	1.050292	0.012401
 425	2.1200e-01	4.2371	-0.344666	0.000218	2.180656	0.369413	0.004362
 426	2.1250e-01	4.2456	-0.287364	0.000573	5.729567	0.970615	0.011460
 427	2.1300e-01	4.2560	-0.237760	0.000496	4.959923	0.840234	0.009921
 428	2.1350e-01	4.2651	-0.187300	0.000505	5.045439	0.854721	0.010092
 429	2.1400e-01	4.2761	-0.166346	0.000210	2.095140	0.354926	0.004191
 430	2.1450e-01	4.2859	-0.112465	0.000539	5.387503	0.912668	0.010776
 431	2.1500e-01	4.2981	-0.061150	0.000513	5.130955	0.869207	0.010263
 432	2.1550e-01	4.3079	-0.031217	0.000299	2.993057	0.507038	0.005987
 433	2.1600e-01	4.3166	0.001283	0.000325	3.249605	0.550498	0.006500
 434	2.1650e-01	4.3256	0.055591	0.000543	5.430261	0.919911	0.010862
 435	2.1700e-01	4.3372	0.094933	0.000393	3.933732	0.666392	0.007868
 436	2.1750e-01	4.3477	0.147531	0.000526	5.259229	0.890938	0.010520
 437	2.1800e-01	4.3581	0.174471	0.000269	2.693752	0.456334	0.005388
 438	2.1850e-01	4.3658	0.248023	0.000735	7.354369	1.245864	0.014710
 439	2.1900e-01	4.3814	0.287792	0.000398	3.976490	0.673636	0.007954
 440	2.1950e-01	4.3863	0.307035	0.000192	1.924108	0.325953	0.003849
 441	2.2000e-01	4.3973	0.358778	0.000517	5.173713	0.876451	0.010349
 442	2.2050e-01	4.4077	0.398119	0.000393	3.933732	0.666392	0.007868
 443	2.2100e-01	4.4174	0.456276	0.000582	5.815083	0.985102	0.011631
 444	2.2150e-01	4.4269	0.481078	0.000248	2.479962	0.420117	0.004960
 445	2.2200e-01	4.4402	0.543512	0.000624	6.242662	1.057536	0.012487
 446	2.2250e-01	4.4470	0.578149	0.000346	3.463395	0.586715	0.006928
 447	2.2300e-01	4.4562	0.617491	0.000393	3.933732	0.666392	0.007868
 448	2.2350e-01	4.4708	0.663674	0.000462	4.617860	0.782287	0.009237
 449	2.2400e-01	4.4781	0.710713	0.000470	4.703376	0.796773	0.009408
 450	2.2450e-01	4.4885	0.752193	0.000415	4.147522	0.702609	0.008296
 451	2.2500e-01	4.4984	0.784692	0.000325	3.249605	0.550498	0.006500
 452	2.2550e-01	4.5053	0.839001	0.000543	5.430261	0.919911	0.010862
 453	2.2600e-01	4.5186	0.888605	0.000496	4.959923	0.840234	0.009921
 454	2.2650e-01	4.5270	0.910414	0.000218	2.180656	0.369413	0.004362
 455	2.2700e-01	4.5374	0.962157	0.000517	5.173713	0.876451	0.010349
 456	2.2750e-01	4.5497	1.010051	0.000479	4.788892	0.811260	0.009579
 457	2.2800e-01	4.5575	1.054524	0.000445	4.446828	0.753313	0.008895
 458	2.2850e-01	4.5676	1.082747	0.000282	2.822025	0.478064	0.005645
 459	2.2900e-01	4.5782	1.133635	0.000509	5.088197	0.861964	0.010177
 460	2.2950e-01	4.5856	1.172976	0.000393	3.933732	0.666392	0.007868
 461	2.3000e-01	4.5972	1.211890	0.000389	3.890974	0.659149	0.007783
 462	2.3050e-01	4.6066	1.278600	0.000667	6.670242	1.129970	0.013342
 463	2.3100e-01	4.6185	1.320934	0.000423	4.233038	0.717096	0.008467
 464	2.3150e-01	4.6243	1.361986	0.000410	4.104764	0.695366	0.008210
 465	2.3200e-01	4.6400	1.386361	0.000244	2.437204	0.412873	0.004875
 466	2.3250e-01	4.6454	1.444091	0.000577	5.772325	0.977858	0.011546
 467	2.3300e-01	4.6579	1.478728	0.000346	3.463395	0.586715	0.006928
 468	2.3350e-01	4.6649	1.518070	0.000393	3.933732	0.666392	0.007868
 469	2.3400e-01	4.6753	1.589483	0.000714	7.140579	1.209647	0.014283
 470	2.3450e-01	4.6869	1.618989	0.000295	2.950299	0.499794	0.005901
 471	2.3500e-01	4.6979	1.652772	0.000338	3.377879	0.572228	0.006756
 472	2.3550e-01	4.7021	1.685699	0.000329	3.292363	0.557741	0.006585
 473	2.3600e-01	4.7150	1.710929	0.000252	2.522720	0.427360	0.005046
 474	2.3650e-01	4.7260	1.787046	0.000761	7.610917	1.289324	0.015223
 475	2.3700e-01	4.7385	1.799875	0.000128	1.282739	0.217302	0.002566
 476	2.3750e-01	4.7458	1.884545	0.000847	8.466076	1.434192	0.016934
 477	2.3800e-01	4.7595	1.912768	0.000282	2.822025	0.478064	0.005645
 478	2.3850e-01	4.7656	1.950399	0.000376	3.762701	0.637419	0.007526
 479	2.3900e-01	4.7772	2.002142	0.000517	5.173713	0.876451	0.010349
 480	2.3950e-01	4.7867	2.041911	0.000398	3.976490	0.673636	0.007954
 481	2.4000e-01	4.7974	2.079114	0.000372	3.719943	0.630175	0.007441
 482	2.4050e-01	4.8065	2.100068	0.000210	2.095140	0.354926	0.004191
 483	2.4100e-01	4.8193	2.152238	0.000522	5.216471	0.883694	0.010434
 484	2.4150e-01	4.8254	2.212961	0.000607	6.071630	1.028562	0.012145
 485	2.4200e-01	4.8383	2.247598	0.000346	3.463395	0.586715	0.006928
 486	2.4250e-01	4.8445	2.289078	0.000415	4.147522	0.702609	0.008296
 487	2.4300e-01	4.8572	2.326709	0.000376	3.762701	0.637419	0.007526
 488	2.4350e-01	4.8676	2.377597	0.000509	5.088197	0.861964	0.010177
 489	2.4400e-01	4.8804	2.409668	0.000321	3.206847	0.543255	0.006414
 490	2.4450e-01	4.8862	2.447727	0.000381	3.805458	0.644662	0.007612
 491	2.4500e-01	4.8972	2.500325	0.000526	5.259229	0.890938	0.010520
 492	2.4550e-01	4.9063	2.539239	0.000389	3.890974	0.659149	0.007783
 493	2.4600e-01	4.9188	2.586705	0.000475	4.746134	0.804017	0.009493
 494	2.4650e-01	4.9280	2.626047	0.000393	3.933732	0.666392	0.007868
 495	2.4700e-01	4.9384	2.642297	0.000162	1.624802	0.275249	0.003250
 496	2.4750e-01	4.9466	2.720124	0.000778	7.781949	1.318298	0.015566
 497	2.4800e-01	4.9588	2.743216	0.000231	2.308930	0.391143	0.004618
 498	2.4850e-01	4.9670	2.797097	0.000539	5.387503	0.912668	0.010776
 499	2.4900e-01	4.9787	2.840715	0.000436	4.361312	0.738826	0.008724
 500	2.4950e-01	4.9870	2.878346	0.000376	3.762701	0.637419	0.007526
 501	2.5000e-01	4.9969	2.904003	0.000257	2.565478	0.434604	0.005132
 502	2.5050e-01	5.0067	2.942917	0.000389	3.890974	0.659149	0.007783
 503	2.5100e-01	5.0162	3.003640	0.000607	6.071630	1.028562	0.012145
 504	2.5150e-01	5.0287	3.028870	0.000252	2.522720	0.427360	0.005046
 505	2.5200e-01	5.0369	3.083178	0.000543	5.430261	0.919911	0.010862
 506	2.5250e-01	5.0494	3.119099	0.000359	3.591669	0.608445	0.007184
 507	2.5300e-01	5.0558	3.152881	0.000338	3.377879	0.572228	0.006756
 508	2.5350e-01	5.0669	3.200348	0.000475	4.746134	0.804017	0.009493
 509	2.5400e-01	5.0763	3.238406	0.000381	3.805458	0.644662	0.007612
 510	2.5450e-01	5.0861	3.273044	0.000346	3.463395	0.586715	0.006928
 511	2.5500e-01	5.0952	3.339753	0.000667	6.670242	1.129970	0.013342
 512	2.5550e-01	5.1059	3.353010	0.000133	1.325497	0.224545	0.002651
 513	2.5600e-01	5.1184	3.420147	0.000671	6.713000	1.137213	0.013427
 514	2.5650e-01	5.1276	3.474455	0.000543	5.430261	0.919911	0.010862
 515	2.5700e-01	5.1349	3.491988	0.000175	1.753076	0.296979	0.003507
 516	2.5750e-01	5.1453	3.542020	0.000500	5.002681	0.847477	0.010006
 517	2.5800e-01	5.1556	3.588204	0.000462	4.617860	0.782287	0.009237
 518	2.5850e-01	5.1678	3.621558	0.000334	3.335121	0.564985	0.006671
 519	2.5900e-01	5.1776	3.662610	0.000410	4.104764	0.695366	0.008210
 520	2.5950e-01	5.1859	3.709649	0.000470	4.703376	0.796773	0.009408
 521	2.6000e-01	5.1979	3.739583	0.000299	2.993057	0.507038	0.005987
 522	2.6050e-01	5.2081	3.771227	0.000316	3.164089	0.536011	0.006329
 523	2.6100e-01	5.2158	3.827674	0.000564	5.644051	0.956128	0.011289
 524	2.6150e-01	5.2271	3.877706	0.000500	5.002681	0.847477	0.010006
 525	2.6200e-01	5.2368	3.904646	0.000269	2.693752	0.456334	0.005388
 526	2.6250e-01	5.2478	3.936718	0.000321	3.206847	0.543255	0.006414
 527	2.6300e-01	5.2573	3.998724	0.000620	6.199904	1.050292	0.012401
 528	2.6350e-01	5.2669	4.017539	0.000188	1.881350	0.318709	0.003763
 529	2.6400e-01	5.2771	4.065006	0.000475	4.746134	0.804017	0.009493
 530	2.6450e-01	5.2865	4.119314	0.000543	5.430261	0.919911	0.010862
 531	2.6500e-01	5.2963	4.134281	0.000150	1.496529	0.253519	0.002993
 532	2.6550e-01	5.3064	4.202274	0.000680	6.798516	1.151700	0.013598
 533	2.6600e-01	5.3156	4.234345	0.000321	3.206847	0.543255	0.006414
 534	2.6650e-01	5.3256	4.267273	0.000329	3.292363	0.557741	0.006585
 535	2.6700e-01	5.3387	4.325857	0.000586	5.857841	0.992345	0.011717
 536	2.6750e-01	5.3485	4.333127	0.000073	0.726885	0.123138	0.001454
 537	2.6800e-01	5.3566	4.403685	0.000706	7.055063	1.195160	0.014112
 538	2.6850e-01	5.3665	4.434046	0.000304	3.035815	0.514281	0.006072
 539	2.6900e-01	5.3766	4.469112	0.000351	3.506153	0.593958	0.007013
 540	2.6950e-01	5.3894	4.532400	0.000633	6.328178	1.072022	0.012658
 541	2.7000e-01	5.3995	4.555920	0.000235	2.351688	0.398387	0.004704
 542	2.7050e-01	5.4083	4.601676	0.000458	4.575102	0.775043	0.009151
 543	2.7100e-01	5.4169	4.637596	0.000359	3.591669	0.608445	0.007184
 544	2.7150e-01	5.4260	4.692760	0.000552	5.515777	0.934398	0.011033
 545	2.7200e-01	5.4367	4.714569	0.000218	2.180656	0.369413	0.004362
 546	2.7250e-01	5.4492	4.755621	0.000410	4.104764	0.695366	0.008210
 547	2.7300e-01	5.4578	4.819337	0.000637	6.370936	1.079266	0.012743
 548	2.7350e-01	5.4657	4.836014	0.000167	1.667560	0.282492	0.003335
 549	2.7400e-01	5.4787	4.875783	0.000398	3.976490	0.673636	0.007954
 550	2.7450e-01	5.4889	4.920684	0.000449	4.489586	0.760556	0.008980
 551	2.7500e-01	5.4980	4.929664	0.000090	0.897917	0.152111	0.001796
 552	2.7550e-01	5.5078	5.016044	0.000864	8.637108	1.463166	0.017276
 553	2.7600e-01	5.5185	5.045123	0.000291	2.907541	0.492551	0.005816
 554	2.7650e-01	5.5292	5.084465	0.000393	3.933732	0.666392	0.007868
 555	2.7700e-01	5.5377	5.131931	0.000475	4.746134	0.804017	0.009493
 556	2.7750e-01	5.5490	5.156306	0.000244	2.437204	0.412873	0.004875
 557	2.7800e-01	5.5560	5.217028	0.000607	6.071630	1.028562	0.012145
 558	2.7850e-01	5.5695	5.271764	0.000547	5.473019	0.927155	0.010947
 559	2.7900e-01	5.5719	5.301271	0.000295	2.950299	0.499794	0.005901
 560	2.7950e-01	5.5908	5.319231	0.000180	1.795834	0.304223	0.003592
 561	2.8000e-01	5.5984	5.364987	0.000458	4.575102	0.775043	0.009151
 562	2.8050e-01	5.6058	5.403901	0.000389	3.890974	0.659149	0.007783
 563	2.8100e-01	5.6174	5.440249	0.000363	3.634427	0.615689	0.007270
 564	2.8150e-01	5.6274	5.486005	0.000458	4.575102	0.775043	0.009151
 565	2.8200e-01	5.6375	5.521070	0.000351	3.506153	0.593958	0.007013
 566	2.8250e-01	5.6461	5.564688	0.000436	4.361312	0.738826	0.008724
 567	2.8300e-01	5.6537	5.604457	0.000398	3.976490	0.673636	0.007954
 568	2.8350e-01	5.6686	5.633963	0.000295	2.950299	0.499794	0.005901
 569	2.8400e-01	5.6805	5.675443	0.000415	4.147522	0.702609	0.008296
 570	2.8450e-01	5.6873	5.692975	0.000175	1.753076	0.296979	0.003507
 571	2.8500e-01	5.6970	5.758830	0.000658	6.584726	1.115483	0.013171
 572	2.8550e-01	5.7062	5.783632	0.000248	2.479962	0.420117	0.004960
 573	2.8600e-01	5.7181	5.831953	0.000483	4.831650	0.818504	0.009664
 574	2.8650e-01	5.7254	5.881558	0.000496	4.959923	0.840234	0.009921
 575	2.8700e-01	5.7355	5.923038	0.000415	4.147522	0.702609	0.008296
 576	2.8750e-01	5.7465	5.953399	0.000304	3.035815	0.514281	0.006072
 577	2.8800e-01	5.7574	6.003859	0.000505	5.045439	0.854721	0.010092
 578	2.8850e-01	5.7678	6.042345	0.000385	3.848216	0.651906	0.007697
 579	2.8900e-01	5.7758	6.064582	0.000222	2.223414	0.376657	0.004447
 580	2.8950e-01	5.7880	6.109055	0.000445	4.446828	0.753313	0.008895
 581	2.9000e-01	5.7965	6.167212	0.000582	5.815083	0.985102	0.011631
 582	2.9050e-01	5.8051	6.209547	0.000423	4.233038	0.717096	0.008467
 583	2.9100e-01	5.8179	6.233066	0.000235	2.351688	0.398387	0.004704
 584	2.9150e-01	5.8260	6.277539	0.000445	4.446828	0.753313	0.008895
 585	2.9200e-01	5.8380	6.316025	0.000385	3.848216	0.651906	0.007697
 586	2.9250e-01	5.8453	6.346387	0.000304	3.035815	0.514281	0.006072
 587	2.9300e-01	5.8575	6.396846	0.000505	5.045439	0.854721	0.010092
 588	2.9350e-01	5.8658	6.429346	0.000325	3.249605	0.550498	0.006500
 589	2.9400e-01	5.8765	6.466977	0.000376	3.762701	0.637419	0.007526
 590	2.9450e-01	5.8865	6.513161	0.000462	4.617860	0.782287	0.009237
 591	2.9500e-01	5.8978	6.549081	0.000359	3.591669	0.608445	0.007184
 592	2.9550e-01	5.9058	6.600824	0.000517	5.173713	0.876451	0.010349
 593	2.9600e-01	5.9181	6.619212	0.000184	1.838592	0.311466	0.003678
 594	2.9650e-01	5.9265	6.675231	0.000560	5.601293	0.948885	0.011204
 595	2.9700e-01	5.9366	6.685066	0.000098	0.983433	0.166598	0.001967
 596	2.9750e-01	5.9451	6.739374	0.000543	5.430261	0.919911	0.010862
 597	2.9800e-01	5.9567	6.780854	0.000415	4.147522	0.702609	0.008296
 598	2.9850e-01	5.9676	6.824899	0.000440	4.404070	0.746070	0.008809
 599	2.9900e-01	5.9766	6.871938	0.000470	4.703376	0.796773	0.009408
 600	2.9950e-01	5.9869	6.902300	0.000304	3.035815	0.514281	0.006072
 601	3.0000e-01	5.9976	6.945490	0.000432	4.318554	0.731583	0.008638
 602	3.0050e-01	6.0071	6.971147	0.000257	2.565478	0.434604	0.005132
 603	3.0100e-01	6.0162	7.010916	0.000398	3.976490	0.673636	0.007954
 604	3.0150e-01	6.0284	7.056672	0.000458	4.575102	0.775043	0.009151
 605	3.0200e-01	6.0373	7.103711	0.000470	4.703376	0.796773	0.009408
 606	3.0250e-01	6.0483	7.144335	0.000406	4.062006	0.688122	0.008125
 607	3.0300e-01	6.0577	7.178118	0.000338	3.377879	0.572228	0.006756
 608	3.0350e-01	6.0660	7.219170	0.000410	4.104764	0.695366	0.008210
 609	3.0400e-01	6.0794	7.247393	0.000282	2.822025	0.478064	0.005645
 610	3.0450e-01	6.0852	7.283741	0.000363	3.634427	0.615689	0.007270
 611	3.0500e-01	6.0974	7.341471	0.000577	5.772325	0.977858	0.011546
 612	3.0550e-01	6.1067	7.356438	0.000150	1.496529	0.253519	0.002993
 613	3.0600e-01	6.1169	7.407325	0.000509	5.088197	0.861964	0.010177
 614	3.0650e-01	6.1298	7.433410	0.000261	2.608236	0.441847	0.005217
 615	3.0700e-01	6.1401	7.472752	0.000393	3.933732	0.666392	0.007868
 616	3.0750e-01	6.1464	7.526205	0.000534	5.344745	0.905424	0.010691
 617	3.0800e-01	6.1591	7.541172	0.000150	1.496529	0.253519	0.002993
 618	3.0850e-01	6.1664	7.604460	0.000633	6.328178	1.072022	0.012658
 619	3.0900e-01	6.1781	7.635677	0.000312	3.121331	0.528768	0.006243
 620	3.0950e-01	6.1856	7.653210	0.000175	1.753076	0.296979	0.003507
 621	3.1000e-01	6.1963	7.718209	0.000650	6.499210	1.100996	0.013000
 622	3.1050e-01	6.2050	7.758405	0.000402	4.019248	0.680879	0.008039
 623	3.1100e-01	6.2148	7.781069	0.000227	2.266172	0.383900	0.004533
 624	3.1150e-01	6.2275	7.827253	0.000462	4.617860	0.782287	0.009237
 625	3.1200e-01	6.2360	7.865739	0.000385	3.848216	0.651906	0.007697
 626	3.1250e-01	6.2488	7.913206	0.000475	4.746134	0.804017	0.009493
 627	3.1300e-01	6.2589	7.945705	0.000325	3.249605	0.550498	0.006500
 628	3.1350e-01	6.2671	8.000869	0.000552	5.515777	0.934398	0.011033
 629	3.1400e-01	6.2750	8.018402	0.000175	1.753076	0.296979	0.003507
 630	3.1450e-01	6.2842	8.051756	0.000334	3.335121	0.564985	0.006671
 631	3.1500e-01	6.2964	8.088532	0.000368	3.677185	0.622932	0.007355
 632	3.1550e-01	6.3089	8.101361	0.000128	1.282739	0.217302	0.002566
 633	3.1600e-01	6.3184	8.160373	0.000590	5.900599	0.999588	0.011802
 634	3.1650e-01	6.3257	8.211688	0.000513	5.130955	0.869207	0.010263
 635	3.1700e-01	6.3361	8.249319	0.000376	3.762701	0.637419	0.007526
 636	3.1750e-01	6.3428	8.309614	0.000603	6.028872	1.021319	0.012059
 637	3.1800e-01	6.3589	8.314318	0.000047	0.470338	0.079677	0.000941
 638	3.1850e-01	6.3672	8.371620	0.000573	5.729567	0.970615	0.011460
 639	3.1900e-01	6.3751	8.393001	0.000214	2.137898	0.362170	0.004276
 640	3.1950e-01	6.3869	8.434481	0.000415	4.147522	0.702609	0.008296
 641	3.2000e-01	6.3980	8.477243	0.000428	4.275796	0.724339	0.008553
 642	3.2050e-01	6.4063	8.522572	0.000453	4.532344	0.767800	0.009066
 643	3.2100e-01	6.4166	8.562341	0.000398	3.976490	0.673636	0.007954
 644	3.2150e-01	6.4270	8.589709	0.000274	2.736509	0.463577	0.005474
 645	3.2200e-01	6.4374	8.617077	0.000274	2.736509	0.463577	0.005474
 646	3.2250e-01	6.4481	8.670958	0.000539	5.387503	0.912668	0.010776
 647	3.2300e-01	6.4577	8.698326	0.000274	2.736509	0.463577	0.005474
 648	3.2350e-01	6.4667	8.736812	0.000385	3.848216	0.651906	0.007697
 649	3.2400e-01	6.4761	8.764608	0.000278	2.779267	0.470821	0.005559
 650	3.2450e-01	6.4876	8.810791	0.000462	4.617860	0.782287	0.009237
 651	3.2500e-01	6.4963	8.853554	0.000428	4.275796	0.724339	0.008553
 652	3.2550e-01	6.5088	8.889047	0.000355	3.548911	0.601202	0.007099
 653	3.2600e-01	6.5186	8.921118	0.000321	3.206847	0.543255	0.006414
 654	3.2650e-01	6.5277	8.962598	0.000415	4.147522	0.702609	0.008296
 655	3.2700e-01	6.5356	9.023321	0.000607	6.071630	1.028562	0.012145
 656	3.2750e-01	6.5472	9.035722	0.000124	1.239981	0.210058	0.002480
 657	3.2800e-01	6.5546	9.083188	0.000475	4.746134	0.804017	0.009493
 658	3.2850e-01	6.5671	9.098155	0.000150	1.496529	0.253519	0.002993
 659	3.2900e-01	6.5773	9.164437	0.000663	6.627484	1.122726	0.013256
 660	3.2950e-01	6.5857	9.194371	0.000299	2.993057	0.507038	0.005987
 661	3.3000e-01	6.5991	9.233713	0.000393	3.933732	0.666392	0.007868
 662	3.3050e-01	6.6071	9.255094	0.000214	2.137898	0.362170	0.004276
 663	3.3100e-01	6.6147	9.302988	0.000479	4.788892	0.811260	0.009579
 664	3.3150e-01	6.6290	9.347461	0.000445	4.446828	0.753313	0.008895
 665	3.3200e-01	6.6364	9.385092	0.000376	3.762701	0.637419	0.007526
 666	3.3250e-01	6.6470	9.415881	0.000308	3.078573	0.521524	0.006158
 667	3.3300e-01	6.6589	9.449236	0.000334	3.335121	0.564985	0.006671
 668	3.3350e-01	6.6666	9.497985	0.000487	4.874407	0.825747	0.009750
 669	3.3400e-01	6.6742	9.530484	0.000325	3.249605	0.550498	0.006500
 670	3.3450e-01	6.6864	9.562984	0.000325	3.249605	0.550498	0.006500
 671	3.3500e-01	6.6977	9.617292	0.000543	5.430261	0.919911	0.010862
 672	3.3550e-01	6.7065	9.633115	0.000158	1.582045	0.268006	0.003164
 673	3.3600e-01	6.7166	9.674594	0.000415	4.147522	0.702609	0.008296
 674	3.3650e-01	6.7273	9.722916	0.000483	4.831650	0.818504	0.009664
 675	3.3700e-01	6.7371	9.752850	0.000299	2.993057	0.507038	0.005987
 676	3.3750e-01	6.7474	9.805020	0.000522	5.216471	0.883694	0.010434
 677	3.3800e-01	6.7572	9.833671	0.000286	2.864783	0.485307	0.005730
 678	3.3850e-01	6.7682	9.869591	0.000359	3.591669	0.608445	0.007184
 679	3.3900e-01	6.7749	9.914492	0.000449	4.489586	0.760556	0.008980
 680	3.3950e-01	6.7871	9.923472	0.000090	0.897917	0.152111	0.001796
 681	3.4000e-01	6.7966	9.970511	0.000470	4.703376	0.796773	0.009408
 682	3.4050e-01	6.8060	9.995741	0.000252	2.522720	0.427360	0.005046
 683	3.4100e-01	6.8146	10.053470	0.000577	5.772325	0.977858	0.011546
 684	3.4150e-01	6.8237	10.083404	0.000299	2.993057	0.507038	0.005987
 685	3.4200e-01	6.8359	10.112482	0.000291	2.907541	0.492551	0.005816
 686	3.4250e-01	6.8475	10.146265	0.000338	3.377879	0.572228	0.006756
 687	3.4300e-01	6.8582	10.185179	0.000389	3.890974	0.659149	0.007783
 688	3.4350e-01	6.8643	10.252744	0.000676	6.755758	1.144456	0.013513
 689	3.4400e-01	6.8793	10.285671	0.000329	3.292363	0.557741	0.006585
 690	3.4450e-01	6.8890	10.297217	0.000115	1.154465	0.195572	0.002309
 691	3.4500e-01	6.8982	10.334420	0.000372	3.719943	0.630175	0.007441
 692	3.4550e-01	6.9067	10.387446	0.000530	5.301987	0.898181	0.010605
 693	3.4600e-01	6.9141	10.417379	0.000299	2.993057	0.507038	0.005987
 694	3.4650e-01	6.9254	10.450306	0.000329	3.292363	0.557741	0.006585
 695	3.4700e-01	6.9391	10.482806	0.000325	3.249605	0.550498	0.006500
 696	3.4750e-01	6.9458	10.522148	0.000393	3.933732	0.666392	0.007868
 697	3.4800e-01	6.9592	10.578594	0.000564	5.644051	0.956128	0.011289
 698	3.4850e-01	6.9681	10.613232	0.000346	3.463395	0.586715	0.006928
 699	3.4900e-01	6.9757	10.644448	0.000312	3.121331	0.528768	0.006243
 700	3.4950e-01	6.9836	10.661553	0.000171	1.710318	0.289736	0.003421
 701	3.5000e-01	6.9977	10.712868	0.000513	5.130955	0.869207	0.010263
 702	3.5050e-01	7.0059	10.769743	0.000569	5.686809	0.963371	0.011375
 703	3.5100e-01	7.0184	10.767177	-0.000026	-0.256548	-0.043460	-0.000513
 704	3.5150e-01	7.0267	10.803097	0.000359	3.591669	0.608445	0.007184
 705	3.5200e-01	7.0380	10.852274	0.000492	4.917165	0.832990	0.009835
 706	3.5250e-01	7.0465	10.882208	0.000299	2.993057	0.507038	0.005987
 707	3.5300e-01	7.0551	10.923688	0.000415	4.147522	0.702609	0.008296
 708	3.5350e-01	7.0667	10.969871	0.000462	4.617860	0.782287	0.009237
 709	3.5400e-01	7.0789	11.001088	0.000312	3.121331	0.528768	0.006243
 710	3.5450e-01	7.0871	11.053686	0.000526	5.259229	0.890938	0.010520
 711	3.5500e-01	7.0969	11.083192	0.000295	2.950299	0.499794	0.005901
 712	3.5550e-01	7.1072	11.112270	0.000291	2.907541	0.492551	0.005816
 713	3.5600e-01	7.1185	11.157171	0.000449	4.489586	0.760556	0.008980
 714	3.5650e-01	7.1249	11.184539	0.000274	2.736509	0.463577	0.005474
 715	3.5700e-01	7.1378	11.212762	0.000282	2.822025	0.478064	0.005645
 716	3.5750e-01	7.1472	11.253814	0.000410	4.104764	0.695366	0.008210
 717	3.5800e-01	7.1576	11.295722	0.000419	4.190280	0.709853	0.008381
 718	3.5850e-01	7.1667	11.333353	0.000376	3.762701	0.637419	0.007526
 719	3.5900e-01	7.1777	11.382102	0.000487	4.874407	0.825747	0.009750
 720	3.5950e-01	7.1869	11.413746	0.000316	3.164089	0.536011	0.006329
 721	3.6000e-01	7.1945	11.452660	0.000389	3.890974	0.659149	0.007783
 722	3.6050e-01	7.2089	11.485587	0.000329	3.292363	0.557741	0.006585
 723	3.6100e-01	7.2180	11.530060	0.000445	4.446828	0.753313	0.008895
 724	3.6150e-01	7.2278	11.534337	0.000043	0.427580	0.072434	0.000855
 725	3.6200e-01	7.2354	11.583086	0.000487	4.874407	0.825747	0.009750
 726	3.6250e-01	7.2467	11.648512	0.000654	6.541968	1.108239	0.013085
 727	3.6300e-01	7.2577	11.651506	0.000030	0.299306	0.050704	0.000599
 728	3.6350e-01	7.2665	11.685288	0.000338	3.377879	0.572228	0.006756
 729	3.6400e-01	7.2772	11.741735	0.000564	5.644051	0.956128	0.011289
 730	3.6450e-01	7.2885	11.788346	0.000466	4.660618	0.789530	0.009322
 731	3.6500e-01	7.2949	11.798181	0.000098	0.983433	0.166598	0.001967
 732	3.6550e-01	7.3083	11.846931	0.000487	4.874407	0.825747	0.009750
 733	3.6600e-01	7.3154	11.876009	0.000291	2.907541	0.492551	0.005816
 734	3.6650e-01	7.3254	11.925614	0.000496	4.959923	0.840234	0.009921
 735	3.6700e-01	7.3383	11.959824	0.000342	3.420637	0.579472	0.006842
 736	3.6750e-01	7.3477	11.994889	0.000351	3.506153	0.593958	0.007013
 737	3.6800e-01	7.3566	12.017981	0.000231	2.308930	0.391143	0.004618
 738	3.6850e-01	7.3676	12.059888	0.000419	4.190280	0.709853	0.008381
 739	3.6900e-01	7.3767	12.094526	0.000346	3.463395	0.586715	0.006928
 740	3.6950e-01	7.3834	12.150117	0.000556	5.558535	0.941641	0.011118
 741	3.7000e-01	7.3984	12.153110	0.000030	0.299306	0.050704	0.000599
 742	3.7050e-01	7.4084	12.216826	0.000637	6.370936	1.079266	0.012743
 743	3.7100e-01	7.4158	12.250609	0.000338	3.377879	0.572228	0.006756
 744	3.7150e-01	7.4265	12.287812	0.000372	3.719943	0.630175	0.007441
 745	3.7200e-01	7.4359	12.325016	0.000372	3.719943	0.630175	0.007441
 746	3.7250e-01	7.4457	12.343404	0.000184	1.838592	0.311466	0.003678
 747	3.7300e-01	7.4597	12.386166	0.000428	4.275796	0.724339	0.008553
 748	3.7350e-01	7.4667	12.417810	0.000316	3.164089	0.536011	0.006329
 749	3.7400e-01	7.4756	12.480244	0.000624	6.242662	1.057536	0.012487
 750	3.7450e-01	7.4881	12.507184	0.000269	2.693752	0.456334	0.005388
 751	3.7500e-01	7.4966	12.521296	0.000141	1.411013	0.239032	0.002822
 752	3.7550e-01	7.5073	12.578597	0.000573	5.729567	0.970615	0.011460
 753	3.7600e-01	7.5183	12.605965	0.000274	2.736509	0.463577	0.005474
 754	3.7650e-01	7.5275	12.640603	0.000346	3.463395	0.586715	0.006928
 755	3.7700e-01	7.5409	12.676096	0.000355	3.548911	0.601202	0.007099
 756	3.7750e-01	7.5452	12.724845	0.000487	4.874407	0.825747	0.009750
 757	3.7800e-01	7.5568	12.763332	0.000385	3.848216	0.651906	0.007697
 758	3.7850e-01	7.5690	12.786851	0.000235	2.351688	0.398387	0.004704
 759	3.7900e-01	7.5760	12.813791	0.000269	2.693752	0.456334	0.005388
 760	3.7950e-01	7.5903	12.856126	0.000423	4.233038	0.717096	0.008467
 761	3.8000e-01	7.5964	12.893330	0.000372	3.719943	0.630175	0.007441
 762	3.8050e-01	7.6044	12.932244	0.000389	3.890974	0.659149	0.007783
 763	3.8100e-01	7.6161	12.948493	0.000162	1.624802	0.275249	0.003250
 764	3.8150e-01	7.6257	13.020334	0.000718	7.183337	1.216890	0.014368
 765	3.8200e-01	7.6382	13.040433	0.000201	2.009624	0.340440	0.004020
 766	3.8250e-01	7.6477	13.062242	0.000218	2.180656	0.369413	0.004362
 767	3.8300e-01	7.6575	13.114412	0.000522	5.216471	0.883694	0.010434
 768	3.8350e-01	7.6642	13.145201	0.000308	3.078573	0.521524	0.006158
 769	3.8400e-01	7.6764	13.179411	0.000342	3.420637	0.579472	0.006842
 770	3.8450e-01	7.6849	13.230726	0.000513	5.130955	0.869207	0.010263
 771	3.8500e-01	7.6959	13.265791	0.000351	3.506153	0.593958	0.007013
 772	3.8550e-01	7.7078	13.298718	0.000329	3.292363	0.557741	0.006585
 773	3.8600e-01	7.7161	13.327797	0.000291	2.907541	0.492551	0.005816
 774	3.8650e-01	7.7264	13.380395	0.000526	5.259229	0.890938	0.010520
 775	3.8700e-01	7.7374	13.385099	0.000047	0.470338	0.079677	0.000941
 776	3.8750e-01	7.7472	13.432993	0.000479	4.788892	0.811260	0.009579
 777	3.8800e-01	7.7588	13.474045	0.000410	4.104764	0.695366	0.008210
 778	3.8850e-01	7.7673	13.517663	0.000436	4.361312	0.738826	0.008724
 779	3.8900e-01	7.7777	13.539899	0.000222	2.223414	0.376657	0.004447
 780	3.8950e-01	7.7850	13.572399	0.000325	3.249605	0.550498	0.006500
 781	3.9000e-01	7.7972	13.619865	0.000475	4.746134	0.804017	0.009493
 782	3.9050e-01	7.8072	13.655786	0.000359	3.591669	0.608445	0.007184
 783	3.9100e-01	7.8180	13.699831	0.000440	4.404070	0.746070	0.008809
 784	3.9150e-01	7.8271	13.738745	0.000389	3.890974	0.659149	0.007783
 785	3.9200e-01	7.8381	13.768251	0.000295	2.950299	0.499794	0.005901
 786	3.9250e-01	7.8461	13.803744	0.000355	3.548911	0.601202	0.007099
 787	3.9300e-01	7.8574	13.829829	0.000261	2.608236	0.441847	0.005217
 788	3.9350e-01	7.8671	13.850355	0.000205	2.052382	0.347683	0.004105
 789	3.9400e-01	7.8772	13.897821	0.000475	4.746134	0.804017	0.009493
 790	3.9450e-01	7.8864	13.936735	0.000389	3.890974	0.659149	0.007783
 791	3.9500e-01	7.8992	13.982491	0.000458	4.575102	0.775043	0.009151
 792	3.9550e-01	7.9053	14.011570	0.000291	2.907541	0.492551	0.005816
 793	3.9600e-01	7.9169	14.056043	0.000445	4.446828	0.753313	0.008895
 794	3.9650e-01	7.9251	14.081273	0.000252	2.522720	0.427360	0.005046
 795	3.9700e-01	7.9367	14.111634	0.000304	3.035815	0.514281	0.006072
 796	3.9750e-01	7.9446	14.169791	0.000582	5.815083	0.985102	0.011631
 797	3.9800e-01	7.9558	14.193310	0.000235	2.351688	0.398387	0.004704
 798	3.9850e-01	7.9681	14.212126	0.000188	1.881350	0.318709	0.003763
 799	3.9900e-01	7.9768	14.268573	0.000564	5.644051	0.956128	0.011289
 800	3.9950e-01	7.9865	14.290809	0.000222	2.223414	0.376657	0.004447
 801	4.0000e-01	7.9993	14.339558	0.000487	4.874407	0.825747	0.009750
 802	4.0050e-01	8.0054	14.389163	0.000496	4.959923	0.840234	0.009921
 803	4.0100e-01	8.0176	14.415676	0.000265	2.650994	0.449090	0.005303
 804	4.0150e-01	8.0246	14.458438	0.000428	4.275796	0.724339	0.008553
 805	4.0200e-01	8.0383	14.473405	0.000150	1.496529	0.253519	0.002993
 806	4.0250e-01	8.0463	14.498207	0.000248	2.479962	0.420117	0.004960
 807	4.0300e-01	8.0554	14.545674	0.000475	4.746134	0.804017	0.009493
 808	4.0350e-01	8.0670	14.578173	0.000325	3.249605	0.550498	0.006500
 809	4.0400e-01	8.0774	14.606397	0.000282	2.822025	0.478064	0.005645
 810	4.0450e-01	8.0872	14.651725	0.000453	4.532344	0.767800	0.009066
 811	4.0500e-01	8.0975	14.685935	0.000342	3.420637	0.579472	0.006842
 812	4.0550e-01	8.1049	14.741954	0.000560	5.601293	0.948885	0.011204
 813	4.0600e-01	8.1189	14.759486	0.000175	1.753076	0.296979	0.003507
 814	4.0650e-01	8.1238	14.793269	0.000338	3.377879	0.572228	0.006756
 815	4.0700e-01	8.1384	14.856557	0.000633	6.328178	1.072022	0.012658
 816	4.0750e-01	8.1473	14.877083	0.000205	2.052382	0.347683	0.004105
 817	4.0800e-01	8.1586	14.895899	0.000188	1.881350	0.318709	0.003763
 818	4.0850e-01	8.1677	14.945503	0.000496	4.959923	0.840234	0.009921
 819	4.0900e-01	8.1793	14.970733	0.000252	2.522720	0.427360	0.005046
 820	4.0950e-01	8.1909	15.017772	0.000470	4.703376	0.796773	0.009408
 821	4.1000e-01	8.1982	15.057114	0.000393	3.933732	0.666392	0.007868
 822	4.1050e-01	8.2077	15.093889	0.000368	3.677185	0.622932	0.007355
 823	4.1100e-01	8.2184	15.134514	0.000406	4.062006	0.688122	0.008125
 824	4.1150e-01	8.2263	15.164020	0.000295	2.950299	0.499794	0.005901
 825	4.1200e-01	8.2385	15.219611	0.000556	5.558535	0.941641	0.011118
 826	4.1250e-01	8.2465	15.243131	0.000235	2.351688	0.398387	0.004704
 827	4.1300e-01	8.2568	15.252111	0.000090	0.897917	0.152111	0.001796
 828	4.1350e-01	8.2703	15.305991	0.000539	5.387503	0.912668	0.010776
 829	4.1400e-01	8.2782	15.343622	0.000376	3.762701	0.637419	0.007526
 830	4.1450e-01	8.2904	15.375267	0.000316	3.164089	0.536011	0.006329
 831	4.1500e-01	8.2996	15.409477	0.000342	3.420637	0.579472	0.006842
 832	4.1550e-01	8.3038	15.438983	0.000295	2.950299	0.499794	0.005901
 833	4.1600e-01	8.3185	15.492864	0.000539	5.387503	0.912668	0.010776
 834	4.1650e-01	8.3246	15.527074	0.000342	3.420637	0.579472	0.006842
 835	4.1700e-01	8.3374	15.542468	0.000154	1.539287	0.260762	0.003079
 836	4.1750e-01	8.3472	15.592500	0.000500	5.002681	0.847477	0.010006
 837	4.1800e-01	8.3575	15.625000	0.000325	3.249605	0.550498	0.006500
 838	4.1850e-01	8.3658	15.681446	0.000564	5.644051	0.956128	0.011289
 839	4.1900e-01	8.3765	15.705393	0.000239	2.394446	0.405630	0.004789
 840	4.1950e-01	8.3881	15.740031	0.000346	3.463395	0.586715	0.006928
 841	4.2000e-01	8.3954	15.779800	0.000398	3.976490	0.673636	0.007954
 842	4.2050e-01	8.4082	15.815721	0.000359	3.591669	0.608445	0.007184
 843	4.2100e-01	8.4192	15.852069	0.000363	3.634427	0.615689	0.007270
 844	4.2150e-01	8.4262	15.867891	0.000158	1.582045	0.268006	0.003164
 845	4.2200e-01	8.4387	15.905522	0.000376	3.762701	0.637419	0.007526
 846	4.2250e-01	8.4473	15.972232	0.000667	6.670242	1.129970	0.013342
 847	4.2300e-01	8.4561	15.985916	0.000137	1.368255	0.231789	0.002737
 848	4.2350e-01	8.4668	16.023119	0.000372	3.719943	0.630175	0.007441
 849	4.2400e-01	8.4778	16.065026	0.000419	4.190280	0.709853	0.008381
 850	4.2450e-01	8.4889	16.092394	0.000274	2.736509	0.463577	0.005474
 851	4.2500e-01	8.4973	16.140716	0.000483	4.831650	0.818504	0.009664
 852	4.2550e-01	8.5059	16.182623	0.000419	4.190280	0.709853	0.008381
 853	4.2600e-01	8.5187	16.209136	0.000265	2.650994	0.449090	0.005303
 854	4.2650e-01	8.5297	16.269859	0.000607	6.071630	1.028562	0.012145
 855	4.2700e-01	8.5391	16.252754	-0.000171	-1.710318	-0.289736	-0.003421
 856	4.2750e-01	8.5489	16.332292	0.000795	7.952981	1.347271	0.015908
 857	4.2800e-01	8.5596	16.353246	0.000210	2.095140	0.354926	0.004191
 858	4.2850e-01	8.5681	16.405844	0.000526	5.259229	0.890938	0.010520
 859	4.2900e-01	8.5785	16.444330	0.000385	3.848216	0.651906	0.007697
 860	4.2950e-01	8.5858	16.471270	0.000269	2.693752	0.456334	0.005388
 861	4.3000e-01	8.5974	16.513605	0.000423	4.233038	0.717096	0.008467
 862	4.3050e-01	8.6066	16.541401	0.000278	2.779267	0.470821	0.005559
 863	4.3100e-01	8.6188	16.576894	0.000355	3.548911	0.601202	0.007099
 864	4.3150e-01	8.6273	16.616235	0.000393	3.933732	0.666392	0.007868
 865	4.3200e-01	8.6378	16.652583	0.000363	3.634427	0.615689	0.007270
 866	4.3250e-01	8.6472	16.668406	0.000158	1.582045	0.268006	0.003164
 867	4.3300e-01	8.6600	16.725280	0.000569	5.686809	0.963371	0.011375
 868	4.3350e-01	8.6688	16.768042	0.000428	4.275796	0.724339	0.008553
 869	4.3400e-01	8.6752	16.800114	0.000321	3.206847	0.543255	0.006414
 870	4.3450e-01	8.6865	16.811232	0.000111	1.111707	0.188328	0.002224
 871	4.3500e-01	8.6984	16.880935	0.000697	6.969548	1.180673	0.013941
 872	4.3550e-01	8.7100	16.890343	0.000094	0.940675	0.159355	0.001882
 873	4.3600e-01	8.7164	16.948928	0.000586	5.857841	0.992345	0.011717
 874	4.3650e-01	8.7274	16.976723	0.000278	2.779267	0.470821	0.005559
 875	4.3700e-01	8.7396	17.014354	0.000376	3.762701	0.637419	0.007526
 876	4.3750e-01	8.7488	17.061393	0.000470	4.703376	0.796773	0.009408
 877	4.3800e-01	8.7567	17.090472	0.000291	2.907541	0.492551	0.005816
 878	4.3850e-01	8.7640	17.126820	0.000363	3.634427	0.615689	0.007270
 879	4.3900e-01	8.7756	17.155043	0.000282	2.822025	0.478064	0.005645
 880	4.3950e-01	8.7860	17.199516	0.000445	4.446828	0.753313	0.008895
 881	4.4000e-01	8.7961	17.232871	0.000334	3.335121	0.564985	0.006671
 882	4.4050e-01	8.8092	17.269647	0.000368	3.677185	0.622932	0.007355
 883	4.4100e-01	8.8196	17.308133	0.000385	3.848216	0.651906	0.007697
 884	4.4150e-01	8.8263	17.333791	0.000257	2.565478	0.434604	0.005132
 885	4.4200e-01	8.8348	17.380402	0.000466	4.660618	0.789530	0.009322
 886	4.4250e-01	8.8440	17.444545	0.000641	6.413694	1.086509	0.012829
 887	4.4300e-01	8.8565	17.434282	-0.000103	-1.026191	-0.173841	-0.002053
 888	4.4350e-01	8.8675	17.486453	0.000522	5.216471	0.883694	0.010434
 889	4.4400e-01	8.8776	17.528788	0.000423	4.233038	0.717096	0.008467
 890	4.4450e-01	8.8837	17.562998	0.000342	3.420637	0.579472	0.006842
 891	4.4500e-01	8.8940	17.593787	0.000308	3.078573	0.521524	0.006158
 892	4.4550e-01	8.9038	17.647240	0.000534	5.344745	0.905424	0.010691
 893	4.4600e-01	8.9172	17.668621	0.000214	2.137898	0.362170	0.004276
 894	4.4650e-01	8.9264	17.718653	0.000500	5.002681	0.847477	0.010006
 895	4.4700e-01	8.9368	17.739607	0.000210	2.095140	0.354926	0.004191
 896	4.4750e-01	8.9465	17.789211	0.000496	4.959923	0.840234	0.009921
 897	4.4800e-01	8.9557	17.842665	0.000534	5.344745	0.905424	0.010691
 898	4.4850e-01	8.9642	17.864901	0.000222	2.223414	0.376657	0.004447
 899	4.4900e-01	8.9760	17.910657	0.000458	4.575102	0.775043	0.009151
 900	4.4950e-01	8.9862	17.954702	0.000440	4.404070	0.746070	0.008809
 901	4.5000e-01	8.9954	17.974373	0.000197	1.966866	0.333196	0.003934
 902	4.5050e-01	9.0088	18.005162	0.000308	3.078573	0.521524	0.006158
 903	4.5100e-01	9.0186	18.046642	0.000415	4.147522	0.702609	0.008296
 904	4.5150e-01	9.0234	18.072299	0.000257	2.565478	0.434604	0.005132
 905	4.5200e-01	9.0363	18.132595	0.000603	6.028872	1.021319	0.012059
 906	4.5250e-01	9.0442	18.176212	0.000436	4.361312	0.738826	0.008724
 907	4.5300e-01	9.0558	18.211705	0.000355	3.548911	0.601202	0.007099
 908	4.5350e-01	9.0680	18.249764	0.000381	3.805458	0.644662	0.007612
 909	4.5400e-01	9.0784	18.290388	0.000406	4.062006	0.688122	0.008125
 910	4.5450e-01	9.0869	18.314335	0.000239	2.394446	0.405630	0.004789
 911	4.5500e-01	9.0973	18.332296	0.000180	1.795834	0.304223	0.003592
 912	4.5550e-01	9.1052	18.386604	0.000543	5.430261	0.919911	0.010862
 913	4.5600e-01	9.1144	18.433643	0.000470	4.703376	0.796773	0.009408
 914	4.5650e-01	9.1266	18.454596	0.000210	2.095140	0.354926	0.004191
 915	4.5700e-01	9.1351	18.510615	0.000560	5.601293	0.948885	0.011204
 916	4.5750e-01	9.1449	18.513181	0.000026	0.256548	0.043460	0.000513
 917	4.5800e-01	9.1553	18.561930	0.000487	4.874407	0.825747	0.009750
 918	4.5850e-01	9.1669	18.629923	0.000680	6.798516	1.151700	0.013598
 919	4.5900e-01	9.1760	18.665416	0.000355	3.548911	0.601202	0.007099
 920	4.5950e-01	9.1840	18.682093	0.000167	1.667560	0.282492	0.003335
 921	4.6000e-01	9.1968	18.709461	0.000274	2.736509	0.463577	0.005474
 922	4.6050e-01	9.2072	18.753934	0.000445	4.446828	0.753313	0.008895
 923	4.6100e-01	9.2194	18.811663	0.000577	5.772325	0.977858	0.011546
 924	4.6150e-01	9.2242	18.848867	0.000372	3.719943	0.630175	0.007441
 925	4.6200e-01	9.2358	18.885643	0.000368	3.677185	0.622932	0.007355
 926	4.6250e-01	9.2450	18.927122	0.000415	4.147522	0.702609	0.008296
 927	4.6300e-01	9.2542	18.948931	0.000218	2.180656	0.369413	0.004362
 928	4.6350e-01	9.2639	18.990838	0.000419	4.190280	0.709853	0.008381
 929	4.6400e-01	9.2780	19.054127	0.000633	6.328178	1.072022	0.012658
 930	4.6450e-01	9.2850	19.086199	0.000321	3.206847	0.543255	0.006414
 931	4.6500e-01	9.2963	19.091758	0.000056	0.555853	0.094164	0.001112
 932	4.6550e-01	9.3054	19.141790	0.000500	5.002681	0.847477	0.010006
 933	4.6600e-01	9.3164	19.176428	0.000346	3.463395	0.586715	0.006928
 934	4.6650e-01	9.3262	19.201658	0.000252	2.522720	0.427360	0.005046
 935	4.6700e-01	9.3359	19.269223	0.000676	6.755758	1.144456	0.013513
 936	4.6750e-01	9.3457	19.296163	0.000269	2.693752	0.456334	0.005388
 937	4.6800e-01	9.3542	19.329090	0.000329	3.292363	0.557741	0.006585
 938	4.6850e-01	9.3652	19.362445	0.000334	3.335121	0.564985	0.006671
 939	4.6900e-01	9.3762	19.416753	0.000543	5.430261	0.919911	0.010862
 940	4.6950e-01	9.3854	19.448397	0.000316	3.164089	0.536011	0.006329
 941	4.7000e-01	9.3958	19.495009	0.000466	4.660618	0.789530	0.009322
 942	4.7050e-01	9.4067	19.539054	0.000440	4.404070	0.746070	0.008809
 943	4.7100e-01	9.4135	19.569843	0.000308	3.078573	0.521524	0.006158
 944	4.7150e-01	9.4257	19.610467	0.000406	4.062006	0.688122	0.008125
 945	4.7200e-01	9.4351	19.644677	0.000342	3.420637	0.579472	0.006842
 946	4.7250e-01	9.4452	19.688723	0.000440	4.404070	0.746070	0.008809
 947	4.7300e-01	9.4580	19.726354	0.000376	3.762701	0.637419	0.007526
 948	4.7350e-01	9.4684	19.767406	0.000410	4.104764	0.695366	0.008210
 949	4.7400e-01	9.4769	19.800761	0.000334	3.335121	0.564985	0.006671
 950	4.7450e-01	9.4830	19.841385	0.000406	4.062006	0.688122	0.008125
 951	4.7500e-01	9.4952	19.880299	0.000389	3.890974	0.659149	0.007783
 952	4.7550e-01	9.5081	19.928621	0.000483	4.831650	0.818504	0.009664
 953	4.7600e-01	9.5142	19.949147	0.000205	2.052382	0.347683	0.004105
 954	4.7650e-01	9.5276	19.986350	0.000372	3.719943	0.630175	0.007441
 955	4.7700e-01	9.5377	20.054343	0.000680	6.798516	1.151700	0.013598
 956	4.7750e-01	9.5477	20.078717	0.000244	2.437204	0.412873	0.004875
 957	4.7800e-01	9.5569	20.124473	0.000458	4.575102	0.775043	0.009151
 958	4.7850e-01	9.5630	20.145854	0.000214	2.137898	0.362170	0.004276
 959	4.7900e-01	9.5752	20.178354	0.000325	3.249605	0.550498	0.006500
 960	4.7950e-01	9.5880	20.221972	0.000436	4.361312	0.738826	0.008724
 961	4.8000e-01	9.5947	20.260886	0.000389	3.890974	0.659149	0.007783
 962	4.8050e-01	9.6094	20.321608	0.000607	6.071630	1.028562	0.012145
 963	4.8100e-01	9.6176	20.349832	0.000282	2.822025	0.478064	0.005645
 964	4.8150e-01	9.6283	20.394305	0.000445	4.446828	0.753313	0.008895
 965	4.8200e-01	9.6417	20.429370	0.000351	3.506153	0.593958	0.007013
 966	4.8250e-01	9.6454	20.458876	0.000295	2.950299	0.499794	0.005901
 967	4.8300e-01	9.6564	20.502066	0.000432	4.318554	0.731583	0.008638
 968	4.8350e-01	9.6643	20.529434	0.000274	2.736509	0.463577	0.005474
 969	4.8400e-01	9.6765	20.590157	0.000607	6.071630	1.028562	0.012145
 970	4.8450e-01	9.6893	20.626505	0.000363	3.634427	0.615689	0.007270
 971	4.8500e-01	9.6954	20.661143	0.000346	3.463395	0.586715	0.006928
 972	4.8550e-01	9.7073	20.710320	0.000492	4.917165	0.832990	0.009835
 973	4.8600e-01	9.7162	20.736832	0.000265	2.650994	0.449090	0.005303
 974	4.8650e-01	9.7260	20.787292	0.000505	5.045439	0.854721	0.010092
 975	4.8700e-01	9.7366	20.817226	0.000299	2.993057	0.507038	0.005987
 976	4.8750e-01	9.7467	20.860844	0.000436	4.361312	0.738826	0.008724
 977	4.8800e-01	9.7559	20.910021	0.000492	4.917165	0.832990	0.009835
 978	4.8850e-01	9.7693	20.934395	0.000244	2.437204	0.412873	0.004875
 979	4.8900e-01	9.7760	20.982289	0.000479	4.788892	0.811260	0.009579
 980	4.8950e-01	9.7852	21.031039	0.000487	4.874407	0.825747	0.009750
 981	4.9000e-01	9.7974	21.075512	0.000445	4.446828	0.753313	0.008895
 982	4.9050e-01	9.8065	21.102880	0.000274	2.736509	0.463577	0.005474
 983	4.9100e-01	9.8181	21.146497	0.000436	4.361312	0.738826	0.008724
 984	4.9150e-01	9.8273	21.172583	0.000261	2.608236	0.441847	0.005217
 985	4.9200e-01	9.8376	21.204654	0.000321	3.206847	0.543255	0.006414
 986	4.9250e-01	9.8474	21.283338	0.000787	7.867465	1.332785	0.015737
 987	4.9300e-01	9.8538	21.315409	0.000321	3.206847	0.543255	0.006414
 988	4.9350e-01	9.8663	21.344916	0.000295	2.950299	0.499794	0.005901
 989	4.9400e-01	9.8779	21.383402	0.000385	3.848216	0.651906	0.007697
 990	4.9450e-01	9.8846	21.415046	0.000316	3.164089	0.536011	0.006329
 991	4.9500e-01	9.8950	21.468499	0.000534	5.344745	0.905424	0.010691
 992	4.9550e-01	9.9060	21.504420	0.000359	3.591669	0.608445	0.007184
 993	4.9600e-01	9.9158	21.547610	0.000432	4.318554	0.731583	0.008638
 994	4.9650e-01	9.9274	21.597642	0.000500	5.002681	0.847477	0.010006
 995	4.9700e-01	9.9350	21.615175	0.000175	1.753076	0.296979	0.003507
 996	4.9750e-01	9.9438	21.656654	0.000415	4.147522	0.702609	0.008296
 997	4.9800e-01	9.9573	21.681029	0.000244	2.437204	0.412873	0.004875
 998	4.9850e-01	9.9683	21.746456	0.000654	6.541968	1.108239	0.013085
 999	4.9900e-01	9.9783	21.785370	0.000389	3.890974	0.659149	0.007783
1000	4.9950e-01	9.9878	21.828560	0.000432	4.318554	0.731583	0.008638
1001	5.0000e-01	9.9963	21.878592	0.000500	5.002681	0.847477	0.010006
1002	5.0050e-01	9.9835	21.805040	0.000735	7.354369	1.245864	-0.014710
1003	5.0100e-01	9.9738	21.805040	-0.000000	-0.000000	-0.000000	0.000000
1004	5.0150e-01	9.9622	21.801619	0.000034	0.342064	0.057947	-0.000684
1005	5.0200e-01	9.9551	21.774251	0.000274	2.736509	0.463577	-0.005474
1006	5.0250e-01	9.9457	21.783231	-0.000090	-0.897917	-0.152111	0.001796
1007	5.0300e-01	9.9368	21.738331	0.000449	4.489586	0.760556	-0.008980
1008	5.0350e-01	9.9274	21.745600	-0.000073	-0.726885	-0.123138	0.001454
1009	5.0400e-01	9.9158	21.722081	0.000235	2.351688	0.398387	-0.004704
1010	5.0450e-01	9.9060	21.690864	0.000312	3.121331	0.528768	-0.006243
1011	5.0500e-01	9.8950	21.694713	-0.000038	-0.384822	-0.065191	0.000770
1012	5.0550e-01	9.8834	21.675898	0.000188	1.881350	0.318709	-0.003763
1013	5.0600e-01	9.8755	21.633990	0.000419	4.190280	0.709853	-0.008381
1014	5.0650e-01	9.8648	21.660931	-0.000269	-2.693752	-0.456334	0.005388
1015	5.0700e-01	9.8560	21.631852	0.000291	2.907541	0.492551	-0.005816
1016	5.0750e-01	9.8456	21.614747	0.000171	1.710318	0.289736	-0.003421
1017	5.0800e-01	9.8343	21.577116	0.000376	3.762701	0.637419	-0.007526
1018	5.0850e-01	9.8267	21.560011	0.000171	1.710318	0.289736	-0.003421
1019	5.0900e-01	9.8157	21.551031	0.000090	0.897917	0.152111	-0.001796
1020	5.0950e-01	9.8050	21.540768	0.000103	1.026191	0.173841	-0.002053
1021	5.1000e-01	9.7968	21.511262	0.000295	2.950299	0.499794	-0.005901
1022	5.1050e-01	9.7870	21.498433	0.000128	1.282739	0.217302	-0.002566
1023	5.1100e-01	9.7745	21.477479	0.000210	2.095140	0.354926	-0.004191
1024	5.1150e-01	9.7656	21.445408	0.000321	3.206847	0.543255	-0.006414
1025	5.1200e-01	9.7554	21.438993	0.000064	0.641369	0.108651	-0.001283
1026	5.1250e-01	9.7464	21.417612	0.000214	2.137898	0.362170	-0.004276
1027	5.1300e-01	9.7357	21.403928	0.000137	1.368255	0.231789	-0.002737
1028	5.1350e-01	9.7253	21.373139	0.000308	3.078573	0.521524	-0.006158
1029	5.1400e-01	9.7162	21.334225	0.000389	3.890974	0.659149	-0.007783
1030	5.1450e-01	9.7046	21.336363	-0.000021	-0.213790	-0.036217	0.000428
1031	5.1500e-01	9.6927	21.326955	0.000094	0.940675	0.159355	-0.001882
1032	5.1550e-01	9.6826	21.276923	0.000500	5.002681	0.847477	-0.010006
1033	5.1600e-01	9.6759	21.252549	0.000244	2.437204	0.412873	-0.004875
1034	5.1650e-01	9.6655	21.227319	0.000252	2.522720	0.427360	-0.005046
1035	5.1700e-01	9.6564	21.214490	0.000128	1.282739	0.217302	-0.002566
1036	5.1750e-01	9.6466	21.200806	0.000137	1.368255	0.231789	-0.002737
1037	5.1800e-01	9.6375	21.189260	0.000115	1.154465	0.195572	-0.002309
1038	5.1850e-01	9.6240	21.172583	0.000167	1.667560	0.282492	-0.003335
1039	5.1900e-01	9.6143	21.139655	0.000329	3.292363	0.557741	-0.006585
1040	5.1950e-01	9.6057	21.137090	0.000026	0.256548	0.043460	-0.000513
1041	5.2000e-01	9.5941	21.097321	0.000398	3.976490	0.673636	-0.007954
1042	5.2050e-01	9.5886	21.066959	0.000304	3.035815	0.514281	-0.006072
1043	5.2100e-01	9.5770	21.034032	0.000329	3.292363	0.557741	-0.006585
1044	5.2150e-01	9.5663	21.030611	0.000034	0.342064	0.057947	-0.000684
1045	5.2200e-01	9.5599	21.009657	0.000210	2.095140	0.354926	-0.004191
1046	5.2250e-01	9.5447	20.981434	0.000282	2.822025	0.478064	-0.005645
1047	5.2300e-01	9.5355	20.965184	0.000162	1.624802	0.275249	-0.003250
1048	5.2350e-01	9.5239	20.934395	0.000308	3.078573	0.521524	-0.006158
1049	5.2400e-01	9.5157	20.913869	0.000205	2.052382	0.347683	-0.004105
1050	5.2450e-01	9.5044	20.908310	0.000056	0.555853	0.094164	-0.001112
1051	5.2500e-01	9.4934	20.855712	0.000526	5.259229	0.890938	-0.010520
1052	5.2550e-01	9.4879	20.841173	0.000145	1.453771	0.246275	-0.002908
1053	5.2600e-01	9.4763	20.840318	0.000009	0.085516	0.014487	-0.000171
1054	5.2650e-01	9.4655	20.786009	0.000543	5.430261	0.919911	-0.010862
1055	5.2700e-01	9.4562	20.766766	0.000192	1.924108	0.325953	-0.003849
1056	5.2750e-01	9.4446	20.742819	0.000239	2.394446	0.405630	-0.004789
1057	5.2800e-01	9.4360	20.734694	0.000081	0.812401	0.137624	-0.001625
1058	5.2850e-01	9.4281	20.702195	0.000325	3.249605	0.550498	-0.006500
1059	5.2900e-01	9.4189	20.682096	0.000201	2.009624	0.340440	-0.004020
1060	5.2950e-01	9.4049	20.644893	0.000372	3.719943	0.630175	-0.007441
1061	5.3000e-01	9.3945	20.614104	0.000308	3.078573	0.521524	-0.006158
1062	5.3050e-01	9.3860	20.597854	0.000162	1.624802	0.275249	-0.003250
1063	5.3100e-01	9.3762	20.584598	0.000133	1.325497	0.224545	-0.002651
1064	5.3150e-01	9.3655	20.566210	0.000184	1.838592	0.311466	-0.003678
1065	5.3200e-01	9.3539	20.528579	0.000376	3.762701	0.637419	-0.007526
1066	5.3250e-01	9.3433	20.494369	0.000342	3.420637	0.579472	-0.006842
1067	5.3300e-01	9.3347	20.481113	0.000133	1.325497	0.224545	-0.002651
1068	5.3350e-01	9.3262	20.467429	0.000137	1.368255	0.231789	-0.002737
1069	5.3400e-01	9.3146	20.432791	0.000346	3.463395	0.586715	-0.006928
1070	5.3450e-01	9.3060	20.397298	0.000355	3.548911	0.601202	-0.007099
1071	5.3500e-01	9.2981	20.394732	0.000026	0.256548	0.043460	-0.000513
1072	5.3550e-01	9.2834	20.358812	0.000359	3.591669	0.608445	-0.007184
1073	5.3600e-01	9.2776	20.313911	0.000449	4.489586	0.760556	-0.008980
1074	5.3650e-01	9.2664	20.294668	0.000192	1.924108	0.325953	-0.003849
1075	5.3700e-01	9.2560	20.279273	0.000154	1.539287	0.260762	-0.003079
1076	5.3750e-01	9.2444	20.257037	0.000222	2.223414	0.376657	-0.004447
1077	5.3800e-01	9.2334	20.247629	0.000094	0.940675	0.159355	-0.001882
1078	5.3850e-01	9.2255	20.200163	0.000475	4.746134	0.804017	-0.009493
1079	5.3900e-01	9.2151	20.185623	0.000145	1.453771	0.246275	-0.002908
1080	5.3950e-01	9.2065	20.137729	0.000479	4.788892	0.811260	-0.009579
1081	5.4000e-01	9.1956	20.120624	0.000171	1.710318	0.289736	-0.003421
1082	5.4050e-01	9.1855	20.087697	0.000329	3.292363	0.557741	-0.006585
1083	5.4100e-01	9.1748	20.097960	-0.000103	-1.026191	-0.173841	0.002053
1084	5.4150e-01	9.1644	20.051349	0.000466	4.660618	0.789530	-0.009322
1085	5.4200e-01	9.1565	20.010725	0.000406	4.062006	0.688122	-0.008125
1086	5.4250e-01	9.1461	19.991909	0.000188	1.881350	0.318709	-0.003763
1087	5.4300e-01	9.1351	19.975659	0.000162	1.624802	0.275249	-0.003250
1088	5.4350e-01	9.1278	19.942732	0.000329	3.292363	0.557741	-0.006585
1089	5.4400e-01	9.1168	19.927338	0.000154	1.539287	0.260762	-0.003079
1090	5.4450e-01	9.1083	19.899542	0.000278	2.779267	0.470821	-0.005559
1091	5.4500e-01	9.0955	19.864049	0.000355	3.548911	0.601202	-0.007099
1092	5.4550e-01	9.0866	19.843523	0.000205	2.052382	0.347683	-0.004105
1093	5.4600e-01	9.0759	19.810596	0.000329	3.292363	0.557741	-0.006585
1094	5.4650e-01	9.0662	19.778524	0.000321	3.206847	0.543255	-0.006414
1095	5.4700e-01	9.0564	19.773393	0.000051	0.513096	0.086921	-0.001026
1096	5.4750e-01	9.0472	19.732341	0.000410	4.104764	0.695366	-0.008210
1097	5.4800e-01	9.0375	19.711387	0.000210	2.095140	0.354926	-0.004191
1098	5.4850e-01	9.0253	19.654940	0.000564	5.644051	0.956128	-0.011289
1099	5.4900e-01	9.0155	19.648526	0.000064	0.641369	0.108651	-0.001283
1100	5.4950e-01	9.0088	19.635697	0.000128	1.282739	0.217302	-0.002566
1101	5.5000e-01	8.9981	19.607046	0.000286	2.864783	0.485307	-0.005730
1102	5.5050e-01	8.9862	19.576685	0.000304	3.035815	0.514281	-0.006072
1103	5.5100e-01	8.9764	19.565139	0.000115	1.154465	0.195572	-0.002309
1104	5.5150e-01	8.9651	19.526225	0.000389	3.890974	0.659149	-0.007783
1105	5.5200e-01	8.9545	19.499713	0.000265	2.650994	0.449090	-0.005303
1106	5.5250e-01	8.9447	19.450963	0.000487	4.874407	0.825747	-0.009750
1107	5.5300e-01	8.9355	19.435141	0.000158	1.582045	0.268006	-0.003164
1108	5.5350e-01	8.9282	19.419747	0.000154	1.539287	0.260762	-0.003079
1109	5.5400e-01	8.9185	19.388958	0.000308	3.078573	0.521524	-0.006158
1110	5.5450e-01	8.9038	19.358169	0.000308	3.078573	0.521524	-0.006158
1111	5.5500e-01	8.8947	19.336360	0.000218	2.180656	0.369413	-0.004362
1112	5.5550e-01	8.8864	19.318399	0.000180	1.795834	0.304223	-0.003592
1113	5.5600e-01	8.8776	19.275209	0.000432	4.318554	0.731583	-0.008638
1114	5.5650e-01	8.8663	19.258104	0.000171	1.710318	0.289736	-0.003421
1115	5.5700e-01	8.8568	19.230309	0.000278	2.779267	0.470821	-0.005559
1116	5.5750e-01	8.8452	19.204651	0.000257	2.565478	0.434604	-0.005132
1117	5.5800e-01	8.8379	19.169586	0.000351	3.506153	0.593958	-0.007013
1118	5.5850e-01	8.8281	19.146066	0.000235	2.351688	0.398387	-0.004704
1119	5.5900e-01	8.8165	19.119126	0.000269	2.693752	0.456334	-0.005388
1120	5.5950e-01	8.8049	19.102876	0.000162	1.624802	0.275249	-0.003250
1121	5.6000e-01	8.7970	19.064818	0.000381	3.805458	0.644662	-0.007612
1122	5.6050e-01	8.7860	19.026331	0.000385	3.848216	0.651906	-0.007697
1123	5.6100e-01	8.7769	19.006661	0.000197	1.966866	0.333196	-0.003934
1124	5.6150e-01	8.7659	18.975016	0.000316	3.164089	0.536011	-0.006329
1125	5.6200e-01	8.7543	18.953635	0.000214	2.137898	0.362170	-0.004276
1126	5.6250e-01	8.7476	18.930543	0.000231	2.308930	0.391143	-0.004618
1127	5.6300e-01	8.7354	18.887781	0.000428	4.275796	0.724339	-0.008553
1128	5.6350e-01	8.7259	18.874952	0.000128	1.282739	0.217302	-0.002566
1129	5.6400e-01	8.7146	18.832617	0.000423	4.233038	0.717096	-0.008467
1130	5.6450e-01	8.7048	18.813374	0.000192	1.924108	0.325953	-0.003849
1131	5.6500e-01	8.6942	18.809098	0.000043	0.427580	0.072434	-0.000855
1132	5.6550e-01	8.6853	18.768046	0.000410	4.104764	0.695366	-0.008210
1133	5.6600e-01	8.6768	18.742388	0.000257	2.565478	0.434604	-0.005132
1134	5.6650e-01	8.6670	18.706040	0.000363	3.634427	0.615689	-0.007270
1135	5.6700e-01	8.6554	18.694067	0.000120	1.197223	0.202815	-0.002395
1136	5.6750e-01	8.6469	18.642324	0.000517	5.173713	0.876451	-0.010349
1137	5.6800e-01	8.6377	18.613673	0.000286	2.864783	0.485307	-0.005730
1138	5.6850e-01	8.6249	18.587588	0.000261	2.608236	0.441847	-0.005217
1139	5.6900e-01	8.6188	18.556371	0.000312	3.121331	0.528768	-0.006243
1140	5.6950e-01	8.6041	18.546536	0.000098	0.983433	0.166598	-0.001967
1141	5.7000e-01	8.5956	18.513609	0.000329	3.292363	0.557741	-0.006585
1142	5.7050e-01	8.5840	18.467425	0.000462	4.617860	0.782287	-0.009237
1143	5.7100e-01	8.5770	18.443478	0.000239	2.394446	0.405630	-0.004789
1144	5.7150e-01	8.5675	18.407130	0.000363	3.634427	0.615689	-0.007270
1145	5.7200e-01	8.5596	18.387887	0.000192	1.924108	0.325953	-0.003849
1146	5.7250e-01	8.5461	18.358381	0.000295	2.950299	0.499794	-0.005901
1147	5.7300e-01	8.5364	18.320322	0.000381	3.805458	0.644662	-0.007612
1148	5.7350e-01	8.5248	18.290816	0.000295	2.950299	0.499794	-0.005901
1149	5.7400e-01	8.5132	18.254895	0.000359	3.591669	0.608445	-0.007184
1150	5.7450e-01	8.5022	18.237790	0.000171	1.710318	0.289736	-0.003421
1151	5.7500e-01	8.4967	18.206146	0.000316	3.164089	0.536011	-0.006329
1152	5.7550e-01	8.4845	18.189896	0.000162	1.624802	0.275249	-0.003250
1153	5.7600e-01	8.4769	18.155259	0.000346	3.463395	0.586715	-0.006928
1154	5.7650e-01	8.4662	18.123187	0.000321	3.206847	0.543255	-0.006414
1155	5.7700e-01	8.4570	18.105654	0.000175	1.753076	0.296979	-0.003507
1156	5.7750e-01	8.4485	18.059898	0.000458	4.575102	0.775043	-0.009151
1157	5.7800e-01	8.4344	18.059471	0.000004	0.042758	0.007243	-0.000086
1158	5.7850e-01	8.4244	18.015853	0.000436	4.361312	0.738826	-0.008724
1159	5.7900e-01	8.4164	17.994472	0.000214	2.137898	0.362170	-0.004276
1160	5.7950e-01	8.4094	17.944439	0.000500	5.002681	0.847477	-0.010006
1161	5.8000e-01	8.3972	17.940591	0.000038	0.384822	0.065191	-0.000770
1162	5.8050e-01	8.3856	17.885855	0.000547	5.473019	0.927155	-0.010947
1163	5.8100e-01	8.3740	17.855493	0.000304	3.035815	0.514281	-0.006072
1164	5.8150e-01	8.3638	17.832402	0.000231	2.308930	0.391143	-0.004618
1165	5.8200e-01	8.3582	17.821283	0.000111	1.111707	0.188328	-0.002224
1166	5.8250e-01	8.3447	17.771679	0.000496	4.959923	0.840234	-0.009921
1167	5.8300e-01	8.3356	17.761416	0.000103	1.026191	0.173841	-0.002053
1168	5.8350e-01	8.3264	17.724212	0.000372	3.719943	0.630175	-0.007441
1169	5.8400e-01	8.3182	17.693851	0.000304	3.035815	0.514281	-0.006072
1170	5.8450e-01	8.3038	17.653227	0.000406	4.062006	0.688122	-0.008125
1171	5.8500e-01	8.2953	17.631845	0.000214	2.137898	0.362170	-0.004276
1172	5.8550e-01	8.2849	17.615168	0.000167	1.667560	0.282492	-0.003335
1173	5.8600e-01	8.2764	17.574544	0.000406	4.062006	0.688122	-0.008125
1174	5.8650e-01	8.2654	17.548031	0.000265	2.650994	0.449090	-0.005303
1175	5.8700e-01	8.2556	17.514676	0.000334	3.335121	0.564985	-0.006671
1176	5.8750e-01	8.2434	17.492012	0.000227	2.266172	0.383900	-0.004533
1177	5.8800e-01	8.2355	17.462933	0.000291	2.907541	0.492551	-0.005816
1178	5.8850e-01	8.2281	17.411618	0.000513	5.130955	0.869207	-0.010263
1179	5.8900e-01	8.2166	17.397079	0.000145	1.453771	0.246275	-0.002908
1180	5.8950e-01	8.2056	17.376125	0.000210	2.095140	0.354926	-0.004191
1181	5.9000e-01	8.1952	17.339777	0.000363	3.634427	0.615689	-0.007270
1182	5.9050e-01	8.1848	17.306422	0.000334	3.335121	0.564985	-0.006671
1183	5.9100e-01	8.1726	17.297015	0.000094	0.940675	0.159355	-0.001882
1184	5.9150e-01	8.1665	17.248265	0.000487	4.874407	0.825747	-0.009750
1185	5.9200e-01	8.1549	17.202937	0.000453	4.532344	0.767800	-0.009066
1186	5.9250e-01	8.1445	17.193957	0.000090	0.897917	0.152111	-0.001796
1187	5.9300e-01	8.1378	17.160175	0.000338	3.377879	0.572228	-0.006756
1188	5.9350e-01	8.1250	17.118267	0.000419	4.190280	0.709853	-0.008381
1189	5.9400e-01	8.1152	17.116557	0.000017	0.171032	0.028974	-0.000342
1190	5.9450e-01	8.1073	17.064387	0.000522	5.216471	0.883694	-0.010434
1191	5.9500e-01	8.0988	17.042578	0.000218	2.180656	0.369413	-0.004362
1192	5.9550e-01	8.0853	17.018203	0.000244	2.437204	0.412873	-0.004875
1193	5.9600e-01	8.0756	16.983993	0.000342	3.420637	0.579472	-0.006842
1194	5.9650e-01	8.0646	16.958336	0.000257	2.565478	0.434604	-0.005132
1195	5.9700e-01	8.0557	16.913435	0.000449	4.489586	0.760556	-0.008980
1196	5.9750e-01	8.0466	16.900178	0.000133	1.325497	0.224545	-0.002651
1197	5.9800e-01	8.0359	16.866396	0.000338	3.377879	0.572228	-0.006756
1198	5.9850e-01	8.0261	16.818502	0.000479	4.788892	0.811260	-0.009579
1199	5.9900e-01	8.0151	16.803535	0.000150	1.496529	0.253519	-0.002993
1200	5.9950e-01	8.0048	16.761200	0.000423	4.233038	0.717096	-0.008467
1201	6.0000e-01	7.9974	16.753931	0.000073	0.726885	0.123138	-0.001454
1202	6.0050e-01	7.9874	16.702616	0.000513	5.130955	0.869207	-0.010263
1203	6.0100e-01	7.9761	16.672682	0.000299	2.993057	0.507038	-0.005987
1204	6.0150e-01	7.9675	16.654722	0.000180	1.795834	0.304223	-0.003592
1205	6.0200e-01	7.9532	16.612814	0.000419	4.190280	0.709853	-0.008381
1206	6.0250e-01	7.9456	16.604262	0.000086	0.855159	0.144868	-0.001711
1207	6.0300e-01	7.9364	16.556368	0.000479	4.788892	0.811260	-0.009579
1208	6.0350e-01	7.9291	16.525579	0.000308	3.078573	0.521524	-0.006158
1209	6.0400e-01	7.9129	16.501632	0.000239	2.394446	0.405630	-0.004789
1210	6.0450e-01	7.9053	16.452027	0.000496	4.959923	0.840234	-0.009921
1211	6.0500e-01	7.8925	16.434495	0.000175	1.753076	0.296979	-0.003507
1212	6.0550e-01	7.8845	16.390877	0.000436	4.361312	0.738826	-0.008724
1213	6.0600e-01	7.8772	16.387883	0.000030	0.299306	0.050704	-0.000599
1214	6.0650e-01	7.8668	16.343410	0.000445	4.446828	0.753313	-0.008895
1215	6.0700e-01	7.8558	16.312621	0.000308	3.078573	0.521524	-0.006158
1216	6.0750e-01	7.8479	16.270286	0.000423	4.233038	0.717096	-0.008467
1217	6.0800e-01	7.8372	16.240353	0.000299	2.993057	0.507038	-0.005987
1218	6.0850e-01	7.8223	16.235221	0.000051	0.513096	0.086921	-0.001026
1219	6.0900e-01	7.8149	16.190321	0.000449	4.489586	0.760556	-0.008980
1220	6.0950e-01	7.8030	16.159532	0.000308	3.078573	0.521524	-0.006158
1221	6.1000e-01	7.7975	16.137295	0.000222	2.223414	0.376657	-0.004447
1222	6.1050e-01	7.7875	16.097953	0.000393	3.933732	0.666392	-0.007868
1223	6.1100e-01	7.7762	16.073579	0.000244	2.437204	0.412873	-0.004875
1224	6.1150e-01	7.7658	16.043645	0.000299	2.993057	0.507038	-0.005987
1225	6.1200e-01	7.7579	16.006869	0.000368	3.677185	0.622932	-0.007355
1226	6.1250e-01	7.7444	15.964107	0.000428	4.275796	0.724339	-0.008553
1227	6.1300e-01	7.7351	15.941015	0.000231	2.308930	0.391143	-0.004618
1228	6.1350e-01	7.7234	15.923055	0.000180	1.795834	0.304223	-0.003592
1229	6.1400e-01	7.7161	15.883286	0.000398	3.976490	0.673636	-0.007954
1230	6.1450e-01	7.7039	15.858483	0.000248	2.479962	0.420117	-0.004960
1231	6.1500e-01	7.6941	15.818287	0.000402	4.019248	0.680879	-0.008039
1232	6.1550e-01	7.6843	15.770393	0.000479	4.788892	0.811260	-0.009579
1233	6.1600e-01	7.6758	15.731479	0.000389	3.890974	0.659149	-0.007783
1234	6.1650e-01	7.6660	15.729340	0.000021	0.213790	0.036217	-0.000428
1235	6.1700e-01	7.6550	15.686150	0.000432	4.318554	0.731583	-0.008638
1236	6.1750e-01	7.6436	15.663914	0.000222	2.223414	0.376657	-0.004447
1237	6.1800e-01	7.6349	15.628421	0.000355	3.548911	0.601202	-0.007099
1238	6.1850e-01	7.6236	15.590362	0.000381	3.805458	0.644662	-0.007612
1239	6.1900e-01	7.6141	15.570264	0.000201	2.009624	0.340440	-0.004020
1240	6.1950e-01	7.6080	15.554014	0.000162	1.624802	0.275249	-0.003250
1241	6.2000e-01	7.5958	15.514673	0.000393	3.933732	0.666392	-0.007868
1242	6.2050e-01	7.5848	15.483028	0.000316	3.164089	0.536011	-0.006329
1243	6.2100e-01	7.5769	15.445825	0.000372	3.719943	0.630175	-0.007441
1244	6.2150e-01	7.5667	15.407339	0.000385	3.848216	0.651906	-0.007697
1245	6.2200e-01	7.5555	15.397076	0.000103	1.026191	0.173841	-0.002053
1246	6.2250e-01	7.5464	15.341912	0.000552	5.515777	0.934398	-0.011033
1247	6.2300e-01	7.5342	15.323524	0.000184	1.838592	0.311466	-0.003678
1248	6.2350e-01	7.5281	15.282044	0.000415	4.147522	0.702609	-0.008296
1249	6.2400e-01	7.5198	15.262374	0.000197	1.966866	0.333196	-0.003934
1250	6.2450e-01	7.5085	15.219611	0.000428	4.275796	0.724339	-0.008553
1251	6.2500e-01	7.4963	15.182835	0.000368	3.677185	0.622932	-0.007355
1252	6.2550e-01	7.4867	15.137079	0.000458	4.575102	0.775043	-0.009151
1253	6.2600e-01	7.4750	15.134086	0.000030	0.299306	0.050704	-0.000599
1254	6.2650e-01	7.4655	15.082771	0.000513	5.130955	0.869207	-0.010263
1255	6.2700e-01	7.4542	15.053265	0.000295	2.950299	0.499794	-0.005901
1256	6.2750e-01	7.4457	15.037015	0.000162	1.624802	0.275249	-0.003250
1257	6.2800e-01	7.4353	14.991259	0.000458	4.575102	0.775043	-0.009151
1258	6.2850e-01	7.4286	14.974154	0.000171	1.710318	0.289736	-0.003421
1259	6.2900e-01	7.4176	14.942938	0.000312	3.121331	0.528768	-0.006243
1260	6.2950e-01	7.4060	14.906162	0.000368	3.677185	0.622932	-0.007355
1261	6.3000e-01	7.3962	14.892478	0.000137	1.368255	0.231789	-0.002737
1262	6.3050e-01	7.3840	14.838169	0.000543	5.430261	0.919911	-0.010862
1263	6.3100e-01	7.3755	14.782150	0.000560	5.601293	0.948885	-0.011204
1264	6.3150e-01	7.3645	14.786427	-0.000043	-0.427580	-0.072434	0.000855
1265	6.3200e-01	7.3566	14.741098	0.000453	4.532344	0.767800	-0.009066
1266	6.3250e-01	7.3459	14.718007	0.000231	2.308930	0.391143	-0.004618
1267	6.3300e-01	7.3352	14.697481	0.000205	2.052382	0.347683	-0.004105
1268	6.3350e-01	7.3245	14.652152	0.000453	4.532344	0.767800	-0.009066
1269	6.3400e-01	7.3163	14.631199	0.000210	2.095140	0.354926	-0.004191
1270	6.3450e-01	7.3071	14.591430	0.000398	3.976490	0.673636	-0.007954
1271	6.3500e-01	7.2968	14.554226	0.000372	3.719943	0.630175	-0.007441
1272	6.3550e-01	7.2852	14.520871	0.000334	3.335121	0.564985	-0.006671
1273	6.3600e-01	7.2766	14.494359	0.000265	2.650994	0.449090	-0.005303
1274	6.3650e-01	7.2656	14.469556	0.000248	2.479962	0.420117	-0.004960
1275	6.3700e-01	7.2559	14.422945	0.000466	4.660618	0.789530	-0.009322
1276	6.3750e-01	7.2455	14.411827	0.000111	1.111707	0.188328	-0.002224
1277	6.3800e-01	7.2354	14.351532	0.000603	6.028872	1.021319	-0.012059
1278	6.3850e-01	7.2272	14.307914	0.000436	4.361312	0.738826	-0.008724
1279	6.3900e-01	7.2159	14.290381	0.000175	1.753076	0.296979	-0.003507
1280	6.3950e-01	7.2034	14.267717	0.000227	2.266172	0.383900	-0.004533
1281	6.4000e-01	7.1954	14.233080	0.000346	3.463395	0.586715	-0.006928
1282	6.4050e-01	7.1869	14.204429	0.000286	2.864783	0.485307	-0.005730
1283	6.4100e-01	7.1750	14.168936	0.000355	3.548911	0.601202	-0.007099
1284	6.4150e-01	7.1655	14.137292	0.000316	3.164089	0.536011	-0.006329
1285	6.4200e-01	7.1561	14.106075	0.000312	3.121331	0.528768	-0.006243
1286	6.4250e-01	7.1490	14.082128	0.000239	2.394446	0.405630	-0.004789
1287	6.4300e-01	7.1359	14.030385	0.000517	5.173713	0.876451	-0.010349
1288	6.4350e-01	7.1262	13.996175	0.000342	3.420637	0.579472	-0.006842
1289	6.4400e-01	7.1161	13.961965	0.000342	3.420637	0.579472	-0.006842
1290	6.4450e-01	7.1057	13.942722	0.000192	1.924108	0.325953	-0.003849
1291	6.4500e-01	7.0967	13.916637	0.000261	2.608236	0.441847	-0.005217
1292	6.4550e-01	7.0865	13.867888	0.000487	4.874407	0.825747	-0.009750
1293	6.4600e-01	7.0764	13.840092	0.000278	2.779267	0.470821	-0.005559
1294	6.4650e-01	7.0673	13.804171	0.000359	3.591669	0.608445	-0.007184
1295	6.4700e-01	7.0578	13.749435	0.000547	5.473019	0.927155	-0.010947
1296	6.4750e-01	7.0459	13.748580	0.000009	0.085516	0.014487	-0.000171
1297	6.4800e-01	7.0358	13.690423	0.000582	5.815083	0.985102	-0.011631
1298	6.4850e-01	7.0248	13.672891	0.000175	1.753076	0.296979	-0.003507
1299	6.4900e-01	7.0135	13.641246	0.000316	3.164089	0.536011	-0.006329
1300	6.4950e-01	7.0056	13.623714	0.000175	1.753076	0.296979	-0.003507
1301	6.5000e-01	6.9965	13.569833	0.000539	5.387503	0.912668	-0.010776
1302	6.5050e-01	6.9876	13.540754	0.000291	2.907541	0.492551	-0.005816
1303	6.5100e-01	6.9788	13.518090	0.000227	2.266172	0.383900	-0.004533
1304	6.5150e-01	6.9672	13.461644	0.000564	5.644051	0.956128	-0.011289
1305	6.5200e-01	6.9594	13.457367	0.000043	0.427580	0.072434	-0.000855
1306	6.5250e-01	6.9452	13.406480	0.000509	5.088197	0.861964	-0.010177
1307	6.5300e-01	6.9336	13.380395	0.000261	2.608236	0.441847	-0.005217
1308	6.5350e-01	6.9269	13.338915	0.000415	4.147522	0.702609	-0.008296
1309	6.5400e-01	6.9165	13.331218	0.000077	0.769643	0.130381	-0.001539
1310	6.5450e-01	6.9052	13.269640	0.000616	6.157146	1.043049	-0.012316
1311	6.5500e-01	6.8961	13.235430	0.000342	3.420637	0.579472	-0.006842
1312	6.5550e-01	6.8866	13.207634	0.000278	2.779267	0.470821	-0.005559
1313	6.5600e-01	6.8768	13.187108	0.000205	2.052382	0.347683	-0.004105
1314	6.5650e-01	6.8652	13.150760	0.000363	3.634427	0.615689	-0.007270
1315	6.5700e-01	6.8607	13.100728	0.000500	5.002681	0.847477	-0.010006
1316	6.5750e-01	6.8445	13.083623	0.000171	1.710318	0.289736	-0.003421
1317	6.5800e-01	6.8372	13.046847	0.000368	3.677185	0.622932	-0.007355
1318	6.5850e-01	6.8256	13.015203	0.000316	3.164089	0.536011	-0.006329
1319	6.5900e-01	6.8146	12.980993	0.000342	3.420637	0.579472	-0.006842
1320	6.5950e-01	6.8048	12.941651	0.000393	3.933732	0.666392	-0.007868
1321	6.6000e-01	6.7963	12.915139	0.000265	2.650994	0.449090	-0.005303
1322	6.6050e-01	6.7865	12.852278	0.000629	6.285420	1.064779	-0.012572
1323	6.6100e-01	6.7761	12.850140	0.000021	0.213790	0.036217	-0.000428
1324	6.6150e-01	6.7648	12.812508	0.000376	3.762701	0.637419	-0.007526
1325	6.6200e-01	6.7578	12.776588	0.000359	3.591669	0.608445	-0.007184
1326	6.6250e-01	6.7438	12.730404	0.000462	4.617860	0.782287	-0.009237
1327	6.6300e-01	6.7371	12.718859	0.000115	1.154465	0.195572	-0.002309
1328	6.6350e-01	6.7255	12.679089	0.000398	3.976490	0.673636	-0.007954
1329	6.6400e-01	6.7175	12.639320	0.000398	3.976490	0.673636	-0.007954
1330	6.6450e-01	6.7035	12.623070	0.000162	1.624802	0.275249	-0.003250
1331	6.6500e-01	6.6949	12.577742	0.000453	4.532344	0.767800	-0.009066
1332	6.6550e-01	6.6824	12.567907	0.000098	0.983433	0.166598	-0.001967
1333	6.6600e-01	6.6736	12.520868	0.000470	4.703376	0.796773	-0.009408
1334	6.6650e-01	6.6653	12.487513	0.000334	3.335121	0.564985	-0.006671
1335	6.6700e-01	6.6534	12.446889	0.000406	4.062006	0.688122	-0.008125
1336	6.6750e-01	6.6451	12.404126	0.000428	4.275796	0.724339	-0.008553
1337	6.6800e-01	6.6345	12.390015	0.000141	1.411013	0.239032	-0.002822
1338	6.6850e-01	6.6235	12.361364	0.000286	2.864783	0.485307	-0.005730
1339	6.6900e-01	6.6147	12.297648	0.000637	6.370936	1.079266	-0.012743
1340	6.6950e-01	6.6034	12.248898	0.000487	4.874407	0.825747	-0.009750
1341	6.7000e-01	6.5955	12.242912	0.000060	0.598611	0.101408	-0.001197
1342	6.7050e-01	6.5845	12.199721	0.000432	4.318554	0.731583	-0.008638
1343	6.7100e-01	6.5756	12.169788	0.000299	2.993057	0.507038	-0.005987
1344	6.7150e-01	6.5662	12.127880	0.000419	4.190280	0.709853	-0.008381
1345	6.7200e-01	6.5521	12.113769	0.000141	1.411013	0.239032	-0.002822
1346	6.7250e-01	6.5482	12.062881	0.000509	5.088197	0.861964	-0.010177
1347	6.7300e-01	6.5369	12.040645	0.000222	2.223414	0.376657	-0.004447
1348	6.7350e-01	6.5265	12.002159	0.000385	3.848216	0.651906	-0.007697
1349	6.7400e-01	6.5143	11.970942	0.000312	3.121331	0.528768	-0.006243
1350	6.7450e-01	6.5041	11.937160	0.000338	3.377879	0.572228	-0.006756
1351	6.7500e-01	6.4935	11.908936	0.000282	2.822025	0.478064	-0.005645
1352	6.7550e-01	6.4870	11.888410	0.000205	2.052382	0.347683	-0.004105
1353	6.7600e-01	6.4758	11.846075	0.000423	4.233038	0.717096	-0.008467
1354	6.7650e-01	6.4655	11.798609	0.000475	4.746134	0.804017	-0.009493
1355	6.7700e-01	6.4594	11.774234	0.000244	2.437204	0.412873	-0.004875
1356	6.7750e-01	6.4447	11.729334	0.000449	4.489586	0.760556	-0.008980
1357	6.7800e-01	6.4359	11.704531	0.000248	2.479962	0.420117	-0.004960
1358	6.7850e-01	6.4252	11.655354	0.000492	4.917165	0.832990	-0.009835
1359	6.7900e-01	6.4154	11.621144	0.000342	3.420637	0.579472	-0.006842
1360	6.7950e-01	6.4038	11.594632	0.000265	2.650994	0.449090	-0.005303
1361	6.8000e-01	6.3954	11.557428	0.000372	3.719943	0.630175	-0.007441
1362	6.8050e-01	6.3873	11.519797	0.000376	3.762701	0.637419	-0.007526
1363	6.8100e-01	6.3730	11.476607	0.000432	4.318554	0.731583	-0.008638
1364	6.8150e-01	6.3647	11.451805	0.000248	2.479962	0.420117	-0.004960
1365	6.8200e-01	6.3513	11.444963	0.000068	0.684127	0.115894	-0.001368
1366	6.8250e-01	6.3446	11.380819	0.000641	6.413694	1.086509	-0.012829
1367	6.8300e-01	6.3336	11.362004	0.000188	1.881350	0.318709	-0.003763
1368	6.8350e-01	6.3248	11.316675	0.000453	4.532344	0.767800	-0.009066
1369	6.8400e-01	6.3159	11.280327	0.000363	3.634427	0.615689	-0.007270
1370	6.8450e-01	6.3037	11.219177	0.000611	6.114388	1.035805	-0.012230
1371	6.8500e-01	6.2939	11.227729	-0.000086	-0.855159	-0.144868	0.001711
1372	6.8550e-01	6.2878	11.190953	0.000368	3.677185	0.622932	-0.007355
1373	6.8600e-01	6.2745	11.150329	0.000406	4.062006	0.688122	-0.008125
1374	6.8650e-01	6.2665	11.100725	0.000496	4.959923	0.840234	-0.009921
1375	6.8700e-01	6.2543	11.050692	0.000500	5.002681	0.847477	-0.010006
1376	6.8750e-01	6.2460	11.026318	0.000244	2.437204	0.412873	-0.004875
1377	6.8800e-01	6.2366	11.010068	0.000162	1.624802	0.275249	-0.003250
1378	6.8850e-01	6.2244	10.960891	0.000492	4.917165	0.832990	-0.009835
1379	6.8900e-01	6.2152	10.925826	0.000351	3.506153	0.593958	-0.007013
1380	6.8950e-01	6.2032	10.885201	0.000406	4.062006	0.688122	-0.008125
1381	6.9000e-01	6.1984	10.850136	0.000351	3.506153	0.593958	-0.007013
1382	6.9050e-01	6.1865	10.814216	0.000359	3.591669	0.608445	-0.007184
1383	6.9100e-01	6.1743	10.762901	0.000513	5.130955	0.869207	-0.010263
1384	6.9150e-01	6.1633	10.765894	-0.000030	-0.299306	-0.050704	0.000599
1385	6.9200e-01	6.1569	10.702605	0.000633	6.328178	1.072022	-0.012658
1386	6.9250e-01	6.1482	10.696191	0.000064	0.641369	0.108651	-0.001283
1387	6.9300e-01	6.1331	10.663691	0.000325	3.249605	0.550498	-0.006500
1388	6.9350e-01	6.1261	10.616225	0.000475	4.746134	0.804017	-0.009493
1389	6.9400e-01	6.1157	10.578166	0.000381	3.805458	0.644662	-0.007612
1390	6.9450e-01	6.1072	10.538397	0.000398	3.976490	0.673636	-0.007954
1391	6.9500e-01	6.0959	10.508463	0.000299	2.993057	0.507038	-0.005987
1392	6.9550e-01	6.0841	10.469977	0.000385	3.848216	0.651906	-0.007697
1393	6.9600e-01	6.0751	10.425077	0.000449	4.489586	0.760556	-0.008980
1394	6.9650e-01	6.0681	10.419945	0.000051	0.513096	0.086921	-0.001026
1395	6.9700e-01	6.0556	10.360933	0.000590	5.900599	0.999588	-0.011802
1396	6.9750e-01	6.0477	10.341690	0.000192	1.924108	0.325953	-0.003849
1397	6.9800e-01	6.0352	10.289947	0.000517	5.173713	0.876451	-0.010349
1398	6.9850e-01	6.0260	10.269849	0.000201	2.009624	0.340440	-0.004020
1399	6.9900e-01	6.0168	10.223237	0.000466	4.660618	0.789530	-0.009322
1400	6.9950e-01	6.0046	10.185179	0.000381	3.805458	0.644662	-0.007612
1401	7.0000e-01	5.9955	10.155673	0.000295	2.950299	0.499794	-0.005901
1402	7.0050e-01	5.9851	10.116331	0.000393	3.933732	0.666392	-0.007868
1403	7.0100e-01	5.9707	10.088963	0.000274	2.736509	0.463577	-0.005474
1404	7.0150e-01	5.9656	10.059457	0.000295	2.950299	0.499794	-0.005901
1405	7.0200e-01	5.9552	9.993603	0.000658	6.584726	1.115483	-0.013171
1406	7.0250e-01	5.9448	9.982484	0.000111	1.111707	0.188328	-0.002224
1407	7.0300e-01	5.9338	9.938867	0.000436	4.361312	0.738826	-0.008724
1408	7.0350e-01	5.9254	9.909788	0.000291	2.907541	0.492551	-0.005816
1409	7.0400e-01	5.9161	9.870447	0.000393	3.933732	0.666392	-0.007868
1410	7.0450e-01	5.9029	9.819987	0.000505	5.045439	0.854721	-0.010092
1411	7.0500e-01	5.8969	9.779362	0.000406	4.062006	0.688122	-0.008125
1412	7.0550e-01	5.8862	9.761830	0.000175	1.753076	0.296979	-0.003507
1413	7.0600e-01	5.8772	9.696403	0.000654	6.541968	1.108239	-0.013085
1414	7.0650e-01	5.8658	9.677588	0.000188	1.881350	0.318709	-0.003763
1415	7.0700e-01	5.8548	9.638674	0.000389	3.890974	0.659149	-0.007783
1416	7.0750e-01	5.8455	9.630976	0.000077	0.769643	0.130381	-0.001539
1417	7.0800e-01	5.8362	9.577951	0.000530	5.301987	0.898181	-0.010605
1418	7.0850e-01	5.8246	9.529629	0.000483	4.831650	0.818504	-0.009664
1419	7.0900e-01	5.8167	9.488577	0.000410	4.104764	0.695366	-0.008210
1420	7.0950e-01	5.8081	9.475748	0.000128	1.282739	0.217302	-0.002566
1421	7.1000e-01	5.7961	9.429137	0.000466	4.660618	0.789530	-0.009322
1422	7.1050e-01	5.7887	9.392789	0.000363	3.634427	0.615689	-0.007270
1423	7.1100e-01	5.7764	9.352592	0.000402	4.019248	0.680879	-0.008039
1424	7.1150e-01	5.7672	9.332494	0.000201	2.009624	0.340440	-0.004020
1425	7.1200e-01	5.7562	9.301277	0.000312	3.121331	0.528768	-0.006243
1426	7.1250e-01	5.7465	9.254666	0.000466	4.660618	0.789530	-0.009322
1427	7.1300e-01	5.7355	9.221739	0.000329	3.292363	0.557741	-0.006585
1428	7.1350e-01	5.7257	9.173845	0.000479	4.788892	0.811260	-0.009579
1429	7.1400e-01	5.7147	9.141773	0.000321	3.206847	0.543255	-0.006414
1430	7.1450e-01	5.7056	9.109701	0.000321	3.206847	0.543255	-0.006414
1431	7.1500e-01	5.6960	9.066511	0.000432	4.318554	0.731583	-0.008638
1432	7.1550e-01	5.6879	9.031018	0.000355	3.548911	0.601202	-0.007099
1433	7.1600e-01	5.6750	8.989539	0.000415	4.147522	0.702609	-0.008296
1434	7.1650e-01	5.6653	8.971151	0.000184	1.838592	0.311466	-0.003678
1435	7.1700e-01	5.6580	8.920691	0.000505	5.045439	0.854721	-0.010092
1436	7.1750e-01	5.6448	8.903586	0.000171	1.710318	0.289736	-0.003421
1437	7.1800e-01	5.6374	8.843718	0.000599	5.986114	1.014075	-0.011974
1438	7.1850e-01	5.6287	8.791548	0.000522	5.216471	0.883694	-0.010434
1439	7.1900e-01	5.6158	8.779575	0.000120	1.197223	0.202815	-0.002395
1440	7.1950e-01	5.6073	8.729970	0.000496	4.959923	0.840234	-0.009921
1441	7.2000e-01	5.5969	8.698326	0.000316	3.164089	0.536011	-0.006329
1442	7.2050e-01	5.5841	8.661978	0.000363	3.634427	0.615689	-0.007270
1443	7.2100e-01	5.5757	8.621781	0.000402	4.019248	0.680879	-0.008039
1444	7.2150e-01	5.5678	8.604676	0.000171	1.710318	0.289736	-0.003421
1445	7.2200e-01	5.5573	8.558492	0.000462	4.617860	0.782287	-0.009237
1446	7.2250e-01	5.5457	8.503329	0.000552	5.515777	0.934398	-0.011033
1447	7.2300e-01	5.5353	8.493493	0.000098	0.983433	0.166598	-0.001967
1448	7.2350e-01	5.5255	8.446454	0.000470	4.703376	0.796773	-0.009408
1449	7.2400e-01	5.5145	8.392574	0.000539	5.387503	0.912668	-0.010776
1450	7.2450e-01	5.5060	8.375041	0.000175	1.753076	0.296979	-0.003507
1451	7.2500e-01	5.4987	8.342541	0.000325	3.249605	0.550498	-0.006500
1452	7.2550e-01	5.4877	8.296358	0.000462	4.617860	0.782287	-0.009237
1453	7.2600e-01	5.4733	8.258299	0.000381	3.805458	0.644662	-0.007612
1454	7.2650e-01	5.4669	8.214254	0.000440	4.404070	0.746070	-0.008809
1455	7.2700e-01	5.4565	8.197149	0.000171	1.710318	0.289736	-0.003421
1456	7.2750e-01	5.4446	8.160801	0.000363	3.634427	0.615689	-0.007270
1457	7.2800e-01	5.4364	8.101361	0.000594	5.943356	1.006832	-0.011888
1458	7.2850e-01	5.4251	8.063730	0.000376	3.762701	0.637419	-0.007526
1459	7.2900e-01	5.4138	8.047908	0.000158	1.582045	0.268006	-0.003164
1460	7.2950e-01	5.4059	7.990178	0.000577	5.772325	0.977858	-0.011546
1461	7.3000e-01	5.3967	7.954258	0.000359	3.591669	0.608445	-0.007184
1462	7.3050e-01	5.3864	7.912778	0.000415	4.147522	0.702609	-0.008296
1463	7.3100e-01	5.3766	7.883272	0.000295	2.950299	0.499794	-0.005901
1464	7.3150e-01	5.3687	7.856759	0.000265	2.650994	0.449090	-0.005303
1465	7.3200e-01	5.3558	7.828964	0.000278	2.779267	0.470821	-0.005559
1466	7.3250e-01	5.3427	7.766103	0.000629	6.285420	1.064779	-0.012572
1467	7.3300e-01	5.3326	7.728899	0.000372	3.719943	0.630175	-0.007441
1468	7.3350e-01	5.3259	7.699821	0.000291	2.907541	0.492551	-0.005816
1469	7.3400e-01	5.3162	7.664755	0.000351	3.506153	0.593958	-0.007013
1470	7.3450e-01	5.3070	7.610875	0.000539	5.387503	0.912668	-0.010776
1471	7.3500e-01	5.2957	7.608309	0.000026	0.256548	0.043460	-0.000513
1472	7.3550e-01	5.2853	7.536895	0.000714	7.140579	1.209647	-0.014283
1473	7.3600e-01	5.2771	7.481304	0.000556	5.558535	0.941641	-0.011118
1474	7.3650e-01	5.2655	7.461633	0.000197	1.966866	0.333196	-0.003934
1475	7.3700e-01	5.2576	7.407325	0.000543	5.430261	0.919911	-0.010862
1476	7.3750e-01	5.2441	7.408180	-0.000009	-0.085516	-0.014487	0.000171
1477	7.3800e-01	5.2353	7.350023	0.000582	5.815083	0.985102	-0.011631
1478	7.3850e-01	5.2258	7.288018	0.000620	6.199904	1.050292	-0.012401
1479	7.3900e-01	5.2155	7.273906	0.000141	1.411013	0.239032	-0.002822
1480	7.3950e-01	5.2063	7.236703	0.000372	3.719943	0.630175	-0.007441
1481	7.4000e-01	5.1955	7.211473	0.000252	2.522720	0.427360	-0.005046
1482	7.4050e-01	5.1831	7.175124	0.000363	3.634427	0.615689	-0.007270
1483	7.4100e-01	5.1741	7.128941	0.000462	4.617860	0.782287	-0.009237
1484	7.4150e-01	5.1663	7.081475	0.000475	4.746134	0.804017	-0.009493
1485	7.4200e-01	5.1552	7.062231	0.000192	1.924108	0.325953	-0.003849
1486	7.4250e-01	5.1456	7.023318	0.000389	3.890974	0.659149	-0.007783
1487	7.4300e-01	5.1355	6.973713	0.000496	4.959923	0.840234	-0.009921
1488	7.4350e-01	5.1260	6.926247	0.000475	4.746134	0.804017	-0.009493
1489	7.4400e-01	5.1184	6.885195	0.000410	4.104764	0.695366	-0.008210
1490	7.4450e-01	5.1065	6.866379	0.000188	1.881350	0.318709	-0.003763
1491	7.4500e-01	5.0943	6.795821	0.000706	7.055063	1.195160	-0.014112
1492	7.4550e-01	5.0879	6.797531	-0.000017	-0.171032	-0.028974	0.000342
1493	7.4600e-01	5.0748	6.746644	0.000509	5.088197	0.861964	-0.010177
1494	7.4650e-01	5.0629	6.693618	0.000530	5.301987	0.898181	-0.010605
1495	7.4700e-01	5.0549	6.674375	0.000192	1.924108	0.325953	-0.003849
1496	7.4750e-01	5.0446	6.651711	0.000227	2.266172	0.383900	-0.004533
1497	7.4800e-01	5.0354	6.608949	0.000428	4.275796	0.724339	-0.008553
1498	7.4850e-01	5.0253	6.572600	0.000363	3.634427	0.615689	-0.007270
1499	7.4900e-01	5.0146	6.507601	0.000650	6.499210	1.100996	-0.013000
1500	7.4950e-01	5.0049	6.472536	0.000351	3.506153	0.593958	-0.007013
1501	7.5000e-01	4.9976	6.450727	0.000218	2.180656	0.369413	-0.004362
1502	7.5050e-01	4.9857	6.400267	0.000505	5.045439	0.854721	-0.010092
1503	7.5100e-01	4.9738	6.344249	0.000560	5.601293	0.948885	-0.011204
1504	7.5150e-01	4.9643	6.310039	0.000342	3.420637	0.579472	-0.006842
1505	7.5200e-01	4.9579	6.287374	0.000227	2.266172	0.383900	-0.004533
1506	7.5250e-01	4.9452	6.238625	0.000487	4.874407	0.825747	-0.009750
1507	7.5300e-01	4.9359	6.202705	0.000359	3.591669	0.608445	-0.007184
1508	7.5350e-01	4.9268	6.156093	0.000466	4.660618	0.789530	-0.009322
1509	7.5400e-01	4.9161	6.108627	0.000475	4.746134	0.804017	-0.009493
1510	7.5450e-01	4.9062	6.092805	0.000158	1.582045	0.268006	-0.003164
1511	7.5500e-01	4.8967	6.052181	0.000406	4.062006	0.688122	-0.008125
1512	7.5550e-01	4.8865	6.008135	0.000440	4.404070	0.746070	-0.008809
1513	7.5600e-01	4.8755	5.978201	0.000299	2.993057	0.507038	-0.005987
1514	7.5650e-01	4.8651	5.926031	0.000522	5.216471	0.883694	-0.010434
1515	7.5700e-01	4.8578	5.909354	0.000167	1.667560	0.282492	-0.003335
1516	7.5750e-01	4.8459	5.860604	0.000487	4.874407	0.825747	-0.009750
1517	7.5800e-01	4.8358	5.802020	0.000586	5.857841	0.992345	-0.011717
1518	7.5850e-01	4.8273	5.778073	0.000239	2.394446	0.405630	-0.004789
1519	7.5900e-01	4.8169	5.734883	0.000432	4.318554	0.731583	-0.008638
1520	7.5950e-01	4.8067	5.713074	0.000218	2.180656	0.369413	-0.004362
1521	7.6000e-01	4.7949	5.678864	0.000342	3.420637	0.579472	-0.006842
1522	7.6050e-01	4.7858	5.630114	0.000487	4.874407	0.825747	-0.009750
1523	7.6100e-01	4.7751	5.595477	0.000346	3.463395	0.586715	-0.006928
1524	7.6150e-01	4.7668	5.521498	0.000740	7.397127	1.253107	-0.014796
1525	7.6200e-01	4.7569	5.498406	0.000231	2.308930	0.391143	-0.004618
1526	7.6250e-01	4.7479	5.459920	0.000385	3.848216	0.651906	-0.007697
1527	7.6300e-01	4.7368	5.432124	0.000278	2.779267	0.470821	-0.005559
1528	7.6350e-01	4.7260	5.396203	0.000359	3.591669	0.608445	-0.007184
1529	7.6400e-01	4.7174	5.353013	0.000432	4.318554	0.731583	-0.008638
1530	7.6450e-01	4.7021	5.319231	0.000338	3.377879	0.572228	-0.006756
1531	7.6500e-01	4.6924	5.257653	0.000616	6.157146	1.043049	-0.012316
1532	7.6550e-01	4.6838	5.238837	0.000188	1.881350	0.318709	-0.003763
1533	7.6600e-01	4.6779	5.185384	0.000534	5.344745	0.905424	-0.010691
1534	7.6650e-01	4.6667	5.126799	0.000586	5.857841	0.992345	-0.011717
1535	7.6700e-01	4.6561	5.119530	0.000073	0.726885	0.123138	-0.001454
1536	7.6750e-01	4.6468	5.060945	0.000586	5.857841	0.992345	-0.011717
1537	7.6800e-01	4.6365	5.026735	0.000342	3.420637	0.579472	-0.006842
1538	7.6850e-01	4.6286	4.974992	0.000517	5.173713	0.876451	-0.010349
1539	7.6900e-01	4.6172	4.946769	0.000282	2.822025	0.478064	-0.005645
1540	7.6950e-01	4.6051	4.929237	0.000175	1.753076	0.296979	-0.003507
1541	7.7000e-01	4.5947	4.869797	0.000594	5.943356	1.006832	-0.011888
1542	7.7050e-01	4.5865	4.827462	0.000423	4.233038	0.717096	-0.008467
1543	7.7100e-01	4.5778	4.778285	0.000492	4.917165	0.832990	-0.009835
1544	7.7150e-01	4.5656	4.752627	0.000257	2.565478	0.434604	-0.005132
1545	7.7200e-01	4.5549	4.720128	0.000325	3.249605	0.550498	-0.006500
1546	7.7250e-01	4.5459	4.676510	0.000436	4.361312	0.738826	-0.008724
1547	7.7300e-01	4.5389	4.618353	0.000582	5.815083	0.985102	-0.011631
1548	7.7350e-01	4.5251	4.579439	0.000389	3.890974	0.659149	-0.007783
1549	7.7400e-01	4.5155	4.548650	0.000308	3.078573	0.521524	-0.006158
1550	7.7450e-01	4.5074	4.500328	0.000483	4.831650	0.818504	-0.009664
1551	7.7500e-01	4.4955	4.452862	0.000475	4.746134	0.804017	-0.009493
1552	7.7550e-01	4.4839	4.432764	0.000201	2.009624	0.340440	-0.004020
1553	7.7600e-01	4.4720	4.392139	0.000406	4.062006	0.688122	-0.008125
1554	7.7650e-01	4.4644	4.352798	0.000393	3.933732	0.666392	-0.007868
1555	7.7700e-01	4.4574	4.317305	0.000355	3.548911	0.601202	-0.007099
1556	7.7750e-01	4.4469	4.251878	0.000654	6.541968	1.108239	-0.013085
1557	7.7800e-01	4.4354	4.221517	0.000304	3.035815	0.514281	-0.006072
1558	7.7850e-01	4.4243	4.173195	0.000483	4.831650	0.818504	-0.009664
1559	7.7900e-01	4.4165	4.141123	0.000321	3.206847	0.543255	-0.006414
1560	7.7950e-01	4.4034	4.095367	0.000458	4.575102	0.775043	-0.009151
1561	7.8000e-01	4.3954	4.052605	0.000428	4.275796	0.724339	-0.008553
1562	7.8050e-01	4.3881	4.038493	0.000141	1.411013	0.239032	-0.002822
1563	7.8100e-01	4.3750	3.970501	0.000680	6.798516	1.151700	-0.013598
1564	7.8150e-01	4.3666	3.943988	0.000265	2.650994	0.449090	-0.005303
1565	7.8200e-01	4.3591	3.912771	0.000312	3.121331	0.528768	-0.006243
1566	7.8250e-01	4.3460	3.837082	0.000757	7.568159	1.282081	-0.015138
1567	7.8300e-01	4.3378	3.827674	0.000094	0.940675	0.159355	-0.001882
1568	7.8350e-01	4.3260	3.772938	0.000547	5.473019	0.927155	-0.010947
1569	7.8400e-01	4.3137	3.743859	0.000291	2.907541	0.492551	-0.005816
1570	7.8450e-01	4.3060	3.696393	0.000475	4.746134	0.804017	-0.009493
1571	7.8500e-01	4.2981	3.662610	0.000338	3.377879	0.572228	-0.006756
1572	7.8550e-01	4.2847	3.619848	0.000428	4.275796	0.724339	-0.008553
1573	7.8600e-01	4.2734	3.557415	0.000624	6.242662	1.057536	-0.012487
1574	7.8650e-01	4.2651	3.546724	0.000107	1.068949	0.181085	-0.002138
1575	7.8700e-01	4.2529	3.498830	0.000479	4.788892	0.811260	-0.009579
1576	7.8750e-01	4.2456	3.436397	0.000624	6.242662	1.057536	-0.012487
1577	7.8800e-01	4.2377	3.400049	0.000363	3.634427	0.615689	-0.007270
1578	7.8850e-01	4.2242	3.358997	0.000410	4.104764	0.695366	-0.008210
1579	7.8900e-01	4.2151	3.317945	0.000410	4.104764	0.695366	-0.008210
1580	7.8950e-01	4.2053	3.277320	0.000406	4.062006	0.688122	-0.008125
1581	7.9000e-01	4.1974	3.224295	0.000530	5.301987	0.898181	-0.010605
1582	7.9050e-01	4.1858	3.191367	0.000329	3.292363	0.557741	-0.006585
1583	7.9100e-01	4.1797	3.152881	0.000385	3.848216	0.651906	-0.007697
1584	7.9150e-01	4.1644	3.099000	0.000539	5.387503	0.912668	-0.010776
1585	7.9200e-01	4.1541	3.056665	0.000423	4.233038	0.717096	-0.008467
1586	7.9250e-01	4.1440	3.046830	0.000098	0.983433	0.166598	-0.001967
1587	7.9300e-01	4.1354	2.993805	0.000530	5.301987	0.898181	-0.010605
1588	7.9350e-01	4.1290	2.948476	0.000453	4.532344	0.767800	-0.009066
1589	7.9400e-01	4.1156	2.914266	0.000342	3.420637	0.579472	-0.006842
1590	7.9450e-01	4.1068	2.867227	0.000470	4.703376	0.796773	-0.009408
1591	7.9500e-01	4.0948	2.808215	0.000590	5.900599	0.999588	-0.011802
1592	7.9550e-01	4.0869	2.797525	0.000107	1.068949	0.181085	-0.002138
1593	7.9600e-01	4.0762	2.739795	0.000577	5.772325	0.977858	-0.011546
1594	7.9650e-01	4.0657	2.695750	0.000440	4.404070	0.746070	-0.008809
1595	7.9700e-01	4.0548	2.661112	0.000346	3.463395	0.586715	-0.006928
1596	7.9750e-01	4.0442	2.622626	0.000385	3.848216	0.651906	-0.007697
1597	7.9800e-01	4.0366	2.573877	0.000487	4.874407	0.825747	-0.009750
1598	7.9850e-01	4.0256	2.532397	0.000415	4.147522	0.702609	-0.008296
1599	7.9900e-01	4.0141	2.479371	0.000530	5.301987	0.898181	-0.010605
1600	7.9950e-01	4.0060	2.428912	0.000505	5.045439	0.854721	-0.010092
1601	8.0000e-01	3.9944	2.398978	0.000299	2.993057	0.507038	-0.005987
1602	8.0050e-01	3.9856	2.375458	0.000235	2.351688	0.398387	-0.004704
1603	8.0100e-01	3.9752	2.324571	0.000509	5.088197	0.861964	-0.010177
1604	8.0150e-01	3.9627	2.278815	0.000458	4.575102	0.775043	-0.009151
1605	8.0200e-01	3.9578	2.245460	0.000334	3.335121	0.564985	-0.006671
1606	8.0250e-01	3.9455	2.196283	0.000492	4.917165	0.832990	-0.009835
1607	8.0300e-01	3.9365	2.161218	0.000351	3.506153	0.593958	-0.007013
1608	8.0350e-01	3.9255	2.130001	0.000312	3.121331	0.528768	-0.006243
1609	8.0400e-01	3.9174	2.044904	0.000851	8.508834	1.441436	-0.017019
1610	8.0450e-01	3.9059	2.010266	0.000346	3.463395	0.586715	-0.006928
1611	8.0500e-01	3.8965	1.977339	0.000329	3.292363	0.557741	-0.006585
1612	8.0550e-01	3.8882	1.948688	0.000286	2.864783	0.485307	-0.005730
1613	8.0600e-01	3.8763	1.893525	0.000552	5.515777	0.934398	-0.011033
1614	8.0650e-01	3.8632	1.868295	0.000252	2.522720	0.427360	-0.005046
1615	8.0700e-01	3.8516	1.796454	0.000718	7.183337	1.216890	-0.014368
1616	8.0750e-01	3.8464	1.790039	0.000064	0.641369	0.108651	-0.001283
1617	8.0800e-01	3.8358	1.726323	0.000637	6.370936	1.079266	-0.012743
1618	8.0850e-01	3.8269	1.690830	0.000355	3.548911	0.601202	-0.007099
1619	8.0900e-01	3.8159	1.630963	0.000599	5.986114	1.014075	-0.011974
1620	8.0950e-01	3.8034	1.604450	0.000265	2.650994	0.449090	-0.005303
1621	8.1000e-01	3.7953	1.551424	0.000530	5.301987	0.898181	-0.010605
1622	8.1050e-01	3.7839	1.502248	0.000492	4.917165	0.832990	-0.009835
1623	8.1100e-01	3.7741	1.477873	0.000244	2.437204	0.412873	-0.004875
1624	8.1150e-01	3.7637	1.426558	0.000513	5.130955	0.869207	-0.010263
1625	8.1200e-01	3.7549	1.394486	0.000321	3.206847	0.543255	-0.006414
1626	8.1250e-01	3.7479	1.337184	0.000573	5.729567	0.970615	-0.011460
1627	8.1300e-01	3.7378	1.279027	0.000582	5.815083	0.985102	-0.011631
1628	8.1350e-01	3.7244	1.252514	0.000265	2.650994	0.449090	-0.005303
1629	8.1400e-01	3.7140	1.226002	0.000265	2.650994	0.449090	-0.005303
1630	8.1450e-01	3.7067	1.150312	0.000757	7.568159	1.282081	-0.015138
1631	8.1500e-01	3.6964	1.139194	0.000111	1.111707	0.188328	-0.002224
1632	8.1550e-01	3.6859	1.076333	0.000629	6.285420	1.064779	-0.012572
1633	8.1600e-01	3.6763	1.042123	0.000342	3.420637	0.579472	-0.006842
1634	8.1650e-01	3.6659	1.002354	0.000398	3.976490	0.673636	-0.007954
1635	8.1700e-01	3.6572	0.948473	0.000539	5.387503	0.912668	-0.010776
1636	8.1750e-01	3.6432	0.932651	0.000158	1.582045	0.268006	-0.003164
1637	8.1800e-01	3.6359	0.849264	0.000834	8.337802	1.412462	-0.016677
1638	8.1850e-01	3.6258	0.822751	0.000265	2.650994	0.449090	-0.005303
1639	8.1900e-01	3.6143	0.765022	0.000577	5.772325	0.977858	-0.011546
1640	8.1950e-01	3.6041	0.736798	0.000282	2.822025	0.478064	-0.005645
1641	8.2000e-01	3.5958	0.663247	0.000735	7.354369	1.245864	-0.014710
1642	8.2050e-01	3.5843	0.626471	0.000368	3.677185	0.622932	-0.007355
1643	8.2100e-01	3.5751	0.604662	0.000218	2.180656	0.369413	-0.004362
1644	8.2150e-01	3.5645	0.546505	0.000582	5.815083	0.985102	-0.011631
1645	8.2200e-01	3.5569	0.520420	0.000261	2.608236	0.441847	-0.005217
1646	8.2250e-01	3.5449	0.473381	0.000470	4.703376	0.796773	-0.009408
1647	8.2300e-01	3.5373	0.426770	0.000466	4.660618	0.789530	-0.009322
1648	8.2350e-01	3.5272	0.373744	0.000530	5.301987	0.898181	-0.010605
1649	8.2400e-01	3.5190	0.339534	0.000342	3.420637	0.579472	-0.006842
1650	8.2450e-01	3.5059	0.297627	0.000419	4.190280	0.709853	-0.008381
1651	8.2500e-01	3.4979	0.239043	0.000586	5.857841	0.992345	-0.011717
1652	8.2550e-01	3.4869	0.209964	0.000291	2.907541	0.492551	-0.005816
1653	8.2600e-01	3.4753	0.157794	0.000522	5.216471	0.883694	-0.010434
1654	8.2650e-01	3.4662	0.135130	0.000227	2.266172	0.383900	-0.004533
1655	8.2700e-01	3.4586	0.078255	0.000569	5.686809	0.963371	-0.011375
1656	8.2750e-01	3.4470	0.034638	0.000436	4.361312	0.738826	-0.008724
1657	8.2800e-01	3.4357	-0.021809	0.000564	5.644051	0.956128	-0.011289
1658	8.2850e-01	3.4259	-0.061150	0.000393	3.933732	0.666392	-0.007868
1659	8.2900e-01	3.4143	-0.093222	0.000321	3.206847	0.543255	-0.006414
1660	8.2950e-01	3.4067	-0.143682	0.000505	5.045439	0.854721	-0.010092
1661	8.3000e-01	3.3960	-0.186017	0.000423	4.233038	0.717096	-0.008467
1662	8.3050e-01	3.3868	-0.246740	0.000607	6.071630	1.028562	-0.012145
1663	8.3100e-01	3.3774	-0.283516	0.000368	3.677185	0.622932	-0.007355
1664	8.3150e-01	3.3645	-0.320291	0.000368	3.677185	0.622932	-0.007355
1665	8.3200e-01	3.3569	-0.366475	0.000462	4.617860	0.782287	-0.009237
1666	8.3250e-01	3.3453	-0.416507	0.000500	5.002681	0.847477	-0.010006
1667	8.3300e-01	3.3359	-0.465684	0.000492	4.917165	0.832990	-0.009835
1668	8.3350e-01	3.3287	-0.505881	0.000402	4.019248	0.680879	-0.008039
1669	8.3400e-01	3.3156	-0.548216	0.000423	4.233038	0.717096	-0.008467
1670	8.3450e-01	3.3047	-0.587557	0.000393	3.933732	0.666392	-0.007868
1671	8.3500e-01	3.2968	-0.646142	0.000586	5.857841	0.992345	-0.011717
1672	8.3550e-01	3.2874	-0.688477	0.000423	4.233038	0.717096	-0.008467
1673	8.3600e-01	3.2761	-0.730812	0.000423	4.233038	0.717096	-0.008467
1674	8.3650e-01	3.2680	-0.779989	0.000492	4.917165	0.832990	-0.009835
1675	8.3700e-01	3.2562	-0.832586	0.000526	5.259229	0.890938	-0.010520
1676	8.3750e-01	3.2471	-0.873211	0.000406	4.062006	0.688122	-0.008125
1677	8.3800e-01	3.2358	-0.900151	0.000269	2.693752	0.456334	-0.005388
1678	8.3850e-01	3.2245	-0.962157	0.000620	6.199904	1.050292	-0.012401
1679	8.3900e-01	3.2166	-0.992946	0.000308	3.078573	0.521524	-0.006158
1680	8.3950e-01	3.2063	-1.033143	0.000402	4.019248	0.680879	-0.008039
1681	8.4000e-01	3.1960	-1.078471	0.000453	4.532344	0.767800	-0.009066
1682	8.4050e-01	3.1860	-1.135345	0.000569	5.686809	0.963371	-0.011375
1683	8.4100e-01	3.1747	-1.153733	0.000184	1.838592	0.311466	-0.003678
1684	8.4150e-01	3.1665	-1.220015	0.000663	6.627484	1.122726	-0.013256
1685	8.4200e-01	3.1548	-1.266626	0.000466	4.660618	0.789530	-0.009322
1686	8.4250e-01	3.1451	-1.312810	0.000462	4.617860	0.782287	-0.009237
1687	8.4300e-01	3.1332	-1.372250	0.000594	5.943356	1.006832	-0.011888
1688	8.4350e-01	3.1250	-1.410736	0.000385	3.848216	0.651906	-0.007697
1689	8.4400e-01	3.1153	-1.472314	0.000616	6.157146	1.043049	-0.012316
1690	8.4450e-01	3.1067	-1.501392	0.000291	2.907541	0.492551	-0.005816
1691	8.4500e-01	3.0984	-1.548431	0.000470	4.703376	0.796773	-0.009408
1692	8.4550e-01	3.0852	-1.588628	0.000402	4.019248	0.680879	-0.008039
1693	8.4600e-01	3.0759	-1.622410	0.000338	3.377879	0.572228	-0.006756
1694	8.4650e-01	3.0640	-1.686982	0.000646	6.456452	1.093753	-0.012914
1695	8.4700e-01	3.0555	-1.736159	0.000492	4.917165	0.832990	-0.009835
1696	8.4750e-01	3.0448	-1.789184	0.000530	5.301987	0.898181	-0.010605
1697	8.4800e-01	3.0362	-1.805434	0.000162	1.624802	0.275249	-0.003250
1698	8.4850e-01	3.0255	-1.857604	0.000522	5.216471	0.883694	-0.010434
1699	8.4900e-01	3.0151	-1.925597	0.000680	6.798516	1.151700	-0.013598
1700	8.4950e-01	3.0042	-1.953392	0.000278	2.779267	0.470821	-0.005559
1701	8.5000e-01	2.9965	-1.994872	0.000415	4.147522	0.702609	-0.008296
1702	8.5050e-01	2.9816	-2.065858	0.000710	7.097821	1.202404	-0.014197
1703	8.5100e-01	2.9761	-2.091943	0.000261	2.608236	0.441847	-0.005217
1704	8.5150e-01	2.9669	-2.148389	0.000564	5.644051	0.956128	-0.011289
1705	8.5200e-01	2.9538	-2.200132	0.000517	5.173713	0.876451	-0.010349
1706	8.5250e-01	2.9428	-2.237763	0.000376	3.762701	0.637419	-0.007526
1707	8.5300e-01	2.9347	-2.279243	0.000415	4.147522	0.702609	-0.008296
1708	8.5350e-01	2.9257	-2.323288	0.000440	4.404070	0.746070	-0.008809
1709	8.5400e-01	2.9163	-2.379307	0.000560	5.601293	0.948885	-0.011204
1710	8.5450e-01	2.9028	-2.409668	0.000304	3.035815	0.514281	-0.006072
1711	8.5500e-01	2.8937	-2.483220	0.000735	7.354369	1.245864	-0.014710
1712	8.5550e-01	2.8854	-2.511443	0.000282	2.822025	0.478064	-0.005645
1713	8.5600e-01	2.8709	-2.552923	0.000415	4.147522	0.702609	-0.008296
1714	8.5650e-01	2.8656	-2.612790	0.000599	5.986114	1.014075	-0.011974
1715	8.5700e-01	2.8540	-2.618350	0.000056	0.555853	0.094164	-0.001112
1716	8.5750e-01	2.8430	-2.703447	0.000851	8.508834	1.441436	-0.017019
1717	8.5800e-01	2.8351	-2.729960	0.000265	2.650994	0.449090	-0.005303
1718	8.5850e-01	2.8256	-2.786406	0.000564	5.644051	0.956128	-0.011289
1719	8.5900e-01	2.8159	-2.855682	0.000693	6.926790	1.173430	-0.013855
1720	8.5950e-01	2.8070	-2.893740	0.000381	3.805458	0.644662	-0.007612
1721	8.6000e-01	2.7956	-2.935220	0.000415	4.147522	0.702609	-0.008296
1722	8.6050e-01	2.7844	-2.983114	0.000479	4.788892	0.811260	-0.009579
1723	8.6100e-01	2.7753	-3.028442	0.000453	4.532344	0.767800	-0.009066
1724	8.6150e-01	2.7652	-3.087027	0.000586	5.857841	0.992345	-0.011717
1725	8.6200e-01	2.7512	-3.097717	0.000107	1.068949	0.181085	-0.002138
1726	8.6250e-01	2.7455	-3.167848	0.000701	7.012306	1.187917	-0.014026
1727	8.6300e-01	2.7357	-3.203769	0.000359	3.591669	0.608445	-0.007184
1728	8.6350e-01	2.7237	-3.260215	0.000564	5.644051	0.956128	-0.011289
1729	8.6400e-01	2.7143	-3.325642	0.000654	6.541968	1.108239	-0.013085
1730	8.6450e-01	2.7058	-3.339753	0.000141	1.411013	0.239032	-0.002822
1731	8.6500e-01	2.6978	-3.398766	0.000590	5.900599	0.999588	-0.011802
1732	8.6550e-01	2.6868	-3.456495	0.000577	5.772325	0.977858	-0.011546
1733	8.6600e-01	2.6782	-3.509093	0.000526	5.259229	0.890938	-0.010520
1734	8.6650e-01	2.6633	-3.542448	0.000334	3.335121	0.564985	-0.006671
1735	8.6700e-01	2.6547	-3.607019	0.000646	6.456452	1.093753	-0.012914
1736	8.6750e-01	2.6474	-3.654486	0.000475	4.746134	0.804017	-0.009493
1737	8.6800e-01	2.6360	-3.692544	0.000381	3.805458	0.644662	-0.007612
1738	8.6850e-01	2.6237	-3.743004	0.000505	5.045439	0.854721	-0.010092
1739	8.6900e-01	2.6166	-3.788332	0.000453	4.532344	0.767800	-0.009066
1740	8.6950e-01	2.6065	-3.837082	0.000487	4.874407	0.825747	-0.009750
1741	8.7000e-01	2.5946	-3.911061	0.000740	7.397127	1.253107	-0.014796
1742	8.7050e-01	2.5864	-3.941422	0.000304	3.035815	0.514281	-0.006072
1743	8.7100e-01	2.5809	-3.970928	0.000295	2.950299	0.499794	-0.005901
1744	8.7150e-01	2.5659	-4.031651	0.000607	6.071630	1.028562	-0.012145
1745	8.7200e-01	2.5546	-4.065861	0.000342	3.420637	0.579472	-0.006842
1746	8.7250e-01	2.5446	-4.106486	0.000406	4.062006	0.688122	-0.008125
1747	8.7300e-01	2.5354	-4.144117	0.000376	3.762701	0.637419	-0.007526
1748	8.7350e-01	2.5302	-4.218096	0.000740	7.397127	1.253107	-0.014796
1749	8.7400e-01	2.5119	-4.254444	0.000363	3.634427	0.615689	-0.007270
1750	8.7450e-01	2.5024	-4.308752	0.000543	5.430261	0.919911	-0.010862
1751	8.7500e-01	2.4957	-4.384870	0.000761	7.610917	1.289324	-0.015223
1752	8.7550e-01	2.4835	-4.378028	-0.000068	-0.684127	-0.115894	0.001368
1753	8.7600e-01	2.4768	-4.459276	0.000812	8.124012	1.376245	-0.016250
1754	8.7650e-01	2.4664	-4.500328	0.000410	4.104764	0.695366	-0.008210
1755	8.7700e-01	2.4564	-4.534966	0.000346	3.463395	0.586715	-0.006928
1756	8.7750e-01	2.4451	-4.611939	0.000770	7.696433	1.303811	-0.015395
1757	8.7800e-01	2.4367	-4.658122	0.000462	4.617860	0.782287	-0.009237
1758	8.7850e-01	2.4246	-4.709865	0.000517	5.173713	0.876451	-0.010349
1759	8.7900e-01	2.4127	-4.755193	0.000453	4.532344	0.767800	-0.009066
1760	8.7950e-01	2.4034	-4.797956	0.000428	4.275796	0.724339	-0.008553
1761	8.8000e-01	2.3959	-4.856968	0.000590	5.900599	0.999588	-0.011802
1762	8.8050e-01	2.3878	-4.888185	0.000312	3.121331	0.528768	-0.006243
1763	8.8100e-01	2.3774	-4.955749	0.000676	6.755758	1.144456	-0.013513
1764	8.8150e-01	2.3642	-4.977986	0.000222	2.223414	0.376657	-0.004447
1765	8.8200e-01	2.3544	-5.049399	0.000714	7.140579	1.209647	-0.014283
1766	8.8250e-01	2.3449	-5.083182	0.000338	3.377879	0.572228	-0.006756
1767	8.8300e-01	2.3341	-5.134497	0.000513	5.130955	0.869207	-0.010263
1768	8.8350e-01	2.3271	-5.187095	0.000526	5.259229	0.890938	-0.010520
1769	8.8400e-01	2.3148	-5.224726	0.000376	3.762701	0.637419	-0.007526
1770	8.8450e-01	2.3047	-5.276468	0.000517	5.173713	0.876451	-0.010349
1771	8.8500e-01	2.2958	-5.347026	0.000706	7.055063	1.195160	-0.014112
1772	8.8550e-01	2.2855	-5.391499	0.000445	4.446828	0.753313	-0.008895
1773	8.8600e-01	2.2742	-5.433834	0.000423	4.233038	0.717096	-0.008467
1774	8.8650e-01	2.2662	-5.470610	0.000368	3.677185	0.622932	-0.007355
1775	8.8700e-01	2.2559	-5.530050	0.000594	5.943356	1.006832	-0.011888
1776	8.8750e-01	2.2456	-5.574951	0.000449	4.489586	0.760556	-0.008980
1777	8.8800e-01	2.2379	-5.632680	0.000577	5.772325	0.977858	-0.011546
1778	8.8850e-01	2.2247	-5.672449	0.000398	3.976490	0.673636	-0.007954
1779	8.8900e-01	2.2147	-5.720343	0.000479	4.788892	0.811260	-0.009579
1780	8.8950e-01	2.2048	-5.783632	0.000633	6.328178	1.072022	-0.012658
1781	8.9000e-01	2.1933	-5.849486	0.000658	6.584726	1.115483	-0.013171
1782	8.9050e-01	2.1877	-5.875999	0.000265	2.650994	0.449090	-0.005303
1783	8.9100e-01	2.1744	-5.929880	0.000539	5.387503	0.912668	-0.010776
1784	8.9150e-01	2.1680	-5.983333	0.000534	5.344745	0.905424	-0.010691
1785	8.9200e-01	2.1539	-6.041490	0.000582	5.815083	0.985102	-0.011631
1786	8.9250e-01	2.1495	-6.085963	0.000445	4.446828	0.753313	-0.008895
1787	8.9300e-01	2.1369	-6.142837	0.000569	5.686809	0.963371	-0.011375
1788	8.9350e-01	2.1246	-6.186882	0.000440	4.404070	0.746070	-0.008809
1789	8.9400e-01	2.1149	-6.222803	0.000359	3.591669	0.608445	-0.007184
1790	8.9450e-01	2.1042	-6.287374	0.000646	6.456452	1.093753	-0.012914
1791	8.9500e-01	2.0964	-6.330992	0.000436	4.361312	0.738826	-0.008724
1792	8.9550e-01	2.0854	-6.380169	0.000492	4.917165	0.832990	-0.009835
1793	8.9600e-01	2.0737	-6.442602	0.000624	6.242662	1.057536	-0.012487
1794	8.9650e-01	2.0648	-6.479806	0.000372	3.719943	0.630175	-0.007441
1795	8.9700e-01	2.0540	-6.531976	0.000522	5.216471	0.883694	-0.010434
1796	8.9750e-01	2.0450	-6.565331	0.000334	3.335121	0.564985	-0.006671
1797	8.9800e-01	2.0338	-6.644442	0.000791	7.910223	1.340028	-0.015822
1798	8.9850e-01	2.0241	-6.688487	0.000440	4.404070	0.746070	-0.008809
1799	8.9900e-01	2.0174	-6.713717	0.000252	2.522720	0.427360	-0.005046
1800	8.9950e-01	2.0059	-6.800952	0.000872	8.722624	1.477652	-0.017447
1801	9.0000e-01	1.9950	-6.832597	0.000316	3.164089	0.536011	-0.006329
1802	9.0050e-01	1.9859	-6.883484	0.000509	5.088197	0.861964	-0.010177
1803	9.0100e-01	1.9748	-6.924964	0.000415	4.147522	0.702609	-0.008296
1804	9.0150e-01	1.9641	-6.987397	0.000624	6.242662	1.057536	-0.012487
1805	9.0200e-01	1.9539	-7.042561	0.000552	5.515777	0.934398	-0.011033
1806	9.0250e-01	1.9464	-7.091738	0.000492	4.917165	0.832990	-0.009835
1807	9.0300e-01	1.9359	-7.128941	0.000372	3.719943	0.630175	-0.007441
1808	9.0350e-01	1.9284	-7.178545	0.000496	4.959923	0.840234	-0.009921
1809	9.0400e-01	1.9151	-7.251242	0.000727	7.268853	1.231377	-0.014539
1810	9.0450e-01	1.9055	-7.295715	0.000445	4.446828	0.753313	-0.008895
1811	9.0500e-01	1.8974	-7.334629	0.000389	3.890974	0.659149	-0.007783
1812	9.0550e-01	1.8829	-7.410746	0.000761	7.610917	1.289324	-0.015223
1813	9.0600e-01	1.8771	-7.470614	0.000599	5.986114	1.014075	-0.011974
1814	9.0650e-01	1.8649	-7.484725	0.000141	1.411013	0.239032	-0.002822
1815	9.0700e-01	1.8550	-7.549297	0.000646	6.456452	1.093753	-0.012914
1816	9.0750e-01	1.8466	-7.600184	0.000509	5.088197	0.861964	-0.010177
1817	9.0800e-01	1.8352	-7.655348	0.000552	5.515777	0.934398	-0.011033
1818	9.0850e-01	1.8250	-7.686992	0.000316	3.164089	0.536011	-0.006329
1819	9.0900e-01	1.8164	-7.753274	0.000663	6.627484	1.122726	-0.013256
1820	9.0950e-01	1.8040	-7.797319	0.000440	4.404070	0.746070	-0.008809
1821	9.1000e-01	1.7960	-7.841365	0.000440	4.404070	0.746070	-0.008809
1822	9.1050e-01	1.7850	-7.908502	0.000671	6.713000	1.137213	-0.013427
1823	9.1100e-01	1.7740	-7.959389	0.000509	5.088197	0.861964	-0.010177
1824	9.1150e-01	1.7654	-8.022250	0.000629	6.285420	1.064779	-0.012572
1825	9.1200e-01	1.7524	-8.084256	0.000620	6.199904	1.050292	-0.012401
1826	9.1250e-01	1.7444	-8.144551	0.000603	6.028872	1.021319	-0.012059
1827	9.1300e-01	1.7371	-8.160373	0.000158	1.582045	0.268006	-0.003164
1828	9.1350e-01	1.7245	-8.212543	0.000522	5.216471	0.883694	-0.010434
1829	9.1400e-01	1.7157	-8.280108	0.000676	6.755758	1.144456	-0.013513
1830	9.1450e-01	1.7053	-8.315601	0.000355	3.548911	0.601202	-0.007099
1831	9.1500e-01	1.6940	-8.375041	0.000594	5.943356	1.006832	-0.011888
1832	9.1550e-01	1.6856	-8.437474	0.000624	6.242662	1.057536	-0.012487
1833	9.1600e-01	1.6739	-8.467408	0.000299	2.993057	0.507038	-0.005987
1834	9.1650e-01	1.6650	-8.547802	0.000804	8.038497	1.361758	-0.016079
1835	9.1700e-01	1.6533	-8.584577	0.000368	3.677185	0.622932	-0.007355
1836	9.1750e-01	1.6451	-8.646155	0.000616	6.157146	1.043049	-0.012316
1837	9.1800e-01	1.6362	-8.695760	0.000496	4.959923	0.840234	-0.009921
1838	9.1850e-01	1.6290	-8.740661	0.000449	4.489586	0.760556	-0.008980
1839	9.1900e-01	1.6127	-8.776581	0.000359	3.591669	0.608445	-0.007184
1840	9.1950e-01	1.6027	-8.859968	0.000834	8.337802	1.412462	-0.016677
1841	9.2000e-01	1.5952	-8.910000	0.000500	5.002681	0.847477	-0.010006
1842	9.2050e-01	1.5849	-8.949769	0.000398	3.976490	0.673636	-0.007954
1843	9.2100e-01	1.5746	-8.998091	0.000483	4.831650	0.818504	-0.009664
1844	9.2150e-01	1.5642	-9.063518	0.000654	6.541968	1.108239	-0.013085
1845	9.2200e-01	1.5587	-9.097728	0.000342	3.420637	0.579472	-0.006842
1846	9.2250e-01	1.5448	-9.155885	0.000582	5.815083	0.985102	-0.011631
1847	9.2300e-01	1.5341	-9.208483	0.000526	5.259229	0.890938	-0.010520
1848	9.2350e-01	1.5276	-9.277758	0.000693	6.926790	1.173430	-0.013855
1849	9.2400e-01	1.5176	-9.309830	0.000321	3.206847	0.543255	-0.006414
1850	9.2450e-01	1.5051	-9.371408	0.000616	6.157146	1.043049	-0.012316
1851	9.2500e-01	1.4928	-9.423578	0.000522	5.216471	0.883694	-0.010434
1852	9.2550e-01	1.4865	-9.480452	0.000569	5.686809	0.963371	-0.011375
1853	9.2600e-01	1.4745	-9.527491	0.000470	4.703376	0.796773	-0.009408
1854	9.2650e-01	1.4656	-9.575385	0.000479	4.788892	0.811260	-0.009579
1855	9.2700e-01	1.4551	-9.641667	0.000663	6.627484	1.122726	-0.013256
1856	9.2750e-01	1.4433	-9.693410	0.000517	5.173713	0.876451	-0.010349
1857	9.2800e-01	1.4342	-9.760975	0.000676	6.755758	1.144456	-0.013513
1858	9.2850e-01	1.4272	-9.797750	0.000368	3.677185	0.622932	-0.007355
1859	9.2900e-01	1.4142	-9.839230	0.000415	4.147522	0.702609	-0.008296
1860	9.2950e-01	1.4046	-9.896959	0.000577	5.772325	0.977858	-0.011546
1861	9.3000e-01	1.3957	-9.983767	0.000868	8.679866	1.470409	-0.017362
1862	9.3050e-01	1.3871	-10.032517	0.000487	4.874407	0.825747	-0.009750
1863	9.3100e-01	1.3760	-10.077417	0.000449	4.489586	0.760556	-0.008980
1864	9.3150e-01	1.3666	-10.121035	0.000436	4.361312	0.738826	-0.008724
1865	9.3200e-01	1.3566	-10.171067	0.000500	5.002681	0.847477	-0.010006
1866	9.3250e-01	1.3454	-10.237777	0.000667	6.670242	1.129970	-0.013342
1867	9.3300e-01	1.3339	-10.286098	0.000483	4.831650	0.818504	-0.009664
1868	9.3350e-01	1.3231	-10.349387	0.000633	6.328178	1.072022	-0.012658
1869	9.3400e-01	1.3110	-10.402840	0.000534	5.344745	0.905424	-0.010691
1870	9.3450e-01	1.3023	-10.454155	0.000513	5.130955	0.869207	-0.010263
1871	9.3500e-01	1.2955	-10.497773	0.000436	4.361312	0.738826	-0.008724
1872	9.3550e-01	1.2811	-10.556358	0.000586	5.857841	0.992345	-0.011717
1873	9.3600e-01	1.2744	-10.601686	0.000453	4.532344	0.767800	-0.009066
1874	9.3650e-01	1.2647	-10.666685	0.000650	6.499210	1.100996	-0.013000
1875	9.3700e-01	1.2523	-10.724414	0.000577	5.772325	0.977858	-0.011546
1876	9.3750e-01	1.2462	-10.761618	0.000372	3.719943	0.630175	-0.007441
1877	9.3800e-01	1.2369	-10.830893	0.000693	6.926790	1.173430	-0.013855
1878	9.3850e-01	1.2238	-10.865531	0.000346	3.463395	0.586715	-0.006928
1879	9.3900e-01	1.2180	-10.933095	0.000676	6.755758	1.144456	-0.013513
1880	9.3950e-01	1.2067	-10.980989	0.000479	4.788892	0.811260	-0.009579
1881	9.4000e-01	1.1958	-11.043850	0.000629	6.285420	1.064779	-0.012572
1882	9.4050e-01	1.1848	-11.074212	0.000304	3.035815	0.514281	-0.006072
1883	9.4100e-01	1.1761	-11.132369	0.000582	5.815083	0.985102	-0.011631
1884	9.4150e-01	1.1630	-11.195230	0.000629	6.285420	1.064779	-0.012572
1885	9.4200e-01	1.1556	-11.249966	0.000547	5.473019	0.927155	-0.010947
1886	9.4250e-01	1.1445	-11.321379	0.000714	7.140579	1.209647	-0.014283
1887	9.4300e-01	1.1337	-11.385523	0.000641	6.413694	1.086509	-0.012829
1888	9.4350e-01	1.1247	-11.418878	0.000334	3.335121	0.564985	-0.006671
1889	9.4400e-01	1.1170	-11.473614	0.000547	5.473019	0.927155	-0.010947
1890	9.4450e-01	1.1038	-11.539896	0.000663	6.627484	1.122726	-0.013256
1891	9.4500e-01	1.0957	-11.574106	0.000342	3.420637	0.579472	-0.006842
1892	9.4550e-01	1.0846	-11.637822	0.000637	6.370936	1.079266	-0.012743
1893	9.4600e-01	1.0759	-11.686999	0.000492	4.917165	0.832990	-0.009835
1894	9.4650e-01	1.0638	-11.760123	0.000731	7.311611	1.238620	-0.014625
1895	9.4700e-01	1.0564	-11.805451	0.000453	4.532344	0.767800	-0.009066
1896	9.4750e-01	1.0458	-11.833674	0.000282	2.822025	0.478064	-0.005645
1897	9.4800e-01	1.0346	-11.926469	0.000928	9.278477	1.571817	-0.018559
1898	9.4850e-01	1.0248	-11.976501	0.000500	5.002681	0.847477	-0.010006
1899	9.4900e-01	1.0147	-12.032092	0.000556	5.558535	0.941641	-0.011118
1900	9.4950e-01	1.0034	-12.089822	0.000577	5.772325	0.977858	-0.011546
1901	9.5000e-01	0.9943	-12.134295	0.000445	4.446828	0.753313	-0.008895
1902	9.5050e-01	0.9859	-12.195018	0.000607	6.071630	1.028562	-0.012145
1903	9.5100e-01	0.9761	-12.226662	0.000316	3.164089	0.536011	-0.006329
1904	9.5150e-01	0.9653	-12.316036	0.000894	8.936414	1.513869	-0.017875
1905	9.5200e-01	0.9576	-12.351528	0.000355	3.548911	0.601202	-0.007099
1906	9.5250e-01	0.9452	-12.409685	0.000582	5.815083	0.985102	-0.011631
1907	9.5300e-01	0.9345	-12.466560	0.000569	5.686809	0.963371	-0.011375
1908	9.5350e-01	0.9260	-12.501197	0.000346	3.463395	0.586715	-0.006928
1909	9.5400e-01	0.9145	-12.590999	0.000898	8.979172	1.521113	-0.017960
1910	9.5450e-01	0.9044	-12.646162	0.000552	5.515777	0.934398	-0.011033
1911	9.5500e-01	0.8942	-12.689352	0.000432	4.318554	0.731583	-0.008638
1912	9.5550e-01	0.8833	-12.748365	0.000590	5.900599	0.999588	-0.011802
1913	9.5600e-01	0.8759	-12.800535	0.000522	5.216471	0.883694	-0.010434
1914	9.5650e-01	0.8643	-12.864251	0.000637	6.370936	1.079266	-0.012743
1915	9.5700e-01	0.8546	-12.933954	0.000697	6.969548	1.180673	-0.013941
1916	9.5750e-01	0.8447	-12.984841	0.000509	5.088197	0.861964	-0.010177
1917	9.5800e-01	0.8392	-13.002374	0.000175	1.753076	0.296979	-0.003507
1918	9.5850e-01	0.8279	-13.067801	0.000654	6.541968	1.108239	-0.013085
1919	9.5900e-01	0.8121	-13.176845	0.001090	10.903280	1.847066	-0.021809
1920	9.5950e-01	0.8049	-13.191384	0.000145	1.453771	0.246275	-0.002908
1921	9.6000e-01	0.7932	-13.246548	0.000552	5.515777	0.934398	-0.011033
1922	9.6050e-01	0.7840	-13.328225	0.000817	8.166770	1.383488	-0.016335
1923	9.6100e-01	0.7767	-13.357731	0.000295	2.950299	0.499794	-0.005901
1924	9.6150e-01	0.7648	-13.433848	0.000761	7.610917	1.289324	-0.015223
1925	9.6200e-01	0.7584	-13.481314	0.000475	4.746134	0.804017	-0.009493
1926	9.6250e-01	0.7449	-13.550590	0.000693	6.926790	1.173430	-0.013855
1927	9.6300e-01	0.7315	-13.595063	0.000445	4.446828	0.753313	-0.008895
1928	9.6350e-01	0.7245	-13.664338	0.000693	6.926790	1.173430	-0.013855
1929	9.6400e-01	0.7191	-13.722495	0.000582	5.815083	0.985102	-0.011631
1930	9.6450e-01	0.7082	-13.755422	0.000329	3.292363	0.557741	-0.006585
1931	9.6500e-01	0.6953	-13.803744	0.000483	4.831650	0.818504	-0.009664
1932	9.6550e-01	0.6822	-13.904663	0.001009	10.090879	1.709441	-0.020184
1933	9.6600e-01	0.6775	-13.932031	0.000274	2.736509	0.463577	-0.005474
1934	9.6650e-01	0.6659	-13.991044	0.000590	5.900599	0.999588	-0.011802
1935	9.6700e-01	0.6548	-14.057753	0.000667	6.670242	1.129970	-0.013342
1936	9.6750e-01	0.6467	-14.123180	0.000654	6.541968	1.108239	-0.013085
1937	9.6800e-01	0.6372	-14.141568	0.000184	1.838592	0.311466	-0.003678
1938	9.6850e-01	0.6264	-14.246336	0.001048	10.475700	1.774632	-0.020954
1939	9.6900e-01	0.6144	-14.262586	0.000162	1.624802	0.275249	-0.003250
1940	9.6950e-01	0.6065	-14.322453	0.000599	5.986114	1.014075	-0.011974
1941	9.7000e-01	0.5972	-14.408834	0.000864	8.637108	1.463166	-0.017276
1942	9.7050e-01	0.5880	-14.455445	0.000466	4.660618	0.789530	-0.009322
1943	9.7100e-01	0.5751	-14.519589	0.000641	6.413694	1.086509	-0.012829
1944	9.7150e-01	0.5660	-14.579884	0.000603	6.028872	1.021319	-0.012059
1945	9.7200e-01	0.5574	-14.611100	0.000312	3.121331	0.528768	-0.006243
1946	9.7250e-01	0.5477	-14.685507	0.000744	7.439885	1.260351	-0.014881
1947	9.7300e-01	0.5368	-14.734256	0.000487	4.874407	0.825747	-0.009750
1948	9.7350e-01	0.5260	-14.801394	0.000671	6.713000	1.137213	-0.013427
1949	9.7400e-01	0.5125	-14.863399	0.000620	6.199904	1.050292	-0.012401
1950	9.7450e-01	0.5042	-14.918991	0.000556	5.558535	0.941641	-0.011118
1951	9.7500e-01	0.4953	-14.984845	0.000658	6.584726	1.115483	-0.013171
1952	9.7550e-01	0.4858	-15.022048	0.000372	3.719943	0.630175	-0.007441
1953	9.7600e-01	0.4754	-15.096883	0.000748	7.482643	1.267594	-0.014967
1954	9.7650e-01	0.4642	-15.159316	0.000624	6.242662	1.057536	-0.012487
1955	9.7700e-01	0.4543	-15.199940	0.000406	4.062006	0.688122	-0.008125
1956	9.7750e-01	0.4448	-15.261946	0.000620	6.199904	1.050292	-0.012401
1957	9.7800e-01	0.4363	-15.305136	0.000432	4.318554	0.731583	-0.008638
1958	9.7850e-01	0.4253	-15.386385	0.000812	8.124012	1.376245	-0.016250
1959	9.7900e-01	0.4147	-15.422733	0.000363	3.634427	0.615689	-0.007270
1960	9.7950e-01	0.4050	-15.485594	0.000629	6.285420	1.064779	-0.012572
1961	9.8000e-01	0.3961	-15.546317	0.000607	6.071630	1.028562	-0.012145
1962	9.8050e-01	0.3841	-15.606612	0.000603	6.028872	1.021319	-0.012059
1963	9.8100e-01	0.3771	-15.680164	0.000735	7.354369	1.245864	-0.014710
1964	9.8150e-01	0.3683	-15.712235	0.000321	3.206847	0.543255	-0.006414
1965	9.8200e-01	0.3571	-15.792629	0.000804	8.038497	1.361758	-0.016079
1966	9.8250e-01	0.3433	-15.850358	0.000577	5.772325	0.977858	-0.011546
1967	9.8300e-01	0.3365	-15.873023	0.000227	2.266172	0.383900	-0.004533
1968	9.8350e-01	0.3267	-15.964107	0.000911	9.107446	1.542843	-0.018217
1969	9.8400e-01	0.3143	-16.001738	0.000376	3.762701	0.637419	-0.007526
1970	9.8450e-01	0.3050	-16.088973	0.000872	8.722624	1.477652	-0.017447
1971	9.8500e-01	0.2946	-16.124894	0.000359	3.591669	0.608445	-0.007184
1972	9.8550e-01	0.2873	-16.188182	0.000633	6.328178	1.072022	-0.012658
1973	9.8600e-01	0.2741	-16.245484	0.000573	5.729567	0.970615	-0.011460
1974	9.8650e-01	0.2634	-16.305779	0.000603	6.028872	1.021319	-0.012059
1975	9.8700e-01	0.2560	-16.373344	0.000676	6.755758	1.144456	-0.013513
1976	9.8750e-01	0.2464	-16.440054	0.000667	6.670242	1.129970	-0.013342
1977	9.8800e-01	0.2360	-16.492652	0.000526	5.259229	0.890938	-0.010520
1978	9.8850e-01	0.2258	-16.542256	0.000496	4.959923	0.840234	-0.009921
1979	9.8900e-01	0.2155	-16.608538	0.000663	6.627484	1.122726	-0.013256
1980	9.8950e-01	0.2036	-16.680379	0.000718	7.183337	1.216890	-0.014368
1981	9.9000e-01	0.1954	-16.734687	0.000543	5.430261	0.919911	-0.010862
1982	9.9050e-01	0.1836	-16.800542	0.000658	6.584726	1.115483	-0.013171
1983	9.9100e-01	0.1749	-16.838600	0.000381	3.805458	0.644662	-0.007612
1984	9.9150e-01	0.1658	-16.886494	0.000479	4.788892	0.811260	-0.009579
1985	9.9200e-01	0.1566	-16.979289	0.000928	9.278477	1.571817	-0.018559
1986	9.9250e-01	0.1460	-17.027611	0.000483	4.831650	0.818504	-0.009664
1987	9.9300e-01	0.1342	-17.084057	0.000564	5.644051	0.956128	-0.011289
1988	9.9350e-01	0.1231	-17.140504	0.000564	5.644051	0.956128	-0.011289
1989	9.9400e-01	0.1147	-17.178135	0.000376	3.762701	0.637419	-0.007526
1990	9.9450e-01	0.1063	-17.256390	0.000782	7.824707	1.325541	-0.015651
1991	9.9500e-01	0.0955	-17.324383	0.000680	6.798516	1.151700	-0.013598
1992	9.9550e-01	0.0867	-17.350040	0.000257	2.565478	0.434604	-0.005132
1993	9.9600e-01	0.0741	-17.430861	0.000808	8.081255	1.369002	-0.016164
1994	9.9650e-01	0.0659	-17.502702	0.000718	7.183337	1.216890	-0.014368
1995	9.9700e-01	0.0560	-17.574971	0.000723	7.226095	1.224134	-0.014454
1996	9.9750e-01	0.0427	-17.613030	0.000381	3.805458	0.644662	-0.007612
1997	9.9800e-01	0.0357	-17.684443	0.000714	7.140579	1.209647	-0.014283
1998	9.9850e-01	0.0233	-17.728061	0.000436	4.361312	0.738826	-0.008724
1999	9.9900e-01	0.0134	-17.792632	0.000646	6.456452	1.093753	-0.012914
2000	9.9950e-01	0.0062	-17.862335	0.000697	6.969548	1.180673	-0.013941
2001	1.0000e+00	-0.0048	-17.935887	0.000697	6.969548	1.180673	-0.014710

PMax (uC/cm2):	4.38e+01
Pr (uC/cm2):	3.95e+00
-Pr (uC/cm2):	0.00e+00
PLoss (uC/cm2):	0.00e+00
C (Max-Eff) (nF):	4.38e-01
K (Eff):	7.42e+02
Vert. (+/-Pr) Shift (uC/cm2):	1.97e+00
Offset (uC/cm2):	2.19e+01

A (Loop Area - uC/cm2·Volts):	-3.69e-02



Hysteresis Version: 5.48.1 - Radiant Technologies, Inc., 1999 - 9/12/24

