»»»»»»»»»»»»»»»»»»»»»»»»»»»»»»»»»»»» Hysteresis ««««««««««««««««««««««««««««««««««««
»»»  Executed Version:	5.48.1
»»»  Vision Version:	5.48.4 (R)
»»»  Vision Compiled:	9/18/24
»»»  Driver Version:	5.47.0
»»»  Windows Version:	Windows 8 or 8.1
»»»  Processor Information:	x86 (AMD or Intel) - 32 Processors
»»»  Tester Name:	PMF21124-494 (100V)
»»»  Tester S/N:	PMF21124-494
»»»  Internal Amp Type:	100V RevK 270k
»»»  Internal Amp S/N:	iAB2-596/K     
»»»  Execution Count:	1
»»»»»»»»»»»»»»»»»»»»»»»»»»»»»»»»»»»»»»»»»»««««««««««««««««««««««««««««««««««««««««««

Stored:	6/30/2025 - 17:41:31
Configured:	06/30/25 10:19:58 AM
Executed:	06/30/25 05:41:05 PM

»»»»»»»»»»»»»»»»»»»»»»»»»»»»»»»»»»» Sample Info ««««««««««««««««««««««««««««««««««««
Sample Name:	
Lot Name:	
Wafer Name:	
Die Row/Column:	0/0
Capacitor Number:	0
Sample Area (cm2):	1.00e-04
Sample Thickness (microns):	1.50e-01

Amplifier:	Internal

»»»»»»»»»»»»»»»»»»»»»»»»»»»»»»»»»»» Tester Info «««««««««««««««««««««««««««««««««««
Tester Name:	PMF21124-494 (100V)
Tester Serial Number:	PMF21124-494
Return Signal Amp. Level:	1.79 [Index: 2]

»»»»»»»»»»»»»»»»»»»»»»»»»»»»»»»» Hysteresis Info ««««««««««««««««««««««««««««««««««
Task Name:	Hyst-1804
Volts:	10.00
Field:	666.67 (kV/cm)
DCBias:	0.00
DCField:	0.00 (kV/cm)
Hysteresis Period (ms):	1.00e+00
Preset:	Enabled
Preset Delay (ms):	1.00e+03
Profile:	Standard Monopolar

»»»»»»»»»»»»»»»»»»»»»»»»»»»»»»»»»»»»»» Data «««««««««««««««««««««««««««««««««««««««
Points:	2001

Valid Data

Point	Time (ms)	Drive Voltage	Measured Polarization (uC/cm2)	Capacitance (uF)	Normalized Capacitance (uF/cm2)	Dielectric Constant	Instantaneous Current (mA)
   1	0.0000e+00	-0.0030	-18.508050	0.000565	5.645429	0.956362	0.011289
   2	5.0000e-04	0.0040	-18.451603	0.000565	5.645429	0.956362	0.011289
   3	1.0000e-03	0.0161	-18.391308	0.000603	6.030345	1.021568	0.012059
   4	1.5000e-03	0.0283	-18.368644	0.000227	2.266725	0.383994	0.004533
   5	2.0000e-03	0.0362	-18.337427	0.000312	3.122093	0.528897	0.006243
   6	2.5000e-03	0.0465	-18.290388	0.000470	4.704524	0.796968	0.009408
   7	3.0000e-03	0.0567	-18.231804	0.000586	5.859271	0.992587	0.011717
   8	3.5000e-03	0.0679	-18.201870	0.000299	2.993788	0.507161	0.005987
   9	4.0000e-03	0.0764	-18.159963	0.000419	4.191303	0.710026	0.008381
  10	4.5000e-03	0.0846	-18.118483	0.000415	4.148535	0.702781	0.008296
  11	5.0000e-03	0.0936	-18.094963	0.000235	2.352262	0.398484	0.004704
  12	5.5000e-03	0.1062	-18.033385	0.000616	6.158650	1.043304	0.012316
  13	6.0000e-03	0.1136	-17.994899	0.000385	3.849156	0.652065	0.007697
  14	6.5000e-03	0.1270	-17.960262	0.000346	3.464240	0.586858	0.006928
  15	7.0000e-03	0.1385	-17.916644	0.000436	4.362377	0.739007	0.008724
  16	7.5000e-03	0.1433	-17.882006	0.000346	3.464240	0.586858	0.006928
  17	8.0000e-03	0.1574	-17.828125	0.000539	5.388819	0.912891	0.010776
  18	8.5000e-03	0.1653	-17.813586	0.000145	1.454126	0.246336	0.002908
  19	9.0000e-03	0.1781	-17.753719	0.000599	5.987576	1.014323	0.011974
  20	9.5000e-03	0.1884	-17.703259	0.000505	5.046671	0.854929	0.010092
  21	1.0000e-02	0.1928	-17.657930	0.000453	4.533450	0.767987	0.009066
  22	1.0500e-02	0.2064	-17.660069	-0.000021	-0.213842	-0.036226	-0.000428
  23	1.1000e-02	0.2155	-17.579247	0.000808	8.083228	1.369336	0.016164
  24	1.1500e-02	0.2272	-17.542472	0.000368	3.678082	0.623084	0.007355
  25	1.2000e-02	0.2381	-17.507834	0.000346	3.464240	0.586858	0.006928
  26	1.2500e-02	0.2457	-17.455236	0.000526	5.260513	0.891155	0.010520
  27	1.3000e-02	0.2541	-17.427868	0.000274	2.737178	0.463690	0.005474
  28	1.3500e-02	0.2632	-17.376553	0.000513	5.132208	0.869420	0.010263
  29	1.4000e-02	0.2782	-17.338494	0.000381	3.806388	0.644820	0.007612
  30	1.4500e-02	0.2870	-17.302574	0.000359	3.592546	0.608594	0.007184
  31	1.5000e-02	0.2966	-17.261094	0.000415	4.148535	0.702781	0.008296
  32	1.5500e-02	0.3053	-17.207641	0.000535	5.346050	0.905645	0.010691
  33	1.6000e-02	0.3162	-17.166161	0.000415	4.148535	0.702781	0.008296
  34	1.6500e-02	0.3272	-17.128103	0.000381	3.806388	0.644820	0.007612
  35	1.7000e-02	0.3362	-17.084913	0.000432	4.319608	0.731761	0.008638
  36	1.7500e-02	0.3465	-17.053268	0.000316	3.164862	0.536142	0.006329
  37	1.8000e-02	0.3552	-17.014782	0.000385	3.849156	0.652065	0.007697
  38	1.8500e-02	0.3672	-16.967316	0.000475	4.747292	0.804213	0.009493
  39	1.9000e-02	0.3749	-16.914718	0.000526	5.260513	0.891155	0.010520
  40	1.9500e-02	0.3864	-16.879652	0.000351	3.507009	0.594103	0.007013
  41	2.0000e-02	0.3943	-16.826199	0.000535	5.346050	0.905645	0.010691
  42	2.0500e-02	0.4074	-16.786858	0.000393	3.934693	0.666555	0.007868
  43	2.1000e-02	0.4173	-16.749227	0.000376	3.763619	0.637574	0.007526
  44	2.1500e-02	0.4224	-16.722286	0.000269	2.694409	0.456445	0.005388
  45	2.2000e-02	0.4372	-16.669688	0.000526	5.260513	0.891155	0.010520
  46	2.2500e-02	0.4468	-16.619229	0.000505	5.046671	0.854929	0.010092
  47	2.3000e-02	0.4582	-16.597420	0.000218	2.181188	0.369503	0.004362
  48	2.3500e-02	0.4668	-16.573473	0.000240	2.395030	0.405729	0.004789
  49	2.4000e-02	0.4773	-16.500349	0.000731	7.313397	1.238923	0.014625
  50	2.4500e-02	0.4876	-16.478112	0.000222	2.223957	0.376748	0.004447
  51	2.5000e-02	0.5006	-16.427653	0.000505	5.046671	0.854929	0.010092
  52	2.5500e-02	0.5028	-16.384035	0.000436	4.362377	0.739007	0.008724
  53	2.6000e-02	0.5164	-16.339134	0.000449	4.490682	0.760742	0.008980
  54	2.6500e-02	0.5271	-16.328443	0.000107	1.069210	0.181129	0.002138
  55	2.7000e-02	0.5344	-16.272425	0.000560	5.602661	0.949116	0.011204
  56	2.7500e-02	0.5457	-16.223248	0.000492	4.918366	0.833194	0.009835
  57	2.8000e-02	0.5559	-16.193314	0.000299	2.993788	0.507161	0.005987
  58	2.8500e-02	0.5648	-16.144137	0.000492	4.918366	0.833194	0.009835
  59	2.9000e-02	0.5772	-16.100092	0.000441	4.405145	0.746252	0.008809
  60	2.9500e-02	0.5868	-16.072296	0.000278	2.779946	0.470936	0.005559
  61	3.0000e-02	0.5966	-16.018415	0.000539	5.388819	0.912891	0.010776
  62	3.0500e-02	0.6075	-15.985488	0.000329	3.293167	0.557878	0.006585
  63	3.1000e-02	0.6137	-15.934173	0.000513	5.132208	0.869420	0.010263
  64	3.1500e-02	0.6306	-15.889700	0.000445	4.447914	0.753497	0.008895
  65	3.2000e-02	0.6363	-15.824701	0.000650	6.500797	1.101265	0.013000
  66	3.2500e-02	0.6435	-15.799043	0.000257	2.566104	0.434710	0.005132
  67	3.3000e-02	0.6551	-15.771675	0.000274	2.737178	0.463690	0.005474
  68	3.3500e-02	0.6660	-15.709242	0.000624	6.244187	1.057794	0.012487
  69	3.4000e-02	0.6750	-15.684012	0.000252	2.523336	0.427465	0.005046
  70	3.4500e-02	0.6852	-15.648947	0.000351	3.507009	0.594103	0.007013
  71	3.5000e-02	0.6962	-15.584376	0.000646	6.458029	1.094020	0.012914
  72	3.5500e-02	0.7083	-15.569836	0.000145	1.454126	0.246336	0.002908
  73	3.6000e-02	0.7166	-15.533060	0.000368	3.678082	0.623084	0.007355
  74	3.6500e-02	0.7281	-15.467634	0.000654	6.543565	1.108510	0.013085
  75	3.7000e-02	0.7349	-15.418885	0.000488	4.875598	0.825949	0.009750
  76	3.7500e-02	0.7489	-15.367569	0.000513	5.132208	0.869420	0.010263
  77	3.8000e-02	0.7564	-15.333787	0.000338	3.378704	0.572368	0.006756
  78	3.8500e-02	0.7648	-15.301288	0.000325	3.250398	0.550632	0.006500
  79	3.9000e-02	0.7787	-15.276058	0.000252	2.523336	0.427465	0.005046
  80	3.9500e-02	0.7867	-15.224315	0.000517	5.174976	0.876665	0.010349
  81	4.0000e-02	0.7960	-15.166158	0.000582	5.816503	0.985342	0.011631
  82	4.0500e-02	0.8045	-15.131093	0.000351	3.507009	0.594103	0.007013
  83	4.1000e-02	0.8158	-15.102442	0.000287	2.865483	0.485426	0.005730
  84	4.1500e-02	0.8264	-15.082771	0.000197	1.967346	0.333278	0.003934
  85	4.2000e-02	0.8354	-15.015206	0.000676	6.757407	1.144736	0.013513
  86	4.2500e-02	0.8449	-14.975437	0.000398	3.977461	0.673800	0.007954
  87	4.3000e-02	0.8555	-14.950635	0.000248	2.480567	0.420219	0.004960
  88	4.3500e-02	0.8683	-14.891623	0.000590	5.902039	0.999833	0.011802
  89	4.4000e-02	0.8775	-14.842873	0.000488	4.875598	0.825949	0.009750
  90	4.4500e-02	0.8877	-14.810801	0.000321	3.207630	0.543387	0.006414
  91	4.5000e-02	0.8948	-14.762052	0.000488	4.875598	0.825949	0.009750
  92	4.5500e-02	0.9038	-14.715013	0.000470	4.704524	0.796968	0.009408
  93	4.6000e-02	0.9176	-14.699191	0.000158	1.582431	0.268071	0.003164
  94	4.6500e-02	0.9287	-14.646593	0.000526	5.260513	0.891155	0.010520
  95	4.7000e-02	0.9367	-14.600837	0.000458	4.576219	0.775232	0.009151
  96	4.7500e-02	0.9491	-14.572614	0.000282	2.822714	0.478181	0.005645
  97	4.8000e-02	0.9544	-14.508470	0.000642	6.415260	1.086774	0.012829
  98	4.8500e-02	0.9659	-14.468701	0.000398	3.977461	0.673800	0.007954
  99	4.9000e-02	0.9777	-14.434064	0.000346	3.464240	0.586858	0.006928
 100	4.9500e-02	0.9857	-14.387880	0.000462	4.618987	0.782478	0.009237
 101	5.0000e-02	0.9970	-14.341269	0.000466	4.661756	0.789723	0.009322
 102	5.0500e-02	1.0051	-14.324591	0.000167	1.667968	0.282561	0.003335
 103	5.1000e-02	1.0154	-14.293802	0.000308	3.079325	0.521652	0.006158
 104	5.1500e-02	1.0258	-14.229231	0.000646	6.458029	1.094020	0.012914
 105	5.2000e-02	1.0368	-14.177488	0.000517	5.174976	0.876665	0.010349
 106	5.2500e-02	1.0506	-14.136864	0.000406	4.062998	0.688291	0.008125
 107	5.3000e-02	1.0575	-14.108213	0.000287	2.865483	0.485426	0.005730
 108	5.3500e-02	1.0680	-14.064168	0.000441	4.405145	0.746252	0.008809
 109	5.4000e-02	1.0774	-14.035089	0.000291	2.908251	0.492671	0.005816
 110	5.4500e-02	1.0846	-13.971373	0.000637	6.372492	1.079529	0.012743
 111	5.5000e-02	1.0987	-13.926900	0.000445	4.447914	0.753497	0.008895
 112	5.5500e-02	1.1065	-13.885420	0.000415	4.148535	0.702781	0.008296
 113	5.6000e-02	1.1189	-13.852493	0.000329	3.293167	0.557878	0.006585
 114	5.6500e-02	1.1261	-13.807592	0.000449	4.490682	0.760742	0.008980
 115	5.7000e-02	1.1359	-13.765685	0.000419	4.191303	0.710026	0.008381
 116	5.7500e-02	1.1487	-13.730620	0.000351	3.507009	0.594103	0.007013
 117	5.8000e-02	1.1569	-13.680160	0.000505	5.046671	0.854929	0.010092
 118	5.8500e-02	1.1684	-13.648944	0.000312	3.122093	0.528897	0.006243
 119	5.9000e-02	1.1778	-13.608747	0.000402	4.020230	0.681045	0.008039
 120	5.9500e-02	1.1878	-13.557859	0.000509	5.089440	0.862174	0.010177
 121	6.0000e-02	1.1969	-13.533912	0.000240	2.395030	0.405729	0.004789
 122	6.0500e-02	1.2077	-13.476183	0.000577	5.773734	0.978097	0.011546
 123	6.1000e-02	1.2164	-13.441973	0.000342	3.421472	0.579613	0.006842
 124	6.1500e-02	1.2265	-13.406052	0.000359	3.592546	0.608594	0.007184
 125	6.2000e-02	1.2395	-13.364145	0.000419	4.191303	0.710026	0.008381
 126	6.2500e-02	1.2484	-13.313258	0.000509	5.089440	0.862174	0.010177
 127	6.3000e-02	1.2552	-13.261087	0.000522	5.217745	0.883910	0.010434
 128	6.3500e-02	1.2675	-13.237140	0.000240	2.395030	0.405729	0.004789
 129	6.4000e-02	1.2732	-13.194805	0.000423	4.234072	0.717271	0.008467
 130	6.4500e-02	1.2879	-13.162306	0.000325	3.250398	0.550632	0.006500
 131	6.5000e-02	1.2976	-13.108425	0.000539	5.388819	0.912891	0.010776
 132	6.5500e-02	1.3074	-13.060531	0.000479	4.790061	0.811458	0.009579
 133	6.6000e-02	1.3166	-13.017769	0.000428	4.276840	0.724516	0.008553
 134	6.6500e-02	1.3270	-12.986124	0.000316	3.164862	0.536142	0.006329
 135	6.7000e-02	1.3352	-12.926257	0.000599	5.987576	1.014323	0.011974
 136	6.7500e-02	1.3447	-12.892047	0.000342	3.421472	0.579613	0.006842
 137	6.8000e-02	1.3578	-12.869383	0.000227	2.266725	0.383994	0.004533
 138	6.8500e-02	1.3646	-12.829186	0.000402	4.020230	0.681045	0.008039
 139	6.9000e-02	1.3763	-12.772739	0.000565	5.645429	0.956362	0.011289
 140	6.9500e-02	1.3898	-12.713727	0.000590	5.902039	0.999833	0.011802
 141	7.0000e-02	1.3960	-12.710734	0.000030	0.299379	0.050716	0.000599
 142	7.0500e-02	1.4045	-12.665833	0.000449	4.490682	0.760742	0.008980
 143	7.1000e-02	1.4188	-12.610669	0.000552	5.517124	0.934626	0.011033
 144	7.1500e-02	1.4275	-12.572183	0.000385	3.849156	0.652065	0.007697
 145	7.2000e-02	1.4369	-12.540966	0.000312	3.122093	0.528897	0.006243
 146	7.2500e-02	1.4465	-12.514454	0.000265	2.651641	0.449200	0.005303
 147	7.3000e-02	1.4564	-12.460145	0.000543	5.431587	0.920136	0.010862
 148	7.3500e-02	1.4658	-12.401561	0.000586	5.859271	0.992587	0.011717
 149	7.4000e-02	1.4725	-12.380179	0.000214	2.138420	0.362258	0.004276
 150	7.4500e-02	1.4847	-12.317746	0.000624	6.244187	1.057794	0.012487
 151	7.5000e-02	1.4968	-12.271563	0.000462	4.618987	0.782478	0.009237
 152	7.5500e-02	1.5062	-12.280115	-0.000086	-0.855368	-0.144903	-0.001711
 153	7.6000e-02	1.5183	-12.208274	0.000719	7.185091	1.217187	0.014368
 154	7.6500e-02	1.5266	-12.162090	0.000462	4.618987	0.782478	0.009237
 155	7.7000e-02	1.5347	-12.106072	0.000560	5.602661	0.949116	0.011204
 156	7.7500e-02	1.5482	-12.075710	0.000304	3.036556	0.514407	0.006072
 157	7.8000e-02	1.5561	-12.032520	0.000432	4.319608	0.731761	0.008638
 158	7.8500e-02	1.5679	-11.989330	0.000432	4.319608	0.731761	0.008638
 159	7.9000e-02	1.5768	-11.959396	0.000299	2.993788	0.507161	0.005987
 160	7.9500e-02	1.5849	-11.915351	0.000441	4.405145	0.746252	0.008809
 161	8.0000e-02	1.5967	-11.873443	0.000419	4.191303	0.710026	0.008381
 162	8.0500e-02	1.6061	-11.828543	0.000449	4.490682	0.760742	0.008980
 163	8.1000e-02	1.6165	-11.779793	0.000488	4.875598	0.825949	0.009750
 164	8.1500e-02	1.6263	-11.760123	0.000197	1.967346	0.333278	0.003934
 165	8.2000e-02	1.6379	-11.711373	0.000488	4.875598	0.825949	0.009750
 166	8.2500e-02	1.6446	-11.657065	0.000543	5.431587	0.920136	0.010862
 167	8.3000e-02	1.6550	-11.633118	0.000240	2.395030	0.405729	0.004789
 168	8.3500e-02	1.6628	-11.581803	0.000513	5.132208	0.869420	0.010263
 169	8.4000e-02	1.6751	-11.539468	0.000423	4.234072	0.717271	0.008467
 170	8.4500e-02	1.6844	-11.488153	0.000513	5.132208	0.869420	0.010263
 171	8.5000e-02	1.6968	-11.456081	0.000321	3.207630	0.543387	0.006414
 172	8.5500e-02	1.7067	-11.424437	0.000316	3.164862	0.536142	0.006329
 173	8.6000e-02	1.7154	-11.386378	0.000381	3.806388	0.644820	0.007612
 174	8.6500e-02	1.7256	-11.332497	0.000539	5.388819	0.912891	0.010776
 175	8.7000e-02	1.7340	-11.295722	0.000368	3.678082	0.623084	0.007355
 176	8.7500e-02	1.7480	-11.246545	0.000492	4.918366	0.833194	0.009835
 177	8.8000e-02	1.7573	-11.201216	0.000453	4.533450	0.767987	0.009066
 178	8.8500e-02	1.7680	-11.174704	0.000265	2.651641	0.449200	0.005303
 179	8.9000e-02	1.7768	-11.118685	0.000560	5.602661	0.949116	0.011204
 180	8.9500e-02	1.7874	-11.084047	0.000346	3.464240	0.586858	0.006928
 181	9.0000e-02	1.7973	-11.024607	0.000594	5.944808	1.007078	0.011888
 182	9.0500e-02	1.8065	-10.980562	0.000441	4.405145	0.746252	0.008809
 183	9.1000e-02	1.8152	-10.966023	0.000145	1.454126	0.246336	0.002908
 184	9.1500e-02	1.8262	-10.927964	0.000381	3.806388	0.644820	0.007612
 185	9.2000e-02	1.8369	-10.861682	0.000663	6.629102	1.123000	0.013256
 186	9.2500e-02	1.8465	-10.844149	0.000175	1.753504	0.297052	0.003507
 187	9.3000e-02	1.8593	-10.784282	0.000599	5.987576	1.014323	0.011974
 188	9.3500e-02	1.8631	-10.749644	0.000346	3.464240	0.586858	0.006928
 189	9.4000e-02	1.8755	-10.711586	0.000381	3.806388	0.644820	0.007612
 190	9.4500e-02	1.8869	-10.667112	0.000445	4.447914	0.753497	0.008895
 191	9.5000e-02	1.8958	-10.632475	0.000346	3.464240	0.586858	0.006928
 192	9.5500e-02	1.9072	-10.585864	0.000466	4.661756	0.789723	0.009322
 193	9.6000e-02	1.9154	-10.552937	0.000329	3.293167	0.557878	0.006585
 194	9.6500e-02	1.9258	-10.529845	0.000231	2.309494	0.391239	0.004618
 195	9.7000e-02	1.9360	-10.461425	0.000684	6.842944	1.159226	0.013684
 196	9.7500e-02	1.9477	-10.419090	0.000423	4.234072	0.717271	0.008467
 197	9.8000e-02	1.9565	-10.381886	0.000372	3.720851	0.630329	0.007441
 198	9.8500e-02	1.9666	-10.335275	0.000466	4.661756	0.789723	0.009322
 199	9.9000e-02	1.9800	-10.289519	0.000458	4.576219	0.775232	0.009151
 200	9.9500e-02	1.9851	-10.266000	0.000235	2.352262	0.398484	0.004704
 201	1.0000e-01	1.9971	-10.195442	0.000706	7.056786	1.195452	0.014112
 202	1.0050e-01	2.0056	-10.171067	0.000244	2.437799	0.412974	0.004875
 203	1.0100e-01	2.0168	-10.146693	0.000244	2.437799	0.412974	0.004875
 204	1.0150e-01	2.0261	-10.103502	0.000432	4.319608	0.731761	0.008638
 205	1.0200e-01	2.0383	-10.047483	0.000560	5.602661	0.949116	0.011204
 206	1.0250e-01	2.0476	-10.021398	0.000261	2.608872	0.441955	0.005217
 207	1.0300e-01	2.0554	-9.961958	0.000594	5.944808	1.007078	0.011888
 208	1.0350e-01	2.0644	-9.953834	0.000081	0.812600	0.137658	0.001625
 209	1.0400e-01	2.0748	-9.879854	0.000740	7.398933	1.253413	0.014796
 210	1.0450e-01	2.0876	-9.849065	0.000308	3.079325	0.521652	0.006158
 211	1.0500e-01	2.0944	-9.826401	0.000227	2.266725	0.383994	0.004533
 212	1.0550e-01	2.1051	-9.754560	0.000719	7.185091	1.217187	0.014368
 213	1.0600e-01	2.1156	-9.701535	0.000530	5.303282	0.898400	0.010605
 214	1.0650e-01	2.1274	-9.687851	0.000137	1.368589	0.231845	0.002737
 215	1.0700e-01	2.1363	-9.649364	0.000385	3.849156	0.652065	0.007697
 216	1.0750e-01	2.1469	-9.606174	0.000432	4.319608	0.731761	0.008638
 217	1.0800e-01	2.1565	-9.522787	0.000834	8.339838	1.412807	0.016677
 218	1.0850e-01	2.1678	-9.510814	0.000120	1.197515	0.202865	0.002395
 219	1.0900e-01	2.1747	-9.474038	0.000368	3.678082	0.623084	0.007355
 220	1.0950e-01	2.1851	-9.435979	0.000381	3.806388	0.644820	0.007612
 221	1.1000e-01	2.1954	-9.389368	0.000466	4.661756	0.789723	0.009322
 222	1.1050e-01	2.2052	-9.345323	0.000441	4.405145	0.746252	0.008809
 223	1.1100e-01	2.2145	-9.299567	0.000458	4.576219	0.775232	0.009151
 224	1.1150e-01	2.2253	-9.265357	0.000342	3.421472	0.579613	0.006842
 225	1.1200e-01	2.2364	-9.232857	0.000325	3.250398	0.550632	0.006500
 226	1.1250e-01	2.2458	-9.190095	0.000428	4.276840	0.724516	0.008553
 227	1.1300e-01	2.2569	-9.150753	0.000393	3.934693	0.666555	0.007868
 228	1.1350e-01	2.2652	-9.129800	0.000210	2.095652	0.355013	0.004191
 229	1.1400e-01	2.2772	-9.073353	0.000565	5.645429	0.956362	0.011289
 230	1.1450e-01	2.2865	-9.019900	0.000535	5.346050	0.905645	0.010691
 231	1.1500e-01	2.2964	-8.987828	0.000321	3.207630	0.543387	0.006414
 232	1.1550e-01	2.3055	-8.933092	0.000547	5.474355	0.927381	0.010947
 233	1.1600e-01	2.3159	-8.904869	0.000282	2.822714	0.478181	0.005645
 234	1.1650e-01	2.3263	-8.858258	0.000466	4.661756	0.789723	0.009322
 235	1.1700e-01	2.3371	-8.820199	0.000381	3.806388	0.644820	0.007612
 236	1.1750e-01	2.3470	-8.797535	0.000227	2.266725	0.383994	0.004533
 237	1.1800e-01	2.3573	-8.731253	0.000663	6.629102	1.123000	0.013256
 238	1.1850e-01	2.3664	-8.688063	0.000432	4.319608	0.731761	0.008638
 239	1.1900e-01	2.3770	-8.630333	0.000577	5.773734	0.978097	0.011546
 240	1.1950e-01	2.3871	-8.613656	0.000167	1.667968	0.282561	0.003335
 241	1.2000e-01	2.3963	-8.587143	0.000265	2.651641	0.449200	0.005303
 242	1.2050e-01	2.4068	-8.541387	0.000458	4.576219	0.775232	0.009151
 243	1.2100e-01	2.4158	-8.499908	0.000415	4.148535	0.702781	0.008296
 244	1.2150e-01	2.4272	-8.425501	0.000744	7.441702	1.260658	0.014881
 245	1.2200e-01	2.4356	-8.421225	0.000043	0.427684	0.072452	0.000855
 246	1.2250e-01	2.4460	-8.356653	0.000646	6.458029	1.094020	0.012914
 247	1.2300e-01	2.4551	-8.325436	0.000312	3.122093	0.528897	0.006243
 248	1.2350e-01	2.4669	-8.276260	0.000492	4.918366	0.833194	0.009835
 249	1.2400e-01	2.4759	-8.251030	0.000252	2.523336	0.427465	0.005046
 250	1.2450e-01	2.4892	-8.201853	0.000492	4.918366	0.833194	0.009835
 251	1.2500e-01	2.4953	-8.165505	0.000364	3.635314	0.615839	0.007270
 252	1.2550e-01	2.5055	-8.126163	0.000393	3.934693	0.666555	0.007868
 253	1.2600e-01	2.5183	-8.086822	0.000393	3.934693	0.666555	0.007868
 254	1.2650e-01	2.5305	-8.050473	0.000364	3.635314	0.615839	0.007270
 255	1.2700e-01	2.5366	-8.011132	0.000393	3.934693	0.666555	0.007868
 256	1.2750e-01	2.5464	-7.953830	0.000573	5.730966	0.970852	0.011460
 257	1.2800e-01	2.5549	-7.914061	0.000398	3.977461	0.673800	0.007954
 258	1.2850e-01	2.5668	-7.890542	0.000235	2.352262	0.398484	0.004704
 259	1.2900e-01	2.5766	-7.850772	0.000398	3.977461	0.673800	0.007954
 260	1.2950e-01	2.5859	-7.815280	0.000355	3.549777	0.601349	0.007099
 261	1.3000e-01	2.5952	-7.769096	0.000462	4.618987	0.782478	0.009237
 262	1.3050e-01	2.6074	-7.722485	0.000466	4.661756	0.789723	0.009322
 263	1.3100e-01	2.6154	-7.676729	0.000458	4.576219	0.775232	0.009151
 264	1.3150e-01	2.6263	-7.639526	0.000372	3.720851	0.630329	0.007441
 265	1.3200e-01	2.6373	-7.597191	0.000423	4.234072	0.717271	0.008467
 266	1.3250e-01	2.6459	-7.556566	0.000406	4.062998	0.688291	0.008125
 267	1.3300e-01	2.6570	-7.526632	0.000299	2.993788	0.507161	0.005987
 268	1.3350e-01	2.6672	-7.478738	0.000479	4.790061	0.811458	0.009579
 269	1.3400e-01	2.6772	-7.452653	0.000261	2.608872	0.441955	0.005217
 270	1.3450e-01	2.6878	-7.385088	0.000676	6.757407	1.144736	0.013513
 271	1.3500e-01	2.6950	-7.380812	0.000043	0.427684	0.072452	0.000855
 272	1.3550e-01	2.7052	-7.317524	0.000633	6.329723	1.072284	0.012658
 273	1.3600e-01	2.7168	-7.266209	0.000513	5.132208	0.869420	0.010263
 274	1.3650e-01	2.7280	-7.243545	0.000227	2.266725	0.383994	0.004533
 275	1.3700e-01	2.7338	-7.185815	0.000577	5.773734	0.978097	0.011546
 276	1.3750e-01	2.7483	-7.160158	0.000257	2.566104	0.434710	0.005132
 277	1.3800e-01	2.7553	-7.116112	0.000441	4.405145	0.746252	0.008809
 278	1.3850e-01	2.7649	-7.054534	0.000616	6.158650	1.043304	0.012316
 279	1.3900e-01	2.7760	-7.035291	0.000192	1.924578	0.326032	0.003849
 280	1.3950e-01	2.7859	-6.981410	0.000539	5.388819	0.912891	0.010776
 281	1.4000e-01	2.7976	-6.936937	0.000445	4.447914	0.753497	0.008895
 282	1.4050e-01	2.8078	-6.870655	0.000663	6.629102	1.123000	0.013256
 283	1.4100e-01	2.8177	-6.846708	0.000240	2.395030	0.405729	0.004789
 284	1.4150e-01	2.8266	-6.829176	0.000175	1.753504	0.297052	0.003507
 285	1.4200e-01	2.8386	-6.783847	0.000453	4.533450	0.767987	0.009066
 286	1.4250e-01	2.8467	-6.742795	0.000411	4.105766	0.695536	0.008210
 287	1.4300e-01	2.8546	-6.711151	0.000316	3.164862	0.536142	0.006329
 288	1.4350e-01	2.8657	-6.661547	0.000496	4.961134	0.840439	0.009921
 289	1.4400e-01	2.8772	-6.615791	0.000458	4.576219	0.775232	0.009151
 290	1.4450e-01	2.8864	-6.582008	0.000338	3.378704	0.572368	0.006756
 291	1.4500e-01	2.8973	-6.545660	0.000364	3.635314	0.615839	0.007270
 292	1.4550e-01	2.9083	-6.515726	0.000299	2.993788	0.507161	0.005987
 293	1.4600e-01	2.9173	-6.484082	0.000316	3.164862	0.536142	0.006329
 294	1.4650e-01	2.9256	-6.425925	0.000582	5.816503	0.985342	0.011631
 295	1.4700e-01	2.9366	-6.400267	0.000257	2.566104	0.434710	0.005132
 296	1.4750e-01	2.9474	-6.345959	0.000543	5.431587	0.920136	0.010862
 297	1.4800e-01	2.9568	-6.304907	0.000411	4.105766	0.695536	0.008210
 298	1.4850e-01	2.9684	-6.271125	0.000338	3.378704	0.572368	0.006756
 299	1.4900e-01	2.9782	-6.236059	0.000351	3.507009	0.594103	0.007013
 300	1.4950e-01	2.9841	-6.193724	0.000423	4.234072	0.717271	0.008467
 301	1.5000e-01	3.0006	-6.165074	0.000287	2.865483	0.485426	0.005730
 302	1.5050e-01	3.0080	-6.106917	0.000582	5.816503	0.985342	0.011631
 303	1.5100e-01	3.0185	-6.088529	0.000184	1.839041	0.311542	0.003678
 304	1.5150e-01	3.0270	-6.033365	0.000552	5.517124	0.934626	0.011033
 305	1.5200e-01	3.0345	-5.989747	0.000436	4.362377	0.739007	0.008724
 306	1.5250e-01	3.0481	-5.945274	0.000445	4.447914	0.753497	0.008895
 307	1.5300e-01	3.0594	-5.913630	0.000316	3.164862	0.536142	0.006329
 308	1.5350e-01	3.0673	-5.882841	0.000308	3.079325	0.521652	0.006158
 309	1.5400e-01	3.0786	-5.834092	0.000488	4.875598	0.825949	0.009750
 310	1.5450e-01	3.0856	-5.800737	0.000334	3.335935	0.565123	0.006671
 311	1.5500e-01	3.0982	-5.755836	0.000449	4.490682	0.760742	0.008980
 312	1.5550e-01	3.1092	-5.702811	0.000530	5.303282	0.898400	0.010605
 313	1.5600e-01	3.1154	-5.671166	0.000316	3.164862	0.536142	0.006329
 314	1.5650e-01	3.1268	-5.636956	0.000342	3.421472	0.579613	0.006842
 315	1.5700e-01	3.1354	-5.585214	0.000517	5.174976	0.876665	0.010349
 316	1.5750e-01	3.1462	-5.553569	0.000316	3.164862	0.536142	0.006329
 317	1.5800e-01	3.1537	-5.518504	0.000351	3.507009	0.594103	0.007013
 318	1.5850e-01	3.1651	-5.488143	0.000304	3.036556	0.514407	0.006072
 319	1.5900e-01	3.1757	-5.419295	0.000689	6.885713	1.166471	0.013770
 320	1.5950e-01	3.1851	-5.411170	0.000081	0.812600	0.137658	0.001625
 321	1.6000e-01	3.1946	-5.343178	0.000680	6.800176	1.151981	0.013598
 322	1.6050e-01	3.2062	-5.333770	0.000094	0.940905	0.159394	0.001882
 323	1.6100e-01	3.2143	-5.290580	0.000432	4.319608	0.731761	0.008638
 324	1.6150e-01	3.2281	-5.246107	0.000445	4.447914	0.753497	0.008895
 325	1.6200e-01	3.2362	-5.193081	0.000530	5.303282	0.898400	0.010605
 326	1.6250e-01	3.2447	-5.161865	0.000312	3.122093	0.528897	0.006243
 327	1.6300e-01	3.2545	-5.126372	0.000355	3.549777	0.601349	0.007099
 328	1.6350e-01	3.2678	-5.088741	0.000376	3.763619	0.637574	0.007526
 329	1.6400e-01	3.2758	-5.045123	0.000436	4.362377	0.739007	0.008724
 330	1.6450e-01	3.2848	-5.006209	0.000389	3.891924	0.659310	0.007783
 331	1.6500e-01	3.2982	-4.948907	0.000573	5.730966	0.970852	0.011460
 332	1.6550e-01	3.3051	-4.917263	0.000316	3.164862	0.536142	0.006329
 333	1.6600e-01	3.3203	-4.879204	0.000381	3.806388	0.644820	0.007612
 334	1.6650e-01	3.3244	-4.842001	0.000372	3.720851	0.630329	0.007441
 335	1.6700e-01	3.3357	-4.806508	0.000355	3.549777	0.601349	0.007099
 336	1.6750e-01	3.3484	-4.757331	0.000492	4.918366	0.833194	0.009835
 337	1.6800e-01	3.3578	-4.715852	0.000415	4.148535	0.702781	0.008296
 338	1.6850e-01	3.3682	-4.674800	0.000411	4.105766	0.695536	0.008210
 339	1.6900e-01	3.3783	-4.656839	0.000180	1.796273	0.304297	0.003592
 340	1.6950e-01	3.3881	-4.612794	0.000441	4.405145	0.746252	0.008809
 341	1.7000e-01	3.3951	-4.561479	0.000513	5.132208	0.869420	0.010263
 342	1.7050e-01	3.4033	-4.513585	0.000479	4.790061	0.811458	0.009579
 343	1.7100e-01	3.4146	-4.489638	0.000240	2.395030	0.405729	0.004789
 344	1.7150e-01	3.4262	-4.440461	0.000492	4.918366	0.833194	0.009835
 345	1.7200e-01	3.4344	-4.408389	0.000321	3.207630	0.543387	0.006414
 346	1.7250e-01	3.4454	-4.375034	0.000334	3.335935	0.565123	0.006671
 347	1.7300e-01	3.4578	-4.340824	0.000342	3.421472	0.579613	0.006842
 348	1.7350e-01	3.4680	-4.299345	0.000415	4.148535	0.702781	0.008296
 349	1.7400e-01	3.4770	-4.272832	0.000265	2.651641	0.449200	0.005303
 350	1.7450e-01	3.4863	-4.195004	0.000778	7.783849	1.318620	0.015566
 351	1.7500e-01	3.4976	-4.162077	0.000329	3.293167	0.557878	0.006585
 352	1.7550e-01	3.5086	-4.137275	0.000248	2.480567	0.420219	0.004960
 353	1.7600e-01	3.5153	-4.094084	0.000432	4.319608	0.731761	0.008638
 354	1.7650e-01	3.5284	-4.054743	0.000393	3.934693	0.666555	0.007868
 355	1.7700e-01	3.5376	-4.028230	0.000265	2.651641	0.449200	0.005303
 356	1.7750e-01	3.5468	-3.991454	0.000368	3.678082	0.623084	0.007355
 357	1.7800e-01	3.5566	-3.952540	0.000389	3.891924	0.659310	0.007783
 358	1.7850e-01	3.5660	-3.923462	0.000291	2.908251	0.492671	0.005816
 359	1.7900e-01	3.5773	-3.859746	0.000637	6.372492	1.079529	0.012743
 360	1.7950e-01	3.5864	-3.843496	0.000163	1.625199	0.275316	0.003250
 361	1.8000e-01	3.5969	-3.780635	0.000629	6.286955	1.065039	0.012572
 362	1.8050e-01	3.6060	-3.760109	0.000205	2.052883	0.347768	0.004105
 363	1.8100e-01	3.6148	-3.698531	0.000616	6.158650	1.043304	0.012316
 364	1.8150e-01	3.6267	-3.684847	0.000137	1.368589	0.231845	0.002737
 365	1.8200e-01	3.6365	-3.646788	0.000381	3.806388	0.644820	0.007612
 366	1.8250e-01	3.6469	-3.607874	0.000389	3.891924	0.659310	0.007783
 367	1.8300e-01	3.6572	-3.561691	0.000462	4.618987	0.782478	0.009237
 368	1.8350e-01	3.6652	-3.527481	0.000342	3.421472	0.579613	0.006842
 369	1.8400e-01	3.6751	-3.497547	0.000299	2.993788	0.507161	0.005987
 370	1.8450e-01	3.6865	-3.447087	0.000505	5.046671	0.854929	0.010092
 371	1.8500e-01	3.6963	-3.400476	0.000466	4.661756	0.789723	0.009322
 372	1.8550e-01	3.7067	-3.366266	0.000342	3.421472	0.579613	0.006842
 373	1.8600e-01	3.7161	-3.329490	0.000368	3.678082	0.623084	0.007355
 374	1.8650e-01	3.7262	-3.291432	0.000381	3.806388	0.644820	0.007612
 375	1.8700e-01	3.7354	-3.249952	0.000415	4.148535	0.702781	0.008296
 376	1.8750e-01	3.7457	-3.214459	0.000355	3.549777	0.601349	0.007099
 377	1.8800e-01	3.7564	-3.170414	0.000441	4.405145	0.746252	0.008809
 378	1.8850e-01	3.7677	-3.154592	0.000158	1.582431	0.268071	0.003164
 379	1.8900e-01	3.7773	-3.093014	0.000616	6.158650	1.043304	0.012316
 380	1.8950e-01	3.7878	-3.056665	0.000364	3.635314	0.615839	0.007270
 381	1.9000e-01	3.7923	-3.021600	0.000351	3.507009	0.594103	0.007013
 382	1.9050e-01	3.8053	-2.982259	0.000393	3.934693	0.666555	0.007868
 383	1.9100e-01	3.8167	-2.940779	0.000415	4.148535	0.702781	0.008296
 384	1.9150e-01	3.8259	-2.924102	0.000167	1.667968	0.282561	0.003335
 385	1.9200e-01	3.8351	-2.862524	0.000616	6.158650	1.043304	0.012316
 386	1.9250e-01	3.8467	-2.830024	0.000325	3.250398	0.550632	0.006500
 387	1.9300e-01	3.8577	-2.821899	0.000081	0.812600	0.137658	0.001625
 388	1.9350e-01	3.8647	-2.758183	0.000637	6.372492	1.079529	0.012743
 389	1.9400e-01	3.8747	-2.726966	0.000312	3.122093	0.528897	0.006243
 390	1.9450e-01	3.8858	-2.685059	0.000419	4.191303	0.710026	0.008381
 391	1.9500e-01	3.8959	-2.626474	0.000586	5.859271	0.992587	0.011717
 392	1.9550e-01	3.9072	-2.589699	0.000368	3.678082	0.623084	0.007355
 393	1.9600e-01	3.9160	-2.570456	0.000192	1.924578	0.326032	0.003849
 394	1.9650e-01	3.9246	-2.518285	0.000522	5.217745	0.883910	0.010434
 395	1.9700e-01	3.9363	-2.478516	0.000398	3.977461	0.673800	0.007954
 396	1.9750e-01	3.9487	-2.466970	0.000115	1.154747	0.195619	0.002309
 397	1.9800e-01	3.9560	-2.391708	0.000753	7.527239	1.275149	0.015052
 398	1.9850e-01	3.9685	-2.381018	0.000107	1.069210	0.181129	0.002138
 399	1.9900e-01	3.9753	-2.341676	0.000393	3.934693	0.666555	0.007868
 400	1.9950e-01	3.9865	-2.296775	0.000449	4.490682	0.760742	0.008980
 401	2.0000e-01	3.9957	-2.256151	0.000406	4.062998	0.688291	0.008125
 402	2.0050e-01	4.0090	-2.221941	0.000342	3.421472	0.579613	0.006842
 403	2.0100e-01	4.0157	-2.161646	0.000603	6.030345	1.021568	0.012059
 404	2.0150e-01	4.0277	-2.145396	0.000163	1.625199	0.275316	0.003250
 405	2.0200e-01	4.0366	-2.106482	0.000389	3.891924	0.659310	0.007783
 406	2.0250e-01	4.0479	-2.078686	0.000278	2.779946	0.470936	0.005559
 407	2.0300e-01	4.0573	-2.032075	0.000466	4.661756	0.789723	0.009322
 408	2.0350e-01	4.0657	-1.981616	0.000505	5.046671	0.854929	0.010092
 409	2.0400e-01	4.0784	-1.966649	0.000150	1.496894	0.253581	0.002993
 410	2.0450e-01	4.0875	-1.908492	0.000582	5.816503	0.985342	0.011631
 411	2.0500e-01	4.0962	-1.890959	0.000175	1.753504	0.297052	0.003507
 412	2.0550e-01	4.1068	-1.831947	0.000590	5.902039	0.999833	0.011802
 413	2.0600e-01	4.1135	-1.804579	0.000274	2.737178	0.463690	0.005474
 414	2.0650e-01	4.1272	-1.775500	0.000291	2.908251	0.492671	0.005816
 415	2.0700e-01	4.1365	-1.728034	0.000475	4.747292	0.804213	0.009493
 416	2.0750e-01	4.1445	-1.696389	0.000316	3.164862	0.536142	0.006329
 417	2.0800e-01	4.1562	-1.657476	0.000389	3.891924	0.659310	0.007783
 418	2.0850e-01	4.1687	-1.619417	0.000381	3.806388	0.644820	0.007612
 419	2.0900e-01	4.1779	-1.582641	0.000368	3.678082	0.623084	0.007355
 420	2.0950e-01	4.1876	-1.530471	0.000522	5.217745	0.883910	0.010434
 421	2.1000e-01	4.1968	-1.510800	0.000197	1.967346	0.333278	0.003934
 422	2.1050e-01	4.2084	-1.468038	0.000428	4.276840	0.724516	0.008553
 423	2.1100e-01	4.2151	-1.441952	0.000261	2.608872	0.441955	0.005217
 424	2.1150e-01	4.2249	-1.413302	0.000287	2.865483	0.485426	0.005730
 425	2.1200e-01	4.2363	-1.364980	0.000483	4.832829	0.818703	0.009664
 426	2.1250e-01	4.2468	-1.327349	0.000376	3.763619	0.637574	0.007526
 427	2.1300e-01	4.2554	-1.278600	0.000488	4.875598	0.825949	0.009750
 428	2.1350e-01	4.2664	-1.239258	0.000393	3.934693	0.666555	0.007868
 429	2.1400e-01	4.2773	-1.204193	0.000351	3.507009	0.594103	0.007013
 430	2.1450e-01	4.2877	-1.181101	0.000231	2.309494	0.391239	0.004618
 431	2.1500e-01	4.2989	-1.121233	0.000599	5.987576	1.014323	0.011974
 432	2.1550e-01	4.3060	-1.079326	0.000419	4.191303	0.710026	0.008381
 433	2.1600e-01	4.3155	-1.047254	0.000321	3.207630	0.543387	0.006414
 434	2.1650e-01	4.3250	-1.033998	0.000133	1.325820	0.224600	0.002651
 435	2.1700e-01	4.3365	-1.016893	0.000171	1.710736	0.289807	0.003421
 436	2.1750e-01	4.3460	-0.957881	0.000590	5.902039	0.999833	0.011802
 437	2.1800e-01	4.3561	-0.926236	0.000316	3.164862	0.536142	0.006329
 438	2.1850e-01	4.3677	-0.887750	0.000385	3.849156	0.652065	0.007697
 439	2.1900e-01	4.3777	-0.844560	0.000432	4.319608	0.731761	0.008638
 440	2.1950e-01	4.3883	-0.812060	0.000325	3.250398	0.550632	0.006500
 441	2.2000e-01	4.3964	-0.759890	0.000522	5.217745	0.883910	0.010434
 442	2.2050e-01	4.4086	-0.739792	0.000201	2.010115	0.340523	0.004020
 443	2.2100e-01	4.4171	-0.695319	0.000445	4.447914	0.753497	0.008895
 444	2.2150e-01	4.4284	-0.657688	0.000376	3.763619	0.637574	0.007526
 445	2.2200e-01	4.4373	-0.641010	0.000167	1.667968	0.282561	0.003335
 446	2.2250e-01	4.4476	-0.593972	0.000470	4.704524	0.796968	0.009408
 447	2.2300e-01	4.4556	-0.546505	0.000475	4.747292	0.804213	0.009493
 448	2.2350e-01	4.4658	-0.518709	0.000278	2.779946	0.470936	0.005559
 449	2.2400e-01	4.4754	-0.483217	0.000355	3.549777	0.601349	0.007099
 450	2.2450e-01	4.4879	-0.455849	0.000274	2.737178	0.463690	0.005474
 451	2.2500e-01	4.4980	-0.404534	0.000513	5.132208	0.869420	0.010263
 452	2.2550e-01	4.5078	-0.361771	0.000428	4.276840	0.724516	0.008553
 453	2.2600e-01	4.5172	-0.328844	0.000329	3.293167	0.557878	0.006585
 454	2.2650e-01	4.5264	-0.304042	0.000248	2.480567	0.420219	0.004960
 455	2.2700e-01	4.5361	-0.254009	0.000500	5.003903	0.847684	0.010006
 456	2.2750e-01	4.5459	-0.204405	0.000496	4.961134	0.840439	0.009921
 457	2.2800e-01	4.5581	-0.193287	0.000111	1.111978	0.188374	0.002224
 458	2.2850e-01	4.5667	-0.158221	0.000351	3.507009	0.594103	0.007013
 459	2.2900e-01	4.5782	-0.119307	0.000389	3.891924	0.659310	0.007783
 460	2.2950e-01	4.5869	-0.068848	0.000505	5.046671	0.854929	0.010092
 461	2.3000e-01	4.5953	-0.047039	0.000218	2.181188	0.369503	0.004362
 462	2.3050e-01	4.6077	-0.005132	0.000419	4.191303	0.710026	0.008381
 463	2.3100e-01	4.6175	0.045328	0.000505	5.046671	0.854929	0.010092
 464	2.3150e-01	4.6265	0.051315	0.000060	0.598758	0.101432	0.001197
 465	2.3200e-01	4.6381	0.095360	0.000441	4.405145	0.746252	0.008809
 466	2.3250e-01	4.6460	0.153517	0.000582	5.816503	0.985342	0.011631
 467	2.3300e-01	4.6594	0.150096	-0.000034	-0.342147	-0.057961	-0.000684
 468	2.3350e-01	4.6677	0.223648	0.000736	7.356165	1.246168	0.014710
 469	2.3400e-01	4.6759	0.264700	0.000411	4.105766	0.695536	0.008210
 470	2.3450e-01	4.6872	0.277956	0.000133	1.325820	0.224600	0.002651
 471	2.3500e-01	4.6954	0.305752	0.000278	2.779946	0.470936	0.005559
 472	2.3550e-01	4.7079	0.353218	0.000475	4.747292	0.804213	0.009493
 473	2.3600e-01	4.7202	0.376738	0.000235	2.352262	0.398484	0.004704
 474	2.3650e-01	4.7252	0.404961	0.000282	2.822714	0.478181	0.005645
 475	2.3700e-01	4.7351	0.462691	0.000577	5.773734	0.978097	0.011546
 476	2.3750e-01	4.7493	0.492624	0.000299	2.993788	0.507161	0.005987
 477	2.3800e-01	4.7568	0.538808	0.000462	4.618987	0.782478	0.009237
 478	2.3850e-01	4.7717	0.594399	0.000556	5.559892	0.941871	0.011118
 479	2.3900e-01	4.7772	0.608938	0.000145	1.454126	0.246336	0.002908
 480	2.3950e-01	4.7870	0.641866	0.000329	3.293167	0.557878	0.006585
 481	2.4000e-01	4.8004	0.675648	0.000338	3.378704	0.572368	0.006756
 482	2.4050e-01	4.8065	0.719693	0.000441	4.405145	0.746252	0.008809
 483	2.4100e-01	4.8187	0.729529	0.000098	0.983673	0.166639	0.001967
 484	2.4150e-01	4.8267	0.785548	0.000560	5.602661	0.949116	0.011204
 485	2.4200e-01	4.8373	0.818902	0.000334	3.335935	0.565123	0.006671
 486	2.4250e-01	4.8492	0.856106	0.000372	3.720851	0.630329	0.007441
 487	2.4300e-01	4.8578	0.904000	0.000479	4.790061	0.811458	0.009579
 488	2.4350e-01	4.8669	0.924526	0.000205	2.052883	0.347768	0.004105
 489	2.4400e-01	4.8763	0.966005	0.000415	4.148535	0.702781	0.008296
 490	2.4450e-01	4.8877	1.001498	0.000355	3.549777	0.601349	0.007099
 491	2.4500e-01	4.8956	1.039129	0.000376	3.763619	0.637574	0.007526
 492	2.4550e-01	4.9074	1.072057	0.000329	3.293167	0.557878	0.006585
 493	2.4600e-01	4.9182	1.112681	0.000406	4.062998	0.688291	0.008125
 494	2.4650e-01	4.9256	1.146891	0.000342	3.421472	0.579613	0.006842
 495	2.4700e-01	4.9365	1.166562	0.000197	1.967346	0.333278	0.003934
 496	2.4750e-01	4.9463	1.206331	0.000398	3.977461	0.673800	0.007954
 497	2.4800e-01	4.9564	1.239258	0.000329	3.293167	0.557878	0.006585
 498	2.4850e-01	4.9670	1.268764	0.000295	2.951020	0.499916	0.005901
 499	2.4900e-01	4.9795	1.308106	0.000393	3.934693	0.666555	0.007868
 500	2.4950e-01	4.9887	1.346164	0.000381	3.806388	0.644820	0.007612
 501	2.5000e-01	4.9971	1.377381	0.000312	3.122093	0.528897	0.006243
 502	2.5050e-01	5.0079	1.402183	0.000248	2.480567	0.420219	0.004960
 503	2.5100e-01	5.0171	1.428268	0.000261	2.608872	0.441955	0.005217
 504	2.5150e-01	5.0269	1.490274	0.000620	6.201418	1.050549	0.012401
 505	2.5200e-01	5.0356	1.518070	0.000278	2.779946	0.470936	0.005559
 506	2.5250e-01	5.0476	1.533464	0.000154	1.539662	0.260826	0.003079
 507	2.5300e-01	5.0571	1.625831	0.000924	9.237975	1.564955	0.018473
 508	2.5350e-01	5.0655	1.621983	-0.000038	-0.384916	-0.065206	-0.000770
 509	2.5400e-01	5.0764	1.676291	0.000543	5.431587	0.920136	0.010862
 510	2.5450e-01	5.0885	1.701949	0.000257	2.566104	0.434710	0.005132
 511	2.5500e-01	5.0954	1.738297	0.000364	3.635314	0.615839	0.007270
 512	2.5550e-01	5.1071	1.760961	0.000227	2.266725	0.383994	0.004533
 513	2.5600e-01	5.1141	1.814842	0.000539	5.388819	0.912891	0.010776
 514	2.5650e-01	5.1282	1.844348	0.000295	2.951020	0.499916	0.005901
 515	2.5700e-01	5.1343	1.861880	0.000175	1.753504	0.297052	0.003507
 516	2.5750e-01	5.1477	1.920037	0.000582	5.816503	0.985342	0.011631
 517	2.5800e-01	5.1569	1.946978	0.000269	2.694409	0.456445	0.005388
 518	2.5850e-01	5.1666	1.983754	0.000368	3.678082	0.623084	0.007355
 519	2.5900e-01	5.1764	2.015398	0.000316	3.164862	0.536142	0.006329
 520	2.5950e-01	5.1874	2.039345	0.000240	2.395030	0.405729	0.004789
 521	2.6000e-01	5.1959	2.082535	0.000432	4.319608	0.731761	0.008638
 522	2.6050e-01	5.2066	2.119311	0.000368	3.678082	0.623084	0.007355
 523	2.6100e-01	5.2185	2.149672	0.000304	3.036556	0.514407	0.006072
 524	2.6150e-01	5.2271	2.190724	0.000411	4.105766	0.695536	0.008210
 525	2.6200e-01	5.2374	2.243750	0.000530	5.303282	0.898400	0.010605
 526	2.6250e-01	5.2454	2.254013	0.000103	1.026442	0.173884	0.002053
 527	2.6300e-01	5.2557	2.288650	0.000346	3.464240	0.586858	0.006928
 528	2.6350e-01	5.2695	2.349373	0.000607	6.073113	1.028813	0.012145
 529	2.6400e-01	5.2768	2.372465	0.000231	2.309494	0.391239	0.004618
 530	2.6450e-01	5.2863	2.407103	0.000346	3.464240	0.586858	0.006928
 531	2.6500e-01	5.2972	2.416510	0.000094	0.940905	0.159394	0.001882
 532	2.6550e-01	5.3076	2.483220	0.000667	6.671871	1.130245	0.013342
 533	2.6600e-01	5.3168	2.499470	0.000163	1.625199	0.275316	0.003250
 534	2.6650e-01	5.3296	2.531542	0.000321	3.207630	0.543387	0.006414
 535	2.6700e-01	5.3375	2.571311	0.000398	3.977461	0.673800	0.007954
 536	2.6750e-01	5.3442	2.609797	0.000385	3.849156	0.652065	0.007697
 537	2.6800e-01	5.3571	2.611935	0.000021	0.213842	0.036226	0.000428
 538	2.6850e-01	5.3693	2.660257	0.000483	4.832829	0.818703	0.009664
 539	2.6900e-01	5.3775	2.708151	0.000479	4.790061	0.811458	0.009579
 540	2.6950e-01	5.3851	2.732526	0.000244	2.437799	0.412974	0.004875
 541	2.7000e-01	5.3961	2.769729	0.000372	3.720851	0.630329	0.007441
 542	2.7050e-01	5.4083	2.809070	0.000393	3.934693	0.666555	0.007868
 543	2.7100e-01	5.4181	2.883905	0.000748	7.484470	1.267904	0.014967
 544	2.7150e-01	5.4294	2.882194	-0.000017	-0.171074	-0.028981	-0.000342
 545	2.7200e-01	5.4379	2.918115	0.000359	3.592546	0.608594	0.007184
 546	2.7250e-01	5.4462	2.932654	0.000145	1.454126	0.246336	0.002908
 547	2.7300e-01	5.4581	2.976272	0.000436	4.362377	0.739007	0.008724
 548	2.7350e-01	5.4660	3.019462	0.000432	4.319608	0.731761	0.008638
 549	2.7400e-01	5.4785	3.040843	0.000214	2.138420	0.362258	0.004276
 550	2.7450e-01	5.4898	3.091303	0.000505	5.046671	0.854929	0.010092
 551	2.7500e-01	5.4968	3.112257	0.000210	2.095652	0.355013	0.004191
 552	2.7550e-01	5.5066	3.126796	0.000145	1.454126	0.246336	0.002908
 553	2.7600e-01	5.5159	3.188802	0.000620	6.201418	1.050549	0.012401
 554	2.7650e-01	5.5261	3.220874	0.000321	3.207630	0.543387	0.006414
 555	2.7700e-01	5.5359	3.259787	0.000389	3.891924	0.659310	0.007783
 556	2.7750e-01	5.5481	3.279458	0.000197	1.967346	0.333278	0.003934
 557	2.7800e-01	5.5569	3.323504	0.000441	4.405145	0.746252	0.008809
 558	2.7850e-01	5.5658	3.353865	0.000304	3.036556	0.514407	0.006072
 559	2.7900e-01	5.5759	3.369260	0.000154	1.539662	0.260826	0.003079
 560	2.7950e-01	5.5859	3.420147	0.000509	5.089440	0.862174	0.010177
 561	2.8000e-01	5.5975	3.454785	0.000346	3.464240	0.586858	0.006928
 562	2.8050e-01	5.6076	3.476593	0.000218	2.181188	0.369503	0.004362
 563	2.8100e-01	5.6171	3.510804	0.000342	3.421472	0.579613	0.006842
 564	2.8150e-01	5.6262	3.541593	0.000308	3.079325	0.521652	0.006158
 565	2.8200e-01	5.6390	3.580079	0.000385	3.849156	0.652065	0.007697
 566	2.8250e-01	5.6464	3.626262	0.000462	4.618987	0.782478	0.009237
 567	2.8300e-01	5.6580	3.671163	0.000449	4.490682	0.760742	0.008980
 568	2.8350e-01	5.6662	3.692117	0.000210	2.095652	0.355013	0.004191
 569	2.8400e-01	5.6781	3.718202	0.000261	2.608872	0.441955	0.005217
 570	2.8450e-01	5.6885	3.731886	0.000137	1.368589	0.231845	0.002737
 571	2.8500e-01	5.6982	3.791753	0.000599	5.987576	1.014323	0.011974
 572	2.8550e-01	5.7062	3.835371	0.000436	4.362377	0.739007	0.008724
 573	2.8600e-01	5.7169	3.852904	0.000175	1.753504	0.297052	0.003507
 574	2.8650e-01	5.7245	3.889679	0.000368	3.678082	0.623084	0.007355
 575	2.8700e-01	5.7361	3.917475	0.000278	2.779946	0.470936	0.005559
 576	2.8750e-01	5.7455	3.969218	0.000517	5.174976	0.876665	0.010349
 577	2.8800e-01	5.7564	3.995731	0.000265	2.651641	0.449200	0.005303
 578	2.8850e-01	5.7672	4.038065	0.000423	4.234072	0.717271	0.008467
 579	2.8900e-01	5.7782	4.071848	0.000338	3.378704	0.572368	0.006756
 580	2.8950e-01	5.7843	4.104347	0.000325	3.250398	0.550632	0.006500
 581	2.9000e-01	5.7971	4.132998	0.000287	2.865483	0.485426	0.005730
 582	2.9050e-01	5.8058	4.171057	0.000381	3.806388	0.644820	0.007612
 583	2.9100e-01	5.8154	4.192011	0.000210	2.095652	0.355013	0.004191
 584	2.9150e-01	5.8246	4.225365	0.000334	3.335935	0.565123	0.006671
 585	2.9200e-01	5.8362	4.264279	0.000389	3.891924	0.659310	0.007783
 586	2.9250e-01	5.8502	4.291647	0.000274	2.737178	0.463690	0.005474
 587	2.9300e-01	5.8591	4.323719	0.000321	3.207630	0.543387	0.006414
 588	2.9350e-01	5.8691	4.350232	0.000265	2.651641	0.449200	0.005303
 589	2.9400e-01	5.8783	4.399409	0.000492	4.918366	0.833194	0.009835
 590	2.9450e-01	5.8850	4.412238	0.000128	1.283052	0.217355	0.002566
 591	2.9500e-01	5.8960	4.457566	0.000453	4.533450	0.767987	0.009066
 592	2.9550e-01	5.9070	4.498618	0.000411	4.105766	0.695536	0.008210
 593	2.9600e-01	5.9146	4.537532	0.000389	3.891924	0.659310	0.007783
 594	2.9650e-01	5.9271	4.552926	0.000154	1.539662	0.260826	0.003079
 595	2.9700e-01	5.9363	4.600393	0.000475	4.747292	0.804213	0.009493
 596	2.9750e-01	5.9467	4.642300	0.000419	4.191303	0.710026	0.008381
 597	2.9800e-01	5.9579	4.655556	0.000133	1.325820	0.224600	0.002651
 598	2.9850e-01	5.9656	4.690194	0.000346	3.464240	0.586858	0.006928
 599	2.9900e-01	5.9753	4.717134	0.000269	2.694409	0.456445	0.005388
 600	2.9950e-01	5.9851	4.759469	0.000423	4.234072	0.717271	0.008467
 601	3.0000e-01	5.9995	4.818482	0.000590	5.902039	0.999833	0.011802
 602	3.0050e-01	6.0062	4.825324	0.000068	0.684294	0.115923	0.001368
 603	3.0100e-01	6.0135	4.862099	0.000368	3.678082	0.623084	0.007355
 604	3.0150e-01	6.0272	4.894599	0.000325	3.250398	0.550632	0.006500
 605	3.0200e-01	6.0370	4.917263	0.000227	2.266725	0.383994	0.004533
 606	3.0250e-01	6.0461	4.971999	0.000547	5.474355	0.927381	0.010947
 607	3.0300e-01	6.0559	4.995518	0.000235	2.352262	0.398484	0.004704
 608	3.0350e-01	6.0681	5.011341	0.000158	1.582431	0.268071	0.003164
 609	3.0400e-01	6.0773	5.044695	0.000334	3.335935	0.565123	0.006671
 610	3.0450e-01	6.0858	5.093872	0.000492	4.918366	0.833194	0.009835
 611	3.0500e-01	6.0986	5.122523	0.000287	2.865483	0.485426	0.005730
 612	3.0550e-01	6.1060	5.171700	0.000492	4.918366	0.833194	0.009835
 613	3.0600e-01	6.1169	5.201206	0.000295	2.951020	0.499916	0.005901
 614	3.0650e-01	6.1261	5.229857	0.000287	2.865483	0.485426	0.005730
 615	3.0700e-01	6.1372	5.226864	-0.000030	-0.299379	-0.050716	-0.000599
 616	3.0750e-01	6.1462	5.275185	0.000483	4.832829	0.818703	0.009664
 617	3.0800e-01	6.1584	5.326073	0.000509	5.089440	0.862174	0.010177
 618	3.0850e-01	6.1682	5.338902	0.000128	1.283052	0.217355	0.002566
 619	3.0900e-01	6.1775	5.381236	0.000423	4.234072	0.717271	0.008467
 620	3.0950e-01	6.1859	5.406039	0.000248	2.480567	0.420219	0.004960
 621	3.1000e-01	6.1957	5.436400	0.000304	3.036556	0.514407	0.006072
 622	3.1050e-01	6.2061	5.465906	0.000295	2.951020	0.499916	0.005901
 623	3.1100e-01	6.2173	5.537320	0.000714	7.142323	1.209942	0.014283
 624	3.1150e-01	6.2238	5.548010	0.000107	1.069210	0.181129	0.002138
 625	3.1200e-01	6.2378	5.573240	0.000252	2.523336	0.427465	0.005046
 626	3.1250e-01	6.2482	5.612154	0.000389	3.891924	0.659310	0.007783
 627	3.1300e-01	6.2573	5.637812	0.000257	2.566104	0.434710	0.005132
 628	3.1350e-01	6.2703	5.672022	0.000342	3.421472	0.579613	0.006842
 629	3.1400e-01	6.2753	5.716922	0.000449	4.490682	0.760742	0.008980
 630	3.1450e-01	6.2878	5.741297	0.000244	2.437799	0.412974	0.004875
 631	3.1500e-01	6.2973	5.778928	0.000376	3.763619	0.637574	0.007526
 632	3.1550e-01	6.3077	5.769520	-0.000094	-0.940905	-0.159394	-0.001882
 633	3.1600e-01	6.3159	5.833236	0.000637	6.372492	1.079529	0.012743
 634	3.1650e-01	6.3281	5.868302	0.000351	3.507009	0.594103	0.007013
 635	3.1700e-01	6.3361	5.914485	0.000462	4.618987	0.782478	0.009237
 636	3.1750e-01	6.3446	5.943991	0.000295	2.951020	0.499916	0.005901
 637	3.1800e-01	6.3586	5.970076	0.000261	2.608872	0.441955	0.005217
 638	3.1850e-01	6.3669	5.991030	0.000210	2.095652	0.355013	0.004191
 639	3.1900e-01	6.3776	6.030799	0.000398	3.977461	0.673800	0.007954
 640	3.1950e-01	6.3870	6.083397	0.000526	5.260513	0.891155	0.010520
 641	3.2000e-01	6.3953	6.106489	0.000231	2.309494	0.391239	0.004618
 642	3.2050e-01	6.4050	6.150962	0.000445	4.447914	0.753497	0.008895
 643	3.2100e-01	6.4169	6.157804	0.000068	0.684294	0.115923	0.001368
 644	3.2150e-01	6.4270	6.186027	0.000282	2.822714	0.478181	0.005645
 645	3.2200e-01	6.4365	6.215961	0.000299	2.993788	0.507161	0.005987
 646	3.2250e-01	6.4447	6.263855	0.000479	4.790061	0.811458	0.009579
 647	3.2300e-01	6.4563	6.296782	0.000329	3.293167	0.557878	0.006585
 648	3.2350e-01	6.4661	6.322440	0.000257	2.566104	0.434710	0.005132
 649	3.2400e-01	6.4807	6.365202	0.000428	4.276840	0.724516	0.008553
 650	3.2450e-01	6.4850	6.387439	0.000222	2.223957	0.376748	0.004447
 651	3.2500e-01	6.4964	6.416090	0.000287	2.865483	0.485426	0.005730
 652	3.2550e-01	6.5057	6.471253	0.000552	5.517124	0.934626	0.011033
 653	3.2600e-01	6.5167	6.478523	0.000073	0.727063	0.123168	0.001454
 654	3.2650e-01	6.5265	6.521713	0.000432	4.319608	0.731761	0.008638
 655	3.2700e-01	6.5369	6.552502	0.000308	3.079325	0.521652	0.006158
 656	3.2750e-01	6.5448	6.577304	0.000248	2.480567	0.420219	0.004960
 657	3.2800e-01	6.5570	6.627337	0.000500	5.003903	0.847684	0.010006
 658	3.2850e-01	6.5646	6.647435	0.000201	2.010115	0.340523	0.004020
 659	3.2900e-01	6.5735	6.680790	0.000334	3.335935	0.565123	0.006671
 660	3.2950e-01	6.5872	6.717993	0.000372	3.720851	0.630329	0.007441
 661	3.3000e-01	6.5982	6.754341	0.000364	3.635314	0.615839	0.007270
 662	3.3050e-01	6.6068	6.778716	0.000244	2.437799	0.412974	0.004875
 663	3.3100e-01	6.6150	6.821906	0.000432	4.319608	0.731761	0.008638
 664	3.3150e-01	6.6281	6.830886	0.000090	0.898136	0.152148	0.001796
 665	3.3200e-01	6.6360	6.870228	0.000393	3.934693	0.666555	0.007868
 666	3.3250e-01	6.6467	6.916839	0.000466	4.661756	0.789723	0.009322
 667	3.3300e-01	6.6559	6.945490	0.000287	2.865483	0.485426	0.005730
 668	3.3350e-01	6.6663	6.975423	0.000299	2.993788	0.507161	0.005987
 669	3.3400e-01	6.6745	6.991673	0.000163	1.625199	0.275316	0.003250
 670	3.3450e-01	6.6876	7.036574	0.000449	4.490682	0.760742	0.008980
 671	3.3500e-01	6.6986	7.070784	0.000342	3.421472	0.579613	0.006842
 672	3.3550e-01	6.7072	7.098152	0.000274	2.737178	0.463690	0.005474
 673	3.3600e-01	6.7142	7.150750	0.000526	5.260513	0.891155	0.010520
 674	3.3650e-01	6.7242	7.162723	0.000120	1.197515	0.202865	0.002395
 675	3.3700e-01	6.7371	7.208052	0.000453	4.533450	0.767987	0.009066
 676	3.3750e-01	6.7517	7.231571	0.000235	2.352262	0.398484	0.004704
 677	3.3800e-01	6.7566	7.253808	0.000222	2.223957	0.376748	0.004447
 678	3.3850e-01	6.7670	7.298708	0.000449	4.490682	0.760742	0.008980
 679	3.3900e-01	6.7775	7.330352	0.000316	3.164862	0.536142	0.006329
 680	3.3950e-01	6.7862	7.361141	0.000308	3.079325	0.521652	0.006158
 681	3.4000e-01	6.7975	7.414595	0.000535	5.346050	0.905645	0.010691
 682	3.4050e-01	6.8073	7.427851	0.000133	1.325820	0.224600	0.002651
 683	3.4100e-01	6.8176	7.440680	0.000128	1.283052	0.217355	0.002566
 684	3.4150e-01	6.8256	7.491140	0.000505	5.046671	0.854929	0.010092
 685	3.4200e-01	6.8372	7.517225	0.000261	2.608872	0.441955	0.005217
 686	3.4250e-01	6.8457	7.544165	0.000269	2.694409	0.456445	0.005388
 687	3.4300e-01	6.8573	7.580513	0.000364	3.635314	0.615839	0.007270
 688	3.4350e-01	6.8677	7.608309	0.000278	2.779946	0.470936	0.005559
 689	3.4400e-01	6.8781	7.645085	0.000368	3.678082	0.623084	0.007355
 690	3.4450e-01	6.8871	7.693834	0.000488	4.875598	0.825949	0.009750
 691	3.4500e-01	6.8982	7.715215	0.000214	2.138420	0.362258	0.004276
 692	3.4550e-01	6.9067	7.732748	0.000175	1.753504	0.297052	0.003507
 693	3.4600e-01	6.9147	7.778076	0.000453	4.533450	0.767987	0.009066
 694	3.4650e-01	6.9257	7.806727	0.000287	2.865483	0.485426	0.005730
 695	3.4700e-01	6.9397	7.817418	0.000107	1.069210	0.181129	0.002138
 696	3.4750e-01	6.9473	7.858470	0.000411	4.105766	0.695536	0.008210
 697	3.4800e-01	6.9589	7.909785	0.000513	5.132208	0.869420	0.010263
 698	3.4850e-01	6.9684	7.943995	0.000342	3.421472	0.579613	0.006842
 699	3.4900e-01	6.9751	7.962383	0.000184	1.839041	0.311542	0.003678
 700	3.4950e-01	6.9891	7.980343	0.000180	1.796273	0.304297	0.003592
 701	3.5000e-01	6.9971	8.037645	0.000573	5.730966	0.970852	0.011460
 702	3.5050e-01	7.0064	8.067578	0.000299	2.993788	0.507161	0.005987
 703	3.5100e-01	7.0175	8.098367	0.000308	3.079325	0.521652	0.006158
 704	3.5150e-01	7.0264	8.118893	0.000205	2.052883	0.347768	0.004105
 705	3.5200e-01	7.0392	8.150538	0.000316	3.164862	0.536142	0.006329
 706	3.5250e-01	7.0462	8.183893	0.000334	3.335935	0.565123	0.006671
 707	3.5300e-01	7.0593	8.222379	0.000385	3.849156	0.652065	0.007697
 708	3.5350e-01	7.0703	8.260865	0.000385	3.849156	0.652065	0.007697
 709	3.5400e-01	7.0776	8.267279	0.000064	0.641526	0.108677	0.001283
 710	3.5450e-01	7.0883	8.295503	0.000282	2.822714	0.478181	0.005645
 711	3.5500e-01	7.0993	8.360502	0.000650	6.500797	1.101265	0.013000
 712	3.5550e-01	7.1075	8.380173	0.000197	1.967346	0.333278	0.003934
 713	3.5600e-01	7.1194	8.425073	0.000449	4.490682	0.760742	0.008980
 714	3.5650e-01	7.1271	8.434053	0.000090	0.898136	0.152148	0.001796
 715	3.5700e-01	7.1375	8.471684	0.000376	3.763619	0.637574	0.007526
 716	3.5750e-01	7.1463	8.493066	0.000214	2.138420	0.362258	0.004276
 717	3.5800e-01	7.1582	8.531124	0.000381	3.806388	0.644820	0.007612
 718	3.5850e-01	7.1667	8.555071	0.000240	2.395030	0.405729	0.004789
 719	3.5900e-01	7.1790	8.587998	0.000329	3.293167	0.557878	0.006585
 720	3.5950e-01	7.1891	8.635892	0.000479	4.790061	0.811458	0.009579
 721	3.6000e-01	7.1976	8.652570	0.000167	1.667968	0.282561	0.003335
 722	3.6050e-01	7.2034	8.707733	0.000552	5.517124	0.934626	0.011033
 723	3.6100e-01	7.2153	8.734674	0.000269	2.694409	0.456445	0.005388
 724	3.6150e-01	7.2284	8.754345	0.000197	1.967346	0.333278	0.003934
 725	3.6200e-01	7.2382	8.768029	0.000137	1.368589	0.231845	0.002737
 726	3.6250e-01	7.2473	8.818061	0.000500	5.003903	0.847684	0.010006
 727	3.6300e-01	7.2552	8.861251	0.000432	4.319608	0.731761	0.008638
 728	3.6350e-01	7.2693	8.880922	0.000197	1.967346	0.333278	0.003934
 729	3.6400e-01	7.2772	8.912138	0.000312	3.122093	0.528897	0.006243
 730	3.6450e-01	7.2859	8.934802	0.000227	2.266725	0.383994	0.004533
 731	3.6500e-01	7.2943	8.997663	0.000629	6.286955	1.065039	0.012572
 732	3.6550e-01	7.3068	9.021183	0.000235	2.352262	0.398484	0.004704
 733	3.6600e-01	7.3169	9.045985	0.000248	2.480567	0.420219	0.004960
 734	3.6650e-01	7.3260	9.072070	0.000261	2.608872	0.441955	0.005217
 735	3.6700e-01	7.3337	9.107991	0.000359	3.592546	0.608594	0.007184
 736	3.6750e-01	7.3450	9.143911	0.000359	3.592546	0.608594	0.007184
 737	3.6800e-01	7.3578	9.172562	0.000287	2.865483	0.485426	0.005730
 738	3.6850e-01	7.3650	9.221739	0.000492	4.918366	0.833194	0.009835
 739	3.6900e-01	7.3779	9.245686	0.000240	2.395030	0.405729	0.004789
 740	3.6950e-01	7.3883	9.271344	0.000257	2.566104	0.434710	0.005132
 741	3.7000e-01	7.3978	9.314106	0.000428	4.276840	0.724516	0.008553
 742	3.7050e-01	7.4078	9.316672	0.000026	0.256610	0.043471	0.000513
 743	3.7100e-01	7.4182	9.379105	0.000624	6.244187	1.057794	0.012487
 744	3.7150e-01	7.4258	9.409894	0.000308	3.079325	0.521652	0.006158
 745	3.7200e-01	7.4377	9.418447	0.000086	0.855368	0.144903	0.001711
 746	3.7250e-01	7.4463	9.480880	0.000624	6.244187	1.057794	0.012487
 747	3.7300e-01	7.4564	9.500551	0.000197	1.967346	0.333278	0.003934
 748	3.7350e-01	7.4664	9.525781	0.000252	2.523336	0.427465	0.005046
 749	3.7400e-01	7.4774	9.560846	0.000351	3.507009	0.594103	0.007013
 750	3.7450e-01	7.4857	9.600615	0.000398	3.977461	0.673800	0.007954
 751	3.7500e-01	7.4976	9.642095	0.000415	4.148535	0.702781	0.008296
 752	3.7550e-01	7.5067	9.668180	0.000261	2.608872	0.441955	0.005217
 753	3.7600e-01	7.5177	9.686140	0.000180	1.796273	0.304297	0.003592
 754	3.7650e-01	7.5272	9.724199	0.000381	3.806388	0.644820	0.007612
 755	3.7700e-01	7.5354	9.755415	0.000312	3.122093	0.528897	0.006243
 756	3.7750e-01	7.5485	9.780218	0.000248	2.480567	0.420219	0.004960
 757	3.7800e-01	7.5562	9.808869	0.000287	2.865483	0.485426	0.005730
 758	3.7850e-01	7.5677	9.816993	0.000081	0.812600	0.137658	0.001625
 759	3.7900e-01	7.5781	9.874295	0.000573	5.730966	0.970852	0.011460
 760	3.7950e-01	7.5867	9.912354	0.000381	3.806388	0.644820	0.007612
 761	3.8000e-01	7.5958	9.947847	0.000355	3.549777	0.601349	0.007099
 762	3.8050e-01	7.6047	9.991892	0.000441	4.405145	0.746252	0.008809
 763	3.8100e-01	7.6160	10.003010	0.000111	1.111978	0.188374	0.002224
 764	3.8150e-01	7.6251	10.032089	0.000291	2.908251	0.492671	0.005816
 765	3.8200e-01	7.6361	10.081266	0.000492	4.918366	0.833194	0.009835
 766	3.8250e-01	7.6459	10.102647	0.000214	2.138420	0.362258	0.004276
 767	3.8300e-01	7.6550	10.143272	0.000406	4.062998	0.688291	0.008125
 768	3.8350e-01	7.6685	10.179620	0.000364	3.635314	0.615839	0.007270
 769	3.8400e-01	7.6770	10.207843	0.000282	2.822714	0.478181	0.005645
 770	3.8450e-01	7.6880	10.233928	0.000261	2.608872	0.441955	0.005217
 771	3.8500e-01	7.6978	10.275408	0.000415	4.148535	0.702781	0.008296
 772	3.8550e-01	7.7045	10.296361	0.000210	2.095652	0.355013	0.004191
 773	3.8600e-01	7.7179	10.336558	0.000402	4.020230	0.681045	0.008039
 774	3.8650e-01	7.7260	10.349815	0.000133	1.325820	0.224600	0.002651
 775	3.8700e-01	7.7368	10.414814	0.000650	6.500797	1.101265	0.013000
 776	3.8750e-01	7.7484	10.418662	0.000038	0.384916	0.065206	0.000770
 777	3.8800e-01	7.7570	10.465701	0.000470	4.704524	0.796968	0.009408
 778	3.8850e-01	7.7667	10.491358	0.000257	2.566104	0.434710	0.005132
 779	3.8900e-01	7.7780	10.525996	0.000346	3.464240	0.586858	0.006928
 780	3.8950e-01	7.7869	10.558068	0.000321	3.207630	0.543387	0.006414
 781	3.9000e-01	7.7966	10.586719	0.000287	2.865483	0.485426	0.005730
 782	3.9050e-01	7.8046	10.632047	0.000453	4.533450	0.767987	0.009066
 783	3.9100e-01	7.8149	10.648725	0.000167	1.667968	0.282561	0.003335
 784	3.9150e-01	7.8256	10.675237	0.000265	2.651641	0.449200	0.005303
 785	3.9200e-01	7.8363	10.715862	0.000406	4.062998	0.688291	0.008125
 786	3.9250e-01	7.8473	10.753065	0.000372	3.720851	0.630329	0.007441
 787	3.9300e-01	7.8589	10.798393	0.000453	4.533450	0.767987	0.009066
 788	3.9350e-01	7.8639	10.812505	0.000141	1.411357	0.239090	0.002822
 789	3.9400e-01	7.8751	10.836880	0.000244	2.437799	0.412974	0.004875
 790	3.9450e-01	7.8857	10.882208	0.000453	4.533450	0.767987	0.009066
 791	3.9500e-01	7.8964	10.930957	0.000488	4.875598	0.825949	0.009750
 792	3.9550e-01	7.9077	10.948490	0.000175	1.753504	0.297052	0.003507
 793	3.9600e-01	7.9169	10.986976	0.000385	3.849156	0.652065	0.007697
 794	3.9650e-01	7.9257	11.020331	0.000334	3.335935	0.565123	0.006671
 795	3.9700e-01	7.9364	11.043423	0.000231	2.309494	0.391239	0.004618
 796	3.9750e-01	7.9480	11.091317	0.000479	4.790061	0.811458	0.009579
 797	3.9800e-01	7.9572	11.116974	0.000257	2.566104	0.434710	0.005132
 798	3.9850e-01	7.9654	11.141777	0.000248	2.480567	0.420219	0.004960
 799	3.9900e-01	7.9761	11.176842	0.000351	3.507009	0.594103	0.007013
 800	3.9950e-01	7.9871	11.205493	0.000287	2.865483	0.485426	0.005730
 801	4.0000e-01	7.9932	11.251676	0.000462	4.618987	0.782478	0.009237
 802	4.0050e-01	8.0084	11.287169	0.000355	3.549777	0.601349	0.007099
 803	4.0100e-01	8.0185	11.301281	0.000141	1.411357	0.239090	0.002822
 804	4.0150e-01	8.0249	11.372267	0.000710	7.099555	1.202697	0.014197
 805	4.0200e-01	8.0356	11.387661	0.000154	1.539662	0.260826	0.003079
 806	4.0250e-01	8.0463	11.403911	0.000163	1.625199	0.275316	0.003250
 807	4.0300e-01	8.0554	11.454371	0.000505	5.046671	0.854929	0.010092
 808	4.0350e-01	8.0688	11.477890	0.000235	2.352262	0.398484	0.004704
 809	4.0400e-01	8.0746	11.522363	0.000445	4.447914	0.753497	0.008895
 810	4.0450e-01	8.0847	11.561705	0.000393	3.934693	0.666555	0.007868
 811	4.0500e-01	8.0969	11.572823	0.000111	1.111978	0.188374	0.002224
 812	4.0550e-01	8.1067	11.599336	0.000265	2.651641	0.449200	0.005303
 813	4.0600e-01	8.1131	11.645947	0.000466	4.661756	0.789723	0.009322
 814	4.0650e-01	8.1250	11.672032	0.000261	2.608872	0.441955	0.005217
 815	4.0700e-01	8.1354	11.703676	0.000316	3.164862	0.536142	0.006329
 816	4.0750e-01	8.1506	11.752425	0.000488	4.875598	0.825949	0.009750
 817	4.0800e-01	8.1552	11.754564	0.000021	0.213842	0.036226	0.000428
 818	4.0850e-01	8.1647	11.803313	0.000488	4.875598	0.825949	0.009750
 819	4.0900e-01	8.1781	11.846075	0.000428	4.276840	0.724516	0.008553
 820	4.0950e-01	8.1876	11.872161	0.000261	2.608872	0.441955	0.005217
 821	4.1000e-01	8.1982	11.910647	0.000385	3.849156	0.652065	0.007697
 822	4.1050e-01	8.2034	11.953837	0.000432	4.319608	0.731761	0.008638
 823	4.1100e-01	8.2159	11.976929	0.000231	2.309494	0.391239	0.004618
 824	4.1150e-01	8.2272	12.011566	0.000346	3.464240	0.586858	0.006928
 825	4.1200e-01	8.2385	12.026533	0.000150	1.496894	0.253581	0.002993
 826	4.1250e-01	8.2471	12.062026	0.000355	3.549777	0.601349	0.007099
 827	4.1300e-01	8.2559	12.108210	0.000462	4.618987	0.782478	0.009237
 828	4.1350e-01	8.2666	12.135578	0.000274	2.737178	0.463690	0.005474
 829	4.1400e-01	8.2764	12.170643	0.000351	3.507009	0.594103	0.007013
 830	4.1450e-01	8.2898	12.207419	0.000368	3.678082	0.623084	0.007355
 831	4.1500e-01	8.2950	12.225807	0.000184	1.839041	0.311542	0.003678
 832	4.1550e-01	8.3075	12.288240	0.000624	6.244187	1.057794	0.012487
 833	4.1600e-01	8.3160	12.310904	0.000227	2.266725	0.383994	0.004533
 834	4.1650e-01	8.3252	12.338700	0.000278	2.779946	0.470936	0.005559
 835	4.1700e-01	8.3362	12.380607	0.000419	4.191303	0.710026	0.008381
 836	4.1750e-01	8.3496	12.404126	0.000235	2.352262	0.398484	0.004704
 837	4.1800e-01	8.3582	12.419948	0.000158	1.582431	0.268071	0.003164
 838	4.1850e-01	8.3649	12.481527	0.000616	6.158650	1.043304	0.012316
 839	4.1900e-01	8.3777	12.508895	0.000274	2.737178	0.463690	0.005474
 840	4.1950e-01	8.3881	12.549947	0.000411	4.105766	0.695536	0.008210
 841	4.2000e-01	8.3954	12.573466	0.000235	2.352262	0.398484	0.004704
 842	4.2050e-01	8.4064	12.622215	0.000488	4.875598	0.825949	0.009750
 843	4.2100e-01	8.4143	12.626491	0.000043	0.427684	0.072452	0.000855
 844	4.2150e-01	8.4293	12.661557	0.000351	3.507009	0.594103	0.007013
 845	4.2200e-01	8.4375	12.700898	0.000393	3.934693	0.666555	0.007868
 846	4.2250e-01	8.4473	12.757772	0.000569	5.688197	0.963607	0.011375
 847	4.2300e-01	8.4570	12.781292	0.000235	2.352262	0.398484	0.004704
 848	4.2350e-01	8.4683	12.818068	0.000368	3.678082	0.623084	0.007355
 849	4.2400e-01	8.4772	12.853133	0.000351	3.507009	0.594103	0.007013
 850	4.2450e-01	8.4875	12.879218	0.000261	2.608872	0.441955	0.005217
 851	4.2500e-01	8.4955	12.906158	0.000269	2.694409	0.456445	0.005388
 852	4.2550e-01	8.5065	12.953625	0.000475	4.747292	0.804213	0.009493
 853	4.2600e-01	8.5175	12.984841	0.000312	3.122093	0.528897	0.006243
 854	4.2650e-01	8.5272	13.024611	0.000398	3.977461	0.673800	0.007954
 855	4.2700e-01	8.5373	13.062242	0.000376	3.763619	0.637574	0.007526
 856	4.2750e-01	8.5468	13.100300	0.000381	3.806388	0.644820	0.007612
 857	4.2800e-01	8.5571	13.113984	0.000137	1.368589	0.231845	0.002737
 858	4.2850e-01	8.5675	13.142208	0.000282	2.822714	0.478181	0.005645
 859	4.2900e-01	8.5773	13.176845	0.000346	3.464240	0.586858	0.006928
 860	4.2950e-01	8.5895	13.226877	0.000500	5.003903	0.847684	0.010006
 861	4.3000e-01	8.5968	13.279048	0.000522	5.217745	0.883910	0.010434
 862	4.3050e-01	8.6081	13.316251	0.000372	3.720851	0.630329	0.007441
 863	4.3100e-01	8.6157	13.353454	0.000372	3.720851	0.630329	0.007441
 864	4.3150e-01	8.6279	13.373553	0.000201	2.010115	0.340523	0.004020
 865	4.3200e-01	8.6359	13.393224	0.000197	1.967346	0.333278	0.003934
 866	4.3250e-01	8.6475	13.431282	0.000381	3.806388	0.644820	0.007612
 867	4.3300e-01	8.6554	13.470196	0.000389	3.891924	0.659310	0.007783
 868	4.3350e-01	8.6652	13.500558	0.000304	3.036556	0.514407	0.006072
 869	4.3400e-01	8.6740	13.549734	0.000492	4.918366	0.833194	0.009835
 870	4.3450e-01	8.6899	13.581379	0.000316	3.164862	0.536142	0.006329
 871	4.3500e-01	8.6972	13.615589	0.000342	3.421472	0.579613	0.006842
 872	4.3550e-01	8.7036	13.648516	0.000329	3.293167	0.557878	0.006585
 873	4.3600e-01	8.7152	13.689996	0.000415	4.148535	0.702781	0.008296
 874	4.3650e-01	8.7244	13.712232	0.000222	2.223957	0.376748	0.004447
 875	4.3700e-01	8.7360	13.775093	0.000629	6.286955	1.065039	0.012572
 876	4.3750e-01	8.7473	13.779797	0.000047	0.470452	0.079697	0.000941
 877	4.3800e-01	8.7552	13.807592	0.000278	2.779946	0.470936	0.005559
 878	4.3850e-01	8.7665	13.838382	0.000308	3.079325	0.521652	0.006158
 879	4.3900e-01	8.7753	13.887131	0.000488	4.875598	0.825949	0.009750
 880	4.3950e-01	8.7854	13.921341	0.000342	3.421472	0.579613	0.006842
 881	4.4000e-01	8.7970	13.960255	0.000389	3.891924	0.659310	0.007783
 882	4.4050e-01	8.8043	13.993182	0.000329	3.293167	0.557878	0.006585
 883	4.4100e-01	8.8165	14.011142	0.000180	1.796273	0.304297	0.003592
 884	4.4150e-01	8.8275	14.044925	0.000338	3.378704	0.572368	0.006756
 885	4.4200e-01	8.8361	14.109496	0.000646	6.458029	1.094020	0.012914
 886	4.4250e-01	8.8470	14.134726	0.000252	2.523336	0.427465	0.005046
 887	4.4300e-01	8.8574	14.174923	0.000402	4.020230	0.681045	0.008039
 888	4.4350e-01	8.8669	14.195876	0.000210	2.095652	0.355013	0.004191
 889	4.4400e-01	8.8763	14.266862	0.000710	7.099555	1.202697	0.014197
 890	4.4450e-01	8.8837	14.279263	0.000124	1.240284	0.210110	0.002480
 891	4.4500e-01	8.8959	14.319032	0.000398	3.977461	0.673800	0.007954
 892	4.4550e-01	8.9063	14.340841	0.000218	2.181188	0.369503	0.004362
 893	4.4600e-01	8.9148	14.384031	0.000432	4.319608	0.731761	0.008638
 894	4.4650e-01	8.9270	14.428077	0.000441	4.405145	0.746252	0.008809
 895	4.4700e-01	8.9380	14.457583	0.000295	2.951020	0.499916	0.005901
 896	4.4750e-01	8.9447	14.498635	0.000411	4.105766	0.695536	0.008210
 897	4.4800e-01	8.9557	14.514029	0.000154	1.539662	0.260826	0.003079
 898	4.4850e-01	8.9667	14.572614	0.000586	5.859271	0.992587	0.011717
 899	4.4900e-01	8.9752	14.595278	0.000227	2.266725	0.383994	0.004533
 900	4.4950e-01	8.9862	14.633765	0.000385	3.849156	0.652065	0.007697
 901	4.5000e-01	8.9966	14.661560	0.000278	2.779946	0.470936	0.005559
 902	4.5050e-01	9.0051	14.711165	0.000496	4.961134	0.840439	0.009921
 903	4.5100e-01	9.0170	14.739816	0.000287	2.865483	0.485426	0.005730
 904	4.5150e-01	9.0253	14.771460	0.000316	3.164862	0.536142	0.006329
 905	4.5200e-01	9.0366	14.815078	0.000436	4.362377	0.739007	0.008724
 906	4.5250e-01	9.0448	14.853992	0.000389	3.891924	0.659310	0.007783
 907	4.5300e-01	9.0552	14.878366	0.000244	2.437799	0.412974	0.004875
 908	4.5350e-01	9.0643	14.931819	0.000535	5.346050	0.905645	0.010691
 909	4.5400e-01	9.0784	14.949352	0.000175	1.753504	0.297052	0.003507
 910	4.5450e-01	9.0869	15.011785	0.000624	6.244187	1.057794	0.012487
 911	4.5500e-01	9.0991	15.039581	0.000278	2.779946	0.470936	0.005559
 912	4.5550e-01	9.1058	15.070370	0.000308	3.079325	0.521652	0.006158
 913	4.5600e-01	9.1180	15.099876	0.000295	2.951020	0.499916	0.005901
 914	4.5650e-01	9.1269	15.136652	0.000368	3.678082	0.623084	0.007355
 915	4.5700e-01	9.1351	15.172572	0.000359	3.592546	0.608594	0.007184
 916	4.5750e-01	9.1452	15.225598	0.000530	5.303282	0.898400	0.010605
 917	4.5800e-01	9.1571	15.263657	0.000381	3.806388	0.644820	0.007612
 918	4.5850e-01	9.1640	15.281617	0.000180	1.796273	0.304297	0.003592
 919	4.5900e-01	9.1760	15.338063	0.000565	5.645429	0.956362	0.011289
 920	4.5950e-01	9.1870	15.359872	0.000218	2.181188	0.369503	0.004362
 921	4.6000e-01	9.1974	15.399214	0.000393	3.934693	0.666555	0.007868
 922	4.6050e-01	9.2084	15.439411	0.000402	4.020230	0.681045	0.008039
 923	4.6100e-01	9.2151	15.472765	0.000334	3.335935	0.565123	0.006671
 924	4.6150e-01	9.2264	15.508686	0.000359	3.592546	0.608594	0.007184
 925	4.6200e-01	9.2374	15.554869	0.000462	4.618987	0.782478	0.009237
 926	4.6250e-01	9.2471	15.604474	0.000496	4.961134	0.840439	0.009921
 927	4.6300e-01	9.2554	15.624572	0.000201	2.010115	0.340523	0.004020
 928	4.6350e-01	9.2651	15.656644	0.000321	3.207630	0.543387	0.006414
 929	4.6400e-01	9.2786	15.704966	0.000483	4.832829	0.818703	0.009664
 930	4.6450e-01	9.2853	15.729340	0.000244	2.437799	0.412974	0.004875
 931	4.6500e-01	9.3011	15.765689	0.000364	3.635314	0.615839	0.007270
 932	4.6550e-01	9.3085	15.796478	0.000308	3.079325	0.521652	0.006158
 933	4.6600e-01	9.3170	15.862760	0.000663	6.629102	1.123000	0.013256
 934	4.6650e-01	9.3268	15.880720	0.000180	1.796273	0.304297	0.003592
 935	4.6700e-01	9.3359	15.913219	0.000325	3.250398	0.550632	0.006500
 936	4.6750e-01	9.3457	15.959831	0.000466	4.661756	0.789723	0.009322
 937	4.6800e-01	9.3579	16.004731	0.000449	4.490682	0.760742	0.008980
 938	4.6850e-01	9.3665	16.053053	0.000483	4.832829	0.818703	0.009664
 939	4.6900e-01	9.3774	16.059467	0.000064	0.641526	0.108677	0.001283
 940	4.6950e-01	9.3860	16.122328	0.000629	6.286955	1.065039	0.012572
 941	4.7000e-01	9.3958	16.166374	0.000441	4.405145	0.746252	0.008809
 942	4.7050e-01	9.4055	16.182623	0.000163	1.625199	0.275316	0.003250
 943	4.7100e-01	9.4153	16.220682	0.000381	3.806388	0.644820	0.007612
 944	4.7150e-01	9.4293	16.252754	0.000321	3.207630	0.543387	0.006414
 945	4.7200e-01	9.4342	16.290812	0.000381	3.806388	0.644820	0.007612
 946	4.7250e-01	9.4458	16.330154	0.000393	3.934693	0.666555	0.007868
 947	4.7300e-01	9.4571	16.384890	0.000547	5.474355	0.927381	0.010947
 948	4.7350e-01	9.4681	16.425087	0.000402	4.020230	0.681045	0.008039
 949	4.7400e-01	9.4769	16.458442	0.000334	3.335935	0.565123	0.006671
 950	4.7450e-01	9.4879	16.490086	0.000316	3.164862	0.536142	0.006329
 951	4.7500e-01	9.4965	16.518737	0.000287	2.865483	0.485426	0.005730
 952	4.7550e-01	9.5056	16.579032	0.000603	6.030345	1.021568	0.012059
 953	4.7600e-01	9.5172	16.620512	0.000415	4.148535	0.702781	0.008296
 954	4.7650e-01	9.5276	16.665412	0.000449	4.490682	0.760742	0.008980
 955	4.7700e-01	9.5358	16.690214	0.000248	2.480567	0.420219	0.004960
 956	4.7750e-01	9.5471	16.725707	0.000355	3.549777	0.601349	0.007099
 957	4.7800e-01	9.5544	16.752648	0.000269	2.694409	0.456445	0.005388
 958	4.7850e-01	9.5691	16.804818	0.000522	5.217745	0.883910	0.010434
 959	4.7900e-01	9.5761	16.831331	0.000265	2.651641	0.449200	0.005303
 960	4.7950e-01	9.5856	16.887777	0.000565	5.645429	0.956362	0.011289
 961	4.8000e-01	9.5969	16.911297	0.000235	2.352262	0.398484	0.004704
 962	4.8050e-01	9.6069	16.953632	0.000423	4.234072	0.717271	0.008467
 963	4.8100e-01	9.6179	17.000243	0.000466	4.661756	0.789723	0.009322
 964	4.8150e-01	9.6283	17.031887	0.000316	3.164862	0.536142	0.006329
 965	4.8200e-01	9.6341	17.083202	0.000513	5.132208	0.869420	0.010263
 966	4.8250e-01	9.6442	17.108860	0.000257	2.566104	0.434710	0.005132
 967	4.8300e-01	9.6558	17.148629	0.000398	3.977461	0.673800	0.007954
 968	4.8350e-01	9.6671	17.193529	0.000449	4.490682	0.760742	0.008980
 969	4.8400e-01	9.6783	17.226884	0.000334	3.335935	0.565123	0.006671
 970	4.8450e-01	9.6875	17.254680	0.000278	2.779946	0.470936	0.005559
 971	4.8500e-01	9.6942	17.312837	0.000582	5.816503	0.985342	0.011631
 972	4.8550e-01	9.7052	17.357310	0.000445	4.447914	0.753497	0.008895
 973	4.8600e-01	9.7163	17.368428	0.000111	1.111978	0.188374	0.002224
 974	4.8650e-01	9.7241	17.439842	0.000714	7.142323	1.209942	0.014283
 975	4.8700e-01	9.7363	17.453526	0.000137	1.368589	0.231845	0.002737
 976	4.8750e-01	9.7476	17.500992	0.000475	4.747292	0.804213	0.009493
 977	4.8800e-01	9.7571	17.551024	0.000500	5.003903	0.847684	0.010006
 978	4.8850e-01	9.7653	17.571123	0.000201	2.010115	0.340523	0.004020
 979	4.8900e-01	9.7748	17.620299	0.000492	4.918366	0.833194	0.009835
 980	4.8950e-01	9.7864	17.665628	0.000453	4.533450	0.767987	0.009066
 981	4.9000e-01	9.7961	17.714805	0.000492	4.918366	0.833194	0.009835
 982	4.9050e-01	9.8053	17.743456	0.000287	2.865483	0.485426	0.005730
 983	4.9100e-01	9.8145	17.809310	0.000659	6.586334	1.115755	0.013171
 984	4.9150e-01	9.8279	17.838388	0.000291	2.908251	0.492671	0.005816
 985	4.9200e-01	9.8328	17.874736	0.000364	3.635314	0.615839	0.007270
 986	4.9250e-01	9.8450	17.911512	0.000368	3.678082	0.623084	0.007355
 987	4.9300e-01	9.8584	17.951281	0.000398	3.977461	0.673800	0.007954
 988	4.9350e-01	9.8657	17.968386	0.000171	1.710736	0.289807	0.003421
 989	4.9400e-01	9.8755	18.019274	0.000509	5.089440	0.862174	0.010177
 990	4.9450e-01	9.8862	18.061609	0.000423	4.234072	0.717271	0.008467
 991	4.9500e-01	9.8950	18.101378	0.000398	3.977461	0.673800	0.007954
 992	4.9550e-01	9.9066	18.129174	0.000278	2.779946	0.470936	0.005559
 993	4.9600e-01	9.9176	18.199304	0.000701	7.014018	1.188207	0.014026
 994	4.9650e-01	9.9274	18.233086	0.000338	3.378704	0.572368	0.006756
 995	4.9700e-01	9.9341	18.266014	0.000329	3.293167	0.557878	0.006585
 996	4.9750e-01	9.9469	18.315191	0.000492	4.918366	0.833194	0.009835
 997	4.9800e-01	9.9536	18.348545	0.000334	3.335935	0.565123	0.006671
 998	4.9850e-01	9.9670	18.389170	0.000406	4.062998	0.688291	0.008125
 999	4.9900e-01	9.9751	18.459728	0.000706	7.056786	1.195452	0.014112
1000	4.9950e-01	9.9841	18.487523	0.000278	2.779946	0.470936	0.005559
1001	5.0000e-01	9.9957	18.508050	0.000205	2.052883	0.347768	0.004105
1002	5.0050e-01	9.9847	18.506767	0.000013	0.128305	0.021735	-0.000257
1003	5.0100e-01	9.9750	18.501208	0.000056	0.555989	0.094187	-0.001112
1004	5.0150e-01	9.9649	18.495221	0.000060	0.598758	0.101432	-0.001197
1005	5.0200e-01	9.9536	18.507622	-0.000124	-1.240284	-0.210110	0.002480
1006	5.0250e-01	9.9426	18.488806	0.000188	1.881810	0.318787	-0.003763
1007	5.0300e-01	9.9347	18.492227	-0.000034	-0.342147	-0.057961	0.000684
1008	5.0350e-01	9.9255	18.489234	0.000030	0.299379	0.050716	-0.000599
1009	5.0400e-01	9.9133	18.469136	0.000201	2.010115	0.340523	-0.004020
1010	5.0450e-01	9.9054	18.471274	-0.000021	-0.213842	-0.036226	0.000428
1011	5.0500e-01	9.8950	18.458017	0.000133	1.325820	0.224600	-0.002651
1012	5.0550e-01	9.8853	18.437064	0.000210	2.095652	0.355013	-0.004191
1013	5.0600e-01	9.8724	18.442195	-0.000051	-0.513221	-0.086942	0.001026
1014	5.0650e-01	9.8627	18.435781	0.000064	0.641526	0.108677	-0.001283
1015	5.0700e-01	9.8535	18.441340	-0.000056	-0.555989	-0.094187	0.001112
1016	5.0750e-01	9.8447	18.404992	0.000364	3.635314	0.615839	-0.007270
1017	5.0800e-01	9.8352	18.418676	-0.000137	-1.368589	-0.231845	0.002737
1018	5.0850e-01	9.8245	18.406702	0.000120	1.197515	0.202865	-0.002395
1019	5.0900e-01	9.8138	18.385749	0.000210	2.095652	0.355013	-0.004191
1020	5.0950e-01	9.8047	18.381472	0.000043	0.427684	0.072452	-0.000855
1021	5.1000e-01	9.7974	18.347262	0.000342	3.421472	0.579613	-0.006842
1022	5.1050e-01	9.7833	18.364367	-0.000171	-1.710736	-0.289807	0.003421
1023	5.1100e-01	9.7717	18.365650	-0.000013	-0.128305	-0.021735	0.000257
1024	5.1150e-01	9.7620	18.346835	0.000188	1.881810	0.318787	-0.003763
1025	5.1200e-01	9.7540	18.349828	-0.000030	-0.299379	-0.050716	0.000599
1026	5.1250e-01	9.7461	18.322033	0.000278	2.779946	0.470936	-0.005559
1027	5.1300e-01	9.7351	18.316046	0.000060	0.598758	0.101432	-0.001197
1028	5.1350e-01	9.7256	18.294665	0.000214	2.138420	0.362258	-0.004276
1029	5.1400e-01	9.7150	18.284401	0.000103	1.026442	0.173884	-0.002053
1030	5.1450e-01	9.7058	18.272000	0.000124	1.240284	0.210110	-0.002480
1031	5.1500e-01	9.6942	18.250619	0.000214	2.138420	0.362258	-0.004276
1032	5.1550e-01	9.6875	18.233514	0.000171	1.710736	0.289807	-0.003421
1033	5.1600e-01	9.6759	18.219830	0.000137	1.368589	0.231845	-0.002737
1034	5.1650e-01	9.6625	18.210422	0.000094	0.940905	0.159394	-0.001882
1035	5.1700e-01	9.6558	18.195883	0.000145	1.454126	0.246336	-0.002908
1036	5.1750e-01	9.6442	18.170226	0.000257	2.566104	0.434710	-0.005132
1037	5.1800e-01	9.6338	18.158680	0.000115	1.154747	0.195619	-0.002309
1038	5.1850e-01	9.6222	18.168943	-0.000103	-1.026442	-0.173884	0.002053
1039	5.1900e-01	9.6149	18.144140	0.000248	2.480567	0.420219	-0.004960
1040	5.1950e-01	9.6042	18.129601	0.000145	1.454126	0.246336	-0.002908
1041	5.2000e-01	9.5959	18.107365	0.000222	2.223957	0.376748	-0.004447
1042	5.2050e-01	9.5825	18.098384	0.000090	0.898136	0.152148	-0.001796
1043	5.2100e-01	9.5728	18.077431	0.000210	2.095652	0.355013	-0.004191
1044	5.2150e-01	9.5667	18.057332	0.000201	2.010115	0.340523	-0.004020
1045	5.2200e-01	9.5564	18.054767	0.000026	0.256610	0.043471	-0.000513
1046	5.2250e-01	9.5459	18.038945	0.000158	1.582431	0.268071	-0.003164
1047	5.2300e-01	9.5361	18.016280	0.000227	2.266725	0.383994	-0.004533
1048	5.2350e-01	9.5245	17.995327	0.000210	2.095652	0.355013	-0.004191
1049	5.2400e-01	9.5172	17.979932	0.000154	1.539662	0.260826	-0.003079
1050	5.2450e-01	9.5074	17.980788	-0.000009	-0.085537	-0.014490	0.000171
1051	5.2500e-01	9.4946	17.935032	0.000458	4.576219	0.775232	-0.009151
1052	5.2550e-01	9.4830	17.930755	0.000043	0.427684	0.072452	-0.000855
1053	5.2600e-01	9.4788	17.924769	0.000060	0.598758	0.101432	-0.001197
1054	5.2650e-01	9.4678	17.900394	0.000244	2.437799	0.412974	-0.004875
1055	5.2700e-01	9.4537	17.881578	0.000188	1.881810	0.318787	-0.003763
1056	5.2750e-01	9.4427	17.862763	0.000188	1.881810	0.318787	-0.003763
1057	5.2800e-01	9.4360	17.844803	0.000180	1.796273	0.304297	-0.003592
1058	5.2850e-01	9.4263	17.818718	0.000261	2.608872	0.441955	-0.005217
1059	5.2900e-01	9.4153	17.800757	0.000180	1.796273	0.304297	-0.003592
1060	5.2950e-01	9.4037	17.799047	0.000017	0.171074	0.028981	-0.000342
1061	5.3000e-01	9.3951	17.770396	0.000287	2.865483	0.485426	-0.005730
1062	5.3050e-01	9.3842	17.763554	0.000068	0.684294	0.115923	-0.001368
1063	5.3100e-01	9.3756	17.760133	0.000034	0.342147	0.057961	-0.000684
1064	5.3150e-01	9.3634	17.749870	0.000103	1.026442	0.173884	-0.002053
1065	5.3200e-01	9.3524	17.717370	0.000325	3.250398	0.550632	-0.006500
1066	5.3250e-01	9.3481	17.685298	0.000321	3.207630	0.543387	-0.006414
1067	5.3300e-01	9.3365	17.663490	0.000218	2.181188	0.369503	-0.004362
1068	5.3350e-01	9.3225	17.654937	0.000086	0.855368	0.144903	-0.001711
1069	5.3400e-01	9.3179	17.651944	0.000030	0.299379	0.050716	-0.000599
1070	5.3450e-01	9.3051	17.630135	0.000218	2.181188	0.369503	-0.004362
1071	5.3500e-01	9.2944	17.591649	0.000385	3.849156	0.652065	-0.007697
1072	5.3550e-01	9.2871	17.594214	-0.000026	-0.256610	-0.043471	0.000513
1073	5.3600e-01	9.2755	17.564708	0.000295	2.951020	0.499916	-0.005901
1074	5.3650e-01	9.2633	17.549741	0.000150	1.496894	0.253581	-0.002993
1075	5.3700e-01	9.2542	17.542899	0.000068	0.684294	0.115923	-0.001368
1076	5.3750e-01	9.2456	17.508689	0.000342	3.421472	0.579613	-0.006842
1077	5.3800e-01	9.2383	17.477900	0.000308	3.079325	0.521652	-0.006158
1078	5.3850e-01	9.2255	17.462933	0.000150	1.496894	0.253581	-0.002993
1079	5.3900e-01	9.2181	17.455236	0.000077	0.769831	0.130413	-0.001539
1080	5.3950e-01	9.2059	17.410763	0.000445	4.447914	0.753497	-0.008895
1081	5.4000e-01	9.1992	17.416322	-0.000056	-0.555989	-0.094187	0.001112
1082	5.4050e-01	9.1858	17.394941	0.000214	2.138420	0.362258	-0.004276
1083	5.4100e-01	9.1760	17.367145	0.000278	2.779946	0.470936	-0.005559
1084	5.4150e-01	9.1660	17.355599	0.000115	1.154747	0.195619	-0.002309
1085	5.4200e-01	9.1559	17.335501	0.000201	2.010115	0.340523	-0.004020
1086	5.4250e-01	9.1473	17.311982	0.000235	2.352262	0.398484	-0.004704
1087	5.4300e-01	9.1339	17.305567	0.000064	0.641526	0.108677	-0.001283
1088	5.4350e-01	9.1254	17.294877	0.000107	1.069210	0.181129	-0.002138
1089	5.4400e-01	9.1144	17.247838	0.000470	4.704524	0.796968	-0.009408
1090	5.4450e-01	9.1058	17.228167	0.000197	1.967346	0.333278	-0.003934
1091	5.4500e-01	9.0961	17.226884	0.000013	0.128305	0.021735	-0.000257
1092	5.4550e-01	9.0857	17.195240	0.000316	3.164862	0.536142	-0.006329
1093	5.4600e-01	9.0747	17.158892	0.000364	3.635314	0.615839	-0.007270
1094	5.4650e-01	9.0646	17.164023	-0.000051	-0.513221	-0.086942	0.001026
1095	5.4700e-01	9.0546	17.134090	0.000299	2.993788	0.507161	-0.005987
1096	5.4750e-01	9.0436	17.122544	0.000115	1.154747	0.195619	-0.002309
1097	5.4800e-01	9.0369	17.097741	0.000248	2.480567	0.420219	-0.004960
1098	5.4850e-01	9.0253	17.079781	0.000180	1.796273	0.304297	-0.003592
1099	5.4900e-01	9.0149	17.063959	0.000158	1.582431	0.268071	-0.003164
1100	5.4950e-01	9.0027	17.053268	0.000107	1.069210	0.181129	-0.002138
1101	5.5000e-01	8.9941	17.023335	0.000299	2.993788	0.507161	-0.005987
1102	5.5050e-01	8.9862	17.000670	0.000227	2.266725	0.383994	-0.004533
1103	5.5100e-01	8.9752	16.978006	0.000227	2.266725	0.383994	-0.004533
1104	5.5150e-01	8.9636	16.946362	0.000316	3.164862	0.536142	-0.006329
1105	5.5200e-01	8.9545	16.945079	0.000013	0.128305	0.021735	-0.000257
1106	5.5250e-01	8.9453	16.927974	0.000171	1.710736	0.289807	-0.003421
1107	5.5300e-01	8.9337	16.901461	0.000265	2.651641	0.449200	-0.005303
1108	5.5350e-01	8.9261	16.856561	0.000449	4.490682	0.760742	-0.008980
1109	5.5400e-01	8.9154	16.849291	0.000073	0.727063	0.123168	-0.001454
1110	5.5450e-01	8.9038	16.853140	-0.000038	-0.384916	-0.065206	0.000770
1111	5.5500e-01	8.8953	16.825772	0.000274	2.737178	0.463690	-0.005474
1112	5.5550e-01	8.8826	16.780016	0.000458	4.576219	0.775232	-0.009151
1113	5.5600e-01	8.8742	16.780871	-0.000009	-0.085537	-0.014490	0.000171
1114	5.5650e-01	8.8673	16.753931	0.000269	2.694409	0.456445	-0.005388
1115	5.5700e-01	8.8559	16.733832	0.000201	2.010115	0.340523	-0.004020
1116	5.5750e-01	8.8452	16.708602	0.000252	2.523336	0.427465	-0.005046
1117	5.5800e-01	8.8367	16.702188	0.000064	0.641526	0.108677	-0.001283
1118	5.5850e-01	8.8251	16.672254	0.000299	2.993788	0.507161	-0.005987
1119	5.5900e-01	8.8135	16.685083	-0.000128	-1.283052	-0.217355	0.002566
1120	5.5950e-01	8.8055	16.618801	0.000663	6.629102	1.123000	-0.013256
1121	5.6000e-01	8.7970	16.597847	0.000210	2.095652	0.355013	-0.004191
1122	5.6050e-01	8.7854	16.590150	0.000077	0.769831	0.130413	-0.001539
1123	5.6100e-01	8.7775	16.553374	0.000368	3.678082	0.623084	-0.007355
1124	5.6150e-01	8.7659	16.523013	0.000304	3.036556	0.514407	-0.006072
1125	5.6200e-01	8.7567	16.523868	-0.000009	-0.085537	-0.014490	0.000171
1126	5.6250e-01	8.7454	16.491796	0.000321	3.207630	0.543387	-0.006414
1127	5.6300e-01	8.7366	16.495217	-0.000034	-0.342147	-0.057961	0.000684
1128	5.6350e-01	8.7274	16.457159	0.000381	3.806388	0.644820	-0.007612
1129	5.6400e-01	8.7164	16.428508	0.000287	2.865483	0.485426	-0.005730
1130	5.6450e-01	8.7048	16.408837	0.000197	1.967346	0.333278	-0.003934
1131	5.6500e-01	8.6957	16.398146	0.000107	1.069210	0.181129	-0.002138
1132	5.6550e-01	8.6859	16.366930	0.000312	3.122093	0.528897	-0.006243
1133	5.6600e-01	8.6774	16.356667	0.000103	1.026442	0.173884	-0.002053
1134	5.6650e-01	8.6670	16.347259	0.000094	0.940905	0.159394	-0.001882
1135	5.6700e-01	8.6554	16.290385	0.000569	5.688197	0.963607	-0.011375
1136	5.6750e-01	8.6472	16.293806	-0.000034	-0.342147	-0.057961	0.000684
1137	5.6800e-01	8.6365	16.275418	0.000184	1.839041	0.311542	-0.003678
1138	5.6850e-01	8.6273	16.249333	0.000261	2.608872	0.441955	-0.005217
1139	5.6900e-01	8.6157	16.211274	0.000381	3.806388	0.644820	-0.007612
1140	5.6950e-01	8.6084	16.179202	0.000321	3.207630	0.543387	-0.006414
1141	5.7000e-01	8.5974	16.174071	0.000051	0.513221	0.086942	-0.001026
1142	5.7050e-01	8.5889	16.161242	0.000128	1.283052	0.217355	-0.002566
1143	5.7100e-01	8.5773	16.135157	0.000261	2.608872	0.441955	-0.005217
1144	5.7150e-01	8.5657	16.092822	0.000423	4.234072	0.717271	-0.008467
1145	5.7200e-01	8.5565	16.096243	-0.000034	-0.342147	-0.057961	0.000684
1146	5.7250e-01	8.5486	16.050915	0.000453	4.533450	0.767987	-0.009066
1147	5.7300e-01	8.5364	16.041935	0.000090	0.898136	0.152148	-0.001796
1148	5.7350e-01	8.5223	16.035948	0.000060	0.598758	0.101432	-0.001197
1149	5.7400e-01	8.5168	16.002165	0.000338	3.378704	0.572368	-0.006756
1150	5.7450e-01	8.5052	15.983778	0.000184	1.839041	0.311542	-0.003678
1151	5.7500e-01	8.4956	15.945719	0.000381	3.806388	0.644820	-0.007612
1152	5.7550e-01	8.4863	15.932035	0.000137	1.368589	0.231845	-0.002737
1153	5.7600e-01	8.4735	15.920061	0.000120	1.197515	0.202865	-0.002395
1154	5.7650e-01	8.4644	15.895259	0.000248	2.480567	0.420219	-0.004960
1155	5.7700e-01	8.4564	15.866608	0.000287	2.865483	0.485426	-0.005730
1156	5.7750e-01	8.4448	15.863615	0.000030	0.299379	0.050716	-0.000599
1157	5.7800e-01	8.4375	15.828977	0.000346	3.464240	0.586858	-0.006928
1158	5.7850e-01	8.4247	15.787070	0.000419	4.191303	0.710026	-0.008381
1159	5.7900e-01	8.4167	15.764406	0.000227	2.266725	0.383994	-0.004533
1160	5.7950e-01	8.4052	15.765689	-0.000013	-0.128305	-0.021735	0.000257
1161	5.8000e-01	8.3966	15.703255	0.000624	6.244187	1.057794	-0.012487
1162	5.8050e-01	8.3875	15.701545	0.000017	0.171074	0.028981	-0.000342
1163	5.8100e-01	8.3740	15.677598	0.000240	2.395030	0.405729	-0.004789
1164	5.8150e-01	8.3655	15.642533	0.000351	3.507009	0.594103	-0.007013
1165	5.8200e-01	8.3572	15.651085	-0.000086	-0.855368	-0.144903	0.001711
1166	5.8250e-01	8.3484	15.634408	0.000167	1.667968	0.282561	-0.003335
1167	5.8300e-01	8.3405	15.594211	0.000402	4.020230	0.681045	-0.008039
1168	5.8350e-01	8.3234	15.577961	0.000163	1.625199	0.275316	-0.003250
1169	5.8400e-01	8.3160	15.548883	0.000291	2.908251	0.492671	-0.005816
1170	5.8450e-01	8.3099	15.540758	0.000081	0.812600	0.137658	-0.001625
1171	5.8500e-01	8.2947	15.508686	0.000321	3.207630	0.543387	-0.006414
1172	5.8550e-01	8.2849	15.486449	0.000222	2.223957	0.376748	-0.004447
1173	5.8600e-01	8.2770	15.462930	0.000235	2.352262	0.398484	-0.004704
1174	5.8650e-01	8.2666	15.436845	0.000261	2.608872	0.441955	-0.005217
1175	5.8700e-01	8.2544	15.399214	0.000376	3.763619	0.637574	-0.007526
1176	5.8750e-01	8.2458	15.392372	0.000068	0.684294	0.115923	-0.001368
1177	5.8800e-01	8.2349	15.380398	0.000120	1.197515	0.202865	-0.002395
1178	5.8850e-01	8.2245	15.332504	0.000479	4.790061	0.811458	-0.009579
1179	5.8900e-01	8.2159	15.321814	0.000107	1.069210	0.181129	-0.002138
1180	5.8950e-01	8.2056	15.290597	0.000312	3.122093	0.528897	-0.006243
1181	5.9000e-01	8.1952	15.266222	0.000244	2.437799	0.412974	-0.004875
1182	5.9050e-01	8.1873	15.252966	0.000133	1.325820	0.224600	-0.002651
1183	5.9100e-01	8.1744	15.228164	0.000248	2.480567	0.420219	-0.004960
1184	5.9150e-01	8.1665	15.184974	0.000432	4.319608	0.731761	-0.008638
1185	5.9200e-01	8.1592	15.165730	0.000192	1.924578	0.326032	-0.003849
1186	5.9250e-01	8.1454	15.142639	0.000231	2.309494	0.391239	-0.004618
1187	5.9300e-01	8.1354	15.140073	0.000026	0.256610	0.043471	-0.000513
1188	5.9350e-01	8.1250	15.119119	0.000210	2.095652	0.355013	-0.004191
1189	5.9400e-01	8.1149	15.081488	0.000376	3.763619	0.637574	-0.007526
1190	5.9450e-01	8.1061	15.079778	0.000017	0.171074	0.028981	-0.000342
1191	5.9500e-01	8.0975	15.057541	0.000222	2.223957	0.376748	-0.004447
1192	5.9550e-01	8.0884	15.014351	0.000432	4.319608	0.731761	-0.008638
1193	5.9600e-01	8.0743	15.012213	0.000021	0.213842	0.036226	-0.000428
1194	5.9650e-01	8.0688	15.002805	0.000094	0.940905	0.159394	-0.001882
1195	5.9700e-01	8.0554	14.966457	0.000364	3.635314	0.615839	-0.007270
1196	5.9750e-01	8.0463	14.933102	0.000334	3.335935	0.565123	-0.006671
1197	5.9800e-01	8.0396	14.926688	0.000064	0.641526	0.108677	-0.001283
1198	5.9850e-01	8.0267	14.878794	0.000479	4.790061	0.811458	-0.009579
1199	5.9900e-01	8.0167	14.853564	0.000252	2.523336	0.427465	-0.005046
1200	5.9950e-01	8.0072	14.822347	0.000312	3.122093	0.528897	-0.006243
1201	6.0000e-01	7.9956	14.795835	0.000265	2.651641	0.449200	-0.005303
1202	6.0050e-01	7.9871	14.797545	-0.000017	-0.171074	-0.028981	0.000342
1203	6.0100e-01	7.9770	14.747513	0.000500	5.003903	0.847684	-0.010006
1204	6.0150e-01	7.9645	14.739816	0.000077	0.769831	0.130413	-0.001539
1205	6.0200e-01	7.9549	14.706888	0.000329	3.293167	0.557878	-0.006585
1206	6.0250e-01	7.9449	14.703040	0.000038	0.384916	0.065206	-0.000770
1207	6.0300e-01	7.9367	14.695770	0.000073	0.727063	0.123168	-0.001454
1208	6.0350e-01	7.9276	14.646166	0.000496	4.961134	0.840439	-0.009921
1209	6.0400e-01	7.9169	14.630771	0.000154	1.539662	0.260826	-0.003079
1210	6.0450e-01	7.9053	14.613239	0.000175	1.753504	0.297052	-0.003507
1211	6.0500e-01	7.8943	14.544391	0.000689	6.885713	1.166471	-0.013770
1212	6.0550e-01	7.8876	14.560213	-0.000158	-1.582431	-0.268071	0.003164
1213	6.0600e-01	7.8754	14.539687	0.000205	2.052883	0.347768	-0.004105
1214	6.0650e-01	7.8674	14.500773	0.000389	3.891924	0.659310	-0.007783
1215	6.0700e-01	7.8552	14.477681	0.000231	2.309494	0.391239	-0.004618
1216	6.0750e-01	7.8485	14.468701	0.000090	0.898136	0.152148	-0.001796
1217	6.0800e-01	7.8351	14.440050	0.000287	2.865483	0.485426	-0.005730
1218	6.0850e-01	7.8284	14.398571	0.000415	4.148535	0.702781	-0.008296
1219	6.0900e-01	7.8149	14.379327	0.000192	1.924578	0.326032	-0.003849
1220	6.0950e-01	7.8070	14.348538	0.000308	3.079325	0.521652	-0.006158
1221	6.1000e-01	7.7936	14.333144	0.000154	1.539662	0.260826	-0.003079
1222	6.1050e-01	7.7856	14.324164	0.000090	0.898136	0.152148	-0.001796
1223	6.1100e-01	7.7747	14.298079	0.000261	2.608872	0.441955	-0.005217
1224	6.1150e-01	7.7679	14.277125	0.000210	2.095652	0.355013	-0.004191
1225	6.1200e-01	7.7576	14.225382	0.000517	5.174976	0.876665	-0.010349
1226	6.1250e-01	7.7435	14.218113	0.000073	0.727063	0.123168	-0.001454
1227	6.1300e-01	7.7359	14.189462	0.000287	2.865483	0.485426	-0.005730
1228	6.1350e-01	7.7252	14.169363	0.000201	2.010115	0.340523	-0.004020
1229	6.1400e-01	7.7173	14.143706	0.000257	2.566104	0.434710	-0.005132
1230	6.1450e-01	7.7057	14.118904	0.000248	2.480567	0.420219	-0.004960
1231	6.1500e-01	7.6965	14.094101	0.000248	2.480567	0.420219	-0.004960
1232	6.1550e-01	7.6874	14.069727	0.000244	2.437799	0.412974	-0.004875
1233	6.1600e-01	7.6770	14.053049	0.000167	1.667968	0.282561	-0.003335
1234	6.1650e-01	7.6645	14.036372	0.000167	1.667968	0.282561	-0.003335
1235	6.1700e-01	7.6547	14.003872	0.000325	3.250398	0.550632	-0.006500
1236	6.1750e-01	7.6471	13.974794	0.000291	2.908251	0.492671	-0.005816
1237	6.1800e-01	7.6367	13.946571	0.000282	2.822714	0.478181	-0.005645
1238	6.1850e-01	7.6251	13.921768	0.000248	2.480567	0.420219	-0.004960
1239	6.1900e-01	7.6141	13.910223	0.000115	1.154747	0.195619	-0.002309
1240	6.1950e-01	7.6050	13.868743	0.000415	4.148535	0.702781	-0.008296
1241	6.2000e-01	7.5958	13.861473	0.000073	0.727063	0.123168	-0.001454
1242	6.2050e-01	7.5873	13.821277	0.000402	4.020230	0.681045	-0.008039
1243	6.2100e-01	7.5754	13.811441	0.000098	0.983673	0.166639	-0.001967
1244	6.2150e-01	7.5647	13.779797	0.000316	3.164862	0.536142	-0.006329
1245	6.2200e-01	7.5558	13.787922	-0.000081	-0.812600	-0.137658	0.001625
1246	6.2250e-01	7.5458	13.725916	0.000620	6.201418	1.050549	-0.012401
1247	6.2300e-01	7.5354	13.713087	0.000128	1.283052	0.217355	-0.002566
1248	6.2350e-01	7.5226	13.689996	0.000231	2.309494	0.391239	-0.004618
1249	6.2400e-01	7.5146	13.654075	0.000359	3.592546	0.608594	-0.007184
1250	6.2450e-01	7.5098	13.629273	0.000248	2.480567	0.420219	-0.004960
1251	6.2500e-01	7.4969	13.620293	0.000090	0.898136	0.152148	-0.001796
1252	6.2550e-01	7.4866	13.593352	0.000269	2.694409	0.456445	-0.005388
1253	6.2600e-01	7.4780	13.559570	0.000338	3.378704	0.572368	-0.006756
1254	6.2650e-01	7.4646	13.532202	0.000274	2.737178	0.463690	-0.005474
1255	6.2700e-01	7.4554	13.524932	0.000073	0.727063	0.123168	-0.001454
1256	6.2750e-01	7.4470	13.496281	0.000287	2.865483	0.485426	-0.005730
1257	6.2800e-01	7.4371	13.483453	0.000128	1.283052	0.217355	-0.002566
1258	6.2850e-01	7.4243	13.446677	0.000368	3.678082	0.623084	-0.007355
1259	6.2900e-01	7.4164	13.429144	0.000175	1.753504	0.297052	-0.003507
1260	6.2950e-01	7.4072	13.406908	0.000222	2.223957	0.376748	-0.004447
1261	6.3000e-01	7.3969	13.384243	0.000227	2.266725	0.383994	-0.004533
1262	6.3050e-01	7.3842	13.368849	0.000154	1.539662	0.260826	-0.003079
1263	6.3100e-01	7.3773	13.327797	0.000411	4.105766	0.695536	-0.008210
1264	6.3150e-01	7.3669	13.294870	0.000329	3.293167	0.557878	-0.006585
1265	6.3200e-01	7.3560	13.259377	0.000355	3.549777	0.601349	-0.007099
1266	6.3250e-01	7.3438	13.263226	-0.000038	-0.384916	-0.065206	0.000770
1267	6.3300e-01	7.3346	13.205496	0.000577	5.773734	0.978097	-0.011546
1268	6.3350e-01	7.3273	13.196516	0.000090	0.898136	0.152148	-0.001796
1269	6.3400e-01	7.3169	13.181549	0.000150	1.496894	0.253581	-0.002993
1270	6.3450e-01	7.3093	13.128096	0.000535	5.346050	0.905645	-0.010691
1271	6.3500e-01	7.2952	13.112701	0.000154	1.539662	0.260826	-0.003079
1272	6.3550e-01	7.2845	13.105004	0.000077	0.769831	0.130413	-0.001539
1273	6.3600e-01	7.2766	13.069084	0.000359	3.592546	0.608594	-0.007184
1274	6.3650e-01	7.2656	13.041716	0.000274	2.737178	0.463690	-0.005474
1275	6.3700e-01	7.2540	13.006650	0.000351	3.507009	0.594103	-0.007013
1276	6.3750e-01	7.2437	12.997670	0.000090	0.898136	0.152148	-0.001796
1277	6.3800e-01	7.2348	12.969875	0.000278	2.779946	0.470936	-0.005559
1278	6.3850e-01	7.2235	12.939513	0.000304	3.036556	0.514407	-0.006072
1279	6.3900e-01	7.2162	12.923691	0.000158	1.582431	0.268071	-0.003164
1280	6.3950e-01	7.2070	12.876652	0.000470	4.704524	0.796968	-0.009408
1281	6.4000e-01	7.1942	12.872376	0.000043	0.427684	0.072452	-0.000855
1282	6.4050e-01	7.1851	12.845436	0.000269	2.694409	0.456445	-0.005388
1283	6.4100e-01	7.1741	12.825765	0.000197	1.967346	0.333278	-0.003934
1284	6.4150e-01	7.1657	12.791982	0.000338	3.378704	0.572368	-0.006756
1285	6.4200e-01	7.1558	12.753924	0.000381	3.806388	0.644820	-0.007612
1286	6.4250e-01	7.1472	12.728266	0.000257	2.566104	0.434710	-0.005132
1287	6.4300e-01	7.1350	12.714582	0.000137	1.368589	0.231845	-0.002737
1288	6.4350e-01	7.1252	12.683793	0.000308	3.079325	0.521652	-0.006158
1289	6.4400e-01	7.1181	12.666261	0.000175	1.753504	0.297052	-0.003507
1290	6.4450e-01	7.1106	12.635899	0.000304	3.036556	0.514407	-0.006072
1291	6.4500e-01	7.0979	12.613235	0.000227	2.266725	0.383994	-0.004533
1292	6.4550e-01	7.0888	12.589288	0.000240	2.395030	0.405729	-0.004789
1293	6.4600e-01	7.0767	12.565769	0.000235	2.352262	0.398484	-0.004704
1294	6.4650e-01	7.0654	12.550802	0.000150	1.496894	0.253581	-0.002993
1295	6.4700e-01	7.0581	12.512743	0.000381	3.806388	0.644820	-0.007612
1296	6.4750e-01	7.0477	12.476823	0.000359	3.592546	0.608594	-0.007184
1297	6.4800e-01	7.0346	12.458862	0.000180	1.796273	0.304297	-0.003592
1298	6.4850e-01	7.0297	12.442185	0.000167	1.667968	0.282561	-0.003335
1299	6.4900e-01	7.0166	12.400705	0.000415	4.148535	0.702781	-0.008296
1300	6.4950e-01	7.0074	12.358798	0.000419	4.191303	0.710026	-0.008381
1301	6.5000e-01	6.9934	12.359653	-0.000009	-0.085537	-0.014490	0.000171
1302	6.5050e-01	6.9855	12.336989	0.000227	2.266725	0.383994	-0.004533
1303	6.5100e-01	6.9751	12.305773	0.000312	3.122093	0.528897	-0.006243
1304	6.5150e-01	6.9653	12.272845	0.000329	3.293167	0.557878	-0.006585
1305	6.5200e-01	6.9534	12.256596	0.000163	1.625199	0.275316	-0.003250
1306	6.5250e-01	6.9446	12.232221	0.000244	2.437799	0.412974	-0.004875
1307	6.5300e-01	6.9370	12.199294	0.000329	3.293167	0.557878	-0.006585
1308	6.5350e-01	6.9263	12.185182	0.000141	1.411357	0.239090	-0.002822
1309	6.5400e-01	6.9153	12.150972	0.000342	3.421472	0.579613	-0.006842
1310	6.5450e-01	6.9055	12.131301	0.000197	1.967346	0.333278	-0.003934
1311	6.5500e-01	6.8927	12.077848	0.000535	5.346050	0.905645	-0.010691
1312	6.5550e-01	6.8835	12.080414	-0.000026	-0.256610	-0.043471	0.000513
1313	6.5600e-01	6.8768	12.034658	0.000458	4.576219	0.775232	-0.009151
1314	6.5650e-01	6.8637	12.028671	0.000060	0.598758	0.101432	-0.001197
1315	6.5700e-01	6.8536	11.989330	0.000393	3.934693	0.666555	-0.007868
1316	6.5750e-01	6.8469	11.984198	0.000051	0.513221	0.086942	-0.001026
1317	6.5800e-01	6.8365	11.946140	0.000381	3.806388	0.644820	-0.007612
1318	6.5850e-01	6.8250	11.923903	0.000222	2.223957	0.376748	-0.004447
1319	6.5900e-01	6.8127	11.895680	0.000282	2.822714	0.478181	-0.005645
1320	6.5950e-01	6.8042	11.861897	0.000338	3.378704	0.572368	-0.006756
1321	6.6000e-01	6.7929	11.852490	0.000094	0.940905	0.159394	-0.001882
1322	6.6050e-01	6.7865	11.802885	0.000496	4.961134	0.840439	-0.009921
1323	6.6100e-01	6.7749	11.788346	0.000145	1.454126	0.246336	-0.002908
1324	6.6150e-01	6.7654	11.748577	0.000398	3.977461	0.673800	-0.007954
1325	6.6200e-01	6.7569	11.774662	-0.000261	-2.608872	-0.441955	0.005217
1326	6.6250e-01	6.7484	11.702393	0.000723	7.227860	1.224433	-0.014454
1327	6.6300e-01	6.7343	11.687426	0.000150	1.496894	0.253581	-0.002993
1328	6.6350e-01	6.7280	11.665617	0.000218	2.181188	0.369503	-0.004362
1329	6.6400e-01	6.7145	11.611737	0.000539	5.388819	0.912891	-0.010776
1330	6.6450e-01	6.7036	11.605322	0.000064	0.641526	0.108677	-0.001283
1331	6.6500e-01	6.6968	11.604895	0.000004	0.042768	0.007245	-0.000086
1332	6.6550e-01	6.6861	11.554435	0.000505	5.046671	0.854929	-0.010092
1333	6.6600e-01	6.6754	11.518514	0.000359	3.592546	0.608594	-0.007184
1334	6.6650e-01	6.6699	11.473614	0.000449	4.490682	0.760742	-0.008980
1335	6.6700e-01	6.6556	11.460785	0.000128	1.283052	0.217355	-0.002566
1336	6.6750e-01	6.6473	11.430424	0.000304	3.036556	0.514407	-0.006072
1337	6.6800e-01	6.6382	11.407332	0.000231	2.309494	0.391239	-0.004618
1338	6.6850e-01	6.6287	11.401345	0.000060	0.598758	0.101432	-0.001197
1339	6.6900e-01	6.6125	11.350458	0.000509	5.089440	0.862174	-0.010177
1340	6.6950e-01	6.6034	11.336774	0.000137	1.368589	0.231845	-0.002737
1341	6.7000e-01	6.5944	11.306840	0.000299	2.993788	0.507161	-0.005987
1342	6.7050e-01	6.5851	11.290590	0.000163	1.625199	0.275316	-0.003250
1343	6.7100e-01	6.5738	11.249538	0.000411	4.105766	0.695536	-0.008210
1344	6.7150e-01	6.5631	11.232433	0.000171	1.710736	0.289807	-0.003421
1345	6.7200e-01	6.5582	11.205493	0.000269	2.694409	0.456445	-0.005388
1346	6.7250e-01	6.5473	11.190953	0.000145	1.454126	0.246336	-0.002908
1347	6.7300e-01	6.5366	11.153322	0.000376	3.763619	0.637574	-0.007526
1348	6.7350e-01	6.5286	11.126382	0.000269	2.694409	0.456445	-0.005388
1349	6.7400e-01	6.5152	11.102863	0.000235	2.352262	0.398484	-0.004704
1350	6.7450e-01	6.5063	11.072074	0.000308	3.079325	0.521652	-0.006158
1351	6.7500e-01	6.4960	11.042995	0.000291	2.908251	0.492671	-0.005816
1352	6.7550e-01	6.4850	11.035725	0.000073	0.727063	0.123168	-0.001454
1353	6.7600e-01	6.4771	10.979707	0.000560	5.602661	0.949116	-0.011204
1354	6.7650e-01	6.4656	10.962174	0.000175	1.753504	0.297052	-0.003507
1355	6.7700e-01	6.4526	10.948062	0.000141	1.411357	0.239090	-0.002822
1356	6.7750e-01	6.4456	10.895037	0.000530	5.303282	0.898400	-0.010605
1357	6.7800e-01	6.4352	10.884346	0.000107	1.069210	0.181129	-0.002138
1358	6.7850e-01	6.4249	10.846287	0.000381	3.806388	0.644820	-0.007612
1359	6.7900e-01	6.4145	10.821485	0.000248	2.480567	0.420219	-0.004960
1360	6.7950e-01	6.4066	10.805663	0.000158	1.582431	0.268071	-0.003164
1361	6.8000e-01	6.3943	10.764611	0.000411	4.105766	0.695536	-0.008210
1362	6.8050e-01	6.3858	10.749217	0.000154	1.539662	0.260826	-0.003079
1363	6.8100e-01	6.3751	10.728691	0.000205	2.052883	0.347768	-0.004105
1364	6.8150e-01	6.3666	10.687211	0.000415	4.148535	0.702781	-0.008296
1365	6.8200e-01	6.3544	10.656422	0.000308	3.079325	0.521652	-0.006158
1366	6.8250e-01	6.3440	10.655567	0.000009	0.085537	0.014490	-0.000171
1367	6.8300e-01	6.3373	10.607673	0.000479	4.790061	0.811458	-0.009579
1368	6.8350e-01	6.3264	10.574318	0.000334	3.335935	0.565123	-0.006671
1369	6.8400e-01	6.3168	10.533266	0.000411	4.105766	0.695536	-0.008210
1370	6.8450e-01	6.3062	10.527279	0.000060	0.598758	0.101432	-0.001197
1371	6.8500e-01	6.2964	10.531555	-0.000043	-0.427684	-0.072452	0.000855
1372	6.8550e-01	6.2863	10.460569	0.000710	7.099555	1.202697	-0.014197
1373	6.8600e-01	6.2782	10.447313	0.000133	1.325820	0.224600	-0.002651
1374	6.8650e-01	6.2665	10.416952	0.000304	3.036556	0.514407	-0.006072
1375	6.8700e-01	6.2555	10.415241	0.000017	0.171074	0.028981	-0.000342
1376	6.8750e-01	6.2452	10.376327	0.000389	3.891924	0.659310	-0.007783
1377	6.8800e-01	6.2360	10.334848	0.000415	4.148535	0.702781	-0.008296
1378	6.8850e-01	6.2256	10.289947	0.000449	4.490682	0.760742	-0.008980
1379	6.8900e-01	6.2177	10.285671	0.000043	0.427684	0.072452	-0.000855
1380	6.8950e-01	6.2054	10.253171	0.000325	3.250398	0.550632	-0.006500
1381	6.9000e-01	6.1981	10.246329	0.000068	0.684294	0.115923	-0.001368
1382	6.9050e-01	6.1877	10.211264	0.000351	3.507009	0.594103	-0.007013
1383	6.9100e-01	6.1774	10.164225	0.000470	4.704524	0.796968	-0.009408
1384	6.9150e-01	6.1658	10.150969	0.000133	1.325820	0.224600	-0.002651
1385	6.9200e-01	6.1554	10.114621	0.000364	3.635314	0.615839	-0.007270
1386	6.9250e-01	6.1456	10.077845	0.000368	3.678082	0.623084	-0.007355
1387	6.9300e-01	6.1365	10.086825	-0.000090	-0.898136	-0.152148	0.001796
1388	6.9350e-01	6.1249	10.020543	0.000663	6.629102	1.123000	-0.013256
1389	6.9400e-01	6.1147	10.023964	-0.000034	-0.342147	-0.057961	0.000684
1390	6.9450e-01	6.1060	9.972649	0.000513	5.132208	0.869420	-0.010263
1391	6.9500e-01	6.0953	9.932452	0.000402	4.020230	0.681045	-0.008039
1392	6.9550e-01	6.0858	9.955972	-0.000235	-2.352262	-0.398484	0.004704
1393	6.9600e-01	6.0754	9.900808	0.000552	5.517124	0.934626	-0.011033
1394	6.9650e-01	6.0645	9.867881	0.000329	3.293167	0.557878	-0.006585
1395	6.9700e-01	6.0559	9.860184	0.000077	0.769831	0.130413	-0.001539
1396	6.9750e-01	6.0455	9.814428	0.000458	4.576219	0.775232	-0.009151
1397	6.9800e-01	6.0358	9.800316	0.000141	1.411357	0.239090	-0.002822
1398	6.9850e-01	6.0248	9.764396	0.000359	3.592546	0.608594	-0.007184
1399	6.9900e-01	6.0144	9.719922	0.000445	4.447914	0.753497	-0.008895
1400	6.9950e-01	6.0052	9.712225	0.000077	0.769831	0.130413	-0.001539
1401	7.0000e-01	5.9955	9.671173	0.000411	4.105766	0.695536	-0.008210
1402	7.0050e-01	5.9840	9.645943	0.000252	2.523336	0.427465	-0.005046
1403	7.0100e-01	5.9760	9.631404	0.000145	1.454126	0.246336	-0.002908
1404	7.0150e-01	5.9662	9.584365	0.000470	4.704524	0.796968	-0.009408
1405	7.0200e-01	5.9570	9.573675	0.000107	1.069210	0.181129	-0.002138
1406	7.0250e-01	5.9436	9.552293	0.000214	2.138420	0.362258	-0.004276
1407	7.0300e-01	5.9360	9.512952	0.000393	3.934693	0.666555	-0.007868
1408	7.0350e-01	5.9259	9.456505	0.000565	5.645429	0.956362	-0.011289
1409	7.0400e-01	5.9174	9.440683	0.000158	1.582431	0.268071	-0.003164
1410	7.0450e-01	5.9064	9.426144	0.000145	1.454126	0.246336	-0.002908
1411	7.0500e-01	5.8954	9.394072	0.000321	3.207630	0.543387	-0.006414
1412	7.0550e-01	5.8875	9.371836	0.000222	2.223957	0.376748	-0.004447
1413	7.0600e-01	5.8765	9.335487	0.000364	3.635314	0.615839	-0.007270
1414	7.0650e-01	5.8673	9.324369	0.000111	1.111978	0.188374	-0.002224
1415	7.0700e-01	5.8560	9.288021	0.000364	3.635314	0.615839	-0.007270
1416	7.0750e-01	5.8505	9.258942	0.000291	2.908251	0.492671	-0.005816
1417	7.0800e-01	5.8350	9.214042	0.000449	4.490682	0.760742	-0.008980
1418	7.0850e-01	5.8264	9.206772	0.000073	0.727063	0.123168	-0.001454
1419	7.0900e-01	5.8154	9.173417	0.000334	3.335935	0.565123	-0.006671
1420	7.0950e-01	5.8063	9.127234	0.000462	4.618987	0.782478	-0.009237
1421	7.1000e-01	5.7967	9.105853	0.000214	2.138420	0.362258	-0.004276
1422	7.1050e-01	5.7886	9.078912	0.000269	2.694409	0.456445	-0.005388
1423	7.1100e-01	5.7770	9.047268	0.000316	3.164862	0.536142	-0.006329
1424	7.1150e-01	5.7654	9.027170	0.000201	2.010115	0.340523	-0.004020
1425	7.1200e-01	5.7544	8.992532	0.000346	3.464240	0.586858	-0.006928
1426	7.1250e-01	5.7495	8.969013	0.000235	2.352262	0.398484	-0.004704
1427	7.1300e-01	5.7364	8.932664	0.000364	3.635314	0.615839	-0.007270
1428	7.1350e-01	5.7266	8.905296	0.000274	2.737178	0.463690	-0.005474
1429	7.1400e-01	5.7143	8.852271	0.000530	5.303282	0.898400	-0.010605
1430	7.1450e-01	5.7059	8.860396	-0.000081	-0.812600	-0.137658	0.001625
1431	7.1500e-01	5.6960	8.813785	0.000466	4.661756	0.789723	-0.009322
1432	7.1550e-01	5.6863	8.787699	0.000261	2.608872	0.441955	-0.005217
1433	7.1600e-01	5.6776	8.771877	0.000158	1.582431	0.268071	-0.003164
1434	7.1650e-01	5.6644	8.743226	0.000287	2.865483	0.485426	-0.005730
1435	7.1700e-01	5.6549	8.702602	0.000406	4.062998	0.688291	-0.008125
1436	7.1750e-01	5.6451	8.695332	0.000073	0.727063	0.123168	-0.001454
1437	7.1800e-01	5.6374	8.652570	0.000428	4.276840	0.724516	-0.008553
1438	7.1850e-01	5.6259	8.632044	0.000205	2.052883	0.347768	-0.004105
1439	7.1900e-01	5.6146	8.602110	0.000299	2.993788	0.507161	-0.005987
1440	7.1950e-01	5.6049	8.568328	0.000338	3.378704	0.572368	-0.006756
1441	7.2000e-01	5.5939	8.545663	0.000227	2.266725	0.383994	-0.004533
1442	7.2050e-01	5.5878	8.515730	0.000299	2.993788	0.507161	-0.005987
1443	7.2100e-01	5.5762	8.489645	0.000261	2.608872	0.441955	-0.005217
1444	7.2150e-01	5.5652	8.464842	0.000248	2.480567	0.420219	-0.004960
1445	7.2200e-01	5.5551	8.420369	0.000445	4.447914	0.753497	-0.008895
1446	7.2250e-01	5.5495	8.388725	0.000316	3.164862	0.536142	-0.006329
1447	7.2300e-01	5.5359	8.357081	0.000316	3.164862	0.536142	-0.006329
1448	7.2350e-01	5.5253	8.327147	0.000299	2.993788	0.507161	-0.005987
1449	7.2400e-01	5.5133	8.312180	0.000150	1.496894	0.253581	-0.002993
1450	7.2450e-01	5.5052	8.288661	0.000235	2.352262	0.398484	-0.004704
1451	7.2500e-01	5.4964	8.250174	0.000385	3.849156	0.652065	-0.007697
1452	7.2550e-01	5.4852	8.211688	0.000385	3.849156	0.652065	-0.007697
1453	7.2600e-01	5.4765	8.203563	0.000081	0.812600	0.137658	-0.001625
1454	7.2650e-01	5.4651	8.164222	0.000393	3.934693	0.666555	-0.007868
1455	7.2700e-01	5.4572	8.117611	0.000466	4.661756	0.789723	-0.009322
1456	7.2750e-01	5.4474	8.099650	0.000180	1.796273	0.304297	-0.003592
1457	7.2800e-01	5.4370	8.069717	0.000299	2.993788	0.507161	-0.005987
1458	7.2850e-01	5.4245	8.044487	0.000252	2.523336	0.427465	-0.005046
1459	7.2900e-01	5.4144	8.013698	0.000308	3.079325	0.521652	-0.006158
1460	7.2950e-01	5.4030	8.010704	0.000030	0.299379	0.050716	-0.000599
1461	7.3000e-01	5.3964	7.955541	0.000552	5.517124	0.934626	-0.011033
1462	7.3050e-01	5.3833	7.916627	0.000389	3.891924	0.659310	-0.007783
1463	7.3100e-01	5.3760	7.897811	0.000188	1.881810	0.318787	-0.003763
1464	7.3150e-01	5.3638	7.867022	0.000308	3.079325	0.521652	-0.006158
1465	7.3200e-01	5.3549	7.849062	0.000180	1.796273	0.304297	-0.003592
1466	7.3250e-01	5.3488	7.795181	0.000539	5.388819	0.912891	-0.010776
1467	7.3300e-01	5.3384	7.775938	0.000192	1.924578	0.326032	-0.003849
1468	7.3350e-01	5.3259	7.744721	0.000312	3.122093	0.528897	-0.006243
1469	7.3400e-01	5.3149	7.704525	0.000402	4.020230	0.681045	-0.008039
1470	7.3450e-01	5.3033	7.686137	0.000184	1.839041	0.311542	-0.003678
1471	7.3500e-01	5.2979	7.660479	0.000257	2.566104	0.434710	-0.005132
1472	7.3550e-01	5.2850	7.633966	0.000265	2.651641	0.449200	-0.005303
1473	7.3600e-01	5.2759	7.584362	0.000496	4.961134	0.840439	-0.009921
1474	7.3650e-01	5.2667	7.586072	-0.000017	-0.171074	-0.028981	0.000342
1475	7.3700e-01	5.2571	7.537323	0.000488	4.875598	0.825949	-0.009750
1476	7.3750e-01	5.2432	7.494988	0.000423	4.234072	0.717271	-0.008467
1477	7.3800e-01	5.2350	7.487291	0.000077	0.769831	0.130413	-0.001539
1478	7.3850e-01	5.2267	7.467193	0.000201	2.010115	0.340523	-0.004020
1479	7.3900e-01	5.2139	7.448805	0.000184	1.839041	0.311542	-0.003678
1480	7.3950e-01	5.2078	7.396207	0.000526	5.260513	0.891155	-0.010520
1481	7.4000e-01	5.1965	7.362424	0.000338	3.378704	0.572368	-0.006756
1482	7.4050e-01	5.1837	7.347030	0.000154	1.539662	0.260826	-0.003079
1483	7.4100e-01	5.1761	7.295715	0.000513	5.132208	0.869420	-0.010263
1484	7.4150e-01	5.1630	7.296570	-0.000009	-0.085537	-0.014490	0.000171
1485	7.4200e-01	5.1578	7.252952	0.000436	4.362377	0.739007	-0.008724
1486	7.4250e-01	5.1463	7.218742	0.000342	3.421472	0.579613	-0.006842
1487	7.4300e-01	5.1346	7.202493	0.000163	1.625199	0.275316	-0.003250
1488	7.4350e-01	5.1282	7.175552	0.000269	2.694409	0.456445	-0.005388
1489	7.4400e-01	5.1196	7.130224	0.000453	4.533450	0.767987	-0.009066
1490	7.4450e-01	5.1074	7.073350	0.000569	5.688197	0.963607	-0.011375
1491	7.4500e-01	5.0946	7.051968	0.000214	2.138420	0.362258	-0.004276
1492	7.4550e-01	5.0873	7.029304	0.000227	2.266725	0.383994	-0.004533
1493	7.4600e-01	5.0764	6.999798	0.000295	2.951020	0.499916	-0.005901
1494	7.4650e-01	5.0696	6.987825	0.000120	1.197515	0.202865	-0.002395
1495	7.4700e-01	5.0574	6.937365	0.000505	5.046671	0.854929	-0.010092
1496	7.4750e-01	5.0444	6.916839	0.000205	2.052883	0.347768	-0.004105
1497	7.4800e-01	5.0319	6.910852	0.000060	0.598758	0.101432	-0.001197
1498	7.4850e-01	5.0275	6.844570	0.000663	6.629102	1.123000	-0.013256
1499	7.4900e-01	5.0134	6.842004	0.000026	0.256610	0.043471	-0.000513
1500	7.4950e-01	5.0061	6.788979	0.000530	5.303282	0.898400	-0.010605
1501	7.5000e-01	4.9957	6.760328	0.000287	2.865483	0.485426	-0.005730
1502	7.5050e-01	4.9854	6.747927	0.000124	1.240284	0.210110	-0.002480
1503	7.5100e-01	4.9750	6.701316	0.000466	4.661756	0.789723	-0.009322
1504	7.5150e-01	4.9649	6.664540	0.000368	3.678082	0.623084	-0.007355
1505	7.5200e-01	4.9561	6.652139	0.000124	1.240284	0.210110	-0.002480
1506	7.5250e-01	4.9452	6.620067	0.000321	3.207630	0.543387	-0.006414
1507	7.5300e-01	4.9390	6.582863	0.000372	3.720851	0.630329	-0.007441
1508	7.5350e-01	4.9251	6.557206	0.000257	2.566104	0.434710	-0.005132
1509	7.5400e-01	4.9152	6.518292	0.000389	3.891924	0.659310	-0.007783
1510	7.5450e-01	4.9074	6.481944	0.000364	3.635314	0.615839	-0.007270
1511	7.5500e-01	4.8953	6.485365	-0.000034	-0.342147	-0.057961	0.000684
1512	7.5550e-01	4.8853	6.416517	0.000689	6.885713	1.166471	-0.013770
1513	7.5600e-01	4.8761	6.402833	0.000137	1.368589	0.231845	-0.002737
1514	7.5650e-01	4.8677	6.362209	0.000406	4.062998	0.688291	-0.008125
1515	7.5700e-01	4.8611	6.333986	0.000282	2.822714	0.478181	-0.005645
1516	7.5750e-01	4.8447	6.310894	0.000231	2.309494	0.391239	-0.004618
1517	7.5800e-01	4.8364	6.258724	0.000522	5.217745	0.883910	-0.010434
1518	7.5850e-01	4.8236	6.233494	0.000252	2.523336	0.427465	-0.005046
1519	7.5900e-01	4.8181	6.207408	0.000261	2.608872	0.441955	-0.005217
1520	7.5950e-01	4.8065	6.155238	0.000522	5.217745	0.883910	-0.010434
1521	7.6000e-01	4.7955	6.141982	0.000133	1.325820	0.224600	-0.002651
1522	7.6050e-01	4.7882	6.117180	0.000248	2.480567	0.420219	-0.004960
1523	7.6100e-01	4.7751	6.093233	0.000240	2.395030	0.405729	-0.004789
1524	7.6150e-01	4.7629	6.052608	0.000406	4.062998	0.688291	-0.008125
1525	7.6200e-01	4.7546	6.024385	0.000282	2.822714	0.478181	-0.005645
1526	7.6250e-01	4.7447	5.988037	0.000364	3.635314	0.615839	-0.007270
1527	7.6300e-01	4.7363	5.960241	0.000278	2.779946	0.470936	-0.005559
1528	7.6350e-01	4.7247	5.943136	0.000171	1.710736	0.289807	-0.003421
1529	7.6400e-01	4.7156	5.906788	0.000364	3.635314	0.615839	-0.007270
1530	7.6450e-01	4.7076	5.862315	0.000445	4.447914	0.753497	-0.008895
1531	7.6500e-01	4.6955	5.849486	0.000128	1.283052	0.217355	-0.002566
1532	7.6550e-01	4.6846	5.806724	0.000428	4.276840	0.724516	-0.008553
1533	7.6600e-01	4.6762	5.774224	0.000325	3.250398	0.550632	-0.006500
1534	7.6650e-01	4.6657	5.739586	0.000346	3.464240	0.586858	-0.006928
1535	7.6700e-01	4.6547	5.723764	0.000158	1.582431	0.268071	-0.003164
1536	7.6750e-01	4.6463	5.701100	0.000227	2.266725	0.383994	-0.004533
1537	7.6800e-01	4.6344	5.651068	0.000500	5.003903	0.847684	-0.010006
1538	7.6850e-01	4.6247	5.622845	0.000282	2.822714	0.478181	-0.005645
1539	7.6900e-01	4.6155	5.588635	0.000342	3.421472	0.579613	-0.006842
1540	7.6950e-01	4.6055	5.553569	0.000351	3.507009	0.594103	-0.007013
1541	7.7000e-01	4.5944	5.518504	0.000351	3.507009	0.594103	-0.007013
1542	7.7050e-01	4.5844	5.496695	0.000218	2.181188	0.369503	-0.004362
1543	7.7100e-01	4.5755	5.452222	0.000445	4.447914	0.753497	-0.008895
1544	7.7150e-01	4.5660	5.432551	0.000197	1.967346	0.333278	-0.003934
1545	7.7200e-01	4.5569	5.397059	0.000355	3.549777	0.601349	-0.007099
1546	7.7250e-01	4.5453	5.366270	0.000308	3.079325	0.521652	-0.006158
1547	7.7300e-01	4.5348	5.339757	0.000265	2.651641	0.449200	-0.005303
1548	7.7350e-01	4.5245	5.307257	0.000325	3.250398	0.550632	-0.006500
1549	7.7400e-01	4.5139	5.275613	0.000316	3.164862	0.536142	-0.006329
1550	7.7450e-01	4.5050	5.246107	0.000295	2.951020	0.499916	-0.005901
1551	7.7500e-01	4.4968	5.200779	0.000453	4.533450	0.767987	-0.009066
1552	7.7550e-01	4.4873	5.167851	0.000329	3.293167	0.557878	-0.006585
1553	7.7600e-01	4.4752	5.140911	0.000269	2.694409	0.456445	-0.005388
1554	7.7650e-01	4.4669	5.120813	0.000201	2.010115	0.340523	-0.004020
1555	7.7700e-01	4.4579	5.082754	0.000381	3.806388	0.644820	-0.007612
1556	7.7750e-01	4.4446	5.053675	0.000291	2.908251	0.492671	-0.005816
1557	7.7800e-01	4.4360	5.031867	0.000218	2.181188	0.369503	-0.004362
1558	7.7850e-01	4.4229	4.998939	0.000329	3.293167	0.557878	-0.006585
1559	7.7900e-01	4.4153	4.945914	0.000530	5.303282	0.898400	-0.010605
1560	7.7950e-01	4.4043	4.936506	0.000094	0.940905	0.159394	-0.001882
1561	7.8000e-01	4.3970	4.911276	0.000252	2.523336	0.427465	-0.005046
1562	7.8050e-01	4.3828	4.852264	0.000590	5.902039	0.999833	-0.011802
1563	7.8100e-01	4.3762	4.815488	0.000368	3.678082	0.623084	-0.007355
1564	7.8150e-01	4.3658	4.781278	0.000342	3.421472	0.579613	-0.006842
1565	7.8200e-01	4.3537	4.763746	0.000175	1.753504	0.297052	-0.003507
1566	7.8250e-01	4.3475	4.740226	0.000235	2.352262	0.398484	-0.004704
1567	7.8300e-01	4.3359	4.688911	0.000513	5.132208	0.869420	-0.010263
1568	7.8350e-01	4.3265	4.663681	0.000252	2.523336	0.427465	-0.005046
1569	7.8400e-01	4.3165	4.623484	0.000402	4.020230	0.681045	-0.008039
1570	7.8450e-01	4.3065	4.605097	0.000184	1.839041	0.311542	-0.003678
1571	7.8500e-01	4.2961	4.569176	0.000359	3.592546	0.608594	-0.007184
1572	7.8550e-01	4.2865	4.537532	0.000316	3.164862	0.536142	-0.006329
1573	7.8600e-01	4.2756	4.497335	0.000402	4.020230	0.681045	-0.008039
1574	7.8650e-01	4.2653	4.466974	0.000304	3.036556	0.514407	-0.006072
1575	7.8700e-01	4.2575	4.449869	0.000171	1.710736	0.289807	-0.003421
1576	7.8750e-01	4.2474	4.401547	0.000483	4.832829	0.818703	-0.009664
1577	7.8800e-01	4.2371	4.370758	0.000308	3.079325	0.521652	-0.006158
1578	7.8850e-01	4.2259	4.364771	0.000060	0.598758	0.101432	-0.001197
1579	7.8900e-01	4.2169	4.307042	0.000577	5.773734	0.978097	-0.011546
1580	7.8950e-01	4.2058	4.269411	0.000376	3.763619	0.637574	-0.007526
1581	7.9000e-01	4.1925	4.224082	0.000453	4.533450	0.767987	-0.009066
1582	7.9050e-01	4.1846	4.168064	0.000560	5.602661	0.949116	-0.011204
1583	7.9100e-01	4.1745	4.184741	-0.000167	-1.667968	-0.282561	0.003335
1584	7.9150e-01	4.1650	4.153097	0.000316	3.164862	0.536142	-0.006329
1585	7.9200e-01	4.1541	4.119742	0.000334	3.335935	0.565123	-0.006671
1586	7.9250e-01	4.1476	4.062440	0.000573	5.730966	0.970852	-0.011460
1587	7.9300e-01	4.1342	4.045335	0.000171	1.710736	0.289807	-0.003421
1588	7.9350e-01	4.1254	4.027375	0.000180	1.796273	0.304297	-0.003592
1589	7.9400e-01	4.1153	3.961093	0.000663	6.629102	1.123000	-0.013256
1590	7.9450e-01	4.1052	3.938001	0.000231	2.309494	0.391239	-0.004618
1591	7.9500e-01	4.0970	3.918330	0.000197	1.967346	0.333278	-0.003934
1592	7.9550e-01	4.0857	3.859746	0.000586	5.859271	0.992587	-0.011717
1593	7.9600e-01	4.0762	3.866588	-0.000068	-0.684294	-0.115923	0.001368
1594	7.9650e-01	4.0674	3.824253	0.000423	4.234072	0.717271	-0.008467
1595	7.9700e-01	4.0570	3.789615	0.000346	3.464240	0.586858	-0.006928
1596	7.9750e-01	4.0452	3.745997	0.000436	4.362377	0.739007	-0.008724
1597	7.9800e-01	4.0356	3.725044	0.000210	2.095652	0.355013	-0.004191
1598	7.9850e-01	4.0236	3.686130	0.000389	3.891924	0.659310	-0.007783
1599	7.9900e-01	4.0155	3.645933	0.000402	4.020230	0.681045	-0.008039
1600	7.9950e-01	4.0073	3.623697	0.000222	2.223957	0.376748	-0.004447
1601	8.0000e-01	3.9951	3.585638	0.000381	3.806388	0.644820	-0.007612
1602	8.0050e-01	3.9859	3.550573	0.000351	3.507009	0.594103	-0.007013
1603	8.0100e-01	3.9758	3.524915	0.000257	2.566104	0.434710	-0.005132
1604	8.0150e-01	3.9631	3.491988	0.000329	3.293167	0.557878	-0.006585
1605	8.0200e-01	3.9548	3.453929	0.000381	3.806388	0.644820	-0.007612
1606	8.0250e-01	3.9426	3.421430	0.000325	3.250398	0.550632	-0.006500
1607	8.0300e-01	3.9337	3.378240	0.000432	4.319608	0.731761	-0.008638
1608	8.0350e-01	3.9272	3.348734	0.000295	2.951020	0.499916	-0.005901
1609	8.0400e-01	3.9160	3.309820	0.000389	3.891924	0.659310	-0.007783
1610	8.0450e-01	3.9044	3.296563	0.000133	1.325820	0.224600	-0.002651
1611	8.0500e-01	3.8950	3.248242	0.000483	4.832829	0.818703	-0.009664
1612	8.0550e-01	3.8846	3.196499	0.000517	5.174976	0.876665	-0.010349
1613	8.0600e-01	3.8759	3.155447	0.000411	4.105766	0.695536	-0.008210
1614	8.0650e-01	3.8660	3.152454	0.000030	0.299379	0.050716	-0.000599
1615	8.0700e-01	3.8586	3.129789	0.000227	2.266725	0.383994	-0.004533
1616	8.0750e-01	3.8454	3.064790	0.000650	6.500797	1.101265	-0.013000
1617	8.0800e-01	3.8368	3.060514	0.000043	0.427684	0.072452	-0.000855
1618	8.0850e-01	3.8241	3.030153	0.000304	3.036556	0.514407	-0.006072
1619	8.0900e-01	3.8173	2.988245	0.000419	4.191303	0.710026	-0.008381
1620	8.0950e-01	3.8054	2.958312	0.000299	2.993788	0.507161	-0.005987
1621	8.1000e-01	3.7961	2.900155	0.000582	5.816503	0.985342	-0.011631
1622	8.1050e-01	3.7857	2.878346	0.000218	2.181188	0.369503	-0.004362
1623	8.1100e-01	3.7752	2.853116	0.000252	2.523336	0.427465	-0.005046
1624	8.1150e-01	3.7671	2.806505	0.000466	4.661756	0.789723	-0.009322
1625	8.1200e-01	3.7567	2.771012	0.000355	3.549777	0.601349	-0.007099
1626	8.1250e-01	3.7457	2.758611	0.000124	1.240284	0.210110	-0.002480
1627	8.1300e-01	3.7360	2.706013	0.000526	5.260513	0.891155	-0.010520
1628	8.1350e-01	3.7244	2.681638	0.000244	2.437799	0.412974	-0.004875
1629	8.1400e-01	3.7158	2.658974	0.000227	2.266725	0.383994	-0.004533
1630	8.1450e-01	3.7073	2.608514	0.000505	5.046671	0.854929	-0.010092
1631	8.1500e-01	3.6961	2.587561	0.000210	2.095652	0.355013	-0.004191
1632	8.1550e-01	3.6862	2.533680	0.000539	5.388819	0.912891	-0.010776
1633	8.1600e-01	3.6757	2.494338	0.000393	3.934693	0.666555	-0.007868
1634	8.1650e-01	3.6629	2.469964	0.000244	2.437799	0.412974	-0.004875
1635	8.1700e-01	3.6551	2.448582	0.000214	2.138420	0.362258	-0.004276
1636	8.1750e-01	3.6456	2.401971	0.000466	4.661756	0.789723	-0.009322
1637	8.1800e-01	3.6365	2.354077	0.000479	4.790061	0.811458	-0.009579
1638	8.1850e-01	3.6269	2.343387	0.000107	1.069210	0.181129	-0.002138
1639	8.1900e-01	3.6164	2.312597	0.000308	3.079325	0.521652	-0.006158
1640	8.1950e-01	3.6035	2.270263	0.000423	4.234072	0.717271	-0.008467
1641	8.2000e-01	3.5944	2.218092	0.000522	5.217745	0.883910	-0.010434
1642	8.2050e-01	3.5859	2.192862	0.000252	2.523336	0.427465	-0.005046
1643	8.2100e-01	3.5738	2.162501	0.000304	3.036556	0.514407	-0.006072
1644	8.2150e-01	3.5669	2.129146	0.000334	3.335935	0.565123	-0.006671
1645	8.2200e-01	3.5539	2.092370	0.000368	3.678082	0.623084	-0.007355
1646	8.2250e-01	3.5461	2.062864	0.000295	2.951020	0.499916	-0.005901
1647	8.2300e-01	3.5365	2.022668	0.000402	4.020230	0.681045	-0.008039
1648	8.2350e-01	3.5210	2.003424	0.000192	1.924578	0.326032	-0.003849
1649	8.2400e-01	3.5153	1.970497	0.000329	3.293167	0.557878	-0.006585
1650	8.2450e-01	3.5071	1.909774	0.000607	6.073113	1.028813	-0.012145
1651	8.2500e-01	3.4949	1.888393	0.000214	2.138420	0.362258	-0.004276
1652	8.2550e-01	3.4836	1.859742	0.000287	2.865483	0.485426	-0.005730
1653	8.2600e-01	3.4763	1.813986	0.000458	4.576219	0.775232	-0.009151
1654	8.2650e-01	3.4652	1.792605	0.000214	2.138420	0.362258	-0.004276
1655	8.2700e-01	3.4558	1.760533	0.000321	3.207630	0.543387	-0.006414
1656	8.2750e-01	3.4448	1.710073	0.000505	5.046671	0.854929	-0.010092
1657	8.2800e-01	3.4338	1.699383	0.000107	1.069210	0.181129	-0.002138
1658	8.2850e-01	3.4264	1.642509	0.000569	5.688197	0.963607	-0.011375
1659	8.2900e-01	3.4146	1.585635	0.000569	5.688197	0.963607	-0.011375
1660	8.2950e-01	3.4058	1.575799	0.000098	0.983673	0.166639	-0.001967
1661	8.3000e-01	3.3943	1.513366	0.000624	6.244187	1.057794	-0.012487
1662	8.3050e-01	3.3856	1.494978	0.000184	1.839041	0.311542	-0.003678
1663	8.3100e-01	3.3750	1.472741	0.000222	2.223957	0.376748	-0.004447
1664	8.3150e-01	3.3655	1.435110	0.000376	3.763619	0.637574	-0.007526
1665	8.3200e-01	3.3528	1.387216	0.000479	4.790061	0.811458	-0.009579
1666	8.3250e-01	3.3449	1.358138	0.000291	2.908251	0.492671	-0.005816
1667	8.3300e-01	3.3369	1.311099	0.000470	4.704524	0.796968	-0.009408
1668	8.3350e-01	3.3264	1.289290	0.000218	2.181188	0.369503	-0.004362
1669	8.3400e-01	3.3160	1.271330	0.000180	1.796273	0.304297	-0.003592
1670	8.3450e-01	3.3057	1.215739	0.000556	5.559892	0.941871	-0.011118
1671	8.3500e-01	3.2950	1.174687	0.000411	4.105766	0.695536	-0.008210
1672	8.3550e-01	3.2855	1.165706	0.000090	0.898136	0.152148	-0.001796
1673	8.3600e-01	3.2758	1.126365	0.000393	3.934693	0.666555	-0.007868
1674	8.3650e-01	3.2680	1.076760	0.000496	4.961134	0.840439	-0.009921
1675	8.3700e-01	3.2550	1.047682	0.000291	2.908251	0.492671	-0.005816
1676	8.3750e-01	3.2452	1.001498	0.000462	4.618987	0.782478	-0.009237
1677	8.3800e-01	3.2332	0.971992	0.000295	2.951020	0.499916	-0.005901
1678	8.3850e-01	3.2272	0.924098	0.000479	4.790061	0.811458	-0.009579
1679	8.3900e-01	3.2141	0.906993	0.000171	1.710736	0.289807	-0.003421
1680	8.3950e-01	3.2074	0.868935	0.000381	3.806388	0.644820	-0.007612
1681	8.4000e-01	3.1958	0.835152	0.000338	3.378704	0.572368	-0.006756
1682	8.4050e-01	3.1866	0.784265	0.000509	5.089440	0.862174	-0.010177
1683	8.4100e-01	3.1734	0.749199	0.000351	3.507009	0.594103	-0.007013
1684	8.4150e-01	3.1659	0.716700	0.000325	3.250398	0.550632	-0.006500
1685	8.4200e-01	3.1582	0.679497	0.000372	3.720851	0.630329	-0.007441
1686	8.4250e-01	3.1439	0.659398	0.000201	2.010115	0.340523	-0.004020
1687	8.4300e-01	3.1363	0.610221	0.000492	4.918366	0.833194	-0.009835
1688	8.4350e-01	3.1268	0.570880	0.000393	3.934693	0.666555	-0.007868
1689	8.4400e-01	3.1134	0.543084	0.000278	2.779946	0.470936	-0.005559
1690	8.4450e-01	3.1046	0.504170	0.000389	3.891924	0.659310	-0.007783
1691	8.4500e-01	3.0946	0.457559	0.000466	4.661756	0.789723	-0.009322
1692	8.4550e-01	3.0885	0.439599	0.000180	1.796273	0.304297	-0.003592
1693	8.4600e-01	3.0762	0.383152	0.000565	5.645429	0.956362	-0.011289
1694	8.4650e-01	3.0649	0.369041	0.000141	1.411357	0.239090	-0.002822
1695	8.4700e-01	3.0563	0.306607	0.000624	6.244187	1.057794	-0.012487
1696	8.4750e-01	3.0463	0.280950	0.000257	2.566104	0.434710	-0.005132
1697	8.4800e-01	3.0338	0.264272	0.000167	1.667968	0.282561	-0.003335
1698	8.4850e-01	3.0286	0.208681	0.000556	5.559892	0.941871	-0.011118
1699	8.4900e-01	3.0133	0.193714	0.000150	1.496894	0.253581	-0.002993
1700	8.4950e-01	3.0032	0.156938	0.000368	3.678082	0.623084	-0.007355
1701	8.5000e-01	2.9955	0.111183	0.000458	4.576219	0.775232	-0.009151
1702	8.5050e-01	2.9834	0.074407	0.000368	3.678082	0.623084	-0.007355
1703	8.5100e-01	2.9743	0.005987	0.000684	6.842944	1.159226	-0.013684
1704	8.5150e-01	2.9630	0.011974	-0.000060	-0.598758	-0.101432	0.001197
1705	8.5200e-01	2.9550	-0.060295	0.000723	7.227860	1.224433	-0.014454
1706	8.5250e-01	2.9464	-0.082532	0.000222	2.223957	0.376748	-0.004447
1707	8.5300e-01	2.9348	-0.099637	0.000171	1.710736	0.289807	-0.003421
1708	8.5350e-01	2.9263	-0.167201	0.000676	6.757407	1.144736	-0.013513
1709	8.5400e-01	2.9148	-0.187300	0.000201	2.010115	0.340523	-0.004020
1710	8.5450e-01	2.9091	-0.220655	0.000334	3.335935	0.565123	-0.006671
1711	8.5500e-01	2.8957	-0.244602	0.000240	2.395030	0.405729	-0.004789
1712	8.5550e-01	2.8854	-0.300193	0.000556	5.559892	0.941871	-0.011118
1713	8.5600e-01	2.8758	-0.324140	0.000240	2.395030	0.405729	-0.004789
1714	8.5650e-01	2.8671	-0.381014	0.000569	5.688197	0.963607	-0.011375
1715	8.5700e-01	2.8540	-0.414797	0.000338	3.378704	0.572368	-0.006756
1716	8.5750e-01	2.8458	-0.438744	0.000240	2.395030	0.405729	-0.004789
1717	8.5800e-01	2.8351	-0.481506	0.000428	4.276840	0.724516	-0.008553
1718	8.5850e-01	2.8247	-0.508446	0.000269	2.694409	0.456445	-0.005388
1719	8.5900e-01	2.8165	-0.568314	0.000599	5.987576	1.014323	-0.011974
1720	8.5950e-01	2.8062	-0.601669	0.000334	3.335935	0.565123	-0.006671
1721	8.6000e-01	2.7960	-0.647425	0.000458	4.576219	0.775232	-0.009151
1722	8.6050e-01	2.7841	-0.681635	0.000342	3.421472	0.579613	-0.006842
1723	8.6100e-01	2.7750	-0.703016	0.000214	2.138420	0.362258	-0.004276
1724	8.6150e-01	2.7667	-0.739364	0.000364	3.635314	0.615839	-0.007270
1725	8.6200e-01	2.7562	-0.778706	0.000393	3.934693	0.666555	-0.007868
1726	8.6250e-01	2.7438	-0.805646	0.000269	2.694409	0.456445	-0.005388
1727	8.6300e-01	2.7338	-0.844560	0.000389	3.891924	0.659310	-0.007783
1728	8.6350e-01	2.7264	-0.905283	0.000607	6.073113	1.028813	-0.012145
1729	8.6400e-01	2.7158	-0.940348	0.000351	3.507009	0.594103	-0.007013
1730	8.6450e-01	2.7039	-0.974986	0.000346	3.464240	0.586858	-0.006928
1731	8.6500e-01	2.6924	-1.025445	0.000505	5.046671	0.854929	-0.010092
1732	8.6550e-01	2.6844	-1.047682	0.000222	2.223957	0.376748	-0.004447
1733	8.6600e-01	2.6749	-1.081464	0.000338	3.378704	0.572368	-0.006756
1734	8.6650e-01	2.6649	-1.115674	0.000342	3.421472	0.579613	-0.006842
1735	8.6700e-01	2.6549	-1.148174	0.000325	3.250398	0.550632	-0.006500
1736	8.6750e-01	2.6445	-1.190081	0.000419	4.191303	0.710026	-0.008381
1737	8.6800e-01	2.6370	-1.216594	0.000265	2.651641	0.449200	-0.005303
1738	8.6850e-01	2.6263	-1.267054	0.000505	5.046671	0.854929	-0.010092
1739	8.6900e-01	2.6154	-1.305968	0.000389	3.891924	0.659310	-0.007783
1740	8.6950e-01	2.6094	-1.359848	0.000539	5.388819	0.912891	-0.010776
1741	8.7000e-01	2.5965	-1.383368	0.000235	2.352262	0.398484	-0.004704
1742	8.7050e-01	2.5826	-1.440670	0.000573	5.730966	0.970852	-0.011460
1743	8.7100e-01	2.5764	-1.463761	0.000231	2.309494	0.391239	-0.004618
1744	8.7150e-01	2.5642	-1.497544	0.000338	3.378704	0.572368	-0.006756
1745	8.7200e-01	2.5560	-1.539023	0.000415	4.148535	0.702781	-0.008296
1746	8.7250e-01	2.5430	-1.557411	0.000184	1.839041	0.311542	-0.003678
1747	8.7300e-01	2.5343	-1.642509	0.000851	8.510912	1.441787	-0.017019
1748	8.7350e-01	2.5272	-1.651489	0.000090	0.898136	0.152148	-0.001796
1749	8.7400e-01	2.5134	-1.666883	0.000154	1.539662	0.260826	-0.003079
1750	8.7450e-01	2.5049	-1.713494	0.000466	4.661756	0.789723	-0.009322
1751	8.7500e-01	2.4953	-1.748132	0.000346	3.464240	0.586858	-0.006928
1752	8.7550e-01	2.4855	-1.814414	0.000663	6.629102	1.123000	-0.013256
1753	8.7600e-01	2.4746	-1.828098	0.000137	1.368589	0.231845	-0.002737
1754	8.7650e-01	2.4658	-1.897801	0.000697	6.971249	1.180962	-0.013941
1755	8.7700e-01	2.4557	-1.910202	0.000124	1.240284	0.210110	-0.002480
1756	8.7750e-01	2.4438	-1.952537	0.000423	4.234072	0.717271	-0.008467
1757	8.7800e-01	2.4344	-1.985464	0.000329	3.293167	0.557878	-0.006585
1758	8.7850e-01	2.4260	-2.034641	0.000492	4.918366	0.833194	-0.009835
1759	8.7900e-01	2.4158	-2.073555	0.000389	3.891924	0.659310	-0.007783
1760	8.7950e-01	2.4069	-2.099212	0.000257	2.566104	0.434710	-0.005132
1761	8.8000e-01	2.3944	-2.149672	0.000505	5.046671	0.854929	-0.010092
1762	8.8050e-01	2.3859	-2.189869	0.000402	4.020230	0.681045	-0.008039
1763	8.8100e-01	2.3731	-2.209112	0.000192	1.924578	0.326032	-0.003849
1764	8.8150e-01	2.3645	-2.257861	0.000488	4.875598	0.825949	-0.009750
1765	8.8200e-01	2.3564	-2.303190	0.000453	4.533450	0.767987	-0.009066
1766	8.8250e-01	2.3450	-2.313880	0.000107	1.069210	0.181129	-0.002138
1767	8.8300e-01	2.3346	-2.388715	0.000748	7.484470	1.267904	-0.014967
1768	8.8350e-01	2.3248	-2.424208	0.000355	3.549777	0.601349	-0.007099
1769	8.8400e-01	2.3157	-2.443878	0.000197	1.967346	0.333278	-0.003934
1770	8.8450e-01	2.3050	-2.498614	0.000547	5.474355	0.927381	-0.010947
1771	8.8500e-01	2.2957	-2.534963	0.000364	3.635314	0.615839	-0.007270
1772	8.8550e-01	2.2852	-2.558910	0.000240	2.395030	0.405729	-0.004789
1773	8.8600e-01	2.2742	-2.603383	0.000445	4.447914	0.753497	-0.008895
1774	8.8650e-01	2.2649	-2.684631	0.000813	8.125996	1.376581	-0.016250
1775	8.8700e-01	2.2551	-2.700454	0.000158	1.582431	0.268071	-0.003164
1776	8.8750e-01	2.2449	-2.727822	0.000274	2.737178	0.463690	-0.005474
1777	8.8800e-01	2.2359	-2.790683	0.000629	6.286955	1.065039	-0.012572
1778	8.8850e-01	2.2272	-2.799663	0.000090	0.898136	0.152148	-0.001796
1779	8.8900e-01	2.2174	-2.840287	0.000406	4.062998	0.688291	-0.008125
1780	8.8950e-01	2.2064	-2.896734	0.000565	5.645429	0.956362	-0.011289
1781	8.9000e-01	2.1968	-2.904431	0.000077	0.769831	0.130413	-0.001539
1782	8.9050e-01	2.1861	-2.963871	0.000594	5.944808	1.007078	-0.011888
1783	8.9100e-01	2.1716	-2.998081	0.000342	3.421472	0.579613	-0.006842
1784	8.9150e-01	2.1631	-3.051962	0.000539	5.388819	0.912891	-0.010776
1785	8.9200e-01	2.1555	-3.085316	0.000334	3.335935	0.565123	-0.006671
1786	8.9250e-01	2.1452	-3.125941	0.000406	4.062998	0.688291	-0.008125
1787	8.9300e-01	2.1356	-3.156730	0.000308	3.079325	0.521652	-0.006158
1788	8.9350e-01	2.1243	-3.186236	0.000295	2.951020	0.499916	-0.005901
1789	8.9400e-01	2.1138	-3.255084	0.000689	6.885713	1.166471	-0.013770
1790	8.9450e-01	2.1033	-3.301695	0.000466	4.661756	0.789723	-0.009322
1791	8.9500e-01	2.0954	-3.346168	0.000445	4.447914	0.753497	-0.008895
1792	8.9550e-01	2.0871	-3.361562	0.000154	1.539662	0.260826	-0.003079
1793	8.9600e-01	2.0757	-3.406463	0.000449	4.490682	0.760742	-0.008980
1794	8.9650e-01	2.0618	-3.449653	0.000432	4.319608	0.731761	-0.008638
1795	8.9700e-01	2.0551	-3.486001	0.000364	3.635314	0.615839	-0.007270
1796	8.9750e-01	2.0464	-3.525343	0.000393	3.934693	0.666555	-0.007868
1797	8.9800e-01	2.0340	-3.557842	0.000325	3.250398	0.550632	-0.006500
1798	8.9850e-01	2.0246	-3.606592	0.000488	4.875598	0.825949	-0.009750
1799	8.9900e-01	2.0161	-3.666031	0.000594	5.944808	1.007078	-0.011888
1800	8.9950e-01	2.0045	-3.677577	0.000115	1.154747	0.195619	-0.002309
1801	9.0000e-01	1.9952	-3.725471	0.000479	4.790061	0.811458	-0.009579
1802	9.0050e-01	1.9846	-3.762675	0.000372	3.720851	0.630329	-0.007441
1803	9.0100e-01	1.9768	-3.807575	0.000449	4.490682	0.760742	-0.008980
1804	9.0150e-01	1.9653	-3.836226	0.000287	2.865483	0.485426	-0.005730
1805	9.0200e-01	1.9547	-3.902936	0.000667	6.671871	1.130245	-0.013342
1806	9.0250e-01	1.9456	-3.938001	0.000351	3.507009	0.594103	-0.007013
1807	9.0300e-01	1.9342	-3.956389	0.000184	1.839041	0.311542	-0.003678
1808	9.0350e-01	1.9272	-4.025664	0.000693	6.928481	1.173716	-0.013855
1809	9.0400e-01	1.9177	-4.056026	0.000304	3.036556	0.514407	-0.006072
1810	9.0450e-01	1.9069	-4.097933	0.000419	4.191303	0.710026	-0.008381
1811	9.0500e-01	1.8939	-4.129150	0.000312	3.122093	0.528897	-0.006243
1812	9.0550e-01	1.8819	-4.166781	0.000376	3.763619	0.637574	-0.007526
1813	9.0600e-01	1.8754	-4.202701	0.000359	3.592546	0.608594	-0.007184
1814	9.0650e-01	1.8640	-4.274115	0.000714	7.142323	1.209942	-0.014283
1815	9.0700e-01	1.8547	-4.297634	0.000235	2.352262	0.398484	-0.004704
1816	9.0750e-01	1.8466	-4.355791	0.000582	5.816503	0.985342	-0.011631
1817	9.0800e-01	1.8380	-4.372041	0.000163	1.625199	0.275316	-0.003250
1818	9.0850e-01	1.8246	-4.423356	0.000513	5.132208	0.869420	-0.010263
1819	9.0900e-01	1.8152	-4.471250	0.000479	4.790061	0.811458	-0.009579
1820	9.0950e-01	1.8047	-4.494769	0.000235	2.352262	0.398484	-0.004704
1821	9.1000e-01	1.7952	-4.543519	0.000488	4.875598	0.825949	-0.009750
1822	9.1050e-01	1.7827	-4.580722	0.000372	3.720851	0.630329	-0.007441
1823	9.1100e-01	1.7728	-4.627333	0.000466	4.661756	0.789723	-0.009322
1824	9.1150e-01	1.7645	-4.678648	0.000513	5.132208	0.869420	-0.010263
1825	9.1200e-01	1.7552	-4.702168	0.000235	2.352262	0.398484	-0.004704
1826	9.1250e-01	1.7470	-4.751772	0.000496	4.961134	0.840439	-0.009921
1827	9.1300e-01	1.7383	-4.791969	0.000402	4.020230	0.681045	-0.008039
1828	9.1350e-01	1.7254	-4.815916	0.000240	2.395030	0.405729	-0.004789
1829	9.1400e-01	1.7136	-4.868941	0.000530	5.303282	0.898400	-0.010605
1830	9.1450e-01	1.7045	-4.937361	0.000684	6.842944	1.159226	-0.013684
1831	9.1500e-01	1.6942	-4.950618	0.000133	1.325820	0.224600	-0.002651
1832	9.1550e-01	1.6844	-5.001933	0.000513	5.132208	0.869420	-0.010263
1833	9.1600e-01	1.6759	-5.023314	0.000214	2.138420	0.362258	-0.004276
1834	9.1650e-01	1.6693	-5.094300	0.000710	7.099555	1.202697	-0.014197
1835	9.1700e-01	1.6551	-5.139201	0.000449	4.490682	0.760742	-0.008980
1836	9.1750e-01	1.6456	-5.146898	0.000077	0.769831	0.130413	-0.001539
1837	9.1800e-01	1.6358	-5.181963	0.000351	3.507009	0.594103	-0.007013
1838	9.1850e-01	1.6227	-5.254232	0.000723	7.227860	1.224433	-0.014454
1839	9.1900e-01	1.6141	-5.276468	0.000222	2.223957	0.376748	-0.004447
1840	9.1950e-01	1.6051	-5.321797	0.000453	4.533450	0.767987	-0.009066
1841	9.2000e-01	1.5971	-5.364559	0.000428	4.276840	0.724516	-0.008553
1842	9.2050e-01	1.5849	-5.409460	0.000449	4.490682	0.760742	-0.008980
1843	9.2100e-01	1.5750	-5.466334	0.000569	5.688197	0.963607	-0.011375
1844	9.2150e-01	1.5657	-5.493274	0.000269	2.694409	0.456445	-0.005388
1845	9.2200e-01	1.5556	-5.534754	0.000415	4.148535	0.702781	-0.008296
1846	9.2250e-01	1.5442	-5.542024	0.000073	0.727063	0.123168	-0.001454
1847	9.2300e-01	1.5366	-5.609588	0.000676	6.757407	1.144736	-0.013513
1848	9.2350e-01	1.5234	-5.661759	0.000522	5.217745	0.883910	-0.010434
1849	9.2400e-01	1.5162	-5.703238	0.000415	4.148535	0.702781	-0.008296
1850	9.2450e-01	1.5042	-5.738304	0.000351	3.507009	0.594103	-0.007013
1851	9.2500e-01	1.4961	-5.778073	0.000398	3.977461	0.673800	-0.007954
1852	9.2550e-01	1.4835	-5.840934	0.000629	6.286955	1.065039	-0.012572
1853	9.2600e-01	1.4740	-5.856756	0.000158	1.582431	0.268071	-0.003164
1854	9.2650e-01	1.4647	-5.922610	0.000659	6.586334	1.115755	-0.013171
1855	9.2700e-01	1.4548	-5.971787	0.000492	4.918366	0.833194	-0.009835
1856	9.2750e-01	1.4430	-5.999155	0.000274	2.737178	0.463690	-0.005474
1857	9.2800e-01	1.4365	-6.059878	0.000607	6.073113	1.028813	-0.012145
1858	9.2850e-01	1.4268	-6.092805	0.000329	3.293167	0.557878	-0.006585
1859	9.2900e-01	1.4174	-6.134285	0.000415	4.148535	0.702781	-0.008296
1860	9.2950e-01	1.4038	-6.185172	0.000509	5.089440	0.862174	-0.010177
1861	9.3000e-01	1.3931	-6.211685	0.000265	2.651641	0.449200	-0.005303
1862	9.3050e-01	1.3832	-6.249316	0.000376	3.763619	0.637574	-0.007526
1863	9.3100e-01	1.3749	-6.307900	0.000586	5.859271	0.992587	-0.011717
1864	9.3150e-01	1.3673	-6.345531	0.000376	3.763619	0.637574	-0.007526
1865	9.3200e-01	1.3527	-6.410530	0.000650	6.500797	1.101265	-0.013000
1866	9.3250e-01	1.3466	-6.425925	0.000154	1.539662	0.260826	-0.003079
1867	9.3300e-01	1.3343	-6.471253	0.000453	4.533450	0.767987	-0.009066
1868	9.3350e-01	1.3250	-6.530266	0.000590	5.902039	0.999833	-0.011802
1869	9.3400e-01	1.3160	-6.558061	0.000278	2.779946	0.470936	-0.005559
1870	9.3450e-01	1.3031	-6.612370	0.000543	5.431587	0.920136	-0.010862
1871	9.3500e-01	1.2949	-6.651711	0.000393	3.934693	0.666555	-0.007868
1872	9.3550e-01	1.2836	-6.703026	0.000513	5.132208	0.869420	-0.010263
1873	9.3600e-01	1.2743	-6.736381	0.000334	3.335935	0.565123	-0.006671
1874	9.3650e-01	1.2595	-6.779571	0.000432	4.319608	0.731761	-0.008638
1875	9.3700e-01	1.2539	-6.824472	0.000449	4.490682	0.760742	-0.008980
1876	9.3750e-01	1.2473	-6.859537	0.000351	3.507009	0.594103	-0.007013
1877	9.3800e-01	1.2351	-6.903582	0.000441	4.405145	0.746252	-0.008809
1878	9.3850e-01	1.2248	-6.943779	0.000402	4.020230	0.681045	-0.008039
1879	9.3900e-01	1.2159	-6.974568	0.000308	3.079325	0.521652	-0.006158
1880	9.3950e-01	1.2049	-7.056672	0.000821	8.211533	1.391071	-0.016421
1881	9.4000e-01	1.1969	-7.072922	0.000163	1.625199	0.275316	-0.003250
1882	9.4050e-01	1.1871	-7.125520	0.000526	5.260513	0.891155	-0.010520
1883	9.4100e-01	1.1757	-7.170421	0.000449	4.490682	0.760742	-0.008980
1884	9.4150e-01	1.1650	-7.196506	0.000261	2.608872	0.441955	-0.005217
1885	9.4200e-01	1.1549	-7.259794	0.000633	6.329723	1.072284	-0.012658
1886	9.4250e-01	1.1466	-7.295715	0.000359	3.592546	0.608594	-0.007184
1887	9.4300e-01	1.1375	-7.342754	0.000470	4.704524	0.796968	-0.009408
1888	9.4350e-01	1.1244	-7.391075	0.000483	4.832829	0.818703	-0.009664
1889	9.4400e-01	1.1153	-7.430417	0.000393	3.934693	0.666555	-0.007868
1890	9.4450e-01	1.1089	-7.475745	0.000453	4.533450	0.767987	-0.009066
1891	9.4500e-01	1.0960	-7.517652	0.000419	4.191303	0.710026	-0.008381
1892	9.4550e-01	1.0886	-7.556139	0.000385	3.849156	0.652065	-0.007697
1893	9.4600e-01	1.0752	-7.602322	0.000462	4.618987	0.782478	-0.009237
1894	9.4650e-01	1.0651	-7.656203	0.000539	5.388819	0.912891	-0.010776
1895	9.4700e-01	1.0576	-7.701959	0.000458	4.576219	0.775232	-0.009151
1896	9.4750e-01	1.0415	-7.733603	0.000316	3.164862	0.536142	-0.006329
1897	9.4800e-01	1.0348	-7.801168	0.000676	6.757407	1.144736	-0.013513
1898	9.4850e-01	1.0254	-7.816990	0.000158	1.582431	0.268071	-0.003164
1899	9.4900e-01	1.0160	-7.867877	0.000509	5.089440	0.862174	-0.010177
1900	9.4950e-01	1.0062	-7.924752	0.000569	5.688197	0.963607	-0.011375
1901	9.5000e-01	0.9973	-7.958106	0.000334	3.335935	0.565123	-0.006671
1902	9.5050e-01	0.9839	-7.997876	0.000398	3.977461	0.673800	-0.007954
1903	9.5100e-01	0.9760	-8.043204	0.000453	4.533450	0.767987	-0.009066
1904	9.5150e-01	0.9637	-8.111624	0.000684	6.842944	1.159226	-0.013684
1905	9.5200e-01	0.9541	-8.154814	0.000432	4.319608	0.731761	-0.008638
1906	9.5250e-01	0.9470	-8.193300	0.000385	3.849156	0.652065	-0.007697
1907	9.5300e-01	0.9317	-8.207840	0.000145	1.454126	0.246336	-0.002908
1908	9.5350e-01	0.9245	-8.271556	0.000637	6.372492	1.079529	-0.012743
1909	9.5400e-01	0.9132	-8.308759	0.000372	3.720851	0.630329	-0.007441
1910	9.5450e-01	0.9052	-8.350666	0.000419	4.191303	0.710026	-0.008381
1911	9.5500e-01	0.8939	-8.422935	0.000723	7.227860	1.224433	-0.014454
1912	9.5550e-01	0.8836	-8.458428	0.000355	3.549777	0.601349	-0.007099
1913	9.5600e-01	0.8756	-8.494348	0.000359	3.592546	0.608594	-0.007184
1914	9.5650e-01	0.8647	-8.518723	0.000244	2.437799	0.412974	-0.004875
1915	9.5700e-01	0.8525	-8.581156	0.000624	6.244187	1.057794	-0.012487
1916	9.5750e-01	0.8472	-8.631616	0.000505	5.046671	0.854929	-0.010092
1917	9.5800e-01	0.8359	-8.667964	0.000364	3.635314	0.615839	-0.007270
1918	9.5850e-01	0.8240	-8.723128	0.000552	5.517124	0.934626	-0.011033
1919	9.5900e-01	0.8148	-8.756055	0.000329	3.293167	0.557878	-0.006585
1920	9.5950e-01	0.8053	-8.812502	0.000565	5.645429	0.956362	-0.011289
1921	9.6000e-01	0.7961	-8.864244	0.000517	5.174976	0.876665	-0.010349
1922	9.6050e-01	0.7849	-8.909145	0.000449	4.490682	0.760742	-0.008980
1923	9.6100e-01	0.7768	-8.954473	0.000453	4.533450	0.767987	-0.009066
1924	9.6150e-01	0.7649	-8.990821	0.000364	3.635314	0.615839	-0.007270
1925	9.6200e-01	0.7550	-9.022893	0.000321	3.207630	0.543387	-0.006414
1926	9.6250e-01	0.7441	-9.074208	0.000513	5.132208	0.869420	-0.010263
1927	9.6300e-01	0.7329	-9.148615	0.000744	7.441702	1.260658	-0.014881
1928	9.6350e-01	0.7269	-9.190095	0.000415	4.148535	0.702781	-0.008296
1929	9.6400e-01	0.7184	-9.231147	0.000411	4.105766	0.695536	-0.008210
1930	9.6450e-01	0.7062	-9.257232	0.000261	2.608872	0.441955	-0.005217
1931	9.6500e-01	0.6950	-9.332494	0.000753	7.527239	1.275149	-0.015052
1932	9.6550e-01	0.6866	-9.366704	0.000342	3.421472	0.579613	-0.006842
1933	9.6600e-01	0.6712	-9.399204	0.000325	3.250398	0.550632	-0.006500
1934	9.6650e-01	0.6667	-9.435124	0.000359	3.592546	0.608594	-0.007184
1935	9.6700e-01	0.6545	-9.493709	0.000586	5.859271	0.992587	-0.011717
1936	9.6750e-01	0.6448	-9.529629	0.000359	3.592546	0.608594	-0.007184
1937	9.6800e-01	0.6368	-9.587786	0.000582	5.816503	0.985342	-0.011631
1938	9.6850e-01	0.6250	-9.651075	0.000633	6.329723	1.072284	-0.012658
1939	9.6900e-01	0.6145	-9.684857	0.000338	3.378704	0.572368	-0.006756
1940	9.6950e-01	0.6043	-9.737028	0.000522	5.217745	0.883910	-0.010434
1941	9.7000e-01	0.5985	-9.764396	0.000274	2.737178	0.463690	-0.005474
1942	9.7050e-01	0.5865	-9.833671	0.000693	6.928481	1.173716	-0.013855
1943	9.7100e-01	0.5761	-9.878999	0.000453	4.533450	0.767987	-0.009066
1944	9.7150e-01	0.5652	-9.937584	0.000586	5.859271	0.992587	-0.011717
1945	9.7200e-01	0.5573	-9.968373	0.000308	3.079325	0.521652	-0.006158
1946	9.7250e-01	0.5461	-10.000017	0.000316	3.164862	0.536142	-0.006329
1947	9.7300e-01	0.5353	-10.061167	0.000612	6.115881	1.036058	-0.012230
1948	9.7350e-01	0.5251	-10.110772	0.000496	4.961134	0.840439	-0.009921
1949	9.7400e-01	0.5138	-10.153535	0.000428	4.276840	0.724516	-0.008553
1950	9.7450e-01	0.5054	-10.189027	0.000355	3.549777	0.601349	-0.007099
1951	9.7500e-01	0.4981	-10.240770	0.000517	5.174976	0.876665	-0.010349
1952	9.7550e-01	0.4879	-10.289947	0.000492	4.918366	0.833194	-0.009835
1953	9.7600e-01	0.4739	-10.335703	0.000458	4.576219	0.775232	-0.009151
1954	9.7650e-01	0.4642	-10.373762	0.000381	3.806388	0.644820	-0.007612
1955	9.7700e-01	0.4552	-10.431491	0.000577	5.773734	0.978097	-0.011546
1956	9.7750e-01	0.4436	-10.474253	0.000428	4.276840	0.724516	-0.008553
1957	9.7800e-01	0.4357	-10.531128	0.000569	5.688197	0.963607	-0.011375
1958	9.7850e-01	0.4237	-10.569614	0.000385	3.849156	0.652065	-0.007697
1959	9.7900e-01	0.4159	-10.620074	0.000505	5.046671	0.854929	-0.010092
1960	9.7950e-01	0.4036	-10.650863	0.000308	3.079325	0.521652	-0.006158
1961	9.8000e-01	0.3976	-10.715007	0.000642	6.415260	1.086774	-0.012829
1962	9.8050e-01	0.3828	-10.767604	0.000526	5.260513	0.891155	-0.010520
1963	9.8100e-01	0.3744	-10.784709	0.000171	1.710736	0.289807	-0.003421
1964	9.8150e-01	0.3647	-10.870234	0.000855	8.553680	1.449033	-0.017105
1965	9.8200e-01	0.3560	-10.920267	0.000500	5.003903	0.847684	-0.010006
1966	9.8250e-01	0.3438	-10.953194	0.000329	3.293167	0.557878	-0.006585
1967	9.8300e-01	0.3353	-10.972865	0.000197	1.967346	0.333278	-0.003934
1968	9.8350e-01	0.3253	-11.050265	0.000774	7.741081	1.311375	-0.015480
1969	9.8400e-01	0.3154	-11.088323	0.000381	3.806388	0.644820	-0.007612
1970	9.8450e-01	0.3030	-11.118257	0.000299	2.993788	0.507161	-0.005987
1971	9.8500e-01	0.2962	-11.197795	0.000795	7.954923	1.347600	-0.015908
1972	9.8550e-01	0.2857	-11.223881	0.000261	2.608872	0.441955	-0.005217
1973	9.8600e-01	0.2732	-11.292728	0.000689	6.885713	1.166471	-0.013770
1974	9.8650e-01	0.2676	-11.343616	0.000509	5.089440	0.862174	-0.010177
1975	9.8700e-01	0.2573	-11.375260	0.000316	3.164862	0.536142	-0.006329
1976	9.8750e-01	0.2445	-11.427858	0.000526	5.260513	0.891155	-0.010520
1977	9.8800e-01	0.2361	-11.477890	0.000500	5.003903	0.847684	-0.010006
1978	9.8850e-01	0.2242	-11.518087	0.000402	4.020230	0.681045	-0.008039
1979	9.8900e-01	0.2150	-11.553152	0.000351	3.507009	0.594103	-0.007013
1980	9.8950e-01	0.2044	-11.628842	0.000757	7.570007	1.282394	-0.015138
1981	9.9000e-01	0.1956	-11.663052	0.000342	3.421472	0.579613	-0.006842
1982	9.9050e-01	0.1854	-11.714367	0.000513	5.132208	0.869420	-0.010263
1983	9.9100e-01	0.1737	-11.745156	0.000308	3.079325	0.521652	-0.006158
1984	9.9150e-01	0.1665	-11.820845	0.000757	7.570007	1.282394	-0.015138
1985	9.9200e-01	0.1588	-11.851634	0.000308	3.079325	0.521652	-0.006158
1986	9.9250e-01	0.1446	-11.913640	0.000620	6.201418	1.050549	-0.012401
1987	9.9300e-01	0.1350	-11.975646	0.000620	6.201418	1.050549	-0.012401
1988	9.9350e-01	0.1248	-12.013277	0.000376	3.763619	0.637574	-0.007526
1989	9.9400e-01	0.1155	-12.041500	0.000282	2.822714	0.478181	-0.005645
1990	9.9450e-01	0.1022	-12.108637	0.000671	6.714639	1.137491	-0.013427
1991	9.9500e-01	0.0916	-12.142847	0.000342	3.421472	0.579613	-0.006842
1992	9.9550e-01	0.0839	-12.216826	0.000740	7.398933	1.253413	-0.014796
1993	9.9600e-01	0.0742	-12.221958	0.000051	0.513221	0.086942	-0.001026
1994	9.9650e-01	0.0633	-12.295082	0.000731	7.313397	1.238923	-0.014625
1995	9.9700e-01	0.0539	-12.327154	0.000321	3.207630	0.543387	-0.006414
1996	9.9750e-01	0.0455	-12.396857	0.000697	6.971249	1.180962	-0.013941
1997	9.9800e-01	0.0359	-12.442613	0.000458	4.576219	0.775232	-0.009151
1998	9.9850e-01	0.0266	-12.489651	0.000470	4.704524	0.796968	-0.009408
1999	9.9900e-01	0.0152	-12.546098	0.000565	5.645429	0.956362	-0.011289
2000	9.9950e-01	0.0063	-12.585867	0.000398	3.977461	0.673800	-0.007954
2001	1.0000e+00	-0.0028	-12.622215	0.000398	3.977461	0.673800	-0.007270

PMax (uC/cm2):	3.70e+01
Pr (uC/cm2):	5.89e+00
-Pr (uC/cm2):	0.00e+00
PLoss (uC/cm2):	0.00e+00
C (Max-Eff) (nF):	3.70e-01
K (Eff):	6.27e+02
Vert. (+/-Pr) Shift (uC/cm2):	2.95e+00
Offset (uC/cm2):	1.85e+01

A (Loop Area - uC/cm2·Volts):	-5.54e-02



Hysteresis Version: 5.48.1 - Radiant Technologies, Inc., 1999 - 9/12/24

