»»»»»»»»»»»»»»»»»»»»»»»»»»»»»»»»»»»» Hysteresis ««««««««««««««««««««««««««««««««««««
»»»  Executed Version:	5.48.1
»»»  Vision Version:	5.48.4 (R)
»»»  Vision Compiled:	9/18/24
»»»  Driver Version:	5.47.0
»»»  Windows Version:	Windows 8 or 8.1
»»»  Processor Information:	x86 (AMD or Intel) - 32 Processors
»»»  Tester Name:	PMF21124-494 (100V)
»»»  Tester S/N:	PMF21124-494
»»»  Internal Amp Type:	100V RevK 270k
»»»  Internal Amp S/N:	iAB2-596/K     
»»»  Execution Count:	1
»»»»»»»»»»»»»»»»»»»»»»»»»»»»»»»»»»»»»»»»»»««««««««««««««««««««««««««««««««««««««««««

Stored:	6/30/2025 - 17:45:10
Configured:	06/30/25 10:19:58 AM
Executed:	06/30/25 05:44:44 PM

»»»»»»»»»»»»»»»»»»»»»»»»»»»»»»»»»»» Sample Info ««««««««««««««««««««««««««««««««««««
Sample Name:	
Lot Name:	
Wafer Name:	
Die Row/Column:	0/0
Capacitor Number:	0
Sample Area (cm2):	1.00e-04
Sample Thickness (microns):	1.50e-01

Amplifier:	Internal

»»»»»»»»»»»»»»»»»»»»»»»»»»»»»»»»»»» Tester Info «««««««««««««««««««««««««««««««««««
Tester Name:	PMF21124-494 (100V)
Tester Serial Number:	PMF21124-494
Return Signal Amp. Level:	1.79 [Index: 2]

»»»»»»»»»»»»»»»»»»»»»»»»»»»»»»»» Hysteresis Info ««««««««««««««««««««««««««««««««««
Task Name:	Hyst-1804
Volts:	10.00
Field:	666.67 (kV/cm)
DCBias:	0.00
DCField:	0.00 (kV/cm)
Hysteresis Period (ms):	1.00e+00
Preset:	Enabled
Preset Delay (ms):	1.00e+03
Profile:	Standard Monopolar

»»»»»»»»»»»»»»»»»»»»»»»»»»»»»»»»»»»»»» Data «««««««««««««««««««««««««««««««««««««««
Points:	2001

Valid Data

Point	Time (ms)	Drive Voltage	Measured Polarization (uC/cm2)	Capacitance (uF)	Normalized Capacitance (uF/cm2)	Dielectric Constant	Instantaneous Current (mA)
   1	0.0000e+00	-0.0035	-21.382547	0.000753	7.527296	1.275158	0.015052
   2	5.0000e-04	0.0043	-21.307285	0.000753	7.527296	1.275158	0.015052
   3	1.0000e-03	0.0137	-21.228174	0.000791	7.912215	1.340365	0.015822
   4	1.5000e-03	0.0245	-21.194391	0.000338	3.378729	0.572372	0.006756
   5	2.0000e-03	0.0338	-21.135807	0.000586	5.859316	0.992595	0.011717
   6	2.5000e-03	0.0442	-21.072946	0.000629	6.287003	1.065047	0.012572
   7	3.0000e-03	0.0585	-21.017355	0.000556	5.559935	0.941878	0.011118
   8	3.5000e-03	0.0683	-20.962619	0.000547	5.474397	0.927388	0.010947
   9	4.0000e-03	0.0779	-20.944658	0.000180	1.796287	0.304299	0.003592
  10	4.5000e-03	0.0890	-20.869396	0.000753	7.527296	1.275158	0.015052
  11	5.0000e-03	0.0975	-20.807391	0.000620	6.201465	1.050557	0.012401
  12	5.5000e-03	0.1077	-20.779595	0.000278	2.779967	0.470939	0.005559
  13	6.0000e-03	0.1147	-20.709037	0.000706	7.056840	1.195461	0.014112
  14	6.5000e-03	0.1257	-20.631209	0.000778	7.783908	1.318630	0.015566
  15	7.0000e-03	0.1341	-20.583315	0.000479	4.790097	0.811464	0.009579
  16	7.5000e-03	0.1471	-20.545684	0.000376	3.763648	0.637579	0.007526
  17	8.0000e-03	0.1560	-20.498218	0.000475	4.747329	0.804219	0.009493
  18	8.5000e-03	0.1654	-20.427232	0.000710	7.099609	1.202706	0.014197
  19	9.0000e-03	0.1746	-20.369075	0.000582	5.816547	0.985350	0.011631
  20	9.5000e-03	0.1842	-20.325029	0.000441	4.405179	0.746258	0.008809
  21	1.0000e-02	0.1993	-20.272859	0.000522	5.217785	0.883917	0.010434
  22	1.0500e-02	0.2053	-20.235228	0.000376	3.763648	0.637579	0.007526
  23	1.1000e-02	0.2144	-20.155690	0.000795	7.954983	1.347611	0.015908
  24	1.1500e-02	0.2264	-20.122335	0.000334	3.335961	0.565127	0.006671
  25	1.2000e-02	0.2403	-20.063750	0.000586	5.859316	0.992595	0.011717
  26	1.2500e-02	0.2446	-20.000462	0.000633	6.329772	1.072292	0.012658
  27	1.3000e-02	0.2560	-19.951712	0.000488	4.875635	0.825955	0.009750
  28	1.3500e-02	0.2649	-19.914937	0.000368	3.678111	0.623089	0.007355
  29	1.4000e-02	0.2755	-19.830694	0.000843	8.425439	1.427308	0.016848
  30	1.4500e-02	0.2853	-19.766978	0.000637	6.372540	1.079538	0.012743
  31	1.5000e-02	0.2969	-19.725071	0.000419	4.191335	0.710031	0.008381
  32	1.5500e-02	0.3058	-19.666914	0.000582	5.816547	0.985350	0.011631
  33	1.6000e-02	0.3170	-19.608757	0.000582	5.816547	0.985350	0.011631
  34	1.6500e-02	0.3236	-19.565139	0.000436	4.362410	0.739012	0.008724
  35	1.7000e-02	0.3344	-19.512114	0.000530	5.303322	0.898407	0.010605
  36	1.7500e-02	0.3466	-19.478331	0.000338	3.378729	0.572372	0.006756
  37	1.8000e-02	0.3558	-19.406063	0.000723	7.227915	1.224442	0.014454
  38	1.8500e-02	0.3684	-19.356030	0.000500	5.003941	0.847691	0.010006
  39	1.9000e-02	0.3763	-19.288893	0.000671	6.714690	1.137499	0.013427
  40	1.9500e-02	0.3851	-19.261525	0.000274	2.737199	0.463694	0.005474
  41	2.0000e-02	0.3949	-19.191395	0.000701	7.014071	1.188216	0.014026
  42	2.0500e-02	0.4053	-19.125968	0.000654	6.543615	1.108518	0.013085
  43	2.1000e-02	0.4163	-19.078502	0.000475	4.747329	0.804219	0.009493
  44	2.1500e-02	0.4266	-19.029752	0.000488	4.875635	0.825955	0.009750
  45	2.2000e-02	0.4343	-18.987417	0.000423	4.234104	0.717277	0.008467
  46	2.2500e-02	0.4459	-18.934820	0.000526	5.260553	0.891162	0.010520
  47	2.3000e-02	0.4583	-18.872814	0.000620	6.201465	1.050557	0.012401
  48	2.3500e-02	0.4672	-18.797979	0.000748	7.484527	1.267913	0.014967
  49	2.4000e-02	0.4759	-18.732980	0.000650	6.500847	1.101273	0.013000
  50	2.4500e-02	0.4848	-18.687652	0.000453	4.533485	0.767993	0.009066
  51	2.5000e-02	0.4974	-18.657718	0.000299	2.993811	0.507165	0.005987
  52	2.5500e-02	0.5076	-18.586305	0.000714	7.142377	1.209951	0.014283
  53	2.6000e-02	0.5175	-18.536273	0.000500	5.003941	0.847691	0.010006
  54	2.6500e-02	0.5269	-18.492655	0.000436	4.362410	0.739012	0.008724
  55	2.7000e-02	0.5345	-18.428939	0.000637	6.372540	1.079538	0.012743
  56	2.7500e-02	0.5438	-18.377624	0.000513	5.132247	0.869426	0.010263
  57	2.8000e-02	0.5557	-18.353249	0.000244	2.437817	0.412977	0.004875
  58	2.8500e-02	0.5652	-18.265158	0.000881	8.810358	1.492515	0.017618
  59	2.9000e-02	0.5752	-18.218547	0.000466	4.661791	0.789729	0.009322
  60	2.9500e-02	0.5872	-18.150982	0.000676	6.757459	1.144745	0.013513
  61	3.0000e-02	0.5938	-18.101806	0.000492	4.918404	0.833200	0.009835
  62	3.0500e-02	0.6052	-18.048780	0.000530	5.303322	0.898407	0.010605
  63	3.1000e-02	0.6146	-18.016280	0.000325	3.250423	0.550637	0.006500
  64	3.1500e-02	0.6250	-17.936742	0.000795	7.954983	1.347611	0.015908
  65	3.2000e-02	0.6341	-17.881578	0.000552	5.517166	0.934633	0.011033
  66	3.2500e-02	0.6454	-17.850362	0.000312	3.122117	0.528901	0.006243
  67	3.3000e-02	0.6556	-17.792632	0.000577	5.773778	0.978104	0.011546
  68	3.3500e-02	0.6665	-17.748159	0.000445	4.447948	0.753503	0.008895
  69	3.4000e-02	0.6763	-17.689147	0.000590	5.902084	0.999840	0.011802
  70	3.4500e-02	0.6862	-17.637404	0.000518	5.175016	0.876671	0.010349
  71	3.5000e-02	0.6976	-17.560004	0.000774	7.741140	1.311385	0.015480
  72	3.5500e-02	0.7078	-17.513821	0.000462	4.619023	0.782484	0.009237
  73	3.6000e-02	0.7169	-17.476617	0.000372	3.720879	0.630334	0.007441
  74	3.6500e-02	0.7269	-17.419743	0.000569	5.688241	0.963614	0.011375
  75	3.7000e-02	0.7391	-17.350040	0.000697	6.971303	1.180971	0.013941
  76	3.7500e-02	0.7461	-17.294877	0.000552	5.517166	0.934633	0.011033
  77	3.8000e-02	0.7556	-17.249121	0.000458	4.576254	0.775238	0.009151
  78	3.8500e-02	0.7640	-17.189681	0.000594	5.944853	1.007085	0.011888
  79	3.9000e-02	0.7748	-17.134945	0.000547	5.474397	0.927388	0.010947
  80	3.9500e-02	0.7881	-17.078071	0.000569	5.688241	0.963614	0.011375
  81	4.0000e-02	0.7966	-17.036163	0.000419	4.191335	0.710031	0.008381
  82	4.0500e-02	0.8075	-16.957053	0.000791	7.912215	1.340365	0.015822
  83	4.1000e-02	0.8157	-16.933533	0.000235	2.352280	0.398487	0.004704
  84	4.1500e-02	0.8292	-16.854850	0.000787	7.869446	1.333120	0.015737
  85	4.2000e-02	0.8379	-16.827055	0.000278	2.779967	0.470939	0.005559
  86	4.2500e-02	0.8460	-16.756496	0.000706	7.056840	1.195461	0.014112
  87	4.3000e-02	0.8569	-16.713734	0.000428	4.276873	0.724522	0.008553
  88	4.3500e-02	0.8666	-16.667978	0.000458	4.576254	0.775238	0.009151
  89	4.4000e-02	0.8780	-16.597420	0.000706	7.056840	1.195461	0.014112
  90	4.4500e-02	0.8887	-16.567486	0.000299	2.993811	0.507165	0.005987
  91	4.5000e-02	0.8955	-16.486665	0.000808	8.083289	1.369346	0.016164
  92	4.5500e-02	0.9061	-16.454593	0.000321	3.207655	0.543391	0.006414
  93	4.6000e-02	0.9132	-16.390022	0.000646	6.458078	1.094028	0.012914
  94	4.6500e-02	0.9283	-16.319891	0.000701	7.014071	1.188216	0.014026
  95	4.7000e-02	0.9366	-16.294661	0.000252	2.523355	0.427468	0.005046
  96	4.7500e-02	0.9471	-16.222392	0.000723	7.227915	1.224442	0.014454
  97	4.8000e-02	0.9568	-16.165518	0.000569	5.688241	0.963614	0.011375
  98	4.8500e-02	0.9663	-16.127887	0.000376	3.763648	0.637579	0.007526
  99	4.9000e-02	0.9740	-16.063743	0.000642	6.415309	1.086783	0.012829
 100	4.9500e-02	0.9858	-16.035948	0.000278	2.779967	0.470939	0.005559
 101	5.0000e-02	0.9980	-15.956837	0.000791	7.912215	1.340365	0.015822
 102	5.0500e-02	1.0063	-15.907660	0.000492	4.918404	0.833200	0.009835
 103	5.1000e-02	1.0157	-15.861049	0.000466	4.661791	0.789729	0.009322
 104	5.1500e-02	1.0261	-15.800326	0.000607	6.073159	1.028821	0.012145
 105	5.2000e-02	1.0388	-15.753715	0.000466	4.661791	0.789729	0.009322
 106	5.2500e-02	1.0474	-15.686578	0.000671	6.714690	1.137499	0.013427
 107	5.3000e-02	1.0574	-15.672894	0.000137	1.368599	0.231847	0.002737
 108	5.3500e-02	1.0699	-15.601908	0.000710	7.099609	1.202706	0.014197
 109	5.4000e-02	1.0808	-15.540758	0.000612	6.115928	1.036066	0.012230
 110	5.4500e-02	1.0852	-15.498423	0.000423	4.234104	0.717277	0.008467
 111	5.5000e-02	1.0954	-15.441549	0.000569	5.688241	0.963614	0.011375
 112	5.5500e-02	1.1076	-15.406911	0.000346	3.464267	0.586863	0.006928
 113	5.6000e-02	1.1151	-15.319675	0.000872	8.724820	1.478025	0.017447
 114	5.6500e-02	1.1264	-15.284183	0.000355	3.549804	0.601353	0.007099
 115	5.7000e-02	1.1347	-15.249117	0.000351	3.507036	0.594108	0.007013
 116	5.7500e-02	1.1453	-15.166158	0.000830	8.297133	1.405572	0.016592
 117	5.8000e-02	1.1557	-15.114843	0.000513	5.132247	0.869426	0.010263
 118	5.8500e-02	1.1665	-15.066949	0.000479	4.790097	0.811464	0.009579
 119	5.9000e-02	1.1768	-15.001095	0.000659	6.586384	1.115764	0.013171
 120	5.9500e-02	1.1862	-14.977148	0.000240	2.395049	0.405732	0.004789
 121	6.0000e-02	1.1977	-14.914287	0.000629	6.287003	1.065047	0.012572
 122	6.0500e-02	1.2071	-14.862116	0.000522	5.217785	0.883917	0.010434
 123	6.1000e-02	1.2153	-14.804387	0.000577	5.773778	0.978104	0.011546
 124	6.1500e-02	1.2256	-14.761197	0.000432	4.319641	0.731767	0.008638
 125	6.2000e-02	1.2350	-14.705606	0.000556	5.559935	0.941878	0.011118
 126	6.2500e-02	1.2448	-14.648304	0.000573	5.731009	0.970859	0.011460
 127	6.3000e-02	1.2569	-14.599555	0.000488	4.875635	0.825955	0.009750
 128	6.3500e-02	1.2691	-14.537976	0.000616	6.158697	1.043311	0.012316
 129	6.4000e-02	1.2795	-14.503339	0.000346	3.464267	0.586863	0.006928
 130	6.4500e-02	1.2865	-14.450741	0.000526	5.260553	0.891162	0.010520
 131	6.5000e-02	1.2955	-14.400281	0.000505	5.046710	0.854936	0.010092
 132	6.5500e-02	1.3034	-14.337420	0.000629	6.287003	1.065047	0.012572
 133	6.6000e-02	1.3159	-14.289526	0.000479	4.790097	0.811464	0.009579
 134	6.6500e-02	1.3260	-14.235645	0.000539	5.388860	0.912898	0.010776
 135	6.7000e-02	1.3358	-14.176205	0.000594	5.944853	1.007085	0.011888
 136	6.7500e-02	1.3448	-14.121469	0.000547	5.474397	0.927388	0.010947
 137	6.8000e-02	1.3573	-14.099233	0.000222	2.223974	0.376751	0.004447
 138	6.8500e-02	1.3663	-14.036800	0.000624	6.244234	1.057802	0.012487
 139	6.9000e-02	1.3741	-13.968807	0.000680	6.800228	1.151990	0.013598
 140	6.9500e-02	1.3858	-13.926900	0.000419	4.191335	0.710031	0.008381
 141	7.0000e-02	1.3953	-13.865750	0.000612	6.115928	1.036066	0.012230
 142	7.0500e-02	1.4032	-13.825125	0.000406	4.063029	0.688296	0.008125
 143	7.1000e-02	1.4191	-13.775948	0.000492	4.918404	0.833200	0.009835
 144	7.1500e-02	1.4249	-13.719502	0.000565	5.645472	0.956369	0.011289
 145	7.2000e-02	1.4369	-13.660489	0.000590	5.902084	0.999840	0.011802
 146	7.2500e-02	1.4441	-13.620293	0.000402	4.020260	0.681051	0.008039
 147	7.3000e-02	1.4531	-13.556149	0.000642	6.415309	1.086783	0.012829
 148	7.3500e-02	1.4648	-13.495854	0.000603	6.030391	1.021576	0.012059
 149	7.4000e-02	1.4761	-13.457795	0.000381	3.806417	0.644824	0.007612
 150	7.4500e-02	1.4868	-13.406480	0.000513	5.132247	0.869426	0.010263
 151	7.5000e-02	1.4965	-13.356875	0.000496	4.961172	0.840445	0.009921
 152	7.5500e-02	1.5068	-13.319244	0.000376	3.763648	0.637579	0.007526
 153	7.6000e-02	1.5169	-13.257239	0.000620	6.201465	1.050557	0.012401
 154	7.6500e-02	1.5275	-13.225594	0.000316	3.164886	0.536146	0.006329
 155	7.7000e-02	1.5410	-13.156747	0.000689	6.885765	1.166480	0.013770
 156	7.7500e-02	1.5483	-13.098590	0.000582	5.816547	0.985350	0.011631
 157	7.8000e-02	1.5541	-13.039578	0.000590	5.902084	0.999840	0.011802
 158	7.8500e-02	1.5643	-13.001091	0.000385	3.849185	0.652070	0.007697
 159	7.9000e-02	1.5768	-12.947638	0.000535	5.346091	0.905652	0.010691
 160	7.9500e-02	1.5863	-12.886915	0.000607	6.073159	1.028821	0.012145
 161	8.0000e-02	1.5965	-12.856982	0.000299	2.993811	0.507165	0.005987
 162	8.0500e-02	1.6071	-12.800535	0.000565	5.645472	0.956369	0.011289
 163	8.1000e-02	1.6142	-12.742806	0.000577	5.773778	0.978104	0.011546
 164	8.1500e-02	1.6283	-12.703464	0.000393	3.934723	0.666560	0.007868
 165	8.2000e-02	1.6377	-12.646162	0.000573	5.731009	0.970859	0.011460
 166	8.2500e-02	1.6458	-12.599979	0.000462	4.619023	0.782484	0.009237
 167	8.3000e-02	1.6553	-12.528565	0.000714	7.142377	1.209951	0.014283
 168	8.3500e-02	1.6644	-12.493928	0.000346	3.464267	0.586863	0.006928
 169	8.4000e-02	1.6782	-12.424225	0.000697	6.971303	1.180971	0.013941
 170	8.4500e-02	1.6859	-12.381462	0.000428	4.276873	0.724522	0.008553
 171	8.5000e-02	1.6962	-12.339555	0.000419	4.191335	0.710031	0.008381
 172	8.5500e-02	1.7061	-12.262155	0.000774	7.741140	1.311385	0.015480
 173	8.6000e-02	1.7183	-12.219392	0.000428	4.276873	0.724522	0.008553
 174	8.6500e-02	1.7255	-12.173636	0.000458	4.576254	0.775238	0.009151
 175	8.7000e-02	1.7376	-12.134722	0.000389	3.891954	0.659315	0.007783
 176	8.7500e-02	1.7452	-12.076993	0.000577	5.773778	0.978104	0.011546
 177	8.8000e-02	1.7566	-12.030809	0.000462	4.619023	0.782484	0.009237
 178	8.8500e-02	1.7654	-11.977784	0.000530	5.303322	0.898407	0.010605
 179	8.9000e-02	1.7807	-11.918344	0.000594	5.944853	1.007085	0.011888
 180	8.9500e-02	1.7865	-11.852490	0.000659	6.586384	1.115764	0.013171
 181	9.0000e-02	1.7981	-11.847358	0.000051	0.513225	0.086943	0.001026
 182	9.0500e-02	1.8062	-11.750715	0.000967	9.665732	1.637419	0.019329
 183	9.1000e-02	1.8164	-11.705814	0.000449	4.490716	0.760748	0.008980
 184	9.1500e-02	1.8256	-11.670749	0.000351	3.507036	0.594108	0.007013
 185	9.2000e-02	1.8365	-11.612164	0.000586	5.859316	0.992595	0.011717
 186	9.2500e-02	1.8457	-11.561277	0.000509	5.089479	0.862181	0.010177
 187	9.3000e-02	1.8561	-11.520225	0.000411	4.105798	0.695541	0.008210
 188	9.3500e-02	1.8665	-11.490291	0.000299	2.993811	0.507165	0.005987
 189	9.4000e-02	1.8767	-11.408187	0.000821	8.211596	1.391082	0.016421
 190	9.4500e-02	1.8860	-11.367135	0.000411	4.105798	0.695541	0.008210
 191	9.5000e-02	1.8964	-11.303419	0.000637	6.372540	1.079538	0.012743
 192	9.5500e-02	1.9033	-11.254670	0.000488	4.875635	0.825955	0.009750
 193	9.6000e-02	1.9150	-11.212335	0.000423	4.234104	0.717277	0.008467
 194	9.6500e-02	1.9258	-11.175987	0.000364	3.635342	0.615844	0.007270
 195	9.7000e-02	1.9356	-11.110988	0.000650	6.500847	1.101273	0.013000
 196	9.7500e-02	1.9458	-11.075495	0.000355	3.549804	0.601353	0.007099
 197	9.8000e-02	1.9577	-11.010923	0.000646	6.458078	1.094028	0.012914
 198	9.8500e-02	1.9642	-10.951056	0.000599	5.987622	1.014331	0.011974
 199	9.9000e-02	1.9749	-10.910859	0.000402	4.020260	0.681051	0.008039
 200	9.9500e-02	1.9846	-10.865531	0.000453	4.533485	0.767993	0.009066
 201	1.0000e-01	1.9980	-10.812933	0.000526	5.260553	0.891162	0.010520
 202	1.0050e-01	2.0023	-10.758624	0.000543	5.431628	0.920143	0.010862
 203	1.0100e-01	2.0186	-10.723131	0.000355	3.549804	0.601353	0.007099
 204	1.0150e-01	2.0265	-10.684645	0.000385	3.849185	0.652070	0.007697
 205	1.0200e-01	2.0378	-10.609383	0.000753	7.527296	1.275158	0.015052
 206	1.0250e-01	2.0474	-10.543956	0.000654	6.543615	1.108518	0.013085
 207	1.0300e-01	2.0589	-10.518299	0.000257	2.566124	0.434713	0.005132
 208	1.0350e-01	2.0653	-10.479813	0.000385	3.849185	0.652070	0.007697
 209	1.0400e-01	2.0776	-10.405833	0.000740	7.398990	1.253423	0.014796
 210	1.0450e-01	2.0876	-10.361360	0.000445	4.447948	0.753503	0.008895
 211	1.0500e-01	2.0966	-10.305769	0.000556	5.559935	0.941878	0.011118
 212	1.0550e-01	2.1073	-10.264717	0.000411	4.105798	0.695541	0.008210
 213	1.0600e-01	2.1158	-10.220244	0.000445	4.447948	0.753503	0.008895
 214	1.0650e-01	2.1243	-10.175771	0.000445	4.447948	0.753503	0.008895
 215	1.0700e-01	2.1359	-10.115048	0.000607	6.073159	1.028821	0.012145
 216	1.0750e-01	2.1497	-10.068865	0.000462	4.619023	0.782484	0.009237
 217	1.0800e-01	2.1539	-10.025675	0.000432	4.319641	0.731767	0.008638
 218	1.0850e-01	2.1704	-9.983767	0.000419	4.191335	0.710031	0.008381
 219	1.0900e-01	2.1759	-9.921334	0.000624	6.244234	1.057802	0.012487
 220	1.0950e-01	2.1838	-9.843934	0.000774	7.741140	1.311385	0.015480
 221	1.1000e-01	2.1965	-9.813572	0.000304	3.036580	0.514411	0.006072
 222	1.1050e-01	2.2076	-9.761830	0.000518	5.175016	0.876671	0.010349
 223	1.1100e-01	2.2189	-9.719067	0.000428	4.276873	0.724522	0.008553
 224	1.1150e-01	2.2289	-9.675022	0.000441	4.405179	0.746258	0.008809
 225	1.1200e-01	2.2366	-9.612161	0.000629	6.287003	1.065047	0.012572
 226	1.1250e-01	2.2449	-9.576240	0.000359	3.592573	0.608598	0.007184
 227	1.1300e-01	2.2565	-9.516800	0.000594	5.944853	1.007085	0.011888
 228	1.1350e-01	2.2679	-9.477031	0.000398	3.977492	0.673805	0.007954
 229	1.1400e-01	2.2752	-9.418874	0.000582	5.816547	0.985350	0.011631
 230	1.1450e-01	2.2849	-9.373546	0.000453	4.533485	0.767993	0.009066
 231	1.1500e-01	2.2961	-9.344040	0.000295	2.951042	0.499920	0.005901
 232	1.1550e-01	2.3035	-9.297856	0.000462	4.619023	0.782484	0.009237
 233	1.1600e-01	2.3172	-9.223450	0.000744	7.441759	1.260668	0.014881
 234	1.1650e-01	2.3235	-9.157595	0.000659	6.586384	1.115764	0.013171
 235	1.1700e-01	2.3336	-9.126379	0.000312	3.122117	0.528901	0.006243
 236	1.1750e-01	2.3450	-9.073353	0.000530	5.303322	0.898407	0.010605
 237	1.1800e-01	2.3541	-9.046413	0.000269	2.694430	0.456449	0.005388
 238	1.1850e-01	2.3638	-8.976710	0.000697	6.971303	1.180971	0.013941
 239	1.1900e-01	2.3775	-8.934375	0.000423	4.234104	0.717277	0.008467
 240	1.1950e-01	2.3853	-8.868093	0.000663	6.629153	1.123009	0.013256
 241	1.2000e-01	2.3953	-8.830034	0.000381	3.806417	0.644824	0.007612
 242	1.2050e-01	2.4052	-8.790265	0.000398	3.977492	0.673805	0.007954
 243	1.2100e-01	2.4165	-8.737667	0.000526	5.260553	0.891162	0.010520
 244	1.2150e-01	2.4294	-8.690201	0.000475	4.747329	0.804219	0.009493
 245	1.2200e-01	2.4343	-8.641452	0.000488	4.875635	0.825955	0.009750
 246	1.2250e-01	2.4473	-8.578163	0.000633	6.329772	1.072292	0.012658
 247	1.2300e-01	2.4545	-8.531979	0.000462	4.619023	0.782484	0.009237
 248	1.2350e-01	2.4655	-8.509315	0.000227	2.266743	0.383997	0.004533
 249	1.2400e-01	2.4774	-8.433626	0.000757	7.570065	1.282404	0.015138
 250	1.2450e-01	2.4898	-8.390008	0.000436	4.362410	0.739012	0.008724
 251	1.2500e-01	2.4951	-8.366916	0.000231	2.309511	0.391242	0.004618
 252	1.2550e-01	2.5043	-8.277115	0.000898	8.981433	1.521496	0.017960
 253	1.2600e-01	2.5163	-8.253168	0.000240	2.395049	0.405732	0.004789
 254	1.2650e-01	2.5273	-8.189452	0.000637	6.372540	1.079538	0.012743
 255	1.2700e-01	2.5394	-8.150965	0.000385	3.849185	0.652070	0.007697
 256	1.2750e-01	2.5439	-8.109913	0.000411	4.105798	0.695541	0.008210
 257	1.2800e-01	2.5575	-8.053039	0.000569	5.688241	0.963614	0.011375
 258	1.2850e-01	2.5674	-7.995737	0.000573	5.731009	0.970859	0.011460
 259	1.2900e-01	2.5772	-7.943139	0.000526	5.260553	0.891162	0.010520
 260	1.2950e-01	2.5862	-7.903798	0.000393	3.934723	0.666560	0.007868
 261	1.3000e-01	2.5967	-7.858897	0.000449	4.490716	0.760748	0.008980
 262	1.3050e-01	2.6065	-7.810576	0.000483	4.832866	0.818710	0.009664
 263	1.3100e-01	2.6172	-7.754129	0.000565	5.645472	0.956369	0.011289
 264	1.3150e-01	2.6263	-7.713505	0.000406	4.063029	0.688296	0.008125
 265	1.3200e-01	2.6364	-7.664328	0.000492	4.918404	0.833200	0.009835
 266	1.3250e-01	2.6463	-7.618144	0.000462	4.619023	0.782484	0.009237
 267	1.3300e-01	2.6552	-7.562125	0.000560	5.602703	0.949124	0.011204
 268	1.3350e-01	2.6676	-7.527915	0.000342	3.421498	0.579617	0.006842
 269	1.3400e-01	2.6755	-7.462916	0.000650	6.500847	1.101273	0.013000
 270	1.3450e-01	2.6847	-7.423147	0.000398	3.977492	0.673805	0.007954
 271	1.3500e-01	2.6936	-7.369266	0.000539	5.388860	0.912898	0.010776
 272	1.3550e-01	2.7075	-7.326931	0.000423	4.234104	0.717277	0.008467
 273	1.3600e-01	2.7180	-7.303840	0.000231	2.309511	0.391242	0.004618
 274	1.3650e-01	2.7268	-7.228578	0.000753	7.527296	1.275158	0.015052
 275	1.3700e-01	2.7368	-7.195223	0.000334	3.335961	0.565127	0.006671
 276	1.3750e-01	2.7448	-7.137493	0.000577	5.773778	0.978104	0.011546
 277	1.3800e-01	2.7570	-7.083185	0.000543	5.431628	0.920143	0.010862
 278	1.3850e-01	2.7667	-7.048547	0.000346	3.464267	0.586863	0.006928
 279	1.3900e-01	2.7724	-6.980127	0.000684	6.842996	1.159235	0.013684
 280	1.3950e-01	2.7902	-6.951049	0.000291	2.908273	0.492675	0.005816
 281	1.4000e-01	2.7948	-6.918549	0.000325	3.250423	0.550637	0.006500
 282	1.4050e-01	2.8070	-6.861248	0.000573	5.731009	0.970859	0.011460
 283	1.4100e-01	2.8157	-6.823189	0.000381	3.806417	0.644824	0.007612
 284	1.4150e-01	2.8264	-6.753486	0.000697	6.971303	1.180971	0.013941
 285	1.4200e-01	2.8384	-6.715000	0.000385	3.849185	0.652070	0.007697
 286	1.4250e-01	2.8479	-6.685921	0.000291	2.908273	0.492675	0.005816
 287	1.4300e-01	2.8554	-6.610231	0.000757	7.570065	1.282404	0.015138
 288	1.4350e-01	2.8675	-6.567469	0.000428	4.276873	0.724522	0.008553
 289	1.4400e-01	2.8738	-6.516582	0.000509	5.089479	0.862181	0.010177
 290	1.4450e-01	2.8870	-6.492635	0.000240	2.395049	0.405732	0.004789
 291	1.4500e-01	2.8964	-6.419938	0.000727	7.270684	1.231687	0.014539
 292	1.4550e-01	2.9058	-6.390860	0.000291	2.908273	0.492675	0.005816
 293	1.4600e-01	2.9161	-6.330992	0.000599	5.987622	1.014331	0.011974
 294	1.4650e-01	2.9267	-6.294644	0.000364	3.635342	0.615844	0.007270
 295	1.4700e-01	2.9384	-6.238625	0.000560	5.602703	0.949124	0.011204
 296	1.4750e-01	2.9457	-6.179613	0.000590	5.902084	0.999840	0.011802
 297	1.4800e-01	2.9572	-6.135567	0.000441	4.405179	0.746258	0.008809
 298	1.4850e-01	2.9626	-6.085535	0.000500	5.003941	0.847691	0.010006
 299	1.4900e-01	2.9773	-6.029944	0.000556	5.559935	0.941878	0.011118
 300	1.4950e-01	2.9860	-6.000438	0.000295	2.951042	0.499920	0.005901
 301	1.5000e-01	2.9971	-5.952971	0.000475	4.747329	0.804219	0.009493
 302	1.5050e-01	3.0054	-5.915768	0.000372	3.720879	0.630334	0.007441
 303	1.5100e-01	3.0145	-5.881558	0.000342	3.421498	0.579617	0.006842
 304	1.5150e-01	3.0261	-5.802020	0.000795	7.954983	1.347611	0.015908
 305	1.5200e-01	3.0359	-5.767810	0.000342	3.421498	0.579617	0.006842
 306	1.5250e-01	3.0487	-5.741297	0.000265	2.651661	0.449204	0.005303
 307	1.5300e-01	3.0594	-5.677153	0.000642	6.415309	1.086783	0.012829
 308	1.5350e-01	3.0649	-5.622845	0.000543	5.431628	0.920143	0.010862
 309	1.5400e-01	3.0763	-5.601891	0.000210	2.095668	0.355016	0.004191
 310	1.5450e-01	3.0872	-5.535182	0.000667	6.671921	1.130254	0.013342
 311	1.5500e-01	3.0988	-5.469755	0.000654	6.543615	1.108518	0.013085
 312	1.5550e-01	3.1070	-5.439821	0.000299	2.993811	0.507165	0.005987
 313	1.5600e-01	3.1192	-5.385085	0.000547	5.474397	0.927388	0.010947
 314	1.5650e-01	3.1258	-5.342750	0.000423	4.234104	0.717277	0.008467
 315	1.5700e-01	3.1374	-5.278179	0.000646	6.458078	1.094028	0.012914
 316	1.5750e-01	3.1476	-5.260646	0.000175	1.753518	0.297054	0.003507
 317	1.5800e-01	3.1578	-5.207193	0.000535	5.346091	0.905652	0.010691
 318	1.5850e-01	3.1659	-5.169134	0.000381	3.806417	0.644824	0.007612
 319	1.5900e-01	3.1772	-5.134924	0.000342	3.421498	0.579617	0.006842
 320	1.5950e-01	3.1891	-5.090024	0.000449	4.490716	0.760748	0.008980
 321	1.6000e-01	3.1965	-5.035288	0.000547	5.474397	0.927388	0.010947
 322	1.6050e-01	3.2068	-4.983973	0.000513	5.132247	0.869426	0.010263
 323	1.6100e-01	3.2173	-4.913414	0.000706	7.056840	1.195461	0.014112
 324	1.6150e-01	3.2263	-4.891606	0.000218	2.181205	0.369506	0.004362
 325	1.6200e-01	3.2373	-4.831310	0.000603	6.030391	1.021576	0.012059
 326	1.6250e-01	3.2452	-4.794962	0.000364	3.635342	0.615844	0.007270
 327	1.6300e-01	3.2574	-4.766311	0.000287	2.865505	0.485430	0.005730
 328	1.6350e-01	3.2658	-4.699174	0.000671	6.714690	1.137499	0.013427
 329	1.6400e-01	3.2785	-4.651280	0.000479	4.790097	0.811464	0.009579
 330	1.6450e-01	3.2880	-4.606379	0.000449	4.490716	0.760748	0.008980
 331	1.6500e-01	3.2942	-4.569604	0.000368	3.678111	0.623089	0.007355
 332	1.6550e-01	3.3057	-4.522137	0.000475	4.747329	0.804219	0.009493
 333	1.6600e-01	3.3167	-4.460132	0.000620	6.201465	1.050557	0.012401
 334	1.6650e-01	3.3261	-4.432764	0.000274	2.737199	0.463694	0.005474
 335	1.6700e-01	3.3331	-4.360067	0.000727	7.270684	1.231687	0.014539
 336	1.6750e-01	3.3481	-4.351515	0.000086	0.855375	0.144904	0.001711
 337	1.6800e-01	3.3588	-4.288654	0.000629	6.287003	1.065047	0.012572
 338	1.6850e-01	3.3661	-4.251878	0.000368	3.678111	0.623089	0.007355
 339	1.6900e-01	3.3750	-4.210826	0.000411	4.105798	0.695541	0.008210
 340	1.6950e-01	3.3844	-4.162932	0.000479	4.790097	0.811464	0.009579
 341	1.7000e-01	3.3978	-4.100071	0.000629	6.287003	1.065047	0.012572
 342	1.7050e-01	3.4090	-4.047901	0.000522	5.217785	0.883917	0.010434
 343	1.7100e-01	3.4152	-4.017967	0.000299	2.993811	0.507165	0.005987
 344	1.7150e-01	3.4265	-3.976487	0.000415	4.148567	0.702786	0.008296
 345	1.7200e-01	3.4385	-3.926028	0.000505	5.046710	0.854936	0.010092
 346	1.7250e-01	3.4436	-3.863167	0.000629	6.287003	1.065047	0.012572
 347	1.7300e-01	3.4573	-3.833233	0.000299	2.993811	0.507165	0.005987
 348	1.7350e-01	3.4671	-3.803299	0.000299	2.993811	0.507165	0.005987
 349	1.7400e-01	3.4766	-3.735734	0.000676	6.757459	1.144745	0.013513
 350	1.7450e-01	3.4863	-3.704945	0.000308	3.079348	0.521656	0.006158
 351	1.7500e-01	3.4967	-3.643367	0.000616	6.158697	1.043311	0.012316
 352	1.7550e-01	3.5059	-3.605736	0.000376	3.763648	0.637579	0.007526
 353	1.7600e-01	3.5178	-3.565967	0.000398	3.977492	0.673805	0.007954
 354	1.7650e-01	3.5262	-3.524060	0.000419	4.191335	0.710031	0.008381
 355	1.7700e-01	3.5388	-3.471034	0.000530	5.303322	0.898407	0.010605
 356	1.7750e-01	3.5464	-3.424423	0.000466	4.661791	0.789729	0.009322
 357	1.7800e-01	3.5574	-3.371398	0.000530	5.303322	0.898407	0.010605
 358	1.7850e-01	3.5654	-3.348306	0.000231	2.309511	0.391242	0.004618
 359	1.7900e-01	3.5774	-3.274754	0.000736	7.356221	1.246178	0.014710
 360	1.7950e-01	3.5883	-3.247814	0.000269	2.694430	0.456449	0.005388
 361	1.8000e-01	3.5969	-3.196927	0.000509	5.089479	0.862181	0.010177
 362	1.8050e-01	3.6069	-3.161861	0.000351	3.507036	0.594108	0.007013
 363	1.8100e-01	3.6166	-3.105415	0.000565	5.645472	0.956369	0.011289
 364	1.8150e-01	3.6270	-3.086599	0.000188	1.881824	0.318790	0.003763
 365	1.8200e-01	3.6368	-3.019034	0.000676	6.757459	1.144745	0.013513
 366	1.8250e-01	3.6469	-2.990811	0.000282	2.822736	0.478184	0.005645
 367	1.8300e-01	3.6591	-2.949759	0.000411	4.105798	0.695541	0.008210
 368	1.8350e-01	3.6664	-2.906141	0.000436	4.362410	0.739012	0.008724
 369	1.8400e-01	3.6774	-2.859530	0.000466	4.661791	0.789729	0.009322
 370	1.8450e-01	3.6853	-2.803084	0.000565	5.645472	0.956369	0.011289
 371	1.8500e-01	3.6963	-2.762032	0.000411	4.105798	0.695541	0.008210
 372	1.8550e-01	3.7097	-2.717559	0.000445	4.447948	0.753503	0.008895
 373	1.8600e-01	3.7149	-2.657263	0.000603	6.030391	1.021576	0.012059
 374	1.8650e-01	3.7268	-2.608942	0.000483	4.832866	0.818710	0.009664
 375	1.8700e-01	3.7348	-2.586278	0.000227	2.266743	0.383997	0.004533
 376	1.8750e-01	3.7473	-2.525982	0.000603	6.030391	1.021576	0.012059
 377	1.8800e-01	3.7585	-2.479799	0.000462	4.619023	0.782484	0.009237
 378	1.8850e-01	3.7689	-2.433615	0.000462	4.619023	0.782484	0.009237
 379	1.8900e-01	3.7769	-2.425063	0.000086	0.855375	0.144904	0.001711
 380	1.8950e-01	3.7897	-2.377597	0.000475	4.747329	0.804219	0.009493
 381	1.9000e-01	3.7964	-2.330985	0.000466	4.661791	0.789729	0.009322
 382	1.9050e-01	3.8068	-2.277532	0.000535	5.346091	0.905652	0.010691
 383	1.9100e-01	3.8165	-2.214671	0.000629	6.287003	1.065047	0.012572
 384	1.9150e-01	3.8281	-2.169771	0.000449	4.490716	0.760748	0.008980
 385	1.9200e-01	3.8361	-2.159508	0.000103	1.026449	0.173885	0.002053
 386	1.9250e-01	3.8437	-2.100068	0.000594	5.944853	1.007085	0.011888
 387	1.9300e-01	3.8568	-2.046187	0.000539	5.388860	0.912898	0.010776
 388	1.9350e-01	3.8696	-1.991879	0.000543	5.431628	0.920143	0.010862
 389	1.9400e-01	3.8776	-1.970070	0.000218	2.181205	0.369506	0.004362
 390	1.9450e-01	3.8849	-1.925597	0.000445	4.447948	0.753503	0.008895
 391	1.9500e-01	3.8957	-1.867012	0.000586	5.859316	0.992595	0.011717
 392	1.9550e-01	3.9075	-1.841354	0.000257	2.566124	0.434713	0.005132
 393	1.9600e-01	3.9163	-1.778066	0.000633	6.329772	1.072292	0.012658
 394	1.9650e-01	3.9259	-1.744283	0.000338	3.378729	0.572372	0.006756
 395	1.9700e-01	3.9373	-1.687409	0.000569	5.688241	0.963614	0.011375
 396	1.9750e-01	3.9471	-1.661752	0.000257	2.566124	0.434713	0.005132
 397	1.9800e-01	3.9566	-1.605733	0.000560	5.602703	0.949124	0.011204
 398	1.9850e-01	3.9642	-1.559122	0.000466	4.661791	0.789729	0.009322
 399	1.9900e-01	3.9784	-1.535602	0.000235	2.352280	0.398487	0.004704
 400	1.9950e-01	3.9871	-1.480866	0.000547	5.474397	0.927388	0.010947
 401	2.0000e-01	3.9967	-1.439387	0.000415	4.148567	0.702786	0.008296
 402	2.0050e-01	4.0059	-1.405177	0.000342	3.421498	0.579617	0.006842
 403	2.0100e-01	4.0192	-1.356000	0.000492	4.918404	0.833200	0.009835
 404	2.0150e-01	4.0283	-1.338895	0.000171	1.710749	0.289809	0.003421
 405	2.0200e-01	4.0369	-1.280738	0.000582	5.816547	0.985350	0.011631
 406	2.0250e-01	4.0443	-1.216594	0.000642	6.415309	1.086783	0.012829
 407	2.0300e-01	4.0570	-1.175970	0.000406	4.063029	0.688296	0.008125
 408	2.0350e-01	4.0669	-1.147319	0.000287	2.865505	0.485430	0.005730
 409	2.0400e-01	4.0744	-1.085741	0.000616	6.158697	1.043311	0.012316
 410	2.0450e-01	4.0866	-1.053241	0.000325	3.250423	0.550637	0.006500
 411	2.0500e-01	4.0945	-0.994229	0.000590	5.902084	0.999840	0.011802
 412	2.0550e-01	4.1101	-0.960019	0.000342	3.421498	0.579617	0.006842
 413	2.0600e-01	4.1199	-0.911697	0.000483	4.832866	0.818710	0.009664
 414	2.0650e-01	4.1260	-0.870217	0.000415	4.148567	0.702786	0.008296
 415	2.0700e-01	4.1365	-0.840711	0.000295	2.951042	0.499920	0.005901
 416	2.0750e-01	4.1446	-0.791534	0.000492	4.918404	0.833200	0.009835
 417	2.0800e-01	4.1573	-0.756041	0.000355	3.549804	0.601353	0.007099
 418	2.0850e-01	4.1684	-0.698312	0.000577	5.773778	0.978104	0.011546
 419	2.0900e-01	4.1764	-0.679924	0.000184	1.839055	0.311544	0.003678
 420	2.0950e-01	4.1838	-0.621340	0.000586	5.859316	0.992595	0.011717
 421	2.1000e-01	4.1968	-0.609366	0.000120	1.197524	0.202866	0.002395
 422	2.1050e-01	4.2067	-0.543084	0.000663	6.629153	1.123009	0.013256
 423	2.1100e-01	4.2191	-0.485355	0.000577	5.773778	0.978104	0.011546
 424	2.1150e-01	4.2279	-0.463973	0.000214	2.138436	0.362261	0.004276
 425	2.1200e-01	4.2352	-0.401968	0.000620	6.201465	1.050557	0.012401
 426	2.1250e-01	4.2465	-0.374172	0.000278	2.779967	0.470939	0.005559
 427	2.1300e-01	4.2567	-0.339962	0.000342	3.421498	0.579617	0.006842
 428	2.1350e-01	4.2676	-0.266838	0.000731	7.313452	1.238932	0.014625
 429	2.1400e-01	4.2786	-0.235622	0.000312	3.122117	0.528901	0.006243
 430	2.1450e-01	4.2862	-0.203977	0.000316	3.164886	0.536146	0.006329
 431	2.1500e-01	4.2970	-0.156511	0.000475	4.747329	0.804219	0.009493
 432	2.1550e-01	4.3063	-0.122301	0.000342	3.421498	0.579617	0.006842
 433	2.1600e-01	4.3158	-0.074407	0.000479	4.790097	0.811464	0.009579
 434	2.1650e-01	4.3286	-0.036776	0.000376	3.763648	0.637579	0.007526
 435	2.1700e-01	4.3373	0.035493	0.000723	7.227915	1.224442	0.014454
 436	2.1750e-01	4.3434	0.060723	0.000252	2.523355	0.427468	0.005046
 437	2.1800e-01	4.3558	0.094078	0.000334	3.335961	0.565127	0.006671
 438	2.1850e-01	4.3661	0.144965	0.000509	5.089479	0.862181	0.010177
 439	2.1900e-01	4.3808	0.183451	0.000385	3.849185	0.652070	0.007697
 440	2.1950e-01	4.3875	0.230490	0.000470	4.704560	0.796974	0.009408
 441	2.2000e-01	4.3976	0.270687	0.000402	4.020260	0.681051	0.008039
 442	2.2050e-01	4.4058	0.321574	0.000509	5.089479	0.862181	0.010177
 443	2.2100e-01	4.4184	0.354501	0.000329	3.293192	0.557882	0.006585
 444	2.2150e-01	4.4266	0.401540	0.000470	4.704560	0.796974	0.009408
 445	2.2200e-01	4.4373	0.424204	0.000227	2.266743	0.383997	0.004533
 446	2.2250e-01	4.4473	0.479796	0.000556	5.559935	0.941878	0.011118
 447	2.2300e-01	4.4576	0.516999	0.000372	3.720879	0.630334	0.007441
 448	2.2350e-01	4.4669	0.567886	0.000509	5.089479	0.862181	0.010177
 449	2.2400e-01	4.4788	0.623050	0.000552	5.517166	0.934633	0.011033
 450	2.2450e-01	4.4855	0.647852	0.000248	2.480586	0.420223	0.004960
 451	2.2500e-01	4.4953	0.691898	0.000441	4.405179	0.746258	0.008809
 452	2.2550e-01	4.5059	0.728246	0.000364	3.635342	0.615844	0.007270
 453	2.2600e-01	4.5166	0.781271	0.000530	5.303322	0.898407	0.010605
 454	2.2650e-01	4.5251	0.815054	0.000338	3.378729	0.572372	0.006756
 455	2.2700e-01	4.5357	0.847553	0.000325	3.250423	0.550637	0.006500
 456	2.2750e-01	4.5496	0.896730	0.000492	4.918404	0.833200	0.009835
 457	2.2800e-01	4.5575	0.939493	0.000428	4.276873	0.724522	0.008553
 458	2.2850e-01	4.5661	0.964295	0.000248	2.480586	0.420223	0.004960
 459	2.2900e-01	4.5782	1.019031	0.000547	5.474397	0.927388	0.010947
 460	2.2950e-01	4.5891	1.053241	0.000342	3.421498	0.579617	0.006842
 461	2.3000e-01	4.6008	1.108405	0.000552	5.517166	0.934633	0.011033
 462	2.3050e-01	4.6082	1.158437	0.000500	5.003941	0.847691	0.010006
 463	2.3100e-01	4.6188	1.180673	0.000222	2.223974	0.376751	0.004447
 464	2.3150e-01	4.6280	1.217449	0.000368	3.678111	0.623089	0.007355
 465	2.3200e-01	4.6393	1.264488	0.000470	4.704560	0.796974	0.009408
 466	2.3250e-01	4.6480	1.307250	0.000428	4.276873	0.724522	0.008553
 467	2.3300e-01	4.6576	1.345737	0.000385	3.849185	0.652070	0.007697
 468	2.3350e-01	4.6655	1.401756	0.000560	5.602703	0.949124	0.011204
 469	2.3400e-01	4.6759	1.443235	0.000415	4.148567	0.702786	0.008296
 470	2.3450e-01	4.6875	1.463334	0.000201	2.010130	0.340525	0.004020
 471	2.3500e-01	4.6991	1.531326	0.000680	6.800228	1.151990	0.013598
 472	2.3550e-01	4.7089	1.549286	0.000180	1.796287	0.304299	0.003592
 473	2.3600e-01	4.7156	1.589911	0.000406	4.063029	0.688296	0.008125
 474	2.3650e-01	4.7273	1.651061	0.000612	6.115928	1.036066	0.012230
 475	2.3700e-01	4.7375	1.696389	0.000453	4.533485	0.767993	0.009066
 476	2.3750e-01	4.7449	1.728034	0.000316	3.164886	0.536146	0.006329
 477	2.3800e-01	4.7565	1.760106	0.000321	3.207655	0.543391	0.006414
 478	2.3850e-01	4.7668	1.791322	0.000312	3.122117	0.528901	0.006243
 479	2.3900e-01	4.7760	1.851190	0.000599	5.987622	1.014331	0.011974
 480	2.3950e-01	4.7885	1.879413	0.000282	2.822736	0.478184	0.005645
 481	2.4000e-01	4.7974	1.930728	0.000513	5.132247	0.869426	0.010263
 482	2.4050e-01	4.8071	1.975629	0.000449	4.490716	0.760748	0.008980
 483	2.4100e-01	4.8175	1.999148	0.000235	2.352280	0.398487	0.004704
 484	2.4150e-01	4.8260	2.041911	0.000428	4.276873	0.724522	0.008553
 485	2.4200e-01	4.8361	2.093226	0.000513	5.132247	0.869426	0.010263
 486	2.4250e-01	4.8486	2.147107	0.000539	5.388860	0.912898	0.010776
 487	2.4300e-01	4.8590	2.172764	0.000257	2.566124	0.434713	0.005132
 488	2.4350e-01	4.8666	2.196711	0.000240	2.395049	0.405732	0.004789
 489	2.4400e-01	4.8793	2.243322	0.000466	4.661791	0.789729	0.009322
 490	2.4450e-01	4.8871	2.292499	0.000492	4.918404	0.833200	0.009835
 491	2.4500e-01	4.8984	2.336972	0.000445	4.447948	0.753503	0.008895
 492	2.4550e-01	4.9066	2.388287	0.000513	5.132247	0.869426	0.010263
 493	2.4600e-01	4.9158	2.410524	0.000222	2.223974	0.376751	0.004447
 494	2.4650e-01	4.9277	2.459273	0.000488	4.875635	0.825955	0.009750
 495	2.4700e-01	4.9387	2.493483	0.000342	3.421498	0.579617	0.006842
 496	2.4750e-01	4.9451	2.534535	0.000411	4.105798	0.695541	0.008210
 497	2.4800e-01	4.9567	2.583284	0.000488	4.875635	0.825955	0.009750
 498	2.4850e-01	4.9678	2.617494	0.000342	3.421498	0.579617	0.006842
 499	2.4900e-01	4.9756	2.662395	0.000449	4.490716	0.760748	0.008980
 500	2.4950e-01	4.9872	2.700026	0.000376	3.763648	0.637579	0.007526
 501	2.5000e-01	4.9988	2.739795	0.000398	3.977492	0.673805	0.007954
 502	2.5050e-01	5.0073	2.770584	0.000308	3.079348	0.521656	0.006158
 503	2.5100e-01	5.0195	2.820189	0.000496	4.961172	0.840445	0.009921
 504	2.5150e-01	5.0283	2.852688	0.000325	3.250423	0.550637	0.006500
 505	2.5200e-01	5.0363	2.906997	0.000543	5.431628	0.920143	0.010862
 506	2.5250e-01	5.0476	2.922819	0.000158	1.582443	0.268073	0.003164
 507	2.5300e-01	5.0574	2.962160	0.000393	3.934723	0.666560	0.007868
 508	2.5350e-01	5.0671	3.016469	0.000543	5.431628	0.920143	0.010862
 509	2.5400e-01	5.0757	3.050679	0.000342	3.421498	0.579617	0.006842
 510	2.5450e-01	5.0873	3.079330	0.000287	2.865505	0.485430	0.005730
 511	2.5500e-01	5.0983	3.142191	0.000629	6.287003	1.065047	0.012572
 512	2.5550e-01	5.1081	3.184098	0.000419	4.191335	0.710031	0.008381
 513	2.5600e-01	5.1184	3.220446	0.000364	3.635342	0.615844	0.007270
 514	2.5650e-01	5.1248	3.258505	0.000381	3.806417	0.644824	0.007612
 515	2.5700e-01	5.1370	3.277748	0.000192	1.924593	0.326035	0.003849
 516	2.5750e-01	5.1495	3.330773	0.000530	5.303322	0.898407	0.010605
 517	2.5800e-01	5.1566	3.361562	0.000308	3.079348	0.521656	0.006158
 518	2.5850e-01	5.1642	3.417154	0.000556	5.559935	0.941878	0.011118
 519	2.5900e-01	5.1788	3.443666	0.000265	2.651661	0.449204	0.005303
 520	2.5950e-01	5.1874	3.491988	0.000483	4.832866	0.818710	0.009664
 521	2.6000e-01	5.1981	3.531757	0.000398	3.977492	0.673805	0.007954
 522	2.6050e-01	5.2072	3.578368	0.000466	4.661791	0.789729	0.009322
 523	2.6100e-01	5.2161	3.612578	0.000342	3.421498	0.579617	0.006842
 524	2.6150e-01	5.2275	3.646361	0.000338	3.378729	0.572372	0.006756
 525	2.6200e-01	5.2365	3.695965	0.000496	4.961172	0.840445	0.009921
 526	2.6250e-01	5.2472	3.741294	0.000453	4.533485	0.767993	0.009066
 527	2.6300e-01	5.2541	3.770800	0.000295	2.951042	0.499920	0.005901
 528	2.6350e-01	5.2670	3.807148	0.000364	3.635342	0.615844	0.007270
 529	2.6400e-01	5.2791	3.835371	0.000282	2.822736	0.478184	0.005645
 530	2.6450e-01	5.2881	3.884120	0.000488	4.875635	0.825955	0.009750
 531	2.6500e-01	5.2982	3.922607	0.000385	3.849185	0.652070	0.007697
 532	2.6550e-01	5.3052	3.949119	0.000265	2.651661	0.449204	0.005303
 533	2.6600e-01	5.3168	4.003000	0.000539	5.388860	0.912898	0.010776
 534	2.6650e-01	5.3268	4.038493	0.000355	3.549804	0.601353	0.007099
 535	2.6700e-01	5.3339	4.077835	0.000393	3.934723	0.666560	0.007868
 536	2.6750e-01	5.3470	4.092374	0.000145	1.454137	0.246337	0.002908
 537	2.6800e-01	5.3564	4.149676	0.000573	5.731009	0.970859	0.011460
 538	2.6850e-01	5.3674	4.187307	0.000376	3.763648	0.637579	0.007526
 539	2.6900e-01	5.3766	4.211254	0.000240	2.395049	0.405732	0.004789
 540	2.6950e-01	5.3851	4.266845	0.000556	5.559935	0.941878	0.011118
 541	2.7000e-01	5.3979	4.310890	0.000441	4.405179	0.746258	0.008809
 542	2.7050e-01	5.4071	4.344245	0.000334	3.335961	0.565127	0.006671
 543	2.7100e-01	5.4129	4.383587	0.000393	3.934723	0.666560	0.007868
 544	2.7150e-01	5.4262	4.425494	0.000419	4.191335	0.710031	0.008381
 545	2.7200e-01	5.4376	4.459704	0.000342	3.421498	0.579617	0.006842
 546	2.7250e-01	5.4465	4.519144	0.000594	5.944853	1.007085	0.011888
 547	2.7300e-01	5.4559	4.557630	0.000385	3.849185	0.652070	0.007697
 548	2.7350e-01	5.4654	4.573452	0.000158	1.582443	0.268073	0.003164
 549	2.7400e-01	5.4791	4.605524	0.000321	3.207655	0.543391	0.006414
 550	2.7450e-01	5.4868	4.647431	0.000419	4.191335	0.710031	0.008381
 551	2.7500e-01	5.4974	4.699602	0.000522	5.217785	0.883917	0.010434
 552	2.7550e-01	5.5081	4.741081	0.000415	4.148567	0.702786	0.008296
 553	2.7600e-01	5.5154	4.790258	0.000492	4.918404	0.833200	0.009835
 554	2.7650e-01	5.5275	4.804798	0.000145	1.454137	0.246337	0.002908
 555	2.7700e-01	5.5347	4.845850	0.000411	4.105798	0.695541	0.008210
 556	2.7750e-01	5.5481	4.888185	0.000423	4.234104	0.717277	0.008467
 557	2.7800e-01	5.5569	4.908283	0.000201	2.010130	0.340525	0.004020
 558	2.7850e-01	5.5646	4.974565	0.000663	6.629153	1.123009	0.013256
 559	2.7900e-01	5.5763	5.017327	0.000428	4.276873	0.724522	0.008553
 560	2.7950e-01	5.5865	5.058807	0.000415	4.148567	0.702786	0.008296
 561	2.8000e-01	5.5964	5.097721	0.000389	3.891954	0.659315	0.007783
 562	2.8050e-01	5.6085	5.121240	0.000235	2.352280	0.398487	0.004704
 563	2.8100e-01	5.6146	5.157161	0.000359	3.592573	0.608598	0.007184
 564	2.8150e-01	5.6270	5.194792	0.000376	3.763648	0.637579	0.007526
 565	2.8200e-01	5.6367	5.219166	0.000244	2.437817	0.412977	0.004875
 566	2.8250e-01	5.6470	5.261074	0.000419	4.191335	0.710031	0.008381
 567	2.8300e-01	5.6573	5.308968	0.000479	4.790097	0.811464	0.009579
 568	2.8350e-01	5.6665	5.343178	0.000342	3.421498	0.579617	0.006842
 569	2.8400e-01	5.6796	5.369263	0.000261	2.608892	0.441958	0.005217
 570	2.8450e-01	5.6879	5.412881	0.000436	4.362410	0.739012	0.008724
 571	2.8500e-01	5.6969	5.452650	0.000398	3.977492	0.673805	0.007954
 572	2.8550e-01	5.7062	5.515083	0.000624	6.244234	1.057802	0.012487
 573	2.8600e-01	5.7166	5.543306	0.000282	2.822736	0.478184	0.005645
 574	2.8650e-01	5.7278	5.556563	0.000133	1.325831	0.224602	0.002651
 575	2.8700e-01	5.7370	5.591628	0.000351	3.507036	0.594108	0.007013
 576	2.8750e-01	5.7474	5.650640	0.000590	5.902084	0.999840	0.011802
 577	2.8800e-01	5.7556	5.687844	0.000372	3.720879	0.630334	0.007441
 578	2.8850e-01	5.7654	5.705376	0.000175	1.753518	0.297054	0.003507
 579	2.8900e-01	5.7758	5.769520	0.000642	6.415309	1.086783	0.012829
 580	2.8950e-01	5.7864	5.802447	0.000329	3.293192	0.557882	0.006585
 581	2.9000e-01	5.7965	5.836230	0.000338	3.378729	0.572372	0.006756
 582	2.9050e-01	5.8058	5.880703	0.000445	4.447948	0.753503	0.008895
 583	2.9100e-01	5.8168	5.939715	0.000590	5.902084	0.999840	0.011802
 584	2.9150e-01	5.8258	5.960669	0.000210	2.095668	0.355016	0.004191
 585	2.9200e-01	5.8365	6.011556	0.000509	5.089479	0.862181	0.010177
 586	2.9250e-01	5.8453	6.028233	0.000167	1.667980	0.282564	0.003335
 587	2.9300e-01	5.8571	6.052608	0.000244	2.437817	0.412977	0.004875
 588	2.9350e-01	5.8661	6.106489	0.000539	5.388860	0.912898	0.010776
 589	2.9400e-01	5.8722	6.132574	0.000261	2.608892	0.441958	0.005217
 590	2.9450e-01	5.8870	6.186455	0.000539	5.388860	0.912898	0.010776
 591	2.9500e-01	5.8954	6.208264	0.000218	2.181205	0.369506	0.004362
 592	2.9550e-01	5.9094	6.233494	0.000252	2.523355	0.427468	0.005046
 593	2.9600e-01	5.9161	6.313460	0.000800	7.997752	1.354856	0.015993
 594	2.9650e-01	5.9247	6.329709	0.000163	1.625212	0.275318	0.003250
 595	2.9700e-01	5.9358	6.361781	0.000321	3.207655	0.543391	0.006414
 596	2.9750e-01	5.9439	6.419083	0.000573	5.731009	0.970859	0.011460
 597	2.9800e-01	5.9570	6.434905	0.000158	1.582443	0.268073	0.003164
 598	2.9850e-01	5.9668	6.477668	0.000428	4.276873	0.724522	0.008553
 599	2.9900e-01	5.9785	6.507601	0.000299	2.993811	0.507165	0.005987
 600	2.9950e-01	5.9845	6.561482	0.000539	5.388860	0.912898	0.010776
 601	3.0000e-01	5.9998	6.585429	0.000240	2.395049	0.405732	0.004789
 602	3.0050e-01	6.0089	6.622205	0.000368	3.678111	0.623089	0.007355
 603	3.0100e-01	6.0168	6.662829	0.000406	4.063029	0.688296	0.008125
 604	3.0150e-01	6.0284	6.716710	0.000539	5.388860	0.912898	0.010776
 605	3.0200e-01	6.0364	6.738091	0.000214	2.138436	0.362261	0.004276
 606	3.0250e-01	6.0464	6.781709	0.000436	4.362410	0.739012	0.008724
 607	3.0300e-01	6.0577	6.825327	0.000436	4.362410	0.739012	0.008724
 608	3.0350e-01	6.0645	6.854406	0.000291	2.908273	0.492675	0.005816
 609	3.0400e-01	6.0767	6.886477	0.000321	3.207655	0.543391	0.006414
 610	3.0450e-01	6.0861	6.922826	0.000364	3.635342	0.615844	0.007270
 611	3.0500e-01	6.0980	6.967726	0.000449	4.490716	0.760748	0.008980
 612	3.0550e-01	6.1047	6.987825	0.000201	2.010130	0.340525	0.004020
 613	3.0600e-01	6.1150	7.036574	0.000488	4.875635	0.825955	0.009750
 614	3.0650e-01	6.1279	7.064370	0.000278	2.779967	0.470939	0.005559
 615	3.0700e-01	6.1346	7.117395	0.000530	5.303322	0.898407	0.010605
 616	3.0750e-01	6.1478	7.150322	0.000329	3.293192	0.557882	0.006585
 617	3.0800e-01	6.1584	7.176407	0.000261	2.608892	0.441958	0.005217
 618	3.0850e-01	6.1658	7.203775	0.000274	2.737199	0.463694	0.005474
 619	3.0900e-01	6.1780	7.237558	0.000338	3.378729	0.572372	0.006756
 620	3.0950e-01	6.1877	7.285879	0.000483	4.832866	0.818710	0.009664
 621	3.1000e-01	6.1960	7.329070	0.000432	4.319641	0.731767	0.008638
 622	3.1050e-01	6.2054	7.380812	0.000518	5.175016	0.876671	0.010349
 623	3.1100e-01	6.2183	7.397062	0.000163	1.625212	0.275318	0.003250
 624	3.1150e-01	6.2265	7.431700	0.000346	3.464267	0.586863	0.006928
 625	3.1200e-01	6.2360	7.462489	0.000308	3.079348	0.521656	0.006158
 626	3.1250e-01	6.2479	7.503968	0.000415	4.148567	0.702786	0.008296
 627	3.1300e-01	6.2592	7.548441	0.000445	4.447948	0.753503	0.008895
 628	3.1350e-01	6.2695	7.573671	0.000252	2.523355	0.427468	0.005046
 629	3.1400e-01	6.2796	7.616006	0.000423	4.234104	0.717277	0.008467
 630	3.1450e-01	6.2885	7.646795	0.000308	3.079348	0.521656	0.006158
 631	3.1500e-01	6.2988	7.675018	0.000282	2.822736	0.478184	0.005645
 632	3.1550e-01	6.3080	7.725906	0.000509	5.089479	0.862181	0.010177
 633	3.1600e-01	6.3184	7.760543	0.000346	3.464267	0.586863	0.006928
 634	3.1650e-01	6.3287	7.799030	0.000385	3.849185	0.652070	0.007697
 635	3.1700e-01	6.3380	7.852911	0.000539	5.388860	0.912898	0.010776
 636	3.1750e-01	6.3452	7.870871	0.000180	1.796287	0.304299	0.003592
 637	3.1800e-01	6.3574	7.914916	0.000441	4.405179	0.746258	0.008809
 638	3.1850e-01	6.3684	7.948271	0.000334	3.335961	0.565127	0.006671
 639	3.1900e-01	6.3766	7.971363	0.000231	2.309511	0.391242	0.004618
 640	3.1950e-01	6.3873	8.005145	0.000338	3.378729	0.572372	0.006756
 641	3.2000e-01	6.3971	8.045770	0.000406	4.063029	0.688296	0.008125
 642	3.2050e-01	6.4081	8.088532	0.000428	4.276873	0.724522	0.008553
 643	3.2100e-01	6.4166	8.127874	0.000393	3.934723	0.666560	0.007868
 644	3.2150e-01	6.4290	8.160373	0.000325	3.250423	0.550637	0.006500
 645	3.2200e-01	6.4374	8.189879	0.000295	2.951042	0.499920	0.005901
 646	3.2250e-01	6.4465	8.217675	0.000278	2.779967	0.470939	0.005559
 647	3.2300e-01	6.4606	8.268562	0.000509	5.089479	0.862181	0.010177
 648	3.2350e-01	6.4673	8.302345	0.000338	3.378729	0.572372	0.006756
 649	3.2400e-01	6.4758	8.339120	0.000368	3.678111	0.623089	0.007355
 650	3.2450e-01	6.4864	8.376324	0.000372	3.720879	0.630334	0.007441
 651	3.2500e-01	6.4969	8.420369	0.000441	4.405179	0.746258	0.008809
 652	3.2550e-01	6.5070	8.455435	0.000351	3.507036	0.594108	0.007013
 653	3.2600e-01	6.5179	8.490927	0.000355	3.549804	0.601353	0.007099
 654	3.2650e-01	6.5265	8.519578	0.000287	2.865505	0.485430	0.005730
 655	3.2700e-01	6.5356	8.566190	0.000466	4.661791	0.789729	0.009322
 656	3.2750e-01	6.5466	8.577308	0.000111	1.111987	0.188376	0.002224
 657	3.2800e-01	6.5576	8.625629	0.000483	4.832866	0.818710	0.009664
 658	3.2850e-01	6.5656	8.651287	0.000257	2.566124	0.434713	0.005132
 659	3.2900e-01	6.5753	8.694477	0.000432	4.319641	0.731767	0.008638
 660	3.2950e-01	6.5851	8.738522	0.000441	4.405179	0.746258	0.008809
 661	3.3000e-01	6.5955	8.749641	0.000111	1.111987	0.188376	0.002224
 662	3.3050e-01	6.6077	8.788982	0.000393	3.934723	0.666560	0.007868
 663	3.3100e-01	6.6168	8.845001	0.000560	5.602703	0.949124	0.011204
 664	3.3150e-01	6.6296	8.857830	0.000128	1.283062	0.217357	0.002566
 665	3.3200e-01	6.6376	8.919836	0.000620	6.201465	1.050557	0.012401
 666	3.3250e-01	6.6479	8.939506	0.000197	1.967361	0.333280	0.003934
 667	3.3300e-01	6.6573	8.980131	0.000406	4.063029	0.688296	0.008125
 668	3.3350e-01	6.6675	9.016051	0.000359	3.592573	0.608598	0.007184
 669	3.3400e-01	6.6788	9.064801	0.000488	4.875635	0.825955	0.009750
 670	3.3450e-01	6.6872	9.084471	0.000197	1.967361	0.333280	0.003934
 671	3.3500e-01	6.6962	9.126806	0.000423	4.234104	0.717277	0.008467
 672	3.3550e-01	6.7075	9.185391	0.000586	5.859316	0.992595	0.011717
 673	3.3600e-01	6.7183	9.174273	-0.000111	-1.111987	-0.188376	-0.002224
 674	3.3650e-01	6.7297	9.231574	0.000573	5.731009	0.970859	0.011460
 675	3.3700e-01	6.7355	9.260653	0.000291	2.908273	0.492675	0.005816
 676	3.3750e-01	6.7474	9.298712	0.000381	3.806417	0.644824	0.007612
 677	3.3800e-01	6.7590	9.339764	0.000411	4.105798	0.695541	0.008210
 678	3.3850e-01	6.7694	9.356441	0.000167	1.667980	0.282564	0.003335
 679	3.3900e-01	6.7780	9.410322	0.000539	5.388860	0.912898	0.010776
 680	3.3950e-01	6.7865	9.454367	0.000441	4.405179	0.746258	0.008809
 681	3.4000e-01	6.7993	9.487294	0.000329	3.293192	0.557882	0.006585
 682	3.4050e-01	6.8080	9.522787	0.000355	3.549804	0.601353	0.007099
 683	3.4100e-01	6.8179	9.571537	0.000488	4.875635	0.825955	0.009750
 684	3.4150e-01	6.8263	9.583510	0.000120	1.197524	0.202866	0.002395
 685	3.4200e-01	6.8384	9.610023	0.000265	2.651661	0.449204	0.005303
 686	3.4250e-01	6.8481	9.663904	0.000539	5.388860	0.912898	0.010776
 687	3.4300e-01	6.8591	9.709232	0.000453	4.533485	0.767993	0.009066
 688	3.4350e-01	6.8655	9.745152	0.000359	3.592573	0.608598	0.007184
 689	3.4400e-01	6.8768	9.769099	0.000240	2.395049	0.405732	0.004789
 690	3.4450e-01	6.8884	9.799888	0.000308	3.079348	0.521656	0.006158
 691	3.4500e-01	6.8985	9.834098	0.000342	3.421498	0.579617	0.006842
 692	3.4550e-01	6.9089	9.868308	0.000342	3.421498	0.579617	0.006842
 693	3.4600e-01	6.9199	9.916202	0.000479	4.790097	0.811464	0.009579
 694	3.4650e-01	6.9276	9.947847	0.000316	3.164886	0.536146	0.006329
 695	3.4700e-01	6.9373	9.959820	0.000120	1.197524	0.202866	0.002395
 696	3.4750e-01	6.9492	10.024819	0.000650	6.500847	1.101273	0.013000
 697	3.4800e-01	6.9580	10.044918	0.000201	2.010130	0.340525	0.004020
 698	3.4850e-01	6.9662	10.068009	0.000231	2.309511	0.391242	0.004618
 699	3.4900e-01	6.9788	10.112055	0.000441	4.405179	0.746258	0.008809
 700	3.4950e-01	6.9881	10.152252	0.000402	4.020260	0.681051	0.008039
 701	3.5000e-01	6.9966	10.186462	0.000342	3.421498	0.579617	0.006842
 702	3.5050e-01	7.0068	10.211692	0.000252	2.523355	0.427468	0.005046
 703	3.5100e-01	7.0160	10.271131	0.000594	5.944853	1.007085	0.011888
 704	3.5150e-01	7.0239	10.305769	0.000346	3.464267	0.586863	0.006928
 705	3.5200e-01	7.0374	10.314749	0.000090	0.898143	0.152150	0.001796
 706	3.5250e-01	7.0471	10.351097	0.000364	3.635342	0.615844	0.007270
 707	3.5300e-01	7.0569	10.401985	0.000509	5.089479	0.862181	0.010177
 708	3.5350e-01	7.0668	10.411820	0.000098	0.983681	0.166640	0.001967
 709	3.5400e-01	7.0776	10.463990	0.000522	5.217785	0.883917	0.010434
 710	3.5450e-01	7.0862	10.500339	0.000364	3.635342	0.615844	0.007270
 711	3.5500e-01	7.0996	10.535404	0.000351	3.507036	0.594108	0.007013
 712	3.5550e-01	7.1109	10.575601	0.000402	4.020260	0.681051	0.008039
 713	3.5600e-01	7.1155	10.612376	0.000368	3.678111	0.623089	0.007355
 714	3.5650e-01	7.1252	10.648297	0.000359	3.592573	0.608598	0.007184
 715	3.5700e-01	7.1362	10.681224	0.000329	3.293192	0.557882	0.006585
 716	3.5750e-01	7.1478	10.716717	0.000355	3.549804	0.601353	0.007099
 717	3.5800e-01	7.1552	10.746651	0.000299	2.993811	0.507165	0.005987
 718	3.5850e-01	7.1643	10.784282	0.000376	3.763648	0.637579	0.007526
 719	3.5900e-01	7.1771	10.827044	0.000428	4.276873	0.724522	0.008553
 720	3.5950e-01	7.1901	10.862965	0.000359	3.592573	0.608598	0.007184
 721	3.6000e-01	7.1973	10.866813	0.000038	0.384919	0.065207	0.000770
 722	3.6050e-01	7.2101	10.920694	0.000539	5.388860	0.912898	0.010776
 723	3.6100e-01	7.2171	10.976713	0.000560	5.602703	0.949124	0.011204
 724	3.6150e-01	7.2275	10.988259	0.000115	1.154756	0.195621	0.002309
 725	3.6200e-01	7.2382	11.045133	0.000569	5.688241	0.963614	0.011375
 726	3.6250e-01	7.2473	11.071646	0.000265	2.651661	0.449204	0.005303
 727	3.6300e-01	7.2562	11.081481	0.000098	0.983681	0.166640	0.001967
 728	3.6350e-01	7.2675	11.137928	0.000565	5.645472	0.956369	0.011289
 729	3.6400e-01	7.2766	11.179408	0.000415	4.148567	0.702786	0.008296
 730	3.6450e-01	7.2873	11.208486	0.000291	2.908273	0.492675	0.005816
 731	3.6500e-01	7.2952	11.239703	0.000312	3.122117	0.528901	0.006243
 732	3.6550e-01	7.3059	11.263650	0.000240	2.395049	0.405732	0.004789
 733	3.6600e-01	7.3157	11.289307	0.000257	2.566124	0.434713	0.005132
 734	3.6650e-01	7.3273	11.327366	0.000381	3.806417	0.644824	0.007612
 735	3.6700e-01	7.3370	11.374405	0.000470	4.704560	0.796974	0.009408
 736	3.6750e-01	7.3486	11.421016	0.000466	4.661791	0.789729	0.009322
 737	3.6800e-01	7.3572	11.452660	0.000316	3.164886	0.536146	0.006329
 738	3.6850e-01	7.3694	11.477462	0.000248	2.480586	0.420223	0.004960
 739	3.6900e-01	7.3752	11.518514	0.000411	4.105798	0.695541	0.008210
 740	3.6950e-01	7.3853	11.544600	0.000261	2.608892	0.441958	0.005217
 741	3.7000e-01	7.3965	11.578382	0.000338	3.378729	0.572372	0.006756
 742	3.7050e-01	7.4054	11.624138	0.000458	4.576254	0.775238	0.009151
 743	3.7100e-01	7.4164	11.637394	0.000133	1.325831	0.224602	0.002651
 744	3.7150e-01	7.4258	11.686144	0.000488	4.875635	0.825955	0.009750
 745	3.7200e-01	7.4353	11.701110	0.000150	1.496905	0.253583	0.002993
 746	3.7250e-01	7.4469	11.752425	0.000513	5.132247	0.869426	0.010263
 747	3.7300e-01	7.4591	11.784925	0.000325	3.250423	0.550637	0.006500
 748	3.7350e-01	7.4680	11.823839	0.000389	3.891954	0.659315	0.007783
 749	3.7400e-01	7.4768	11.873443	0.000496	4.961172	0.840445	0.009921
 750	3.7450e-01	7.4854	11.919627	0.000462	4.619023	0.782484	0.009237
 751	3.7500e-01	7.4988	11.934594	0.000150	1.496905	0.253583	0.002993
 752	3.7550e-01	7.5116	11.960251	0.000257	2.566124	0.434713	0.005132
 753	3.7600e-01	7.5153	11.992323	0.000321	3.207655	0.543391	0.006414
 754	3.7650e-01	7.5275	12.009001	0.000167	1.667980	0.282564	0.003335
 755	3.7700e-01	7.5348	12.077848	0.000689	6.885765	1.166480	0.013770
 756	3.7750e-01	7.5452	12.112058	0.000342	3.421498	0.579617	0.006842
 757	3.7800e-01	7.5549	12.161235	0.000492	4.918404	0.833200	0.009835
 758	3.7850e-01	7.5684	12.165084	0.000038	0.384919	0.065207	0.000770
 759	3.7900e-01	7.5751	12.221530	0.000565	5.645472	0.956369	0.011289
 760	3.7950e-01	7.5854	12.261727	0.000402	4.020260	0.681051	0.008039
 761	3.8000e-01	7.5989	12.264293	0.000026	0.256612	0.043471	0.000513
 762	3.8050e-01	7.6056	12.318601	0.000543	5.431628	0.920143	0.010862
 763	3.8100e-01	7.6154	12.352384	0.000338	3.378729	0.572372	0.006756
 764	3.8150e-01	7.6263	12.380179	0.000278	2.779967	0.470939	0.005559
 765	3.8200e-01	7.6399	12.415672	0.000355	3.549804	0.601353	0.007099
 766	3.8250e-01	7.6465	12.443895	0.000282	2.822736	0.478184	0.005645
 767	3.8300e-01	7.6544	12.478961	0.000351	3.507036	0.594108	0.007013
 768	3.8350e-01	7.6660	12.518730	0.000398	3.977492	0.673805	0.007954
 769	3.8400e-01	7.6785	12.547381	0.000287	2.865505	0.485430	0.005730
 770	3.8450e-01	7.6880	12.586722	0.000393	3.934723	0.666560	0.007868
 771	3.8500e-01	7.6990	12.620077	0.000334	3.335961	0.565127	0.006671
 772	3.8550e-01	7.7066	12.656853	0.000368	3.678111	0.623089	0.007355
 773	3.8600e-01	7.7155	12.694912	0.000381	3.806417	0.644824	0.007612
 774	3.8650e-01	7.7249	12.734253	0.000393	3.934723	0.666560	0.007868
 775	3.8700e-01	7.7362	12.772312	0.000381	3.806417	0.644824	0.007612
 776	3.8750e-01	7.7435	12.794548	0.000222	2.223974	0.376751	0.004447
 777	3.8800e-01	7.7588	12.838594	0.000441	4.405179	0.746258	0.008809
 778	3.8850e-01	7.7686	12.877080	0.000385	3.849185	0.652070	0.007697
 779	3.8900e-01	7.7753	12.920698	0.000436	4.362410	0.739012	0.008724
 780	3.8950e-01	7.7869	12.927112	0.000064	0.641531	0.108678	0.001283
 781	3.9000e-01	7.7966	12.970730	0.000436	4.362410	0.739012	0.008724
 782	3.9050e-01	7.8070	13.021617	0.000509	5.089479	0.862181	0.010177
 783	3.9100e-01	7.8186	13.045564	0.000240	2.395049	0.405732	0.004789
 784	3.9150e-01	7.8266	13.078919	0.000334	3.335961	0.565127	0.006671
 785	3.9200e-01	7.8339	13.122537	0.000436	4.362410	0.739012	0.008724
 786	3.9250e-01	7.8467	13.149905	0.000274	2.737199	0.463694	0.005474
 787	3.9300e-01	7.8592	13.182404	0.000325	3.250423	0.550637	0.006500
 788	3.9350e-01	7.8662	13.220891	0.000385	3.849185	0.652070	0.007697
 789	3.9400e-01	7.8769	13.243555	0.000227	2.266743	0.383997	0.004533
 790	3.9450e-01	7.8857	13.297436	0.000539	5.388860	0.912898	0.010776
 791	3.9500e-01	7.8979	13.326086	0.000287	2.865505	0.485430	0.005730
 792	3.9550e-01	7.9065	13.383816	0.000577	5.773778	0.978104	0.011546
 793	3.9600e-01	7.9181	13.398355	0.000145	1.454137	0.246337	0.002908
 794	3.9650e-01	7.9272	13.423585	0.000252	2.523355	0.427468	0.005046
 795	3.9700e-01	7.9346	13.483453	0.000599	5.987622	1.014331	0.011974
 796	3.9750e-01	7.9463	13.512959	0.000295	2.951042	0.499920	0.005901
 797	3.9800e-01	7.9535	13.550590	0.000376	3.763648	0.637579	0.007526
 798	3.9850e-01	7.9654	13.589931	0.000393	3.934723	0.666560	0.007868
 799	3.9900e-01	7.9773	13.613878	0.000240	2.395049	0.405732	0.004789
 800	3.9950e-01	7.9852	13.639108	0.000252	2.523355	0.427468	0.005046
 801	4.0000e-01	7.9968	13.694699	0.000556	5.559935	0.941878	0.011118
 802	4.0050e-01	8.0060	13.733186	0.000385	3.849185	0.652070	0.007697
 803	4.0100e-01	8.0157	13.749008	0.000158	1.582443	0.268073	0.003164
 804	4.0150e-01	8.0255	13.786639	0.000376	3.763648	0.637579	0.007526
 805	4.0200e-01	8.0365	13.831967	0.000453	4.533485	0.767993	0.009066
 806	4.0250e-01	8.0475	13.868315	0.000364	3.635342	0.615844	0.007270
 807	4.0300e-01	8.0557	13.872164	0.000038	0.384919	0.065207	0.000770
 808	4.0350e-01	8.0701	13.933742	0.000616	6.158697	1.043311	0.012316
 809	4.0400e-01	8.0798	13.962820	0.000291	2.908273	0.492675	0.005816
 810	4.0450e-01	8.0872	13.994892	0.000321	3.207655	0.543391	0.006414
 811	4.0500e-01	8.0969	14.036372	0.000415	4.148567	0.702786	0.008296
 812	4.0550e-01	8.1049	14.067589	0.000312	3.122117	0.528901	0.006243
 813	4.0600e-01	8.1165	14.100943	0.000334	3.335961	0.565127	0.006671
 814	4.0650e-01	8.1262	14.144134	0.000432	4.319641	0.731767	0.008638
 815	4.0700e-01	8.1360	14.179199	0.000351	3.507036	0.594108	0.007013
 816	4.0750e-01	8.1461	14.210843	0.000316	3.164886	0.536146	0.006329
 817	4.0800e-01	8.1561	14.271994	0.000612	6.115928	1.036066	0.012230
 818	4.0850e-01	8.1689	14.270711	-0.000013	-0.128306	-0.021736	-0.000257
 819	4.0900e-01	8.1769	14.330151	0.000594	5.944853	1.007085	0.011888
 820	4.0950e-01	8.1879	14.359229	0.000291	2.908273	0.492675	0.005816
 821	4.1000e-01	8.1946	14.386169	0.000269	2.694430	0.456449	0.005388
 822	4.1050e-01	8.2092	14.428932	0.000428	4.276873	0.724522	0.008553
 823	4.1100e-01	8.2159	14.476826	0.000479	4.790097	0.811464	0.009579
 824	4.1150e-01	8.2285	14.492221	0.000154	1.539674	0.260828	0.003079
 825	4.1200e-01	8.2367	14.524292	0.000321	3.207655	0.543391	0.006414
 826	4.1250e-01	8.2483	14.580311	0.000560	5.602703	0.949124	0.011204
 827	4.1300e-01	8.2544	14.611100	0.000308	3.079348	0.521656	0.006158
 828	4.1350e-01	8.2642	14.642317	0.000312	3.122117	0.528901	0.006243
 829	4.1400e-01	8.2779	14.676955	0.000346	3.464267	0.586863	0.006928
 830	4.1450e-01	8.2874	14.720145	0.000432	4.319641	0.731767	0.008638
 831	4.1500e-01	8.2959	14.746658	0.000265	2.651661	0.449204	0.005303
 832	4.1550e-01	8.3066	14.785144	0.000385	3.849185	0.652070	0.007697
 833	4.1600e-01	8.3182	14.812512	0.000274	2.737199	0.463694	0.005474
 834	4.1650e-01	8.3264	14.849715	0.000372	3.720879	0.630334	0.007441
 835	4.1700e-01	8.3380	14.892050	0.000423	4.234104	0.717277	0.008467
 836	4.1750e-01	8.3484	14.912576	0.000205	2.052899	0.347770	0.004105
 837	4.1800e-01	8.3582	14.958332	0.000458	4.576254	0.775238	0.009151
 838	4.1850e-01	8.3679	14.997246	0.000389	3.891954	0.659315	0.007783
 839	4.1900e-01	8.3759	15.038298	0.000411	4.105798	0.695541	0.008210
 840	4.1950e-01	8.3862	15.074219	0.000359	3.592573	0.608598	0.007184
 841	4.2000e-01	8.3954	15.096027	0.000218	2.181205	0.369506	0.004362
 842	4.2050e-01	8.4070	15.125106	0.000291	2.908273	0.492675	0.005816
 843	4.2100e-01	8.4192	15.155895	0.000308	3.079348	0.521656	0.006158
 844	4.2150e-01	8.4247	15.198230	0.000423	4.234104	0.717277	0.008467
 845	4.2200e-01	8.4363	15.227308	0.000291	2.908273	0.492675	0.005816
 846	4.2250e-01	8.4473	15.287604	0.000603	6.030391	1.021576	0.012059
 847	4.2300e-01	8.4570	15.323524	0.000359	3.592573	0.608598	0.007184
 848	4.2350e-01	8.4656	15.367569	0.000441	4.405179	0.746258	0.008809
 849	4.2400e-01	8.4766	15.396648	0.000291	2.908273	0.492675	0.005816
 850	4.2450e-01	8.4875	15.428720	0.000321	3.207655	0.543391	0.006414
 851	4.2500e-01	8.5001	15.472338	0.000436	4.362410	0.739012	0.008724
 852	4.2550e-01	8.5107	15.483884	0.000115	1.154756	0.195621	0.002309
 853	4.2600e-01	8.5168	15.518521	0.000346	3.464267	0.586863	0.006928
 854	4.2650e-01	8.5266	15.585231	0.000667	6.671921	1.130254	0.013342
 855	4.2700e-01	8.5361	15.627138	0.000419	4.191335	0.710031	0.008381
 856	4.2750e-01	8.5474	15.647664	0.000205	2.052899	0.347770	0.004105
 857	4.2800e-01	8.5561	15.686578	0.000389	3.891954	0.659315	0.007783
 858	4.2850e-01	8.5699	15.703683	0.000171	1.710749	0.289809	0.003421
 859	4.2900e-01	8.5760	15.741314	0.000376	3.763648	0.637579	0.007526
 860	4.2950e-01	8.5883	15.790063	0.000488	4.875635	0.825955	0.009750
 861	4.3000e-01	8.6006	15.819142	0.000291	2.908273	0.492675	0.005816
 862	4.3050e-01	8.6063	15.849076	0.000299	2.993811	0.507165	0.005987
 863	4.3100e-01	8.6157	15.888417	0.000393	3.934723	0.666560	0.007868
 864	4.3150e-01	8.6261	15.924338	0.000359	3.592573	0.608598	0.007184
 865	4.3200e-01	8.6383	15.979074	0.000547	5.474397	0.927388	0.010947
 866	4.3250e-01	8.6493	16.017132	0.000381	3.806417	0.644824	0.007612
 867	4.3300e-01	8.6560	16.051770	0.000346	3.464267	0.586863	0.006928
 868	4.3350e-01	8.6676	16.065026	0.000133	1.325831	0.224602	0.002651
 869	4.3400e-01	8.6774	16.123183	0.000582	5.816547	0.985350	0.011631
 870	4.3450e-01	8.6884	16.156538	0.000334	3.335961	0.565127	0.006671
 871	4.3500e-01	8.6975	16.198018	0.000415	4.148567	0.702786	0.008296
 872	4.3550e-01	8.7085	16.224531	0.000265	2.651661	0.449204	0.005303
 873	4.3600e-01	8.7177	16.261306	0.000368	3.678111	0.623089	0.007355
 874	4.3650e-01	8.7268	16.294233	0.000329	3.293192	0.557882	0.006585
 875	4.3700e-01	8.7366	16.334003	0.000398	3.977492	0.673805	0.007954
 876	4.3750e-01	8.7488	16.376338	0.000423	4.234104	0.717277	0.008467
 877	4.3800e-01	8.7585	16.405844	0.000295	2.951042	0.499920	0.005901
 878	4.3850e-01	8.7668	16.459297	0.000535	5.346091	0.905652	0.010691
 879	4.3900e-01	8.7769	16.483244	0.000240	2.395049	0.405732	0.004789
 880	4.3950e-01	8.7872	16.531993	0.000488	4.875635	0.825955	0.009750
 881	4.4000e-01	8.7967	16.567058	0.000351	3.507036	0.594108	0.007013
 882	4.4050e-01	8.8071	16.600841	0.000338	3.378729	0.572372	0.006756
 883	4.4100e-01	8.8181	16.633340	0.000325	3.250423	0.550637	0.006500
 884	4.4150e-01	8.8275	16.649162	0.000158	1.582443	0.268073	0.003164
 885	4.4200e-01	8.8391	16.708175	0.000590	5.902084	0.999840	0.011802
 886	4.4250e-01	8.8448	16.738536	0.000304	3.036580	0.514411	0.006072
 887	4.4300e-01	8.8565	16.769325	0.000308	3.079348	0.521656	0.006158
 888	4.4350e-01	8.8684	16.801825	0.000325	3.250423	0.550637	0.006500
 889	4.4400e-01	8.8770	16.859554	0.000577	5.773778	0.978104	0.011546
 890	4.4450e-01	8.8861	16.900606	0.000411	4.105798	0.695541	0.008210
 891	4.4500e-01	8.8965	16.939092	0.000385	3.849185	0.652070	0.007697
 892	4.4550e-01	8.9081	16.955770	0.000167	1.667980	0.282564	0.003335
 893	4.4600e-01	8.9172	16.999815	0.000441	4.405179	0.746258	0.008809
 894	4.4650e-01	8.9243	17.045143	0.000453	4.533485	0.767993	0.009066
 895	4.4700e-01	8.9355	17.073367	0.000282	2.822736	0.478184	0.005645
 896	4.4750e-01	8.9496	17.127248	0.000539	5.388860	0.912898	0.010776
 897	4.4800e-01	8.9563	17.147346	0.000201	2.010130	0.340525	0.004020
 898	4.4850e-01	8.9685	17.201227	0.000539	5.388860	0.912898	0.010776
 899	4.4900e-01	8.9758	17.247838	0.000466	4.661791	0.789729	0.009322
 900	4.4950e-01	8.9874	17.273923	0.000261	2.608892	0.441958	0.005217
 901	4.5000e-01	8.9960	17.322245	0.000483	4.832866	0.818710	0.009664
 902	4.5050e-01	9.0082	17.333791	0.000115	1.154756	0.195621	0.002309
 903	4.5100e-01	9.0161	17.389382	0.000556	5.559935	0.941878	0.011118
 904	4.5150e-01	9.0265	17.435993	0.000466	4.661791	0.789729	0.009322
 905	4.5200e-01	9.0350	17.458657	0.000227	2.266743	0.383997	0.004533
 906	4.5250e-01	9.0472	17.499709	0.000411	4.105798	0.695541	0.008210
 907	4.5300e-01	9.0576	17.528360	0.000287	2.865505	0.485430	0.005730
 908	4.5350e-01	9.0683	17.562570	0.000342	3.421498	0.579617	0.006842
 909	4.5400e-01	9.0747	17.630135	0.000676	6.757459	1.144745	0.013513
 910	4.5450e-01	9.0881	17.654937	0.000248	2.480586	0.420223	0.004960
 911	4.5500e-01	9.0985	17.708390	0.000535	5.346091	0.905652	0.010691
 912	4.5550e-01	9.1074	17.723785	0.000154	1.539674	0.260828	0.003079
 913	4.5600e-01	9.1156	17.759705	0.000359	3.592573	0.608598	0.007184
 914	4.5650e-01	9.1272	17.787073	0.000274	2.737199	0.463694	0.005474
 915	4.5700e-01	9.1382	17.856776	0.000697	6.971303	1.180971	0.013941
 916	4.5750e-01	9.1461	17.892269	0.000355	3.549804	0.601353	0.007099
 917	4.5800e-01	9.1541	17.915789	0.000235	2.352280	0.398487	0.004704
 918	4.5850e-01	9.1669	17.949571	0.000338	3.378729	0.572372	0.006756
 919	4.5900e-01	9.1760	17.992333	0.000428	4.276873	0.724522	0.008553
 920	4.5950e-01	9.1858	18.032530	0.000402	4.020260	0.681051	0.008039
 921	4.6000e-01	9.1995	18.079997	0.000475	4.747329	0.804219	0.009493
 922	4.6050e-01	9.2084	18.120621	0.000406	4.063029	0.688296	0.008125
 923	4.6100e-01	9.2148	18.165522	0.000449	4.490716	0.760748	0.008980
 924	4.6150e-01	9.2273	18.202297	0.000368	3.678111	0.623089	0.007355
 925	4.6200e-01	9.2371	18.237363	0.000351	3.507036	0.594108	0.007013
 926	4.6250e-01	9.2468	18.269862	0.000325	3.250423	0.550637	0.006500
 927	4.6300e-01	9.2581	18.314763	0.000449	4.490716	0.760748	0.008980
 928	4.6350e-01	9.2670	18.362657	0.000479	4.790097	0.811464	0.009579
 929	4.6400e-01	9.2773	18.400716	0.000381	3.806417	0.644824	0.007612
 930	4.6450e-01	9.2871	18.429794	0.000291	2.908273	0.492675	0.005816
 931	4.6500e-01	9.2963	18.472557	0.000428	4.276873	0.724522	0.008553
 932	4.6550e-01	9.3066	18.497787	0.000252	2.523355	0.427468	0.005046
 933	4.6600e-01	9.3164	18.521734	0.000240	2.395049	0.405732	0.004789
 934	4.6650e-01	9.3274	18.592292	0.000706	7.056840	1.195461	0.014112
 935	4.6700e-01	9.3362	18.641469	0.000492	4.918404	0.833200	0.009835
 936	4.6750e-01	9.3460	18.666698	0.000252	2.523355	0.427468	0.005046
 937	4.6800e-01	9.3542	18.711599	0.000449	4.490716	0.760748	0.008980
 938	4.6850e-01	9.3683	18.750085	0.000385	3.849185	0.652070	0.007697
 939	4.6900e-01	9.3756	18.788999	0.000389	3.891954	0.659315	0.007783
 940	4.6950e-01	9.3854	18.827913	0.000389	3.891954	0.659315	0.007783
 941	4.7000e-01	9.3958	18.873241	0.000453	4.533485	0.767993	0.009066
 942	4.7050e-01	9.4067	18.924129	0.000509	5.089479	0.862181	0.010177
 943	4.7100e-01	9.4156	18.941662	0.000175	1.753518	0.297054	0.003507
 944	4.7150e-01	9.4269	18.975016	0.000334	3.335961	0.565127	0.006671
 945	4.7200e-01	9.4379	19.025048	0.000500	5.003941	0.847691	0.010006
 946	4.7250e-01	9.4473	19.063107	0.000381	3.806417	0.644824	0.007612
 947	4.7300e-01	9.4562	19.111429	0.000483	4.832866	0.818710	0.009664
 948	4.7350e-01	9.4653	19.138369	0.000269	2.694430	0.456449	0.005388
 949	4.7400e-01	9.4772	19.176855	0.000385	3.849185	0.652070	0.007697
 950	4.7450e-01	9.4867	19.229453	0.000526	5.260553	0.891162	0.010520
 951	4.7500e-01	9.4977	19.262808	0.000334	3.335961	0.565127	0.006671
 952	4.7550e-01	9.5074	19.310702	0.000479	4.790097	0.811464	0.009579
 953	4.7600e-01	9.5184	19.362017	0.000513	5.132247	0.869426	0.010263
 954	4.7650e-01	9.5270	19.396227	0.000342	3.421498	0.579617	0.006842
 955	4.7700e-01	9.5386	19.418891	0.000227	2.266743	0.383997	0.004533
 956	4.7750e-01	9.5465	19.466785	0.000479	4.790097	0.811464	0.009579
 957	4.7800e-01	9.5557	19.511686	0.000449	4.490716	0.760748	0.008980
 958	4.7850e-01	9.5670	19.531357	0.000197	1.967361	0.333280	0.003934
 959	4.7900e-01	9.5770	19.592507	0.000612	6.115928	1.036066	0.012230
 960	4.7950e-01	9.5862	19.645533	0.000530	5.303322	0.898407	0.010605
 961	4.8000e-01	9.5952	19.682736	0.000372	3.720879	0.630334	0.007441
 962	4.8050e-01	9.6063	19.710104	0.000274	2.737199	0.463694	0.005474
 963	4.8100e-01	9.6167	19.753722	0.000436	4.362410	0.739012	0.008724
 964	4.8150e-01	9.6265	19.808458	0.000547	5.474397	0.927388	0.010947
 965	4.8200e-01	9.6368	19.838819	0.000304	3.036580	0.514411	0.006072
 966	4.8250e-01	9.6460	19.870036	0.000312	3.122117	0.528901	0.006243
 967	4.8300e-01	9.6600	19.929904	0.000599	5.987622	1.014331	0.011974
 968	4.8350e-01	9.6658	19.970528	0.000406	4.063029	0.688296	0.008125
 969	4.8400e-01	9.6777	20.012435	0.000419	4.191335	0.710031	0.008381
 970	4.8450e-01	9.6854	20.071448	0.000590	5.902084	0.999840	0.011802
 971	4.8500e-01	9.6991	20.082993	0.000115	1.154756	0.195621	0.002309
 972	4.8550e-01	9.7046	20.142433	0.000594	5.944853	1.007085	0.011888
 973	4.8600e-01	9.7150	20.174078	0.000316	3.164886	0.536146	0.006329
 974	4.8650e-01	9.7260	20.214274	0.000402	4.020260	0.681051	0.008039
 975	4.8700e-01	9.7327	20.275852	0.000616	6.158697	1.043311	0.012316
 976	4.8750e-01	9.7446	20.304931	0.000291	2.908273	0.492675	0.005816
 977	4.8800e-01	9.7559	20.339569	0.000346	3.464267	0.586863	0.006928
 978	4.8850e-01	9.7687	20.376772	0.000372	3.720879	0.630334	0.007441
 979	4.8900e-01	9.7766	20.435357	0.000586	5.859316	0.992595	0.011717
 980	4.8950e-01	9.7858	20.466146	0.000308	3.079348	0.521656	0.006158
 981	4.9000e-01	9.7943	20.521737	0.000556	5.559935	0.941878	0.011118
 982	4.9050e-01	9.8041	20.546539	0.000248	2.480586	0.420223	0.004960
 983	4.9100e-01	9.8151	20.599565	0.000530	5.303322	0.898407	0.010605
 984	4.9150e-01	9.8267	20.650452	0.000509	5.089479	0.862181	0.010177
 985	4.9200e-01	9.8364	20.667130	0.000167	1.667980	0.282564	0.003335
 986	4.9250e-01	9.8499	20.749234	0.000821	8.211596	1.391082	0.016421
 987	4.9300e-01	9.8541	20.780878	0.000316	3.164886	0.536146	0.006329
 988	4.9350e-01	9.8645	20.811667	0.000308	3.079348	0.521656	0.006158
 989	4.9400e-01	9.8758	20.842028	0.000304	3.036580	0.514411	0.006072
 990	4.9450e-01	9.8877	20.907027	0.000650	6.500847	1.101273	0.013000
 991	4.9500e-01	9.8944	20.942520	0.000355	3.549804	0.601353	0.007099
 992	4.9550e-01	9.9036	20.975020	0.000325	3.250423	0.550637	0.006500
 993	4.9600e-01	9.9152	21.028045	0.000530	5.303322	0.898407	0.010605
 994	4.9650e-01	9.9265	21.105873	0.000778	7.783908	1.318630	0.015566
 995	4.9700e-01	9.9380	21.109294	0.000034	0.342150	0.057962	0.000684
 996	4.9750e-01	9.9451	21.149491	0.000402	4.020260	0.681051	0.008039
 997	4.9800e-01	9.9564	21.204227	0.000547	5.474397	0.927388	0.010947
 998	4.9850e-01	9.9652	21.264094	0.000599	5.987622	1.014331	0.011974
 999	4.9900e-01	9.9774	21.298732	0.000346	3.464267	0.586863	0.006928
1000	4.9950e-01	9.9841	21.337218	0.000385	3.849185	0.652070	0.007697
1001	5.0000e-01	9.9945	21.382547	0.000453	4.533485	0.767993	0.009066
1002	5.0050e-01	9.9847	21.338929	0.000436	4.362410	0.739012	-0.008724
1003	5.0100e-01	9.9731	21.325672	0.000133	1.325831	0.224602	-0.002651
1004	5.0150e-01	9.9646	21.324817	0.000009	0.085537	0.014490	-0.000171
1005	5.0200e-01	9.9554	21.315837	0.000090	0.898143	0.152150	-0.001796
1006	5.0250e-01	9.9451	21.329521	-0.000137	-1.368599	-0.231847	0.002737
1007	5.0300e-01	9.9341	21.307712	0.000218	2.181205	0.369506	-0.004362
1008	5.0350e-01	9.9249	21.317120	-0.000094	-0.940912	-0.159395	0.001882
1009	5.0400e-01	9.9158	21.297877	0.000192	1.924593	0.326035	-0.003849
1010	5.0450e-01	9.9078	21.288897	0.000090	0.898143	0.152150	-0.001796
1011	5.0500e-01	9.8926	21.266660	0.000222	2.223974	0.376751	-0.004447
1012	5.0550e-01	9.8859	21.260673	0.000060	0.598762	0.101433	-0.001197
1013	5.0600e-01	9.8750	21.254687	0.000060	0.598762	0.101433	-0.001197
1014	5.0650e-01	9.8639	21.243141	0.000115	1.154756	0.195621	-0.002309
1015	5.0700e-01	9.8541	21.237582	0.000056	0.555993	0.094188	-0.001112
1016	5.0750e-01	9.8450	21.205937	0.000316	3.164886	0.536146	-0.006329
1017	5.0800e-01	9.8364	21.210214	-0.000043	-0.427687	-0.072452	0.000855
1018	5.0850e-01	9.8254	21.182418	0.000278	2.779967	0.470939	-0.005559
1019	5.0900e-01	9.8120	21.176859	0.000056	0.555993	0.094188	-0.001112
1020	5.0950e-01	9.8090	21.161037	0.000158	1.582443	0.268073	-0.003164
1021	5.1000e-01	9.7949	21.134952	0.000261	2.608892	0.441958	-0.005217
1022	5.1050e-01	9.7852	21.150774	-0.000158	-1.582443	-0.268073	0.003164
1023	5.1100e-01	9.7749	21.147353	0.000034	0.342150	0.057962	-0.000684
1024	5.1150e-01	9.7656	21.124261	0.000231	2.309511	0.391242	-0.004618
1025	5.1200e-01	9.7540	21.102880	0.000214	2.138436	0.362261	-0.004276
1026	5.1250e-01	9.7473	21.060545	0.000423	4.234104	0.717277	-0.008467
1027	5.1300e-01	9.7351	21.055841	0.000047	0.470456	0.079697	-0.000941
1028	5.1350e-01	9.7278	21.050282	0.000056	0.555993	0.094188	-0.001112
1029	5.1400e-01	9.7180	21.036170	0.000141	1.411368	0.239092	-0.002822
1030	5.1450e-01	9.7046	21.023769	0.000124	1.240293	0.210111	-0.002480
1031	5.1500e-01	9.6948	21.007947	0.000158	1.582443	0.268073	-0.003164
1032	5.1550e-01	9.6851	20.991697	0.000163	1.625212	0.275318	-0.003250
1033	5.1600e-01	9.6762	20.975447	0.000163	1.625212	0.275318	-0.003250
1034	5.1650e-01	9.6619	20.941237	0.000342	3.421498	0.579617	-0.006842
1035	5.1700e-01	9.6552	20.940382	0.000009	0.085537	0.014490	-0.000171
1036	5.1750e-01	9.6445	20.936961	0.000034	0.342150	0.057962	-0.000684
1037	5.1800e-01	9.6356	20.890778	0.000462	4.619023	0.782484	-0.009237
1038	5.1850e-01	9.6252	20.892488	-0.000017	-0.171075	-0.028981	0.000342
1039	5.1900e-01	9.6161	20.856140	0.000364	3.635342	0.615844	-0.007270
1040	5.1950e-01	9.6051	20.854429	0.000017	0.171075	0.028981	-0.000342
1041	5.2000e-01	9.5929	20.824923	0.000295	2.951042	0.499920	-0.005901
1042	5.2050e-01	9.5837	20.811239	0.000137	1.368599	0.231847	-0.002737
1043	5.2100e-01	9.5746	20.806535	0.000047	0.470456	0.079697	-0.000941
1044	5.2150e-01	9.5654	20.778740	0.000278	2.779967	0.470939	-0.005559
1045	5.2200e-01	9.5538	20.762918	0.000158	1.582443	0.268073	-0.003164
1046	5.2250e-01	9.5459	20.723576	0.000393	3.934723	0.666560	-0.007868
1047	5.2300e-01	9.5337	20.744530	-0.000210	-2.095668	-0.355016	0.004191
1048	5.2350e-01	9.5270	20.686800	0.000577	5.773778	0.978104	-0.011546
1049	5.2400e-01	9.5166	20.681669	0.000051	0.513225	0.086943	-0.001026
1050	5.2450e-01	9.5050	20.648314	0.000334	3.335961	0.565127	-0.006671
1051	5.2500e-01	9.4958	20.627788	0.000205	2.052899	0.347770	-0.004105
1052	5.2550e-01	9.4867	20.625222	0.000026	0.256612	0.043471	-0.000513
1053	5.2600e-01	9.4739	20.611966	0.000133	1.325831	0.224602	-0.002651
1054	5.2650e-01	9.4629	20.591440	0.000205	2.052899	0.347770	-0.004105
1055	5.2700e-01	9.4534	20.561078	0.000304	3.036580	0.514411	-0.006072
1056	5.2750e-01	9.4446	20.546112	0.000150	1.496905	0.253583	-0.002993
1057	5.2800e-01	9.4354	20.531145	0.000150	1.496905	0.253583	-0.002993
1058	5.2850e-01	9.4269	20.495224	0.000359	3.592573	0.608598	-0.007184
1059	5.2900e-01	9.4177	20.479830	0.000154	1.539674	0.260828	-0.003079
1060	5.2950e-01	9.4037	20.475553	0.000043	0.427687	0.072452	-0.000855
1061	5.3000e-01	9.3951	20.435357	0.000402	4.020260	0.681051	-0.008039
1062	5.3050e-01	9.3835	20.429797	0.000056	0.555993	0.094188	-0.001112
1063	5.3100e-01	9.3738	20.403712	0.000261	2.608892	0.441958	-0.005217
1064	5.3150e-01	9.3646	20.368219	0.000355	3.549804	0.601353	-0.007099
1065	5.3200e-01	9.3561	20.363943	0.000043	0.427687	0.072452	-0.000855
1066	5.3250e-01	9.3475	20.348976	0.000150	1.496905	0.253583	-0.002993
1067	5.3300e-01	9.3335	20.319043	0.000299	2.993811	0.507165	-0.005987
1068	5.3350e-01	9.3274	20.280556	0.000385	3.849185	0.652070	-0.007697
1069	5.3400e-01	9.3176	20.281839	-0.000013	-0.128306	-0.021736	0.000257
1070	5.3450e-01	9.3060	20.252761	0.000291	2.908273	0.492675	-0.005816
1071	5.3500e-01	9.2944	20.242925	0.000098	0.983681	0.166640	-0.001967
1072	5.3550e-01	9.2847	20.204867	0.000381	3.806417	0.644824	-0.007612
1073	5.3600e-01	9.2761	20.189472	0.000154	1.539674	0.260828	-0.003079
1074	5.3650e-01	9.2648	20.177926	0.000115	1.154756	0.195621	-0.002309
1075	5.3700e-01	9.2554	20.155262	0.000227	2.266743	0.383997	-0.004533
1076	5.3750e-01	9.2468	20.127894	0.000274	2.737199	0.463694	-0.005474
1077	5.3800e-01	9.2334	20.105230	0.000227	2.266743	0.383997	-0.004533
1078	5.3850e-01	9.2267	20.069309	0.000359	3.592573	0.608598	-0.007184
1079	5.3900e-01	9.2139	20.056481	0.000128	1.283062	0.217357	-0.002566
1080	5.3950e-01	9.2056	20.023126	0.000334	3.335961	0.565127	-0.006671
1081	5.4000e-01	9.1940	20.025264	-0.000021	-0.213844	-0.036226	0.000428
1082	5.4050e-01	9.1846	19.989771	0.000355	3.549804	0.601353	-0.007099
1083	5.4100e-01	9.1760	19.964541	0.000252	2.523355	0.427468	-0.005046
1084	5.4150e-01	9.1656	19.951712	0.000128	1.283062	0.217357	-0.002566
1085	5.4200e-01	9.1559	19.900397	0.000513	5.132247	0.869426	-0.010263
1086	5.4250e-01	9.1437	19.900397	-0.000000	-0.000000	-0.000000	0.000000
1087	5.4300e-01	9.1357	19.873885	0.000265	2.651661	0.449204	-0.005303
1088	5.4350e-01	9.1235	19.854642	0.000192	1.924593	0.326035	-0.003849
1089	5.4400e-01	9.1144	19.824280	0.000304	3.036580	0.514411	-0.006072
1090	5.4450e-01	9.1064	19.813589	0.000107	1.069218	0.181130	-0.002138
1091	5.4500e-01	9.0976	19.775958	0.000376	3.763648	0.637579	-0.007526
1092	5.4550e-01	9.0852	19.759281	0.000167	1.667980	0.282564	-0.003335
1093	5.4600e-01	9.0759	19.721650	0.000376	3.763648	0.637579	-0.007526
1094	5.4650e-01	9.0656	19.702407	0.000192	1.924593	0.326035	-0.003849
1095	5.4700e-01	9.0546	19.702407	-0.000000	-0.000000	-0.000000	0.000000
1096	5.4750e-01	9.0442	19.667769	0.000346	3.464267	0.586863	-0.006928
1097	5.4800e-01	9.0363	19.658362	0.000094	0.940912	0.159395	-0.001882
1098	5.4850e-01	9.0256	19.624579	0.000338	3.378729	0.572372	-0.006756
1099	5.4900e-01	9.0167	19.593790	0.000308	3.079348	0.521656	-0.006158
1100	5.4950e-01	9.0054	19.555731	0.000381	3.806417	0.644824	-0.007612
1101	5.5000e-01	8.9951	19.558725	-0.000030	-0.299381	-0.050717	0.000599
1102	5.5050e-01	8.9850	19.503134	0.000556	5.559935	0.941878	-0.011118
1103	5.5100e-01	8.9758	19.510403	-0.000073	-0.727068	-0.123169	0.001454
1104	5.5150e-01	8.9667	19.468924	0.000415	4.148567	0.702786	-0.008296
1105	5.5200e-01	8.9563	19.449680	0.000192	1.924593	0.326035	-0.003849
1106	5.5250e-01	8.9453	19.412905	0.000368	3.678111	0.623089	-0.007355
1107	5.5300e-01	8.9343	19.382971	0.000299	2.993811	0.507165	-0.005987
1108	5.5350e-01	8.9240	19.390240	-0.000073	-0.727068	-0.123169	0.001454
1109	5.5400e-01	8.9160	19.361162	0.000291	2.908273	0.492675	-0.005816
1110	5.5450e-01	8.9047	19.341491	0.000197	1.967361	0.333280	-0.003934
1111	5.5500e-01	8.8928	19.306426	0.000351	3.507036	0.594108	-0.007013
1112	5.5550e-01	8.8837	19.287183	0.000192	1.924593	0.326035	-0.003849
1113	5.5600e-01	8.8751	19.266657	0.000205	2.052899	0.347770	-0.004105
1114	5.5650e-01	8.8641	19.228598	0.000381	3.806417	0.644824	-0.007612
1115	5.5700e-01	8.8538	19.205079	0.000235	2.352280	0.398487	-0.004704
1116	5.5750e-01	8.8434	19.189257	0.000158	1.582443	0.268073	-0.003164
1117	5.5800e-01	8.8354	19.164882	0.000244	2.437817	0.412977	-0.004875
1118	5.5850e-01	8.8275	19.141363	0.000235	2.352280	0.398487	-0.004704
1119	5.5900e-01	8.8123	19.136659	0.000047	0.470456	0.079697	-0.000941
1120	5.5950e-01	8.8025	19.070377	0.000663	6.629153	1.123009	-0.013256
1121	5.6000e-01	8.7967	19.051134	0.000192	1.924593	0.326035	-0.003849
1122	5.6050e-01	8.7885	19.020772	0.000304	3.036580	0.514411	-0.006072
1123	5.6100e-01	8.7756	19.019917	0.000009	0.085537	0.014490	-0.000171
1124	5.6150e-01	8.7643	18.996398	0.000235	2.352280	0.398487	-0.004704
1125	5.6200e-01	8.7579	18.963898	0.000325	3.250423	0.550637	-0.006500
1126	5.6250e-01	8.7445	18.940806	0.000231	2.309511	0.391242	-0.004618
1127	5.6300e-01	8.7354	18.913011	0.000278	2.779967	0.470939	-0.005559
1128	5.6350e-01	8.7244	18.870248	0.000428	4.276873	0.724522	-0.008553
1129	5.6400e-01	8.7160	18.857419	0.000128	1.283062	0.217357	-0.002566
1130	5.6450e-01	8.7073	18.863834	-0.000064	-0.641531	-0.108678	0.001283
1131	5.6500e-01	8.6948	18.814229	0.000496	4.961172	0.840445	-0.009921
1132	5.6550e-01	8.6884	18.779592	0.000346	3.464267	0.586863	-0.006928
1133	5.6600e-01	8.6761	18.759921	0.000197	1.967361	0.333280	-0.003934
1134	5.6650e-01	8.6670	18.730415	0.000295	2.951042	0.499920	-0.005901
1135	5.6700e-01	8.6560	18.715448	0.000150	1.496905	0.253583	-0.002993
1136	5.6750e-01	8.6469	18.689790	0.000257	2.566124	0.434713	-0.005132
1137	5.6800e-01	8.6353	18.657291	0.000325	3.250423	0.550637	-0.006500
1138	5.6850e-01	8.6264	18.607686	0.000496	4.961172	0.840445	-0.009921
1139	5.6900e-01	8.6145	18.628212	-0.000205	-2.052899	-0.347770	0.004105
1140	5.6950e-01	8.6102	18.561075	0.000671	6.714690	1.137499	-0.013427
1141	5.7000e-01	8.5986	18.569200	-0.000081	-0.812606	-0.137659	0.001625
1142	5.7050e-01	8.5858	18.514892	0.000543	5.431628	0.920143	-0.010862
1143	5.7100e-01	8.5756	18.514036	0.000009	0.085537	0.014490	-0.000171
1144	5.7150e-01	8.5657	18.491800	0.000222	2.223974	0.376751	-0.004447
1145	5.7200e-01	8.5565	18.443906	0.000479	4.790097	0.811464	-0.009579
1146	5.7250e-01	8.5489	18.396439	0.000475	4.747329	0.804219	-0.009493
1147	5.7300e-01	8.5370	18.404992	-0.000086	-0.855375	-0.144904	0.001711
1148	5.7350e-01	8.5266	18.363512	0.000415	4.148567	0.702786	-0.008296
1149	5.7400e-01	8.5164	18.340848	0.000227	2.266743	0.383997	-0.004533
1150	5.7450e-01	8.5049	18.345124	-0.000043	-0.427687	-0.072452	0.000855
1151	5.7500e-01	8.4969	18.301507	0.000436	4.362410	0.739012	-0.008724
1152	5.7550e-01	8.4863	18.278415	0.000231	2.309511	0.391242	-0.004618
1153	5.7600e-01	8.4753	18.254468	0.000240	2.395049	0.405732	-0.004789
1154	5.7650e-01	8.4656	18.221113	0.000334	3.335961	0.565127	-0.006671
1155	5.7700e-01	8.4573	18.201015	0.000201	2.010130	0.340525	-0.004020
1156	5.7750e-01	8.4448	18.162101	0.000389	3.891954	0.659315	-0.007783
1157	5.7800e-01	8.4363	18.151838	0.000103	1.026449	0.173885	-0.002053
1158	5.7850e-01	8.4247	18.119338	0.000325	3.250423	0.550637	-0.006500
1159	5.7900e-01	8.4161	18.081707	0.000376	3.763648	0.637579	-0.007526
1160	5.7950e-01	8.4064	18.065457	0.000163	1.625212	0.275318	-0.003250
1161	5.8000e-01	8.3960	18.015853	0.000496	4.961172	0.840445	-0.009921
1162	5.8050e-01	8.3899	18.009438	0.000064	0.641531	0.108678	-0.001283
1163	5.8100e-01	8.3759	17.990195	0.000192	1.924593	0.326035	-0.003849
1164	5.8150e-01	8.3673	17.958979	0.000312	3.122117	0.528901	-0.006243
1165	5.8200e-01	8.3582	17.938453	0.000205	2.052899	0.347770	-0.004105
1166	5.8250e-01	8.3447	17.910229	0.000282	2.822736	0.478184	-0.005645
1167	5.8300e-01	8.3362	17.876019	0.000342	3.421498	0.579617	-0.006842
1168	5.8350e-01	8.3258	17.879440	-0.000034	-0.342150	-0.057962	0.000684
1169	5.8400e-01	8.3179	17.835395	0.000441	4.405179	0.746258	-0.008809
1170	5.8450e-01	8.3075	17.803751	0.000316	3.164886	0.536146	-0.006329
1171	5.8500e-01	8.2953	17.775100	0.000287	2.865505	0.485430	-0.005730
1172	5.8550e-01	8.2880	17.744738	0.000304	3.036580	0.514411	-0.006072
1173	5.8600e-01	8.2751	17.712667	0.000321	3.207655	0.543391	-0.006414
1174	5.8650e-01	8.2697	17.709245	0.000034	0.342150	0.057962	-0.000684
1175	5.8700e-01	8.2550	17.663062	0.000462	4.619023	0.782484	-0.009237
1176	5.8750e-01	8.2452	17.656220	0.000068	0.684300	0.115923	-0.001368
1177	5.8800e-01	8.2367	17.628424	0.000278	2.779967	0.470939	-0.005559
1178	5.8850e-01	8.2257	17.583951	0.000445	4.447948	0.753503	-0.008895
1179	5.8900e-01	8.2175	17.584807	-0.000009	-0.085537	-0.014490	0.000171
1180	5.8950e-01	8.2074	17.535202	0.000496	4.961172	0.840445	-0.009921
1181	5.9000e-01	8.1976	17.500564	0.000346	3.464267	0.586863	-0.006928
1182	5.9050e-01	8.1848	17.477473	0.000231	2.309511	0.391242	-0.004618
1183	5.9100e-01	8.1763	17.448394	0.000291	2.908273	0.492675	-0.005816
1184	5.9150e-01	8.1647	17.429579	0.000188	1.881824	0.318790	-0.003763
1185	5.9200e-01	8.1555	17.406914	0.000227	2.266743	0.383997	-0.004533
1186	5.9250e-01	8.1451	17.383823	0.000231	2.309511	0.391242	-0.004618
1187	5.9300e-01	8.1378	17.355599	0.000282	2.822736	0.478184	-0.005645
1188	5.9350e-01	8.1238	17.332508	0.000231	2.309511	0.391242	-0.004618
1189	5.9400e-01	8.1152	17.301291	0.000312	3.122117	0.528901	-0.006243
1190	5.9450e-01	8.1049	17.275633	0.000257	2.566124	0.434713	-0.005132
1191	5.9500e-01	8.0963	17.252114	0.000235	2.352280	0.398487	-0.004704
1192	5.9550e-01	8.0850	17.217476	0.000346	3.464267	0.586863	-0.006928
1193	5.9600e-01	8.0780	17.190108	0.000274	2.737199	0.463694	-0.005474
1194	5.9650e-01	8.0658	17.168300	0.000218	2.181205	0.369506	-0.004362
1195	5.9700e-01	8.0573	17.122971	0.000453	4.533485	0.767993	-0.009066
1196	5.9750e-01	8.0475	17.112281	0.000107	1.069218	0.181130	-0.002138
1197	5.9800e-01	8.0359	17.084485	0.000278	2.779967	0.470939	-0.005559
1198	5.9850e-01	8.0267	17.031887	0.000526	5.260553	0.891162	-0.010520
1199	5.9900e-01	8.0139	17.041722	-0.000098	-0.983681	-0.166640	0.001967
1200	5.9950e-01	8.0054	16.999815	0.000419	4.191335	0.710031	-0.008381
1201	6.0000e-01	7.9962	16.955342	0.000445	4.447948	0.753503	-0.008895
1202	6.0050e-01	7.9877	16.936527	0.000188	1.881824	0.318790	-0.003763
1203	6.0100e-01	7.9767	16.918139	0.000184	1.839055	0.311544	-0.003678
1204	6.0150e-01	7.9663	16.874093	0.000441	4.405179	0.746258	-0.008809
1205	6.0200e-01	7.9565	16.860409	0.000137	1.368599	0.231847	-0.002737
1206	6.0250e-01	7.9474	16.823206	0.000372	3.720879	0.630334	-0.007441
1207	6.0300e-01	7.9373	16.786003	0.000372	3.720879	0.630334	-0.007441
1208	6.0350e-01	7.9236	16.785147	0.000009	0.085537	0.014490	-0.000171
1209	6.0400e-01	7.9144	16.747944	0.000372	3.720879	0.630334	-0.007441
1210	6.0450e-01	7.9071	16.724424	0.000235	2.352280	0.398487	-0.004704
1211	6.0500e-01	7.8937	16.684228	0.000402	4.020260	0.681051	-0.008039
1212	6.0550e-01	7.8842	16.657287	0.000269	2.694430	0.456449	-0.005388
1213	6.0600e-01	7.8729	16.653011	0.000043	0.427687	0.072452	-0.000855
1214	6.0650e-01	7.8629	16.611104	0.000419	4.191335	0.710031	-0.008381
1215	6.0700e-01	7.8558	16.572618	0.000385	3.849185	0.652070	-0.007697
1216	6.0750e-01	7.8442	16.542684	0.000299	2.993811	0.507165	-0.005987
1217	6.0800e-01	7.8348	16.527717	0.000150	1.496905	0.253583	-0.002993
1218	6.0850e-01	7.8253	16.504197	0.000235	2.352280	0.398487	-0.004704
1219	6.0900e-01	7.8156	16.457586	0.000466	4.661791	0.789729	-0.009322
1220	6.0950e-01	7.8036	16.439626	0.000180	1.796287	0.304299	-0.003592
1221	6.1000e-01	7.7933	16.422949	0.000167	1.667980	0.282564	-0.003335
1222	6.1050e-01	7.7869	16.378048	0.000449	4.490716	0.760748	-0.008980
1223	6.1100e-01	7.7783	16.357094	0.000210	2.095668	0.355016	-0.004191
1224	6.1150e-01	7.7667	16.319036	0.000381	3.806417	0.644824	-0.007612
1225	6.1200e-01	7.7576	16.304069	0.000150	1.496905	0.253583	-0.002993
1226	6.1250e-01	7.7466	16.267721	0.000364	3.635342	0.615844	-0.007270
1227	6.1300e-01	7.7344	16.244629	0.000231	2.309511	0.391242	-0.004618
1228	6.1350e-01	7.7255	16.220682	0.000240	2.395049	0.405732	-0.004789
1229	6.1400e-01	7.7161	16.151834	0.000689	6.885765	1.166480	-0.013770
1230	6.1450e-01	7.7057	16.150979	0.000009	0.085537	0.014490	-0.000171
1231	6.1500e-01	7.6953	16.127887	0.000231	2.309511	0.391242	-0.004618
1232	6.1550e-01	7.6846	16.100519	0.000274	2.737199	0.463694	-0.005474
1233	6.1600e-01	7.6746	16.069730	0.000308	3.079348	0.521656	-0.006158
1234	6.1650e-01	7.6660	16.032099	0.000376	3.763648	0.637579	-0.007526
1235	6.1700e-01	7.6541	16.021836	0.000103	1.026449	0.173885	-0.002053
1236	6.1750e-01	7.6456	15.983778	0.000381	3.806417	0.644824	-0.007612
1237	6.1800e-01	7.6379	15.961969	0.000218	2.181205	0.369506	-0.004362
1238	6.1850e-01	7.6251	15.933318	0.000287	2.865505	0.485430	-0.005730
1239	6.1900e-01	7.6141	15.886707	0.000466	4.661791	0.789729	-0.009322
1240	6.1950e-01	7.6050	15.879009	0.000077	0.769837	0.130414	-0.001539
1241	6.2000e-01	7.5992	15.825556	0.000535	5.346091	0.905652	-0.010691
1242	6.2050e-01	7.5854	15.828122	-0.000026	-0.256612	-0.043471	0.000513
1243	6.2100e-01	7.5732	15.814866	0.000133	1.325831	0.224602	-0.002651
1244	6.2150e-01	7.5636	15.773386	0.000415	4.148567	0.702786	-0.008296
1245	6.2200e-01	7.5568	15.746018	0.000274	2.737199	0.463694	-0.005474
1246	6.2250e-01	7.5473	15.704111	0.000419	4.191335	0.710031	-0.008381
1247	6.2300e-01	7.5360	15.682302	0.000218	2.181205	0.369506	-0.004362
1248	6.2350e-01	7.5269	15.662203	0.000201	2.010130	0.340525	-0.004020
1249	6.2400e-01	7.5171	15.610461	0.000518	5.175016	0.876671	-0.010349
1250	6.2450e-01	7.5055	15.580527	0.000299	2.993811	0.507165	-0.005987
1251	6.2500e-01	7.4951	15.569409	0.000111	1.111987	0.188376	-0.002224
1252	6.2550e-01	7.4841	15.532205	0.000372	3.720879	0.630334	-0.007441
1253	6.2600e-01	7.4744	15.494147	0.000381	3.806417	0.644824	-0.007612
1254	6.2650e-01	7.4646	15.470627	0.000235	2.352280	0.398487	-0.004704
1255	6.2700e-01	7.4554	15.447535	0.000231	2.309511	0.391242	-0.004618
1256	6.2750e-01	7.4438	15.410760	0.000368	3.678111	0.623089	-0.007355
1257	6.2800e-01	7.4341	15.375267	0.000355	3.549804	0.601353	-0.007099
1258	6.2850e-01	7.4261	15.364148	0.000111	1.111987	0.188376	-0.002224
1259	6.2900e-01	7.4146	15.336780	0.000274	2.737199	0.463694	-0.005474
1260	6.2950e-01	7.4072	15.288459	0.000483	4.832866	0.818710	-0.009664
1261	6.3000e-01	7.3969	15.267078	0.000214	2.138436	0.362261	-0.004276
1262	6.3050e-01	7.3856	15.258097	0.000090	0.898143	0.152150	-0.001796
1263	6.3100e-01	7.3767	15.202506	0.000556	5.559935	0.941878	-0.011118
1264	6.3150e-01	7.3657	15.178559	0.000240	2.395049	0.405732	-0.004789
1265	6.3200e-01	7.3569	15.154612	0.000240	2.395049	0.405732	-0.004789
1266	6.3250e-01	7.3465	15.134941	0.000197	1.967361	0.333280	-0.003934
1267	6.3300e-01	7.3367	15.098166	0.000368	3.678111	0.623089	-0.007355
1268	6.3350e-01	7.3251	15.048561	0.000496	4.961172	0.840445	-0.009921
1269	6.3400e-01	7.3157	15.038298	0.000103	1.026449	0.173885	-0.002053
1270	6.3450e-01	7.3065	14.998529	0.000398	3.977492	0.673805	-0.007954
1271	6.3500e-01	7.2931	14.992542	0.000060	0.598762	0.101433	-0.001197
1272	6.3550e-01	7.2845	14.939944	0.000526	5.260553	0.891162	-0.010520
1273	6.3600e-01	7.2769	14.942082	-0.000021	-0.213844	-0.036226	0.000428
1274	6.3650e-01	7.2650	14.885636	0.000565	5.645472	0.956369	-0.011289
1275	6.3700e-01	7.2546	14.850571	0.000351	3.507036	0.594108	-0.007013
1276	6.3750e-01	7.2430	14.830472	0.000201	2.010130	0.340525	-0.004020
1277	6.3800e-01	7.2385	14.791131	0.000393	3.934723	0.666560	-0.007868
1278	6.3850e-01	7.2266	14.763763	0.000274	2.737199	0.463694	-0.005474
1279	6.3900e-01	7.2150	14.739816	0.000240	2.395049	0.405732	-0.004789
1280	6.3950e-01	7.2052	14.698764	0.000411	4.105798	0.695541	-0.008210
1281	6.4000e-01	7.1936	14.691066	0.000077	0.769837	0.130414	-0.001539
1282	6.4050e-01	7.1851	14.656001	0.000351	3.507036	0.594108	-0.007013
1283	6.4100e-01	7.1768	14.631626	0.000244	2.437817	0.412977	-0.004875
1284	6.4150e-01	7.1661	14.601265	0.000304	3.036580	0.514411	-0.006072
1285	6.4200e-01	7.1564	14.564062	0.000372	3.720879	0.630334	-0.007441
1286	6.4250e-01	7.1455	14.516168	0.000479	4.790097	0.811464	-0.009579
1287	6.4300e-01	7.1358	14.485806	0.000304	3.036580	0.514411	-0.006072
1288	6.4350e-01	7.1252	14.485806	-0.000000	-0.000000	-0.000000	0.000000
1289	6.4400e-01	7.1161	14.452451	0.000334	3.335961	0.565127	-0.006671
1290	6.4450e-01	7.1060	14.393439	0.000590	5.902084	0.999840	-0.011802
1291	6.4500e-01	7.0947	14.410544	-0.000171	-1.710749	-0.289809	0.003421
1292	6.4550e-01	7.0862	14.339986	0.000706	7.056840	1.195461	-0.014112
1293	6.4600e-01	7.0734	14.318605	0.000214	2.138436	0.362261	-0.004276
1294	6.4650e-01	7.0667	14.283967	0.000346	3.464267	0.586863	-0.006928
1295	6.4700e-01	7.0563	14.243770	0.000402	4.020260	0.681051	-0.008039
1296	6.4750e-01	7.0441	14.232224	0.000115	1.154756	0.195621	-0.002309
1297	6.4800e-01	7.0374	14.191172	0.000411	4.105798	0.695541	-0.008210
1298	6.4850e-01	7.0271	14.180054	0.000111	1.111987	0.188376	-0.002224
1299	6.4900e-01	7.0154	14.156535	0.000235	2.352280	0.398487	-0.004704
1300	6.4950e-01	7.0062	14.120187	0.000364	3.635342	0.615844	-0.007270
1301	6.5000e-01	6.9977	14.074858	0.000453	4.533485	0.767993	-0.009066
1302	6.5050e-01	6.9861	14.057326	0.000175	1.753518	0.297054	-0.003507
1303	6.5100e-01	6.9766	14.026964	0.000304	3.036580	0.514411	-0.006072
1304	6.5150e-01	6.9678	13.982491	0.000445	4.447948	0.753503	-0.008895
1305	6.5200e-01	6.9563	13.960682	0.000218	2.181205	0.369506	-0.004362
1306	6.5250e-01	6.9476	13.940156	0.000205	2.052899	0.347770	-0.004105
1307	6.5300e-01	6.9366	13.909795	0.000304	3.036580	0.514411	-0.006072
1308	6.5350e-01	6.9241	13.885848	0.000240	2.395049	0.405732	-0.004789
1309	6.5400e-01	6.9159	13.849927	0.000359	3.592573	0.608598	-0.007184
1310	6.5450e-01	6.9070	13.805882	0.000441	4.405179	0.746258	-0.008809
1311	6.5500e-01	6.8945	13.778514	0.000274	2.737199	0.463694	-0.005474
1312	6.5550e-01	6.8854	13.732758	0.000458	4.576254	0.775238	-0.009151
1313	6.5600e-01	6.8781	13.733186	-0.000004	-0.042769	-0.007245	0.000086
1314	6.5650e-01	6.8658	13.709666	0.000235	2.352280	0.398487	-0.004704
1315	6.5700e-01	6.8506	13.683154	0.000265	2.651661	0.449204	-0.005303
1316	6.5750e-01	6.8463	13.624569	0.000586	5.859316	0.992595	-0.011717
1317	6.5800e-01	6.8356	13.587793	0.000368	3.678111	0.623089	-0.007355
1318	6.5850e-01	6.8268	13.569405	0.000184	1.839055	0.311544	-0.003678
1319	6.5900e-01	6.8170	13.544175	0.000252	2.523355	0.427468	-0.005046
1320	6.5950e-01	6.8069	13.518090	0.000261	2.608892	0.441958	-0.005217
1321	6.6000e-01	6.7963	13.495426	0.000227	2.266743	0.383997	-0.004533
1322	6.6050e-01	6.7865	13.424868	0.000706	7.056840	1.195461	-0.014112
1323	6.6100e-01	6.7725	13.408190	0.000167	1.667980	0.282564	-0.003335
1324	6.6150e-01	6.7657	13.391085	0.000171	1.710749	0.289809	-0.003421
1325	6.6200e-01	6.7566	13.350461	0.000406	4.063029	0.688296	-0.008125
1326	6.6250e-01	6.7432	13.322665	0.000278	2.779967	0.470939	-0.005559
1327	6.6300e-01	6.7340	13.276054	0.000466	4.661791	0.789729	-0.009322
1328	6.6350e-01	6.7249	13.252535	0.000235	2.352280	0.398487	-0.004704
1329	6.6400e-01	6.7166	13.237568	0.000150	1.496905	0.253583	-0.002993
1330	6.6450e-01	6.7067	13.187963	0.000496	4.961172	0.840445	-0.009921
1331	6.6500e-01	6.6949	13.171286	0.000167	1.667980	0.282564	-0.003335
1332	6.6550e-01	6.6837	13.125958	0.000453	4.533485	0.767993	-0.009066
1333	6.6600e-01	6.6754	13.113557	0.000124	1.240293	0.210111	-0.002480
1334	6.6650e-01	6.6656	13.076781	0.000368	3.678111	0.623089	-0.007355
1335	6.6700e-01	6.6562	13.037439	0.000393	3.934723	0.666560	-0.007868
1336	6.6750e-01	6.6455	12.994249	0.000432	4.319641	0.731767	-0.008638
1337	6.6800e-01	6.6376	12.971585	0.000227	2.266743	0.383997	-0.004533
1338	6.6850e-01	6.6278	12.948066	0.000235	2.352280	0.398487	-0.004704
1339	6.6900e-01	6.6144	12.925829	0.000222	2.223974	0.376751	-0.004447
1340	6.6950e-01	6.6046	12.889053	0.000368	3.678111	0.623089	-0.007355
1341	6.7000e-01	6.5945	12.865962	0.000231	2.309511	0.391242	-0.004618
1342	6.7050e-01	6.5854	12.820206	0.000458	4.576254	0.775238	-0.009151
1343	6.7100e-01	6.5778	12.797114	0.000231	2.309511	0.391242	-0.004618
1344	6.7150e-01	6.5645	12.751786	0.000453	4.533485	0.767993	-0.009066
1345	6.7200e-01	6.5555	12.738957	0.000128	1.283062	0.217357	-0.002566
1346	6.7250e-01	6.5442	12.691918	0.000470	4.704560	0.796974	-0.009408
1347	6.7300e-01	6.5334	12.694912	-0.000030	-0.299381	-0.050717	0.000599
1348	6.7350e-01	6.5247	12.637182	0.000577	5.773778	0.978104	-0.011546
1349	6.7400e-01	6.5161	12.598268	0.000389	3.891954	0.659315	-0.007783
1350	6.7450e-01	6.5054	12.573894	0.000244	2.437817	0.412977	-0.004875
1351	6.7500e-01	6.4954	12.544387	0.000295	2.951042	0.499920	-0.005901
1352	6.7550e-01	6.4850	12.519158	0.000252	2.523355	0.427468	-0.005046
1353	6.7600e-01	6.4761	12.492645	0.000265	2.651661	0.449204	-0.005303
1354	6.7650e-01	6.4679	12.433205	0.000594	5.944853	1.007085	-0.011888
1355	6.7700e-01	6.4545	12.427218	0.000060	0.598762	0.101433	-0.001197
1356	6.7750e-01	6.4462	12.387021	0.000402	4.020260	0.681051	-0.008039
1357	6.7800e-01	6.4346	12.358370	0.000287	2.865505	0.485430	-0.005730
1358	6.7850e-01	6.4270	12.303207	0.000552	5.517166	0.934633	-0.011033
1359	6.7900e-01	6.4142	12.274984	0.000282	2.822736	0.478184	-0.005645
1360	6.7950e-01	6.4050	12.249326	0.000257	2.566124	0.434713	-0.005132
1361	6.8000e-01	6.3965	12.236070	0.000133	1.325831	0.224602	-0.002651
1362	6.8050e-01	6.3855	12.203998	0.000321	3.207655	0.543391	-0.006414
1363	6.8100e-01	6.3766	12.175347	0.000287	2.865505	0.485430	-0.005730
1364	6.8150e-01	6.3647	12.151827	0.000235	2.352280	0.398487	-0.004704
1365	6.8200e-01	6.3533	12.097091	0.000547	5.474397	0.927388	-0.010947
1366	6.8250e-01	6.3464	12.074855	0.000222	2.223974	0.376751	-0.004447
1367	6.8300e-01	6.3354	12.026533	0.000483	4.832866	0.818710	-0.009664
1368	6.8350e-01	6.3263	12.000020	0.000265	2.651661	0.449204	-0.005303
1369	6.8400e-01	6.3165	11.970514	0.000295	2.951042	0.499920	-0.005901
1370	6.8450e-01	6.3049	11.915351	0.000552	5.517166	0.934633	-0.011033
1371	6.8500e-01	6.2933	11.920482	-0.000051	-0.513225	-0.086943	0.001026
1372	6.8550e-01	6.2857	11.890976	0.000295	2.951042	0.499920	-0.005901
1373	6.8600e-01	6.2772	11.834529	0.000565	5.645472	0.956369	-0.011289
1374	6.8650e-01	6.2634	11.827260	0.000073	0.727068	0.123169	-0.001454
1375	6.8700e-01	6.2567	11.775090	0.000522	5.217785	0.883917	-0.010434
1376	6.8750e-01	6.2463	11.757557	0.000175	1.753518	0.297054	-0.003507
1377	6.8800e-01	6.2355	11.697262	0.000603	6.030391	1.021576	-0.012059
1378	6.8850e-01	6.2268	11.676736	0.000205	2.052899	0.347770	-0.004105
1379	6.8900e-01	6.2134	11.645947	0.000308	3.079348	0.521656	-0.006158
1380	6.8950e-01	6.2041	11.615585	0.000304	3.036580	0.514411	-0.006072
1381	6.9000e-01	6.1969	11.576671	0.000389	3.891954	0.659315	-0.007783
1382	6.9050e-01	6.1865	11.552724	0.000240	2.395049	0.405732	-0.004789
1383	6.9100e-01	6.1780	11.514238	0.000385	3.849185	0.652070	-0.007697
1384	6.9150e-01	6.1649	11.494995	0.000192	1.924593	0.326035	-0.003849
1385	6.9200e-01	6.1554	11.455226	0.000398	3.977492	0.673805	-0.007954
1386	6.9250e-01	6.1432	11.425292	0.000299	2.993811	0.507165	-0.005987
1387	6.9300e-01	6.1353	11.372267	0.000530	5.303322	0.898407	-0.010605
1388	6.9350e-01	6.1261	11.379964	-0.000077	-0.769837	-0.130414	0.001539
1389	6.9400e-01	6.1163	11.339339	0.000406	4.063029	0.688296	-0.008125
1390	6.9450e-01	6.1026	11.297432	0.000419	4.191335	0.710031	-0.008381
1391	6.9500e-01	6.0944	11.254670	0.000428	4.276873	0.724522	-0.008553
1392	6.9550e-01	6.0876	11.213618	0.000411	4.105798	0.695541	-0.008210
1393	6.9600e-01	6.0760	11.173848	0.000398	3.977492	0.673805	-0.007954
1394	6.9650e-01	6.0684	11.177697	-0.000038	-0.384919	-0.065207	0.000770
1395	6.9700e-01	6.0555	11.133224	0.000445	4.447948	0.753503	-0.008895
1396	6.9750e-01	6.0437	11.104146	0.000291	2.908273	0.492675	-0.005816
1397	6.9800e-01	6.0339	11.063949	0.000402	4.020260	0.681051	-0.008039
1398	6.9850e-01	6.0275	11.035725	0.000282	2.822736	0.478184	-0.005645
1399	6.9900e-01	6.0164	10.998950	0.000368	3.678111	0.623089	-0.007355
1400	6.9950e-01	6.0037	10.977996	0.000210	2.095668	0.355016	-0.004191
1401	7.0000e-01	5.9964	10.921550	0.000565	5.645472	0.956369	-0.011289
1402	7.0050e-01	5.9863	10.897602	0.000240	2.395049	0.405732	-0.004789
1403	7.0100e-01	5.9763	10.868096	0.000295	2.951042	0.499920	-0.005901
1404	7.0150e-01	5.9674	10.837735	0.000304	3.036580	0.514411	-0.006072
1405	7.0200e-01	5.9573	10.820630	0.000171	1.710749	0.289809	-0.003421
1406	7.0250e-01	5.9460	10.772736	0.000479	4.790097	0.811464	-0.009579
1407	7.0300e-01	5.9378	10.735105	0.000376	3.763648	0.637579	-0.007526
1408	7.0350e-01	5.9284	10.700895	0.000342	3.421498	0.579617	-0.006842
1409	7.0400e-01	5.9180	10.664547	0.000364	3.635342	0.615844	-0.007270
1410	7.0450e-01	5.9045	10.653856	0.000107	1.069218	0.181130	-0.002138
1411	7.0500e-01	5.8957	10.608955	0.000449	4.490716	0.760748	-0.008980
1412	7.0550e-01	5.8868	10.571752	0.000372	3.720879	0.630334	-0.007441
1413	7.0600e-01	5.8755	10.516161	0.000556	5.559935	0.941878	-0.011118
1414	7.0650e-01	5.8658	10.493069	0.000231	2.309511	0.391242	-0.004618
1415	7.0700e-01	5.8557	10.455010	0.000381	3.806417	0.644824	-0.007612
1416	7.0750e-01	5.8466	10.438333	0.000167	1.667980	0.282564	-0.003335
1417	7.0800e-01	5.8362	10.398136	0.000402	4.020260	0.681051	-0.008039
1418	7.0850e-01	5.8261	10.365637	0.000325	3.250423	0.550637	-0.006500
1419	7.0900e-01	5.8156	10.340834	0.000248	2.480586	0.420223	-0.004960
1420	7.0950e-01	5.8069	10.309190	0.000316	3.164886	0.536146	-0.006329
1421	7.1000e-01	5.7941	10.288664	0.000205	2.052899	0.347770	-0.004105
1422	7.1050e-01	5.7841	10.231362	0.000573	5.731009	0.970859	-0.011460
1423	7.1100e-01	5.7764	10.207843	0.000235	2.352280	0.398487	-0.004704
1424	7.1150e-01	5.7654	10.154817	0.000530	5.303322	0.898407	-0.010605
1425	7.1200e-01	5.7556	10.143272	0.000115	1.154756	0.195621	-0.002309
1426	7.1250e-01	5.7486	10.100081	0.000432	4.319641	0.731767	-0.008638
1427	7.1300e-01	5.7361	10.068865	0.000312	3.122117	0.528901	-0.006243
1428	7.1350e-01	5.7236	10.035510	0.000334	3.335961	0.565127	-0.006671
1429	7.1400e-01	5.7159	9.985478	0.000500	5.003941	0.847691	-0.010006
1430	7.1450e-01	5.7043	9.967518	0.000180	1.796287	0.304299	-0.003592
1431	7.1500e-01	5.6970	9.947847	0.000197	1.967361	0.333280	-0.003934
1432	7.1550e-01	5.6866	9.911926	0.000359	3.592573	0.608598	-0.007184
1433	7.1600e-01	5.6746	9.863605	0.000483	4.832866	0.818710	-0.009664
1434	7.1650e-01	5.6635	9.828112	0.000355	3.549804	0.601353	-0.007099
1435	7.1700e-01	5.6555	9.811434	0.000167	1.667980	0.282564	-0.003335
1436	7.1750e-01	5.6464	9.752422	0.000590	5.902084	0.999840	-0.011802
1437	7.1800e-01	5.6360	9.736600	0.000158	1.582443	0.268073	-0.003164
1438	7.1850e-01	5.6253	9.682719	0.000539	5.388860	0.912898	-0.010776
1439	7.1900e-01	5.6140	9.660483	0.000222	2.223974	0.376751	-0.004447
1440	7.1950e-01	5.6070	9.630121	0.000304	3.036580	0.514411	-0.006072
1441	7.2000e-01	5.5936	9.590352	0.000398	3.977492	0.673805	-0.007954
1442	7.2050e-01	5.5814	9.570254	0.000201	2.010130	0.340525	-0.004020
1443	7.2100e-01	5.5780	9.520221	0.000500	5.003941	0.847691	-0.010006
1444	7.2150e-01	5.5679	9.491571	0.000287	2.865505	0.485430	-0.005730
1445	7.2200e-01	5.5548	9.466341	0.000252	2.523355	0.427468	-0.005046
1446	7.2250e-01	5.5426	9.438973	0.000274	2.737199	0.463694	-0.005474
1447	7.2300e-01	5.5373	9.398776	0.000402	4.020260	0.681051	-0.008039
1448	7.2350e-01	5.5265	9.344040	0.000547	5.474397	0.927388	-0.010947
1449	7.2400e-01	5.5179	9.323941	0.000201	2.010130	0.340525	-0.004020
1450	7.2450e-01	5.5038	9.281607	0.000423	4.234104	0.717277	-0.008467
1451	7.2500e-01	5.4974	9.227298	0.000543	5.431628	0.920143	-0.010862
1452	7.2550e-01	5.4874	9.227298	-0.000000	-0.000000	-0.000000	0.000000
1453	7.2600e-01	5.4739	9.180259	0.000470	4.704560	0.796974	-0.009408
1454	7.2650e-01	5.4642	9.143484	0.000368	3.678111	0.623089	-0.007355
1455	7.2700e-01	5.4550	9.113977	0.000295	2.951042	0.499920	-0.005901
1456	7.2750e-01	5.4462	9.080195	0.000338	3.378729	0.572372	-0.006756
1457	7.2800e-01	5.4401	9.057103	0.000231	2.309511	0.391242	-0.004618
1458	7.2850e-01	5.4242	9.019472	0.000376	3.763648	0.637579	-0.007526
1459	7.2900e-01	5.4150	8.976710	0.000428	4.276873	0.724522	-0.008553
1460	7.2950e-01	5.4047	8.940362	0.000364	3.635342	0.615844	-0.007270
1461	7.3000e-01	5.3946	8.888191	0.000522	5.217785	0.883917	-0.010434
1462	7.3050e-01	5.3873	8.858685	0.000295	2.951042	0.499920	-0.005901
1463	7.3100e-01	5.3751	8.842435	0.000163	1.625212	0.275318	-0.003250
1464	7.3150e-01	5.3693	8.836449	0.000060	0.598762	0.101433	-0.001197
1465	7.3200e-01	5.3577	8.795824	0.000406	4.063029	0.688296	-0.008125
1466	7.3250e-01	5.3448	8.728259	0.000676	6.757459	1.144745	-0.013513
1467	7.3300e-01	5.3349	8.706878	0.000214	2.138436	0.362261	-0.004276
1468	7.3350e-01	5.3241	8.658557	0.000483	4.832866	0.818710	-0.009664
1469	7.3400e-01	5.3165	8.637175	0.000214	2.138436	0.362261	-0.004276
1470	7.3450e-01	5.3041	8.596979	0.000402	4.020260	0.681051	-0.008039
1471	7.3500e-01	5.2939	8.551223	0.000458	4.576254	0.775238	-0.009151
1472	7.3550e-01	5.2850	8.524710	0.000265	2.651661	0.449204	-0.005303
1473	7.3600e-01	5.2740	8.486651	0.000381	3.806417	0.644824	-0.007612
1474	7.3650e-01	5.2643	8.457573	0.000291	2.908273	0.492675	-0.005816
1475	7.3700e-01	5.2554	8.410534	0.000470	4.704560	0.796974	-0.009408
1476	7.3750e-01	5.2477	8.385304	0.000252	2.523355	0.427468	-0.005046
1477	7.3800e-01	5.2365	8.368627	0.000167	1.667980	0.282564	-0.003335
1478	7.3850e-01	5.2258	8.322015	0.000466	4.661791	0.789729	-0.009322
1479	7.3900e-01	5.2158	8.278398	0.000436	4.362410	0.739012	-0.008724
1480	7.3950e-01	5.2057	8.231359	0.000470	4.704560	0.796974	-0.009408
1481	7.4000e-01	5.1953	8.198004	0.000334	3.335961	0.565127	-0.006671
1482	7.4050e-01	5.1868	8.170636	0.000274	2.737199	0.463694	-0.005474
1483	7.4100e-01	5.1764	8.128729	0.000419	4.191335	0.710031	-0.008381
1484	7.4150e-01	5.1688	8.099650	0.000291	2.908273	0.492675	-0.005816
1485	7.4200e-01	5.1587	8.066296	0.000334	3.335961	0.565127	-0.006671
1486	7.4250e-01	5.1462	8.035934	0.000304	3.036580	0.514411	-0.006072
1487	7.4300e-01	5.1355	7.994882	0.000411	4.105798	0.695541	-0.008210
1488	7.4350e-01	5.1251	7.958534	0.000364	3.635342	0.615844	-0.007270
1489	7.4400e-01	5.1163	7.932021	0.000265	2.651661	0.449204	-0.005303
1490	7.4450e-01	5.1033	7.873437	0.000586	5.859316	0.992595	-0.011717
1491	7.4500e-01	5.0964	7.843503	0.000299	2.993811	0.507165	-0.005987
1492	7.4550e-01	5.0854	7.819556	0.000240	2.395049	0.405732	-0.004789
1493	7.4600e-01	5.0760	7.784490	0.000351	3.507036	0.594108	-0.007013
1494	7.4650e-01	5.0636	7.748142	0.000364	3.635342	0.615844	-0.007270
1495	7.4700e-01	5.0557	7.722485	0.000257	2.566124	0.434713	-0.005132
1496	7.4750e-01	5.0453	7.670742	0.000518	5.175016	0.876671	-0.010349
1497	7.4800e-01	5.0319	7.644229	0.000265	2.651661	0.449204	-0.005303
1498	7.4850e-01	5.0256	7.613013	0.000312	3.122117	0.528901	-0.006243
1499	7.4900e-01	5.0172	7.572388	0.000406	4.063029	0.688296	-0.008125
1500	7.4950e-01	5.0056	7.529198	0.000432	4.319641	0.731767	-0.008638
1501	7.5000e-01	4.9982	7.494988	0.000342	3.421498	0.579617	-0.006842
1502	7.5050e-01	4.9854	7.464199	0.000308	3.079348	0.521656	-0.006158
1503	7.5100e-01	4.9745	7.433410	0.000308	3.079348	0.521656	-0.006158
1504	7.5150e-01	4.9670	7.384661	0.000488	4.875635	0.825955	-0.009750
1505	7.5200e-01	4.9562	7.329070	0.000556	5.559935	0.941878	-0.011118
1506	7.5250e-01	4.9483	7.325649	0.000034	0.342150	0.057962	-0.000684
1507	7.5300e-01	4.9344	7.267492	0.000582	5.816547	0.985350	-0.011631
1508	7.5350e-01	4.9249	7.236275	0.000312	3.122117	0.528901	-0.006243
1509	7.5400e-01	4.9158	7.219170	0.000171	1.710749	0.289809	-0.003421
1510	7.5450e-01	4.9084	7.169565	0.000496	4.961172	0.840445	-0.009921
1511	7.5500e-01	4.8969	7.144335	0.000252	2.523355	0.427468	-0.005046
1512	7.5550e-01	4.8871	7.086178	0.000582	5.816547	0.985350	-0.011631
1513	7.5600e-01	4.8756	7.068218	0.000180	1.796287	0.304299	-0.003592
1514	7.5650e-01	4.8608	7.028021	0.000402	4.020260	0.681051	-0.008039
1515	7.5700e-01	4.8550	6.982693	0.000453	4.533485	0.767993	-0.009066
1516	7.5750e-01	4.8441	6.954470	0.000282	2.822736	0.478184	-0.005645
1517	7.5800e-01	4.8343	6.924536	0.000299	2.993811	0.507165	-0.005987
1518	7.5850e-01	4.8248	6.864669	0.000599	5.987622	1.014331	-0.011974
1519	7.5900e-01	4.8138	6.833024	0.000316	3.164886	0.536146	-0.006329
1520	7.5950e-01	4.8065	6.800097	0.000329	3.293192	0.557882	-0.006585
1521	7.6000e-01	4.7945	6.787696	0.000124	1.240293	0.210111	-0.002480
1522	7.6050e-01	4.7864	6.731249	0.000565	5.645472	0.956369	-0.011289
1523	7.6100e-01	4.7760	6.705592	0.000257	2.566124	0.434713	-0.005132
1524	7.6150e-01	4.7675	6.659836	0.000458	4.576254	0.775238	-0.009151
1525	7.6200e-01	4.7546	6.618356	0.000415	4.148567	0.702786	-0.008296
1526	7.6250e-01	4.7461	6.580725	0.000376	3.763648	0.637579	-0.007526
1527	7.6300e-01	4.7354	6.543522	0.000372	3.720879	0.630334	-0.007441
1528	7.6350e-01	4.7241	6.506319	0.000372	3.720879	0.630334	-0.007441
1529	7.6400e-01	4.7162	6.477240	0.000291	2.908273	0.492675	-0.005816
1530	7.6450e-01	4.7040	6.423787	0.000535	5.346091	0.905652	-0.010691
1531	7.6500e-01	4.6954	6.389577	0.000342	3.421498	0.579617	-0.006842
1532	7.6550e-01	4.6860	6.357933	0.000316	3.164886	0.536146	-0.006329
1533	7.6600e-01	4.6777	6.319446	0.000385	3.849185	0.652070	-0.007697
1534	7.6650e-01	4.6677	6.272408	0.000470	4.704560	0.796974	-0.009408
1535	7.6700e-01	4.6573	6.274546	-0.000021	-0.213844	-0.036226	0.000428
1536	7.6750e-01	4.6463	6.229645	0.000449	4.490716	0.760748	-0.008980
1537	7.6800e-01	4.6338	6.163791	0.000659	6.586384	1.115764	-0.013171
1538	7.6850e-01	4.6252	6.141982	0.000218	2.181205	0.369506	-0.004362
1539	7.6900e-01	4.6152	6.098792	0.000432	4.319641	0.731767	-0.008638
1540	7.6950e-01	4.6056	6.072707	0.000261	2.608892	0.441958	-0.005217
1541	7.7000e-01	4.5956	6.017970	0.000547	5.474397	0.927388	-0.010947
1542	7.7050e-01	4.5862	5.993596	0.000244	2.437817	0.412977	-0.004875
1543	7.7100e-01	4.5770	5.962379	0.000312	3.122117	0.528901	-0.006243
1544	7.7150e-01	4.5688	5.914485	0.000479	4.790097	0.811464	-0.009579
1545	7.7200e-01	4.5569	5.875144	0.000393	3.934723	0.666560	-0.007868
1546	7.7250e-01	4.5447	5.829815	0.000453	4.533485	0.767993	-0.009066
1547	7.7300e-01	4.5361	5.801164	0.000287	2.865505	0.485430	-0.005730
1548	7.7350e-01	4.5242	5.793895	0.000073	0.727068	0.123169	-0.001454
1549	7.7400e-01	4.5157	5.734883	0.000590	5.902084	0.999840	-0.011802
1550	7.7450e-01	4.5059	5.687416	0.000475	4.747329	0.804219	-0.009493
1551	7.7500e-01	4.4954	5.638239	0.000492	4.918404	0.833200	-0.009835
1552	7.7550e-01	4.4826	5.616003	0.000222	2.223974	0.376751	-0.004447
1553	7.7600e-01	4.4781	5.583931	0.000321	3.207655	0.543391	-0.006414
1554	7.7650e-01	4.4646	5.536464	0.000475	4.747329	0.804219	-0.009493
1555	7.7700e-01	4.4550	5.486005	0.000505	5.046710	0.854936	-0.010092
1556	7.7750e-01	4.4434	5.467617	0.000184	1.839055	0.311544	-0.003678
1557	7.7800e-01	4.4366	5.407749	0.000599	5.987622	1.014331	-0.011974
1558	7.7850e-01	4.4266	5.385513	0.000222	2.223974	0.376751	-0.004447
1559	7.7900e-01	4.4174	5.339757	0.000458	4.576254	0.775238	-0.009151
1560	7.7950e-01	4.4067	5.306830	0.000329	3.293192	0.557882	-0.006585
1561	7.8000e-01	4.3958	5.282455	0.000244	2.437817	0.412977	-0.004875
1562	7.8050e-01	4.3854	5.230712	0.000518	5.175016	0.876671	-0.010349
1563	7.8100e-01	4.3768	5.193081	0.000376	3.763648	0.637579	-0.007526
1564	7.8150e-01	4.3637	5.161009	0.000321	3.207655	0.543391	-0.006414
1565	7.8200e-01	4.3561	5.116536	0.000445	4.447948	0.753503	-0.008895
1566	7.8250e-01	4.3459	5.075484	0.000411	4.105798	0.695541	-0.008210
1567	7.8300e-01	4.3365	5.033149	0.000423	4.234104	0.717277	-0.008467
1568	7.8350e-01	4.3234	5.012196	0.000210	2.095668	0.355016	-0.004191
1569	7.8400e-01	4.3173	4.971571	0.000406	4.063029	0.688296	-0.008125
1570	7.8450e-01	4.3024	4.925816	0.000458	4.576254	0.775238	-0.009151
1571	7.8500e-01	4.2957	4.884764	0.000411	4.105798	0.695541	-0.008210
1572	7.8550e-01	4.2856	4.857823	0.000269	2.694430	0.456449	-0.005388
1573	7.8600e-01	4.2757	4.808219	0.000496	4.961172	0.840445	-0.009921
1574	7.8650e-01	4.2673	4.777857	0.000304	3.036580	0.514411	-0.006072
1575	7.8700e-01	4.2548	4.741509	0.000364	3.635342	0.615844	-0.007270
1576	7.8750e-01	4.2448	4.693615	0.000479	4.790097	0.811464	-0.009579
1577	7.8800e-01	4.2336	4.664536	0.000291	2.908273	0.492675	-0.005816
1578	7.8850e-01	4.2236	4.623057	0.000415	4.148567	0.702786	-0.008296
1579	7.8900e-01	4.2151	4.582005	0.000411	4.105798	0.695541	-0.008210
1580	7.8950e-01	4.2059	4.543519	0.000385	3.849185	0.652070	-0.007697
1581	7.9000e-01	4.1936	4.501184	0.000423	4.234104	0.717277	-0.008467
1582	7.9050e-01	4.1852	4.469967	0.000312	3.122117	0.528901	-0.006243
1583	7.9100e-01	4.1762	4.436185	0.000338	3.378729	0.572372	-0.006756
1584	7.9150e-01	4.1653	4.404113	0.000321	3.207655	0.543391	-0.006414
1585	7.9200e-01	4.1541	4.341252	0.000629	6.287003	1.065047	-0.012572
1586	7.9250e-01	4.1455	4.292503	0.000488	4.875635	0.825955	-0.009750
1587	7.9300e-01	4.1357	4.264279	0.000282	2.822736	0.478184	-0.005645
1588	7.9350e-01	4.1254	4.218523	0.000458	4.576254	0.775238	-0.009151
1589	7.9400e-01	4.1174	4.187734	0.000308	3.079348	0.521656	-0.006158
1590	7.9450e-01	4.1045	4.140268	0.000475	4.747329	0.804219	-0.009493
1591	7.9500e-01	4.0945	4.110334	0.000299	2.993811	0.507165	-0.005987
1592	7.9550e-01	4.0833	4.087242	0.000231	2.309511	0.391242	-0.004618
1593	7.9600e-01	4.0762	4.029941	0.000573	5.731009	0.970859	-0.011460
1594	7.9650e-01	4.0656	3.989316	0.000406	4.063029	0.688296	-0.008125
1595	7.9700e-01	4.0547	3.943988	0.000453	4.533485	0.767993	-0.009066
1596	7.9750e-01	4.0469	3.928166	0.000158	1.582443	0.268073	-0.003164
1597	7.9800e-01	4.0366	3.882837	0.000453	4.533485	0.767993	-0.009066
1598	7.9850e-01	4.0265	3.837937	0.000449	4.490716	0.760748	-0.008980
1599	7.9900e-01	4.0143	3.798168	0.000398	3.977492	0.673805	-0.007954
1600	7.9950e-01	4.0079	3.774648	0.000235	2.352280	0.398487	-0.004704
1601	8.0000e-01	3.9960	3.719057	0.000556	5.559935	0.941878	-0.011118
1602	8.0050e-01	3.9848	3.675867	0.000432	4.319641	0.731767	-0.008638
1603	8.0100e-01	3.9734	3.642512	0.000334	3.335961	0.565127	-0.006671
1604	8.0150e-01	3.9676	3.597184	0.000453	4.533485	0.767993	-0.009066
1605	8.0200e-01	3.9551	3.580506	0.000167	1.667980	0.282564	-0.003335
1606	8.0250e-01	3.9459	3.518073	0.000624	6.244234	1.057802	-0.012487
1607	8.0300e-01	3.9363	3.483863	0.000342	3.421498	0.579617	-0.006842
1608	8.0350e-01	3.9264	3.447087	0.000368	3.678111	0.623089	-0.007355
1609	8.0400e-01	3.9130	3.397910	0.000492	4.918404	0.833200	-0.009835
1610	8.0450e-01	3.9087	3.350016	0.000479	4.790097	0.811464	-0.009579
1611	8.0500e-01	3.8948	3.325642	0.000244	2.437817	0.412977	-0.004875
1612	8.0550e-01	3.8876	3.280313	0.000453	4.533485	0.767993	-0.009066
1613	8.0600e-01	3.8739	3.251235	0.000291	2.908273	0.492675	-0.005816
1614	8.0650e-01	3.8644	3.193078	0.000582	5.816547	0.985350	-0.011631
1615	8.0700e-01	3.8562	3.169559	0.000235	2.352280	0.398487	-0.004704
1616	8.0750e-01	3.8451	3.131072	0.000385	3.849185	0.652070	-0.007697
1617	8.0800e-01	3.8354	3.090875	0.000402	4.020260	0.681051	-0.008039
1618	8.0850e-01	3.8257	3.047258	0.000436	4.362410	0.739012	-0.008724
1619	8.0900e-01	3.8171	3.002357	0.000449	4.490716	0.760748	-0.008980
1620	8.0950e-01	3.8063	2.969858	0.000325	3.250423	0.550637	-0.006500
1621	8.1000e-01	3.7964	2.918115	0.000518	5.175016	0.876671	-0.010349
1622	8.1050e-01	3.7862	2.873642	0.000445	4.447948	0.753503	-0.008895
1623	8.1100e-01	3.7729	2.851833	0.000218	2.181205	0.369506	-0.004362
1624	8.1150e-01	3.7656	2.791965	0.000599	5.987622	1.014331	-0.011974
1625	8.1200e-01	3.7585	2.760749	0.000312	3.122117	0.528901	-0.006243
1626	8.1250e-01	3.7439	2.730815	0.000299	2.993811	0.507165	-0.005987
1627	8.1300e-01	3.7358	2.682066	0.000488	4.875635	0.825955	-0.009750
1628	8.1350e-01	3.7280	2.635027	0.000470	4.704560	0.796974	-0.009408
1629	8.1400e-01	3.7180	2.596968	0.000381	3.806417	0.644824	-0.007612
1630	8.1450e-01	3.7061	2.564469	0.000325	3.250423	0.550637	-0.006500
1631	8.1500e-01	3.6939	2.516147	0.000483	4.832866	0.818710	-0.009664
1632	8.1550e-01	3.6870	2.482365	0.000338	3.378729	0.572372	-0.006756
1633	8.1600e-01	3.6775	2.437036	0.000453	4.533485	0.767993	-0.009066
1634	8.1650e-01	3.6658	2.387432	0.000496	4.961172	0.840445	-0.009921
1635	8.1700e-01	3.6584	2.349373	0.000381	3.806417	0.644824	-0.007612
1636	8.1750e-01	3.6452	2.322005	0.000274	2.737199	0.463694	-0.005474
1637	8.1800e-01	3.6301	2.282664	0.000393	3.934723	0.666560	-0.007868
1638	8.1850e-01	3.6250	2.233487	0.000492	4.918404	0.833200	-0.009835
1639	8.1900e-01	3.6145	2.189441	0.000441	4.405179	0.746258	-0.008809
1640	8.1950e-01	3.6047	2.153093	0.000364	3.635342	0.615844	-0.007270
1641	8.2000e-01	3.5963	2.070989	0.000821	8.211596	1.391082	-0.016421
1642	8.2050e-01	3.5829	2.049608	0.000214	2.138436	0.362261	-0.004276
1643	8.2100e-01	3.5748	2.011549	0.000381	3.806417	0.644824	-0.007612
1644	8.2150e-01	3.5651	1.979905	0.000316	3.164886	0.536146	-0.006329
1645	8.2200e-01	3.5564	1.940991	0.000389	3.891954	0.659315	-0.007783
1646	8.2250e-01	3.5452	1.910202	0.000308	3.079348	0.521656	-0.006158
1647	8.2300e-01	3.5367	1.867440	0.000428	4.276873	0.724522	-0.008553
1648	8.2350e-01	3.5252	1.834085	0.000334	3.335961	0.565127	-0.006671
1649	8.2400e-01	3.5159	1.772507	0.000616	6.158697	1.043311	-0.012316
1650	8.2450e-01	3.5056	1.732738	0.000398	3.977492	0.673805	-0.007954
1651	8.2500e-01	3.4943	1.686554	0.000462	4.619023	0.782484	-0.009237
1652	8.2550e-01	3.4851	1.659614	0.000269	2.694430	0.456449	-0.005388
1653	8.2600e-01	3.4753	1.608726	0.000509	5.089479	0.862181	-0.010177
1654	8.2650e-01	3.4689	1.546721	0.000620	6.201465	1.050557	-0.012401
1655	8.2700e-01	3.4540	1.533892	0.000128	1.283062	0.217357	-0.002566
1656	8.2750e-01	3.4454	1.486853	0.000470	4.704560	0.796974	-0.009408
1657	8.2800e-01	3.4361	1.420999	0.000659	6.586384	1.115764	-0.013171
1658	8.2850e-01	3.4260	1.394914	0.000261	2.608892	0.441958	-0.005217
1659	8.2900e-01	3.4149	1.368829	0.000261	2.608892	0.441958	-0.005217
1660	8.2950e-01	3.4015	1.311954	0.000569	5.688241	0.963614	-0.011375
1661	8.3000e-01	3.3924	1.262777	0.000492	4.918404	0.833200	-0.009835
1662	8.3050e-01	3.3844	1.249949	0.000128	1.283062	0.217357	-0.002566
1663	8.3100e-01	3.3755	1.190509	0.000594	5.944853	1.007085	-0.011888
1664	8.3150e-01	3.3614	1.116530	0.000740	7.398990	1.253423	-0.014796
1665	8.3200e-01	3.3571	1.094293	0.000222	2.223974	0.376751	-0.004447
1666	8.3250e-01	3.3448	1.067780	0.000265	2.651661	0.449204	-0.005303
1667	8.3300e-01	3.3328	1.039557	0.000282	2.822736	0.478184	-0.005645
1668	8.3350e-01	3.3255	0.989097	0.000505	5.046710	0.854936	-0.010092
1669	8.3400e-01	3.3182	0.937355	0.000518	5.175016	0.876671	-0.010349
1670	8.3450e-01	3.3057	0.889461	0.000479	4.790097	0.811464	-0.009579
1671	8.3500e-01	3.2967	0.841139	0.000483	4.832866	0.818710	-0.009664
1672	8.3550e-01	3.2863	0.818475	0.000227	2.266743	0.383997	-0.004533
1673	8.3600e-01	3.2776	0.754331	0.000642	6.415309	1.086783	-0.012829
1674	8.3650e-01	3.2660	0.723542	0.000308	3.079348	0.521656	-0.006158
1675	8.3700e-01	3.2542	0.678641	0.000449	4.490716	0.760748	-0.008980
1676	8.3750e-01	3.2462	0.659826	0.000188	1.881824	0.318790	-0.003763
1677	8.3800e-01	3.2375	0.596537	0.000633	6.329772	1.072292	-0.012658
1678	8.3850e-01	3.2257	0.535387	0.000612	6.115928	1.036066	-0.012230
1679	8.3900e-01	3.2158	0.514433	0.000210	2.095668	0.355016	-0.004191
1680	8.3950e-01	3.2053	0.480223	0.000342	3.421498	0.579617	-0.006842
1681	8.4000e-01	3.1935	0.428053	0.000522	5.217785	0.883917	-0.010434
1682	8.4050e-01	3.1863	0.390422	0.000376	3.763648	0.637579	-0.007526
1683	8.4100e-01	3.1750	0.347659	0.000428	4.276873	0.724522	-0.008553
1684	8.4150e-01	3.1671	0.306180	0.000415	4.148567	0.702786	-0.008296
1685	8.4200e-01	3.1546	0.253154	0.000530	5.303322	0.898407	-0.010605
1686	8.4250e-01	3.1453	0.206971	0.000462	4.619023	0.782484	-0.009237
1687	8.4300e-01	3.1354	0.154800	0.000522	5.217785	0.883917	-0.010434
1688	8.4350e-01	3.1247	0.114604	0.000402	4.020260	0.681051	-0.008039
1689	8.4400e-01	3.1168	0.076973	0.000376	3.763648	0.637579	-0.007526
1690	8.4450e-01	3.1058	0.020954	0.000560	5.602703	0.949124	-0.011204
1691	8.4500e-01	3.0942	-0.000428	0.000214	2.138436	0.362261	-0.004276
1692	8.4550e-01	3.0844	-0.044473	0.000441	4.405179	0.746258	-0.008809
1693	8.4600e-01	3.0748	-0.088946	0.000445	4.447948	0.753503	-0.008895
1694	8.4650e-01	3.0672	-0.132136	0.000432	4.319641	0.731767	-0.008638
1695	8.4700e-01	3.0557	-0.192431	0.000603	6.030391	1.021576	-0.012059
1696	8.4750e-01	3.0447	-0.240325	0.000479	4.790097	0.811464	-0.009579
1697	8.4800e-01	3.0353	-0.270687	0.000304	3.036580	0.514411	-0.006072
1698	8.4850e-01	3.0249	-0.304042	0.000334	3.335961	0.565127	-0.006671
1699	8.4900e-01	3.0165	-0.360916	0.000569	5.688241	0.963614	-0.011375
1700	8.4950e-01	3.0054	-0.385718	0.000248	2.480586	0.420223	-0.004960
1701	8.5000e-01	2.9967	-0.430619	0.000449	4.490716	0.760748	-0.008980
1702	8.5050e-01	2.9865	-0.489631	0.000590	5.902084	0.999840	-0.011802
1703	8.5100e-01	2.9758	-0.545650	0.000560	5.602703	0.949124	-0.011204
1704	8.5150e-01	2.9646	-0.570452	0.000248	2.480586	0.420223	-0.004960
1705	8.5200e-01	2.9527	-0.606800	0.000364	3.635342	0.615844	-0.007270
1706	8.5250e-01	2.9469	-0.663674	0.000569	5.688241	0.963614	-0.011375
1707	8.5300e-01	2.9385	-0.698740	0.000351	3.507036	0.594108	-0.007013
1708	8.5350e-01	2.9224	-0.729101	0.000304	3.036580	0.514411	-0.006072
1709	8.5400e-01	2.9187	-0.810350	0.000813	8.126058	1.376592	-0.016250
1710	8.5450e-01	2.9037	-0.834725	0.000244	2.437817	0.412977	-0.004875
1711	8.5500e-01	2.8954	-0.874066	0.000393	3.934723	0.666560	-0.007868
1712	8.5550e-01	2.8858	-0.926664	0.000526	5.260553	0.891162	-0.010520
1713	8.5600e-01	2.8754	-0.964723	0.000381	3.806417	0.644824	-0.007612
1714	8.5650e-01	2.8622	-1.020742	0.000560	5.602703	0.949124	-0.011204
1715	8.5700e-01	2.8549	-1.052386	0.000316	3.164886	0.536146	-0.006329
1716	8.5750e-01	2.8439	-1.101990	0.000496	4.961172	0.840445	-0.009921
1717	8.5800e-01	2.8336	-1.148601	0.000466	4.661791	0.789729	-0.009322
1718	8.5850e-01	2.8265	-1.190509	0.000419	4.191335	0.710031	-0.008381
1719	8.5900e-01	2.8151	-1.249949	0.000594	5.944853	1.007085	-0.011888
1720	8.5950e-01	2.8058	-1.287152	0.000372	3.720879	0.630334	-0.007441
1721	8.6000e-01	2.7985	-1.327349	0.000402	4.020260	0.681051	-0.008039
1722	8.6050e-01	2.7847	-1.359848	0.000325	3.250423	0.550637	-0.006500
1723	8.6100e-01	2.7753	-1.392348	0.000325	3.250423	0.550637	-0.006500
1724	8.6150e-01	2.7638	-1.447939	0.000556	5.559935	0.941878	-0.011118
1725	8.6200e-01	2.7582	-1.491557	0.000436	4.362410	0.739012	-0.008724
1726	8.6250e-01	2.7431	-1.545010	0.000535	5.346091	0.905652	-0.010691
1727	8.6300e-01	2.7344	-1.610437	0.000654	6.543615	1.108518	-0.013085
1728	8.6350e-01	2.7235	-1.648923	0.000385	3.849185	0.652070	-0.007697
1729	8.6400e-01	2.7177	-1.639943	-0.000090	-0.898143	-0.152150	0.001796
1730	8.6450e-01	2.7044	-1.721192	0.000813	8.126058	1.376592	-0.016250
1731	8.6500e-01	2.6937	-1.788757	0.000676	6.757459	1.144745	-0.013513
1732	8.6550e-01	2.6843	-1.816980	0.000282	2.822736	0.478184	-0.005645
1733	8.6600e-01	2.6724	-1.868295	0.000513	5.132247	0.869426	-0.010263
1734	8.6650e-01	2.6659	-1.938853	0.000706	7.056840	1.195461	-0.014112
1735	8.6700e-01	2.6578	-1.965366	0.000265	2.651661	0.449204	-0.005303
1736	8.6750e-01	2.6414	-1.991023	0.000257	2.566124	0.434713	-0.005132
1737	8.6800e-01	2.6320	-2.059443	0.000684	6.842996	1.159235	-0.013684
1738	8.6850e-01	2.6264	-2.090232	0.000308	3.079348	0.521656	-0.006158
1739	8.6900e-01	2.6157	-2.148817	0.000586	5.859316	0.992595	-0.011717
1740	8.6950e-01	2.6074	-2.189014	0.000402	4.020260	0.681051	-0.008039
1741	8.7000e-01	2.5934	-2.230493	0.000415	4.148567	0.702786	-0.008296
1742	8.7050e-01	2.5856	-2.275394	0.000449	4.490716	0.760748	-0.008980
1743	8.7100e-01	2.5766	-2.315163	0.000398	3.977492	0.673805	-0.007954
1744	8.7150e-01	2.5661	-2.385721	0.000706	7.056840	1.195461	-0.014112
1745	8.7200e-01	2.5571	-2.418221	0.000325	3.250423	0.550637	-0.006500
1746	8.7250e-01	2.5461	-2.469108	0.000509	5.089479	0.862181	-0.010177
1747	8.7300e-01	2.5365	-2.496476	0.000274	2.737199	0.463694	-0.005474
1748	8.7350e-01	2.5267	-2.540949	0.000445	4.447948	0.753503	-0.008895
1749	8.7400e-01	2.5133	-2.592692	0.000518	5.175016	0.876671	-0.010349
1750	8.7450e-01	2.5043	-2.650849	0.000582	5.816547	0.985350	-0.011631
1751	8.7500e-01	2.4978	-2.712427	0.000616	6.158697	1.043311	-0.012316
1752	8.7550e-01	2.4854	-2.757328	0.000449	4.490716	0.760748	-0.008980
1753	8.7600e-01	2.4738	-2.794531	0.000372	3.720879	0.630334	-0.007441
1754	8.7650e-01	2.4656	-2.836438	0.000419	4.191335	0.710031	-0.008381
1755	8.7700e-01	2.4567	-2.875352	0.000389	3.891954	0.659315	-0.007783
1756	8.7750e-01	2.4444	-2.926667	0.000513	5.132247	0.869426	-0.010263
1757	8.7800e-01	2.4336	-2.945911	0.000192	1.924593	0.326035	-0.003849
1758	8.7850e-01	2.4273	-3.016469	0.000706	7.056840	1.195461	-0.014112
1759	8.7900e-01	2.4136	-3.057521	0.000411	4.105798	0.695541	-0.008210
1760	8.7950e-01	2.4057	-3.085744	0.000282	2.822736	0.478184	-0.005645
1761	8.8000e-01	2.3951	-3.173835	0.000881	8.810358	1.492515	-0.017618
1762	8.8050e-01	2.3865	-3.202486	0.000287	2.865505	0.485430	-0.005730
1763	8.8100e-01	2.3764	-3.246531	0.000441	4.405179	0.746258	-0.008809
1764	8.8150e-01	2.3629	-3.291859	0.000453	4.533485	0.767993	-0.009066
1765	8.8200e-01	2.3549	-3.349589	0.000577	5.773778	0.978104	-0.011546
1766	8.8250e-01	2.3459	-3.398338	0.000488	4.875635	0.825955	-0.009750
1767	8.8300e-01	2.3383	-3.435969	0.000376	3.763648	0.637579	-0.007526
1768	8.8350e-01	2.3245	-3.482153	0.000462	4.619023	0.782484	-0.009237
1769	8.8400e-01	2.3166	-3.523205	0.000411	4.105798	0.695541	-0.008210
1770	8.8450e-01	2.3068	-3.573237	0.000500	5.003941	0.847691	-0.010006
1771	8.8500e-01	2.2942	-3.619420	0.000462	4.619023	0.782484	-0.009237
1772	8.8550e-01	2.2856	-3.672873	0.000535	5.346091	0.905652	-0.010691
1773	8.8600e-01	2.2752	-3.705373	0.000325	3.250423	0.550637	-0.006500
1774	8.8650e-01	2.2644	-3.749418	0.000441	4.405179	0.746258	-0.008809
1775	8.8700e-01	2.2556	-3.800306	0.000509	5.089479	0.862181	-0.010177
1776	8.8750e-01	2.2458	-3.852904	0.000526	5.260553	0.891162	-0.010520
1777	8.8800e-01	2.2331	-3.913199	0.000603	6.030391	1.021576	-0.012059
1778	8.8850e-01	2.2238	-3.945698	0.000325	3.250423	0.550637	-0.006500
1779	8.8900e-01	2.2168	-4.006421	0.000607	6.073159	1.028821	-0.012145
1780	8.8950e-01	2.2055	-4.043625	0.000372	3.720879	0.630334	-0.007441
1781	8.9000e-01	2.1991	-4.097933	0.000543	5.431628	0.920143	-0.010862
1782	8.9050e-01	2.1851	-4.158656	0.000607	6.073159	1.028821	-0.012145
1783	8.9100e-01	2.1799	-4.199708	0.000411	4.105798	0.695541	-0.008210
1784	8.9150e-01	2.1658	-4.240760	0.000411	4.105798	0.695541	-0.008210
1785	8.9200e-01	2.1552	-4.295068	0.000543	5.431628	0.920143	-0.010862
1786	8.9250e-01	2.1457	-4.348094	0.000530	5.303322	0.898407	-0.010605
1787	8.9300e-01	2.1335	-4.405396	0.000573	5.731009	0.970859	-0.011460
1788	8.9350e-01	2.1260	-4.452862	0.000475	4.747329	0.804219	-0.009493
1789	8.9400e-01	2.1123	-4.459276	0.000064	0.641531	0.108678	-0.001283
1790	8.9450e-01	2.1045	-4.510591	0.000513	5.132247	0.869426	-0.010263
1791	8.9500e-01	2.0935	-4.578584	0.000680	6.800228	1.151990	-0.013598
1792	8.9550e-01	2.0825	-4.620491	0.000419	4.191335	0.710031	-0.008381
1793	8.9600e-01	2.0773	-4.677365	0.000569	5.688241	0.963614	-0.011375
1794	8.9650e-01	2.0642	-4.712431	0.000351	3.507036	0.594108	-0.007013
1795	8.9700e-01	2.0554	-4.776574	0.000642	6.415309	1.086783	-0.012829
1796	8.9750e-01	2.0447	-4.822758	0.000462	4.619023	0.782484	-0.009237
1797	8.9800e-01	2.0355	-4.883481	0.000607	6.073159	1.028821	-0.012145
1798	8.9850e-01	2.0259	-4.909993	0.000265	2.651661	0.449204	-0.005303
1799	8.9900e-01	2.0148	-4.972854	0.000629	6.287003	1.065047	-0.012572
1800	8.9950e-01	2.0023	-5.030156	0.000573	5.731009	0.970859	-0.011460
1801	9.0000e-01	1.9968	-5.080616	0.000505	5.046710	0.854936	-0.010092
1802	9.0050e-01	1.9825	-5.120813	0.000402	4.020260	0.681051	-0.008039
1803	9.0100e-01	1.9751	-5.175549	0.000547	5.474397	0.927388	-0.010947
1804	9.0150e-01	1.9644	-5.216601	0.000411	4.105798	0.695541	-0.008210
1805	9.0200e-01	1.9556	-5.256370	0.000398	3.977492	0.673805	-0.007954
1806	9.0250e-01	1.9452	-5.304264	0.000479	4.790097	0.811464	-0.009579
1807	9.0300e-01	1.9359	-5.362849	0.000586	5.859316	0.992595	-0.011717
1808	9.0350e-01	1.9214	-5.411170	0.000483	4.832866	0.818710	-0.009664
1809	9.0400e-01	1.9142	-5.472748	0.000616	6.158697	1.043311	-0.012316
1810	9.0450e-01	1.9067	-5.512945	0.000402	4.020260	0.681051	-0.008039
1811	9.0500e-01	1.8936	-5.562977	0.000500	5.003941	0.847691	-0.010006
1812	9.0550e-01	1.8847	-5.621562	0.000586	5.859316	0.992595	-0.011717
1813	9.0600e-01	1.8753	-5.659193	0.000376	3.763648	0.637579	-0.007526
1814	9.0650e-01	1.8652	-5.716922	0.000577	5.773778	0.978104	-0.011546
1815	9.0700e-01	1.8560	-5.741725	0.000248	2.480586	0.420223	-0.004960
1816	9.0750e-01	1.8472	-5.796888	0.000552	5.517166	0.934633	-0.011033
1817	9.0800e-01	1.8333	-5.840078	0.000432	4.319641	0.731767	-0.008638
1818	9.0850e-01	1.8242	-5.903795	0.000637	6.372540	1.079538	-0.012743
1819	9.0900e-01	1.8157	-5.950833	0.000470	4.704560	0.796974	-0.009408
1820	9.0950e-01	1.8042	-5.984616	0.000338	3.378729	0.572372	-0.006756
1821	9.1000e-01	1.7987	-6.065009	0.000804	8.040521	1.362101	-0.016079
1822	9.1050e-01	1.7852	-6.106489	0.000415	4.148567	0.702786	-0.008296
1823	9.1100e-01	1.7786	-6.160797	0.000543	5.431628	0.920143	-0.010862
1824	9.1150e-01	1.7640	-6.227935	0.000671	6.714690	1.137499	-0.013427
1825	9.1200e-01	1.7530	-6.271980	0.000441	4.405179	0.746258	-0.008809
1826	9.1250e-01	1.7435	-6.308328	0.000364	3.635342	0.615844	-0.007270
1827	9.1300e-01	1.7351	-6.347242	0.000389	3.891954	0.659315	-0.007783
1828	9.1350e-01	1.7249	-6.408820	0.000616	6.158697	1.043311	-0.012316
1829	9.1400e-01	1.7166	-6.463128	0.000543	5.431628	0.920143	-0.010862
1830	9.1450e-01	1.7049	-6.502042	0.000389	3.891954	0.659315	-0.007783
1831	9.1500e-01	1.6940	-6.544805	0.000428	4.276873	0.724522	-0.008553
1832	9.1550e-01	1.6832	-6.596120	0.000513	5.132247	0.869426	-0.010263
1833	9.1600e-01	1.6736	-6.661547	0.000654	6.543615	1.108518	-0.013085
1834	9.1650e-01	1.6647	-6.707730	0.000462	4.619023	0.782484	-0.009237
1835	9.1700e-01	1.6537	-6.773584	0.000659	6.586384	1.115764	-0.013171
1836	9.1750e-01	1.6458	-6.819340	0.000458	4.576254	0.775238	-0.009151
1837	9.1800e-01	1.6376	-6.854406	0.000351	3.507036	0.594108	-0.007013
1838	9.1850e-01	1.6224	-6.899306	0.000449	4.490716	0.760748	-0.008980
1839	9.1900e-01	1.6132	-6.957036	0.000577	5.773778	0.978104	-0.011546
1840	9.1950e-01	1.6066	-7.012627	0.000556	5.559935	0.941878	-0.011118
1841	9.2000e-01	1.5973	-7.066080	0.000535	5.346091	0.905652	-0.010691
1842	9.2050e-01	1.5829	-7.123809	0.000577	5.773778	0.978104	-0.011546
1843	9.2100e-01	1.5755	-7.162296	0.000385	3.849185	0.652070	-0.007697
1844	9.2150e-01	1.5632	-7.211900	0.000496	4.961172	0.840445	-0.009921
1845	9.2200e-01	1.5552	-7.266209	0.000543	5.431628	0.920143	-0.010862
1846	9.2250e-01	1.5440	-7.336339	0.000701	7.014071	1.188216	-0.014026
1847	9.2300e-01	1.5345	-7.350023	0.000137	1.368599	0.231847	-0.002737
1848	9.2350e-01	1.5253	-7.428279	0.000783	7.826677	1.325875	-0.015651
1849	9.2400e-01	1.5181	-7.485580	0.000573	5.731009	0.970859	-0.011460
1850	9.2450e-01	1.5027	-7.531336	0.000458	4.576254	0.775238	-0.009151
1851	9.2500e-01	1.4960	-7.568540	0.000372	3.720879	0.630334	-0.007441
1852	9.2550e-01	1.4800	-7.632684	0.000642	6.415309	1.086783	-0.012829
1853	9.2600e-01	1.4761	-7.667749	0.000351	3.507036	0.594108	-0.007013
1854	9.2650e-01	1.4674	-7.725051	0.000573	5.731009	0.970859	-0.011460
1855	9.2700e-01	1.4551	-7.782352	0.000573	5.731009	0.970859	-0.011460
1856	9.2750e-01	1.4440	-7.845641	0.000633	6.329772	1.072292	-0.012658
1857	9.2800e-01	1.4345	-7.877713	0.000321	3.207655	0.543391	-0.006414
1858	9.2850e-01	1.4246	-7.944422	0.000667	6.671921	1.130254	-0.013342
1859	9.2900e-01	1.4122	-7.991889	0.000475	4.747329	0.804219	-0.009493
1860	9.2950e-01	1.4059	-8.041493	0.000496	4.961172	0.840445	-0.009921
1861	9.3000e-01	1.3953	-8.110341	0.000689	6.885765	1.166480	-0.013770
1862	9.3050e-01	1.3869	-8.138137	0.000278	2.779967	0.470939	-0.005559
1863	9.3100e-01	1.3755	-8.209550	0.000714	7.142377	1.209951	-0.014283
1864	9.3150e-01	1.3638	-8.254023	0.000445	4.447948	0.753503	-0.008895
1865	9.3200e-01	1.3522	-8.320305	0.000663	6.629153	1.123009	-0.013256
1866	9.3250e-01	1.3438	-8.356225	0.000359	3.592573	0.608598	-0.007184
1867	9.3300e-01	1.3375	-8.428922	0.000727	7.270684	1.231687	-0.014539
1868	9.3350e-01	1.3227	-8.473822	0.000449	4.490716	0.760748	-0.008980
1869	9.3400e-01	1.3163	-8.525993	0.000522	5.217785	0.883917	-0.010434
1870	9.3450e-01	1.3034	-8.570466	0.000445	4.447948	0.753503	-0.008895
1871	9.3500e-01	1.2953	-8.611518	0.000411	4.105798	0.695541	-0.008210
1872	9.3550e-01	1.2817	-8.666681	0.000552	5.517166	0.934633	-0.011033
1873	9.3600e-01	1.2769	-8.726549	0.000599	5.987622	1.014331	-0.011974
1874	9.3650e-01	1.2660	-8.784278	0.000577	5.773778	0.978104	-0.011546
1875	9.3700e-01	1.2511	-8.842863	0.000586	5.859316	0.992595	-0.011717
1876	9.3750e-01	1.2456	-8.894178	0.000513	5.132247	0.869426	-0.010263
1877	9.3800e-01	1.2360	-8.956611	0.000624	6.244234	1.057802	-0.012487
1878	9.3850e-01	1.2224	-8.990394	0.000338	3.378729	0.572372	-0.006756
1879	9.3900e-01	1.2132	-9.022466	0.000321	3.207655	0.543391	-0.006414
1880	9.3950e-01	1.2047	-9.096872	0.000744	7.441759	1.260668	-0.014881
1881	9.4000e-01	1.1955	-9.154174	0.000573	5.731009	0.970859	-0.011460
1882	9.4050e-01	1.1853	-9.192233	0.000381	3.806417	0.644824	-0.007612
1883	9.4100e-01	1.1780	-9.249535	0.000573	5.731009	0.970859	-0.011460
1884	9.4150e-01	1.1666	-9.304698	0.000552	5.517166	0.934633	-0.011033
1885	9.4200e-01	1.1549	-9.371408	0.000667	6.671921	1.130254	-0.013342
1886	9.4250e-01	1.1450	-9.432986	0.000616	6.158697	1.043311	-0.012316
1887	9.4300e-01	1.1356	-9.483873	0.000509	5.089479	0.862181	-0.010177
1888	9.4350e-01	1.1260	-9.545024	0.000612	6.115928	1.036066	-0.012230
1889	9.4400e-01	1.1145	-9.587786	0.000428	4.276873	0.724522	-0.008553
1890	9.4450e-01	1.1055	-9.621141	0.000334	3.335961	0.565127	-0.006671
1891	9.4500e-01	1.0932	-9.682719	0.000616	6.158697	1.043311	-0.012316
1892	9.4550e-01	1.0859	-9.747291	0.000646	6.458078	1.094028	-0.012914
1893	9.4600e-01	1.0759	-9.811434	0.000642	6.415309	1.086783	-0.012829
1894	9.4650e-01	1.0648	-9.840513	0.000291	2.908273	0.492675	-0.005816
1895	9.4700e-01	1.0587	-9.905084	0.000646	6.458078	1.094028	-0.012914
1896	9.4750e-01	1.0454	-9.953406	0.000483	4.832866	0.818710	-0.009664
1897	9.4800e-01	1.0378	-10.016694	0.000633	6.329772	1.072292	-0.012658
1898	9.4850e-01	1.0256	-10.069720	0.000530	5.303322	0.898407	-0.010605
1899	9.4900e-01	1.0161	-10.124884	0.000552	5.517166	0.934633	-0.011033
1900	9.4950e-01	1.0053	-10.186889	0.000620	6.201465	1.050557	-0.012401
1901	9.5000e-01	0.9946	-10.230935	0.000441	4.405179	0.746258	-0.008809
1902	9.5050e-01	0.9842	-10.291230	0.000603	6.030391	1.021576	-0.012059
1903	9.5100e-01	0.9745	-10.328006	0.000368	3.678111	0.623089	-0.007355
1904	9.5150e-01	0.9644	-10.389156	0.000612	6.115928	1.036066	-0.012230
1905	9.5200e-01	0.9552	-10.462280	0.000731	7.313452	1.238932	-0.014625
1906	9.5250e-01	0.9442	-10.509319	0.000470	4.704560	0.796974	-0.009408
1907	9.5300e-01	0.9343	-10.566621	0.000573	5.731009	0.970859	-0.011460
1908	9.5350e-01	0.9306	-10.611521	0.000449	4.490716	0.760748	-0.008980
1909	9.5400e-01	0.9150	-10.670106	0.000586	5.859316	0.992595	-0.011717
1910	9.5450e-01	0.9060	-10.741092	0.000710	7.099609	1.202706	-0.014197
1911	9.5500e-01	0.8966	-10.774446	0.000334	3.335961	0.565127	-0.006671
1912	9.5550e-01	0.8843	-10.836880	0.000624	6.244234	1.057802	-0.012487
1913	9.5600e-01	0.8745	-10.894181	0.000573	5.731009	0.970859	-0.011460
1914	9.5650e-01	0.8641	-10.942503	0.000483	4.832866	0.818710	-0.009664
1915	9.5700e-01	0.8562	-11.004936	0.000624	6.244234	1.057802	-0.012487
1916	9.5750e-01	0.8440	-11.051120	0.000462	4.619023	0.782484	-0.009237
1917	9.5800e-01	0.8371	-11.107139	0.000560	5.602703	0.949124	-0.011204
1918	9.5850e-01	0.8284	-11.178980	0.000719	7.185146	1.217197	-0.014368
1919	9.5900e-01	0.8150	-11.223453	0.000445	4.447948	0.753503	-0.008895
1920	9.5950e-01	0.8058	-11.283748	0.000603	6.030391	1.021576	-0.012059
1921	9.6000e-01	0.7957	-11.342760	0.000590	5.902084	0.999840	-0.011802
1922	9.6050e-01	0.7877	-11.408615	0.000659	6.586384	1.115764	-0.013171
1923	9.6100e-01	0.7742	-11.453515	0.000449	4.490716	0.760748	-0.008980
1924	9.6150e-01	0.7644	-11.516376	0.000629	6.287003	1.065047	-0.012572
1925	9.6200e-01	0.7559	-11.572395	0.000560	5.602703	0.949124	-0.011204
1926	9.6250e-01	0.7472	-11.600618	0.000282	2.822736	0.478184	-0.005645
1927	9.6300e-01	0.7358	-11.664762	0.000642	6.415309	1.086783	-0.012829
1928	9.6350e-01	0.7254	-11.738741	0.000740	7.398990	1.253423	-0.014796
1929	9.6400e-01	0.7141	-11.793050	0.000543	5.431628	0.920143	-0.010862
1930	9.6450e-01	0.7037	-11.867457	0.000744	7.441759	1.260668	-0.014881
1931	9.6500e-01	0.6940	-11.899101	0.000316	3.164886	0.536146	-0.006329
1932	9.6550e-01	0.6827	-11.965383	0.000663	6.629153	1.123009	-0.013256
1933	9.6600e-01	0.6756	-12.013704	0.000483	4.832866	0.818710	-0.009664
1934	9.6650e-01	0.6653	-12.071006	0.000573	5.731009	0.970859	-0.011460
1935	9.6700e-01	0.6567	-12.146268	0.000753	7.527296	1.275158	-0.015052
1936	9.6750e-01	0.6494	-12.168077	0.000218	2.181205	0.369506	-0.004362
1937	9.6800e-01	0.6349	-12.260017	0.000920	9.195276	1.557722	-0.018388
1938	9.6850e-01	0.6261	-12.302352	0.000423	4.234104	0.717277	-0.008467
1939	9.6900e-01	0.6161	-12.364785	0.000624	6.244234	1.057802	-0.012487
1940	9.6950e-01	0.6058	-12.419521	0.000547	5.474397	0.927388	-0.010947
1941	9.7000e-01	0.5948	-12.472546	0.000530	5.303322	0.898407	-0.010605
1942	9.7050e-01	0.5863	-12.523861	0.000513	5.132247	0.869426	-0.010263
1943	9.7100e-01	0.5765	-12.594420	0.000706	7.056840	1.195461	-0.014112
1944	9.7150e-01	0.5647	-12.644024	0.000496	4.961172	0.840445	-0.009921
1945	9.7200e-01	0.5553	-12.728266	0.000843	8.425439	1.427308	-0.016848
1946	9.7250e-01	0.5454	-12.768463	0.000402	4.020260	0.681051	-0.008039
1947	9.7300e-01	0.5374	-12.798824	0.000304	3.036580	0.514411	-0.006072
1948	9.7350e-01	0.5254	-12.864679	0.000659	6.586384	1.115764	-0.013171
1949	9.7400e-01	0.5164	-12.924974	0.000603	6.030391	1.021576	-0.012059
1950	9.7450e-01	0.5054	-12.979282	0.000543	5.431628	0.920143	-0.010862
1951	9.7500e-01	0.4966	-13.043854	0.000646	6.458078	1.094028	-0.012914
1952	9.7550e-01	0.4871	-13.124675	0.000808	8.083289	1.369346	-0.016164
1953	9.7600e-01	0.4736	-13.172569	0.000479	4.790097	0.811464	-0.009579
1954	9.7650e-01	0.4658	-13.211483	0.000389	3.891954	0.659315	-0.007783
1955	9.7700e-01	0.4551	-13.270068	0.000586	5.859316	0.992595	-0.011717
1956	9.7750e-01	0.4444	-13.350033	0.000800	7.997752	1.354856	-0.015993
1957	9.7800e-01	0.4351	-13.408190	0.000582	5.816547	0.985350	-0.011631
1958	9.7850e-01	0.4258	-13.453091	0.000449	4.490716	0.760748	-0.008980
1959	9.7900e-01	0.4140	-13.518518	0.000654	6.543615	1.108518	-0.013085
1960	9.7950e-01	0.4099	-13.561280	0.000428	4.276873	0.724522	-0.008553
1961	9.8000e-01	0.3964	-13.622003	0.000607	6.073159	1.028821	-0.012145
1962	9.8050e-01	0.3824	-13.675884	0.000539	5.388860	0.912898	-0.010776
1963	9.8100e-01	0.3751	-13.730620	0.000547	5.474397	0.927388	-0.010947
1964	9.8150e-01	0.3669	-13.796047	0.000654	6.543615	1.108518	-0.013085
1965	9.8200e-01	0.3540	-13.858052	0.000620	6.201465	1.050557	-0.012401
1966	9.8250e-01	0.3448	-13.930321	0.000723	7.227915	1.224442	-0.014454
1967	9.8300e-01	0.3345	-13.962820	0.000325	3.250423	0.550637	-0.006500
1968	9.8350e-01	0.3246	-14.042359	0.000795	7.954983	1.347611	-0.015908
1969	9.8400e-01	0.3176	-14.089398	0.000470	4.704560	0.796974	-0.009408
1970	9.8450e-01	0.3057	-14.150120	0.000607	6.073159	1.028821	-0.012145
1971	9.8500e-01	0.2962	-14.236073	0.000860	8.596514	1.456289	-0.017191
1972	9.8550e-01	0.2836	-14.269000	0.000329	3.293192	0.557882	-0.006585
1973	9.8600e-01	0.2737	-14.317322	0.000483	4.832866	0.818710	-0.009664
1974	9.8650e-01	0.2620	-14.376762	0.000594	5.944853	1.007085	-0.011888
1975	9.8700e-01	0.2544	-14.464425	0.000877	8.767589	1.485270	-0.017533
1976	9.8750e-01	0.2451	-14.516168	0.000518	5.175016	0.876671	-0.010349
1977	9.8800e-01	0.2348	-14.561496	0.000453	4.533485	0.767993	-0.009066
1978	9.8850e-01	0.2258	-14.637186	0.000757	7.570065	1.282404	-0.015138
1979	9.8900e-01	0.2142	-14.673106	0.000359	3.592573	0.608598	-0.007184
1980	9.8950e-01	0.2090	-14.740243	0.000671	6.714690	1.137499	-0.013427
1981	9.9000e-01	0.1942	-14.799683	0.000594	5.944853	1.007085	-0.011888
1982	9.9050e-01	0.1867	-14.862544	0.000629	6.287003	1.065047	-0.012572
1983	9.9100e-01	0.1756	-14.909155	0.000466	4.661791	0.789729	-0.009322
1984	9.9150e-01	0.1662	-14.991259	0.000821	8.211596	1.391082	-0.016421
1985	9.9200e-01	0.1575	-15.061817	0.000706	7.056840	1.195461	-0.014112
1986	9.9250e-01	0.1466	-15.114415	0.000526	5.260553	0.891162	-0.010520
1987	9.9300e-01	0.1340	-15.170862	0.000565	5.645472	0.956369	-0.011289
1988	9.9350e-01	0.1233	-15.226026	0.000552	5.517166	0.934633	-0.011033
1989	9.9400e-01	0.1161	-15.281617	0.000556	5.559935	0.941878	-0.011118
1990	9.9450e-01	0.1058	-15.350464	0.000689	6.885765	1.166480	-0.013770
1991	9.9500e-01	0.0961	-15.393655	0.000432	4.319641	0.731767	-0.008638
1992	9.9550e-01	0.0843	-15.459081	0.000654	6.543615	1.108518	-0.013085
1993	9.9600e-01	0.0733	-15.533916	0.000748	7.484527	1.267913	-0.014967
1994	9.9650e-01	0.0652	-15.559573	0.000257	2.566124	0.434713	-0.005132
1995	9.9700e-01	0.0563	-15.639539	0.000800	7.997752	1.354856	-0.015993
1996	9.9750e-01	0.0455	-15.704538	0.000650	6.500847	1.101273	-0.013000
1997	9.9800e-01	0.0355	-15.761412	0.000569	5.688241	0.963614	-0.011375
1998	9.9850e-01	0.0275	-15.823418	0.000620	6.201465	1.050557	-0.012401
1999	9.9900e-01	0.0169	-15.883286	0.000599	5.987622	1.014331	-0.011974
2000	9.9950e-01	0.0063	-15.950423	0.000671	6.714690	1.137499	-0.013427
2001	1.0000e+00	-0.0046	-15.993613	0.000671	6.714690	1.137499	-0.008638

PMax (uC/cm2):	4.28e+01
Pr (uC/cm2):	5.38e+00
-Pr (uC/cm2):	0.00e+00
PLoss (uC/cm2):	0.00e+00
C (Max-Eff) (nF):	4.28e-01
K (Eff):	7.25e+02
Vert. (+/-Pr) Shift (uC/cm2):	2.69e+00
Offset (uC/cm2):	2.14e+01

A (Loop Area - uC/cm2·Volts):	-5.05e-02



Hysteresis Version: 5.48.1 - Radiant Technologies, Inc., 1999 - 9/12/24

