»»»»»»»»»»»»»»»»»»»»»»»»»»»»»»»»»»»» Hysteresis ««««««««««««««««««««««««««««««««««««
»»»  Executed Version:	5.48.1
»»»  Vision Version:	5.48.4 (R)
»»»  Vision Compiled:	9/18/24
»»»  Driver Version:	5.47.0
»»»  Windows Version:	Windows 8 or 8.1
»»»  Processor Information:	x86 (AMD or Intel) - 32 Processors
»»»  Tester Name:	PMF21124-494 (100V)
»»»  Tester S/N:	PMF21124-494
»»»  Internal Amp Type:	100V RevK 270k
»»»  Internal Amp S/N:	iAB2-596/K     
»»»  Execution Count:	1
»»»»»»»»»»»»»»»»»»»»»»»»»»»»»»»»»»»»»»»»»»««««««««««««««««««««««««««««««««««««««««««

Stored:	7/1/2025 - 14:2:35
Configured:	07/01/25 10:49:51 AM
Executed:	07/01/25 02:01:57 PM

»»»»»»»»»»»»»»»»»»»»»»»»»»»»»»»»»»» Sample Info ««««««««««««««««««««««««««««««««««««
Sample Name:	
Lot Name:	
Wafer Name:	
Die Row/Column:	0/0
Capacitor Number:	0
Sample Area (cm2):	1.00e-04
Sample Thickness (microns):	1.50e-01

Amplifier:	Internal

»»»»»»»»»»»»»»»»»»»»»»»»»»»»»»»»»»» Tester Info «««««««««««««««««««««««««««««««««««
Tester Name:	PMF21124-494 (100V)
Tester Serial Number:	PMF21124-494
Return Signal Amp. Level:	0.19 [Index: 3]

»»»»»»»»»»»»»»»»»»»»»»»»»»»»»»»» Hysteresis Info ««««««««««««««««««««««««««««««««««
Task Name:	Hyst-22
Volts:	10.00
Field:	666.67 (kV/cm)
DCBias:	0.00
DCField:	0.00 (kV/cm)
Hysteresis Period (ms):	2.00e+02
Preset:	Enabled
Preset Delay (ms):	1.00e+03
Profile:	Standard Bipolar

»»»»»»»»»»»»»»»»»»»»»»»»»»»»»»»»»»»»»» Data «««««««««««««««««««««««««««««««««««««««
Points:	2009

Valid Data

Point	Time (ms)	Drive Voltage	Measured Polarization (uC/cm2)	Capacitance (uF)	Normalized Capacitance (uF/cm2)	Dielectric Constant	Instantaneous Current (mA)
   1	0.0000e+00	0.0008	-21.471506	0.000263	2.634961	0.446375	0.000053
   2	9.9500e-02	0.0191	-21.419024	0.000263	2.634961	0.446375	0.000053
   3	1.9900e-01	0.0391	-21.273687	0.000730	7.296816	1.236114	0.000146
   4	2.9850e-01	0.0589	-21.184870	0.000446	4.459166	0.755403	0.000089
   5	3.9800e-01	0.0786	-21.108164	0.000385	3.851098	0.652394	0.000077
   6	4.9750e-01	0.0989	-21.003199	0.000527	5.269923	0.892749	0.000105
   7	5.9700e-01	0.1181	-20.934567	0.000345	3.445719	0.583721	0.000069
   8	6.9650e-01	0.1385	-20.817490	0.000588	5.877991	0.995759	0.000118
   9	7.9600e-01	0.1595	-20.720599	0.000486	4.864544	0.824076	0.000097
  10	8.9550e-01	0.1790	-20.579299	0.000709	7.094127	1.201778	0.000142
  11	9.9500e-01	0.1989	-20.450111	0.000649	6.486059	1.098768	0.000130
  12	1.0945e+00	0.2183	-20.373406	0.000385	3.851098	0.652394	0.000077
  13	1.1940e+00	0.2385	-20.215957	0.000790	7.904884	1.339124	0.000158
  14	1.2935e+00	0.2584	-20.183660	0.000162	1.621515	0.274692	0.000032
  15	1.3930e+00	0.2785	-20.046398	0.000689	6.891438	1.167441	0.000138
  16	1.4925e+00	0.2979	-19.917209	0.000649	6.486059	1.098768	0.000130
  17	1.5920e+00	0.3182	-19.828392	0.000446	4.459166	0.755403	0.000089
  18	1.6915e+00	0.3382	-19.723427	0.000527	5.269923	0.892749	0.000105
  19	1.7910e+00	0.3577	-19.590201	0.000669	6.688748	1.133105	0.000134
  20	1.8905e+00	0.3781	-19.461013	0.000649	6.486059	1.098768	0.000130
  21	1.9900e+00	0.3978	-19.384307	0.000385	3.851098	0.652394	0.000077
  22	2.0895e+00	0.4173	-19.222822	0.000811	8.107574	1.373460	0.000162
  23	2.1890e+00	0.4378	-19.101708	0.000608	6.080680	1.030095	0.000122
  24	2.2885e+00	0.4579	-19.000779	0.000507	5.067234	0.858413	0.000101
  25	2.3880e+00	0.4781	-18.891777	0.000547	5.472612	0.927086	0.000110
  26	2.4875e+00	0.4969	-18.786811	0.000527	5.269923	0.892749	0.000105
  27	2.5870e+00	0.5170	-18.641474	0.000730	7.296816	1.236114	0.000146
  28	2.6865e+00	0.5376	-18.560732	0.000405	4.053787	0.686730	0.000081
  29	2.7860e+00	0.5575	-18.366949	0.000973	9.729088	1.648152	0.000195
  30	2.8855e+00	0.5780	-18.261984	0.000527	5.269923	0.892749	0.000105
  31	2.9850e+00	0.5975	-18.136832	0.000628	6.283370	1.064432	0.000126
  32	3.0845e+00	0.6170	-17.975347	0.000811	8.107574	1.373460	0.000162
  33	3.1840e+00	0.6366	-17.898641	0.000385	3.851098	0.652394	0.000077
  34	3.2835e+00	0.6570	-17.777527	0.000608	6.080680	1.030095	0.000122
  35	3.3830e+00	0.6771	-17.640265	0.000689	6.891438	1.167441	0.000138
  36	3.4825e+00	0.6973	-17.535299	0.000527	5.269923	0.892749	0.000105
  37	3.5820e+00	0.7162	-17.341517	0.000973	9.729088	1.648152	0.000195
  38	3.6815e+00	0.7360	-17.280960	0.000304	3.040340	0.515048	0.000061
  39	3.7810e+00	0.7563	-17.087177	0.000973	9.729088	1.648152	0.000195
  40	3.8805e+00	0.7765	-16.990286	0.000486	4.864544	0.824076	0.000097
  41	3.9800e+00	0.7967	-16.832837	0.000790	7.904884	1.339124	0.000158
  42	4.0795e+00	0.8161	-16.715761	0.000588	5.877991	0.995759	0.000118
  43	4.1790e+00	0.8365	-16.602721	0.000568	5.675302	0.961422	0.000114
  44	4.2785e+00	0.8562	-16.453347	0.000750	7.499506	1.270451	0.000150
  45	4.3780e+00	0.8761	-16.344344	0.000547	5.472612	0.927086	0.000110
  46	4.4775e+00	0.8955	-16.166710	0.000892	8.918331	1.510806	0.000179
  47	4.5770e+00	0.9161	-16.057707	0.000547	5.472612	0.927086	0.000110
  48	4.6765e+00	0.9354	-15.888148	0.000851	8.512952	1.442133	0.000170
  49	4.7760e+00	0.9560	-15.783182	0.000527	5.269923	0.892749	0.000105
  50	4.8755e+00	0.9760	-15.625734	0.000790	7.904884	1.339124	0.000158
  51	4.9750e+00	0.9956	-15.484434	0.000709	7.094127	1.201778	0.000142
  52	5.0745e+00	1.0157	-15.359283	0.000628	6.283370	1.064432	0.000126
  53	5.1740e+00	1.0349	-15.238169	0.000608	6.080680	1.030095	0.000122
  54	5.2735e+00	1.0558	-15.068609	0.000851	8.512952	1.442133	0.000170
  55	5.3730e+00	1.0754	-14.931347	0.000689	6.891438	1.167441	0.000138
  56	5.4725e+00	1.0966	-14.814270	0.000588	5.877991	0.995759	0.000118
  57	5.5720e+00	1.1154	-14.677007	0.000689	6.891438	1.167441	0.000138
  58	5.6715e+00	1.1350	-14.515522	0.000811	8.107574	1.373460	0.000162
  59	5.7710e+00	1.1551	-14.386333	0.000649	6.486059	1.098768	0.000130
  60	5.8705e+00	1.1745	-14.261182	0.000628	6.283370	1.064432	0.000126
  61	5.9700e+00	1.1952	-14.087585	0.000872	8.715642	1.476470	0.000174
  62	6.0695e+00	1.2150	-13.986657	0.000507	5.067234	0.858413	0.000101
  63	6.1690e+00	1.2344	-13.837283	0.000750	7.499506	1.270451	0.000150
  64	6.2685e+00	1.2540	-13.671760	0.000831	8.310263	1.407797	0.000166
  65	6.3680e+00	1.2749	-13.514312	0.000790	7.904884	1.339124	0.000158
  66	6.4675e+00	1.2940	-13.352826	0.000811	8.107574	1.373460	0.000162
  67	6.5670e+00	1.3138	-13.247861	0.000527	5.269923	0.892749	0.000105
  68	6.6665e+00	1.3335	-13.118673	0.000649	6.486059	1.098768	0.000130
  69	6.7660e+00	1.3540	-12.961224	0.000790	7.904884	1.339124	0.000158
  70	6.8655e+00	1.3729	-12.799739	0.000811	8.107574	1.373460	0.000162
  71	6.9650e+00	1.3931	-12.670551	0.000649	6.486059	1.098768	0.000130
  72	7.0645e+00	1.4144	-12.537325	0.000669	6.688748	1.133105	0.000134
  73	7.1640e+00	1.4338	-12.351617	0.000932	9.323710	1.579479	0.000187
  74	7.2635e+00	1.4538	-12.254726	0.000486	4.864544	0.824076	0.000097
  75	7.3630e+00	1.4734	-12.044794	0.001054	10.539846	1.785498	0.000211
  76	7.4625e+00	1.4929	-11.960015	0.000426	4.256476	0.721067	0.000085
  77	7.5620e+00	1.5140	-11.802566	0.000790	7.904884	1.339124	0.000158
  78	7.6615e+00	1.5331	-11.628969	0.000872	8.715642	1.476470	0.000174
  79	7.7610e+00	1.5525	-11.499781	0.000649	6.486059	1.098768	0.000130
  80	7.8605e+00	1.5726	-11.346370	0.000770	7.702195	1.304787	0.000154
  81	7.9600e+00	1.5930	-11.192959	0.000770	7.702195	1.304787	0.000154
  82	8.0595e+00	1.6121	-11.043585	0.000750	7.499506	1.270451	0.000150
  83	8.1590e+00	1.6325	-10.914396	0.000649	6.486059	1.098768	0.000130
  84	8.2585e+00	1.6528	-10.785208	0.000649	6.486059	1.098768	0.000130
  85	8.3580e+00	1.6737	-10.603537	0.000912	9.121020	1.545143	0.000183
  86	8.4575e+00	1.6920	-10.462237	0.000709	7.094127	1.201778	0.000142
  87	8.5570e+00	1.7129	-10.284603	0.000892	8.918331	1.510806	0.000179
  88	8.6565e+00	1.7322	-10.147341	0.000689	6.891438	1.167441	0.000138
  89	8.7560e+00	1.7519	-10.010078	0.000689	6.891438	1.167441	0.000138
  90	8.8555e+00	1.7725	-9.844555	0.000831	8.310263	1.407797	0.000166
  91	8.9550e+00	1.7924	-9.654810	0.000953	9.526399	1.613816	0.000191
  92	9.0545e+00	1.8122	-9.517548	0.000689	6.891438	1.167441	0.000138
  93	9.1540e+00	1.8333	-9.416619	0.000507	5.067234	0.858413	0.000101
  94	9.2535e+00	1.8528	-9.255134	0.000811	8.107574	1.373460	0.000162
  95	9.3530e+00	1.8723	-9.081537	0.000872	8.715642	1.476470	0.000174
  96	9.4525e+00	1.8922	-8.932163	0.000750	7.499506	1.270451	0.000150
  97	9.5520e+00	1.9124	-8.766640	0.000831	8.310263	1.407797	0.000166
  98	9.6515e+00	1.9315	-8.641489	0.000628	6.283370	1.064432	0.000126
  99	9.7510e+00	1.9521	-8.455781	0.000932	9.323710	1.579479	0.000187
 100	9.8505e+00	1.9714	-8.330630	0.000628	6.283370	1.064432	0.000126
 101	9.9500e+00	1.9908	-8.152996	0.000892	8.918331	1.510806	0.000179
 102	1.0050e+01	2.0113	-7.991510	0.000811	8.107574	1.373460	0.000162
 103	1.0149e+01	2.0316	-7.866359	0.000628	6.283370	1.064432	0.000126
 104	1.0248e+01	2.0513	-7.692762	0.000872	8.715642	1.476470	0.000174
 105	1.0348e+01	2.0713	-7.494942	0.000993	9.931778	1.682489	0.000199
 106	1.0447e+01	2.0906	-7.361717	0.000669	6.688748	1.133105	0.000134
 107	1.0547e+01	2.1113	-7.200232	0.000811	8.107574	1.373460	0.000162
 108	1.0646e+01	2.1301	-7.062969	0.000689	6.891438	1.167441	0.000138
 109	1.0746e+01	2.1511	-6.885335	0.000892	8.918331	1.510806	0.000179
 110	1.0845e+01	2.1701	-6.711738	0.000872	8.715642	1.476470	0.000174
 111	1.0945e+01	2.1911	-6.574476	0.000689	6.891438	1.167441	0.000138
 112	1.1044e+01	2.2106	-6.453361	0.000608	6.080680	1.030095	0.000122
 113	1.1144e+01	2.2297	-6.251505	0.001013	10.134467	1.716825	0.000203
 114	1.1243e+01	2.2511	-6.110205	0.000709	7.094127	1.201778	0.000142
 115	1.1343e+01	2.2707	-5.924497	0.000932	9.323710	1.579479	0.000187
 116	1.1443e+01	2.2909	-5.767048	0.000790	7.904884	1.339124	0.000158
 117	1.1542e+01	2.3101	-5.645934	0.000608	6.080680	1.030095	0.000122
 118	1.1642e+01	2.3301	-5.516746	0.000649	6.486059	1.098768	0.000130
 119	1.1741e+01	2.3501	-5.339112	0.000892	8.918331	1.510806	0.000179
 120	1.1841e+01	2.3700	-5.165515	0.000872	8.715642	1.476470	0.000174
 121	1.1940e+01	2.3911	-5.004030	0.000811	8.107574	1.373460	0.000162
 122	1.2040e+01	2.4096	-4.870804	0.000669	6.688748	1.133105	0.000134
 123	1.2139e+01	2.4297	-4.697207	0.000872	8.715642	1.476470	0.000174
 124	1.2239e+01	2.4495	-4.503425	0.000973	9.729088	1.648152	0.000195
 125	1.2338e+01	2.4701	-4.382311	0.000608	6.080680	1.030095	0.000122
 126	1.2438e+01	2.4896	-4.236974	0.000730	7.296816	1.236114	0.000146
 127	1.2537e+01	2.5095	-4.035117	0.001013	10.134467	1.716825	0.000203
 128	1.2636e+01	2.5295	-3.881706	0.000770	7.702195	1.304787	0.000154
 129	1.2736e+01	2.5496	-3.736369	0.000730	7.296816	1.236114	0.000146
 130	1.2835e+01	2.5696	-3.542587	0.000973	9.729088	1.648152	0.000195
 131	1.2935e+01	2.5886	-3.425510	0.000588	5.877991	0.995759	0.000118
 132	1.3034e+01	2.6101	-3.280173	0.000730	7.296816	1.236114	0.000146
 133	1.3134e+01	2.6287	-3.094465	0.000932	9.323710	1.579479	0.000187
 134	1.3233e+01	2.6487	-2.949128	0.000730	7.296816	1.236114	0.000146
 135	1.3333e+01	2.6697	-2.787642	0.000811	8.107574	1.373460	0.000162
 136	1.3432e+01	2.6891	-2.581748	0.001034	10.337156	1.751162	0.000207
 137	1.3532e+01	2.7089	-2.440449	0.000709	7.094127	1.201778	0.000142
 138	1.3632e+01	2.7278	-2.262815	0.000892	8.918331	1.510806	0.000179
 139	1.3731e+01	2.7473	-2.093255	0.000851	8.512952	1.442133	0.000170
 140	1.3831e+01	2.7679	-1.931769	0.000811	8.107574	1.373460	0.000162
 141	1.3930e+01	2.7874	-1.786433	0.000730	7.296816	1.236114	0.000146
 142	1.4030e+01	2.8084	-1.661281	0.000628	6.283370	1.064432	0.000126
 143	1.4129e+01	2.8286	-1.463462	0.000993	9.931778	1.682489	0.000199
 144	1.4229e+01	2.8483	-1.289865	0.000872	8.715642	1.476470	0.000174
 145	1.4328e+01	2.8685	-1.140491	0.000750	7.499506	1.270451	0.000150
 146	1.4428e+01	2.8876	-0.966894	0.000872	8.715642	1.476470	0.000174
 147	1.4527e+01	2.9082	-0.805409	0.000811	8.107574	1.373460	0.000162
 148	1.4627e+01	2.9283	-0.692369	0.000568	5.675302	0.961422	0.000114
 149	1.4726e+01	2.9472	-0.442066	0.001257	12.566739	2.128863	0.000252
 150	1.4825e+01	2.9680	-0.316915	0.000628	6.283370	1.064432	0.000126
 151	1.4925e+01	2.9872	-0.151393	0.000831	8.310263	1.407797	0.000166
 152	1.5024e+01	3.0074	0.014130	0.000831	8.310263	1.407797	0.000166
 153	1.5124e+01	3.0273	0.159467	0.000730	7.296816	1.236114	0.000146
 154	1.5223e+01	3.0466	0.320952	0.000811	8.107574	1.373460	0.000162
 155	1.5323e+01	3.0676	0.490512	0.000851	8.512952	1.442133	0.000170
 156	1.5422e+01	3.0871	0.627775	0.000689	6.891438	1.167441	0.000138
 157	1.5522e+01	3.1076	0.813483	0.000932	9.323710	1.579479	0.000187
 158	1.5621e+01	3.1268	0.974968	0.000811	8.107574	1.373460	0.000162
 159	1.5721e+01	3.1480	1.172788	0.000993	9.931778	1.682489	0.000199
 160	1.5820e+01	3.1663	1.310051	0.000689	6.891438	1.167441	0.000138
 161	1.5920e+01	3.1866	1.467499	0.000790	7.904884	1.339124	0.000158
 162	1.6020e+01	3.2070	1.685504	0.001095	10.945225	1.854171	0.000219
 163	1.6119e+01	3.2261	1.802581	0.000588	5.877991	0.995759	0.000118
 164	1.6218e+01	3.2461	1.943881	0.000709	7.094127	1.201778	0.000142
 165	1.6318e+01	3.2656	2.165923	0.001115	11.147914	1.888508	0.000223
 166	1.6418e+01	3.2861	2.278963	0.000568	5.675302	0.961422	0.000114
 167	1.6517e+01	3.3068	2.468709	0.000953	9.526399	1.613816	0.000191
 168	1.6616e+01	3.3256	2.634231	0.000831	8.310263	1.407797	0.000166
 169	1.6716e+01	3.3469	2.803791	0.000851	8.512952	1.442133	0.000170
 170	1.6816e+01	3.3662	2.953165	0.000750	7.499506	1.270451	0.000150
 171	1.6915e+01	3.3856	3.134836	0.000912	9.121020	1.545143	0.000183
 172	1.7015e+01	3.4054	3.288247	0.000770	7.702195	1.304787	0.000154
 173	1.7114e+01	3.4259	3.465881	0.000892	8.918331	1.510806	0.000179
 174	1.7213e+01	3.4460	3.631404	0.000831	8.310263	1.407797	0.000166
 175	1.7313e+01	3.4663	3.780778	0.000750	7.499506	1.270451	0.000150
 176	1.7413e+01	3.4850	3.950337	0.000851	8.512952	1.442133	0.000170
 177	1.7512e+01	3.5059	4.115860	0.000831	8.310263	1.407797	0.000166
 178	1.7611e+01	3.5257	4.249085	0.000669	6.688748	1.133105	0.000134
 179	1.7711e+01	3.5455	4.434794	0.000932	9.323710	1.579479	0.000187
 180	1.7811e+01	3.5644	4.543796	0.000547	5.472612	0.927086	0.000110
 181	1.7910e+01	3.5845	4.761802	0.001095	10.945225	1.854171	0.000219
 182	1.8009e+01	3.6055	4.903101	0.000709	7.094127	1.201778	0.000142
 183	1.8109e+01	3.6254	5.084772	0.000912	9.121020	1.545143	0.000183
 184	1.8209e+01	3.6455	5.278555	0.000973	9.729088	1.648152	0.000195
 185	1.8308e+01	3.6646	5.367372	0.000446	4.459166	0.755403	0.000089
 186	1.8407e+01	3.6842	5.536932	0.000851	8.512952	1.442133	0.000170
 187	1.8507e+01	3.7043	5.726677	0.000953	9.526399	1.613816	0.000191
 188	1.8607e+01	3.7248	5.900274	0.000872	8.715642	1.476470	0.000174
 189	1.8706e+01	3.7450	6.061759	0.000811	8.107574	1.373460	0.000162
 190	1.8805e+01	3.7646	6.215170	0.000770	7.702195	1.304787	0.000154
 191	1.8905e+01	3.7852	6.344359	0.000649	6.486059	1.098768	0.000130
 192	1.9005e+01	3.8029	6.517956	0.000872	8.715642	1.476470	0.000174
 193	1.9104e+01	3.8245	6.671367	0.000770	7.702195	1.304787	0.000154
 194	1.9203e+01	3.8445	6.849001	0.000892	8.918331	1.510806	0.000179
 195	1.9303e+01	3.8639	7.010486	0.000811	8.107574	1.373460	0.000162
 196	1.9402e+01	3.8837	7.167935	0.000790	7.904884	1.339124	0.000158
 197	1.9502e+01	3.9037	7.329420	0.000811	8.107574	1.373460	0.000162
 198	1.9602e+01	3.9236	7.478794	0.000750	7.499506	1.270451	0.000150
 199	1.9701e+01	3.9435	7.624131	0.000730	7.296816	1.236114	0.000146
 200	1.9800e+01	3.9641	7.797728	0.000872	8.715642	1.476470	0.000174
 201	1.9900e+01	3.9832	7.991510	0.000973	9.729088	1.648152	0.000195
 202	2.0000e+01	4.0034	8.136847	0.000730	7.296816	1.236114	0.000146
 203	2.0099e+01	4.0224	8.274110	0.000689	6.891438	1.167441	0.000138
 204	2.0198e+01	4.0421	8.443669	0.000851	8.512952	1.442133	0.000170
 205	2.0298e+01	4.0636	8.645526	0.001013	10.134467	1.716825	0.000203
 206	2.0398e+01	4.0842	8.774715	0.000649	6.486059	1.098768	0.000130
 207	2.0497e+01	4.1035	8.924089	0.000750	7.499506	1.270451	0.000150
 208	2.0596e+01	4.1219	9.101723	0.000892	8.918331	1.510806	0.000179
 209	2.0696e+01	4.1427	9.251097	0.000750	7.499506	1.270451	0.000150
 210	2.0796e+01	4.1618	9.436805	0.000932	9.323710	1.579479	0.000187
 211	2.0895e+01	4.1823	9.582142	0.000730	7.296816	1.236114	0.000146
 212	2.0994e+01	4.2027	9.739590	0.000790	7.904884	1.339124	0.000158
 213	2.1094e+01	4.2232	9.901075	0.000811	8.107574	1.373460	0.000162
 214	2.1194e+01	4.2416	10.066598	0.000831	8.310263	1.407797	0.000166
 215	2.1293e+01	4.2634	10.264418	0.000993	9.931778	1.682489	0.000199
 216	2.1392e+01	4.2801	10.373420	0.000547	5.472612	0.927086	0.000110
 217	2.1492e+01	4.3029	10.526831	0.000770	7.702195	1.304787	0.000154
 218	2.1591e+01	4.3222	10.672168	0.000730	7.296816	1.236114	0.000146
 219	2.1691e+01	4.3429	10.837691	0.000831	8.310263	1.407797	0.000166
 220	2.1791e+01	4.3616	11.003213	0.000831	8.310263	1.407797	0.000166
 221	2.1890e+01	4.3829	11.144513	0.000709	7.094127	1.201778	0.000142
 222	2.1989e+01	4.4018	11.334259	0.000953	9.526399	1.613816	0.000191
 223	2.2089e+01	4.4215	11.487670	0.000770	7.702195	1.304787	0.000154
 224	2.2189e+01	4.4421	11.657229	0.000851	8.512952	1.442133	0.000170
 225	2.2288e+01	4.4622	11.750084	0.000466	4.661855	0.789740	0.000093
 226	2.2387e+01	4.4811	11.911569	0.000811	8.107574	1.373460	0.000162
 227	2.2487e+01	4.5023	12.077092	0.000831	8.310263	1.407797	0.000166
 228	2.2587e+01	4.5219	12.262800	0.000932	9.323710	1.579479	0.000187
 229	2.2686e+01	4.5411	12.420248	0.000790	7.904884	1.339124	0.000158
 230	2.2785e+01	4.5614	12.557511	0.000689	6.891438	1.167441	0.000138
 231	2.2885e+01	4.5818	12.706885	0.000750	7.499506	1.270451	0.000150
 232	2.2985e+01	4.6012	12.896630	0.000953	9.526399	1.613816	0.000191
 233	2.3084e+01	4.6227	13.037930	0.000709	7.094127	1.201778	0.000142
 234	2.3183e+01	4.6413	13.247861	0.001054	10.539846	1.785498	0.000211
 235	2.3283e+01	4.6610	13.360901	0.000568	5.675302	0.961422	0.000114
 236	2.3383e+01	4.6807	13.477978	0.000588	5.877991	0.995759	0.000118
 237	2.3482e+01	4.7005	13.643500	0.000831	8.310263	1.407797	0.000166
 238	2.3581e+01	4.7204	13.796911	0.000770	7.702195	1.304787	0.000154
 239	2.3681e+01	4.7404	13.974545	0.000892	8.918331	1.510806	0.000179
 240	2.3780e+01	4.7610	14.083548	0.000547	5.472612	0.927086	0.000110
 241	2.3880e+01	4.7803	14.293479	0.001054	10.539846	1.785498	0.000211
 242	2.3980e+01	4.8000	14.418630	0.000628	6.283370	1.064432	0.000126
 243	2.4079e+01	4.8202	14.580116	0.000811	8.107574	1.373460	0.000162
 244	2.4178e+01	4.8396	14.737564	0.000790	7.904884	1.339124	0.000158
 245	2.4278e+01	4.8600	14.870789	0.000669	6.688748	1.133105	0.000134
 246	2.4378e+01	4.8806	15.056498	0.000932	9.323710	1.579479	0.000187
 247	2.4477e+01	4.9001	15.193760	0.000689	6.891438	1.167441	0.000138
 248	2.4576e+01	4.9195	15.359283	0.000831	8.310263	1.407797	0.000166
 249	2.4676e+01	4.9404	15.516731	0.000790	7.904884	1.339124	0.000158
 250	2.4776e+01	4.9596	15.641882	0.000628	6.283370	1.064432	0.000126
 251	2.4875e+01	4.9802	15.803368	0.000811	8.107574	1.373460	0.000162
 252	2.4974e+01	4.9993	15.916408	0.000568	5.675302	0.961422	0.000114
 253	2.5074e+01	5.0193	16.106153	0.000953	9.526399	1.613816	0.000191
 254	2.5174e+01	5.0393	16.251490	0.000730	7.296816	1.236114	0.000146
 255	2.5273e+01	5.0591	16.421050	0.000851	8.512952	1.442133	0.000170
 256	2.5372e+01	5.0790	16.546201	0.000628	6.283370	1.064432	0.000126
 257	2.5472e+01	5.1003	16.683463	0.000689	6.891438	1.167441	0.000138
 258	2.5572e+01	5.1183	16.853023	0.000851	8.512952	1.442133	0.000170
 259	2.5671e+01	5.1389	17.002397	0.000750	7.499506	1.270451	0.000150
 260	2.5770e+01	5.1586	17.175994	0.000872	8.715642	1.476470	0.000174
 261	2.5870e+01	5.1789	17.333442	0.000790	7.904884	1.339124	0.000158
 262	2.5970e+01	5.1987	17.494928	0.000811	8.107574	1.373460	0.000162
 263	2.6069e+01	5.2187	17.632190	0.000689	6.891438	1.167441	0.000138
 264	2.6169e+01	5.2393	17.765416	0.000669	6.688748	1.133105	0.000134
 265	2.6268e+01	5.2588	17.918827	0.000770	7.702195	1.304787	0.000154
 266	2.6367e+01	5.2776	18.084350	0.000831	8.310263	1.407797	0.000166
 267	2.6467e+01	5.2983	18.237761	0.000770	7.702195	1.304787	0.000154
 268	2.6567e+01	5.3179	18.407320	0.000851	8.512952	1.442133	0.000170
 269	2.6666e+01	5.3390	18.508249	0.000507	5.067234	0.858413	0.000101
 270	2.6765e+01	5.3576	18.697994	0.000953	9.526399	1.613816	0.000191
 271	2.6865e+01	5.3777	18.815071	0.000588	5.877991	0.995759	0.000118
 272	2.6965e+01	5.3976	19.016928	0.001013	10.134467	1.716825	0.000203
 273	2.7064e+01	5.4174	19.121893	0.000527	5.269923	0.892749	0.000105
 274	2.7163e+01	5.4382	19.311639	0.000953	9.526399	1.613816	0.000191
 275	2.7263e+01	5.4574	19.448901	0.000689	6.891438	1.167441	0.000138
 276	2.7363e+01	5.4772	19.610387	0.000811	8.107574	1.373460	0.000162
 277	2.7462e+01	5.4967	19.755724	0.000730	7.296816	1.236114	0.000146
 278	2.7561e+01	5.5174	19.933358	0.000892	8.918331	1.510806	0.000179
 279	2.7661e+01	5.5379	20.074657	0.000709	7.094127	1.201778	0.000142
 280	2.7761e+01	5.5567	20.191734	0.000588	5.877991	0.995759	0.000118
 281	2.7860e+01	5.5776	20.377443	0.000932	9.323710	1.579479	0.000187
 282	2.7959e+01	5.5972	20.518742	0.000709	7.094127	1.201778	0.000142
 283	2.8059e+01	5.6171	20.700413	0.000912	9.121020	1.545143	0.000183
 284	2.8159e+01	5.6373	20.821528	0.000608	6.080680	1.030095	0.000122
 285	2.8258e+01	5.6562	20.934567	0.000568	5.675302	0.961422	0.000114
 286	2.8358e+01	5.6774	21.148536	0.001074	10.742535	1.819835	0.000215
 287	2.8457e+01	5.6969	21.261575	0.000568	5.675302	0.961422	0.000114
 288	2.8556e+01	5.7161	21.447284	0.000932	9.323710	1.579479	0.000187
 289	2.8656e+01	5.7373	21.596658	0.000750	7.499506	1.270451	0.000150
 290	2.8756e+01	5.7565	21.774292	0.000892	8.918331	1.510806	0.000179
 291	2.8855e+01	5.7769	21.871183	0.000486	4.864544	0.824076	0.000097
 292	2.8954e+01	5.7967	22.044780	0.000872	8.715642	1.476470	0.000174
 293	2.9054e+01	5.8161	22.194154	0.000750	7.499506	1.270451	0.000150
 294	2.9154e+01	5.8361	22.331416	0.000689	6.891438	1.167441	0.000138
 295	2.9253e+01	5.8566	22.488865	0.000790	7.904884	1.339124	0.000158
 296	2.9352e+01	5.8770	22.622090	0.000669	6.688748	1.133105	0.000134
 297	2.9452e+01	5.8961	22.799724	0.000892	8.918331	1.510806	0.000179
 298	2.9552e+01	5.9167	22.953135	0.000770	7.702195	1.304787	0.000154
 299	2.9651e+01	5.9362	23.086361	0.000669	6.688748	1.133105	0.000134
 300	2.9750e+01	5.9554	23.263995	0.000892	8.918331	1.510806	0.000179
 301	2.9850e+01	5.9751	23.425480	0.000811	8.107574	1.373460	0.000162
 302	2.9950e+01	5.9953	23.586966	0.000811	8.107574	1.373460	0.000162
 303	3.0049e+01	6.0146	23.695968	0.000547	5.472612	0.927086	0.000110
 304	3.0148e+01	6.0354	23.837268	0.000709	7.094127	1.201778	0.000142
 305	3.0248e+01	6.0560	24.010865	0.000872	8.715642	1.476470	0.000174
 306	3.0348e+01	6.0753	24.192536	0.000912	9.121020	1.545143	0.000183
 307	3.0447e+01	6.0952	24.337873	0.000730	7.296816	1.236114	0.000146
 308	3.0547e+01	6.1150	24.515507	0.000892	8.918331	1.510806	0.000179
 309	3.0646e+01	6.1355	24.668918	0.000770	7.702195	1.304787	0.000154
 310	3.0745e+01	6.1550	24.798106	0.000649	6.486059	1.098768	0.000130
 311	3.0845e+01	6.1742	24.963629	0.000831	8.310263	1.407797	0.000166
 312	3.0945e+01	6.1950	25.100891	0.000689	6.891438	1.167441	0.000138
 313	3.1044e+01	6.2153	25.282563	0.000912	9.121020	1.545143	0.000183
 314	3.1143e+01	6.2353	25.431937	0.000750	7.499506	1.270451	0.000150
 315	3.1243e+01	6.2554	25.569199	0.000689	6.891438	1.167441	0.000138
 316	3.1343e+01	6.2740	25.734722	0.000831	8.310263	1.407797	0.000166
 317	3.1442e+01	6.2945	25.888133	0.000770	7.702195	1.304787	0.000154
 318	3.1541e+01	6.3136	26.053655	0.000831	8.310263	1.407797	0.000166
 319	3.1641e+01	6.3343	26.211104	0.000790	7.904884	1.339124	0.000158
 320	3.1741e+01	6.3533	26.364515	0.000770	7.702195	1.304787	0.000154
 321	3.1840e+01	6.3750	26.513889	0.000750	7.499506	1.270451	0.000150
 322	3.1939e+01	6.3934	26.675374	0.000811	8.107574	1.373460	0.000162
 323	3.2039e+01	6.4133	26.816674	0.000709	7.094127	1.201778	0.000142
 324	3.2139e+01	6.4326	26.978160	0.000811	8.107574	1.373460	0.000162
 325	3.2238e+01	6.4538	27.135608	0.000790	7.904884	1.339124	0.000158
 326	3.2337e+01	6.4736	27.321316	0.000932	9.323710	1.579479	0.000187
 327	3.2437e+01	6.4931	27.482802	0.000811	8.107574	1.373460	0.000162
 328	3.2536e+01	6.5133	27.624101	0.000709	7.094127	1.201778	0.000142
 329	3.2636e+01	6.5336	27.769438	0.000730	7.296816	1.236114	0.000146
 330	3.2736e+01	6.5528	27.959184	0.000953	9.526399	1.613816	0.000191
 331	3.2835e+01	6.5728	28.080298	0.000608	6.080680	1.030095	0.000122
 332	3.2934e+01	6.5932	28.225635	0.000730	7.296816	1.236114	0.000146
 333	3.3034e+01	6.6125	28.383083	0.000790	7.904884	1.339124	0.000158
 334	3.3133e+01	6.6327	28.532457	0.000750	7.499506	1.270451	0.000150
 335	3.3233e+01	6.6525	28.689905	0.000790	7.904884	1.339124	0.000158
 336	3.3333e+01	6.6725	28.855428	0.000831	8.310263	1.407797	0.000166
 337	3.3432e+01	6.6926	29.024987	0.000851	8.512952	1.442133	0.000170
 338	3.3532e+01	6.7120	29.194547	0.000851	8.512952	1.442133	0.000170
 339	3.3631e+01	6.7313	29.351995	0.000790	7.904884	1.339124	0.000158
 340	3.3730e+01	6.7509	29.533666	0.000912	9.121020	1.545143	0.000183
 341	3.3830e+01	6.7725	29.642669	0.000547	5.472612	0.927086	0.000110
 342	3.3929e+01	6.7913	29.816266	0.000872	8.715642	1.476470	0.000174
 343	3.4029e+01	6.8125	29.985826	0.000851	8.512952	1.442133	0.000170
 344	3.4129e+01	6.8316	30.151348	0.000831	8.310263	1.407797	0.000166
 345	3.4228e+01	6.8523	30.308797	0.000790	7.904884	1.339124	0.000158
 346	3.4328e+01	6.8719	30.433948	0.000628	6.283370	1.064432	0.000126
 347	3.4427e+01	6.8925	30.627730	0.000973	9.729088	1.648152	0.000195
 348	3.4526e+01	6.9117	30.752881	0.000628	6.283370	1.064432	0.000126
 349	3.4626e+01	6.9312	30.954738	0.001013	10.134467	1.716825	0.000203
 350	3.4725e+01	6.9514	31.067778	0.000568	5.675302	0.961422	0.000114
 351	3.4825e+01	6.9711	31.225226	0.000790	7.904884	1.339124	0.000158
 352	3.4925e+01	6.9906	31.386712	0.000811	8.107574	1.373460	0.000162
 353	3.5024e+01	7.0109	31.540123	0.000770	7.702195	1.304787	0.000154
 354	3.5123e+01	7.0313	31.705646	0.000831	8.310263	1.407797	0.000166
 355	3.5223e+01	7.0522	31.883279	0.000892	8.918331	1.510806	0.000179
 356	3.5322e+01	7.0705	32.040728	0.000790	7.904884	1.339124	0.000158
 357	3.5422e+01	7.0910	32.202213	0.000811	8.107574	1.373460	0.000162
 358	3.5522e+01	7.1108	32.363699	0.000811	8.107574	1.373460	0.000162
 359	3.5621e+01	7.1310	32.513073	0.000750	7.499506	1.270451	0.000150
 360	3.5721e+01	7.1505	32.646298	0.000669	6.688748	1.133105	0.000134
 361	3.5820e+01	7.1706	32.827969	0.000912	9.121020	1.545143	0.000183
 362	3.5919e+01	7.1908	33.009640	0.000912	9.121020	1.545143	0.000183
 363	3.6019e+01	7.2099	33.150940	0.000709	7.094127	1.201778	0.000142
 364	3.6118e+01	7.2304	33.324537	0.000872	8.715642	1.476470	0.000174
 365	3.6218e+01	7.2491	33.518319	0.000973	9.729088	1.648152	0.000195
 366	3.6318e+01	7.2700	33.647508	0.000649	6.486059	1.098768	0.000130
 367	3.6417e+01	7.2895	33.825142	0.000892	8.918331	1.510806	0.000179
 368	3.6517e+01	7.3096	33.954330	0.000649	6.486059	1.098768	0.000130
 369	3.6616e+01	7.3296	34.095630	0.000709	7.094127	1.201778	0.000142
 370	3.6715e+01	7.3499	34.293450	0.000993	9.931778	1.682489	0.000199
 371	3.6815e+01	7.3684	34.479158	0.000932	9.323710	1.579479	0.000187
 372	3.6914e+01	7.3887	34.632569	0.000770	7.702195	1.304787	0.000154
 373	3.7014e+01	7.4092	34.790017	0.000790	7.904884	1.339124	0.000158
 374	3.7114e+01	7.4300	34.963614	0.000872	8.715642	1.476470	0.000174
 375	3.7213e+01	7.4488	35.141248	0.000892	8.918331	1.510806	0.000179
 376	3.7313e+01	7.4685	35.302733	0.000811	8.107574	1.373460	0.000162
 377	3.7412e+01	7.4903	35.464219	0.000811	8.107574	1.373460	0.000162
 378	3.7511e+01	7.5090	35.613593	0.000750	7.499506	1.270451	0.000150
 379	3.7611e+01	7.5293	35.771041	0.000790	7.904884	1.339124	0.000158
 380	3.7711e+01	7.5497	35.980972	0.001054	10.539846	1.785498	0.000211
 381	3.7810e+01	7.5682	36.118235	0.000689	6.891438	1.167441	0.000138
 382	3.7910e+01	7.5888	36.263572	0.000730	7.296816	1.236114	0.000146
 383	3.8009e+01	7.6082	36.425057	0.000811	8.107574	1.373460	0.000162
 384	3.8108e+01	7.6278	36.634988	0.001054	10.539846	1.785498	0.000211
 385	3.8208e+01	7.6492	36.792437	0.000790	7.904884	1.339124	0.000158
 386	3.8307e+01	7.6685	36.949885	0.000790	7.904884	1.339124	0.000158
 387	3.8407e+01	7.6880	37.091185	0.000709	7.094127	1.201778	0.000142
 388	3.8507e+01	7.7086	37.268819	0.000892	8.918331	1.510806	0.000179
 389	3.8606e+01	7.7284	37.422230	0.000770	7.702195	1.304787	0.000154
 390	3.8706e+01	7.7480	37.591789	0.000851	8.512952	1.442133	0.000170
 391	3.8805e+01	7.7679	37.773461	0.000912	9.121020	1.545143	0.000183
 392	3.8904e+01	7.7882	37.943020	0.000851	8.512952	1.442133	0.000170
 393	3.9004e+01	7.8077	38.112580	0.000851	8.512952	1.442133	0.000170
 394	3.9103e+01	7.8275	38.286177	0.000872	8.715642	1.476470	0.000174
 395	3.9203e+01	7.8472	38.463811	0.000892	8.918331	1.510806	0.000179
 396	3.9303e+01	7.8678	38.625296	0.000811	8.107574	1.373460	0.000162
 397	3.9402e+01	7.8877	38.750447	0.000628	6.283370	1.064432	0.000126
 398	3.9502e+01	7.9060	38.928081	0.000892	8.918331	1.510806	0.000179
 399	3.9601e+01	7.9280	39.105715	0.000892	8.918331	1.510806	0.000179
 400	3.9700e+01	7.9473	39.291424	0.000932	9.323710	1.579479	0.000187
 401	3.9800e+01	7.9672	39.456946	0.000831	8.310263	1.407797	0.000166
 402	3.9900e+01	7.9870	39.610357	0.000770	7.702195	1.304787	0.000154
 403	3.9999e+01	8.0072	39.816251	0.001034	10.337156	1.751162	0.000207
 404	4.0099e+01	8.0276	39.957551	0.000709	7.094127	1.201778	0.000142
 405	4.0198e+01	8.0459	40.135185	0.000892	8.918331	1.510806	0.000179
 406	4.0297e+01	8.0666	40.304745	0.000851	8.512952	1.442133	0.000170
 407	4.0397e+01	8.0867	40.478341	0.000872	8.715642	1.476470	0.000174
 408	4.0496e+01	8.1058	40.635790	0.000790	7.904884	1.339124	0.000158
 409	4.0596e+01	8.1266	40.801312	0.000831	8.310263	1.407797	0.000166
 410	4.0696e+01	8.1454	41.007206	0.001034	10.337156	1.751162	0.000207
 411	4.0795e+01	8.1658	41.136395	0.000649	6.486059	1.098768	0.000130
 412	4.0895e+01	8.1865	41.326140	0.000953	9.526399	1.613816	0.000191
 413	4.0994e+01	8.2066	41.499737	0.000872	8.715642	1.476470	0.000174
 414	4.1093e+01	8.2256	41.673334	0.000872	8.715642	1.476470	0.000174
 415	4.1193e+01	8.2461	41.850968	0.000892	8.918331	1.510806	0.000179
 416	4.1292e+01	8.2661	42.020527	0.000851	8.512952	1.442133	0.000170
 417	4.1392e+01	8.2861	42.177976	0.000790	7.904884	1.339124	0.000158
 418	4.1492e+01	8.3065	42.311201	0.000669	6.688748	1.133105	0.000134
 419	4.1591e+01	8.3244	42.537281	0.001135	11.350603	1.922844	0.000227
 420	4.1691e+01	8.3440	42.702803	0.000831	8.310263	1.407797	0.000166
 421	4.1790e+01	8.3649	42.852177	0.000750	7.499506	1.270451	0.000150
 422	4.1889e+01	8.3855	43.029811	0.000892	8.918331	1.510806	0.000179
 423	4.1989e+01	8.4055	43.211482	0.000912	9.121020	1.545143	0.000183
 424	4.2089e+01	8.4249	43.381042	0.000851	8.512952	1.442133	0.000170
 425	4.2188e+01	8.4448	43.582899	0.001013	10.134467	1.716825	0.000203
 426	4.2288e+01	8.4653	43.756496	0.000872	8.715642	1.476470	0.000174
 427	4.2387e+01	8.4841	43.905870	0.000750	7.499506	1.270451	0.000150
 428	4.2486e+01	8.5038	44.095615	0.000953	9.526399	1.613816	0.000191
 429	4.2586e+01	8.5245	44.309583	0.001074	10.742535	1.819835	0.000215
 430	4.2685e+01	8.5452	44.462994	0.000770	7.702195	1.304787	0.000154
 431	4.2785e+01	8.5654	44.689074	0.001135	11.350603	1.922844	0.000227
 432	4.2885e+01	8.5843	44.810188	0.000608	6.080680	1.030095	0.000122
 433	4.2984e+01	8.6045	44.963599	0.000770	7.702195	1.304787	0.000154
 434	4.3084e+01	8.6338	45.201790	0.001196	11.958671	2.025854	0.000239
 435	4.3183e+01	8.6438	45.367313	0.000831	8.310263	1.407797	0.000166
 436	4.3282e+01	8.6635	45.544947	0.000892	8.918331	1.510806	0.000179
 437	4.3382e+01	8.6851	45.706432	0.000811	8.107574	1.373460	0.000162
 438	4.3481e+01	8.7037	45.932512	0.001135	11.350603	1.922844	0.000227
 439	4.3581e+01	8.7244	46.114183	0.000912	9.121020	1.545143	0.000183
 440	4.3681e+01	8.7439	46.275668	0.000811	8.107574	1.373460	0.000162
 441	4.3780e+01	8.7646	46.465414	0.000953	9.526399	1.613816	0.000191
 442	4.3880e+01	8.7842	46.634973	0.000851	8.512952	1.442133	0.000170
 443	4.3979e+01	8.8038	46.840867	0.001034	10.337156	1.751162	0.000207
 444	4.4078e+01	8.8226	47.042724	0.001013	10.134467	1.716825	0.000203
 445	4.4178e+01	8.8433	47.200172	0.000790	7.904884	1.339124	0.000158
 446	4.4278e+01	8.8627	47.377806	0.000892	8.918331	1.510806	0.000179
 447	4.4377e+01	8.8830	47.587738	0.001054	10.539846	1.785498	0.000211
 448	4.4477e+01	8.9028	47.773446	0.000932	9.323710	1.579479	0.000187
 449	4.4576e+01	8.9221	47.951080	0.000892	8.918331	1.510806	0.000179
 450	4.4675e+01	8.9410	48.120639	0.000851	8.512952	1.442133	0.000170
 451	4.4775e+01	8.9632	48.338645	0.001095	10.945225	1.854171	0.000219
 452	4.4874e+01	8.9826	48.512242	0.000872	8.715642	1.476470	0.000174
 453	4.4974e+01	9.0022	48.693913	0.000912	9.121020	1.545143	0.000183
 454	4.5074e+01	9.0214	48.891732	0.000993	9.931778	1.682489	0.000199
 455	4.5173e+01	9.0422	49.097626	0.001034	10.337156	1.751162	0.000207
 456	4.5273e+01	9.0625	49.291409	0.000973	9.729088	1.648152	0.000195
 457	4.5372e+01	9.0821	49.448857	0.000790	7.904884	1.339124	0.000158
 458	4.5471e+01	9.1018	49.642640	0.000973	9.729088	1.648152	0.000195
 459	4.5571e+01	9.1224	49.832385	0.000953	9.526399	1.613816	0.000191
 460	4.5670e+01	9.1412	50.038279	0.001034	10.337156	1.751162	0.000207
 461	4.5770e+01	9.1615	50.260321	0.001115	11.147914	1.888508	0.000223
 462	4.5870e+01	9.1814	50.421807	0.000811	8.107574	1.373460	0.000162
 463	4.5969e+01	9.2023	50.647886	0.001135	11.350603	1.922844	0.000227
 464	4.6069e+01	9.2209	50.813409	0.000831	8.310263	1.407797	0.000166
 465	4.6168e+01	9.2416	51.047563	0.001176	11.755982	1.991517	0.000235
 466	4.6267e+01	9.2630	51.188863	0.000709	7.094127	1.201778	0.000142
 467	4.6367e+01	9.2805	51.410905	0.001115	11.147914	1.888508	0.000223
 468	4.6467e+01	9.3018	51.636985	0.001135	11.350603	1.922844	0.000227
 469	4.6566e+01	9.3213	51.814619	0.000892	8.918331	1.510806	0.000179
 470	4.6666e+01	9.3402	52.012438	0.000993	9.931778	1.682489	0.000199
 471	4.6765e+01	9.3604	52.246592	0.001176	11.755982	1.991517	0.000235
 472	4.6864e+01	9.3812	52.424226	0.000892	8.918331	1.510806	0.000179
 473	4.6964e+01	9.4005	52.626083	0.001013	10.134467	1.716825	0.000203
 474	4.7063e+01	9.4202	52.823903	0.000993	9.931778	1.682489	0.000199
 475	4.7163e+01	9.4402	53.037871	0.001074	10.742535	1.819835	0.000215
 476	4.7263e+01	9.4604	53.272025	0.001176	11.755982	1.991517	0.000235
 477	4.7362e+01	9.4812	53.485993	0.001074	10.742535	1.819835	0.000215
 478	4.7462e+01	9.5002	53.639404	0.000770	7.702195	1.304787	0.000154
 479	4.7561e+01	9.5200	53.893744	0.001277	12.769429	2.163200	0.000256
 480	4.7660e+01	9.5403	54.107712	0.001074	10.742535	1.819835	0.000215
 481	4.7760e+01	9.5589	54.325717	0.001095	10.945225	1.854171	0.000219
 482	4.7859e+01	9.5731	54.547760	0.001115	11.147914	1.888508	0.000223
 483	4.7959e+01	9.5996	54.761728	0.001074	10.742535	1.819835	0.000215
 484	4.8059e+01	9.6192	54.999919	0.001196	11.958671	2.025854	0.000239
 485	4.8158e+01	9.6394	55.173516	0.000872	8.715642	1.476470	0.000174
 486	4.8258e+01	9.6590	55.407669	0.001176	11.755982	1.991517	0.000235
 487	4.8357e+01	9.6803	55.637786	0.001155	11.553293	1.957181	0.000231
 488	4.8456e+01	9.6998	55.892126	0.001277	12.769429	2.163200	0.000256
 489	4.8556e+01	9.7192	56.069760	0.000892	8.918331	1.510806	0.000179
 490	4.8656e+01	9.7388	56.307951	0.001196	11.958671	2.025854	0.000239
 491	4.8755e+01	9.7598	56.562290	0.001277	12.769429	2.163200	0.000256
 492	4.8855e+01	9.7790	56.752036	0.000953	9.526399	1.613816	0.000191
 493	4.8954e+01	9.7986	56.949855	0.000993	9.931778	1.682489	0.000199
 494	4.9053e+01	9.8187	57.200158	0.001257	12.566739	2.128863	0.000252
 495	4.9153e+01	9.8391	57.450460	0.001257	12.566739	2.128863	0.000252
 496	4.9252e+01	9.8584	57.660391	0.001054	10.539846	1.785498	0.000211
 497	4.9352e+01	9.8785	57.866285	0.001034	10.337156	1.751162	0.000207
 498	4.9452e+01	9.8986	58.100439	0.001176	11.755982	1.991517	0.000235
 499	4.9551e+01	9.9179	58.314407	0.001074	10.742535	1.819835	0.000215
 500	4.9651e+01	9.9384	58.597007	0.001419	14.188254	2.403555	0.000284
 501	4.9750e+01	9.9576	58.827123	0.001155	11.553293	1.957181	0.000231
 502	4.9849e+01	9.9772	59.049166	0.001115	11.147914	1.888508	0.000223
 503	4.9949e+01	9.9982	59.275245	0.001135	11.350603	1.922844	0.000227
 504	5.0048e+01	9.9783	59.464991	-0.000953	-9.526399	-1.613816	0.000191
 505	5.0148e+01	9.9585	59.553808	-0.000446	-4.459166	-0.755403	0.000089
 506	5.0248e+01	9.9390	59.678959	-0.000628	-6.283370	-1.064432	0.000126
 507	5.0347e+01	9.9182	59.787962	-0.000547	-5.472612	-0.927086	0.000110
 508	5.0447e+01	9.8987	59.876779	-0.000446	-4.459166	-0.755403	0.000089
 509	5.0546e+01	9.8785	60.001930	-0.000628	-6.283370	-1.064432	0.000126
 510	5.0645e+01	9.8585	60.054413	-0.000263	-2.634961	-0.446375	0.000053
 511	5.0745e+01	9.8389	60.147267	-0.000466	-4.661855	-0.789740	0.000093
 512	5.0844e+01	9.8183	60.296641	-0.000750	-7.499506	-1.270451	0.000150
 513	5.0944e+01	9.7970	60.337012	-0.000203	-2.026893	-0.343365	0.000041
 514	5.1044e+01	9.7787	60.486386	-0.000750	-7.499506	-1.270451	0.000150
 515	5.1143e+01	9.7591	60.522720	-0.000182	-1.824204	-0.309029	0.000037
 516	5.1242e+01	9.7390	60.611537	-0.000446	-4.459166	-0.755403	0.000089
 517	5.1342e+01	9.7181	60.696317	-0.000426	-4.256476	-0.721067	0.000085
 518	5.1441e+01	9.6992	60.740726	-0.000223	-2.229583	-0.377702	0.000045
 519	5.1541e+01	9.6793	60.801283	-0.000304	-3.040340	-0.515048	0.000061
 520	5.1641e+01	9.6590	60.886063	-0.000426	-4.256476	-0.721067	0.000085
 521	5.1740e+01	9.6396	60.934508	-0.000243	-2.432272	-0.412038	0.000049
 522	5.1840e+01	9.6197	61.019288	-0.000426	-4.256476	-0.721067	0.000085
 523	5.1939e+01	9.5998	61.079845	-0.000304	-3.040340	-0.515048	0.000061
 524	5.2038e+01	9.5801	61.180774	-0.000507	-5.067234	-0.858413	0.000101
 525	5.2138e+01	9.5597	61.233256	-0.000263	-2.634961	-0.446375	0.000053
 526	5.2237e+01	9.5387	61.277665	-0.000223	-2.229583	-0.377702	0.000045
 527	5.2337e+01	9.5190	61.358408	-0.000405	-4.053787	-0.686730	0.000081
 528	5.2437e+01	9.5006	61.358408	-0.000000	-0.000000	-0.000000	0.000000
 529	5.2536e+01	9.4800	61.443187	-0.000426	-4.256476	-0.721067	0.000085
 530	5.2636e+01	9.4604	61.495670	-0.000263	-2.634961	-0.446375	0.000053
 531	5.2735e+01	9.4410	61.564301	-0.000345	-3.445719	-0.583721	0.000069
 532	5.2834e+01	9.4211	61.645044	-0.000405	-4.053787	-0.686730	0.000081
 533	5.2934e+01	9.4006	61.661193	-0.000081	-0.810757	-0.137346	0.000016
 534	5.3033e+01	9.3806	61.685416	-0.000122	-1.216136	-0.206019	0.000024
 535	5.3133e+01	9.3605	61.741935	-0.000284	-2.837651	-0.480711	0.000057
 536	5.3233e+01	9.3401	61.794418	-0.000263	-2.634961	-0.446375	0.000053
 537	5.3332e+01	9.3213	61.826715	-0.000162	-1.621515	-0.274692	0.000032
 538	5.3431e+01	9.3010	61.891309	-0.000324	-3.243029	-0.549384	0.000065
 539	5.3531e+01	9.2815	61.919569	-0.000142	-1.418825	-0.240356	0.000028
 540	5.3630e+01	9.2603	61.943792	-0.000122	-1.216136	-0.206019	0.000024
 541	5.3730e+01	9.2417	61.996275	-0.000263	-2.634961	-0.446375	0.000053
 542	5.3830e+01	9.2217	62.040683	-0.000223	-2.229583	-0.377702	0.000045
 543	5.3929e+01	9.2017	62.056832	-0.000081	-0.810757	-0.137346	0.000016
 544	5.4029e+01	9.1816	62.089129	-0.000162	-1.621515	-0.274692	0.000032
 545	5.4128e+01	9.1610	62.081055	0.000041	0.405379	0.068673	-0.000008
 546	5.4227e+01	9.1424	62.157760	-0.000385	-3.851098	-0.652394	0.000077
 547	5.4327e+01	9.1217	62.177946	-0.000101	-1.013447	-0.171683	0.000020
 548	5.4426e+01	9.1016	62.210243	-0.000162	-1.621515	-0.274692	0.000032
 549	5.4526e+01	9.0823	62.230429	-0.000101	-1.013447	-0.171683	0.000020
 550	5.4626e+01	9.0619	62.250615	-0.000101	-1.013447	-0.171683	0.000020
 551	5.4725e+01	9.0422	62.286949	-0.000182	-1.824204	-0.309029	0.000037
 552	5.4825e+01	9.0222	62.290986	-0.000020	-0.202689	-0.034337	0.000004
 553	5.4924e+01	9.0027	62.319246	-0.000142	-1.418825	-0.240356	0.000028
 554	5.5023e+01	8.9820	62.359617	-0.000203	-2.026893	-0.343365	0.000041
 555	5.5123e+01	8.9627	62.359617	-0.000000	-0.000000	-0.000000	0.000000
 556	5.5222e+01	8.9424	62.371729	-0.000061	-0.608068	-0.103010	0.000012
 557	5.5322e+01	8.9227	62.412100	-0.000203	-2.026893	-0.343365	0.000041
 558	5.5422e+01	8.9027	62.399989	0.000061	0.608068	0.103010	-0.000012
 559	5.5521e+01	8.8837	62.452471	-0.000263	-2.634961	-0.446375	0.000053
 560	5.5620e+01	8.8624	62.444397	0.000041	0.405379	0.068673	-0.000008
 561	5.5720e+01	8.8432	62.420174	0.000122	1.216136	0.206019	-0.000024
 562	5.5819e+01	8.8216	62.452471	-0.000162	-1.621515	-0.274692	0.000032
 563	5.5919e+01	8.8040	62.472657	-0.000101	-1.013447	-0.171683	0.000020
 564	5.6019e+01	8.7842	62.488806	-0.000081	-0.810757	-0.137346	0.000016
 565	5.6118e+01	8.7642	62.488806	-0.000000	-0.000000	-0.000000	0.000000
 566	5.6218e+01	8.7432	62.460546	0.000142	1.418825	0.240356	-0.000028
 567	5.6317e+01	8.7241	62.492843	-0.000162	-1.621515	-0.274692	0.000032
 568	5.6416e+01	8.7041	62.488806	0.000020	0.202689	0.034337	-0.000004
 569	5.6516e+01	8.6854	62.488806	-0.000000	-0.000000	-0.000000	0.000000
 570	5.6615e+01	8.6658	62.500917	-0.000061	-0.608068	-0.103010	0.000012
 571	5.6715e+01	8.6448	62.472657	0.000142	1.418825	0.240356	-0.000028
 572	5.6815e+01	8.6250	62.472657	-0.000000	-0.000000	-0.000000	0.000000
 573	5.6914e+01	8.6041	62.488806	-0.000081	-0.810757	-0.137346	0.000016
 574	5.7014e+01	8.5841	62.488806	-0.000000	-0.000000	-0.000000	0.000000
 575	5.7113e+01	8.5645	62.484768	0.000020	0.202689	0.034337	-0.000004
 576	5.7212e+01	8.5449	62.456508	0.000142	1.418825	0.240356	-0.000028
 577	5.7312e+01	8.5258	62.476694	-0.000101	-1.013447	-0.171683	0.000020
 578	5.7411e+01	8.5047	62.440360	0.000182	1.824204	0.309029	-0.000037
 579	5.7511e+01	8.4853	62.432286	0.000041	0.405379	0.068673	-0.000008
 580	5.7611e+01	8.4651	62.424211	0.000041	0.405379	0.068673	-0.000008
 581	5.7710e+01	8.4454	62.412100	0.000061	0.608068	0.103010	-0.000012
 582	5.7809e+01	8.4255	62.408063	0.000020	0.202689	0.034337	-0.000004
 583	5.7909e+01	8.4058	62.391914	0.000081	0.810757	0.137346	-0.000016
 584	5.8008e+01	8.3861	62.395951	-0.000020	-0.202689	-0.034337	0.000004
 585	5.8108e+01	8.3652	62.347506	0.000243	2.432272	0.412038	-0.000049
 586	5.8208e+01	8.3460	62.327320	0.000101	1.013447	0.171683	-0.000020
 587	5.8307e+01	8.3252	62.278874	0.000243	2.432272	0.412038	-0.000049
 588	5.8407e+01	8.3058	62.295023	-0.000081	-0.810757	-0.137346	0.000016
 589	5.8506e+01	8.2854	62.266763	0.000142	1.418825	0.240356	-0.000028
 590	5.8605e+01	8.2648	62.250615	0.000081	0.810757	0.137346	-0.000016
 591	5.8705e+01	8.2460	62.218317	0.000162	1.621515	0.274692	-0.000032
 592	5.8804e+01	8.2267	62.202169	0.000081	0.810757	0.137346	-0.000016
 593	5.8904e+01	8.2063	62.149686	0.000263	2.634961	0.446375	-0.000053
 594	5.9004e+01	8.1860	62.109315	0.000203	2.026893	0.343365	-0.000041
 595	5.9103e+01	8.1665	62.089129	0.000101	1.013447	0.171683	-0.000020
 596	5.9203e+01	8.1470	62.101240	-0.000061	-0.608068	-0.103010	0.000012
 597	5.9302e+01	8.1271	62.081055	0.000101	1.013447	0.171683	-0.000020
 598	5.9401e+01	8.1070	62.060869	0.000101	1.013447	0.171683	-0.000020
 599	5.9501e+01	8.0866	61.992238	0.000345	3.445719	0.583721	-0.000069
 600	5.9600e+01	8.0671	62.012424	-0.000101	-1.013447	-0.171683	0.000020
 601	5.9700e+01	8.0469	61.976089	0.000182	1.824204	0.309029	-0.000037
 602	5.9800e+01	8.0262	61.939755	0.000182	1.824204	0.309029	-0.000037
 603	5.9899e+01	8.0067	61.919569	0.000101	1.013447	0.171683	-0.000020
 604	5.9998e+01	7.9869	61.859012	0.000304	3.040340	0.515048	-0.000061
 605	6.0098e+01	7.9678	61.854975	0.000020	0.202689	0.034337	-0.000004
 606	6.0197e+01	7.9471	61.786344	0.000345	3.445719	0.583721	-0.000069
 607	6.0297e+01	7.9269	61.798455	-0.000061	-0.608068	-0.103010	0.000012
 608	6.0397e+01	7.9069	61.725787	0.000365	3.648408	0.618057	-0.000073
 609	6.0496e+01	7.8885	61.689453	0.000182	1.824204	0.309029	-0.000037
 610	6.0596e+01	7.8674	61.681378	0.000041	0.405379	0.068673	-0.000008
 611	6.0695e+01	7.8479	61.612747	0.000345	3.445719	0.583721	-0.000069
 612	6.0794e+01	7.8271	61.608710	0.000020	0.202689	0.034337	-0.000004
 613	6.0894e+01	7.8078	61.536041	0.000365	3.648408	0.618057	-0.000073
 614	6.0993e+01	7.7872	61.532004	0.000020	0.202689	0.034337	-0.000004
 615	6.1093e+01	7.7689	61.463373	0.000345	3.445719	0.583721	-0.000069
 616	6.1193e+01	7.7477	61.447225	0.000081	0.810757	0.137346	-0.000016
 617	6.1292e+01	7.7280	61.394742	0.000263	2.634961	0.446375	-0.000053
 618	6.1392e+01	7.7080	61.362445	0.000162	1.621515	0.274692	-0.000032
 619	6.1491e+01	7.6878	61.338222	0.000122	1.216136	0.206019	-0.000024
 620	6.1590e+01	7.6685	61.297850	0.000203	2.026893	0.343365	-0.000041
 621	6.1690e+01	7.6488	61.273628	0.000122	1.216136	0.206019	-0.000024
 622	6.1789e+01	7.6286	61.196922	0.000385	3.851098	0.652394	-0.000077
 623	6.1889e+01	7.6084	61.144439	0.000263	2.634961	0.446375	-0.000053
 624	6.1989e+01	7.5883	61.124254	0.000101	1.013447	0.171683	-0.000020
 625	6.2088e+01	7.5686	61.079845	0.000223	2.229583	0.377702	-0.000045
 626	6.2188e+01	7.5490	61.011214	0.000345	3.445719	0.583721	-0.000069
 627	6.2287e+01	7.5293	60.950657	0.000304	3.040340	0.515048	-0.000061
 628	6.2386e+01	7.5090	60.906248	0.000223	2.229583	0.377702	-0.000045
 629	6.2486e+01	7.4889	60.890100	0.000081	0.810757	0.137346	-0.000016
 630	6.2586e+01	7.4695	60.833580	0.000284	2.837651	0.480711	-0.000057
 631	6.2685e+01	7.4490	60.785134	0.000243	2.432272	0.412038	-0.000049
 632	6.2785e+01	7.4294	60.712466	0.000365	3.648408	0.618057	-0.000073
 633	6.2884e+01	7.4097	60.688243	0.000122	1.216136	0.206019	-0.000024
 634	6.2983e+01	7.3895	60.639797	0.000243	2.432272	0.412038	-0.000049
 635	6.3083e+01	7.3693	60.615575	0.000122	1.216136	0.206019	-0.000024
 636	6.3182e+01	7.3501	60.522720	0.000466	4.661855	0.789740	-0.000093
 637	6.3282e+01	7.3301	60.514646	0.000041	0.405379	0.068673	-0.000008
 638	6.3382e+01	7.3093	60.450052	0.000324	3.243029	0.549384	-0.000065
 639	6.3481e+01	7.2900	60.393532	0.000284	2.837651	0.480711	-0.000057
 640	6.3581e+01	7.2705	60.324901	0.000345	3.445719	0.583721	-0.000069
 641	6.3680e+01	7.2500	60.276455	0.000243	2.432272	0.412038	-0.000049
 642	6.3779e+01	7.2301	60.260307	0.000081	0.810757	0.137346	-0.000016
 643	6.3879e+01	7.2103	60.223972	0.000182	1.824204	0.309029	-0.000037
 644	6.3978e+01	7.1902	60.167452	0.000284	2.837651	0.480711	-0.000057
 645	6.4078e+01	7.1704	60.106895	0.000304	3.040340	0.515048	-0.000061
 646	6.4177e+01	7.1506	60.038264	0.000345	3.445719	0.583721	-0.000069
 647	6.4277e+01	7.1306	59.997893	0.000203	2.026893	0.343365	-0.000041
 648	6.4376e+01	7.1110	59.901002	0.000486	4.864544	0.824076	-0.000097
 649	6.4476e+01	7.0907	59.880816	0.000101	1.013447	0.171683	-0.000020
 650	6.4576e+01	7.0708	59.808147	0.000365	3.648408	0.618057	-0.000073
 651	6.4675e+01	7.0517	59.779887	0.000142	1.418825	0.240356	-0.000028
 652	6.4775e+01	7.0309	59.715293	0.000324	3.243029	0.549384	-0.000065
 653	6.4874e+01	7.0113	59.674922	0.000203	2.026893	0.343365	-0.000041
 654	6.4974e+01	6.9902	59.602253	0.000365	3.648408	0.618057	-0.000073
 655	6.5073e+01	6.9710	59.529585	0.000365	3.648408	0.618057	-0.000073
 656	6.5172e+01	6.9515	59.481139	0.000243	2.432272	0.412038	-0.000049
 657	6.5272e+01	6.9314	59.432694	0.000243	2.432272	0.412038	-0.000049
 658	6.5371e+01	6.9112	59.392322	0.000203	2.026893	0.343365	-0.000041
 659	6.5471e+01	6.8922	59.327728	0.000324	3.243029	0.549384	-0.000065
 660	6.5570e+01	6.8716	59.246986	0.000405	4.053787	0.686730	-0.000081
 661	6.5670e+01	6.8517	59.190466	0.000284	2.837651	0.480711	-0.000057
 662	6.5769e+01	6.8320	59.117797	0.000365	3.648408	0.618057	-0.000073
 663	6.5869e+01	6.8121	59.097612	0.000101	1.013447	0.171683	-0.000020
 664	6.5969e+01	6.7921	59.008795	0.000446	4.459166	0.755403	-0.000089
 665	6.6068e+01	6.7715	58.907866	0.000507	5.067234	0.858413	-0.000101
 666	6.6168e+01	6.7510	58.863458	0.000223	2.229583	0.377702	-0.000045
 667	6.6267e+01	6.7320	58.827123	0.000182	1.824204	0.309029	-0.000037
 668	6.6367e+01	6.7129	58.758492	0.000345	3.445719	0.583721	-0.000069
 669	6.6466e+01	6.6926	58.685824	0.000365	3.648408	0.618057	-0.000073
 670	6.6566e+01	6.6714	58.613155	0.000365	3.648408	0.618057	-0.000073
 671	6.6665e+01	6.6529	58.597007	0.000081	0.810757	0.137346	-0.000016
 672	6.6764e+01	6.6326	58.524338	0.000365	3.648408	0.618057	-0.000073
 673	6.6864e+01	6.6125	58.443596	0.000405	4.053787	0.686730	-0.000081
 674	6.6963e+01	6.5927	58.366890	0.000385	3.851098	0.652394	-0.000077
 675	6.7063e+01	6.5719	58.318444	0.000243	2.432272	0.412038	-0.000049
 676	6.7162e+01	6.5538	58.185219	0.000669	6.688748	1.133105	-0.000134
 677	6.7262e+01	6.5328	58.160996	0.000122	1.216136	0.206019	-0.000024
 678	6.7362e+01	6.5123	58.096402	0.000324	3.243029	0.549384	-0.000065
 679	6.7461e+01	6.4931	58.023733	0.000365	3.648408	0.618057	-0.000073
 680	6.7561e+01	6.4739	57.938954	0.000426	4.256476	0.721067	-0.000085
 681	6.7660e+01	6.4533	57.890508	0.000243	2.432272	0.412038	-0.000049
 682	6.7760e+01	6.4329	57.797654	0.000466	4.661855	0.789740	-0.000093
 683	6.7859e+01	6.4116	57.741134	0.000284	2.837651	0.480711	-0.000057
 684	6.7959e+01	6.3937	57.656354	0.000426	4.256476	0.721067	-0.000085
 685	6.8058e+01	6.3732	57.611946	0.000223	2.229583	0.377702	-0.000045
 686	6.8157e+01	6.3534	57.515054	0.000486	4.864544	0.824076	-0.000097
 687	6.8257e+01	6.3334	57.438349	0.000385	3.851098	0.652394	-0.000077
 688	6.8356e+01	6.3142	57.393940	0.000223	2.229583	0.377702	-0.000045
 689	6.8456e+01	6.2946	57.301086	0.000466	4.661855	0.789740	-0.000093
 690	6.8555e+01	6.2746	57.204195	0.000486	4.864544	0.824076	-0.000097
 691	6.8655e+01	6.2545	57.131526	0.000365	3.648408	0.618057	-0.000073
 692	6.8754e+01	6.2361	57.066932	0.000324	3.243029	0.549384	-0.000065
 693	6.8854e+01	6.2148	56.953892	0.000568	5.675302	0.961422	-0.000114
 694	6.8954e+01	6.1947	56.905447	0.000243	2.432272	0.412038	-0.000049
 695	6.9053e+01	6.1745	56.848927	0.000284	2.837651	0.480711	-0.000057
 696	6.9153e+01	6.1544	56.784333	0.000324	3.243029	0.549384	-0.000065
 697	6.9252e+01	6.1355	56.691479	0.000466	4.661855	0.789740	-0.000093
 698	6.9352e+01	6.1141	56.586513	0.000527	5.269923	0.892749	-0.000105
 699	6.9451e+01	6.0949	56.497696	0.000446	4.459166	0.755403	-0.000089
 700	6.9550e+01	6.0766	56.469436	0.000142	1.418825	0.240356	-0.000028
 701	6.9650e+01	6.0549	56.384656	0.000426	4.256476	0.721067	-0.000085
 702	6.9749e+01	6.0352	56.255468	0.000649	6.486059	1.098768	-0.000130
 703	6.9849e+01	6.0166	56.215097	0.000203	2.026893	0.343365	-0.000041
 704	6.9948e+01	5.9962	56.134354	0.000405	4.053787	0.686730	-0.000081
 705	7.0048e+01	5.9756	56.037463	0.000486	4.864544	0.824076	-0.000097
 706	7.0147e+01	5.9566	55.944608	0.000466	4.661855	0.789740	-0.000093
 707	7.0247e+01	5.9365	55.855792	0.000446	4.459166	0.755403	-0.000089
 708	7.0347e+01	5.9158	55.766975	0.000446	4.459166	0.755403	-0.000089
 709	7.0446e+01	5.8953	55.714492	0.000263	2.634961	0.446375	-0.000053
 710	7.0546e+01	5.8752	55.617600	0.000486	4.864544	0.824076	-0.000097
 711	7.0645e+01	5.8563	55.548969	0.000345	3.445719	0.583721	-0.000069
 712	7.0745e+01	5.8366	55.448041	0.000507	5.067234	0.858413	-0.000101
 713	7.0844e+01	5.8163	55.371335	0.000385	3.851098	0.652394	-0.000077
 714	7.0944e+01	5.7959	55.274444	0.000486	4.864544	0.824076	-0.000097
 715	7.1043e+01	5.7768	55.197738	0.000385	3.851098	0.652394	-0.000077
 716	7.1142e+01	5.7568	55.104884	0.000466	4.661855	0.789740	-0.000093
 717	7.1242e+01	5.7359	55.024142	0.000405	4.053787	0.686730	-0.000081
 718	7.1341e+01	5.7168	54.915139	0.000547	5.472612	0.927086	-0.000110
 719	7.1441e+01	5.6962	54.810173	0.000527	5.269923	0.892749	-0.000105
 720	7.1540e+01	5.6768	54.713282	0.000486	4.864544	0.824076	-0.000097
 721	7.1640e+01	5.6557	54.640614	0.000365	3.648408	0.618057	-0.000073
 722	7.1740e+01	5.6371	54.547760	0.000466	4.661855	0.789740	-0.000093
 723	7.1839e+01	5.6173	54.467017	0.000405	4.053787	0.686730	-0.000081
 724	7.1939e+01	5.5968	54.382237	0.000426	4.256476	0.721067	-0.000085
 725	7.2038e+01	5.5776	54.301494	0.000405	4.053787	0.686730	-0.000081
 726	7.2138e+01	5.5578	54.253049	0.000243	2.432272	0.412038	-0.000049
 727	7.2237e+01	5.5380	54.131935	0.000608	6.080680	1.030095	-0.000122
 728	7.2337e+01	5.5177	54.002746	0.000649	6.486059	1.098768	-0.000130
 729	7.2436e+01	5.4967	53.922003	0.000405	4.053787	0.686730	-0.000081
 730	7.2535e+01	5.4783	53.813001	0.000547	5.472612	0.927086	-0.000110
 731	7.2635e+01	5.4575	53.703998	0.000547	5.472612	0.927086	-0.000110
 732	7.2734e+01	5.4377	53.611144	0.000466	4.661855	0.789740	-0.000093
 733	7.2834e+01	5.4179	53.530401	0.000405	4.053787	0.686730	-0.000081
 734	7.2933e+01	5.3979	53.457733	0.000365	3.648408	0.618057	-0.000073
 735	7.3033e+01	5.3779	53.356804	0.000507	5.067234	0.858413	-0.000101
 736	7.3132e+01	5.3571	53.272025	0.000426	4.256476	0.721067	-0.000085
 737	7.3232e+01	5.3402	53.138799	0.000669	6.688748	1.133105	-0.000134
 738	7.3332e+01	5.3181	53.017685	0.000608	6.080680	1.030095	-0.000122
 739	7.3431e+01	5.2973	52.936942	0.000405	4.053787	0.686730	-0.000081
 740	7.3531e+01	5.2779	52.868311	0.000345	3.445719	0.583721	-0.000069
 741	7.3630e+01	5.2587	52.743160	0.000628	6.283370	1.064432	-0.000126
 742	7.3730e+01	5.2382	52.642231	0.000507	5.067234	0.858413	-0.000101
 743	7.3829e+01	5.2184	52.541303	0.000507	5.067234	0.858413	-0.000101
 744	7.3928e+01	5.1991	52.456523	0.000426	4.256476	0.721067	-0.000085
 745	7.4028e+01	5.1783	52.363669	0.000466	4.661855	0.789740	-0.000093
 746	7.4127e+01	5.1576	52.218332	0.000730	7.296816	1.236114	-0.000146
 747	7.4227e+01	5.1385	52.117404	0.000507	5.067234	0.858413	-0.000101
 748	7.4326e+01	5.1188	52.044735	0.000365	3.648408	0.618057	-0.000073
 749	7.4426e+01	5.0988	51.939770	0.000527	5.269923	0.892749	-0.000105
 750	7.4525e+01	5.0782	51.782322	0.000790	7.904884	1.339124	-0.000158
 751	7.4625e+01	5.0598	51.762136	0.000101	1.013447	0.171683	-0.000020
 752	7.4725e+01	5.0391	51.592576	0.000851	8.512952	1.442133	-0.000170
 753	7.4824e+01	5.0211	51.515871	0.000385	3.851098	0.652394	-0.000077
 754	7.4924e+01	4.9993	51.398794	0.000588	5.877991	0.995759	-0.000118
 755	7.5023e+01	4.9793	51.285754	0.000568	5.675302	0.961422	-0.000114
 756	7.5123e+01	4.9596	51.192900	0.000466	4.661855	0.789740	-0.000093
 757	7.5222e+01	4.9408	51.112157	0.000405	4.053787	0.686730	-0.000081
 758	7.5322e+01	4.9204	50.958746	0.000770	7.702195	1.304787	-0.000154
 759	7.5421e+01	4.9004	50.890115	0.000345	3.445719	0.583721	-0.000069
 760	7.5520e+01	4.8800	50.748815	0.000709	7.094127	1.201778	-0.000142
 761	7.5620e+01	4.8603	50.676146	0.000365	3.648408	0.618057	-0.000073
 762	7.5719e+01	4.8389	50.530809	0.000730	7.296816	1.236114	-0.000146
 763	7.5819e+01	4.8209	50.409695	0.000608	6.080680	1.030095	-0.000122
 764	7.5918e+01	4.8003	50.341064	0.000345	3.445719	0.583721	-0.000069
 765	7.6018e+01	4.7805	50.256284	0.000426	4.256476	0.721067	-0.000085
 766	7.6118e+01	4.7605	50.139207	0.000588	5.877991	0.995759	-0.000118
 767	7.6217e+01	4.7406	50.014056	0.000628	6.283370	1.064432	-0.000126
 768	7.6317e+01	4.7205	49.921202	0.000466	4.661855	0.789740	-0.000093
 769	7.6416e+01	4.7025	49.808162	0.000568	5.675302	0.961422	-0.000114
 770	7.6516e+01	4.6809	49.707234	0.000507	5.067234	0.858413	-0.000101
 771	7.6615e+01	4.6614	49.594194	0.000568	5.675302	0.961422	-0.000114
 772	7.6715e+01	4.6412	49.465006	0.000649	6.486059	1.098768	-0.000130
 773	7.6814e+01	4.6206	49.351966	0.000568	5.675302	0.961422	-0.000114
 774	7.6913e+01	4.6020	49.263149	0.000446	4.459166	0.755403	-0.000089
 775	7.7013e+01	4.5811	49.109738	0.000770	7.702195	1.304787	-0.000154
 776	7.7112e+01	4.5606	49.045144	0.000324	3.243029	0.549384	-0.000065
 777	7.7212e+01	4.5412	48.948252	0.000486	4.864544	0.824076	-0.000097
 778	7.7311e+01	4.5212	48.810990	0.000689	6.891438	1.167441	-0.000138
 779	7.7411e+01	4.5022	48.693913	0.000588	5.877991	0.995759	-0.000118
 780	7.7510e+01	4.4816	48.552613	0.000709	7.094127	1.201778	-0.000142
 781	7.7610e+01	4.4611	48.500130	0.000263	2.634961	0.446375	-0.000053
 782	7.7710e+01	4.4415	48.346719	0.000770	7.702195	1.304787	-0.000154
 783	7.7809e+01	4.4226	48.241754	0.000527	5.269923	0.892749	-0.000105
 784	7.7909e+01	4.4020	48.116602	0.000628	6.283370	1.064432	-0.000126
 785	7.8008e+01	4.3815	47.995488	0.000608	6.080680	1.030095	-0.000122
 786	7.8108e+01	4.3620	47.898597	0.000486	4.864544	0.824076	-0.000097
 787	7.8207e+01	4.3429	47.757297	0.000709	7.094127	1.201778	-0.000142
 788	7.8306e+01	4.3218	47.648295	0.000547	5.472612	0.927086	-0.000110
 789	7.8406e+01	4.3026	47.531218	0.000588	5.877991	0.995759	-0.000118
 790	7.8505e+01	4.2823	47.434326	0.000486	4.864544	0.824076	-0.000097
 791	7.8605e+01	4.2612	47.309175	0.000628	6.283370	1.064432	-0.000126
 792	7.8704e+01	4.2427	47.171913	0.000689	6.891438	1.167441	-0.000138
 793	7.8804e+01	4.2225	47.066947	0.000527	5.269923	0.892749	-0.000105
 794	7.8903e+01	4.2028	46.957944	0.000547	5.472612	0.927086	-0.000110
 795	7.9003e+01	4.1824	46.840867	0.000588	5.877991	0.995759	-0.000118
 796	7.9103e+01	4.1630	46.731865	0.000547	5.472612	0.927086	-0.000110
 797	7.9202e+01	4.1430	46.647085	0.000426	4.256476	0.721067	-0.000085
 798	7.9302e+01	4.1228	46.493674	0.000770	7.702195	1.304787	-0.000154
 799	7.9401e+01	4.1039	46.372560	0.000608	6.080680	1.030095	-0.000122
 800	7.9501e+01	4.0836	46.247408	0.000628	6.283370	1.064432	-0.000126
 801	7.9600e+01	4.0645	46.118220	0.000649	6.486059	1.098768	-0.000130
 802	7.9700e+01	4.0434	46.045552	0.000365	3.648408	0.618057	-0.000073
 803	7.9799e+01	4.0231	45.888103	0.000790	7.904884	1.339124	-0.000158
 804	7.9898e+01	4.0031	45.783138	0.000527	5.269923	0.892749	-0.000105
 805	7.9998e+01	3.9837	45.662024	0.000608	6.080680	1.030095	-0.000122
 806	8.0097e+01	3.9643	45.532835	0.000649	6.486059	1.098768	-0.000130
 807	8.0197e+01	3.9431	45.415758	0.000588	5.877991	0.995759	-0.000118
 808	8.0296e+01	3.9245	45.290607	0.000628	6.283370	1.064432	-0.000126
 809	8.0396e+01	3.9043	45.209865	0.000405	4.053787	0.686730	-0.000081
 810	8.0496e+01	3.8836	45.092788	0.000588	5.877991	0.995759	-0.000118
 811	8.0595e+01	3.8645	44.959562	0.000669	6.688748	1.133105	-0.000134
 812	8.0695e+01	3.8437	44.850559	0.000547	5.472612	0.927086	-0.000110
 813	8.0794e+01	3.8240	44.668888	0.000912	9.121020	1.545143	-0.000183
 814	8.0894e+01	3.8037	44.547774	0.000608	6.080680	1.030095	-0.000122
 815	8.0993e+01	3.7850	44.454920	0.000466	4.661855	0.789740	-0.000093
 816	8.1093e+01	3.7673	44.329769	0.000628	6.283370	1.064432	-0.000126
 817	8.1192e+01	3.7454	44.253063	0.000385	3.851098	0.652394	-0.000077
 818	8.1291e+01	3.7249	44.103689	0.000750	7.499506	1.270451	-0.000150
 819	8.1391e+01	3.7054	43.986612	0.000588	5.877991	0.995759	-0.000118
 820	8.1490e+01	3.6852	43.845313	0.000709	7.094127	1.201778	-0.000142
 821	8.1590e+01	3.6649	43.732273	0.000568	5.675302	0.961422	-0.000114
 822	8.1689e+01	3.6455	43.615196	0.000588	5.877991	0.995759	-0.000118
 823	8.1789e+01	3.6248	43.494082	0.000608	6.080680	1.030095	-0.000122
 824	8.1888e+01	3.6056	43.405265	0.000446	4.459166	0.755403	-0.000089
 825	8.1988e+01	3.5857	43.272039	0.000669	6.688748	1.133105	-0.000134
 826	8.2088e+01	3.5653	43.130740	0.000709	7.094127	1.201778	-0.000142
 827	8.2187e+01	3.5452	42.993477	0.000689	6.891438	1.167441	-0.000138
 828	8.2287e+01	3.5264	42.868326	0.000628	6.283370	1.064432	-0.000126
 829	8.2386e+01	3.5056	42.755286	0.000568	5.675302	0.961422	-0.000114
 830	8.2486e+01	3.4855	42.642246	0.000568	5.675302	0.961422	-0.000114
 831	8.2585e+01	3.4653	42.513058	0.000649	6.486059	1.098768	-0.000130
 832	8.2684e+01	3.4466	42.391944	0.000608	6.080680	1.030095	-0.000122
 833	8.2784e+01	3.4265	42.254681	0.000689	6.891438	1.167441	-0.000138
 834	8.2883e+01	3.4060	42.133567	0.000608	6.080680	1.030095	-0.000122
 835	8.2983e+01	3.3866	42.012453	0.000608	6.080680	1.030095	-0.000122
 836	8.3082e+01	3.3662	41.891339	0.000608	6.080680	1.030095	-0.000122
 837	8.3182e+01	3.3470	41.721779	0.000851	8.512952	1.442133	-0.000170
 838	8.3281e+01	3.3267	41.616814	0.000527	5.269923	0.892749	-0.000105
 839	8.3381e+01	3.3069	41.523960	0.000466	4.661855	0.789740	-0.000093
 840	8.3481e+01	3.2864	41.382660	0.000709	7.094127	1.201778	-0.000142
 841	8.3580e+01	3.2658	41.277694	0.000527	5.269923	0.892749	-0.000105
 842	8.3680e+01	3.2459	41.128320	0.000750	7.499506	1.270451	-0.000150
 843	8.3779e+01	3.2258	40.999132	0.000649	6.486059	1.098768	-0.000130
 844	8.3879e+01	3.2060	40.898204	0.000507	5.067234	0.858413	-0.000101
 845	8.3978e+01	3.1860	40.744792	0.000770	7.702195	1.304787	-0.000154
 846	8.4078e+01	3.1672	40.655975	0.000446	4.459166	0.755403	-0.000089
 847	8.4177e+01	3.1474	40.514676	0.000709	7.094127	1.201778	-0.000142
 848	8.4276e+01	3.1264	40.365302	0.000750	7.499506	1.270451	-0.000150
 849	8.4376e+01	3.1075	40.236113	0.000649	6.486059	1.098768	-0.000130
 850	8.4475e+01	3.0866	40.114999	0.000608	6.080680	1.030095	-0.000122
 851	8.4575e+01	3.0672	39.957551	0.000790	7.904884	1.339124	-0.000158
 852	8.4674e+01	3.0508	39.848548	0.000547	5.472612	0.927086	-0.000110
 853	8.4774e+01	3.0271	39.699174	0.000750	7.499506	1.270451	-0.000150
 854	8.4874e+01	3.0074	39.594209	0.000527	5.269923	0.892749	-0.000105
 855	8.4973e+01	2.9875	39.412538	0.000912	9.121020	1.545143	-0.000183
 856	8.5073e+01	2.9680	39.303535	0.000547	5.472612	0.927086	-0.000110
 857	8.5172e+01	2.9481	39.198569	0.000527	5.269923	0.892749	-0.000105
 858	8.5272e+01	2.9283	39.033047	0.000831	8.310263	1.407797	-0.000166
 859	8.5371e+01	2.9070	38.911933	0.000608	6.080680	1.030095	-0.000122
 860	8.5471e+01	2.8881	38.774670	0.000689	6.891438	1.167441	-0.000138
 861	8.5570e+01	2.8677	38.641445	0.000669	6.688748	1.133105	-0.000134
 862	8.5669e+01	2.8474	38.512256	0.000649	6.486059	1.098768	-0.000130
 863	8.5769e+01	2.8280	38.370957	0.000709	7.094127	1.201778	-0.000142
 864	8.5868e+01	2.8080	38.205434	0.000831	8.310263	1.407797	-0.000166
 865	8.5968e+01	2.7885	38.096431	0.000547	5.472612	0.927086	-0.000110
 866	8.6067e+01	2.7682	37.991466	0.000527	5.269923	0.892749	-0.000105
 867	8.6167e+01	2.7483	37.817869	0.000872	8.715642	1.476470	-0.000174
 868	8.6266e+01	2.7287	37.696755	0.000608	6.080680	1.030095	-0.000122
 869	8.6366e+01	2.7086	37.567567	0.000649	6.486059	1.098768	-0.000130
 870	8.6466e+01	2.6880	37.434341	0.000669	6.688748	1.133105	-0.000134
 871	8.6565e+01	2.6688	37.301116	0.000669	6.688748	1.133105	-0.000134
 872	8.6665e+01	2.6482	37.167890	0.000669	6.688748	1.133105	-0.000134
 873	8.6764e+01	2.6296	36.986219	0.000912	9.121020	1.545143	-0.000183
 874	8.6864e+01	2.6092	36.917588	0.000345	3.445719	0.583721	-0.000069
 875	8.6963e+01	2.5889	36.743991	0.000872	8.715642	1.476470	-0.000174
 876	8.7063e+01	2.5692	36.614803	0.000649	6.486059	1.098768	-0.000130
 877	8.7162e+01	2.5495	36.469466	0.000730	7.296816	1.236114	-0.000146
 878	8.7261e+01	2.5294	36.303943	0.000831	8.310263	1.407797	-0.000166
 879	8.7361e+01	2.5101	36.178792	0.000628	6.283370	1.064432	-0.000126
 880	8.7460e+01	2.4895	36.057678	0.000608	6.080680	1.030095	-0.000122
 881	8.7560e+01	2.4700	35.940601	0.000588	5.877991	0.995759	-0.000118
 882	8.7659e+01	2.4494	35.767004	0.000872	8.715642	1.476470	-0.000174
 883	8.7759e+01	2.4301	35.641853	0.000628	6.283370	1.064432	-0.000126
 884	8.7859e+01	2.4092	35.488442	0.000770	7.702195	1.304787	-0.000154
 885	8.7958e+01	2.3901	35.343105	0.000730	7.296816	1.236114	-0.000146
 886	8.8058e+01	2.3698	35.185657	0.000790	7.904884	1.339124	-0.000158
 887	8.8157e+01	2.3502	35.060505	0.000628	6.283370	1.064432	-0.000126
 888	8.8257e+01	2.3290	34.927280	0.000669	6.688748	1.133105	-0.000134
 889	8.8356e+01	2.3095	34.785980	0.000709	7.094127	1.201778	-0.000142
 890	8.8456e+01	2.2903	34.616420	0.000851	8.512952	1.442133	-0.000170
 891	8.8555e+01	2.2694	34.446861	0.000851	8.512952	1.442133	-0.000170
 892	8.8654e+01	2.2494	34.313635	0.000669	6.688748	1.133105	-0.000134
 893	8.8754e+01	2.2305	34.200595	0.000568	5.675302	0.961422	-0.000114
 894	8.8853e+01	2.2107	34.047184	0.000770	7.702195	1.304787	-0.000154
 895	8.8953e+01	2.1905	33.905884	0.000709	7.094127	1.201778	-0.000142
 896	8.9052e+01	2.1708	33.760548	0.000730	7.296816	1.236114	-0.000146
 897	8.9152e+01	2.1511	33.607136	0.000770	7.702195	1.304787	-0.000154
 898	8.9251e+01	2.1302	33.469874	0.000689	6.891438	1.167441	-0.000138
 899	8.9351e+01	2.1108	33.328574	0.000709	7.094127	1.201778	-0.000142
 900	8.9451e+01	2.0902	33.187274	0.000709	7.094127	1.201778	-0.000142
 901	8.9550e+01	2.0708	33.033863	0.000770	7.702195	1.304787	-0.000154
 902	8.9650e+01	2.0515	32.904675	0.000649	6.486059	1.098768	-0.000130
 903	8.9749e+01	2.0309	32.727041	0.000892	8.918331	1.510806	-0.000179
 904	8.9849e+01	2.0110	32.593815	0.000669	6.688748	1.133105	-0.000134
 905	8.9948e+01	1.9910	32.432330	0.000811	8.107574	1.373460	-0.000162
 906	9.0047e+01	1.9713	32.282956	0.000750	7.499506	1.270451	-0.000150
 907	9.0147e+01	1.9527	32.117433	0.000831	8.310263	1.407797	-0.000166
 908	9.0246e+01	1.9319	32.004394	0.000568	5.675302	0.961422	-0.000114
 909	9.0346e+01	1.9117	31.814648	0.000953	9.526399	1.613816	-0.000191
 910	9.0445e+01	1.8920	31.689497	0.000628	6.283370	1.064432	-0.000126
 911	9.0545e+01	1.8726	31.540123	0.000750	7.499506	1.270451	-0.000150
 912	9.0644e+01	1.8523	31.386712	0.000770	7.702195	1.304787	-0.000154
 913	9.0744e+01	1.8328	31.217152	0.000851	8.512952	1.442133	-0.000170
 914	9.0844e+01	1.8126	31.087964	0.000649	6.486059	1.098768	-0.000130
 915	9.0943e+01	1.7918	30.946664	0.000709	7.094127	1.201778	-0.000142
 916	9.1043e+01	1.7723	30.785179	0.000811	8.107574	1.373460	-0.000162
 917	9.1142e+01	1.7521	30.607545	0.000892	8.918331	1.510806	-0.000179
 918	9.1242e+01	1.7331	30.486431	0.000608	6.080680	1.030095	-0.000122
 919	9.1341e+01	1.7120	30.292648	0.000973	9.729088	1.648152	-0.000195
 920	9.1441e+01	1.6915	30.155385	0.000689	6.891438	1.167441	-0.000138
 921	9.1540e+01	1.6729	30.018123	0.000689	6.891438	1.167441	-0.000138
 922	9.1639e+01	1.6517	29.828377	0.000953	9.526399	1.613816	-0.000191
 923	9.1739e+01	1.6328	29.703226	0.000628	6.283370	1.064432	-0.000126
 924	9.1838e+01	1.6132	29.497332	0.001034	10.337156	1.751162	-0.000207
 925	9.1938e+01	1.5926	29.368144	0.000649	6.486059	1.098768	-0.000130
 926	9.2037e+01	1.5724	29.214733	0.000770	7.702195	1.304787	-0.000154
 927	9.2137e+01	1.5530	29.037099	0.000892	8.918331	1.510806	-0.000179
 928	9.2237e+01	1.5326	28.920022	0.000588	5.877991	0.995759	-0.000118
 929	9.2336e+01	1.5135	28.738351	0.000912	9.121020	1.545143	-0.000183
 930	9.2436e+01	1.4936	28.572828	0.000831	8.310263	1.407797	-0.000166
 931	9.2535e+01	1.4729	28.439603	0.000669	6.688748	1.133105	-0.000134
 932	9.2635e+01	1.4544	28.249857	0.000953	9.526399	1.613816	-0.000191
 933	9.2734e+01	1.4336	28.108558	0.000709	7.094127	1.201778	-0.000142
 934	9.2834e+01	1.4135	27.947072	0.000811	8.107574	1.373460	-0.000162
 935	9.2933e+01	1.3924	27.809810	0.000689	6.891438	1.167441	-0.000138
 936	9.3032e+01	1.3733	27.644287	0.000831	8.310263	1.407797	-0.000166
 937	9.3132e+01	1.3531	27.478764	0.000831	8.310263	1.407797	-0.000166
 938	9.3231e+01	1.3344	27.341502	0.000689	6.891438	1.167441	-0.000138
 939	9.3331e+01	1.3134	27.123496	0.001095	10.945225	1.854171	-0.000219
 940	9.3430e+01	1.2931	27.010457	0.000568	5.675302	0.961422	-0.000114
 941	9.3530e+01	1.2749	26.861083	0.000750	7.499506	1.270451	-0.000150
 942	9.3629e+01	1.2542	26.695560	0.000831	8.310263	1.407797	-0.000166
 943	9.3729e+01	1.2346	26.550223	0.000730	7.296816	1.236114	-0.000146
 944	9.3829e+01	1.2144	26.380663	0.000851	8.512952	1.442133	-0.000170
 945	9.3928e+01	1.1951	26.198992	0.000912	9.121020	1.545143	-0.000183
 946	9.4028e+01	1.1742	26.033470	0.000831	8.310263	1.407797	-0.000166
 947	9.4127e+01	1.1543	25.888133	0.000730	7.296816	1.236114	-0.000146
 948	9.4227e+01	1.1352	25.698388	0.000953	9.526399	1.613816	-0.000191
 949	9.4326e+01	1.1149	25.565162	0.000669	6.688748	1.133105	-0.000134
 950	9.4425e+01	1.0947	25.423862	0.000709	7.094127	1.201778	-0.000142
 951	9.4525e+01	1.0760	25.258340	0.000831	8.310263	1.407797	-0.000166
 952	9.4624e+01	1.0549	25.052446	0.001034	10.337156	1.751162	-0.000207
 953	9.4724e+01	1.0360	24.919220	0.000669	6.688748	1.133105	-0.000134
 954	9.4823e+01	1.0155	24.773883	0.000730	7.296816	1.236114	-0.000146
 955	9.4923e+01	0.9946	24.584138	0.000953	9.526399	1.613816	-0.000191
 956	9.5022e+01	0.9756	24.430727	0.000770	7.702195	1.304787	-0.000154
 957	9.5122e+01	0.9557	24.305576	0.000628	6.283370	1.064432	-0.000126
 958	9.5222e+01	0.9361	24.111793	0.000973	9.729088	1.648152	-0.000195
 959	9.5321e+01	0.9160	23.950308	0.000811	8.107574	1.373460	-0.000162
 960	9.5421e+01	0.8959	23.768637	0.000912	9.121020	1.545143	-0.000183
 961	9.5520e+01	0.8759	23.619263	0.000750	7.499506	1.270451	-0.000150
 962	9.5620e+01	0.8562	23.449703	0.000851	8.512952	1.442133	-0.000170
 963	9.5719e+01	0.8363	23.308403	0.000709	7.094127	1.201778	-0.000142
 964	9.5819e+01	0.8158	23.110584	0.000993	9.931778	1.682489	-0.000199
 965	9.5918e+01	0.7958	22.949098	0.000811	8.107574	1.373460	-0.000162
 966	9.6017e+01	0.7764	22.771464	0.000892	8.918331	1.510806	-0.000179
 967	9.6117e+01	0.7568	22.601904	0.000851	8.512952	1.442133	-0.000170
 968	9.6216e+01	0.7362	22.464642	0.000689	6.891438	1.167441	-0.000138
 969	9.6316e+01	0.7166	22.307194	0.000790	7.904884	1.339124	-0.000158
 970	9.6415e+01	0.6966	22.089188	0.001095	10.945225	1.854171	-0.000219
 971	9.6515e+01	0.6770	21.931740	0.000790	7.904884	1.339124	-0.000158
 972	9.6615e+01	0.6563	21.758143	0.000872	8.715642	1.476470	-0.000174
 973	9.6714e+01	0.6365	21.632992	0.000628	6.283370	1.064432	-0.000126
 974	9.6814e+01	0.6174	21.483618	0.000750	7.499506	1.270451	-0.000150
 975	9.6913e+01	0.5972	21.285798	0.000993	9.931778	1.682489	-0.000199
 976	9.7013e+01	0.5774	21.140461	0.000730	7.296816	1.236114	-0.000146
 977	9.7112e+01	0.5586	20.970902	0.000851	8.512952	1.442133	-0.000170
 978	9.7212e+01	0.5381	20.809416	0.000811	8.107574	1.373460	-0.000162
 979	9.7311e+01	0.5164	20.639856	0.000851	8.512952	1.442133	-0.000170
 980	9.7410e+01	0.4974	20.470297	0.000851	8.512952	1.442133	-0.000170
 981	9.7510e+01	0.4771	20.324960	0.000730	7.296816	1.236114	-0.000146
 982	9.7609e+01	0.4579	20.123103	0.001013	10.134467	1.716825	-0.000203
 983	9.7709e+01	0.4373	19.961618	0.000811	8.107574	1.373460	-0.000162
 984	9.7808e+01	0.4177	19.812244	0.000750	7.499506	1.270451	-0.000150
 985	9.7908e+01	0.3984	19.610387	0.001013	10.134467	1.716825	-0.000203
 986	9.8007e+01	0.3776	19.448901	0.000811	8.107574	1.373460	-0.000162
 987	9.8107e+01	0.3587	19.271267	0.000892	8.918331	1.510806	-0.000179
 988	9.8207e+01	0.3382	19.101708	0.000851	8.512952	1.442133	-0.000170
 989	9.8306e+01	0.3183	18.964445	0.000689	6.891438	1.167441	-0.000138
 990	9.8406e+01	0.2990	18.750477	0.001074	10.742535	1.819835	-0.000215
 991	9.8505e+01	0.2796	18.621289	0.000649	6.486059	1.098768	-0.000130
 992	9.8605e+01	0.2580	18.459803	0.000811	8.107574	1.373460	-0.000162
 993	9.8704e+01	0.2386	18.274095	0.000932	9.323710	1.579479	-0.000187
 994	9.8803e+01	0.2187	18.112609	0.000811	8.107574	1.373460	-0.000162
 995	9.8903e+01	0.1988	17.910753	0.001013	10.134467	1.716825	-0.000203
 996	9.9002e+01	0.1781	17.773490	0.000689	6.891438	1.167441	-0.000138
 997	9.9102e+01	0.1586	17.628153	0.000730	7.296816	1.236114	-0.000146
 998	9.9201e+01	0.1377	17.426296	0.001013	10.134467	1.716825	-0.000203
 999	9.9301e+01	0.1189	17.276922	0.000750	7.499506	1.270451	-0.000150
1000	9.9400e+01	0.0991	17.119474	0.000790	7.904884	1.339124	-0.000158
1001	9.9500e+01	0.0791	16.941840	0.000892	8.918331	1.510806	-0.000179
1002	9.9600e+01	0.0591	16.760169	0.000912	9.121020	1.545143	-0.000183
1003	9.9699e+01	0.0394	16.582535	0.000892	8.918331	1.510806	-0.000179
1004	9.9799e+01	0.0193	16.433161	0.000750	7.499506	1.270451	-0.000150
1005	9.9898e+01	-0.0001	16.255527	0.000892	8.918331	1.510806	-0.000179
1006	9.9998e+01	-0.0185	16.073856	0.000912	9.121020	1.545143	-0.000183
1007	1.0010e+02	-0.0389	15.916408	0.000790	7.904884	1.339124	-0.000158
1008	1.0020e+02	-0.0578	15.718588	0.000993	9.931778	1.682489	-0.000199
1009	1.0030e+02	-0.0787	15.573251	0.000730	7.296816	1.236114	-0.000146
1010	1.0040e+02	-0.0990	15.431951	0.000709	7.094127	1.201778	-0.000142
1011	1.0050e+02	-0.1189	15.262392	0.000851	8.512952	1.442133	-0.000170
1012	1.0059e+02	-0.1385	15.068609	0.000973	9.729088	1.648152	-0.000195
1013	1.0069e+02	-0.1582	14.907124	0.000811	8.107574	1.373460	-0.000162
1014	1.0079e+02	-0.1788	14.725453	0.000912	9.121020	1.545143	-0.000183
1015	1.0089e+02	-0.1973	14.555893	0.000851	8.512952	1.442133	-0.000170
1016	1.0099e+02	-0.2178	14.382296	0.000872	8.715642	1.476470	-0.000174
1017	1.0109e+02	-0.2374	14.176402	0.001034	10.337156	1.751162	-0.000207
1018	1.0119e+02	-0.2588	14.014917	0.000811	8.107574	1.373460	-0.000162
1019	1.0129e+02	-0.2779	13.837283	0.000892	8.918331	1.510806	-0.000179
1020	1.0139e+02	-0.2973	13.683872	0.000770	7.702195	1.304787	-0.000154
1021	1.0149e+02	-0.3181	13.534498	0.000750	7.499506	1.270451	-0.000150
1022	1.0159e+02	-0.3385	13.312455	0.001115	11.147914	1.888508	-0.000223
1023	1.0169e+02	-0.3569	13.171155	0.000709	7.094127	1.201778	-0.000142
1024	1.0179e+02	-0.3777	12.965261	0.001034	10.337156	1.751162	-0.000207
1025	1.0189e+02	-0.3977	12.791665	0.000872	8.715642	1.476470	-0.000174
1026	1.0199e+02	-0.4173	12.609993	0.000912	9.121020	1.545143	-0.000183
1027	1.0209e+02	-0.4382	12.452545	0.000790	7.904884	1.339124	-0.000158
1028	1.0219e+02	-0.4569	12.274911	0.000892	8.918331	1.510806	-0.000179
1029	1.0229e+02	-0.4778	12.117463	0.000790	7.904884	1.339124	-0.000158
1030	1.0239e+02	-0.4974	11.927718	0.000953	9.526399	1.613816	-0.000191
1031	1.0248e+02	-0.5165	11.766232	0.000811	8.107574	1.373460	-0.000162
1032	1.0258e+02	-0.5373	11.552264	0.001074	10.742535	1.819835	-0.000215
1033	1.0268e+02	-0.5565	11.394816	0.000790	7.904884	1.339124	-0.000158
1034	1.0278e+02	-0.5767	11.209107	0.000932	9.323710	1.579479	-0.000187
1035	1.0288e+02	-0.5980	11.047622	0.000811	8.107574	1.373460	-0.000162
1036	1.0298e+02	-0.6172	10.874025	0.000872	8.715642	1.476470	-0.000174
1037	1.0308e+02	-0.6370	10.680243	0.000973	9.729088	1.648152	-0.000195
1038	1.0318e+02	-0.6567	10.518757	0.000811	8.107574	1.373460	-0.000162
1039	1.0328e+02	-0.6771	10.308826	0.001054	10.539846	1.785498	-0.000211
1040	1.0338e+02	-0.6967	10.155415	0.000770	7.702195	1.304787	-0.000154
1041	1.0348e+02	-0.7160	9.961632	0.000973	9.729088	1.648152	-0.000195
1042	1.0358e+02	-0.7360	9.788036	0.000872	8.715642	1.476470	-0.000174
1043	1.0368e+02	-0.7562	9.614439	0.000872	8.715642	1.476470	-0.000174
1044	1.0378e+02	-0.7762	9.477176	0.000689	6.891438	1.167441	-0.000138
1045	1.0388e+02	-0.7963	9.291468	0.000932	9.323710	1.579479	-0.000187
1046	1.0398e+02	-0.8161	9.089611	0.001013	10.134467	1.716825	-0.000203
1047	1.0408e+02	-0.8365	8.916014	0.000872	8.715642	1.476470	-0.000174
1048	1.0418e+02	-0.8563	8.722232	0.000973	9.729088	1.648152	-0.000195
1049	1.0428e+02	-0.8753	8.548635	0.000872	8.715642	1.476470	-0.000174
1050	1.0438e+02	-0.8950	8.354852	0.000973	9.729088	1.648152	-0.000195
1051	1.0447e+02	-0.9161	8.173181	0.000912	9.121020	1.545143	-0.000183
1052	1.0457e+02	-0.9365	8.015733	0.000790	7.904884	1.339124	-0.000158
1053	1.0467e+02	-0.9555	7.850210	0.000831	8.310263	1.407797	-0.000166
1054	1.0477e+02	-0.9758	7.664502	0.000932	9.323710	1.579479	-0.000187
1055	1.0487e+02	-0.9956	7.462645	0.001013	10.134467	1.716825	-0.000203
1056	1.0497e+02	-1.0152	7.272900	0.000953	9.526399	1.613816	-0.000191
1057	1.0507e+02	-1.0357	7.127563	0.000730	7.296816	1.236114	-0.000146
1058	1.0517e+02	-1.0549	6.933781	0.000973	9.729088	1.648152	-0.000195
1059	1.0527e+02	-1.0746	6.715775	0.001095	10.945225	1.854171	-0.000219
1060	1.0537e+02	-1.0950	6.574476	0.000709	7.094127	1.201778	-0.000142
1061	1.0547e+02	-1.1156	6.372619	0.001013	10.134467	1.716825	-0.000203
1062	1.0557e+02	-1.1346	6.166725	0.001034	10.337156	1.751162	-0.000207
1063	1.0567e+02	-1.1559	6.029462	0.000689	6.891438	1.167441	-0.000138
1064	1.0577e+02	-1.1743	5.839717	0.000953	9.526399	1.613816	-0.000191
1065	1.0587e+02	-1.1949	5.637860	0.001013	10.134467	1.716825	-0.000203
1066	1.0597e+02	-1.2151	5.464263	0.000872	8.715642	1.476470	-0.000174
1067	1.0607e+02	-1.2343	5.302778	0.000811	8.107574	1.373460	-0.000162
1068	1.0617e+02	-1.2545	5.088810	0.001074	10.742535	1.819835	-0.000215
1069	1.0627e+02	-1.2737	4.919250	0.000851	8.512952	1.442133	-0.000170
1070	1.0637e+02	-1.2938	4.721430	0.000993	9.931778	1.682489	-0.000199
1071	1.0647e+02	-1.3132	4.572056	0.000750	7.499506	1.270451	-0.000150
1072	1.0656e+02	-1.3340	4.374237	0.000993	9.931778	1.682489	-0.000199
1073	1.0666e+02	-1.3542	4.184491	0.000953	9.526399	1.613816	-0.000191
1074	1.0676e+02	-1.3733	4.002820	0.000912	9.121020	1.545143	-0.000183
1075	1.0686e+02	-1.3934	3.805000	0.000993	9.931778	1.682489	-0.000199
1076	1.0696e+02	-1.4139	3.591032	0.001074	10.742535	1.819835	-0.000215
1077	1.0706e+02	-1.4334	3.453770	0.000689	6.891438	1.167441	-0.000138
1078	1.0716e+02	-1.4535	3.276136	0.000892	8.918331	1.510806	-0.000179
1079	1.0726e+02	-1.4725	3.082353	0.000973	9.729088	1.648152	-0.000195
1080	1.0736e+02	-1.4935	2.840125	0.001216	12.161361	2.060190	-0.000243
1081	1.0746e+02	-1.5138	2.674602	0.000831	8.310263	1.407797	-0.000166
1082	1.0756e+02	-1.5334	2.505043	0.000851	8.512952	1.442133	-0.000170
1083	1.0766e+02	-1.5530	2.311260	0.000973	9.729088	1.648152	-0.000195
1084	1.0776e+02	-1.5735	2.153812	0.000790	7.904884	1.339124	-0.000158
1085	1.0786e+02	-1.5926	1.907547	0.001236	12.364050	2.094527	-0.000248
1086	1.0796e+02	-1.6129	1.762210	0.000730	7.296816	1.236114	-0.000146
1087	1.0806e+02	-1.6335	1.576502	0.000932	9.323710	1.579479	-0.000187
1088	1.0816e+02	-1.6532	1.334273	0.001216	12.161361	2.060190	-0.000243
1089	1.0826e+02	-1.6730	1.184899	0.000750	7.499506	1.270451	-0.000150
1090	1.0836e+02	-1.6922	1.031488	0.000770	7.702195	1.304787	-0.000154
1091	1.0845e+02	-1.7123	0.797334	0.001176	11.755982	1.991517	-0.000235
1092	1.0855e+02	-1.7328	0.635849	0.000811	8.107574	1.373460	-0.000162
1093	1.0865e+02	-1.7526	0.470326	0.000831	8.310263	1.407797	-0.000166
1094	1.0875e+02	-1.7724	0.256358	0.001074	10.742535	1.819835	-0.000215
1095	1.0885e+02	-1.7926	0.078724	0.000892	8.918331	1.510806	-0.000179
1096	1.0895e+02	-1.8115	-0.111021	0.000953	9.526399	1.613816	-0.000191
1097	1.0905e+02	-1.8317	-0.349212	0.001196	11.958671	2.025854	-0.000239
1098	1.0915e+02	-1.8515	-0.446103	0.000486	4.864544	0.824076	-0.000097
1099	1.0925e+02	-1.8726	-0.660072	0.001074	10.742535	1.819835	-0.000215
1100	1.0935e+02	-1.8927	-0.849817	0.000953	9.526399	1.613816	-0.000191
1101	1.0945e+02	-1.9112	-1.039562	0.000953	9.526399	1.613816	-0.000191
1102	1.0955e+02	-1.9310	-1.237382	0.000993	9.931778	1.682489	-0.000199
1103	1.0965e+02	-1.9516	-1.398868	0.000811	8.107574	1.373460	-0.000162
1104	1.0975e+02	-1.9714	-1.576502	0.000892	8.918331	1.510806	-0.000179
1105	1.0985e+02	-1.9910	-1.766247	0.000953	9.526399	1.613816	-0.000191
1106	1.0995e+02	-2.0116	-1.972141	0.001034	10.337156	1.751162	-0.000207
1107	1.1005e+02	-2.0312	-2.157849	0.000932	9.323710	1.579479	-0.000187
1108	1.1015e+02	-2.0518	-2.335483	0.000892	8.918331	1.510806	-0.000179
1109	1.1025e+02	-2.0713	-2.472746	0.000689	6.891438	1.167441	-0.000138
1110	1.1035e+02	-2.0908	-2.706900	0.001176	11.755982	1.991517	-0.000235
1111	1.1044e+02	-2.1104	-2.892608	0.000932	9.323710	1.579479	-0.000187
1112	1.1054e+02	-2.1313	-3.033908	0.000709	7.094127	1.201778	-0.000142
1113	1.1064e+02	-2.1508	-3.219616	0.000932	9.323710	1.579479	-0.000187
1114	1.1074e+02	-2.1706	-3.409361	0.000953	9.526399	1.613816	-0.000191
1115	1.1084e+02	-2.1909	-3.623329	0.001074	10.742535	1.819835	-0.000215
1116	1.1094e+02	-2.2102	-3.788852	0.000831	8.310263	1.407797	-0.000166
1117	1.1104e+02	-2.2300	-3.966486	0.000892	8.918331	1.510806	-0.000179
1118	1.1114e+02	-2.2501	-4.164306	0.000993	9.931778	1.682489	-0.000199
1119	1.1124e+02	-2.2701	-4.374237	0.001054	10.539846	1.785498	-0.000211
1120	1.1134e+02	-2.2906	-4.535722	0.000811	8.107574	1.373460	-0.000162
1121	1.1144e+02	-2.3099	-4.717393	0.000912	9.121020	1.545143	-0.000183
1122	1.1154e+02	-2.3305	-4.903101	0.000932	9.323710	1.579479	-0.000187
1123	1.1164e+02	-2.3492	-5.072661	0.000851	8.512952	1.442133	-0.000170
1124	1.1174e+02	-2.3704	-5.258369	0.000932	9.323710	1.579479	-0.000187
1125	1.1184e+02	-2.3899	-5.456189	0.000993	9.931778	1.682489	-0.000199
1126	1.1194e+02	-2.4094	-5.694380	0.001196	11.958671	2.025854	-0.000239
1127	1.1204e+02	-2.4300	-5.819531	0.000628	6.283370	1.064432	-0.000126
1128	1.1214e+02	-2.4503	-6.021388	0.001013	10.134467	1.716825	-0.000203
1129	1.1224e+02	-2.4698	-6.211133	0.000953	9.526399	1.613816	-0.000191
1130	1.1234e+02	-2.4895	-6.392804	0.000912	9.121020	1.545143	-0.000183
1131	1.1244e+02	-2.5089	-6.554290	0.000811	8.107574	1.373460	-0.000162
1132	1.1253e+02	-2.5297	-6.711738	0.000790	7.904884	1.339124	-0.000158
1133	1.1263e+02	-2.5488	-6.945892	0.001176	11.755982	1.991517	-0.000235
1134	1.1273e+02	-2.5693	-7.107377	0.000811	8.107574	1.373460	-0.000162
1135	1.1283e+02	-2.5891	-7.252714	0.000730	7.296816	1.236114	-0.000146
1136	1.1293e+02	-2.6095	-7.442460	0.000953	9.526399	1.613816	-0.000191
1137	1.1303e+02	-2.6285	-7.636242	0.000973	9.729088	1.648152	-0.000195
1138	1.1313e+02	-2.6483	-7.821950	0.000932	9.323710	1.579479	-0.000187
1139	1.1323e+02	-2.6683	-7.987473	0.000831	8.310263	1.407797	-0.000166
1140	1.1333e+02	-2.6875	-8.173181	0.000932	9.323710	1.579479	-0.000187
1141	1.1343e+02	-2.7077	-8.338704	0.000831	8.310263	1.407797	-0.000166
1142	1.1353e+02	-2.7282	-8.532486	0.000973	9.729088	1.648152	-0.000195
1143	1.1363e+02	-2.7490	-8.718195	0.000932	9.323710	1.579479	-0.000187
1144	1.1373e+02	-2.7644	-8.907940	0.000953	9.526399	1.613816	-0.000191
1145	1.1383e+02	-2.7877	-9.065388	0.000790	7.904884	1.339124	-0.000158
1146	1.1393e+02	-2.8088	-9.218799	0.000770	7.702195	1.304787	-0.000154
1147	1.1403e+02	-2.8281	-9.440842	0.001115	11.147914	1.888508	-0.000223
1148	1.1413e+02	-2.8479	-9.586179	0.000730	7.296816	1.236114	-0.000146
1149	1.1423e+02	-2.8674	-9.775924	0.000953	9.526399	1.613816	-0.000191
1150	1.1433e+02	-2.8876	-9.949521	0.000872	8.715642	1.476470	-0.000174
1151	1.1442e+02	-2.9081	-10.131192	0.000912	9.121020	1.545143	-0.000183
1152	1.1452e+02	-2.9269	-10.320938	0.000953	9.526399	1.613816	-0.000191
1153	1.1462e+02	-2.9472	-10.494534	0.000872	8.715642	1.476470	-0.000174
1154	1.1472e+02	-2.9679	-10.660057	0.000831	8.310263	1.407797	-0.000166
1155	1.1482e+02	-2.9878	-10.878062	0.001095	10.945225	1.854171	-0.000219
1156	1.1492e+02	-3.0074	-11.003213	0.000628	6.283370	1.064432	-0.000126
1157	1.1502e+02	-3.0277	-11.209107	0.001034	10.337156	1.751162	-0.000207
1158	1.1512e+02	-3.0466	-11.354444	0.000730	7.296816	1.236114	-0.000146
1159	1.1522e+02	-3.0666	-11.552264	0.000993	9.931778	1.682489	-0.000199
1160	1.1532e+02	-3.0859	-11.737972	0.000932	9.323710	1.579479	-0.000187
1161	1.1542e+02	-3.1068	-11.895420	0.000790	7.904884	1.339124	-0.000158
1162	1.1552e+02	-3.1268	-12.077092	0.000912	9.121020	1.545143	-0.000183
1163	1.1562e+02	-3.1477	-12.246651	0.000851	8.512952	1.442133	-0.000170
1164	1.1572e+02	-3.1664	-12.424285	0.000892	8.918331	1.510806	-0.000179
1165	1.1582e+02	-3.1853	-12.593845	0.000851	8.512952	1.442133	-0.000170
1166	1.1592e+02	-3.2065	-12.763405	0.000851	8.512952	1.442133	-0.000170
1167	1.1602e+02	-3.2277	-12.900667	0.000689	6.891438	1.167441	-0.000138
1168	1.1612e+02	-3.2471	-13.118673	0.001095	10.945225	1.854171	-0.000219
1169	1.1622e+02	-3.2669	-13.284195	0.000831	8.310263	1.407797	-0.000166
1170	1.1632e+02	-3.2866	-13.437606	0.000770	7.702195	1.304787	-0.000154
1171	1.1642e+02	-3.3057	-13.586980	0.000750	7.499506	1.270451	-0.000150
1172	1.1651e+02	-3.3268	-13.800949	0.001074	10.742535	1.819835	-0.000215
1173	1.1661e+02	-3.3464	-13.978582	0.000892	8.918331	1.510806	-0.000179
1174	1.1671e+02	-3.3656	-14.119882	0.000709	7.094127	1.201778	-0.000142
1175	1.1681e+02	-3.3859	-14.309628	0.000953	9.526399	1.613816	-0.000191
1176	1.1691e+02	-3.4058	-14.487262	0.000892	8.918331	1.510806	-0.000179
1177	1.1701e+02	-3.4251	-14.648747	0.000811	8.107574	1.373460	-0.000162
1178	1.1711e+02	-3.4451	-14.826381	0.000892	8.918331	1.510806	-0.000179
1179	1.1721e+02	-3.4660	-14.999978	0.000872	8.715642	1.476470	-0.000174
1180	1.1731e+02	-3.4856	-15.201835	0.001013	10.134467	1.716825	-0.000203
1181	1.1741e+02	-3.5056	-15.355246	0.000770	7.702195	1.304787	-0.000154
1182	1.1751e+02	-3.5260	-15.508657	0.000770	7.702195	1.304787	-0.000154
1183	1.1761e+02	-3.5448	-15.674180	0.000831	8.310263	1.407797	-0.000166
1184	1.1771e+02	-3.5649	-15.839702	0.000831	8.310263	1.407797	-0.000166
1185	1.1781e+02	-3.5854	-16.021373	0.000912	9.121020	1.545143	-0.000183
1186	1.1791e+02	-3.6060	-16.207081	0.000932	9.323710	1.579479	-0.000187
1187	1.1801e+02	-3.6259	-16.380678	0.000872	8.715642	1.476470	-0.000174
1188	1.1811e+02	-3.6448	-16.550238	0.000851	8.512952	1.442133	-0.000170
1189	1.1821e+02	-3.6642	-16.723835	0.000872	8.715642	1.476470	-0.000174
1190	1.1831e+02	-3.6848	-16.905506	0.000912	9.121020	1.545143	-0.000183
1191	1.1841e+02	-3.7042	-17.050843	0.000730	7.296816	1.236114	-0.000146
1192	1.1850e+02	-3.7257	-17.224440	0.000872	8.715642	1.476470	-0.000174
1193	1.1860e+02	-3.7439	-17.414185	0.000953	9.526399	1.613816	-0.000191
1194	1.1870e+02	-3.7642	-17.535299	0.000608	6.080680	1.030095	-0.000122
1195	1.1880e+02	-3.7842	-17.745230	0.001054	10.539846	1.785498	-0.000211
1196	1.1890e+02	-3.8046	-17.894604	0.000750	7.499506	1.270451	-0.000150
1197	1.1900e+02	-3.8249	-18.035904	0.000709	7.094127	1.201778	-0.000142
1198	1.1910e+02	-3.8443	-18.245835	0.001054	10.539846	1.785498	-0.000211
1199	1.1920e+02	-3.8634	-18.431543	0.000932	9.323710	1.579479	-0.000187
1200	1.1930e+02	-3.8834	-18.605140	0.000872	8.715642	1.476470	-0.000174
1201	1.1940e+02	-3.9044	-18.778737	0.000872	8.715642	1.476470	-0.000174
1202	1.1950e+02	-3.9242	-18.932148	0.000770	7.702195	1.304787	-0.000154
1203	1.1960e+02	-3.9429	-19.053262	0.000608	6.080680	1.030095	-0.000122
1204	1.1970e+02	-3.9638	-19.295490	0.001216	12.161361	2.060190	-0.000243
1205	1.1980e+02	-3.9842	-19.416604	0.000608	6.080680	1.030095	-0.000122
1206	1.1990e+02	-4.0034	-19.622498	0.001034	10.337156	1.751162	-0.000207
1207	1.2000e+02	-4.0237	-19.755724	0.000669	6.688748	1.133105	-0.000134
1208	1.2010e+02	-4.0433	-19.913172	0.000790	7.904884	1.339124	-0.000158
1209	1.2020e+02	-4.0635	-20.074657	0.000811	8.107574	1.373460	-0.000162
1210	1.2030e+02	-4.0832	-20.244217	0.000851	8.512952	1.442133	-0.000170
1211	1.2039e+02	-4.1028	-20.401665	0.000790	7.904884	1.339124	-0.000158
1212	1.2049e+02	-4.1231	-20.595448	0.000973	9.729088	1.648152	-0.000195
1213	1.2059e+02	-4.1437	-20.760971	0.000831	8.310263	1.407797	-0.000166
1214	1.2069e+02	-4.1623	-20.930530	0.000851	8.512952	1.442133	-0.000170
1215	1.2079e+02	-4.1824	-21.108164	0.000892	8.918331	1.510806	-0.000179
1216	1.2089e+02	-4.2029	-21.233315	0.000628	6.283370	1.064432	-0.000126
1217	1.2099e+02	-4.2228	-21.419024	0.000932	9.323710	1.579479	-0.000187
1218	1.2109e+02	-4.2422	-21.556286	0.000689	6.891438	1.167441	-0.000138
1219	1.2119e+02	-4.2635	-21.762180	0.001034	10.337156	1.751162	-0.000207
1220	1.2129e+02	-4.2825	-21.919628	0.000790	7.904884	1.339124	-0.000158
1221	1.2139e+02	-4.3025	-22.093225	0.000872	8.715642	1.476470	-0.000174
1222	1.2149e+02	-4.3230	-22.258748	0.000831	8.310263	1.407797	-0.000166
1223	1.2159e+02	-4.3414	-22.387936	0.000649	6.486059	1.098768	-0.000130
1224	1.2169e+02	-4.3627	-22.565570	0.000892	8.918331	1.510806	-0.000179
1225	1.2179e+02	-4.3817	-22.755316	0.000953	9.526399	1.613816	-0.000191
1226	1.2189e+02	-4.4011	-22.892578	0.000689	6.891438	1.167441	-0.000138
1227	1.2199e+02	-4.4212	-23.082324	0.000953	9.526399	1.613816	-0.000191
1228	1.2209e+02	-4.4417	-23.235735	0.000770	7.702195	1.304787	-0.000154
1229	1.2219e+02	-4.4618	-23.401257	0.000831	8.310263	1.407797	-0.000166
1230	1.2229e+02	-4.4809	-23.566780	0.000831	8.310263	1.407797	-0.000166
1231	1.2239e+02	-4.5016	-23.695968	0.000649	6.486059	1.098768	-0.000130
1232	1.2248e+02	-4.5215	-23.901862	0.001034	10.337156	1.751162	-0.000207
1233	1.2258e+02	-4.5416	-24.018939	0.000588	5.877991	0.995759	-0.000118
1234	1.2268e+02	-4.5615	-24.192536	0.000872	8.715642	1.476470	-0.000174
1235	1.2278e+02	-4.5812	-24.370170	0.000892	8.918331	1.510806	-0.000179
1236	1.2288e+02	-4.6013	-24.527618	0.000790	7.904884	1.339124	-0.000158
1237	1.2298e+02	-4.6214	-24.753698	0.001135	11.350603	1.922844	-0.000227
1238	1.2308e+02	-4.6411	-24.858663	0.000527	5.269923	0.892749	-0.000105
1239	1.2318e+02	-4.6611	-25.024186	0.000831	8.310263	1.407797	-0.000166
1240	1.2328e+02	-4.6812	-25.165486	0.000709	7.094127	1.201778	-0.000142
1241	1.2338e+02	-4.7012	-25.355231	0.000953	9.526399	1.613816	-0.000191
1242	1.2348e+02	-4.7205	-25.536902	0.000912	9.121020	1.545143	-0.000183
1243	1.2358e+02	-4.7411	-25.666090	0.000649	6.486059	1.098768	-0.000130
1244	1.2368e+02	-4.7609	-25.851799	0.000932	9.323710	1.579479	-0.000187
1245	1.2378e+02	-4.7797	-25.993098	0.000709	7.094127	1.201778	-0.000142
1246	1.2388e+02	-4.8013	-26.203030	0.001054	10.539846	1.785498	-0.000211
1247	1.2398e+02	-4.8211	-26.332218	0.000649	6.486059	1.098768	-0.000130
1248	1.2408e+02	-4.8401	-26.485629	0.000770	7.702195	1.304787	-0.000154
1249	1.2418e+02	-4.8596	-26.655189	0.000851	8.512952	1.442133	-0.000170
1250	1.2428e+02	-4.8807	-26.836860	0.000912	9.121020	1.545143	-0.000183
1251	1.2438e+02	-4.8996	-27.010457	0.000872	8.715642	1.476470	-0.000174
1252	1.2447e+02	-4.9203	-27.147719	0.000689	6.891438	1.167441	-0.000138
1253	1.2457e+02	-4.9413	-27.337465	0.000953	9.526399	1.613816	-0.000191
1254	1.2467e+02	-4.9603	-27.494913	0.000790	7.904884	1.339124	-0.000158
1255	1.2477e+02	-4.9811	-27.656398	0.000811	8.107574	1.373460	-0.000162
1256	1.2487e+02	-5.0005	-27.825958	0.000851	8.512952	1.442133	-0.000170
1257	1.2497e+02	-5.0202	-27.963221	0.000689	6.891438	1.167441	-0.000138
1258	1.2507e+02	-5.0398	-28.120669	0.000790	7.904884	1.339124	-0.000158
1259	1.2517e+02	-5.0589	-28.318489	0.000993	9.931778	1.682489	-0.000199
1260	1.2527e+02	-5.0789	-28.463826	0.000730	7.296816	1.236114	-0.000146
1261	1.2537e+02	-5.0989	-28.584940	0.000608	6.080680	1.030095	-0.000122
1262	1.2547e+02	-5.1198	-28.754499	0.000851	8.512952	1.442133	-0.000170
1263	1.2557e+02	-5.1396	-28.915985	0.000811	8.107574	1.373460	-0.000162
1264	1.2567e+02	-5.1577	-29.093619	0.000892	8.918331	1.510806	-0.000179
1265	1.2577e+02	-5.1794	-29.238956	0.000730	7.296816	1.236114	-0.000146
1266	1.2587e+02	-5.1992	-29.396404	0.000790	7.904884	1.339124	-0.000158
1267	1.2597e+02	-5.2184	-29.578075	0.000912	9.121020	1.545143	-0.000183
1268	1.2607e+02	-5.2384	-29.699189	0.000608	6.080680	1.030095	-0.000122
1269	1.2617e+02	-5.2586	-29.892972	0.000973	9.729088	1.648152	-0.000195
1270	1.2627e+02	-5.2794	-30.046383	0.000770	7.702195	1.304787	-0.000154
1271	1.2636e+02	-5.2985	-30.199794	0.000770	7.702195	1.304787	-0.000154
1272	1.2646e+02	-5.3178	-30.357242	0.000790	7.904884	1.339124	-0.000158
1273	1.2656e+02	-5.3381	-30.486431	0.000649	6.486059	1.098768	-0.000130
1274	1.2666e+02	-5.3580	-30.692324	0.001034	10.337156	1.751162	-0.000207
1275	1.2676e+02	-5.3783	-30.805364	0.000568	5.675302	0.961422	-0.000114
1276	1.2686e+02	-5.3988	-31.015295	0.001054	10.539846	1.785498	-0.000211
1277	1.2696e+02	-5.4192	-31.140447	0.000628	6.283370	1.064432	-0.000126
1278	1.2706e+02	-5.4379	-31.305969	0.000831	8.310263	1.407797	-0.000166
1279	1.2716e+02	-5.4577	-31.414972	0.000547	5.472612	0.927086	-0.000110
1280	1.2726e+02	-5.4782	-31.580494	0.000831	8.310263	1.407797	-0.000166
1281	1.2736e+02	-5.4971	-31.786388	0.001034	10.337156	1.751162	-0.000207
1282	1.2746e+02	-5.5170	-31.875205	0.000446	4.459166	0.755403	-0.000089
1283	1.2756e+02	-5.5376	-32.048802	0.000872	8.715642	1.476470	-0.000174
1284	1.2766e+02	-5.5574	-32.210287	0.000811	8.107574	1.373460	-0.000162
1285	1.2776e+02	-5.5771	-32.424256	0.001074	10.742535	1.819835	-0.000215
1286	1.2786e+02	-5.5975	-32.517110	0.000466	4.661855	0.789740	-0.000093
1287	1.2796e+02	-5.6174	-32.682632	0.000831	8.310263	1.407797	-0.000166
1288	1.2806e+02	-5.6384	-32.807784	0.000628	6.283370	1.064432	-0.000126
1289	1.2816e+02	-5.6572	-32.993492	0.000932	9.323710	1.579479	-0.000187
1290	1.2826e+02	-5.6765	-33.167089	0.000872	8.715642	1.476470	-0.000174
1291	1.2835e+02	-5.6968	-33.292240	0.000628	6.283370	1.064432	-0.000126
1292	1.2845e+02	-5.7178	-33.461800	0.000851	8.512952	1.442133	-0.000170
1293	1.2855e+02	-5.7361	-33.651545	0.000953	9.526399	1.613816	-0.000191
1294	1.2865e+02	-5.7561	-33.776696	0.000628	6.283370	1.064432	-0.000126
1295	1.2875e+02	-5.7774	-33.905884	0.000649	6.486059	1.098768	-0.000130
1296	1.2885e+02	-5.7974	-34.083518	0.000892	8.918331	1.510806	-0.000179
1297	1.2895e+02	-5.8168	-34.208670	0.000628	6.283370	1.064432	-0.000126
1298	1.2905e+02	-5.8368	-34.366118	0.000790	7.904884	1.339124	-0.000158
1299	1.2915e+02	-5.8566	-34.551826	0.000932	9.323710	1.579479	-0.000187
1300	1.2925e+02	-5.8765	-34.713312	0.000811	8.107574	1.373460	-0.000162
1301	1.2935e+02	-5.8960	-34.822314	0.000547	5.472612	0.927086	-0.000110
1302	1.2945e+02	-5.9152	-34.979763	0.000790	7.904884	1.339124	-0.000158
1303	1.2955e+02	-5.9357	-35.112988	0.000669	6.688748	1.133105	-0.000134
1304	1.2965e+02	-5.9552	-35.266399	0.000770	7.702195	1.304787	-0.000154
1305	1.2975e+02	-5.9756	-35.423848	0.000790	7.904884	1.339124	-0.000158
1306	1.2985e+02	-5.9956	-35.585333	0.000811	8.107574	1.373460	-0.000162
1307	1.2995e+02	-6.0151	-35.714521	0.000649	6.486059	1.098768	-0.000130
1308	1.3005e+02	-6.0358	-35.847747	0.000669	6.688748	1.133105	-0.000134
1309	1.3015e+02	-6.0553	-36.009232	0.000811	8.107574	1.373460	-0.000162
1310	1.3025e+02	-6.0760	-36.154569	0.000730	7.296816	1.236114	-0.000146
1311	1.3034e+02	-6.0948	-36.295869	0.000709	7.094127	1.201778	-0.000142
1312	1.3044e+02	-6.1162	-36.441206	0.000730	7.296816	1.236114	-0.000146
1313	1.3054e+02	-6.1353	-36.614803	0.000872	8.715642	1.476470	-0.000174
1314	1.3064e+02	-6.1565	-36.764177	0.000750	7.499506	1.270451	-0.000150
1315	1.3074e+02	-6.1746	-36.889328	0.000628	6.283370	1.064432	-0.000126
1316	1.3084e+02	-6.1935	-37.062925	0.000872	8.715642	1.476470	-0.000174
1317	1.3094e+02	-6.2154	-37.220373	0.000790	7.904884	1.339124	-0.000158
1318	1.3104e+02	-6.2348	-37.325338	0.000527	5.269923	0.892749	-0.000105
1319	1.3114e+02	-6.2547	-37.519121	0.000973	9.729088	1.648152	-0.000195
1320	1.3124e+02	-6.2749	-37.620049	0.000507	5.067234	0.858413	-0.000101
1321	1.3134e+02	-6.2950	-37.761349	0.000709	7.094127	1.201778	-0.000142
1322	1.3144e+02	-6.3141	-37.886500	0.000628	6.283370	1.064432	-0.000126
1323	1.3154e+02	-6.3346	-38.072209	0.000932	9.323710	1.579479	-0.000187
1324	1.3164e+02	-6.3544	-38.229657	0.000790	7.904884	1.339124	-0.000158
1325	1.3174e+02	-6.3737	-38.374994	0.000730	7.296816	1.236114	-0.000146
1326	1.3184e+02	-6.3940	-38.500145	0.000628	6.283370	1.064432	-0.000126
1327	1.3194e+02	-6.4152	-38.641445	0.000709	7.094127	1.201778	-0.000142
1328	1.3204e+02	-6.4345	-38.806967	0.000831	8.310263	1.407797	-0.000166
1329	1.3214e+02	-6.4539	-38.940193	0.000669	6.688748	1.133105	-0.000134
1330	1.3224e+02	-6.4737	-39.065344	0.000628	6.283370	1.064432	-0.000126
1331	1.3234e+02	-6.4925	-39.210681	0.000730	7.296816	1.236114	-0.000146
1332	1.3243e+02	-6.5140	-39.356018	0.000730	7.296816	1.236114	-0.000146
1333	1.3253e+02	-6.5335	-39.469058	0.000568	5.675302	0.961422	-0.000114
1334	1.3263e+02	-6.5540	-39.630543	0.000811	8.107574	1.373460	-0.000162
1335	1.3273e+02	-6.5736	-39.771843	0.000709	7.094127	1.201778	-0.000142
1336	1.3283e+02	-6.5932	-39.929291	0.000790	7.904884	1.339124	-0.000158
1337	1.3293e+02	-6.6131	-40.026182	0.000486	4.864544	0.824076	-0.000097
1338	1.3303e+02	-6.6337	-40.183631	0.000790	7.904884	1.339124	-0.000158
1339	1.3313e+02	-6.6540	-40.320893	0.000689	6.891438	1.167441	-0.000138
1340	1.3323e+02	-6.6743	-40.478341	0.000790	7.904884	1.339124	-0.000158
1341	1.3333e+02	-6.6930	-40.611567	0.000669	6.688748	1.133105	-0.000134
1342	1.3343e+02	-6.7134	-40.756904	0.000730	7.296816	1.236114	-0.000146
1343	1.3353e+02	-6.7339	-40.922426	0.000831	8.310263	1.407797	-0.000166
1344	1.3363e+02	-6.7534	-41.031429	0.000547	5.472612	0.927086	-0.000110
1345	1.3373e+02	-6.7731	-41.136395	0.000527	5.269923	0.892749	-0.000105
1346	1.3383e+02	-6.7923	-41.297880	0.000811	8.107574	1.373460	-0.000162
1347	1.3393e+02	-6.8130	-41.443217	0.000730	7.296816	1.236114	-0.000146
1348	1.3403e+02	-6.8323	-41.584517	0.000709	7.094127	1.201778	-0.000142
1349	1.3413e+02	-6.8518	-41.741965	0.000790	7.904884	1.339124	-0.000158
1350	1.3423e+02	-6.8722	-41.899413	0.000790	7.904884	1.339124	-0.000158
1351	1.3432e+02	-6.8927	-42.008416	0.000547	5.472612	0.927086	-0.000110
1352	1.3442e+02	-6.9135	-42.137604	0.000649	6.486059	1.098768	-0.000130
1353	1.3452e+02	-6.9332	-42.303127	0.000831	8.310263	1.407797	-0.000166
1354	1.3462e+02	-6.9526	-42.444427	0.000709	7.094127	1.201778	-0.000142
1355	1.3472e+02	-6.9724	-42.577652	0.000669	6.688748	1.133105	-0.000134
1356	1.3482e+02	-6.9917	-42.706840	0.000649	6.486059	1.098768	-0.000130
1357	1.3492e+02	-7.0114	-42.856214	0.000750	7.499506	1.270451	-0.000150
1358	1.3502e+02	-7.0319	-43.041923	0.000932	9.323710	1.579479	-0.000187
1359	1.3512e+02	-7.0520	-43.167074	0.000628	6.283370	1.064432	-0.000126
1360	1.3522e+02	-7.0715	-43.272039	0.000527	5.269923	0.892749	-0.000105
1361	1.3532e+02	-7.0906	-43.441599	0.000851	8.512952	1.442133	-0.000170
1362	1.3542e+02	-7.1123	-43.574825	0.000669	6.688748	1.133105	-0.000134
1363	1.3552e+02	-7.1317	-43.655567	0.000405	4.053787	0.686730	-0.000081
1364	1.3562e+02	-7.1510	-43.837238	0.000912	9.121020	1.545143	-0.000183
1365	1.3572e+02	-7.1712	-43.990650	0.000770	7.702195	1.304787	-0.000154
1366	1.3582e+02	-7.1906	-44.131949	0.000709	7.094127	1.201778	-0.000142
1367	1.3592e+02	-7.2116	-44.232878	0.000507	5.067234	0.858413	-0.000101
1368	1.3602e+02	-7.2310	-44.390326	0.000790	7.904884	1.339124	-0.000158
1369	1.3612e+02	-7.2516	-44.523551	0.000669	6.688748	1.133105	-0.000134
1370	1.3622e+02	-7.2708	-44.685037	0.000811	8.107574	1.373460	-0.000162
1371	1.3631e+02	-7.2910	-44.781928	0.000486	4.864544	0.824076	-0.000097
1372	1.3641e+02	-7.3108	-44.935339	0.000770	7.702195	1.304787	-0.000154
1373	1.3651e+02	-7.3301	-45.088750	0.000770	7.702195	1.304787	-0.000154
1374	1.3661e+02	-7.3509	-45.221976	0.000669	6.688748	1.133105	-0.000134
1375	1.3671e+02	-7.3706	-45.306756	0.000426	4.256476	0.721067	-0.000085
1376	1.3681e+02	-7.3900	-45.435944	0.000649	6.486059	1.098768	-0.000130
1377	1.3691e+02	-7.4103	-45.593392	0.000790	7.904884	1.339124	-0.000158
1378	1.3701e+02	-7.4295	-45.742766	0.000750	7.499506	1.270451	-0.000150
1379	1.3711e+02	-7.4505	-45.875992	0.000669	6.688748	1.133105	-0.000134
1380	1.3721e+02	-7.4706	-46.029403	0.000770	7.702195	1.304787	-0.000154
1381	1.3731e+02	-7.4908	-46.158591	0.000649	6.486059	1.098768	-0.000130
1382	1.3741e+02	-7.5101	-46.307965	0.000750	7.499506	1.270451	-0.000150
1383	1.3751e+02	-7.5301	-46.416968	0.000547	5.472612	0.927086	-0.000110
1384	1.3761e+02	-7.5497	-46.550194	0.000669	6.688748	1.133105	-0.000134
1385	1.3771e+02	-7.5693	-46.691493	0.000709	7.094127	1.201778	-0.000142
1386	1.3781e+02	-7.5900	-46.820682	0.000649	6.486059	1.098768	-0.000130
1387	1.3791e+02	-7.6087	-46.949870	0.000649	6.486059	1.098768	-0.000130
1388	1.3801e+02	-7.6292	-47.079058	0.000649	6.486059	1.098768	-0.000130
1389	1.3811e+02	-7.6486	-47.216321	0.000689	6.891438	1.167441	-0.000138
1390	1.3821e+02	-7.6689	-47.365695	0.000750	7.499506	1.270451	-0.000150
1391	1.3831e+02	-7.6884	-47.502958	0.000689	6.891438	1.167441	-0.000138
1392	1.3840e+02	-7.7094	-47.652332	0.000750	7.499506	1.270451	-0.000150
1393	1.3850e+02	-7.7283	-47.789594	0.000689	6.891438	1.167441	-0.000138
1394	1.3860e+02	-7.7470	-47.910708	0.000608	6.080680	1.030095	-0.000122
1395	1.3870e+02	-7.7673	-48.043934	0.000669	6.688748	1.133105	-0.000134
1396	1.3880e+02	-7.7878	-48.229642	0.000932	9.323710	1.579479	-0.000187
1397	1.3890e+02	-7.8082	-48.330570	0.000507	5.067234	0.858413	-0.000101
1398	1.3900e+02	-7.8291	-48.475907	0.000730	7.296816	1.236114	-0.000146
1399	1.3910e+02	-7.8473	-48.601059	0.000628	6.283370	1.064432	-0.000126
1400	1.3920e+02	-7.8680	-48.726210	0.000628	6.283370	1.064432	-0.000126
1401	1.3930e+02	-7.8882	-48.855398	0.000649	6.486059	1.098768	-0.000130
1402	1.3940e+02	-7.9083	-48.996698	0.000709	7.094127	1.201778	-0.000142
1403	1.3950e+02	-7.9279	-49.109738	0.000568	5.675302	0.961422	-0.000114
1404	1.3960e+02	-7.9485	-49.234889	0.000628	6.283370	1.064432	-0.000126
1405	1.3970e+02	-7.9669	-49.384263	0.000750	7.499506	1.270451	-0.000150
1406	1.3980e+02	-7.9877	-49.509414	0.000628	6.283370	1.064432	-0.000126
1407	1.3990e+02	-8.0074	-49.662825	0.000770	7.702195	1.304787	-0.000154
1408	1.4000e+02	-8.0270	-49.751642	0.000446	4.459166	0.755403	-0.000089
1409	1.4010e+02	-8.0475	-49.953499	0.001013	10.134467	1.716825	-0.000203
1410	1.4020e+02	-8.0670	-50.066539	0.000568	5.675302	0.961422	-0.000114
1411	1.4029e+02	-8.0871	-50.171504	0.000527	5.269923	0.892749	-0.000105
1412	1.4039e+02	-8.1078	-50.324916	0.000770	7.702195	1.304787	-0.000154
1413	1.4049e+02	-8.1271	-50.494475	0.000851	8.512952	1.442133	-0.000170
1414	1.4059e+02	-8.1472	-50.619626	0.000628	6.283370	1.064432	-0.000126
1415	1.4069e+02	-8.1664	-50.756889	0.000689	6.891438	1.167441	-0.000138
1416	1.4079e+02	-8.1866	-50.886077	0.000649	6.486059	1.098768	-0.000130
1417	1.4089e+02	-8.2062	-51.007191	0.000608	6.080680	1.030095	-0.000122
1418	1.4099e+02	-8.2263	-51.164640	0.000790	7.904884	1.339124	-0.000158
1419	1.4109e+02	-8.2470	-51.297865	0.000669	6.688748	1.133105	-0.000134
1420	1.4119e+02	-8.2661	-51.398794	0.000507	5.067234	0.858413	-0.000101
1421	1.4129e+02	-8.2856	-51.540093	0.000709	7.094127	1.201778	-0.000142
1422	1.4139e+02	-8.3069	-51.665245	0.000628	6.283370	1.064432	-0.000126
1423	1.4149e+02	-8.3267	-51.806544	0.000709	7.094127	1.201778	-0.000142
1424	1.4159e+02	-8.3453	-51.939770	0.000669	6.688748	1.133105	-0.000134
1425	1.4169e+02	-8.3664	-52.093181	0.000770	7.702195	1.304787	-0.000154
1426	1.4179e+02	-8.3855	-52.234481	0.000709	7.094127	1.201778	-0.000142
1427	1.4189e+02	-8.4058	-52.391929	0.000790	7.904884	1.339124	-0.000158
1428	1.4199e+02	-8.4272	-52.541303	0.000750	7.499506	1.270451	-0.000150
1429	1.4209e+02	-8.4467	-52.613972	0.000365	3.648408	0.618057	-0.000073
1430	1.4219e+02	-8.4663	-52.727011	0.000568	5.675302	0.961422	-0.000114
1431	1.4228e+02	-8.4859	-52.904645	0.000892	8.918331	1.510806	-0.000179
1432	1.4238e+02	-8.5046	-53.009611	0.000527	5.269923	0.892749	-0.000105
1433	1.4248e+02	-8.5246	-53.150911	0.000709	7.094127	1.201778	-0.000142
1434	1.4258e+02	-8.5458	-53.284136	0.000669	6.688748	1.133105	-0.000134
1435	1.4268e+02	-8.5651	-53.405250	0.000608	6.080680	1.030095	-0.000122
1436	1.4278e+02	-8.5851	-53.546550	0.000709	7.094127	1.201778	-0.000142
1437	1.4288e+02	-8.6055	-53.695924	0.000750	7.499506	1.270451	-0.000150
1438	1.4298e+02	-8.6248	-53.817038	0.000608	6.080680	1.030095	-0.000122
1439	1.4308e+02	-8.6450	-53.905855	0.000446	4.459166	0.755403	-0.000089
1440	1.4318e+02	-8.6649	-54.083489	0.000892	8.918331	1.510806	-0.000179
1441	1.4328e+02	-8.6860	-54.216714	0.000669	6.688748	1.133105	-0.000134
1442	1.4338e+02	-8.7045	-54.317643	0.000507	5.067234	0.858413	-0.000101
1443	1.4348e+02	-8.7251	-54.491240	0.000872	8.715642	1.476470	-0.000174
1444	1.4358e+02	-8.7437	-54.580057	0.000446	4.459166	0.755403	-0.000089
1445	1.4368e+02	-8.7634	-54.717319	0.000689	6.891438	1.167441	-0.000138
1446	1.4378e+02	-8.7839	-54.866693	0.000750	7.499506	1.270451	-0.000150
1447	1.4388e+02	-8.8052	-54.987807	0.000608	6.080680	1.030095	-0.000122
1448	1.4398e+02	-8.8254	-55.116996	0.000649	6.486059	1.098768	-0.000130
1449	1.4408e+02	-8.8448	-55.221961	0.000527	5.269923	0.892749	-0.000105
1450	1.4418e+02	-8.8647	-55.343075	0.000608	6.080680	1.030095	-0.000122
1451	1.4428e+02	-8.8830	-55.512635	0.000851	8.512952	1.442133	-0.000170
1452	1.4437e+02	-8.9041	-55.633749	0.000608	6.080680	1.030095	-0.000122
1453	1.4447e+02	-8.9233	-55.750826	0.000588	5.877991	0.995759	-0.000118
1454	1.4457e+02	-8.9435	-55.892126	0.000709	7.094127	1.201778	-0.000142
1455	1.4467e+02	-8.9632	-56.037463	0.000730	7.296816	1.236114	-0.000146
1456	1.4477e+02	-8.9825	-56.138391	0.000507	5.067234	0.858413	-0.000101
1457	1.4487e+02	-9.0034	-56.275654	0.000689	6.891438	1.167441	-0.000138
1458	1.4497e+02	-9.0233	-56.408879	0.000669	6.688748	1.133105	-0.000134
1459	1.4507e+02	-9.0443	-56.538067	0.000649	6.486059	1.098768	-0.000130
1460	1.4517e+02	-9.0633	-56.687441	0.000750	7.499506	1.270451	-0.000150
1461	1.4527e+02	-9.0823	-56.824704	0.000689	6.891438	1.167441	-0.000138
1462	1.4537e+02	-9.1032	-56.929670	0.000527	5.269923	0.892749	-0.000105
1463	1.4547e+02	-9.1228	-57.070969	0.000709	7.094127	1.201778	-0.000142
1464	1.4557e+02	-9.1429	-57.224381	0.000770	7.702195	1.304787	-0.000154
1465	1.4567e+02	-9.1623	-57.309160	0.000426	4.256476	0.721067	-0.000085
1466	1.4577e+02	-9.1805	-57.430274	0.000608	6.080680	1.030095	-0.000122
1467	1.4587e+02	-9.2017	-57.563500	0.000669	6.688748	1.133105	-0.000134
1468	1.4597e+02	-9.2221	-57.700763	0.000689	6.891438	1.167441	-0.000138
1469	1.4607e+02	-9.2422	-57.817839	0.000588	5.877991	0.995759	-0.000118
1470	1.4617e+02	-9.2622	-57.955102	0.000689	6.891438	1.167441	-0.000138
1471	1.4626e+02	-9.2828	-58.051993	0.000486	4.864544	0.824076	-0.000097
1472	1.4636e+02	-9.3031	-58.217516	0.000831	8.310263	1.407797	-0.000166
1473	1.4646e+02	-9.3216	-58.330556	0.000568	5.675302	0.961422	-0.000114
1474	1.4656e+02	-9.3414	-58.399187	0.000345	3.445719	0.583721	-0.000069
1475	1.4666e+02	-9.3617	-58.548561	0.000750	7.499506	1.270451	-0.000150
1476	1.4676e+02	-9.3823	-58.689861	0.000709	7.094127	1.201778	-0.000142
1477	1.4686e+02	-9.4016	-58.802901	0.000568	5.675302	0.961422	-0.000114
1478	1.4696e+02	-9.4226	-58.928052	0.000628	6.283370	1.064432	-0.000126
1479	1.4706e+02	-9.4419	-59.057240	0.000649	6.486059	1.098768	-0.000130
1480	1.4716e+02	-9.4617	-59.206614	0.000750	7.499506	1.270451	-0.000150
1481	1.4726e+02	-9.4820	-59.319654	0.000568	5.675302	0.961422	-0.000114
1482	1.4736e+02	-9.5015	-59.456917	0.000689	6.891438	1.167441	-0.000138
1483	1.4746e+02	-9.5213	-59.569956	0.000568	5.675302	0.961422	-0.000114
1484	1.4756e+02	-9.5410	-59.715293	0.000730	7.296816	1.236114	-0.000146
1485	1.4766e+02	-9.5604	-59.787962	0.000365	3.648408	0.618057	-0.000073
1486	1.4776e+02	-9.5815	-59.913113	0.000628	6.283370	1.064432	-0.000126
1487	1.4786e+02	-9.6011	-60.070561	0.000790	7.904884	1.339124	-0.000158
1488	1.4796e+02	-9.6219	-60.183601	0.000568	5.675302	0.961422	-0.000114
1489	1.4806e+02	-9.6404	-60.312789	0.000649	6.486059	1.098768	-0.000130
1490	1.4816e+02	-9.6601	-60.458126	0.000730	7.296816	1.236114	-0.000146
1491	1.4825e+02	-9.6799	-60.587315	0.000649	6.486059	1.098768	-0.000130
1492	1.4835e+02	-9.7005	-60.659983	0.000365	3.648408	0.618057	-0.000073
1493	1.4845e+02	-9.7213	-60.777060	0.000588	5.877991	0.995759	-0.000118
1494	1.4855e+02	-9.7408	-60.902211	0.000628	6.283370	1.064432	-0.000126
1495	1.4865e+02	-9.7593	-61.063697	0.000811	8.107574	1.373460	-0.000162
1496	1.4875e+02	-9.7798	-61.120217	0.000284	2.837651	0.480711	-0.000057
1497	1.4885e+02	-9.8003	-61.213071	0.000466	4.661855	0.789740	-0.000093
1498	1.4895e+02	-9.8198	-61.394742	0.000912	9.121020	1.545143	-0.000183
1499	1.4905e+02	-9.8389	-61.495670	0.000507	5.067234	0.858413	-0.000101
1500	1.4915e+02	-9.8599	-61.653118	0.000790	7.904884	1.339124	-0.000158
1501	1.4925e+02	-9.8796	-61.741935	0.000446	4.459166	0.755403	-0.000089
1502	1.4935e+02	-9.9008	-61.867087	0.000628	6.283370	1.064432	-0.000126
1503	1.4945e+02	-9.9191	-61.976089	0.000547	5.472612	0.927086	-0.000110
1504	1.4955e+02	-9.9394	-62.113352	0.000689	6.891438	1.167441	-0.000138
1505	1.4965e+02	-9.9590	-62.194095	0.000405	4.053787	0.686730	-0.000081
1506	1.4975e+02	-9.9792	-62.319246	0.000628	6.283370	1.064432	-0.000126
1507	1.4985e+02	-9.9998	-62.452471	0.000669	6.688748	1.133105	-0.000134
1508	1.4995e+02	-9.9792	-62.460546	-0.000041	-0.405379	-0.068673	-0.000008
1509	1.5005e+02	-9.9599	-62.484768	-0.000122	-1.216136	-0.206019	-0.000024
1510	1.5015e+02	-9.9388	-62.500917	-0.000081	-0.810757	-0.137346	-0.000016
1511	1.5025e+02	-9.9192	-62.484768	0.000081	0.810757	0.137346	0.000016
1512	1.5034e+02	-9.8990	-62.500917	-0.000081	-0.810757	-0.137346	-0.000016
1513	1.5044e+02	-9.8799	-62.472657	0.000142	1.418825	0.240356	0.000028
1514	1.5054e+02	-9.8595	-62.492843	-0.000101	-1.013447	-0.171683	-0.000020
1515	1.5064e+02	-9.8396	-62.460546	0.000162	1.621515	0.274692	0.000032
1516	1.5074e+02	-9.8199	-62.444397	0.000081	0.810757	0.137346	0.000016
1517	1.5084e+02	-9.8004	-62.424211	0.000101	1.013447	0.171683	0.000020
1518	1.5094e+02	-9.7800	-62.448434	-0.000122	-1.216136	-0.206019	-0.000024
1519	1.5104e+02	-9.7614	-62.432286	0.000081	0.810757	0.137346	0.000016
1520	1.5114e+02	-9.7407	-62.404026	0.000142	1.418825	0.240356	0.000028
1521	1.5124e+02	-9.7198	-62.391914	0.000061	0.608068	0.103010	0.000012
1522	1.5134e+02	-9.7005	-62.359617	0.000162	1.621515	0.274692	0.000032
1523	1.5144e+02	-9.6810	-62.335394	0.000122	1.216136	0.206019	0.000024
1524	1.5154e+02	-9.6611	-62.343469	-0.000041	-0.405379	-0.068673	-0.000008
1525	1.5164e+02	-9.6407	-62.315209	0.000142	1.418825	0.240356	0.000028
1526	1.5174e+02	-9.6201	-62.278874	0.000182	1.824204	0.309029	0.000037
1527	1.5184e+02	-9.5996	-62.262726	0.000081	0.810757	0.137346	0.000016
1528	1.5194e+02	-9.5816	-62.250615	0.000061	0.608068	0.103010	0.000012
1529	1.5204e+02	-9.5609	-62.206206	0.000223	2.229583	0.377702	0.000045
1530	1.5214e+02	-9.5405	-62.181983	0.000122	1.216136	0.206019	0.000024
1531	1.5224e+02	-9.5219	-62.173909	0.000041	0.405379	0.068673	0.000008
1532	1.5233e+02	-9.5020	-62.157760	0.000081	0.810757	0.137346	0.000016
1533	1.5243e+02	-9.4893	-62.121426	0.000182	1.824204	0.309029	0.000037
1534	1.5253e+02	-9.4624	-62.085092	0.000182	1.824204	0.309029	0.000037
1535	1.5263e+02	-9.4412	-62.060869	0.000122	1.216136	0.206019	0.000024
1536	1.5273e+02	-9.4199	-62.000312	0.000304	3.040340	0.515048	0.000061
1537	1.5283e+02	-9.4014	-61.980126	0.000101	1.013447	0.171683	0.000020
1538	1.5293e+02	-9.3820	-61.976089	0.000020	0.202689	0.034337	0.000004
1539	1.5303e+02	-9.3633	-61.939755	0.000182	1.824204	0.309029	0.000037
1540	1.5313e+02	-9.3431	-61.846901	0.000466	4.661855	0.789740	0.000093
1541	1.5323e+02	-9.3221	-61.859012	-0.000061	-0.608068	-0.103010	-0.000012
1542	1.5333e+02	-9.3031	-61.802492	0.000284	2.837651	0.480711	0.000057
1543	1.5343e+02	-9.2828	-61.782307	0.000101	1.013447	0.171683	0.000020
1544	1.5353e+02	-9.2616	-61.758084	0.000122	1.216136	0.206019	0.000024
1545	1.5363e+02	-9.2426	-61.717713	0.000203	2.026893	0.343365	0.000041
1546	1.5373e+02	-9.2232	-61.705601	0.000061	0.608068	0.103010	0.000012
1547	1.5383e+02	-9.2027	-61.661193	0.000223	2.229583	0.377702	0.000045
1548	1.5393e+02	-9.1824	-61.608710	0.000263	2.634961	0.446375	0.000053
1549	1.5403e+02	-9.1628	-61.580450	0.000142	1.418825	0.240356	0.000028
1550	1.5413e+02	-9.1426	-61.519893	0.000304	3.040340	0.515048	0.000061
1551	1.5422e+02	-9.1228	-61.463373	0.000284	2.837651	0.480711	0.000057
1552	1.5432e+02	-9.1028	-61.435113	0.000142	1.418825	0.240356	0.000028
1553	1.5442e+02	-9.0834	-61.410890	0.000122	1.216136	0.206019	0.000024
1554	1.5452e+02	-9.0625	-61.346296	0.000324	3.243029	0.549384	0.000065
1555	1.5462e+02	-9.0430	-61.326110	0.000101	1.013447	0.171683	0.000020
1556	1.5472e+02	-9.0222	-61.249405	0.000385	3.851098	0.652394	0.000077
1557	1.5482e+02	-9.0030	-61.237293	0.000061	0.608068	0.103010	0.000012
1558	1.5492e+02	-8.9838	-61.180774	0.000284	2.837651	0.480711	0.000057
1559	1.5502e+02	-8.9632	-61.136365	0.000223	2.229583	0.377702	0.000045
1560	1.5512e+02	-8.9417	-61.112142	0.000122	1.216136	0.206019	0.000024
1561	1.5522e+02	-8.9240	-61.079845	0.000162	1.621515	0.274692	0.000032
1562	1.5532e+02	-8.9057	-61.039474	0.000203	2.026893	0.343365	0.000041
1563	1.5542e+02	-8.8836	-60.995065	0.000223	2.229583	0.377702	0.000045
1564	1.5552e+02	-8.8638	-60.926434	0.000345	3.445719	0.583721	0.000069
1565	1.5562e+02	-8.8443	-60.910285	0.000081	0.810757	0.137346	0.000016
1566	1.5572e+02	-8.8245	-60.849728	0.000304	3.040340	0.515048	0.000061
1567	1.5582e+02	-8.8045	-60.813394	0.000182	1.824204	0.309029	0.000037
1568	1.5592e+02	-8.7847	-60.748800	0.000324	3.243029	0.549384	0.000065
1569	1.5602e+02	-8.7645	-60.700354	0.000243	2.432272	0.412038	0.000049
1570	1.5612e+02	-8.7438	-60.664020	0.000182	1.824204	0.309029	0.000037
1571	1.5622e+02	-8.7239	-60.664020	0.000000	0.000000	0.000000	0.000000
1572	1.5631e+02	-8.7046	-60.595389	0.000345	3.445719	0.583721	0.000069
1573	1.5641e+02	-8.6832	-60.498498	0.000486	4.864544	0.824076	0.000097
1574	1.5651e+02	-8.6641	-60.498498	0.000000	0.000000	0.000000	0.000000
1575	1.5661e+02	-8.6455	-60.429866	0.000345	3.445719	0.583721	0.000069
1576	1.5671e+02	-8.6255	-60.389495	0.000203	2.026893	0.343365	0.000041
1577	1.5681e+02	-8.6050	-60.341049	0.000243	2.432272	0.412038	0.000049
1578	1.5691e+02	-8.5858	-60.296641	0.000223	2.229583	0.377702	0.000045
1579	1.5701e+02	-8.5653	-60.256269	0.000203	2.026893	0.343365	0.000041
1580	1.5711e+02	-8.5455	-60.207824	0.000243	2.432272	0.412038	0.000049
1581	1.5721e+02	-8.5260	-60.175527	0.000162	1.621515	0.274692	0.000032
1582	1.5731e+02	-8.5055	-60.119007	0.000284	2.837651	0.480711	0.000057
1583	1.5741e+02	-8.4853	-60.090747	0.000142	1.418825	0.240356	0.000028
1584	1.5751e+02	-8.4650	-60.005967	0.000426	4.256476	0.721067	0.000085
1585	1.5761e+02	-8.4453	-59.977707	0.000142	1.418825	0.240356	0.000028
1586	1.5771e+02	-8.4251	-59.892927	0.000426	4.256476	0.721067	0.000085
1587	1.5781e+02	-8.4082	-59.852556	0.000203	2.026893	0.343365	0.000041
1588	1.5791e+02	-8.3868	-59.820259	0.000162	1.621515	0.274692	0.000032
1589	1.5801e+02	-8.3661	-59.739516	0.000405	4.053787	0.686730	0.000081
1590	1.5811e+02	-8.3463	-59.695108	0.000223	2.229583	0.377702	0.000045
1591	1.5821e+02	-8.3258	-59.674922	0.000101	1.013447	0.171683	0.000020
1592	1.5830e+02	-8.3063	-59.606291	0.000345	3.445719	0.583721	0.000069
1593	1.5840e+02	-8.2866	-59.553808	0.000263	2.634961	0.446375	0.000053
1594	1.5850e+02	-8.2658	-59.501325	0.000263	2.634961	0.446375	0.000053
1595	1.5860e+02	-8.2466	-59.452879	0.000243	2.432272	0.412038	0.000049
1596	1.5870e+02	-8.2260	-59.428657	0.000122	1.216136	0.206019	0.000024
1597	1.5880e+02	-8.2077	-59.355988	0.000365	3.648408	0.618057	0.000073
1598	1.5890e+02	-8.1868	-59.279283	0.000385	3.851098	0.652394	0.000077
1599	1.5900e+02	-8.1660	-59.267171	0.000061	0.608068	0.103010	0.000012
1600	1.5910e+02	-8.1470	-59.146057	0.000608	6.080680	1.030095	0.000122
1601	1.5920e+02	-8.1270	-59.137983	0.000041	0.405379	0.068673	0.000008
1602	1.5930e+02	-8.1076	-59.061277	0.000385	3.851098	0.652394	0.000077
1603	1.5940e+02	-8.0871	-58.980535	0.000405	4.053787	0.686730	0.000081
1604	1.5950e+02	-8.0670	-58.944200	0.000182	1.824204	0.309029	0.000037
1605	1.5960e+02	-8.0480	-58.883643	0.000304	3.040340	0.515048	0.000061
1606	1.5970e+02	-8.0272	-58.843272	0.000203	2.026893	0.343365	0.000041
1607	1.5980e+02	-8.0078	-58.770604	0.000365	3.648408	0.618057	0.000073
1608	1.5990e+02	-7.9874	-58.714084	0.000284	2.837651	0.480711	0.000057
1609	1.6000e+02	-7.9669	-58.633341	0.000405	4.053787	0.686730	0.000081
1610	1.6010e+02	-7.9475	-58.580858	0.000263	2.634961	0.446375	0.000053
1611	1.6019e+02	-7.9281	-58.544524	0.000182	1.824204	0.309029	0.000037
1612	1.6029e+02	-7.9077	-58.455707	0.000446	4.459166	0.755403	0.000089
1613	1.6039e+02	-7.8885	-58.391113	0.000324	3.243029	0.549384	0.000065
1614	1.6049e+02	-7.8681	-58.399187	-0.000041	-0.405379	-0.068673	-0.000008
1615	1.6059e+02	-7.8481	-58.306333	0.000466	4.661855	0.789740	0.000093
1616	1.6069e+02	-7.8288	-58.201367	0.000527	5.269923	0.892749	0.000105
1617	1.6079e+02	-7.8075	-58.165033	0.000182	1.824204	0.309029	0.000037
1618	1.6089e+02	-7.7891	-58.088328	0.000385	3.851098	0.652394	0.000077
1619	1.6099e+02	-7.7678	-58.060068	0.000142	1.418825	0.240356	0.000028
1620	1.6109e+02	-7.7490	-57.995473	0.000324	3.243029	0.549384	0.000065
1621	1.6119e+02	-7.7280	-57.951065	0.000223	2.229583	0.377702	0.000045
1622	1.6129e+02	-7.7100	-57.842062	0.000547	5.472612	0.927086	0.000110
1623	1.6139e+02	-7.6880	-57.801691	0.000203	2.026893	0.343365	0.000041
1624	1.6149e+02	-7.6691	-57.724985	0.000385	3.851098	0.652394	0.000077
1625	1.6159e+02	-7.6486	-57.648280	0.000385	3.851098	0.652394	0.000077
1626	1.6169e+02	-7.6291	-57.595797	0.000263	2.634961	0.446375	0.000053
1627	1.6179e+02	-7.6088	-57.547351	0.000243	2.432272	0.412038	0.000049
1628	1.6189e+02	-7.5887	-57.486794	0.000304	3.040340	0.515048	0.000061
1629	1.6199e+02	-7.5691	-57.458534	0.000142	1.418825	0.240356	0.000028
1630	1.6209e+02	-7.5496	-57.369717	0.000446	4.459166	0.755403	0.000089
1631	1.6219e+02	-7.5296	-57.288975	0.000405	4.053787	0.686730	0.000081
1632	1.6228e+02	-7.5103	-57.236492	0.000263	2.634961	0.446375	0.000053
1633	1.6238e+02	-7.4902	-57.135564	0.000507	5.067234	0.858413	0.000101
1634	1.6248e+02	-7.4696	-57.127489	0.000041	0.405379	0.068673	0.000008
1635	1.6258e+02	-7.4493	-57.038672	0.000446	4.459166	0.755403	0.000089
1636	1.6268e+02	-7.4313	-56.986190	0.000263	2.634961	0.446375	0.000053
1637	1.6278e+02	-7.4103	-56.905447	0.000405	4.053787	0.686730	0.000081
1638	1.6288e+02	-7.3894	-56.784333	0.000608	6.080680	1.030095	0.000122
1639	1.6298e+02	-7.3706	-56.760110	0.000122	1.216136	0.206019	0.000024
1640	1.6308e+02	-7.3494	-56.667256	0.000466	4.661855	0.789740	0.000093
1641	1.6318e+02	-7.3314	-56.638996	0.000142	1.418825	0.240356	0.000028
1642	1.6328e+02	-7.3101	-56.546142	0.000466	4.661855	0.789740	0.000093
1643	1.6338e+02	-7.2910	-56.521919	0.000122	1.216136	0.206019	0.000024
1644	1.6348e+02	-7.2708	-56.392731	0.000649	6.486059	1.098768	0.000130
1645	1.6358e+02	-7.2507	-56.320062	0.000365	3.648408	0.618057	0.000073
1646	1.6368e+02	-7.2326	-56.295839	0.000122	1.216136	0.206019	0.000024
1647	1.6378e+02	-7.2109	-56.227208	0.000345	3.445719	0.583721	0.000069
1648	1.6388e+02	-7.1914	-56.166651	0.000304	3.040340	0.515048	0.000061
1649	1.6398e+02	-7.1710	-56.021314	0.000730	7.296816	1.236114	0.000146
1650	1.6408e+02	-7.1510	-55.960757	0.000304	3.040340	0.515048	0.000061
1651	1.6418e+02	-7.1307	-55.920386	0.000203	2.026893	0.343365	0.000041
1652	1.6427e+02	-7.1118	-55.779086	0.000709	7.094127	1.201778	0.000142
1653	1.6437e+02	-7.0921	-55.754863	0.000122	1.216136	0.206019	0.000024
1654	1.6447e+02	-7.0715	-55.674120	0.000405	4.053787	0.686730	0.000081
1655	1.6457e+02	-7.0516	-55.613563	0.000304	3.040340	0.515048	0.000061
1656	1.6467e+02	-7.0309	-55.536858	0.000385	3.851098	0.652394	0.000077
1657	1.6477e+02	-7.0125	-55.456115	0.000405	4.053787	0.686730	0.000081
1658	1.6487e+02	-6.9925	-55.351150	0.000527	5.269923	0.892749	0.000105
1659	1.6497e+02	-6.9722	-55.306741	0.000223	2.229583	0.377702	0.000045
1660	1.6507e+02	-6.9517	-55.221961	0.000426	4.256476	0.721067	0.000085
1661	1.6517e+02	-6.9321	-55.141218	0.000405	4.053787	0.686730	0.000081
1662	1.6527e+02	-6.9127	-55.116996	0.000122	1.216136	0.206019	0.000024
1663	1.6537e+02	-6.8921	-55.024142	0.000466	4.661855	0.789740	0.000093
1664	1.6547e+02	-6.8726	-54.907065	0.000588	5.877991	0.995759	0.000118
1665	1.6557e+02	-6.8523	-54.806136	0.000507	5.067234	0.858413	0.000101
1666	1.6567e+02	-6.8329	-54.798062	0.000041	0.405379	0.068673	0.000008
1667	1.6577e+02	-6.8131	-54.676948	0.000608	6.080680	1.030095	0.000122
1668	1.6587e+02	-6.7926	-54.580057	0.000486	4.864544	0.824076	0.000097
1669	1.6597e+02	-6.7728	-54.495277	0.000426	4.256476	0.721067	0.000085
1670	1.6607e+02	-6.7532	-54.454905	0.000203	2.026893	0.343365	0.000041
1671	1.6616e+02	-6.7331	-54.345903	0.000547	5.472612	0.927086	0.000110
1672	1.6626e+02	-6.7136	-54.273234	0.000365	3.648408	0.618057	0.000073
1673	1.6636e+02	-6.6927	-54.168269	0.000527	5.269923	0.892749	0.000105
1674	1.6646e+02	-6.6730	-54.091563	0.000385	3.851098	0.652394	0.000077
1675	1.6656e+02	-6.6534	-54.026969	0.000324	3.243029	0.549384	0.000065
1676	1.6666e+02	-6.6335	-53.954301	0.000365	3.648408	0.618057	0.000073
1677	1.6676e+02	-6.6137	-53.837224	0.000588	5.877991	0.995759	0.000118
1678	1.6686e+02	-6.5942	-53.792815	0.000223	2.229583	0.377702	0.000045
1679	1.6696e+02	-6.5735	-53.683812	0.000547	5.472612	0.927086	0.000110
1680	1.6706e+02	-6.5542	-53.590958	0.000466	4.661855	0.789740	0.000093
1681	1.6716e+02	-6.5344	-53.502141	0.000446	4.459166	0.755403	0.000089
1682	1.6726e+02	-6.5143	-53.429473	0.000365	3.648408	0.618057	0.000073
1683	1.6736e+02	-6.4934	-53.348730	0.000405	4.053787	0.686730	0.000081
1684	1.6746e+02	-6.4741	-53.276062	0.000365	3.648408	0.618057	0.000073
1685	1.6756e+02	-6.4536	-53.171096	0.000527	5.269923	0.892749	0.000105
1686	1.6766e+02	-6.4340	-53.118613	0.000263	2.634961	0.446375	0.000053
1687	1.6776e+02	-6.4139	-53.049982	0.000345	3.445719	0.583721	0.000069
1688	1.6786e+02	-6.3940	-52.900608	0.000750	7.499506	1.270451	0.000150
1689	1.6796e+02	-6.3736	-52.868311	0.000162	1.621515	0.274692	0.000032
1690	1.6806e+02	-6.3556	-52.702788	0.000831	8.310263	1.407797	0.000166
1691	1.6816e+02	-6.3344	-52.678566	0.000122	1.216136	0.206019	0.000024
1692	1.6825e+02	-6.3147	-52.634157	0.000223	2.229583	0.377702	0.000045
1693	1.6835e+02	-6.2950	-52.517080	0.000588	5.877991	0.995759	0.000118
1694	1.6845e+02	-6.2750	-52.416152	0.000507	5.067234	0.858413	0.000101
1695	1.6855e+02	-6.2544	-52.339446	0.000385	3.851098	0.652394	0.000077
1696	1.6865e+02	-6.2346	-52.295038	0.000223	2.229583	0.377702	0.000045
1697	1.6875e+02	-6.2140	-52.165849	0.000649	6.486059	1.098768	0.000130
1698	1.6885e+02	-6.1958	-52.105292	0.000304	3.040340	0.515048	0.000061
1699	1.6895e+02	-6.1745	-52.004364	0.000507	5.067234	0.858413	0.000101
1700	1.6905e+02	-6.1557	-51.903436	0.000507	5.067234	0.858413	0.000101
1701	1.6915e+02	-6.1359	-51.854990	0.000243	2.432272	0.412038	0.000049
1702	1.6925e+02	-6.1158	-51.762136	0.000466	4.661855	0.789740	0.000093
1703	1.6935e+02	-6.0950	-51.665245	0.000486	4.864544	0.824076	0.000097
1704	1.6945e+02	-6.0754	-51.580465	0.000426	4.256476	0.721067	0.000085
1705	1.6955e+02	-6.0552	-51.491648	0.000446	4.459166	0.755403	0.000089
1706	1.6965e+02	-6.0364	-51.394757	0.000486	4.864544	0.824076	0.000097
1707	1.6975e+02	-6.0162	-51.293828	0.000507	5.067234	0.858413	0.000101
1708	1.6985e+02	-5.9967	-51.233271	0.000304	3.040340	0.515048	0.000061
1709	1.6995e+02	-5.9752	-51.116194	0.000588	5.877991	0.995759	0.000118
1710	1.7005e+02	-5.9558	-51.047563	0.000345	3.445719	0.583721	0.000069
1711	1.7015e+02	-5.9367	-50.950672	0.000486	4.864544	0.824076	0.000097
1712	1.7024e+02	-5.9169	-50.845706	0.000527	5.269923	0.892749	0.000105
1713	1.7034e+02	-5.8966	-50.744778	0.000507	5.067234	0.858413	0.000101
1714	1.7044e+02	-5.8771	-50.676146	0.000345	3.445719	0.583721	0.000069
1715	1.7054e+02	-5.8565	-50.579255	0.000486	4.864544	0.824076	0.000097
1716	1.7064e+02	-5.8360	-50.466215	0.000568	5.675302	0.961422	0.000114
1717	1.7074e+02	-5.8163	-50.405658	0.000304	3.040340	0.515048	0.000061
1718	1.7084e+02	-5.7968	-50.292618	0.000568	5.675302	0.961422	0.000114
1719	1.7094e+02	-5.7770	-50.195727	0.000486	4.864544	0.824076	0.000097
1720	1.7104e+02	-5.7559	-50.110947	0.000426	4.256476	0.721067	0.000085
1721	1.7114e+02	-5.7368	-50.022130	0.000446	4.459166	0.755403	0.000089
1722	1.7124e+02	-5.7169	-49.945425	0.000385	3.851098	0.652394	0.000077
1723	1.7134e+02	-5.6977	-49.832385	0.000568	5.675302	0.961422	0.000114
1724	1.7144e+02	-5.6778	-49.743568	0.000446	4.459166	0.755403	0.000089
1725	1.7154e+02	-5.6580	-49.658788	0.000426	4.256476	0.721067	0.000085
1726	1.7164e+02	-5.6377	-49.565934	0.000466	4.661855	0.789740	0.000093
1727	1.7174e+02	-5.6175	-49.497303	0.000345	3.445719	0.583721	0.000069
1728	1.7184e+02	-5.5978	-49.364077	0.000669	6.688748	1.133105	0.000134
1729	1.7194e+02	-5.5774	-49.283335	0.000405	4.053787	0.686730	0.000081
1730	1.7204e+02	-5.5571	-49.190480	0.000466	4.661855	0.789740	0.000093
1731	1.7213e+02	-5.5374	-49.101663	0.000446	4.459166	0.755403	0.000089
1732	1.7223e+02	-5.5182	-48.972475	0.000649	6.486059	1.098768	0.000130
1733	1.7233e+02	-5.4973	-48.956327	0.000081	0.810757	0.137346	0.000016
1734	1.7243e+02	-5.4777	-48.859435	0.000486	4.864544	0.824076	0.000097
1735	1.7253e+02	-5.4590	-48.746395	0.000568	5.675302	0.961422	0.000114
1736	1.7263e+02	-5.4381	-48.605096	0.000709	7.094127	1.201778	0.000142
1737	1.7273e+02	-5.4176	-48.516279	0.000446	4.459166	0.755403	0.000089
1738	1.7283e+02	-5.3976	-48.431499	0.000426	4.256476	0.721067	0.000085
1739	1.7293e+02	-5.3774	-48.354793	0.000385	3.851098	0.652394	0.000077
1740	1.7303e+02	-5.3584	-48.249828	0.000527	5.269923	0.892749	0.000105
1741	1.7313e+02	-5.3384	-48.169085	0.000405	4.053787	0.686730	0.000081
1742	1.7323e+02	-5.3187	-48.072194	0.000486	4.864544	0.824076	0.000097
1743	1.7333e+02	-5.2975	-47.951080	0.000608	6.080680	1.030095	0.000122
1744	1.7343e+02	-5.2791	-47.902634	0.000243	2.432272	0.412038	0.000049
1745	1.7353e+02	-5.2588	-47.781520	0.000608	6.080680	1.030095	0.000122
1746	1.7363e+02	-5.2393	-47.704814	0.000385	3.851098	0.652394	0.000077
1747	1.7373e+02	-5.2184	-47.587738	0.000588	5.877991	0.995759	0.000118
1748	1.7383e+02	-5.1987	-47.511032	0.000385	3.851098	0.652394	0.000077
1749	1.7393e+02	-5.1782	-47.393955	0.000588	5.877991	0.995759	0.000118
1750	1.7403e+02	-5.1585	-47.321287	0.000365	3.648408	0.618057	0.000073
1751	1.7413e+02	-5.1389	-47.216321	0.000527	5.269923	0.892749	0.000105
1752	1.7422e+02	-5.1196	-47.111355	0.000527	5.269923	0.892749	0.000105
1753	1.7432e+02	-5.0991	-46.998316	0.000568	5.675302	0.961422	0.000114
1754	1.7442e+02	-5.0787	-46.921610	0.000385	3.851098	0.652394	0.000077
1755	1.7452e+02	-5.0603	-46.804533	0.000588	5.877991	0.995759	0.000118
1756	1.7462e+02	-5.0397	-46.723790	0.000405	4.053787	0.686730	0.000081
1757	1.7472e+02	-5.0197	-46.610751	0.000568	5.675302	0.961422	0.000114
1758	1.7482e+02	-4.9997	-46.497711	0.000568	5.675302	0.961422	0.000114
1759	1.7492e+02	-4.9796	-46.421005	0.000385	3.851098	0.652394	0.000077
1760	1.7502e+02	-4.9605	-46.312003	0.000547	5.472612	0.927086	0.000110
1761	1.7512e+02	-4.9405	-46.223186	0.000446	4.459166	0.755403	0.000089
1762	1.7522e+02	-4.9202	-46.158591	0.000324	3.243029	0.549384	0.000065
1763	1.7532e+02	-4.9001	-46.037477	0.000608	6.080680	1.030095	0.000122
1764	1.7542e+02	-4.8802	-45.932512	0.000527	5.269923	0.892749	0.000105
1765	1.7552e+02	-4.8596	-45.839658	0.000466	4.661855	0.789740	0.000093
1766	1.7562e+02	-4.8407	-45.714507	0.000628	6.283370	1.064432	0.000126
1767	1.7572e+02	-4.8203	-45.662024	0.000263	2.634961	0.446375	0.000053
1768	1.7582e+02	-4.8006	-45.540910	0.000608	6.080680	1.030095	0.000122
1769	1.7592e+02	-4.7806	-45.411721	0.000649	6.486059	1.098768	0.000130
1770	1.7602e+02	-4.7606	-45.314830	0.000486	4.864544	0.824076	0.000097
1771	1.7612e+02	-4.7402	-45.205827	0.000547	5.472612	0.927086	0.000110
1772	1.7621e+02	-4.7205	-45.145270	0.000304	3.040340	0.515048	0.000061
1773	1.7631e+02	-4.7008	-45.012045	0.000669	6.688748	1.133105	0.000134
1774	1.7641e+02	-4.6812	-44.878819	0.000669	6.688748	1.133105	0.000134
1775	1.7651e+02	-4.6606	-44.810188	0.000345	3.445719	0.583721	0.000069
1776	1.7661e+02	-4.6416	-44.693111	0.000588	5.877991	0.995759	0.000118
1777	1.7671e+02	-4.6211	-44.600257	0.000466	4.661855	0.789740	0.000093
1778	1.7681e+02	-4.6008	-44.495292	0.000527	5.269923	0.892749	0.000105
1779	1.7691e+02	-4.5807	-44.390326	0.000527	5.269923	0.892749	0.000105
1780	1.7701e+02	-4.5609	-44.289398	0.000507	5.067234	0.858413	0.000101
1781	1.7711e+02	-4.5403	-44.135986	0.000770	7.702195	1.304787	0.000154
1782	1.7721e+02	-4.5221	-44.079467	0.000284	2.837651	0.480711	0.000057
1783	1.7731e+02	-4.5007	-43.978538	0.000507	5.067234	0.858413	0.000101
1784	1.7741e+02	-4.4823	-43.853387	0.000628	6.283370	1.064432	0.000126
1785	1.7751e+02	-4.4609	-43.732273	0.000608	6.080680	1.030095	0.000122
1786	1.7761e+02	-4.4414	-43.647493	0.000426	4.256476	0.721067	0.000085
1787	1.7771e+02	-4.4221	-43.538490	0.000547	5.472612	0.927086	0.000110
1788	1.7781e+02	-4.4022	-43.413339	0.000628	6.283370	1.064432	0.000126
1789	1.7791e+02	-4.3819	-43.381042	0.000162	1.621515	0.274692	0.000032
1790	1.7801e+02	-4.3610	-43.195334	0.000932	9.323710	1.579479	0.000187
1791	1.7810e+02	-4.3423	-43.110554	0.000426	4.256476	0.721067	0.000085
1792	1.7820e+02	-4.3221	-42.981366	0.000649	6.486059	1.098768	0.000130
1793	1.7830e+02	-4.3027	-42.876400	0.000527	5.269923	0.892749	0.000105
1794	1.7840e+02	-4.2833	-42.799695	0.000385	3.851098	0.652394	0.000077
1795	1.7850e+02	-4.2622	-42.662432	0.000689	6.891438	1.167441	0.000138
1796	1.7860e+02	-4.2425	-42.533244	0.000649	6.486059	1.098768	0.000130
1797	1.7870e+02	-4.2227	-42.424241	0.000547	5.472612	0.927086	0.000110
1798	1.7880e+02	-4.2030	-42.319275	0.000527	5.269923	0.892749	0.000105
1799	1.7890e+02	-4.1833	-42.254681	0.000324	3.243029	0.549384	0.000065
1800	1.7900e+02	-4.1626	-42.133567	0.000608	6.080680	1.030095	0.000122
1801	1.7910e+02	-4.1426	-42.000342	0.000669	6.688748	1.133105	0.000134
1802	1.7920e+02	-4.1246	-41.895376	0.000527	5.269923	0.892749	0.000105
1803	1.7930e+02	-4.1022	-41.766188	0.000649	6.486059	1.098768	0.000130
1804	1.7940e+02	-4.0837	-41.665259	0.000507	5.067234	0.858413	0.000101
1805	1.7950e+02	-4.0631	-41.552220	0.000568	5.675302	0.961422	0.000114
1806	1.7960e+02	-4.0439	-41.418994	0.000669	6.688748	1.133105	0.000134
1807	1.7970e+02	-4.0217	-41.318066	0.000507	5.067234	0.858413	0.000101
1808	1.7980e+02	-4.0042	-41.213100	0.000527	5.269923	0.892749	0.000105
1809	1.7990e+02	-3.9836	-41.091986	0.000608	6.080680	1.030095	0.000122
1810	1.8000e+02	-3.9644	-40.987021	0.000527	5.269923	0.892749	0.000105
1811	1.8009e+02	-3.9432	-40.849758	0.000689	6.891438	1.167441	0.000138
1812	1.8019e+02	-3.9224	-40.736718	0.000568	5.675302	0.961422	0.000114
1813	1.8029e+02	-3.9042	-40.643864	0.000466	4.661855	0.789740	0.000093
1814	1.8039e+02	-3.8840	-40.526787	0.000588	5.877991	0.995759	0.000118
1815	1.8049e+02	-3.8641	-40.389524	0.000689	6.891438	1.167441	0.000138
1816	1.8059e+02	-3.8441	-40.256299	0.000669	6.688748	1.133105	0.000134
1817	1.8069e+02	-3.8247	-40.143259	0.000568	5.675302	0.961422	0.000114
1818	1.8079e+02	-3.8037	-40.022145	0.000608	6.080680	1.030095	0.000122
1819	1.8089e+02	-3.7848	-39.888920	0.000669	6.688748	1.133105	0.000134
1820	1.8099e+02	-3.7651	-39.804140	0.000426	4.256476	0.721067	0.000085
1821	1.8109e+02	-3.7437	-39.670914	0.000669	6.688748	1.133105	0.000134
1822	1.8119e+02	-3.7256	-39.549800	0.000608	6.080680	1.030095	0.000122
1823	1.8129e+02	-3.7048	-39.452909	0.000486	4.864544	0.824076	0.000097
1824	1.8139e+02	-3.6841	-39.319684	0.000669	6.688748	1.133105	0.000134
1825	1.8149e+02	-3.6654	-39.158198	0.000811	8.107574	1.373460	0.000162
1826	1.8159e+02	-3.6453	-39.061307	0.000486	4.864544	0.824076	0.000097
1827	1.8169e+02	-3.6255	-38.903859	0.000790	7.904884	1.339124	0.000158
1828	1.8179e+02	-3.6056	-38.839264	0.000324	3.243029	0.549384	0.000065
1829	1.8189e+02	-3.5852	-38.706039	0.000669	6.688748	1.133105	0.000134
1830	1.8199e+02	-3.5643	-38.544553	0.000811	8.107574	1.373460	0.000162
1831	1.8209e+02	-3.5451	-38.451699	0.000466	4.661855	0.789740	0.000093
1832	1.8218e+02	-3.5251	-38.318474	0.000669	6.688748	1.133105	0.000134
1833	1.8228e+02	-3.5057	-38.205434	0.000568	5.675302	0.961422	0.000114
1834	1.8238e+02	-3.4857	-38.108543	0.000486	4.864544	0.824076	0.000097
1835	1.8248e+02	-3.4653	-37.947057	0.000811	8.107574	1.373460	0.000162
1836	1.8258e+02	-3.4459	-37.801720	0.000730	7.296816	1.236114	0.000146
1837	1.8268e+02	-3.4264	-37.692718	0.000547	5.472612	0.927086	0.000110
1838	1.8278e+02	-3.4062	-37.575641	0.000588	5.877991	0.995759	0.000118
1839	1.8288e+02	-3.3865	-37.422230	0.000770	7.702195	1.304787	0.000154
1840	1.8298e+02	-3.3658	-37.313227	0.000547	5.472612	0.927086	0.000110
1841	1.8308e+02	-3.3476	-37.196150	0.000588	5.877991	0.995759	0.000118
1842	1.8318e+02	-3.3261	-37.062925	0.000669	6.688748	1.133105	0.000134
1843	1.8328e+02	-3.3067	-36.913551	0.000750	7.499506	1.270451	0.000150
1844	1.8338e+02	-3.2864	-36.808585	0.000527	5.269923	0.892749	0.000105
1845	1.8348e+02	-3.2661	-36.671322	0.000689	6.891438	1.167441	0.000138
1846	1.8358e+02	-3.2460	-36.525986	0.000730	7.296816	1.236114	0.000146
1847	1.8368e+02	-3.2269	-36.368537	0.000790	7.904884	1.339124	0.000158
1848	1.8378e+02	-3.2059	-36.247423	0.000608	6.080680	1.030095	0.000122
1849	1.8388e+02	-3.1866	-36.138421	0.000547	5.472612	0.927086	0.000110
1850	1.8398e+02	-3.1668	-36.025381	0.000568	5.675302	0.961422	0.000114
1851	1.8407e+02	-3.1473	-35.908304	0.000588	5.877991	0.995759	0.000118
1852	1.8417e+02	-3.1274	-35.754893	0.000770	7.702195	1.304787	0.000154
1853	1.8427e+02	-3.1065	-35.641853	0.000568	5.675302	0.961422	0.000114
1854	1.8437e+02	-3.0869	-35.540924	0.000507	5.067234	0.858413	0.000101
1855	1.8447e+02	-3.0676	-35.355216	0.000932	9.323710	1.579479	0.000187
1856	1.8457e+02	-3.0474	-35.213916	0.000709	7.094127	1.201778	0.000142
1857	1.8467e+02	-3.0272	-35.084728	0.000649	6.486059	1.098768	0.000130
1858	1.8477e+02	-3.0081	-34.971688	0.000568	5.675302	0.961422	0.000114
1859	1.8487e+02	-2.9874	-34.842500	0.000649	6.486059	1.098768	0.000130
1860	1.8497e+02	-2.9682	-34.721386	0.000608	6.080680	1.030095	0.000122
1861	1.8507e+02	-2.9470	-34.576049	0.000730	7.296816	1.236114	0.000146
1862	1.8517e+02	-2.9272	-34.454935	0.000608	6.080680	1.030095	0.000122
1863	1.8527e+02	-2.9077	-34.301524	0.000770	7.702195	1.304787	0.000154
1864	1.8537e+02	-2.8878	-34.220781	0.000405	4.053787	0.686730	0.000081
1865	1.8547e+02	-2.8681	-34.018924	0.001013	10.134467	1.716825	0.000203
1866	1.8557e+02	-2.8481	-33.901847	0.000588	5.877991	0.995759	0.000118
1867	1.8567e+02	-2.8279	-33.780733	0.000608	6.080680	1.030095	0.000122
1868	1.8577e+02	-2.8078	-33.647508	0.000669	6.688748	1.133105	0.000134
1869	1.8587e+02	-2.7887	-33.510245	0.000689	6.891438	1.167441	0.000138
1870	1.8597e+02	-2.7676	-33.405280	0.000527	5.269923	0.892749	0.000105
1871	1.8606e+02	-2.7481	-33.227646	0.000892	8.918331	1.510806	0.000179
1872	1.8616e+02	-2.7281	-33.114606	0.000568	5.675302	0.961422	0.000114
1873	1.8626e+02	-2.7083	-32.953120	0.000811	8.107574	1.373460	0.000162
1874	1.8636e+02	-2.6891	-32.803746	0.000750	7.499506	1.270451	0.000150
1875	1.8646e+02	-2.6694	-32.690707	0.000568	5.675302	0.961422	0.000114
1876	1.8656e+02	-2.6485	-32.561518	0.000649	6.486059	1.098768	0.000130
1877	1.8666e+02	-2.6286	-32.420219	0.000709	7.094127	1.201778	0.000142
1878	1.8676e+02	-2.6089	-32.278919	0.000709	7.094127	1.201778	0.000142
1879	1.8686e+02	-2.5878	-32.113396	0.000831	8.310263	1.407797	0.000166
1880	1.8696e+02	-2.5681	-31.984208	0.000649	6.486059	1.098768	0.000130
1881	1.8706e+02	-2.5493	-31.875205	0.000547	5.472612	0.927086	0.000110
1882	1.8716e+02	-2.5290	-31.729868	0.000730	7.296816	1.236114	0.000146
1883	1.8726e+02	-2.5100	-31.612791	0.000588	5.877991	0.995759	0.000118
1884	1.8736e+02	-2.4899	-31.419009	0.000973	9.729088	1.648152	0.000195
1885	1.8746e+02	-2.4701	-31.277709	0.000709	7.094127	1.201778	0.000142
1886	1.8756e+02	-2.4506	-31.112187	0.000831	8.310263	1.407797	0.000166
1887	1.8766e+02	-2.4306	-31.007221	0.000527	5.269923	0.892749	0.000105
1888	1.8776e+02	-2.4097	-30.861884	0.000730	7.296816	1.236114	0.000146
1889	1.8786e+02	-2.3904	-30.716547	0.000730	7.296816	1.236114	0.000146
1890	1.8796e+02	-2.3705	-30.567173	0.000750	7.499506	1.270451	0.000150
1891	1.8806e+02	-2.3499	-30.446059	0.000608	6.080680	1.030095	0.000122
1892	1.8815e+02	-2.3306	-30.337057	0.000547	5.472612	0.927086	0.000110
1893	1.8825e+02	-2.3104	-30.183645	0.000770	7.702195	1.304787	0.000154
1894	1.8835e+02	-2.2906	-30.026197	0.000790	7.904884	1.339124	0.000158
1895	1.8845e+02	-2.2702	-29.897009	0.000649	6.486059	1.098768	0.000130
1896	1.8855e+02	-2.2508	-29.731486	0.000831	8.310263	1.407797	0.000166
1897	1.8865e+02	-2.2301	-29.614409	0.000588	5.877991	0.995759	0.000118
1898	1.8875e+02	-2.2105	-29.444850	0.000851	8.512952	1.442133	0.000170
1899	1.8885e+02	-2.1909	-29.307587	0.000689	6.891438	1.167441	0.000138
1900	1.8895e+02	-2.1707	-29.210696	0.000486	4.864544	0.824076	0.000097
1901	1.8905e+02	-2.1511	-29.037099	0.000872	8.715642	1.476470	0.000174
1902	1.8915e+02	-2.1321	-28.875613	0.000811	8.107574	1.373460	0.000162
1903	1.8925e+02	-2.1113	-28.758536	0.000588	5.877991	0.995759	0.000118
1904	1.8935e+02	-2.0911	-28.572828	0.000932	9.323710	1.579479	0.000187
1905	1.8945e+02	-2.0702	-28.455751	0.000588	5.877991	0.995759	0.000118
1906	1.8955e+02	-2.0520	-28.294266	0.000811	8.107574	1.373460	0.000162
1907	1.8965e+02	-2.0312	-28.193337	0.000507	5.067234	0.858413	0.000101
1908	1.8975e+02	-2.0110	-28.023778	0.000851	8.512952	1.442133	0.000170
1909	1.8985e+02	-1.9912	-27.870367	0.000770	7.702195	1.304787	0.000154
1910	1.8995e+02	-1.9715	-27.696770	0.000872	8.715642	1.476470	0.000174
1911	1.9004e+02	-1.9512	-27.599878	0.000486	4.864544	0.824076	0.000097
1912	1.9014e+02	-1.9312	-27.442430	0.000790	7.904884	1.339124	0.000158
1913	1.9024e+02	-1.9122	-27.297093	0.000730	7.296816	1.236114	0.000146
1914	1.9034e+02	-1.8922	-27.143682	0.000770	7.702195	1.304787	0.000154
1915	1.9044e+02	-1.8719	-26.962011	0.000912	9.121020	1.545143	0.000183
1916	1.9054e+02	-1.8524	-26.828786	0.000669	6.688748	1.133105	0.000134
1917	1.9064e+02	-1.8322	-26.707671	0.000608	6.080680	1.030095	0.000122
1918	1.9074e+02	-1.8123	-26.566372	0.000709	7.094127	1.201778	0.000142
1919	1.9084e+02	-1.7925	-26.412961	0.000770	7.702195	1.304787	0.000154
1920	1.9094e+02	-1.7751	-26.243401	0.000851	8.512952	1.442133	0.000170
1921	1.9104e+02	-1.7524	-26.126324	0.000588	5.877991	0.995759	0.000118
1922	1.9114e+02	-1.7332	-25.989061	0.000689	6.891438	1.167441	0.000138
1923	1.9124e+02	-1.7135	-25.807390	0.000912	9.121020	1.545143	0.000183
1924	1.9134e+02	-1.6925	-25.686276	0.000608	6.080680	1.030095	0.000122
1925	1.9144e+02	-1.6721	-25.512679	0.000872	8.715642	1.476470	0.000174
1926	1.9154e+02	-1.6528	-25.371380	0.000709	7.094127	1.201778	0.000142
1927	1.9164e+02	-1.6331	-25.226043	0.000730	7.296816	1.236114	0.000146
1928	1.9174e+02	-1.6132	-25.092817	0.000669	6.688748	1.133105	0.000134
1929	1.9184e+02	-1.5923	-24.899035	0.000973	9.729088	1.648152	0.000195
1930	1.9194e+02	-1.5730	-24.769846	0.000649	6.486059	1.098768	0.000130
1931	1.9203e+02	-1.5527	-24.608361	0.000811	8.107574	1.373460	0.000162
1932	1.9213e+02	-1.5337	-24.491284	0.000588	5.877991	0.995759	0.000118
1933	1.9223e+02	-1.5132	-24.281353	0.001054	10.539846	1.785498	0.000211
1934	1.9233e+02	-1.4926	-24.131979	0.000750	7.499506	1.270451	0.000150
1935	1.9243e+02	-1.4728	-24.002791	0.000649	6.486059	1.098768	0.000130
1936	1.9253e+02	-1.4536	-23.861491	0.000709	7.094127	1.201778	0.000142
1937	1.9263e+02	-1.4341	-23.716154	0.000730	7.296816	1.236114	0.000146
1938	1.9273e+02	-1.4128	-23.526409	0.000953	9.526399	1.613816	0.000191
1939	1.9283e+02	-1.3932	-23.417406	0.000547	5.472612	0.927086	0.000110
1940	1.9293e+02	-1.3731	-23.239772	0.000892	8.918331	1.510806	0.000179
1941	1.9303e+02	-1.3534	-23.090398	0.000750	7.499506	1.270451	0.000150
1942	1.9313e+02	-1.3345	-22.973321	0.000588	5.877991	0.995759	0.000118
1943	1.9323e+02	-1.3135	-22.787613	0.000932	9.323710	1.579479	0.000187
1944	1.9333e+02	-1.2942	-22.626127	0.000811	8.107574	1.373460	0.000162
1945	1.9343e+02	-1.2738	-22.448493	0.000892	8.918331	1.510806	0.000179
1946	1.9353e+02	-1.2541	-22.319305	0.000649	6.486059	1.098768	0.000130
1947	1.9363e+02	-1.2337	-22.141671	0.000892	8.918331	1.510806	0.000179
1948	1.9373e+02	-1.2151	-22.024594	0.000588	5.877991	0.995759	0.000118
1949	1.9383e+02	-1.1943	-21.814663	0.001054	10.539846	1.785498	0.000211
1950	1.9393e+02	-1.1749	-21.677400	0.000689	6.891438	1.167441	0.000138
1951	1.9403e+02	-1.1551	-21.519952	0.000790	7.904884	1.339124	0.000158
1952	1.9412e+02	-1.1353	-21.338281	0.000912	9.121020	1.545143	0.000183
1953	1.9422e+02	-1.1142	-21.184870	0.000770	7.702195	1.304787	0.000154
1954	1.9432e+02	-1.0949	-21.047607	0.000689	6.891438	1.167441	0.000138
1955	1.9442e+02	-1.0747	-20.869973	0.000892	8.918331	1.510806	0.000179
1956	1.9452e+02	-1.0560	-20.720599	0.000750	7.499506	1.270451	0.000150
1957	1.9462e+02	-1.0341	-20.571225	0.000750	7.499506	1.270451	0.000150
1958	1.9472e+02	-1.0155	-20.393591	0.000892	8.918331	1.510806	0.000179
1959	1.9482e+02	-0.9953	-20.260366	0.000669	6.688748	1.133105	0.000134
1960	1.9492e+02	-0.9760	-20.082732	0.000892	8.918331	1.510806	0.000179
1961	1.9502e+02	-0.9557	-19.925283	0.000790	7.904884	1.339124	0.000158
1962	1.9512e+02	-0.9350	-19.731501	0.000973	9.729088	1.648152	0.000195
1963	1.9522e+02	-0.9162	-19.586164	0.000730	7.296816	1.236114	0.000146
1964	1.9532e+02	-0.8963	-19.440827	0.000730	7.296816	1.236114	0.000146
1965	1.9542e+02	-0.8758	-19.251082	0.000953	9.526399	1.613816	0.000191
1966	1.9552e+02	-0.8565	-19.125931	0.000628	6.283370	1.064432	0.000126
1967	1.9562e+02	-0.8366	-18.952334	0.000872	8.715642	1.476470	0.000174
1968	1.9572e+02	-0.8160	-18.794885	0.000790	7.904884	1.339124	0.000158
1969	1.9582e+02	-0.7955	-18.613214	0.000912	9.121020	1.545143	0.000183
1970	1.9592e+02	-0.7764	-18.484026	0.000649	6.486059	1.098768	0.000130
1971	1.9601e+02	-0.7568	-18.290243	0.000973	9.729088	1.648152	0.000195
1972	1.9611e+02	-0.7362	-18.136832	0.000770	7.702195	1.304787	0.000154
1973	1.9621e+02	-0.7168	-17.947087	0.000953	9.526399	1.613816	0.000191
1974	1.9631e+02	-0.6958	-17.793676	0.000770	7.702195	1.304787	0.000154
1975	1.9641e+02	-0.6768	-17.632190	0.000811	8.107574	1.373460	0.000162
1976	1.9651e+02	-0.6564	-17.466668	0.000831	8.310263	1.407797	0.000166
1977	1.9661e+02	-0.6375	-17.297108	0.000851	8.512952	1.442133	0.000170
1978	1.9671e+02	-0.6158	-17.123511	0.000872	8.715642	1.476470	0.000174
1979	1.9681e+02	-0.5972	-16.945877	0.000892	8.918331	1.510806	0.000179
1980	1.9691e+02	-0.5769	-16.768243	0.000892	8.918331	1.510806	0.000179
1981	1.9701e+02	-0.5571	-16.639055	0.000649	6.486059	1.098768	0.000130
1982	1.9711e+02	-0.5370	-16.457384	0.000912	9.121020	1.545143	0.000183
1983	1.9721e+02	-0.5164	-16.271676	0.000932	9.323710	1.579479	0.000187
1984	1.9731e+02	-0.4971	-16.094042	0.000892	8.918331	1.510806	0.000179
1985	1.9741e+02	-0.4776	-15.960816	0.000669	6.688748	1.133105	0.000134
1986	1.9751e+02	-0.4577	-15.762996	0.000993	9.931778	1.682489	0.000199
1987	1.9761e+02	-0.4366	-15.585363	0.000892	8.918331	1.510806	0.000179
1988	1.9771e+02	-0.4182	-15.427914	0.000790	7.904884	1.339124	0.000158
1989	1.9781e+02	-0.3971	-15.266429	0.000811	8.107574	1.373460	0.000162
1990	1.9791e+02	-0.3771	-15.121092	0.000730	7.296816	1.236114	0.000146
1991	1.9800e+02	-0.3577	-14.927309	0.000973	9.729088	1.648152	0.000195
1992	1.9810e+02	-0.3380	-14.737564	0.000953	9.526399	1.613816	0.000191
1993	1.9820e+02	-0.3176	-14.584153	0.000770	7.702195	1.304787	0.000154
1994	1.9830e+02	-0.2974	-14.362110	0.001115	11.147914	1.888508	0.000223
1995	1.9840e+02	-0.2779	-14.245033	0.000588	5.877991	0.995759	0.000118
1996	1.9850e+02	-0.2583	-14.067399	0.000892	8.918331	1.510806	0.000179
1997	1.9860e+02	-0.2380	-13.869580	0.000993	9.931778	1.682489	0.000199
1998	1.9870e+02	-0.2181	-13.683872	0.000932	9.323710	1.579479	0.000187
1999	1.9880e+02	-0.1978	-13.506238	0.000892	8.918331	1.510806	0.000179
2000	1.9890e+02	-0.1794	-13.324567	0.000912	9.121020	1.545143	0.000183
2001	1.9900e+02	-0.1582	-13.159044	0.000831	8.310263	1.407797	0.000166
2002	1.9910e+02	-0.1383	-12.993521	0.000831	8.310263	1.407797	0.000166
2003	1.9920e+02	-0.1199	-12.819925	0.000872	8.715642	1.476470	0.000174
2004	1.9930e+02	-0.0987	-12.626142	0.000973	9.729088	1.648152	0.000195
2005	1.9940e+02	-0.0787	-12.444471	0.000912	9.121020	1.545143	0.000183
2006	1.9950e+02	-0.0581	-12.303171	0.000709	7.094127	1.201778	0.000142
2007	1.9960e+02	-0.0385	-12.113426	0.000953	9.526399	1.613816	0.000191
2008	1.9970e+02	-0.0189	-11.935792	0.000892	8.918331	1.510806	0.000179
2009	1.9980e+02	0.0000	-11.737972	0.000892	8.918331	1.510806	0.000199

PMax (uC/cm2):	8.08e+01
Pr (uC/cm2):	3.78e+01
-Pr (uC/cm2):	9.77e+00
PLoss (uC/cm2):	9.73e+00
Vc:	-1.15e+00
-Vc:	-4.23e+00
C (Max-Eff) (nF):	8.08e-01
K (Eff):	1.37e+03
Vert. (+/-Pr) Shift (uC/cm2):	2.38e+01
Horiz. Shift (+/-Vc):	-2.69e+00
Offset (uC/cm2):	2.15e+01

A (Loop Area - uC/cm2·Volts):	-2.49e-01



Hysteresis Version: 5.48.1 - Radiant Technologies, Inc., 1999 - 9/12/24

