»»»»»»»»»»»»»»»»»»»»»»»»»»»»»»»»»»»» Hysteresis ««««««««««««««««««««««««««««««««««««
»»»  Executed Version:	5.48.1
»»»  Vision Version:	5.48.4 (R)
»»»  Vision Compiled:	9/18/24
»»»  Driver Version:	5.47.0
»»»  Windows Version:	Windows 8 or 8.1
»»»  Processor Information:	x86 (AMD or Intel) - 32 Processors
»»»  Tester Name:	PMF21124-494 (100V)
»»»  Tester S/N:	PMF21124-494
»»»  Internal Amp Type:	100V RevK 270k
»»»  Internal Amp S/N:	iAB2-596/K     
»»»  Execution Count:	1
»»»»»»»»»»»»»»»»»»»»»»»»»»»»»»»»»»»»»»»»»»««««««««««««««««««««««««««««««««««««««««««

Stored:	7/1/2025 - 14:22:32
Configured:	07/01/25 10:49:51 AM
Executed:	07/01/25 02:22:00 PM

»»»»»»»»»»»»»»»»»»»»»»»»»»»»»»»»»»» Sample Info ««««««««««««««««««««««««««««««««««««
Sample Name:	
Lot Name:	
Wafer Name:	
Die Row/Column:	0/0
Capacitor Number:	0
Sample Area (cm2):	1.00e-04
Sample Thickness (microns):	1.50e-01

Amplifier:	Internal

»»»»»»»»»»»»»»»»»»»»»»»»»»»»»»»»»»» Tester Info «««««««««««««««««««««««««««««««««««
Tester Name:	PMF21124-494 (100V)
Tester Serial Number:	PMF21124-494
Return Signal Amp. Level:	0.19 [Index: 3]

»»»»»»»»»»»»»»»»»»»»»»»»»»»»»»»» Hysteresis Info ««««««««««««««««««««««««««««««««««
Task Name:	Hyst-22
Volts:	10.00
Field:	666.67 (kV/cm)
DCBias:	0.00
DCField:	0.00 (kV/cm)
Hysteresis Period (ms):	2.00e+02
Preset:	Enabled
Preset Delay (ms):	1.00e+03
Profile:	Standard Bipolar

»»»»»»»»»»»»»»»»»»»»»»»»»»»»»»»»»»»»»» Data «««««««««««««««««««««««««««««««««««««««
Points:	2009

Valid Data

Point	Time (ms)	Drive Voltage	Measured Polarization (uC/cm2)	Capacitance (uF)	Normalized Capacitance (uF/cm2)	Dielectric Constant	Instantaneous Current (mA)
   1	0.0000e+00	-0.0009	23.496130	0.000689	6.891648	1.167477	0.000138
   2	9.9500e-02	0.0199	23.633393	0.000689	6.891648	1.167477	0.000138
   3	1.9900e-01	0.0386	23.774692	0.000709	7.094344	1.201814	0.000142
   4	2.9850e-01	0.0593	23.871584	0.000486	4.864693	0.824101	0.000097
   5	3.9800e-01	0.0784	24.004809	0.000669	6.688952	1.133139	0.000134
   6	4.9750e-01	0.0989	24.150146	0.000730	7.297039	1.236152	0.000146
   7	5.9700e-01	0.1187	24.279334	0.000649	6.486257	1.098802	0.000130
   8	6.9650e-01	0.1389	24.412560	0.000669	6.688952	1.133139	0.000134
   9	7.9600e-01	0.1589	24.537711	0.000628	6.283561	1.064464	0.000126
  10	8.9550e-01	0.1775	24.658825	0.000608	6.080866	1.030127	0.000122
  11	9.9500e-01	0.1984	24.783976	0.000628	6.283561	1.064464	0.000126
  12	1.0945e+00	0.2190	24.925276	0.000709	7.094344	1.201814	0.000142
  13	1.1940e+00	0.2395	25.066576	0.000709	7.094344	1.201814	0.000142
  14	1.2935e+00	0.2592	25.199801	0.000669	6.688952	1.133139	0.000134
  15	1.3930e+00	0.2779	25.337064	0.000689	6.891648	1.167477	0.000138
  16	1.4925e+00	0.2980	25.470289	0.000669	6.688952	1.133139	0.000134
  17	1.5920e+00	0.3181	25.595441	0.000628	6.283561	1.064464	0.000126
  18	1.6915e+00	0.3386	25.724629	0.000649	6.486257	1.098802	0.000130
  19	1.7910e+00	0.3577	25.906300	0.000912	9.121299	1.545190	0.000183
  20	1.8905e+00	0.3784	26.007228	0.000507	5.067388	0.858439	0.000101
  21	1.9900e+00	0.3971	26.144491	0.000689	6.891648	1.167477	0.000138
  22	2.0895e+00	0.4171	26.277717	0.000669	6.688952	1.133139	0.000134
  23	2.1890e+00	0.4372	26.451313	0.000872	8.715908	1.476515	0.000174
  24	2.2885e+00	0.4574	26.568390	0.000588	5.878170	0.995789	0.000118
  25	2.3880e+00	0.4775	26.677393	0.000547	5.472779	0.927114	0.000110
  26	2.4875e+00	0.4971	26.818693	0.000709	7.094344	1.201814	0.000142
  27	2.5870e+00	0.5171	26.959992	0.000709	7.094344	1.201814	0.000142
  28	2.6865e+00	0.5376	27.113404	0.000770	7.702430	1.304827	0.000154
  29	2.7860e+00	0.5576	27.254703	0.000709	7.094344	1.201814	0.000142
  30	2.8855e+00	0.5766	27.375817	0.000608	6.080866	1.030127	0.000122
  31	2.9850e+00	0.5965	27.553451	0.000892	8.918603	1.510852	0.000179
  32	3.0845e+00	0.6166	27.674565	0.000608	6.080866	1.030127	0.000122
  33	3.1840e+00	0.6368	27.811828	0.000689	6.891648	1.167477	0.000138
  34	3.2835e+00	0.6557	27.977351	0.000831	8.310517	1.407840	0.000166
  35	3.3830e+00	0.6770	28.114613	0.000689	6.891648	1.167477	0.000138
  36	3.4825e+00	0.6973	28.219579	0.000527	5.270084	0.892776	0.000105
  37	3.5820e+00	0.7167	28.356841	0.000689	6.891648	1.167477	0.000138
  38	3.6815e+00	0.7357	28.514290	0.000791	7.905126	1.339165	0.000158
  39	3.7810e+00	0.7554	28.639441	0.000628	6.283561	1.064464	0.000126
  40	3.8805e+00	0.7767	28.772666	0.000669	6.688952	1.133139	0.000134
  41	3.9800e+00	0.7964	28.930115	0.000791	7.905126	1.339165	0.000158
  42	4.0795e+00	0.8163	29.047192	0.000588	5.878170	0.995789	0.000118
  43	4.1790e+00	0.8370	29.204640	0.000791	7.905126	1.339165	0.000158
  44	4.2785e+00	0.8561	29.370162	0.000831	8.310517	1.407840	0.000166
  45	4.3780e+00	0.8756	29.491277	0.000608	6.080866	1.030127	0.000122
  46	4.4775e+00	0.8954	29.632576	0.000709	7.094344	1.201814	0.000142
  47	4.5770e+00	0.9156	29.741579	0.000547	5.472779	0.927114	0.000110
  48	4.6765e+00	0.9361	29.907102	0.000831	8.310517	1.407840	0.000166
  49	4.7760e+00	0.9572	30.024178	0.000588	5.878170	0.995789	0.000118
  50	4.8755e+00	0.9759	30.169515	0.000730	7.297039	1.236152	0.000146
  51	4.9750e+00	0.9951	30.335038	0.000831	8.310517	1.407840	0.000166
  52	5.0745e+00	1.0152	30.460189	0.000628	6.283561	1.064464	0.000126
  53	5.1740e+00	1.0344	30.581303	0.000608	6.080866	1.030127	0.000122
  54	5.2735e+00	1.0556	30.742789	0.000811	8.107821	1.373502	0.000162
  55	5.3730e+00	1.0754	30.908311	0.000831	8.310517	1.407840	0.000166
  56	5.4725e+00	1.0954	31.057685	0.000750	7.499735	1.270489	0.000150
  57	5.5720e+00	1.1158	31.190911	0.000669	6.688952	1.133139	0.000134
  58	5.6715e+00	1.1356	31.332210	0.000709	7.094344	1.201814	0.000142
  59	5.7710e+00	1.1549	31.493696	0.000811	8.107821	1.373502	0.000162
  60	5.8705e+00	1.1749	31.667293	0.000872	8.715908	1.476515	0.000174
  61	5.9700e+00	1.1948	31.776295	0.000547	5.472779	0.927114	0.000110
  62	6.0695e+00	1.2147	31.917595	0.000709	7.094344	1.201814	0.000142
  63	6.1690e+00	1.2355	32.054858	0.000689	6.891648	1.167477	0.000138
  64	6.2685e+00	1.2545	32.200195	0.000730	7.297039	1.236152	0.000146
  65	6.3680e+00	1.2737	32.365717	0.000831	8.310517	1.407840	0.000166
  66	6.4675e+00	1.2942	32.519128	0.000770	7.702430	1.304827	0.000154
  67	6.5670e+00	1.3142	32.668502	0.000750	7.499735	1.270489	0.000150
  68	6.6665e+00	1.3333	32.801728	0.000669	6.688952	1.133139	0.000134
  69	6.7660e+00	1.3547	32.959176	0.000791	7.905126	1.339165	0.000158
  70	6.8655e+00	1.3731	33.136810	0.000892	8.918603	1.510852	0.000179
  71	6.9650e+00	1.3931	33.253887	0.000588	5.878170	0.995789	0.000118
  72	7.0645e+00	1.4134	33.403261	0.000750	7.499735	1.270489	0.000150
  73	7.1640e+00	1.4333	33.560709	0.000791	7.905126	1.339165	0.000158
  74	7.2635e+00	1.4536	33.710083	0.000750	7.499735	1.270489	0.000150
  75	7.3630e+00	1.4725	33.867532	0.000791	7.905126	1.339165	0.000158
  76	7.4625e+00	1.4925	34.012869	0.000730	7.297039	1.236152	0.000146
  77	7.5620e+00	1.5118	34.194540	0.000912	9.121299	1.545190	0.000183
  78	7.6615e+00	1.5329	34.327765	0.000669	6.688952	1.133139	0.000134
  79	7.7610e+00	1.5529	34.448879	0.000608	6.080866	1.030127	0.000122
  80	7.8605e+00	1.5726	34.622476	0.000872	8.715908	1.476515	0.000174
  81	7.9600e+00	1.5926	34.767813	0.000730	7.297039	1.236152	0.000146
  82	8.0595e+00	1.6119	34.937373	0.000851	8.513212	1.442177	0.000170
  83	8.1590e+00	1.6323	35.026190	0.000446	4.459302	0.755426	0.000089
  84	8.2585e+00	1.6520	35.219972	0.000973	9.729385	1.648203	0.000195
  85	8.3580e+00	1.6724	35.337049	0.000588	5.878170	0.995789	0.000118
  86	8.4575e+00	1.6921	35.530832	0.000973	9.729385	1.648203	0.000195
  87	8.5570e+00	1.7115	35.639834	0.000547	5.472779	0.927114	0.000110
  88	8.6565e+00	1.7320	35.781134	0.000709	7.094344	1.201814	0.000142
  89	8.7560e+00	1.7532	35.991065	0.001054	10.540168	1.785553	0.000211
  90	8.8555e+00	1.7720	36.144476	0.000770	7.702430	1.304827	0.000154
  91	8.9550e+00	1.7917	36.269627	0.000628	6.283561	1.064464	0.000126
  92	9.0545e+00	1.8118	36.427076	0.000791	7.905126	1.339165	0.000158
  93	9.1540e+00	1.8315	36.588561	0.000811	8.107821	1.373502	0.000162
  94	9.2535e+00	1.8515	36.762158	0.000872	8.715908	1.476515	0.000174
  95	9.3530e+00	1.8718	36.887309	0.000628	6.283561	1.064464	0.000126
  96	9.4525e+00	1.8917	37.048795	0.000811	8.107821	1.373502	0.000162
  97	9.5520e+00	1.9115	37.186057	0.000689	6.891648	1.167477	0.000138
  98	9.6515e+00	1.9312	37.375803	0.000953	9.526690	1.613865	0.000191
  99	9.7510e+00	1.9512	37.504991	0.000649	6.486257	1.098802	0.000130
 100	9.8505e+00	1.9706	37.630142	0.000628	6.283561	1.064464	0.000126
 101	9.9500e+00	1.9914	37.811813	0.000912	9.121299	1.545190	0.000183
 102	1.0050e+01	2.0109	37.920816	0.000547	5.472779	0.927114	0.000110
 103	1.0149e+01	2.0315	38.106524	0.000932	9.323994	1.579527	0.000187
 104	1.0248e+01	2.0514	38.231675	0.000628	6.283561	1.064464	0.000126
 105	1.0348e+01	2.0712	38.397198	0.000831	8.310517	1.407840	0.000166
 106	1.0447e+01	2.0920	38.570795	0.000872	8.715908	1.476515	0.000174
 107	1.0547e+01	2.1110	38.708057	0.000689	6.891648	1.167477	0.000138
 108	1.0646e+01	2.1309	38.877617	0.000851	8.513212	1.442177	0.000170
 109	1.0746e+01	2.1506	39.039103	0.000811	8.107821	1.373502	0.000162
 110	1.0845e+01	2.1709	39.144068	0.000527	5.270084	0.892776	0.000105
 111	1.0945e+01	2.1911	39.317665	0.000872	8.715908	1.476515	0.000174
 112	1.1044e+01	2.2094	39.471076	0.000770	7.702430	1.304827	0.000154
 113	1.1144e+01	2.2307	39.600264	0.000649	6.486257	1.098802	0.000130
 114	1.1243e+01	2.2498	39.745601	0.000730	7.297039	1.236152	0.000146
 115	1.1343e+01	2.2700	39.943421	0.000993	9.932081	1.682540	0.000199
 116	1.1443e+01	2.2894	40.056461	0.000568	5.675475	0.961451	0.000114
 117	1.1542e+01	2.3106	40.221983	0.000831	8.310517	1.407840	0.000166
 118	1.1642e+01	2.3294	40.419803	0.000993	9.932081	1.682540	0.000199
 119	1.1741e+01	2.3499	40.540917	0.000608	6.080866	1.030127	0.000122
 120	1.1841e+01	2.3694	40.710477	0.000851	8.513212	1.442177	0.000170
 121	1.1940e+01	2.3905	40.843702	0.000669	6.688952	1.133139	0.000134
 122	1.2040e+01	2.4099	41.001151	0.000791	7.905126	1.339165	0.000158
 123	1.2139e+01	2.4297	41.162636	0.000811	8.107821	1.373502	0.000162
 124	1.2239e+01	2.4502	41.340270	0.000892	8.918603	1.510852	0.000179
 125	1.2338e+01	2.4701	41.501755	0.000811	8.107821	1.373502	0.000162
 126	1.2438e+01	2.4897	41.639018	0.000689	6.891648	1.167477	0.000138
 127	1.2537e+01	2.5091	41.780318	0.000709	7.094344	1.201814	0.000142
 128	1.2636e+01	2.5296	41.937766	0.000791	7.905126	1.339165	0.000158
 129	1.2736e+01	2.5499	42.103289	0.000831	8.310517	1.407840	0.000166
 130	1.2835e+01	2.5690	42.220366	0.000588	5.878170	0.995789	0.000118
 131	1.2935e+01	2.5893	42.393962	0.000872	8.715908	1.476515	0.000174
 132	1.3034e+01	2.6078	42.519114	0.000628	6.283561	1.064464	0.000126
 133	1.3134e+01	2.6283	42.749230	0.001155	11.553645	1.957240	0.000231
 134	1.3233e+01	2.6482	42.874382	0.000628	6.283561	1.064464	0.000126
 135	1.3333e+01	2.6675	43.023756	0.000750	7.499735	1.270489	0.000150
 136	1.3432e+01	2.6879	43.177167	0.000770	7.702430	1.304827	0.000154
 137	1.3532e+01	2.7082	43.322504	0.000730	7.297039	1.236152	0.000146
 138	1.3632e+01	2.7280	43.483989	0.000811	8.107821	1.373502	0.000162
 139	1.3731e+01	2.7474	43.645474	0.000811	8.107821	1.373502	0.000162
 140	1.3831e+01	2.7673	43.766589	0.000608	6.080866	1.030127	0.000122
 141	1.3930e+01	2.7875	43.944223	0.000892	8.918603	1.510852	0.000179
 142	1.4030e+01	2.8089	44.117819	0.000872	8.715908	1.476515	0.000174
 143	1.4129e+01	2.8278	44.259119	0.000709	7.094344	1.201814	0.000142
 144	1.4229e+01	2.8482	44.400419	0.000709	7.094344	1.201814	0.000142
 145	1.4328e+01	2.8683	44.553830	0.000770	7.702430	1.304827	0.000154
 146	1.4428e+01	2.8874	44.743575	0.000953	9.526690	1.613865	0.000191
 147	1.4527e+01	2.9078	44.864689	0.000608	6.080866	1.030127	0.000122
 148	1.4627e+01	2.9281	45.022138	0.000791	7.905126	1.339165	0.000158
 149	1.4726e+01	2.9478	45.163438	0.000709	7.094344	1.201814	0.000142
 150	1.4825e+01	2.9675	45.341071	0.000892	8.918603	1.510852	0.000179
 151	1.4925e+01	2.9872	45.458148	0.000588	5.878170	0.995789	0.000118
 152	1.5024e+01	3.0071	45.611560	0.000770	7.702430	1.304827	0.000154
 153	1.5124e+01	3.0274	45.769008	0.000791	7.905126	1.339165	0.000158
 154	1.5223e+01	3.0463	45.942605	0.000872	8.715908	1.476515	0.000174
 155	1.5323e+01	3.0669	46.075830	0.000669	6.688952	1.133139	0.000134
 156	1.5422e+01	3.0876	46.200981	0.000628	6.283561	1.064464	0.000126
 157	1.5522e+01	3.1071	46.382652	0.000912	9.121299	1.545190	0.000183
 158	1.5621e+01	3.1271	46.556249	0.000872	8.715908	1.476515	0.000174
 159	1.5721e+01	3.1480	46.721772	0.000831	8.310517	1.407840	0.000166
 160	1.5820e+01	3.1676	46.879220	0.000791	7.905126	1.339165	0.000158
 161	1.5920e+01	3.1870	46.988223	0.000547	5.472779	0.927114	0.000110
 162	1.6020e+01	3.2056	47.145671	0.000791	7.905126	1.339165	0.000158
 163	1.6119e+01	3.2272	47.274859	0.000649	6.486257	1.098802	0.000130
 164	1.6218e+01	3.2461	47.444419	0.000851	8.513212	1.442177	0.000170
 165	1.6318e+01	3.2662	47.609942	0.000831	8.310517	1.407840	0.000166
 166	1.6418e+01	3.2862	47.759316	0.000750	7.499735	1.270489	0.000150
 167	1.6517e+01	3.3062	47.872356	0.000568	5.675475	0.961451	0.000114
 168	1.6616e+01	3.3260	48.066138	0.000973	9.729385	1.648203	0.000195
 169	1.6716e+01	3.3468	48.227624	0.000811	8.107821	1.373502	0.000162
 170	1.6816e+01	3.3663	48.372960	0.000730	7.297039	1.236152	0.000146
 171	1.6915e+01	3.3856	48.530409	0.000791	7.905126	1.339165	0.000158
 172	1.7015e+01	3.4054	48.647486	0.000588	5.878170	0.995789	0.000118
 173	1.7114e+01	3.4267	48.788785	0.000709	7.094344	1.201814	0.000142
 174	1.7213e+01	3.4459	48.950271	0.000811	8.107821	1.373502	0.000162
 175	1.7313e+01	3.4653	49.111756	0.000811	8.107821	1.373502	0.000162
 176	1.7413e+01	3.4853	49.249019	0.000689	6.891648	1.167477	0.000138
 177	1.7512e+01	3.5054	49.398393	0.000750	7.499735	1.270489	0.000150
 178	1.7611e+01	3.5261	49.531618	0.000669	6.688952	1.133139	0.000134
 179	1.7711e+01	3.5452	49.717327	0.000932	9.323994	1.579527	0.000187
 180	1.7811e+01	3.5651	49.854589	0.000689	6.891648	1.167477	0.000138
 181	1.7910e+01	3.5850	49.999926	0.000730	7.297039	1.236152	0.000146
 182	1.8009e+01	3.6050	50.161412	0.000811	8.107821	1.373502	0.000162
 183	1.8109e+01	3.6245	50.250229	0.000446	4.459302	0.755426	0.000089
 184	1.8209e+01	3.6456	50.423825	0.000872	8.715908	1.476515	0.000174
 185	1.8308e+01	3.6649	50.577237	0.000770	7.702430	1.304827	0.000154
 186	1.8407e+01	3.6846	50.734685	0.000791	7.905126	1.339165	0.000158
 187	1.8507e+01	3.7048	50.871947	0.000689	6.891648	1.167477	0.000138
 188	1.8607e+01	3.7247	51.037470	0.000831	8.310517	1.407840	0.000166
 189	1.8706e+01	3.7445	51.174733	0.000689	6.891648	1.167477	0.000138
 190	1.8805e+01	3.7640	51.344292	0.000851	8.513212	1.442177	0.000170
 191	1.8905e+01	3.7841	51.449258	0.000527	5.270084	0.892776	0.000105
 192	1.9005e+01	3.8028	51.671300	0.001115	11.148254	1.888565	0.000223
 193	1.9104e+01	3.8243	51.780303	0.000547	5.472779	0.927114	0.000110
 194	1.9203e+01	3.8437	51.901417	0.000608	6.080866	1.030127	0.000122
 195	1.9303e+01	3.8639	52.083088	0.000912	9.121299	1.545190	0.000183
 196	1.9402e+01	3.8840	52.188054	0.000527	5.270084	0.892776	0.000105
 197	1.9502e+01	3.9037	52.357613	0.000851	8.513212	1.442177	0.000170
 198	1.9602e+01	3.9226	52.539284	0.000912	9.121299	1.545190	0.000183
 199	1.9701e+01	3.9431	52.692696	0.000770	7.702430	1.304827	0.000154
 200	1.9800e+01	3.9639	52.813810	0.000608	6.080866	1.030127	0.000122
 201	1.9900e+01	3.9830	52.959147	0.000730	7.297039	1.236152	0.000146
 202	2.0000e+01	4.0029	53.116595	0.000791	7.905126	1.339165	0.000158
 203	2.0099e+01	4.0235	53.257895	0.000709	7.094344	1.201814	0.000142
 204	2.0198e+01	4.0427	53.379009	0.000608	6.080866	1.030127	0.000122
 205	2.0298e+01	4.0627	53.536457	0.000791	7.905126	1.339165	0.000158
 206	2.0398e+01	4.0826	53.681794	0.000730	7.297039	1.236152	0.000146
 207	2.0497e+01	4.1026	53.831168	0.000750	7.499735	1.270489	0.000150
 208	2.0596e+01	4.1228	53.952282	0.000608	6.080866	1.030127	0.000122
 209	2.0696e+01	4.1431	54.069359	0.000588	5.878170	0.995789	0.000118
 210	2.0796e+01	4.1625	54.267179	0.000993	9.932081	1.682540	0.000199
 211	2.0895e+01	4.1821	54.360033	0.000466	4.661997	0.789764	0.000093
 212	2.0994e+01	4.2020	54.501332	0.000709	7.094344	1.201814	0.000142
 213	2.1094e+01	4.2230	54.650706	0.000750	7.499735	1.270489	0.000150
 214	2.1194e+01	4.2417	54.779895	0.000649	6.486257	1.098802	0.000130
 215	2.1293e+01	4.2627	54.929269	0.000750	7.499735	1.270489	0.000150
 216	2.1392e+01	4.2820	55.066531	0.000689	6.891648	1.167477	0.000138
 217	2.1492e+01	4.3027	55.223980	0.000791	7.905126	1.339165	0.000158
 218	2.1591e+01	4.3216	55.365280	0.000709	7.094344	1.201814	0.000142
 219	2.1691e+01	4.3423	55.514654	0.000750	7.499735	1.270489	0.000150
 220	2.1791e+01	4.3610	55.643842	0.000649	6.486257	1.098802	0.000130
 221	2.1890e+01	4.3822	55.760919	0.000588	5.878170	0.995789	0.000118
 222	2.1989e+01	4.4014	55.938553	0.000892	8.918603	1.510852	0.000179
 223	2.2089e+01	4.4219	56.039481	0.000507	5.067388	0.858439	0.000101
 224	2.2189e+01	4.4422	56.180781	0.000709	7.094344	1.201814	0.000142
 225	2.2288e+01	4.4610	56.362452	0.000912	9.121299	1.545190	0.000183
 226	2.2387e+01	4.4808	56.487603	0.000628	6.283561	1.064464	0.000126
 227	2.2487e+01	4.5013	56.616792	0.000649	6.486257	1.098802	0.000130
 228	2.2587e+01	4.5222	56.762128	0.000730	7.297039	1.236152	0.000146
 229	2.2686e+01	4.5415	56.903428	0.000709	7.094344	1.201814	0.000142
 230	2.2785e+01	4.5609	57.004357	0.000507	5.067388	0.858439	0.000101
 231	2.2885e+01	4.5812	57.149694	0.000730	7.297039	1.236152	0.000146
 232	2.2985e+01	4.6012	57.307142	0.000791	7.905126	1.339165	0.000158
 233	2.3084e+01	4.6209	57.424219	0.000588	5.878170	0.995789	0.000118
 234	2.3183e+01	4.6416	57.605890	0.000912	9.121299	1.545190	0.000183
 235	2.3283e+01	4.6604	57.751227	0.000730	7.297039	1.236152	0.000146
 236	2.3383e+01	4.6803	57.892526	0.000709	7.094344	1.201814	0.000142
 237	2.3482e+01	4.7009	58.013641	0.000608	6.080866	1.030127	0.000122
 238	2.3581e+01	4.7210	58.175126	0.000811	8.107821	1.373502	0.000162
 239	2.3681e+01	4.7411	58.300277	0.000628	6.283561	1.064464	0.000126
 240	2.3780e+01	4.7598	58.441577	0.000709	7.094344	1.201814	0.000142
 241	2.3880e+01	4.7809	58.562691	0.000608	6.080866	1.030127	0.000122
 242	2.3980e+01	4.7996	58.728214	0.000831	8.310517	1.407840	0.000166
 243	2.4079e+01	4.8199	58.849328	0.000608	6.080866	1.030127	0.000122
 244	2.4178e+01	4.8399	58.982553	0.000669	6.688952	1.133139	0.000134
 245	2.4278e+01	4.8598	59.127890	0.000730	7.297039	1.236152	0.000146
 246	2.4378e+01	4.8806	59.273227	0.000730	7.297039	1.236152	0.000146
 247	2.4477e+01	4.8998	59.418564	0.000730	7.297039	1.236152	0.000146
 248	2.4576e+01	4.9200	59.543715	0.000628	6.283561	1.064464	0.000126
 249	2.4676e+01	4.9407	59.652718	0.000547	5.472779	0.927114	0.000110
 250	2.4776e+01	4.9592	59.785943	0.000669	6.688952	1.133139	0.000134
 251	2.4875e+01	4.9786	59.923206	0.000689	6.891648	1.167477	0.000138
 252	2.4974e+01	4.9992	60.076617	0.000770	7.702430	1.304827	0.000154
 253	2.5074e+01	5.0201	60.201768	0.000628	6.283561	1.064464	0.000126
 254	2.5174e+01	5.0397	60.371328	0.000851	8.513212	1.442177	0.000170
 255	2.5273e+01	5.0582	60.484368	0.000568	5.675475	0.961451	0.000114
 256	2.5372e+01	5.0784	60.585296	0.000507	5.067388	0.858439	0.000101
 257	2.5472e+01	5.0992	60.738707	0.000770	7.702430	1.304827	0.000154
 258	2.5572e+01	5.1183	60.884044	0.000730	7.297039	1.236152	0.000146
 259	2.5671e+01	5.1385	61.017270	0.000669	6.688952	1.133139	0.000134
 260	2.5770e+01	5.1583	61.198941	0.000912	9.121299	1.545190	0.000183
 261	2.5870e+01	5.1780	61.303906	0.000527	5.270084	0.892776	0.000105
 262	2.5970e+01	5.1980	61.420983	0.000588	5.878170	0.995789	0.000118
 263	2.6069e+01	5.2169	61.562283	0.000709	7.094344	1.201814	0.000142
 264	2.6169e+01	5.2387	61.699545	0.000689	6.891648	1.167477	0.000138
 265	2.6268e+01	5.2586	61.824697	0.000628	6.283561	1.064464	0.000126
 266	2.6367e+01	5.2764	62.006368	0.000912	9.121299	1.545190	0.000183
 267	2.6467e+01	5.2973	62.099222	0.000466	4.661997	0.789764	0.000093
 268	2.6567e+01	5.3179	62.216299	0.000588	5.878170	0.995789	0.000118
 269	2.6666e+01	5.3393	62.365673	0.000750	7.499735	1.270489	0.000150
 270	2.6765e+01	5.3580	62.527158	0.000811	8.107821	1.373502	0.000162
 271	2.6865e+01	5.3773	62.648272	0.000608	6.080866	1.030127	0.000122
 272	2.6965e+01	5.3976	62.761312	0.000568	5.675475	0.961451	0.000114
 273	2.7064e+01	5.4180	62.878389	0.000588	5.878170	0.995789	0.000118
 274	2.7163e+01	5.4372	63.027763	0.000750	7.499735	1.270489	0.000150
 275	2.7263e+01	5.4568	63.136766	0.000547	5.472779	0.927114	0.000110
 276	2.7363e+01	5.4777	63.286140	0.000750	7.499735	1.270489	0.000150
 277	2.7462e+01	5.4975	63.439551	0.000770	7.702430	1.304827	0.000154
 278	2.7561e+01	5.5167	63.572776	0.000669	6.688952	1.133139	0.000134
 279	2.7661e+01	5.5376	63.685816	0.000568	5.675475	0.961451	0.000114
 280	2.7761e+01	5.5569	63.823079	0.000689	6.891648	1.167477	0.000138
 281	2.7860e+01	5.5778	63.952267	0.000649	6.486257	1.098802	0.000130
 282	2.7959e+01	5.5962	64.065307	0.000568	5.675475	0.961451	0.000114
 283	2.8059e+01	5.6167	64.194495	0.000649	6.486257	1.098802	0.000130
 284	2.8159e+01	5.6367	64.351944	0.000791	7.905126	1.339165	0.000158
 285	2.8258e+01	5.6568	64.448835	0.000486	4.864693	0.824101	0.000097
 286	2.8358e+01	5.6757	64.594172	0.000730	7.297039	1.236152	0.000146
 287	2.8457e+01	5.6957	64.719323	0.000628	6.283561	1.064464	0.000126
 288	2.8556e+01	5.7172	64.836400	0.000588	5.878170	0.995789	0.000118
 289	2.8656e+01	5.7362	64.985774	0.000750	7.499735	1.270489	0.000150
 290	2.8756e+01	5.7557	65.090740	0.000527	5.270084	0.892776	0.000105
 291	2.8855e+01	5.7764	65.232039	0.000709	7.094344	1.201814	0.000142
 292	2.8954e+01	5.7960	65.450045	0.001095	10.945559	1.854228	0.000219
 293	2.9054e+01	5.8163	65.518676	0.000345	3.445824	0.583738	0.000069
 294	2.9154e+01	5.8364	65.659976	0.000709	7.094344	1.201814	0.000142
 295	2.9253e+01	5.8564	65.785127	0.000628	6.283561	1.064464	0.000126
 296	2.9352e+01	5.8761	65.942575	0.000791	7.905126	1.339165	0.000158
 297	2.9452e+01	5.8955	66.035429	0.000466	4.661997	0.789764	0.000093
 298	2.9552e+01	5.9158	66.180766	0.000730	7.297039	1.236152	0.000146
 299	2.9651e+01	5.9362	66.309954	0.000649	6.486257	1.098802	0.000130
 300	2.9750e+01	5.9553	66.410883	0.000507	5.067388	0.858439	0.000101
 301	2.9850e+01	5.9745	66.560257	0.000750	7.499735	1.270489	0.000150
 302	2.9950e+01	5.9951	66.705594	0.000730	7.297039	1.236152	0.000146
 303	3.0049e+01	6.0155	66.826708	0.000608	6.080866	1.030127	0.000122
 304	3.0148e+01	6.0352	66.959933	0.000669	6.688952	1.133139	0.000134
 305	3.0248e+01	6.0549	67.064899	0.000527	5.270084	0.892776	0.000105
 306	3.0348e+01	6.0752	67.226384	0.000811	8.107821	1.373502	0.000162
 307	3.0447e+01	6.0950	67.367684	0.000709	7.094344	1.201814	0.000142
 308	3.0547e+01	6.1143	67.484761	0.000588	5.878170	0.995789	0.000118
 309	3.0646e+01	6.1350	67.597801	0.000568	5.675475	0.961451	0.000114
 310	3.0745e+01	6.1544	67.751212	0.000770	7.702430	1.304827	0.000154
 311	3.0845e+01	6.1739	67.864252	0.000568	5.675475	0.961451	0.000114
 312	3.0945e+01	6.1942	68.021700	0.000791	7.905126	1.339165	0.000158
 313	3.1044e+01	6.2154	68.142814	0.000608	6.080866	1.030127	0.000122
 314	3.1143e+01	6.2348	68.247780	0.000527	5.270084	0.892776	0.000105
 315	3.1243e+01	6.2550	68.356782	0.000547	5.472779	0.927114	0.000110
 316	3.1343e+01	6.2749	68.514231	0.000791	7.905126	1.339165	0.000158
 317	3.1442e+01	6.2942	68.643419	0.000649	6.486257	1.098802	0.000130
 318	3.1541e+01	6.3139	68.756459	0.000568	5.675475	0.961451	0.000114
 319	3.1641e+01	6.3335	68.877573	0.000608	6.080866	1.030127	0.000122
 320	3.1741e+01	6.3525	69.014835	0.000689	6.891648	1.167477	0.000138
 321	3.1840e+01	6.3742	69.139987	0.000628	6.283561	1.064464	0.000126
 322	3.1939e+01	6.3937	69.257064	0.000588	5.878170	0.995789	0.000118
 323	3.2039e+01	6.4133	69.362029	0.000527	5.270084	0.892776	0.000105
 324	3.2139e+01	6.4332	69.511403	0.000750	7.499735	1.270489	0.000150
 325	3.2238e+01	6.4526	69.620406	0.000547	5.472779	0.927114	0.000110
 326	3.2337e+01	6.4724	69.749594	0.000649	6.486257	1.098802	0.000130
 327	3.2437e+01	6.4925	69.903005	0.000770	7.702430	1.304827	0.000154
 328	3.2536e+01	6.5128	70.036231	0.000669	6.688952	1.133139	0.000134
 329	3.2636e+01	6.5301	70.125048	0.000446	4.459302	0.755426	0.000089
 330	3.2736e+01	6.5522	70.262310	0.000689	6.891648	1.167477	0.000138
 331	3.2835e+01	6.5731	70.371313	0.000547	5.472779	0.927114	0.000110
 332	3.2934e+01	6.5923	70.512613	0.000709	7.094344	1.201814	0.000142
 333	3.3034e+01	6.6134	70.641801	0.000649	6.486257	1.098802	0.000130
 334	3.3133e+01	6.6316	70.726581	0.000426	4.256606	0.721089	0.000085
 335	3.3233e+01	6.6525	70.912289	0.000932	9.323994	1.579527	0.000187
 336	3.3333e+01	6.6720	70.997069	0.000426	4.256606	0.721089	0.000085
 337	3.3432e+01	6.6917	71.138369	0.000709	7.094344	1.201814	0.000142
 338	3.3532e+01	6.7116	71.299854	0.000811	8.107821	1.373502	0.000162
 339	3.3631e+01	6.7330	71.360411	0.000304	3.040433	0.515063	0.000061
 340	3.3730e+01	6.7518	71.477488	0.000588	5.878170	0.995789	0.000118
 341	3.3830e+01	6.7718	71.618788	0.000709	7.094344	1.201814	0.000142
 342	3.3929e+01	6.7922	71.752013	0.000669	6.688952	1.133139	0.000134
 343	3.4029e+01	6.8121	71.856979	0.000527	5.270084	0.892776	0.000105
 344	3.4129e+01	6.8319	71.937722	0.000405	4.053911	0.686751	0.000081
 345	3.4228e+01	6.8517	72.139579	0.001013	10.134776	1.716878	0.000203
 346	3.4328e+01	6.8713	72.216284	0.000385	3.851215	0.652413	0.000077
 347	3.4427e+01	6.8916	72.397955	0.000912	9.121299	1.545190	0.000183
 348	3.4526e+01	6.9103	72.470624	0.000365	3.648520	0.618076	0.000073
 349	3.4626e+01	6.9312	72.599812	0.000649	6.486257	1.098802	0.000130
 350	3.4725e+01	6.9506	72.720926	0.000608	6.080866	1.030127	0.000122
 351	3.4825e+01	6.9714	72.838003	0.000588	5.878170	0.995789	0.000118
 352	3.4925e+01	6.9903	72.959117	0.000608	6.080866	1.030127	0.000122
 353	3.5024e+01	7.0113	73.108491	0.000750	7.499735	1.270489	0.000150
 354	3.5123e+01	7.0332	73.217494	0.000547	5.472779	0.927114	0.000110
 355	3.5223e+01	7.0515	73.358793	0.000709	7.094344	1.201814	0.000142
 356	3.5322e+01	7.0703	73.447610	0.000446	4.459302	0.755426	0.000089
 357	3.5422e+01	7.0904	73.605059	0.000791	7.905126	1.339165	0.000158
 358	3.5522e+01	7.1111	73.738284	0.000669	6.688952	1.133139	0.000134
 359	3.5621e+01	7.1304	73.835176	0.000486	4.864693	0.824101	0.000097
 360	3.5721e+01	7.1499	73.940141	0.000527	5.270084	0.892776	0.000105
 361	3.5820e+01	7.1704	74.073367	0.000669	6.688952	1.133139	0.000134
 362	3.5919e+01	7.1898	74.174295	0.000507	5.067388	0.858439	0.000101
 363	3.6019e+01	7.2105	74.347892	0.000872	8.715908	1.476515	0.000174
 364	3.6118e+01	7.2298	74.444783	0.000486	4.864693	0.824101	0.000097
 365	3.6218e+01	7.2500	74.565897	0.000608	6.080866	1.030127	0.000122
 366	3.6318e+01	7.2686	74.678937	0.000568	5.675475	0.961451	0.000114
 367	3.6417e+01	7.2902	74.840422	0.000811	8.107821	1.373502	0.000162
 368	3.6517e+01	7.3088	74.909054	0.000345	3.445824	0.583738	0.000069
 369	3.6616e+01	7.3289	75.046316	0.000689	6.891648	1.167477	0.000138
 370	3.6715e+01	7.3493	75.139170	0.000466	4.661997	0.789764	0.000093
 371	3.6815e+01	7.3694	75.264322	0.000628	6.283561	1.064464	0.000126
 372	3.6914e+01	7.3889	75.373324	0.000547	5.472779	0.927114	0.000110
 373	3.7014e+01	7.4099	75.514624	0.000709	7.094344	1.201814	0.000142
 374	3.7114e+01	7.4288	75.647849	0.000669	6.688952	1.133139	0.000134
 375	3.7213e+01	7.4490	75.764926	0.000588	5.878170	0.995789	0.000118
 376	3.7313e+01	7.4683	75.886040	0.000608	6.080866	1.030127	0.000122
 377	3.7412e+01	7.4895	75.966783	0.000405	4.053911	0.686751	0.000081
 378	3.7511e+01	7.5085	76.067712	0.000507	5.067388	0.858439	0.000101
 379	3.7611e+01	7.5286	76.188826	0.000608	6.080866	1.030127	0.000122
 380	3.7711e+01	7.5478	76.293791	0.000527	5.270084	0.892776	0.000105
 381	3.7810e+01	7.5677	76.447202	0.000770	7.702430	1.304827	0.000154
 382	3.7910e+01	7.5893	76.544094	0.000486	4.864693	0.824101	0.000097
 383	3.8009e+01	7.6086	76.677319	0.000669	6.688952	1.133139	0.000134
 384	3.8108e+01	7.6281	76.754025	0.000385	3.851215	0.652413	0.000077
 385	3.8208e+01	7.6485	76.867064	0.000568	5.675475	0.961451	0.000114
 386	3.8307e+01	7.6682	76.992216	0.000628	6.283561	1.064464	0.000126
 387	3.8407e+01	7.6875	77.129478	0.000689	6.891648	1.167477	0.000138
 388	3.8507e+01	7.7084	77.242518	0.000568	5.675475	0.961451	0.000114
 389	3.8606e+01	7.7280	77.323261	0.000405	4.053911	0.686751	0.000081
 390	3.8706e+01	7.7477	77.420152	0.000486	4.864693	0.824101	0.000097
 391	3.8805e+01	7.7678	77.573563	0.000770	7.702430	1.304827	0.000154
 392	3.8904e+01	7.7881	77.698714	0.000628	6.283561	1.064464	0.000126
 393	3.9004e+01	7.8085	77.815791	0.000588	5.878170	0.995789	0.000118
 394	3.9103e+01	7.8292	77.928831	0.000568	5.675475	0.961451	0.000114
 395	3.9203e+01	7.8469	78.029760	0.000507	5.067388	0.858439	0.000101
 396	3.9303e+01	7.8681	78.138762	0.000547	5.472779	0.927114	0.000110
 397	3.9402e+01	7.8875	78.259876	0.000608	6.080866	1.030127	0.000122
 398	3.9502e+01	7.9068	78.368879	0.000547	5.472779	0.927114	0.000110
 399	3.9601e+01	7.9269	78.477882	0.000547	5.472779	0.927114	0.000110
 400	3.9700e+01	7.9471	78.598996	0.000608	6.080866	1.030127	0.000122
 401	3.9800e+01	7.9688	78.724147	0.000628	6.283561	1.064464	0.000126
 402	3.9900e+01	7.9861	78.792778	0.000345	3.445824	0.583738	0.000069
 403	3.9999e+01	8.0080	78.966375	0.000872	8.715908	1.476515	0.000174
 404	4.0099e+01	8.0264	79.099601	0.000669	6.688952	1.133139	0.000134
 405	4.0198e+01	8.0459	79.200529	0.000507	5.067388	0.858439	0.000101
 406	4.0297e+01	8.0664	79.293383	0.000466	4.661997	0.789764	0.000093
 407	4.0397e+01	8.0872	79.402386	0.000547	5.472779	0.927114	0.000110
 408	4.0496e+01	8.1065	79.535611	0.000669	6.688952	1.133139	0.000134
 409	4.0596e+01	8.1265	79.620391	0.000426	4.256606	0.721089	0.000085
 410	4.0696e+01	8.1462	79.741505	0.000608	6.080866	1.030127	0.000122
 411	4.0795e+01	8.1662	79.846471	0.000527	5.270084	0.892776	0.000105
 412	4.0895e+01	8.1850	79.967585	0.000608	6.080866	1.030127	0.000122
 413	4.0994e+01	8.2058	80.084662	0.000588	5.878170	0.995789	0.000118
 414	4.1093e+01	8.2255	80.201739	0.000588	5.878170	0.995789	0.000118
 415	4.1193e+01	8.2459	80.314778	0.000568	5.675475	0.961451	0.000114
 416	4.1292e+01	8.2652	80.407632	0.000466	4.661997	0.789764	0.000093
 417	4.1392e+01	8.2867	80.577192	0.000851	8.513212	1.442177	0.000170
 418	4.1492e+01	8.3057	80.649861	0.000365	3.648520	0.618076	0.000073
 419	4.1591e+01	8.3253	80.762900	0.000568	5.675475	0.961451	0.000114
 420	4.1691e+01	8.3453	80.892089	0.000649	6.486257	1.098802	0.000130
 421	4.1790e+01	8.3652	80.988980	0.000486	4.864693	0.824101	0.000097
 422	4.1889e+01	8.3852	81.126243	0.000689	6.891648	1.167477	0.000138
 423	4.1989e+01	8.4055	81.211023	0.000426	4.256606	0.721089	0.000085
 424	4.2089e+01	8.4248	81.348285	0.000689	6.891648	1.167477	0.000138
 425	4.2188e+01	8.4451	81.441139	0.000466	4.661997	0.789764	0.000093
 426	4.2288e+01	8.4646	81.558216	0.000588	5.878170	0.995789	0.000118
 427	4.2387e+01	8.4847	81.667219	0.000547	5.472779	0.927114	0.000110
 428	4.2486e+01	8.5049	81.776222	0.000547	5.472779	0.927114	0.000110
 429	4.2586e+01	8.5246	81.889261	0.000568	5.675475	0.961451	0.000114
 430	4.2685e+01	8.5449	82.030561	0.000709	7.094344	1.201814	0.000142
 431	4.2785e+01	8.5646	82.135527	0.000527	5.270084	0.892776	0.000105
 432	4.2885e+01	8.5834	82.200121	0.000324	3.243128	0.549401	0.000065
 433	4.2984e+01	8.6045	82.337383	0.000689	6.891648	1.167477	0.000138
 434	4.3084e+01	8.6249	82.446386	0.000547	5.472779	0.927114	0.000110
 435	4.3183e+01	8.6439	82.555389	0.000547	5.472779	0.927114	0.000110
 436	4.3282e+01	8.6646	82.652280	0.000486	4.864693	0.824101	0.000097
 437	4.3382e+01	8.6844	82.765320	0.000568	5.675475	0.961451	0.000114
 438	4.3481e+01	8.7043	82.882397	0.000588	5.878170	0.995789	0.000118
 439	4.3581e+01	8.7237	82.987362	0.000527	5.270084	0.892776	0.000105
 440	4.3681e+01	8.7431	83.080216	0.000466	4.661997	0.789764	0.000093
 441	4.3780e+01	8.7627	83.197293	0.000588	5.878170	0.995789	0.000118
 442	4.3880e+01	8.7826	83.314370	0.000588	5.878170	0.995789	0.000118
 443	4.3979e+01	8.8049	83.395113	0.000405	4.053911	0.686751	0.000081
 444	4.4078e+01	8.8235	83.548524	0.000770	7.702430	1.304827	0.000154
 445	4.4178e+01	8.8428	83.596970	0.000243	2.432346	0.412051	0.000049
 446	4.4278e+01	8.8618	83.774604	0.000892	8.918603	1.510852	0.000179
 447	4.4377e+01	8.8812	83.835161	0.000304	3.040433	0.515063	0.000061
 448	4.4477e+01	8.9023	83.984535	0.000750	7.499735	1.270489	0.000150
 449	4.4576e+01	8.9230	84.093537	0.000547	5.472779	0.927114	0.000110
 450	4.4675e+01	8.9417	84.178317	0.000426	4.256606	0.721089	0.000085
 451	4.4775e+01	8.9616	84.271171	0.000466	4.661997	0.789764	0.000093
 452	4.4874e+01	8.9809	84.404397	0.000669	6.688952	1.133139	0.000134
 453	4.4974e+01	9.0027	84.493214	0.000446	4.459302	0.755426	0.000089
 454	4.5074e+01	9.0217	84.610291	0.000588	5.878170	0.995789	0.000118
 455	4.5173e+01	9.0414	84.755628	0.000730	7.297039	1.236152	0.000146
 456	4.5273e+01	9.0620	84.808110	0.000264	2.635042	0.446388	0.000053
 457	4.5372e+01	9.0820	84.965559	0.000791	7.905126	1.339165	0.000158
 458	4.5471e+01	9.1016	85.066487	0.000507	5.067388	0.858439	0.000101
 459	4.5571e+01	9.1223	85.167416	0.000507	5.067388	0.858439	0.000101
 460	4.5670e+01	9.1412	85.300641	0.000669	6.688952	1.133139	0.000134
 461	4.5770e+01	9.1615	85.421755	0.000608	6.080866	1.030127	0.000122
 462	4.5870e+01	9.1805	85.518646	0.000486	4.864693	0.824101	0.000097
 463	4.5969e+01	9.2017	85.619575	0.000507	5.067388	0.858439	0.000101
 464	4.6069e+01	9.2213	85.720503	0.000507	5.067388	0.858439	0.000101
 465	4.6168e+01	9.2413	85.865840	0.000730	7.297039	1.236152	0.000146
 466	4.6267e+01	9.2611	85.938508	0.000365	3.648520	0.618076	0.000073
 467	4.6367e+01	9.2808	86.091920	0.000770	7.702430	1.304827	0.000154
 468	4.6467e+01	9.3002	86.140365	0.000243	2.432346	0.412051	0.000049
 469	4.6566e+01	9.3206	86.281665	0.000709	7.094344	1.201814	0.000142
 470	4.6666e+01	9.3408	86.402779	0.000608	6.080866	1.030127	0.000122
 471	4.6765e+01	9.3608	86.511782	0.000547	5.472779	0.927114	0.000110
 472	4.6864e+01	9.3781	86.649044	0.000689	6.891648	1.167477	0.000138
 473	4.6964e+01	9.4003	86.749973	0.000507	5.067388	0.858439	0.000101
 474	4.7063e+01	9.4209	86.850901	0.000507	5.067388	0.858439	0.000101
 475	4.7163e+01	9.4397	86.967978	0.000588	5.878170	0.995789	0.000118
 476	4.7263e+01	9.4596	87.052758	0.000426	4.256606	0.721089	0.000085
 477	4.7362e+01	9.4802	87.173872	0.000608	6.080866	1.030127	0.000122
 478	4.7462e+01	9.4995	87.262689	0.000446	4.459302	0.755426	0.000089
 479	4.7561e+01	9.5197	87.408026	0.000730	7.297039	1.236152	0.000146
 480	4.7660e+01	9.5387	87.508954	0.000507	5.067388	0.858439	0.000101
 481	4.7760e+01	9.5594	87.638143	0.000649	6.486257	1.098802	0.000130
 482	4.7859e+01	9.5789	87.726960	0.000446	4.459302	0.755426	0.000089
 483	4.7959e+01	9.5996	87.823851	0.000486	4.864693	0.824101	0.000097
 484	4.8059e+01	9.6192	87.961113	0.000689	6.891648	1.167477	0.000138
 485	4.8158e+01	9.6395	88.049930	0.000446	4.459302	0.755426	0.000089
 486	4.8258e+01	9.6588	88.150859	0.000507	5.067388	0.858439	0.000101
 487	4.8357e+01	9.6793	88.263899	0.000568	5.675475	0.961451	0.000114
 488	4.8456e+01	9.6993	88.364827	0.000507	5.067388	0.858439	0.000101
 489	4.8556e+01	9.7193	88.506127	0.000709	7.094344	1.201814	0.000142
 490	4.8656e+01	9.7383	88.635315	0.000649	6.486257	1.098802	0.000130
 491	4.8755e+01	9.7583	88.687798	0.000264	2.635042	0.446388	0.000053
 492	4.8855e+01	9.7787	88.825061	0.000689	6.891648	1.167477	0.000138
 493	4.8954e+01	9.7998	88.934063	0.000547	5.472779	0.927114	0.000110
 494	4.9053e+01	9.8187	89.022880	0.000446	4.459302	0.755426	0.000089
 495	4.9153e+01	9.8391	89.139957	0.000588	5.878170	0.995789	0.000118
 496	4.9252e+01	9.8588	89.269145	0.000649	6.486257	1.098802	0.000130
 497	4.9352e+01	9.8779	89.382185	0.000568	5.675475	0.961451	0.000114
 498	4.9452e+01	9.8987	89.466965	0.000426	4.256606	0.721089	0.000085
 499	4.9551e+01	9.9174	89.580005	0.000568	5.675475	0.961451	0.000114
 500	4.9651e+01	9.9378	89.721305	0.000709	7.094344	1.201814	0.000142
 501	4.9750e+01	9.9579	89.806084	0.000426	4.256606	0.721089	0.000085
 502	4.9849e+01	9.9780	89.943347	0.000689	6.891648	1.167477	0.000138
 503	4.9949e+01	9.9978	90.032164	0.000446	4.459302	0.755426	0.000089
 504	5.0048e+01	9.9783	89.975644	0.000284	2.837737	0.480726	-0.000057
 505	5.0148e+01	9.9590	89.923161	0.000264	2.635042	0.446388	-0.000053
 506	5.0248e+01	9.9381	89.858567	0.000324	3.243128	0.549401	-0.000065
 507	5.0347e+01	9.9176	89.749565	0.000547	5.472779	0.927114	-0.000110
 508	5.0447e+01	9.8985	89.717268	0.000162	1.621564	0.274700	-0.000032
 509	5.0546e+01	9.8792	89.648636	0.000345	3.445824	0.583738	-0.000069
 510	5.0645e+01	9.8584	89.620376	0.000142	1.418869	0.240363	-0.000028
 511	5.0745e+01	9.8382	89.503299	0.000588	5.878170	0.995789	-0.000118
 512	5.0844e+01	9.8188	89.454854	0.000243	2.432346	0.412051	-0.000049
 513	5.0944e+01	9.7999	89.357962	0.000486	4.864693	0.824101	-0.000097
 514	5.1044e+01	9.7778	89.301443	0.000284	2.837737	0.480726	-0.000057
 515	5.1143e+01	9.7587	89.257034	0.000223	2.229651	0.377713	-0.000045
 516	5.1242e+01	9.7388	89.196477	0.000304	3.040433	0.515063	-0.000061
 517	5.1342e+01	9.7183	89.087474	0.000547	5.472779	0.927114	-0.000110
 518	5.1441e+01	9.6994	89.047103	0.000203	2.026955	0.343376	-0.000041
 519	5.1541e+01	9.6790	88.938100	0.000547	5.472779	0.927114	-0.000110
 520	5.1641e+01	9.6595	88.869469	0.000345	3.445824	0.583738	-0.000069
 521	5.1740e+01	9.6400	88.821023	0.000243	2.432346	0.412051	-0.000049
 522	5.1840e+01	9.6196	88.740281	0.000405	4.053911	0.686751	-0.000081
 523	5.1939e+01	9.5996	88.639352	0.000507	5.067388	0.858439	-0.000101
 524	5.2038e+01	9.5792	88.611092	0.000142	1.418869	0.240363	-0.000028
 525	5.2138e+01	9.5583	88.522275	0.000446	4.459302	0.755426	-0.000089
 526	5.2237e+01	9.5394	88.433458	0.000446	4.459302	0.755426	-0.000089
 527	5.2337e+01	9.5187	88.372901	0.000304	3.040433	0.515063	-0.000061
 528	5.2437e+01	9.4988	88.288121	0.000426	4.256606	0.721089	-0.000085
 529	5.2536e+01	9.4794	88.219490	0.000345	3.445824	0.583738	-0.000069
 530	5.2636e+01	9.4593	88.102413	0.000588	5.878170	0.995789	-0.000118
 531	5.2735e+01	9.4412	88.062042	0.000203	2.026955	0.343376	-0.000041
 532	5.2834e+01	9.4202	87.989373	0.000365	3.648520	0.618076	-0.000073
 533	5.2934e+01	9.4001	87.908631	0.000405	4.053911	0.686751	-0.000081
 534	5.3033e+01	9.3805	87.799628	0.000547	5.472779	0.927114	-0.000110
 535	5.3133e+01	9.3610	87.807702	-0.000041	-0.405391	-0.068675	0.000008
 536	5.3233e+01	9.3408	87.670440	0.000689	6.891648	1.167477	-0.000138
 537	5.3332e+01	9.3204	87.557400	0.000568	5.675475	0.961451	-0.000114
 538	5.3431e+01	9.3018	87.492806	0.000324	3.243128	0.549401	-0.000065
 539	5.3531e+01	9.2813	87.424174	0.000345	3.445824	0.583738	-0.000069
 540	5.3630e+01	9.2615	87.331320	0.000466	4.661997	0.789764	-0.000093
 541	5.3730e+01	9.2403	87.242503	0.000446	4.459302	0.755426	-0.000089
 542	5.3830e+01	9.2212	87.153686	0.000446	4.459302	0.755426	-0.000089
 543	5.3929e+01	9.2011	87.081018	0.000365	3.648520	0.618076	-0.000073
 544	5.4029e+01	9.1815	87.000275	0.000405	4.053911	0.686751	-0.000081
 545	5.4128e+01	9.1628	86.915495	0.000426	4.256606	0.721089	-0.000085
 546	5.4227e+01	9.1410	86.826678	0.000446	4.459302	0.755426	-0.000089
 547	5.4327e+01	9.1218	86.762084	0.000324	3.243128	0.549401	-0.000065
 548	5.4426e+01	9.1016	86.640970	0.000608	6.080866	1.030127	-0.000122
 549	5.4526e+01	9.0820	86.560227	0.000405	4.053911	0.686751	-0.000081
 550	5.4626e+01	9.0617	86.491596	0.000345	3.445824	0.583738	-0.000069
 551	5.4725e+01	9.0408	86.447188	0.000223	2.229651	0.377713	-0.000045
 552	5.4825e+01	9.0211	86.317999	0.000649	6.486257	1.098802	-0.000130
 553	5.4924e+01	9.0032	86.204959	0.000568	5.675475	0.961451	-0.000114
 554	5.5023e+01	8.9829	86.099994	0.000527	5.270084	0.892776	-0.000105
 555	5.5123e+01	8.9619	86.035400	0.000324	3.243128	0.549401	-0.000065
 556	5.5222e+01	8.9417	85.930434	0.000527	5.270084	0.892776	-0.000105
 557	5.5322e+01	8.9238	85.881989	0.000243	2.432346	0.412051	-0.000049
 558	5.5422e+01	8.9026	85.797209	0.000426	4.256606	0.721089	-0.000085
 559	5.5521e+01	8.8823	85.708392	0.000446	4.459302	0.755426	-0.000089
 560	5.5620e+01	8.8624	85.563055	0.000730	7.297039	1.236152	-0.000146
 561	5.5720e+01	8.8428	85.522683	0.000203	2.026955	0.343376	-0.000041
 562	5.5819e+01	8.8232	85.401569	0.000608	6.080866	1.030127	-0.000122
 563	5.5919e+01	8.8037	85.365235	0.000182	1.824260	0.309038	-0.000037
 564	5.6019e+01	8.7833	85.240084	0.000628	6.283561	1.064464	-0.000126
 565	5.6118e+01	8.7637	85.179527	0.000304	3.040433	0.515063	-0.000061
 566	5.6218e+01	8.7439	85.062450	0.000588	5.878170	0.995789	-0.000118
 567	5.6317e+01	8.7238	84.961522	0.000507	5.067388	0.858439	-0.000101
 568	5.6416e+01	8.7039	84.876742	0.000426	4.256606	0.721089	-0.000085
 569	5.6516e+01	8.6848	84.816185	0.000304	3.040433	0.515063	-0.000061
 570	5.6615e+01	8.6636	84.759665	0.000284	2.837737	0.480726	-0.000057
 571	5.6715e+01	8.6445	84.610291	0.000750	7.499735	1.270489	-0.000150
 572	5.6815e+01	8.6241	84.545697	0.000324	3.243128	0.549401	-0.000065
 573	5.6914e+01	8.6044	84.428620	0.000588	5.878170	0.995789	-0.000118
 574	5.7014e+01	8.5840	84.380174	0.000243	2.432346	0.412051	-0.000049
 575	5.7113e+01	8.5612	84.283283	0.000486	4.864693	0.824101	-0.000097
 576	5.7212e+01	8.5449	84.190429	0.000466	4.661997	0.789764	-0.000093
 577	5.7312e+01	8.5257	84.101612	0.000446	4.459302	0.755426	-0.000089
 578	5.7411e+01	8.5047	83.992609	0.000547	5.472779	0.927114	-0.000110
 579	5.7511e+01	8.4855	83.919941	0.000365	3.648520	0.618076	-0.000073
 580	5.7611e+01	8.4653	83.843235	0.000385	3.851215	0.652413	-0.000077
 581	5.7710e+01	8.4449	83.750381	0.000466	4.661997	0.789764	-0.000093
 582	5.7809e+01	8.4247	83.629267	0.000608	6.080866	1.030127	-0.000122
 583	5.7909e+01	8.4050	83.500078	0.000649	6.486257	1.098802	-0.000130
 584	5.8008e+01	8.3857	83.423373	0.000385	3.851215	0.652413	-0.000077
 585	5.8108e+01	8.3659	83.354742	0.000345	3.445824	0.583738	-0.000069
 586	5.8208e+01	8.3446	83.298222	0.000284	2.837737	0.480726	-0.000057
 587	5.8307e+01	8.3253	83.164996	0.000669	6.688952	1.133139	-0.000134
 588	5.8407e+01	8.3057	83.088291	0.000385	3.851215	0.652413	-0.000077
 589	5.8506e+01	8.2868	82.995437	0.000466	4.661997	0.789764	-0.000093
 590	5.8605e+01	8.2655	82.918731	0.000385	3.851215	0.652413	-0.000077
 591	5.8705e+01	8.2450	82.793580	0.000628	6.283561	1.064464	-0.000126
 592	5.8804e+01	8.2256	82.708800	0.000426	4.256606	0.721089	-0.000085
 593	5.8904e+01	8.2059	82.607871	0.000507	5.067388	0.858439	-0.000101
 594	5.9004e+01	8.1863	82.543277	0.000324	3.243128	0.549401	-0.000065
 595	5.9103e+01	8.1656	82.466572	0.000385	3.851215	0.652413	-0.000077
 596	5.9203e+01	8.1454	82.329309	0.000689	6.891648	1.167477	-0.000138
 597	5.9302e+01	8.1259	82.252604	0.000385	3.851215	0.652413	-0.000077
 598	5.9401e+01	8.1063	82.155712	0.000486	4.864693	0.824101	-0.000097
 599	5.9501e+01	8.0868	82.070932	0.000426	4.256606	0.721089	-0.000085
 600	5.9600e+01	8.0669	81.957893	0.000568	5.675475	0.961451	-0.000114
 601	5.9700e+01	8.0459	81.881187	0.000385	3.851215	0.652413	-0.000077
 602	5.9800e+01	8.0262	81.784296	0.000486	4.864693	0.824101	-0.000097
 603	5.9899e+01	8.0067	81.671256	0.000568	5.675475	0.961451	-0.000114
 604	5.9998e+01	7.9863	81.562253	0.000547	5.472779	0.927114	-0.000110
 605	6.0098e+01	7.9664	81.477473	0.000426	4.256606	0.721089	-0.000085
 606	6.0197e+01	7.9471	81.392694	0.000426	4.256606	0.721089	-0.000085
 607	6.0297e+01	7.9272	81.291765	0.000507	5.067388	0.858439	-0.000101
 608	6.0397e+01	7.9072	81.186800	0.000527	5.270084	0.892776	-0.000105
 609	6.0496e+01	7.8875	81.097983	0.000446	4.459302	0.755426	-0.000089
 610	6.0596e+01	7.8675	80.972831	0.000628	6.283561	1.064464	-0.000126
 611	6.0695e+01	7.8480	80.900163	0.000365	3.648520	0.618076	-0.000073
 612	6.0794e+01	7.8277	80.815383	0.000426	4.256606	0.721089	-0.000085
 613	6.0894e+01	7.8080	80.750789	0.000324	3.243128	0.549401	-0.000065
 614	6.0993e+01	7.7881	80.609489	0.000709	7.094344	1.201814	-0.000142
 615	6.1093e+01	7.7682	80.540858	0.000345	3.445824	0.583738	-0.000069
 616	6.1193e+01	7.7482	80.403595	0.000689	6.891648	1.167477	-0.000138
 617	6.1292e+01	7.7279	80.294593	0.000547	5.472779	0.927114	-0.000110
 618	6.1392e+01	7.7077	80.217887	0.000385	3.851215	0.652413	-0.000077
 619	6.1491e+01	7.6882	80.112922	0.000527	5.270084	0.892776	-0.000105
 620	6.1590e+01	7.6672	80.007956	0.000527	5.270084	0.892776	-0.000105
 621	6.1690e+01	7.6479	79.902991	0.000527	5.270084	0.892776	-0.000105
 622	6.1789e+01	7.6289	79.798025	0.000527	5.270084	0.892776	-0.000105
 623	6.1889e+01	7.6083	79.725357	0.000365	3.648520	0.618076	-0.000073
 624	6.1989e+01	7.5889	79.636540	0.000446	4.459302	0.755426	-0.000089
 625	6.2088e+01	7.5686	79.519463	0.000588	5.878170	0.995789	-0.000118
 626	6.2188e+01	7.5483	79.438720	0.000405	4.053911	0.686751	-0.000081
 627	6.2287e+01	7.5290	79.349903	0.000446	4.459302	0.755426	-0.000089
 628	6.2386e+01	7.5089	79.240900	0.000547	5.472779	0.927114	-0.000110
 629	6.2486e+01	7.4889	79.148046	0.000466	4.661997	0.789764	-0.000093
 630	6.2586e+01	7.4688	79.059229	0.000446	4.459302	0.755426	-0.000089
 631	6.2685e+01	7.4490	78.966375	0.000466	4.661997	0.789764	-0.000093
 632	6.2785e+01	7.4287	78.841224	0.000628	6.283561	1.064464	-0.000126
 633	6.2884e+01	7.4093	78.760481	0.000405	4.053911	0.686751	-0.000081
 634	6.2983e+01	7.3891	78.671664	0.000446	4.459302	0.755426	-0.000089
 635	6.3083e+01	7.3696	78.570736	0.000507	5.067388	0.858439	-0.000101
 636	6.3182e+01	7.3499	78.433473	0.000689	6.891648	1.167477	-0.000138
 637	6.3282e+01	7.3291	78.405213	0.000142	1.418869	0.240363	-0.000028
 638	6.3382e+01	7.3091	78.271988	0.000669	6.688952	1.133139	-0.000134
 639	6.3481e+01	7.2898	78.191245	0.000405	4.053911	0.686751	-0.000081
 640	6.3581e+01	7.2695	78.098391	0.000466	4.661997	0.789764	-0.000093
 641	6.3680e+01	7.2506	78.009574	0.000446	4.459302	0.755426	-0.000089
 642	6.3779e+01	7.2315	77.864237	0.000730	7.297039	1.236152	-0.000146
 643	6.3879e+01	7.2094	77.767346	0.000486	4.864693	0.824101	-0.000097
 644	6.3978e+01	7.1899	77.690640	0.000385	3.851215	0.652413	-0.000077
 645	6.4078e+01	7.1700	77.569526	0.000608	6.080866	1.030127	-0.000122
 646	6.4177e+01	7.1497	77.484746	0.000426	4.256606	0.721089	-0.000085
 647	6.4277e+01	7.1310	77.379781	0.000527	5.270084	0.892776	-0.000105
 648	6.4376e+01	7.1105	77.250592	0.000649	6.486257	1.098802	-0.000130
 649	6.4476e+01	7.0901	77.153701	0.000486	4.864693	0.824101	-0.000097
 650	6.4576e+01	7.0707	77.097181	0.000284	2.837737	0.480726	-0.000057
 651	6.4675e+01	7.0508	76.976067	0.000608	6.080866	1.030127	-0.000122
 652	6.4775e+01	7.0295	76.854953	0.000608	6.080866	1.030127	-0.000122
 653	6.4874e+01	7.0110	76.798433	0.000284	2.837737	0.480726	-0.000057
 654	6.4974e+01	6.9905	76.669245	0.000649	6.486257	1.098802	-0.000130
 655	6.5073e+01	6.9707	76.568316	0.000507	5.067388	0.858439	-0.000101
 656	6.5172e+01	6.9512	76.451239	0.000588	5.878170	0.995789	-0.000118
 657	6.5272e+01	6.9305	76.382608	0.000345	3.445824	0.583738	-0.000069
 658	6.5371e+01	6.9109	76.269568	0.000568	5.675475	0.961451	-0.000114
 659	6.5471e+01	6.8914	76.172677	0.000486	4.864693	0.824101	-0.000097
 660	6.5570e+01	6.8703	76.067712	0.000527	5.270084	0.892776	-0.000105
 661	6.5670e+01	6.8517	75.991006	0.000385	3.851215	0.652413	-0.000077
 662	6.5769e+01	6.8320	75.865855	0.000628	6.283561	1.064464	-0.000126
 663	6.5869e+01	6.8124	75.785112	0.000405	4.053911	0.686751	-0.000081
 664	6.5969e+01	6.7921	75.631701	0.000770	7.702430	1.304827	-0.000154
 665	6.6068e+01	6.7721	75.530773	0.000507	5.067388	0.858439	-0.000101
 666	6.6168e+01	6.7519	75.466178	0.000324	3.243128	0.549401	-0.000065
 667	6.6267e+01	6.7315	75.365250	0.000507	5.067388	0.858439	-0.000101
 668	6.6367e+01	6.7115	75.236062	0.000649	6.486257	1.098802	-0.000130
 669	6.6466e+01	6.6917	75.143207	0.000466	4.661997	0.789764	-0.000093
 670	6.6566e+01	6.6728	75.026131	0.000588	5.878170	0.995789	-0.000118
 671	6.6665e+01	6.6521	74.957499	0.000345	3.445824	0.583738	-0.000069
 672	6.6764e+01	6.6326	74.816199	0.000709	7.094344	1.201814	-0.000142
 673	6.6864e+01	6.6131	74.687011	0.000649	6.486257	1.098802	-0.000130
 674	6.6963e+01	6.5930	74.573971	0.000568	5.675475	0.961451	-0.000114
 675	6.7063e+01	6.5720	74.481117	0.000466	4.661997	0.789764	-0.000093
 676	6.7162e+01	6.5530	74.392300	0.000446	4.459302	0.755426	-0.000089
 677	6.7262e+01	6.5328	74.279260	0.000568	5.675475	0.961451	-0.000114
 678	6.7362e+01	6.5133	74.186406	0.000466	4.661997	0.789764	-0.000093
 679	6.7461e+01	6.4928	74.053181	0.000669	6.688952	1.133139	-0.000134
 680	6.7561e+01	6.4730	73.980512	0.000365	3.648520	0.618076	-0.000073
 681	6.7660e+01	6.4529	73.891695	0.000446	4.459302	0.755426	-0.000089
 682	6.7760e+01	6.4337	73.778656	0.000568	5.675475	0.961451	-0.000114
 683	6.7859e+01	6.4129	73.685801	0.000466	4.661997	0.789764	-0.000093
 684	6.7959e+01	6.3936	73.548539	0.000689	6.891648	1.167477	-0.000138
 685	6.8058e+01	6.3734	73.419351	0.000649	6.486257	1.098802	-0.000130
 686	6.8157e+01	6.3537	73.338608	0.000405	4.053911	0.686751	-0.000081
 687	6.8257e+01	6.3337	73.233642	0.000527	5.270084	0.892776	-0.000105
 688	6.8356e+01	6.3140	73.144825	0.000446	4.459302	0.755426	-0.000089
 689	6.8456e+01	6.2943	73.003526	0.000709	7.094344	1.201814	-0.000142
 690	6.8555e+01	6.2745	72.926820	0.000385	3.851215	0.652413	-0.000077
 691	6.8655e+01	6.2537	72.817817	0.000547	5.472779	0.927114	-0.000110
 692	6.8754e+01	6.2350	72.708815	0.000547	5.472779	0.927114	-0.000110
 693	6.8854e+01	6.2151	72.583663	0.000628	6.283561	1.064464	-0.000126
 694	6.8954e+01	6.1939	72.482735	0.000507	5.067388	0.858439	-0.000101
 695	6.9053e+01	6.1754	72.397955	0.000426	4.256606	0.721089	-0.000085
 696	6.9153e+01	6.1558	72.256655	0.000709	7.094344	1.201814	-0.000142
 697	6.9252e+01	6.1353	72.147653	0.000547	5.472779	0.927114	-0.000110
 698	6.9352e+01	6.1144	72.034613	0.000568	5.675475	0.961451	-0.000114
 699	6.9451e+01	6.0942	71.965982	0.000345	3.445824	0.583738	-0.000069
 700	6.9550e+01	6.0748	71.828719	0.000689	6.891648	1.167477	-0.000138
 701	6.9650e+01	6.0558	71.711642	0.000588	5.878170	0.995789	-0.000118
 702	6.9749e+01	6.0355	71.610714	0.000507	5.067388	0.858439	-0.000101
 703	6.9849e+01	6.0152	71.501711	0.000547	5.472779	0.927114	-0.000110
 704	6.9948e+01	5.9957	71.404820	0.000486	4.864693	0.824101	-0.000097
 705	7.0048e+01	5.9759	71.320040	0.000426	4.256606	0.721089	-0.000085
 706	7.0147e+01	5.9563	71.215074	0.000527	5.270084	0.892776	-0.000105
 707	7.0247e+01	5.9357	71.077812	0.000689	6.891648	1.167477	-0.000138
 708	7.0347e+01	5.9158	70.948623	0.000649	6.486257	1.098802	-0.000130
 709	7.0446e+01	5.8953	70.827509	0.000608	6.080866	1.030127	-0.000122
 710	7.0546e+01	5.8762	70.766952	0.000304	3.040433	0.515063	-0.000061
 711	7.0645e+01	5.8564	70.617578	0.000750	7.499735	1.270489	-0.000150
 712	7.0745e+01	5.8369	70.512613	0.000527	5.270084	0.892776	-0.000105
 713	7.0844e+01	5.8166	70.375350	0.000689	6.891648	1.167477	-0.000138
 714	7.0944e+01	5.7964	70.294607	0.000405	4.053911	0.686751	-0.000081
 715	7.1043e+01	5.7764	70.145233	0.000750	7.499735	1.270489	-0.000150
 716	7.1142e+01	5.7556	70.060454	0.000426	4.256606	0.721089	-0.000085
 717	7.1242e+01	5.7342	69.911080	0.000750	7.499735	1.270489	-0.000150
 718	7.1341e+01	5.7159	69.838411	0.000365	3.648520	0.618076	-0.000073
 719	7.1441e+01	5.6969	69.713260	0.000628	6.283561	1.064464	-0.000126
 720	7.1540e+01	5.6771	69.584072	0.000649	6.486257	1.098802	-0.000130
 721	7.1640e+01	5.6567	69.503329	0.000405	4.053911	0.686751	-0.000081
 722	7.1740e+01	5.6373	69.341843	0.000811	8.107821	1.373502	-0.000162
 723	7.1839e+01	5.6161	69.261101	0.000405	4.053911	0.686751	-0.000081
 724	7.1939e+01	5.5967	69.123838	0.000689	6.891648	1.167477	-0.000138
 725	7.2038e+01	5.5773	69.006761	0.000588	5.878170	0.995789	-0.000118
 726	7.2138e+01	5.5569	68.869499	0.000689	6.891648	1.167477	-0.000138
 727	7.2237e+01	5.5373	68.756459	0.000568	5.675475	0.961451	-0.000114
 728	7.2337e+01	5.5167	68.639382	0.000588	5.878170	0.995789	-0.000118
 729	7.2436e+01	5.4977	68.558639	0.000405	4.053911	0.686751	-0.000081
 730	7.2535e+01	5.4774	68.425414	0.000669	6.688952	1.133139	-0.000134
 731	7.2635e+01	5.4577	68.316411	0.000547	5.472779	0.927114	-0.000110
 732	7.2734e+01	5.4363	68.203371	0.000568	5.675475	0.961451	-0.000114
 733	7.2834e+01	5.4182	68.090331	0.000568	5.675475	0.961451	-0.000114
 734	7.2933e+01	5.3980	67.957106	0.000669	6.688952	1.133139	-0.000134
 735	7.3033e+01	5.3780	67.852140	0.000527	5.270084	0.892776	-0.000105
 736	7.3132e+01	5.3579	67.743138	0.000547	5.472779	0.927114	-0.000110
 737	7.3232e+01	5.3381	67.642209	0.000507	5.067388	0.858439	-0.000101
 738	7.3332e+01	5.3175	67.492835	0.000750	7.499735	1.270489	-0.000150
 739	7.3431e+01	5.2979	67.363647	0.000649	6.486257	1.098802	-0.000130
 740	7.3531e+01	5.2767	67.299053	0.000324	3.243128	0.549401	-0.000065
 741	7.3630e+01	5.2578	67.173902	0.000628	6.283561	1.064464	-0.000126
 742	7.3730e+01	5.2381	67.036639	0.000689	6.891648	1.167477	-0.000138
 743	7.3829e+01	5.2181	66.899376	0.000689	6.891648	1.167477	-0.000138
 744	7.3928e+01	5.1983	66.830745	0.000345	3.445824	0.583738	-0.000069
 745	7.4028e+01	5.1778	66.701557	0.000649	6.486257	1.098802	-0.000130
 746	7.4127e+01	5.1579	66.536034	0.000831	8.310517	1.407840	-0.000166
 747	7.4227e+01	5.1385	66.414920	0.000608	6.080866	1.030127	-0.000122
 748	7.4326e+01	5.1188	66.330140	0.000426	4.256606	0.721089	-0.000085
 749	7.4426e+01	5.0985	66.196915	0.000669	6.688952	1.133139	-0.000134
 750	7.4525e+01	5.0781	66.112135	0.000426	4.256606	0.721089	-0.000085
 751	7.4625e+01	5.0591	65.950649	0.000811	8.107821	1.373502	-0.000162
 752	7.4725e+01	5.0383	65.877981	0.000365	3.648520	0.618076	-0.000073
 753	7.4824e+01	5.0194	65.748793	0.000649	6.486257	1.098802	-0.000130
 754	7.4924e+01	4.9993	65.643827	0.000527	5.270084	0.892776	-0.000105
 755	7.5023e+01	4.9792	65.478305	0.000831	8.310517	1.407840	-0.000166
 756	7.5123e+01	4.9598	65.381413	0.000486	4.864693	0.824101	-0.000097
 757	7.5222e+01	4.9401	65.219928	0.000811	8.107821	1.373502	-0.000162
 758	7.5322e+01	4.9188	65.135148	0.000426	4.256606	0.721089	-0.000085
 759	7.5421e+01	4.9000	65.030182	0.000527	5.270084	0.892776	-0.000105
 760	7.5520e+01	4.8798	64.900994	0.000649	6.486257	1.098802	-0.000130
 761	7.5620e+01	4.8605	64.796029	0.000527	5.270084	0.892776	-0.000105
 762	7.5719e+01	4.8399	64.670877	0.000628	6.283561	1.064464	-0.000126
 763	7.5819e+01	4.8205	64.561875	0.000547	5.472779	0.927114	-0.000110
 764	7.5918e+01	4.7998	64.428649	0.000669	6.688952	1.133139	-0.000134
 765	7.6018e+01	4.7796	64.295424	0.000669	6.688952	1.133139	-0.000134
 766	7.6118e+01	4.7617	64.174310	0.000608	6.080866	1.030127	-0.000122
 767	7.6217e+01	4.7404	64.053196	0.000608	6.080866	1.030127	-0.000122
 768	7.6317e+01	4.7207	63.919970	0.000669	6.688952	1.133139	-0.000134
 769	7.6416e+01	4.7009	63.835190	0.000426	4.256606	0.721089	-0.000085
 770	7.6516e+01	4.6804	63.697928	0.000689	6.891648	1.167477	-0.000138
 771	7.6615e+01	4.6615	63.556628	0.000709	7.094344	1.201814	-0.000142
 772	7.6715e+01	4.6402	63.435514	0.000608	6.080866	1.030127	-0.000122
 773	7.6814e+01	4.6217	63.314400	0.000608	6.080866	1.030127	-0.000122
 774	7.6913e+01	4.6008	63.205397	0.000547	5.472779	0.927114	-0.000110
 775	7.7013e+01	4.5811	63.100432	0.000527	5.270084	0.892776	-0.000105
 776	7.7112e+01	4.5606	62.971243	0.000649	6.486257	1.098802	-0.000130
 777	7.7212e+01	4.5414	62.842055	0.000649	6.486257	1.098802	-0.000130
 778	7.7311e+01	4.5216	62.680569	0.000811	8.107821	1.373502	-0.000162
 779	7.7411e+01	4.5020	62.591752	0.000446	4.459302	0.755426	-0.000089
 780	7.7510e+01	4.4816	62.450453	0.000709	7.094344	1.201814	-0.000142
 781	7.7610e+01	4.4608	62.321264	0.000649	6.486257	1.098802	-0.000130
 782	7.7710e+01	4.4411	62.212262	0.000547	5.472779	0.927114	-0.000110
 783	7.7809e+01	4.4213	62.070962	0.000709	7.094344	1.201814	-0.000142
 784	7.7909e+01	4.4018	61.957922	0.000568	5.675475	0.961451	-0.000114
 785	7.8008e+01	4.3826	61.856994	0.000507	5.067388	0.858439	-0.000101
 786	7.8108e+01	4.3627	61.683397	0.000872	8.715908	1.476515	-0.000174
 787	7.8207e+01	4.3423	61.598617	0.000426	4.256606	0.721089	-0.000085
 788	7.8306e+01	4.3218	61.461354	0.000689	6.891648	1.167477	-0.000138
 789	7.8406e+01	4.3023	61.320055	0.000709	7.094344	1.201814	-0.000142
 790	7.8505e+01	4.2825	61.194904	0.000628	6.283561	1.064464	-0.000126
 791	7.8605e+01	4.2624	61.045529	0.000750	7.499735	1.270489	-0.000150
 792	7.8704e+01	4.2424	60.912304	0.000669	6.688952	1.133139	-0.000134
 793	7.8804e+01	4.2226	60.815413	0.000486	4.864693	0.824101	-0.000097
 794	7.8903e+01	4.2029	60.702373	0.000568	5.675475	0.961451	-0.000114
 795	7.9003e+01	4.1816	60.601445	0.000507	5.067388	0.858439	-0.000101
 796	7.9103e+01	4.1627	60.427848	0.000872	8.715908	1.476515	-0.000174
 797	7.9202e+01	4.1428	60.343068	0.000426	4.256606	0.721089	-0.000085
 798	7.9302e+01	4.1234	60.221954	0.000608	6.080866	1.030127	-0.000122
 799	7.9401e+01	4.1023	60.076617	0.000730	7.297039	1.236152	-0.000146
 800	7.9501e+01	4.0833	59.959540	0.000588	5.878170	0.995789	-0.000118
 801	7.9600e+01	4.0637	59.830352	0.000649	6.486257	1.098802	-0.000130
 802	7.9700e+01	4.0427	59.689052	0.000709	7.094344	1.201814	-0.000142
 803	7.9799e+01	4.0234	59.608309	0.000405	4.053911	0.686751	-0.000081
 804	7.9898e+01	4.0029	59.462972	0.000730	7.297039	1.236152	-0.000146
 805	7.9998e+01	3.9838	59.329747	0.000669	6.688952	1.133139	-0.000134
 806	8.0097e+01	3.9635	59.208633	0.000608	6.080866	1.030127	-0.000122
 807	8.0197e+01	3.9439	59.051184	0.000791	7.905126	1.339165	-0.000158
 808	8.0296e+01	3.9233	58.978516	0.000365	3.648520	0.618076	-0.000073
 809	8.0396e+01	3.9049	58.792808	0.000932	9.323994	1.579527	-0.000187
 810	8.0496e+01	3.8840	58.687842	0.000527	5.270084	0.892776	-0.000105
 811	8.0595e+01	3.8636	58.562691	0.000628	6.283561	1.064464	-0.000126
 812	8.0695e+01	3.8439	58.429466	0.000669	6.688952	1.133139	-0.000134
 813	8.0794e+01	3.8236	58.332574	0.000486	4.864693	0.824101	-0.000097
 814	8.0894e+01	3.8039	58.191275	0.000709	7.094344	1.201814	-0.000142
 815	8.0993e+01	3.7836	58.049975	0.000709	7.094344	1.201814	-0.000142
 816	8.1093e+01	3.7646	57.965195	0.000426	4.256606	0.721089	-0.000085
 817	8.1192e+01	3.7442	57.823895	0.000709	7.094344	1.201814	-0.000142
 818	8.1291e+01	3.7241	57.666447	0.000791	7.905126	1.339165	-0.000158
 819	8.1391e+01	3.7052	57.573593	0.000466	4.661997	0.789764	-0.000093
 820	8.1490e+01	3.6850	57.408070	0.000831	8.310517	1.407840	-0.000166
 821	8.1590e+01	3.6649	57.315216	0.000466	4.661997	0.789764	-0.000093
 822	8.1689e+01	3.6444	57.181991	0.000669	6.688952	1.133139	-0.000134
 823	8.1789e+01	3.6248	56.996282	0.000932	9.323994	1.579527	-0.000187
 824	8.1888e+01	3.6047	56.899391	0.000486	4.864693	0.824101	-0.000097
 825	8.1988e+01	3.5856	56.786351	0.000568	5.675475	0.961451	-0.000114
 826	8.2088e+01	3.5645	56.624866	0.000811	8.107821	1.373502	-0.000162
 827	8.2187e+01	3.5455	56.544123	0.000405	4.053911	0.686751	-0.000081
 828	8.2287e+01	3.5264	56.402823	0.000709	7.094344	1.201814	-0.000142
 829	8.2386e+01	3.5052	56.233264	0.000851	8.513212	1.442177	-0.000170
 830	8.2486e+01	3.4853	56.116187	0.000588	5.878170	0.995789	-0.000118
 831	8.2585e+01	3.4649	55.982961	0.000669	6.688952	1.133139	-0.000134
 832	8.2684e+01	3.4460	55.849736	0.000669	6.688952	1.133139	-0.000134
 833	8.2784e+01	3.4255	55.696325	0.000770	7.702430	1.304827	-0.000154
 834	8.2883e+01	3.4069	55.567136	0.000649	6.486257	1.098802	-0.000130
 835	8.2983e+01	3.3863	55.466208	0.000507	5.067388	0.858439	-0.000101
 836	8.3082e+01	3.3666	55.320871	0.000730	7.297039	1.236152	-0.000146
 837	8.3182e+01	3.3456	55.159386	0.000811	8.107821	1.373502	-0.000162
 838	8.3281e+01	3.3257	55.034234	0.000628	6.283561	1.064464	-0.000126
 839	8.3381e+01	3.3066	54.933306	0.000507	5.067388	0.858439	-0.000101
 840	8.3481e+01	3.2856	54.812192	0.000608	6.080866	1.030127	-0.000122
 841	8.3580e+01	3.2673	54.658781	0.000770	7.702430	1.304827	-0.000154
 842	8.3680e+01	3.2458	54.505370	0.000770	7.702430	1.304827	-0.000154
 843	8.3779e+01	3.2265	54.351958	0.000770	7.702430	1.304827	-0.000154
 844	8.3879e+01	3.2061	54.259104	0.000466	4.661997	0.789764	-0.000093
 845	8.3978e+01	3.1863	54.105693	0.000770	7.702430	1.304827	-0.000154
 846	8.4078e+01	3.1664	53.984579	0.000608	6.080866	1.030127	-0.000122
 847	8.4177e+01	3.1476	53.839242	0.000730	7.297039	1.236152	-0.000146
 848	8.4276e+01	3.1272	53.718128	0.000608	6.080866	1.030127	-0.000122
 849	8.4376e+01	3.1067	53.548568	0.000851	8.513212	1.442177	-0.000170
 850	8.4475e+01	3.0869	53.411306	0.000689	6.891648	1.167477	-0.000138
 851	8.4575e+01	3.0679	53.302303	0.000547	5.472779	0.927114	-0.000110
 852	8.4674e+01	3.0477	53.197338	0.000527	5.270084	0.892776	-0.000105
 853	8.4774e+01	3.0273	53.015667	0.000912	9.121299	1.545190	-0.000183
 854	8.4874e+01	3.0073	52.890515	0.000628	6.283561	1.064464	-0.000126
 855	8.4973e+01	2.9874	52.749216	0.000709	7.094344	1.201814	-0.000142
 856	8.5073e+01	2.9685	52.587730	0.000811	8.107821	1.373502	-0.000162
 857	8.5172e+01	2.9472	52.458542	0.000649	6.486257	1.098802	-0.000130
 858	8.5272e+01	2.9284	52.345502	0.000568	5.675475	0.961451	-0.000114
 859	8.5371e+01	2.9079	52.240536	0.000527	5.270084	0.892776	-0.000105
 860	8.5471e+01	2.8880	52.083088	0.000791	7.905126	1.339165	-0.000158
 861	8.5570e+01	2.8695	51.933714	0.000750	7.499735	1.270489	-0.000150
 862	8.5669e+01	2.8475	51.812600	0.000608	6.080866	1.030127	-0.000122
 863	8.5769e+01	2.8281	51.671300	0.000709	7.094344	1.201814	-0.000142
 864	8.5868e+01	2.8077	51.530001	0.000709	7.094344	1.201814	-0.000142
 865	8.5968e+01	2.7877	51.380627	0.000750	7.499735	1.270489	-0.000150
 866	8.6067e+01	2.7679	51.231253	0.000750	7.499735	1.270489	-0.000150
 867	8.6167e+01	2.7477	51.142436	0.000446	4.459302	0.755426	-0.000089
 868	8.6266e+01	2.7277	50.960764	0.000912	9.121299	1.545190	-0.000183
 869	8.6366e+01	2.7075	50.855799	0.000527	5.270084	0.892776	-0.000105
 870	8.6466e+01	2.6881	50.706425	0.000750	7.499735	1.270489	-0.000150
 871	8.6565e+01	2.6682	50.565125	0.000709	7.094344	1.201814	-0.000142
 872	8.6665e+01	2.6491	50.403640	0.000811	8.107821	1.373502	-0.000162
 873	8.6764e+01	2.6288	50.290600	0.000568	5.675475	0.961451	-0.000114
 874	8.6864e+01	2.6081	50.149300	0.000709	7.094344	1.201814	-0.000142
 875	8.6963e+01	2.5887	50.016075	0.000669	6.688952	1.133139	-0.000134
 876	8.7063e+01	2.5687	49.842478	0.000872	8.715908	1.476515	-0.000174
 877	8.7162e+01	2.5483	49.717327	0.000628	6.283561	1.064464	-0.000126
 878	8.7261e+01	2.5292	49.584101	0.000669	6.688952	1.133139	-0.000134
 879	8.7361e+01	2.5092	49.438764	0.000730	7.297039	1.236152	-0.000146
 880	8.7460e+01	2.4902	49.293427	0.000730	7.297039	1.236152	-0.000146
 881	8.7560e+01	2.4703	49.119831	0.000872	8.715908	1.476515	-0.000174
 882	8.7659e+01	2.4497	49.018902	0.000507	5.067388	0.858439	-0.000101
 883	8.7759e+01	2.4294	48.893751	0.000628	6.283561	1.064464	-0.000126
 884	8.7859e+01	2.4099	48.695931	0.000993	9.932081	1.682540	-0.000199
 885	8.7958e+01	2.3901	48.526372	0.000851	8.513212	1.442177	-0.000170
 886	8.8058e+01	2.3695	48.421406	0.000527	5.270084	0.892776	-0.000105
 887	8.8157e+01	2.3497	48.304329	0.000588	5.878170	0.995789	-0.000118
 888	8.8257e+01	2.3307	48.146881	0.000791	7.905126	1.339165	-0.000158
 889	8.8356e+01	2.3103	47.973284	0.000872	8.715908	1.476515	-0.000174
 890	8.8456e+01	2.2900	47.840058	0.000669	6.688952	1.133139	-0.000134
 891	8.8555e+01	2.2698	47.682610	0.000791	7.905126	1.339165	-0.000158
 892	8.8654e+01	2.2491	47.545348	0.000689	6.891648	1.167477	-0.000138
 893	8.8754e+01	2.2301	47.412122	0.000669	6.688952	1.133139	-0.000134
 894	8.8853e+01	2.2105	47.250637	0.000811	8.107821	1.373502	-0.000162
 895	8.8953e+01	2.1908	47.105300	0.000730	7.297039	1.236152	-0.000146
 896	8.9052e+01	2.1708	46.980149	0.000628	6.283561	1.064464	-0.000126
 897	8.9152e+01	2.1512	46.830775	0.000750	7.499735	1.270489	-0.000150
 898	8.9251e+01	2.1310	46.701586	0.000649	6.486257	1.098802	-0.000130
 899	8.9351e+01	2.1106	46.515878	0.000932	9.323994	1.579527	-0.000187
 900	8.9451e+01	2.0901	46.390727	0.000628	6.283561	1.064464	-0.000126
 901	8.9550e+01	2.0718	46.245390	0.000730	7.297039	1.236152	-0.000146
 902	8.9650e+01	2.0515	46.100053	0.000730	7.297039	1.236152	-0.000146
 903	8.9749e+01	2.0306	45.962790	0.000689	6.891648	1.167477	-0.000138
 904	8.9849e+01	2.0110	45.801305	0.000811	8.107821	1.373502	-0.000162
 905	8.9948e+01	1.9913	45.668079	0.000669	6.688952	1.133139	-0.000134
 906	9.0047e+01	1.9717	45.546965	0.000608	6.080866	1.030127	-0.000122
 907	9.0147e+01	1.9516	45.345109	0.001013	10.134776	1.716878	-0.000203
 908	9.0246e+01	1.9312	45.244180	0.000507	5.067388	0.858439	-0.000101
 909	9.0346e+01	1.9102	45.042323	0.001013	10.134776	1.716878	-0.000203
 910	9.0445e+01	1.8903	44.892949	0.000750	7.499735	1.270489	-0.000150
 911	9.0545e+01	1.8725	44.792021	0.000507	5.067388	0.858439	-0.000101
 912	9.0644e+01	1.8514	44.606313	0.000932	9.323994	1.579527	-0.000187
 913	9.0744e+01	1.8320	44.473087	0.000669	6.688952	1.133139	-0.000134
 914	9.0844e+01	1.8121	44.299490	0.000872	8.715908	1.476515	-0.000174
 915	9.0943e+01	1.7919	44.174339	0.000628	6.283561	1.064464	-0.000126
 916	9.1043e+01	1.7722	44.065337	0.000547	5.472779	0.927114	-0.000110
 917	9.1142e+01	1.7518	43.871554	0.000973	9.729385	1.648203	-0.000195
 918	9.1242e+01	1.7315	43.750440	0.000608	6.080866	1.030127	-0.000122
 919	9.1341e+01	1.7121	43.617215	0.000669	6.688952	1.133139	-0.000134
 920	9.1441e+01	1.6920	43.459766	0.000791	7.905126	1.339165	-0.000158
 921	9.1540e+01	1.6726	43.282132	0.000892	8.918603	1.510852	-0.000179
 922	9.1639e+01	1.6536	43.165055	0.000588	5.878170	0.995789	-0.000118
 923	9.1739e+01	1.6317	42.971273	0.000973	9.729385	1.648203	-0.000195
 924	9.1838e+01	1.6117	42.834010	0.000689	6.891648	1.167477	-0.000138
 925	9.1938e+01	1.5933	42.700785	0.000669	6.688952	1.133139	-0.000134
 926	9.2037e+01	1.5737	42.543336	0.000791	7.905126	1.339165	-0.000158
 927	9.2137e+01	1.5528	42.422222	0.000608	6.080866	1.030127	-0.000122
 928	9.2237e+01	1.5332	42.288997	0.000669	6.688952	1.133139	-0.000134
 929	9.2336e+01	1.5138	42.095214	0.000973	9.729385	1.648203	-0.000195
 930	9.2436e+01	1.4931	41.957952	0.000689	6.891648	1.167477	-0.000138
 931	9.2535e+01	1.4734	41.808578	0.000750	7.499735	1.270489	-0.000150
 932	9.2635e+01	1.4526	41.651129	0.000791	7.905126	1.339165	-0.000158
 933	9.2734e+01	1.4337	41.509830	0.000709	7.094344	1.201814	-0.000142
 934	9.2834e+01	1.4130	41.348344	0.000811	8.107821	1.373502	-0.000162
 935	9.2933e+01	1.3925	41.178785	0.000851	8.513212	1.442177	-0.000170
 936	9.3032e+01	1.3730	41.021336	0.000791	7.905126	1.339165	-0.000158
 937	9.3132e+01	1.3533	40.896185	0.000628	6.283561	1.064464	-0.000126
 938	9.3231e+01	1.3337	40.742774	0.000770	7.702430	1.304827	-0.000154
 939	9.3331e+01	1.3136	40.593400	0.000750	7.499735	1.270489	-0.000150
 940	9.3430e+01	1.2938	40.448063	0.000730	7.297039	1.236152	-0.000146
 941	9.3530e+01	1.2739	40.278503	0.000851	8.513212	1.442177	-0.000170
 942	9.3629e+01	1.2549	40.108944	0.000851	8.513212	1.442177	-0.000170
 943	9.3729e+01	1.2341	40.012052	0.000486	4.864693	0.824101	-0.000097
 944	9.3829e+01	1.2148	39.822307	0.000953	9.526690	1.613865	-0.000191
 945	9.3928e+01	1.1954	39.664859	0.000791	7.905126	1.339165	-0.000158
 946	9.4028e+01	1.1745	39.531633	0.000669	6.688952	1.133139	-0.000134
 947	9.4127e+01	1.1557	39.333813	0.000993	9.932081	1.682540	-0.000199
 948	9.4227e+01	1.1349	39.204625	0.000649	6.486257	1.098802	-0.000130
 949	9.4326e+01	1.1154	39.067363	0.000689	6.891648	1.167477	-0.000138
 950	9.4425e+01	1.0963	38.909914	0.000791	7.905126	1.339165	-0.000158
 951	9.4525e+01	1.0746	38.752466	0.000791	7.905126	1.339165	-0.000158
 952	9.4624e+01	1.0554	38.574832	0.000892	8.918603	1.510852	-0.000179
 953	9.4724e+01	1.0358	38.405272	0.000851	8.513212	1.442177	-0.000170
 954	9.4823e+01	1.0158	38.272047	0.000669	6.688952	1.133139	-0.000134
 955	9.4923e+01	0.9949	38.134784	0.000689	6.891648	1.167477	-0.000138
 956	9.5022e+01	0.9766	37.989447	0.000730	7.297039	1.236152	-0.000146
 957	9.5122e+01	0.9559	37.803739	0.000932	9.323994	1.579527	-0.000187
 958	9.5222e+01	0.9352	37.678588	0.000628	6.283561	1.064464	-0.000126
 959	9.5321e+01	0.9153	37.500954	0.000892	8.918603	1.510852	-0.000179
 960	9.5421e+01	0.8956	37.375803	0.000628	6.283561	1.064464	-0.000126
 961	9.5520e+01	0.8764	37.182020	0.000973	9.729385	1.648203	-0.000195
 962	9.5620e+01	0.8566	37.048795	0.000669	6.688952	1.133139	-0.000134
 963	9.5719e+01	0.8363	36.911532	0.000689	6.891648	1.167477	-0.000138
 964	9.5819e+01	0.8162	36.770232	0.000709	7.094344	1.201814	-0.000142
 965	9.5918e+01	0.7959	36.612784	0.000791	7.905126	1.339165	-0.000158
 966	9.6017e+01	0.7767	36.431113	0.000912	9.121299	1.545190	-0.000183
 967	9.6117e+01	0.7567	36.261553	0.000851	8.513212	1.442177	-0.000170
 968	9.6216e+01	0.7361	36.124291	0.000689	6.891648	1.167477	-0.000138
 969	9.6316e+01	0.7172	35.970879	0.000770	7.702430	1.304827	-0.000154
 970	9.6415e+01	0.6969	35.805357	0.000831	8.310517	1.407840	-0.000166
 971	9.6515e+01	0.6769	35.672131	0.000669	6.688952	1.133139	-0.000134
 972	9.6615e+01	0.6562	35.526794	0.000730	7.297039	1.236152	-0.000146
 973	9.6714e+01	0.6379	35.393569	0.000669	6.688952	1.133139	-0.000134
 974	9.6814e+01	0.6160	35.183638	0.001054	10.540168	1.785553	-0.000211
 975	9.6913e+01	0.5947	35.058487	0.000628	6.283561	1.064464	-0.000126
 976	9.7013e+01	0.5763	34.901038	0.000791	7.905126	1.339165	-0.000158
 977	9.7112e+01	0.5566	34.739553	0.000811	8.107821	1.373502	-0.000162
 978	9.7212e+01	0.5374	34.598253	0.000709	7.094344	1.201814	-0.000142
 979	9.7311e+01	0.5164	34.404471	0.000973	9.729385	1.648203	-0.000195
 980	9.7410e+01	0.4974	34.259134	0.000730	7.297039	1.236152	-0.000146
 981	9.7510e+01	0.4775	34.101686	0.000791	7.905126	1.339165	-0.000158
 982	9.7609e+01	0.4577	33.956349	0.000730	7.297039	1.236152	-0.000146
 983	9.7709e+01	0.4373	33.815049	0.000709	7.094344	1.201814	-0.000142
 984	9.7808e+01	0.4179	33.613192	0.001013	10.134776	1.716878	-0.000203
 985	9.7908e+01	0.3983	33.471892	0.000709	7.094344	1.201814	-0.000142
 986	9.8007e+01	0.3790	33.375001	0.000486	4.864693	0.824101	-0.000097
 987	9.8107e+01	0.3573	33.205441	0.000851	8.513212	1.442177	-0.000170
 988	9.8207e+01	0.3378	33.011659	0.000973	9.729385	1.648203	-0.000195
 989	9.8306e+01	0.3181	32.854211	0.000791	7.905126	1.339165	-0.000158
 990	9.8406e+01	0.2972	32.708874	0.000730	7.297039	1.236152	-0.000146
 991	9.8505e+01	0.2789	32.563537	0.000730	7.297039	1.236152	-0.000146
 992	9.8605e+01	0.2579	32.406089	0.000791	7.905126	1.339165	-0.000158
 993	9.8704e+01	0.2386	32.240566	0.000831	8.310517	1.407840	-0.000166
 994	9.8803e+01	0.2178	32.091192	0.000750	7.499735	1.270489	-0.000150
 995	9.8903e+01	0.1978	31.913558	0.000892	8.918603	1.510852	-0.000179
 996	9.9002e+01	0.1778	31.739961	0.000872	8.715908	1.476515	-0.000174
 997	9.9102e+01	0.1596	31.582513	0.000791	7.905126	1.339165	-0.000158
 998	9.9201e+01	0.1382	31.437176	0.000730	7.297039	1.236152	-0.000146
 999	9.9301e+01	0.1186	31.271653	0.000831	8.310517	1.407840	-0.000166
1000	9.9400e+01	0.0990	31.122279	0.000750	7.499735	1.270489	-0.000150
1001	9.9500e+01	0.0788	30.956757	0.000831	8.310517	1.407840	-0.000166
1002	9.9600e+01	0.0584	30.819494	0.000689	6.891648	1.167477	-0.000138
1003	9.9699e+01	0.0392	30.658009	0.000811	8.107821	1.373502	-0.000162
1004	9.9799e+01	0.0200	30.480375	0.000892	8.918603	1.510852	-0.000179
1005	9.9898e+01	-0.0003	30.326964	0.000770	7.702430	1.304827	-0.000154
1006	9.9998e+01	-0.0195	30.157404	0.000851	8.513212	1.442177	-0.000170
1007	1.0010e+02	-0.0388	30.020141	0.000689	6.891648	1.167477	-0.000138
1008	1.0020e+02	-0.0587	29.866730	0.000770	7.702430	1.304827	-0.000154
1009	1.0030e+02	-0.0793	29.685059	0.000912	9.121299	1.545190	-0.000183
1010	1.0040e+02	-0.0981	29.535685	0.000750	7.499735	1.270489	-0.000150
1011	1.0050e+02	-0.1188	29.345940	0.000953	9.526690	1.613865	-0.000191
1012	1.0059e+02	-0.1386	29.192529	0.000770	7.702430	1.304827	-0.000154
1013	1.0069e+02	-0.1587	29.063340	0.000649	6.486257	1.098802	-0.000130
1014	1.0079e+02	-0.1786	28.873595	0.000953	9.526690	1.613865	-0.000191
1015	1.0089e+02	-0.1974	28.708072	0.000831	8.310517	1.407840	-0.000166
1016	1.0099e+02	-0.2185	28.558698	0.000750	7.499735	1.270489	-0.000150
1017	1.0109e+02	-0.2393	28.405287	0.000770	7.702430	1.304827	-0.000154
1018	1.0119e+02	-0.2585	28.235727	0.000851	8.513212	1.442177	-0.000170
1019	1.0129e+02	-0.2778	28.074242	0.000811	8.107821	1.373502	-0.000162
1020	1.0139e+02	-0.2981	27.912756	0.000811	8.107821	1.373502	-0.000162
1021	1.0149e+02	-0.3185	27.751271	0.000811	8.107821	1.373502	-0.000162
1022	1.0159e+02	-0.3379	27.601897	0.000750	7.499735	1.270489	-0.000150
1023	1.0169e+02	-0.3578	27.424263	0.000892	8.918603	1.510852	-0.000179
1024	1.0179e+02	-0.3778	27.274889	0.000750	7.499735	1.270489	-0.000150
1025	1.0189e+02	-0.3972	27.109366	0.000831	8.310517	1.407840	-0.000166
1026	1.0199e+02	-0.4182	26.992290	0.000588	5.878170	0.995789	-0.000118
1027	1.0209e+02	-0.4375	26.758136	0.001176	11.756341	1.991578	-0.000235
1028	1.0219e+02	-0.4580	26.649133	0.000547	5.472779	0.927114	-0.000110
1029	1.0229e+02	-0.4778	26.491685	0.000791	7.905126	1.339165	-0.000158
1030	1.0239e+02	-0.4982	26.342311	0.000750	7.499735	1.270489	-0.000150
1031	1.0248e+02	-0.5171	26.156602	0.000932	9.323994	1.579527	-0.000187
1032	1.0258e+02	-0.5381	25.978968	0.000892	8.918603	1.510852	-0.000179
1033	1.0268e+02	-0.5567	25.849780	0.000649	6.486257	1.098802	-0.000130
1034	1.0278e+02	-0.5780	25.655998	0.000973	9.729385	1.648203	-0.000195
1035	1.0288e+02	-0.5960	25.490475	0.000831	8.310517	1.407840	-0.000166
1036	1.0298e+02	-0.6172	25.365324	0.000628	6.283561	1.064464	-0.000126
1037	1.0308e+02	-0.6369	25.167504	0.000993	9.932081	1.682540	-0.000199
1038	1.0318e+02	-0.6560	25.006019	0.000811	8.107821	1.373502	-0.000162
1039	1.0328e+02	-0.6755	24.848570	0.000791	7.905126	1.339165	-0.000158
1040	1.0338e+02	-0.6976	24.699196	0.000750	7.499735	1.270489	-0.000150
1041	1.0348e+02	-0.7173	24.529637	0.000851	8.513212	1.442177	-0.000170
1042	1.0358e+02	-0.7357	24.364114	0.000831	8.310517	1.407840	-0.000166
1043	1.0368e+02	-0.7573	24.150146	0.001074	10.742863	1.819890	-0.000215
1044	1.0378e+02	-0.7764	24.069403	0.000405	4.053911	0.686751	-0.000081
1045	1.0388e+02	-0.7961	23.847361	0.001115	11.148254	1.888565	-0.000223
1046	1.0398e+02	-0.8163	23.706061	0.000709	7.094344	1.201814	-0.000142
1047	1.0408e+02	-0.8358	23.508241	0.000993	9.932081	1.682540	-0.000199
1048	1.0418e+02	-0.8561	23.366942	0.000709	7.094344	1.201814	-0.000142
1049	1.0428e+02	-0.8756	23.205456	0.000811	8.107821	1.373502	-0.000162
1050	1.0438e+02	-0.8954	23.043971	0.000811	8.107821	1.373502	-0.000162
1051	1.0447e+02	-0.9161	22.830003	0.001074	10.742863	1.819890	-0.000215
1052	1.0457e+02	-0.9357	22.749260	0.000405	4.053911	0.686751	-0.000081
1053	1.0467e+02	-0.9552	22.571626	0.000892	8.918603	1.510852	-0.000179
1054	1.0477e+02	-0.9764	22.381881	0.000953	9.526690	1.613865	-0.000191
1055	1.0487e+02	-0.9952	22.192135	0.000953	9.526690	1.613865	-0.000191
1056	1.0497e+02	-1.0149	22.022575	0.000851	8.513212	1.442177	-0.000170
1057	1.0507e+02	-1.0362	21.873201	0.000750	7.499735	1.270489	-0.000150
1058	1.0517e+02	-1.0554	21.707679	0.000831	8.310517	1.407840	-0.000166
1059	1.0527e+02	-1.0753	21.558305	0.000750	7.499735	1.270489	-0.000150
1060	1.0537e+02	-1.0948	21.388745	0.000851	8.513212	1.442177	-0.000170
1061	1.0547e+02	-1.1155	21.203037	0.000932	9.323994	1.579527	-0.000187
1062	1.0557e+02	-1.1359	21.045589	0.000791	7.905126	1.339165	-0.000158
1063	1.0567e+02	-1.1557	20.884103	0.000811	8.107821	1.373502	-0.000162
1064	1.0577e+02	-1.1749	20.714543	0.000851	8.513212	1.442177	-0.000170
1065	1.0587e+02	-1.1943	20.536909	0.000892	8.918603	1.510852	-0.000179
1066	1.0597e+02	-1.2152	20.375424	0.000811	8.107821	1.373502	-0.000162
1067	1.0607e+02	-1.2346	20.226050	0.000750	7.499735	1.270489	-0.000150
1068	1.0617e+02	-1.2543	20.060527	0.000831	8.310517	1.407840	-0.000166
1069	1.0627e+02	-1.2743	19.882894	0.000892	8.918603	1.510852	-0.000179
1070	1.0637e+02	-1.2939	19.729482	0.000770	7.702430	1.304827	-0.000154
1071	1.0647e+02	-1.3141	19.547811	0.000912	9.121299	1.545190	-0.000183
1072	1.0656e+02	-1.3341	19.386326	0.000811	8.107821	1.373502	-0.000162
1073	1.0666e+02	-1.3547	19.200618	0.000932	9.323994	1.579527	-0.000187
1074	1.0676e+02	-1.3739	19.067392	0.000669	6.688952	1.133139	-0.000134
1075	1.0686e+02	-1.3936	18.909944	0.000791	7.905126	1.339165	-0.000158
1076	1.0696e+02	-1.4134	18.724236	0.000932	9.323994	1.579527	-0.000187
1077	1.0706e+02	-1.4336	18.562750	0.000811	8.107821	1.373502	-0.000162
1078	1.0716e+02	-1.4532	18.377042	0.000932	9.323994	1.579527	-0.000187
1079	1.0726e+02	-1.4732	18.251891	0.000628	6.283561	1.064464	-0.000126
1080	1.0736e+02	-1.4939	18.041960	0.001054	10.540168	1.785553	-0.000211
1081	1.0746e+02	-1.5134	17.864326	0.000892	8.918603	1.510852	-0.000179
1082	1.0756e+02	-1.5324	17.727063	0.000689	6.891648	1.167477	-0.000138
1083	1.0766e+02	-1.5529	17.573652	0.000770	7.702430	1.304827	-0.000154
1084	1.0776e+02	-1.5739	17.391981	0.000912	9.121299	1.545190	-0.000183
1085	1.0786e+02	-1.5926	17.242607	0.000750	7.499735	1.270489	-0.000150
1086	1.0796e+02	-1.6129	17.093233	0.000750	7.499735	1.270489	-0.000150
1087	1.0806e+02	-1.6327	16.915599	0.000892	8.918603	1.510852	-0.000179
1088	1.0816e+02	-1.6527	16.737965	0.000892	8.918603	1.510852	-0.000179
1089	1.0826e+02	-1.6734	16.584554	0.000770	7.702430	1.304827	-0.000154
1090	1.0836e+02	-1.6929	16.431142	0.000770	7.702430	1.304827	-0.000154
1091	1.0845e+02	-1.7133	16.265620	0.000831	8.310517	1.407840	-0.000166
1092	1.0855e+02	-1.7331	16.083949	0.000912	9.121299	1.545190	-0.000183
1093	1.0865e+02	-1.7532	15.878055	0.001034	10.337472	1.751215	-0.000207
1094	1.0875e+02	-1.7734	15.748867	0.000649	6.486257	1.098802	-0.000130
1095	1.0885e+02	-1.7923	15.567195	0.000912	9.121299	1.545190	-0.000183
1096	1.0895e+02	-1.8124	15.417821	0.000750	7.499735	1.270489	-0.000150
1097	1.0905e+02	-1.8321	15.256336	0.000811	8.107821	1.373502	-0.000162
1098	1.0915e+02	-1.8515	15.110999	0.000730	7.297039	1.236152	-0.000146
1099	1.0925e+02	-1.8716	14.921254	0.000953	9.526690	1.613865	-0.000191
1100	1.0935e+02	-1.8922	14.779954	0.000709	7.094344	1.201814	-0.000142
1101	1.0945e+02	-1.9119	14.630580	0.000750	7.499735	1.270489	-0.000150
1102	1.0955e+02	-1.9318	14.461020	0.000851	8.513212	1.442177	-0.000170
1103	1.0965e+02	-1.9517	14.271275	0.000953	9.526690	1.613865	-0.000191
1104	1.0975e+02	-1.9717	14.097678	0.000872	8.715908	1.476515	-0.000174
1105	1.0985e+02	-1.9916	13.948304	0.000750	7.499735	1.270489	-0.000150
1106	1.0995e+02	-2.0111	13.798930	0.000750	7.499735	1.270489	-0.000150
1107	1.1005e+02	-2.0318	13.609185	0.000953	9.526690	1.613865	-0.000191
1108	1.1015e+02	-2.0514	13.443662	0.000831	8.310517	1.407840	-0.000166
1109	1.1025e+02	-2.0712	13.282177	0.000811	8.107821	1.373502	-0.000162
1110	1.1035e+02	-2.0911	13.128765	0.000770	7.702430	1.304827	-0.000154
1111	1.1044e+02	-2.1114	12.930946	0.000993	9.932081	1.682540	-0.000199
1112	1.1054e+02	-2.1312	12.769460	0.000811	8.107821	1.373502	-0.000162
1113	1.1064e+02	-2.1506	12.595864	0.000872	8.715908	1.476515	-0.000174
1114	1.1074e+02	-2.1723	12.462638	0.000669	6.688952	1.133139	-0.000134
1115	1.1084e+02	-2.1911	12.293078	0.000851	8.513212	1.442177	-0.000170
1116	1.1094e+02	-2.2112	12.127556	0.000831	8.310517	1.407840	-0.000166
1117	1.1104e+02	-2.2302	11.941848	0.000932	9.323994	1.579527	-0.000187
1118	1.1114e+02	-2.2507	11.792473	0.000750	7.499735	1.270489	-0.000150
1119	1.1124e+02	-2.2699	11.618877	0.000872	8.715908	1.476515	-0.000174
1120	1.1134e+02	-2.2910	11.421057	0.000993	9.932081	1.682540	-0.000199
1121	1.1144e+02	-2.3089	11.308017	0.000568	5.675475	0.961451	-0.000114
1122	1.1154e+02	-2.3299	11.114235	0.000973	9.729385	1.648203	-0.000195
1123	1.1164e+02	-2.3499	10.968898	0.000730	7.297039	1.236152	-0.000146
1124	1.1174e+02	-2.3708	10.803375	0.000831	8.310517	1.407840	-0.000166
1125	1.1184e+02	-2.3912	10.613630	0.000953	9.526690	1.613865	-0.000191
1126	1.1194e+02	-2.4106	10.448107	0.000831	8.310517	1.407840	-0.000166
1127	1.1204e+02	-2.4303	10.318919	0.000649	6.486257	1.098802	-0.000130
1128	1.1214e+02	-2.4508	10.185693	0.000669	6.688952	1.133139	-0.000134
1129	1.1224e+02	-2.4704	9.983837	0.001013	10.134776	1.716878	-0.000203
1130	1.1234e+02	-2.4904	9.818314	0.000831	8.310517	1.407840	-0.000166
1131	1.1244e+02	-2.5103	9.652792	0.000831	8.310517	1.407840	-0.000166
1132	1.1253e+02	-2.5278	9.507455	0.000730	7.297039	1.236152	-0.000146
1133	1.1263e+02	-2.5488	9.341932	0.000831	8.310517	1.407840	-0.000166
1134	1.1273e+02	-2.5690	9.196595	0.000730	7.297039	1.236152	-0.000146
1135	1.1283e+02	-2.5887	9.067407	0.000649	6.486257	1.098802	-0.000130
1136	1.1293e+02	-2.6088	8.877661	0.000953	9.526690	1.613865	-0.000191
1137	1.1303e+02	-2.6286	8.716176	0.000811	8.107821	1.373502	-0.000162
1138	1.1313e+02	-2.6482	8.550653	0.000831	8.310517	1.407840	-0.000166
1139	1.1323e+02	-2.6682	8.405317	0.000730	7.297039	1.236152	-0.000146
1140	1.1333e+02	-2.6886	8.195386	0.001054	10.540168	1.785553	-0.000211
1141	1.1343e+02	-2.7086	8.106569	0.000446	4.459302	0.755426	-0.000089
1142	1.1353e+02	-2.7280	7.896638	0.001054	10.540168	1.785553	-0.000211
1143	1.1363e+02	-2.7487	7.755338	0.000709	7.094344	1.201814	-0.000142
1144	1.1373e+02	-2.7694	7.622112	0.000669	6.688952	1.133139	-0.000134
1145	1.1383e+02	-2.7884	7.448515	0.000872	8.715908	1.476515	-0.000174
1146	1.1393e+02	-2.8082	7.270881	0.000892	8.918603	1.510852	-0.000179
1147	1.1403e+02	-2.8279	7.105359	0.000831	8.310517	1.407840	-0.000166
1148	1.1413e+02	-2.8486	6.964059	0.000709	7.094344	1.201814	-0.000142
1149	1.1423e+02	-2.8681	6.802574	0.000811	8.107821	1.373502	-0.000162
1150	1.1433e+02	-2.8876	6.616865	0.000932	9.323994	1.579527	-0.000187
1151	1.1442e+02	-2.9078	6.463454	0.000770	7.702430	1.304827	-0.000154
1152	1.1452e+02	-2.9274	6.318117	0.000730	7.297039	1.236152	-0.000146
1153	1.1462e+02	-2.9473	6.168743	0.000750	7.499735	1.270489	-0.000150
1154	1.1472e+02	-2.9675	5.962849	0.001034	10.337472	1.751215	-0.000207
1155	1.1482e+02	-2.9874	5.861921	0.000507	5.067388	0.858439	-0.000101
1156	1.1492e+02	-3.0083	5.672176	0.000953	9.526690	1.613865	-0.000191
1157	1.1502e+02	-3.0280	5.530876	0.000709	7.094344	1.201814	-0.000142
1158	1.1512e+02	-3.0478	5.333056	0.000993	9.932081	1.682540	-0.000199
1159	1.1522e+02	-3.0694	5.183682	0.000750	7.499735	1.270489	-0.000150
1160	1.1532e+02	-3.0873	5.006048	0.000892	8.918603	1.510852	-0.000179
1161	1.1542e+02	-3.1068	4.868786	0.000689	6.891648	1.167477	-0.000138
1162	1.1552e+02	-3.1268	4.711337	0.000791	7.905126	1.339165	-0.000158
1163	1.1562e+02	-3.1466	4.561963	0.000750	7.499735	1.270489	-0.000150
1164	1.1572e+02	-3.1667	4.380292	0.000912	9.121299	1.545190	-0.000183
1165	1.1582e+02	-3.1855	4.234955	0.000730	7.297039	1.236152	-0.000146
1166	1.1592e+02	-3.2068	4.069433	0.000831	8.310517	1.407840	-0.000166
1167	1.1602e+02	-3.2259	3.895836	0.000872	8.715908	1.476515	-0.000174
1168	1.1612e+02	-3.2471	3.726276	0.000851	8.513212	1.442177	-0.000170
1169	1.1622e+02	-3.2667	3.605162	0.000608	6.080866	1.030127	-0.000122
1170	1.1632e+02	-3.2861	3.475974	0.000649	6.486257	1.098802	-0.000130
1171	1.1642e+02	-3.3077	3.249894	0.001135	11.350950	1.922903	-0.000227
1172	1.1651e+02	-3.3263	3.080335	0.000851	8.513212	1.442177	-0.000170
1173	1.1661e+02	-3.3466	2.926923	0.000770	7.702430	1.304827	-0.000154
1174	1.1671e+02	-3.3670	2.793698	0.000669	6.688952	1.133139	-0.000134
1175	1.1681e+02	-3.3868	2.607990	0.000932	9.323994	1.579527	-0.000187
1176	1.1691e+02	-3.4063	2.458616	0.000750	7.499735	1.270489	-0.000150
1177	1.1701e+02	-3.4257	2.305205	0.000770	7.702430	1.304827	-0.000154
1178	1.1711e+02	-3.4460	2.123533	0.000912	9.121299	1.545190	-0.000183
1179	1.1721e+02	-3.4650	2.010494	0.000568	5.675475	0.961451	-0.000114
1180	1.1731e+02	-3.4859	1.800563	0.001054	10.540168	1.785553	-0.000211
1181	1.1741e+02	-3.5060	1.699634	0.000507	5.067388	0.858439	-0.000101
1182	1.1751e+02	-3.5256	1.534112	0.000831	8.310517	1.407840	-0.000166
1183	1.1761e+02	-3.5451	1.340329	0.000973	9.729385	1.648203	-0.000195
1184	1.1771e+02	-3.5651	1.178844	0.000811	8.107821	1.373502	-0.000162
1185	1.1781e+02	-3.5851	1.009284	0.000851	8.513212	1.442177	-0.000170
1186	1.1791e+02	-3.6052	0.839724	0.000851	8.513212	1.442177	-0.000170
1187	1.1801e+02	-3.6253	0.662090	0.000892	8.918603	1.510852	-0.000179
1188	1.1811e+02	-3.6448	0.557125	0.000527	5.270084	0.892776	-0.000105
1189	1.1821e+02	-3.6655	0.339119	0.001095	10.945559	1.854228	-0.000219
1190	1.1831e+02	-3.6851	0.254340	0.000426	4.256606	0.721089	-0.000085
1191	1.1841e+02	-3.7051	0.064594	0.000953	9.526690	1.613865	-0.000191
1192	1.1850e+02	-3.7255	-0.096891	0.000811	8.107821	1.373502	-0.000162
1193	1.1860e+02	-3.7447	-0.250302	0.000770	7.702430	1.304827	-0.000154
1194	1.1870e+02	-3.7645	-0.383528	0.000669	6.688952	1.133139	-0.000134
1195	1.1880e+02	-3.7846	-0.569236	0.000932	9.323994	1.579527	-0.000187
1196	1.1890e+02	-3.8038	-0.718610	0.000750	7.499735	1.270489	-0.000150
1197	1.1900e+02	-3.8242	-0.880096	0.000811	8.107821	1.373502	-0.000162
1198	1.1910e+02	-3.8438	-1.057730	0.000892	8.918603	1.510852	-0.000179
1199	1.1920e+02	-3.8635	-1.170769	0.000568	5.675475	0.961451	-0.000114
1200	1.1930e+02	-3.8826	-1.364552	0.000973	9.729385	1.648203	-0.000195
1201	1.1940e+02	-3.9037	-1.526037	0.000811	8.107821	1.373502	-0.000162
1202	1.1950e+02	-3.9241	-1.679448	0.000770	7.702430	1.304827	-0.000154
1203	1.1960e+02	-3.9437	-1.832860	0.000770	7.702430	1.304827	-0.000154
1204	1.1970e+02	-3.9637	-1.970122	0.000689	6.891648	1.167477	-0.000138
1205	1.1980e+02	-3.9842	-2.159868	0.000953	9.526690	1.613865	-0.000191
1206	1.1990e+02	-4.0041	-2.293093	0.000669	6.688952	1.133139	-0.000134
1207	1.2000e+02	-4.0234	-2.442467	0.000750	7.499735	1.270489	-0.000150
1208	1.2010e+02	-4.0430	-2.632213	0.000953	9.526690	1.613865	-0.000191
1209	1.2020e+02	-4.0634	-2.781587	0.000750	7.499735	1.270489	-0.000150
1210	1.2030e+02	-4.0839	-2.939035	0.000791	7.905126	1.339165	-0.000158
1211	1.2039e+02	-4.1030	-3.128780	0.000953	9.526690	1.613865	-0.000191
1212	1.2049e+02	-4.1232	-3.270080	0.000709	7.094344	1.201814	-0.000142
1213	1.2059e+02	-4.1438	-3.423491	0.000770	7.702430	1.304827	-0.000154
1214	1.2069e+02	-4.1631	-3.560754	0.000689	6.891648	1.167477	-0.000138
1215	1.2079e+02	-4.1824	-3.774722	0.001074	10.742863	1.819890	-0.000215
1216	1.2089e+02	-4.2027	-3.903910	0.000649	6.486257	1.098802	-0.000130
1217	1.2099e+02	-4.2220	-4.073470	0.000851	8.513212	1.442177	-0.000170
1218	1.2109e+02	-4.2419	-4.234955	0.000811	8.107821	1.373502	-0.000162
1219	1.2119e+02	-4.2635	-4.372218	0.000689	6.891648	1.167477	-0.000138
1220	1.2129e+02	-4.2827	-4.549852	0.000892	8.918603	1.510852	-0.000179
1221	1.2139e+02	-4.3021	-4.711337	0.000811	8.107821	1.373502	-0.000162
1222	1.2149e+02	-4.3222	-4.893009	0.000912	9.121299	1.545190	-0.000183
1223	1.2159e+02	-4.3417	-5.042383	0.000750	7.499735	1.270489	-0.000150
1224	1.2169e+02	-4.3622	-5.211942	0.000851	8.513212	1.442177	-0.000170
1225	1.2179e+02	-4.3827	-5.345168	0.000669	6.688952	1.133139	-0.000134
1226	1.2189e+02	-4.4015	-5.551062	0.001034	10.337472	1.751215	-0.000207
1227	1.2199e+02	-4.4226	-5.688324	0.000689	6.891648	1.167477	-0.000138
1228	1.2209e+02	-4.4424	-5.906330	0.001095	10.945559	1.854228	-0.000219
1229	1.2219e+02	-4.4613	-6.055704	0.000750	7.499735	1.270489	-0.000150
1230	1.2229e+02	-4.4812	-6.180855	0.000628	6.283561	1.064464	-0.000126
1231	1.2239e+02	-4.5013	-6.342340	0.000811	8.107821	1.373502	-0.000162
1232	1.2248e+02	-4.5217	-6.511900	0.000851	8.513212	1.442177	-0.000170
1233	1.2258e+02	-4.5413	-6.701645	0.000953	9.526690	1.613865	-0.000191
1234	1.2268e+02	-4.5609	-6.822759	0.000608	6.080866	1.030127	-0.000122
1235	1.2278e+02	-4.5815	-7.040765	0.001095	10.945559	1.854228	-0.000219
1236	1.2288e+02	-4.6007	-7.129582	0.000446	4.459302	0.755426	-0.000089
1237	1.2298e+02	-4.6214	-7.319327	0.000953	9.526690	1.613865	-0.000191
1238	1.2308e+02	-4.6415	-7.553481	0.001176	11.756341	1.991578	-0.000235
1239	1.2318e+02	-4.6615	-7.630187	0.000385	3.851215	0.652413	-0.000077
1240	1.2328e+02	-4.6815	-7.832043	0.001013	10.134776	1.716878	-0.000203
1241	1.2338e+02	-4.7009	-7.961232	0.000649	6.486257	1.098802	-0.000130
1242	1.2348e+02	-4.7203	-8.155014	0.000973	9.729385	1.648203	-0.000195
1243	1.2358e+02	-4.7411	-8.324574	0.000851	8.513212	1.442177	-0.000170
1244	1.2368e+02	-4.7610	-8.486059	0.000811	8.107821	1.373502	-0.000162
1245	1.2378e+02	-4.7807	-8.631396	0.000730	7.297039	1.236152	-0.000146
1246	1.2388e+02	-4.8013	-8.780770	0.000750	7.499735	1.270489	-0.000150
1247	1.2398e+02	-4.8212	-8.946293	0.000831	8.310517	1.407840	-0.000166
1248	1.2408e+02	-4.8405	-9.111815	0.000831	8.310517	1.407840	-0.000166
1249	1.2418e+02	-4.8584	-9.309635	0.000993	9.932081	1.682540	-0.000199
1250	1.2428e+02	-4.8805	-9.459009	0.000750	7.499735	1.270489	-0.000150
1251	1.2438e+02	-4.9005	-9.616457	0.000791	7.905126	1.339165	-0.000158
1252	1.2447e+02	-4.9189	-9.806203	0.000953	9.526690	1.613865	-0.000191
1253	1.2457e+02	-4.9398	-9.975762	0.000851	8.513212	1.442177	-0.000170
1254	1.2467e+02	-4.9602	-10.100914	0.000628	6.283561	1.064464	-0.000126
1255	1.2477e+02	-4.9795	-10.298733	0.000993	9.932081	1.682540	-0.000199
1256	1.2487e+02	-5.0005	-10.452144	0.000770	7.702430	1.304827	-0.000154
1257	1.2497e+02	-5.0201	-10.625741	0.000872	8.715908	1.476515	-0.000174
1258	1.2507e+02	-5.0397	-10.807412	0.000912	9.121299	1.545190	-0.000183
1259	1.2517e+02	-5.0603	-10.976972	0.000851	8.513212	1.442177	-0.000170
1260	1.2527e+02	-5.0790	-11.110198	0.000669	6.688952	1.133139	-0.000134
1261	1.2537e+02	-5.0992	-11.312054	0.001013	10.134776	1.716878	-0.000203
1262	1.2547e+02	-5.1192	-11.469503	0.000791	7.905126	1.339165	-0.000158
1263	1.2557e+02	-5.1390	-11.606765	0.000689	6.891648	1.167477	-0.000138
1264	1.2567e+02	-5.1583	-11.788436	0.000912	9.121299	1.545190	-0.000183
1265	1.2577e+02	-5.1782	-11.978182	0.000953	9.526690	1.613865	-0.000191
1266	1.2587e+02	-5.1999	-12.135630	0.000791	7.905126	1.339165	-0.000158
1267	1.2597e+02	-5.2185	-12.309227	0.000872	8.715908	1.476515	-0.000174
1268	1.2607e+02	-5.2395	-12.462638	0.000770	7.702430	1.304827	-0.000154
1269	1.2617e+02	-5.2588	-12.684680	0.001115	11.148254	1.888565	-0.000223
1270	1.2627e+02	-5.2779	-12.858277	0.000872	8.715908	1.476515	-0.000174
1271	1.2636e+02	-5.2987	-12.987466	0.000649	6.486257	1.098802	-0.000130
1272	1.2646e+02	-5.3185	-13.157025	0.000851	8.513212	1.442177	-0.000170
1273	1.2656e+02	-5.3374	-13.362919	0.001034	10.337472	1.751215	-0.000207
1274	1.2666e+02	-5.3584	-13.504219	0.000709	7.094344	1.201814	-0.000142
1275	1.2676e+02	-5.3790	-13.677816	0.000872	8.715908	1.476515	-0.000174
1276	1.2686e+02	-5.3983	-13.855450	0.000892	8.918603	1.510852	-0.000179
1277	1.2696e+02	-5.4183	-14.037121	0.000912	9.121299	1.545190	-0.000183
1278	1.2706e+02	-5.4381	-14.214755	0.000892	8.918603	1.510852	-0.000179
1279	1.2716e+02	-5.4576	-14.384315	0.000851	8.513212	1.442177	-0.000170
1280	1.2726e+02	-5.4779	-14.590209	0.001034	10.337472	1.751215	-0.000207
1281	1.2736e+02	-5.4976	-14.743620	0.000770	7.702430	1.304827	-0.000154
1282	1.2746e+02	-5.5173	-14.917217	0.000872	8.715908	1.476515	-0.000174
1283	1.2756e+02	-5.5383	-15.127148	0.001054	10.540168	1.785553	-0.000211
1284	1.2766e+02	-5.5580	-15.268447	0.000709	7.094344	1.201814	-0.000142
1285	1.2776e+02	-5.5777	-15.438007	0.000851	8.513212	1.442177	-0.000170
1286	1.2786e+02	-5.5977	-15.656012	0.001095	10.945559	1.854228	-0.000219
1287	1.2796e+02	-5.6171	-15.829609	0.000872	8.715908	1.476515	-0.000174
1288	1.2806e+02	-5.6372	-16.015317	0.000932	9.323994	1.579527	-0.000187
1289	1.2816e+02	-5.6563	-16.201026	0.000932	9.323994	1.579527	-0.000187
1290	1.2826e+02	-5.6782	-16.374623	0.000872	8.715908	1.476515	-0.000174
1291	1.2835e+02	-5.6976	-16.564368	0.000953	9.526690	1.613865	-0.000191
1292	1.2845e+02	-5.7180	-16.742002	0.000892	8.918603	1.510852	-0.000179
1293	1.2855e+02	-5.7372	-16.943859	0.001013	10.134776	1.716878	-0.000203
1294	1.2865e+02	-5.7558	-17.097270	0.000770	7.702430	1.304827	-0.000154
1295	1.2875e+02	-5.7764	-17.274904	0.000892	8.918603	1.510852	-0.000179
1296	1.2885e+02	-5.7964	-17.521169	0.001236	12.364427	2.094591	-0.000248
1297	1.2895e+02	-5.8173	-17.646320	0.000628	6.283561	1.064464	-0.000126
1298	1.2905e+02	-5.8366	-17.836066	0.000953	9.526690	1.613865	-0.000191
1299	1.2915e+02	-5.8566	-18.005625	0.000851	8.513212	1.442177	-0.000170
1300	1.2925e+02	-5.8759	-18.207482	0.001013	10.134776	1.716878	-0.000203
1301	1.2935e+02	-5.8960	-18.401265	0.000973	9.729385	1.648203	-0.000195
1302	1.2945e+02	-5.9164	-18.554676	0.000770	7.702430	1.304827	-0.000154
1303	1.2955e+02	-5.9364	-18.788830	0.001176	11.756341	1.991578	-0.000235
1304	1.2965e+02	-5.9560	-18.942241	0.000770	7.702430	1.304827	-0.000154
1305	1.2975e+02	-5.9760	-19.184469	0.001216	12.161732	2.060253	-0.000243
1306	1.2985e+02	-5.9964	-19.354029	0.000851	8.513212	1.442177	-0.000170
1307	1.2995e+02	-6.0155	-19.499366	0.000730	7.297039	1.236152	-0.000146
1308	1.3005e+02	-6.0365	-19.689111	0.000953	9.526690	1.613865	-0.000191
1309	1.3015e+02	-6.0561	-19.903079	0.001074	10.742863	1.819890	-0.000215
1310	1.3025e+02	-6.0752	-20.076676	0.000872	8.715908	1.476515	-0.000174
1311	1.3034e+02	-6.0963	-20.274496	0.000993	9.932081	1.682540	-0.000199
1312	1.3044e+02	-6.1152	-20.496538	0.001115	11.148254	1.888565	-0.000223
1313	1.3054e+02	-6.1339	-20.718581	0.001115	11.148254	1.888565	-0.000223
1314	1.3064e+02	-6.1553	-20.888140	0.000851	8.513212	1.442177	-0.000170
1315	1.3074e+02	-6.1752	-21.081923	0.000973	9.729385	1.648203	-0.000195
1316	1.3084e+02	-6.1948	-21.263594	0.000912	9.121299	1.545190	-0.000183
1317	1.3094e+02	-6.2158	-21.457376	0.000973	9.729385	1.648203	-0.000195
1318	1.3104e+02	-6.2350	-21.671345	0.001074	10.742863	1.819890	-0.000215
1319	1.3114e+02	-6.2549	-21.877239	0.001034	10.337472	1.751215	-0.000207
1320	1.3124e+02	-6.2747	-22.022575	0.000730	7.297039	1.236152	-0.000146
1321	1.3134e+02	-6.2956	-22.252692	0.001155	11.553645	1.957240	-0.000231
1322	1.3144e+02	-6.3155	-22.458586	0.001034	10.337472	1.751215	-0.000207
1323	1.3154e+02	-6.3345	-22.668517	0.001054	10.540168	1.785553	-0.000211
1324	1.3164e+02	-6.3546	-22.862300	0.000973	9.729385	1.648203	-0.000195
1325	1.3174e+02	-6.3738	-22.987451	0.000628	6.283561	1.064464	-0.000126
1326	1.3184e+02	-6.3937	-23.282162	0.001480	14.796774	2.506641	-0.000296
1327	1.3194e+02	-6.4139	-23.479981	0.000993	9.932081	1.682540	-0.000199
1328	1.3204e+02	-6.4346	-23.706061	0.001135	11.350950	1.922903	-0.000227
1329	1.3214e+02	-6.4536	-23.911955	0.001034	10.337472	1.751215	-0.000207
1330	1.3224e+02	-6.4742	-24.105737	0.000973	9.729385	1.648203	-0.000195
1331	1.3234e+02	-6.4941	-24.319706	0.001074	10.742863	1.819890	-0.000215
1332	1.3243e+02	-6.5147	-24.517525	0.000993	9.932081	1.682540	-0.000199
1333	1.3253e+02	-6.5330	-24.719382	0.001013	10.134776	1.716878	-0.000203
1334	1.3263e+02	-6.5533	-24.949499	0.001155	11.553645	1.957240	-0.000231
1335	1.3273e+02	-6.5736	-25.179616	0.001155	11.553645	1.957240	-0.000231
1336	1.3283e+02	-6.5939	-25.365324	0.000932	9.323994	1.579527	-0.000187
1337	1.3293e+02	-6.6132	-25.571218	0.001034	10.337472	1.751215	-0.000207
1338	1.3303e+02	-6.6333	-25.773075	0.001013	10.134776	1.716878	-0.000203
1339	1.3313e+02	-6.6537	-26.019340	0.001236	12.364427	2.094591	-0.000248
1340	1.3323e+02	-6.6733	-26.269642	0.001257	12.567123	2.128928	-0.000252
1341	1.3333e+02	-6.6940	-26.483610	0.001074	10.742863	1.819890	-0.000215
1342	1.3343e+02	-6.7136	-26.677393	0.000973	9.729385	1.648203	-0.000195
1343	1.3353e+02	-6.7331	-26.875213	0.000993	9.932081	1.682540	-0.000199
1344	1.3363e+02	-6.7527	-27.125515	0.001257	12.567123	2.128928	-0.000252
1345	1.3373e+02	-6.7717	-27.359669	0.001176	11.756341	1.991578	-0.000235
1346	1.3383e+02	-6.7923	-27.549414	0.000953	9.526690	1.613865	-0.000191
1347	1.3393e+02	-6.8127	-27.779531	0.001155	11.553645	1.957240	-0.000231
1348	1.3403e+02	-6.8333	-28.009648	0.001155	11.553645	1.957240	-0.000231
1349	1.3413e+02	-6.8533	-28.211505	0.001013	10.134776	1.716878	-0.000203
1350	1.3423e+02	-6.8721	-28.494104	0.001419	14.188687	2.403629	-0.000284
1351	1.3432e+02	-6.8921	-28.728258	0.001176	11.756341	1.991578	-0.000235
1352	1.3442e+02	-6.9127	-28.938189	0.001054	10.540168	1.785553	-0.000211
1353	1.3452e+02	-6.9331	-29.164269	0.001135	11.350950	1.922903	-0.000227
1354	1.3462e+02	-6.9522	-29.410534	0.001236	12.364427	2.094591	-0.000248
1355	1.3472e+02	-6.9713	-29.612391	0.001013	10.134776	1.716878	-0.000203
1356	1.3482e+02	-6.9925	-29.826359	0.001074	10.742863	1.819890	-0.000215
1357	1.3492e+02	-7.0123	-30.104921	0.001399	13.985992	2.369291	-0.000280
1358	1.3502e+02	-7.0322	-30.326964	0.001115	11.148254	1.888565	-0.000223
1359	1.3512e+02	-7.0517	-30.557080	0.001155	11.553645	1.957240	-0.000231
1360	1.3522e+02	-7.0729	-30.803346	0.001236	12.364427	2.094591	-0.000248
1361	1.3532e+02	-7.0908	-31.041537	0.001196	11.959036	2.025916	-0.000239
1362	1.3542e+02	-7.1118	-31.267616	0.001135	11.350950	1.922903	-0.000227
1363	1.3552e+02	-7.1313	-31.501770	0.001176	11.756341	1.991578	-0.000235
1364	1.3562e+02	-7.1515	-31.748035	0.001236	12.364427	2.094591	-0.000248
1365	1.3572e+02	-7.1713	-31.998338	0.001257	12.567123	2.128928	-0.000252
1366	1.3582e+02	-7.1912	-32.264789	0.001338	13.377905	2.266278	-0.000268
1367	1.3592e+02	-7.2114	-32.474720	0.001054	10.540168	1.785553	-0.000211
1368	1.3602e+02	-7.2301	-32.729059	0.001277	12.769818	2.163266	-0.000256
1369	1.3612e+02	-7.2506	-32.979362	0.001257	12.567123	2.128928	-0.000252
1370	1.3622e+02	-7.2705	-33.225627	0.001236	12.364427	2.094591	-0.000248
1371	1.3631e+02	-7.2917	-33.475930	0.001257	12.567123	2.128928	-0.000252
1372	1.3641e+02	-7.3105	-33.706046	0.001155	11.553645	1.957240	-0.000231
1373	1.3651e+02	-7.3314	-33.980572	0.001378	13.783296	2.334954	-0.000276
1374	1.3661e+02	-7.3510	-34.238948	0.001297	12.972514	2.197603	-0.000260
1375	1.3671e+02	-7.3708	-34.505399	0.001338	13.377905	2.266278	-0.000268
1376	1.3681e+02	-7.3903	-34.739553	0.001176	11.756341	1.991578	-0.000235
1377	1.3691e+02	-7.4097	-34.993893	0.001277	12.769818	2.163266	-0.000256
1378	1.3701e+02	-7.4301	-35.248232	0.001277	12.769818	2.163266	-0.000256
1379	1.3711e+02	-7.4506	-35.518720	0.001358	13.580600	2.300616	-0.000272
1380	1.3721e+02	-7.4699	-35.817468	0.001500	14.999469	2.540979	-0.000300
1381	1.3731e+02	-7.4905	-36.043548	0.001135	11.350950	1.922903	-0.000227
1382	1.3741e+02	-7.5113	-36.322110	0.001399	13.985992	2.369291	-0.000280
1383	1.3751e+02	-7.5305	-36.560301	0.001196	11.959036	2.025916	-0.000239
1384	1.3761e+02	-7.5493	-36.814641	0.001277	12.769818	2.163266	-0.000256
1385	1.3771e+02	-7.5697	-37.101277	0.001439	14.391383	2.437966	-0.000288
1386	1.3781e+02	-7.5888	-37.375803	0.001378	13.783296	2.334954	-0.000276
1387	1.3791e+02	-7.6093	-37.622068	0.001236	12.364427	2.094591	-0.000248
1388	1.3801e+02	-7.6300	-37.896593	0.001378	13.783296	2.334954	-0.000276
1389	1.3811e+02	-7.6494	-38.199378	0.001520	15.202165	2.575316	-0.000304
1390	1.3821e+02	-7.6694	-38.473904	0.001378	13.783296	2.334954	-0.000276
1391	1.3831e+02	-7.6878	-38.796874	0.001622	16.215642	2.747004	-0.000325
1392	1.3840e+02	-7.7087	-39.055251	0.001297	12.972514	2.197603	-0.000260
1393	1.3850e+02	-7.7292	-39.321702	0.001338	13.377905	2.266278	-0.000268
1394	1.3860e+02	-7.7478	-39.612376	0.001459	14.594078	2.472304	-0.000292
1395	1.3870e+02	-7.7680	-39.899012	0.001439	14.391383	2.437966	-0.000288
1396	1.3880e+02	-7.7884	-40.145278	0.001236	12.364427	2.094591	-0.000248
1397	1.3890e+02	-7.8085	-40.456137	0.001561	15.607556	2.643992	-0.000312
1398	1.3900e+02	-7.8285	-40.771034	0.001581	15.810251	2.678329	-0.000316
1399	1.3910e+02	-7.8475	-41.057670	0.001439	14.391383	2.437966	-0.000288
1400	1.3920e+02	-7.8690	-41.340270	0.001419	14.188687	2.403629	-0.000284
1401	1.3930e+02	-7.8877	-41.606721	0.001338	13.377905	2.266278	-0.000268
1402	1.3940e+02	-7.9088	-41.909506	0.001520	15.202165	2.575316	-0.000304
1403	1.3950e+02	-7.9282	-42.228440	0.001601	16.012947	2.712667	-0.000321
1404	1.3960e+02	-7.9487	-42.466631	0.001196	11.959036	2.025916	-0.000239
1405	1.3970e+02	-7.9677	-42.773453	0.001540	15.404860	2.609654	-0.000308
1406	1.3980e+02	-7.9874	-43.080275	0.001540	15.404860	2.609654	-0.000308
1407	1.3990e+02	-8.0074	-43.395172	0.001581	15.810251	2.678329	-0.000316
1408	1.4000e+02	-8.0266	-43.673734	0.001399	13.985992	2.369291	-0.000280
1409	1.4010e+02	-8.0477	-44.008817	0.001682	16.823729	2.850017	-0.000337
1410	1.4020e+02	-8.0675	-44.287379	0.001399	13.985992	2.369291	-0.000280
1411	1.4029e+02	-8.0867	-44.590164	0.001520	15.202165	2.575316	-0.000304
1412	1.4039e+02	-8.1085	-44.925246	0.001682	16.823729	2.850017	-0.000337
1413	1.4049e+02	-8.1264	-45.199772	0.001378	13.783296	2.334954	-0.000276
1414	1.4059e+02	-8.1470	-45.498520	0.001500	14.999469	2.540979	-0.000300
1415	1.4069e+02	-8.1671	-45.853788	0.001784	17.837207	3.021705	-0.000357
1416	1.4079e+02	-8.1868	-46.116202	0.001318	13.175209	2.231941	-0.000264
1417	1.4089e+02	-8.2067	-46.471469	0.001784	17.837207	3.021705	-0.000357
1418	1.4099e+02	-8.2274	-46.737920	0.001338	13.377905	2.266278	-0.000268
1419	1.4109e+02	-8.2477	-47.068966	0.001662	16.621033	2.815679	-0.000333
1420	1.4119e+02	-8.2663	-47.420196	0.001763	17.634511	2.987367	-0.000353
1421	1.4129e+02	-8.2860	-47.714907	0.001480	14.796774	2.506641	-0.000296
1422	1.4139e+02	-8.3062	-48.074212	0.001804	18.039902	3.056042	-0.000361
1423	1.4149e+02	-8.3255	-48.393146	0.001601	16.012947	2.712667	-0.000321
1424	1.4159e+02	-8.3466	-48.740340	0.001743	17.431816	2.953029	-0.000349
1425	1.4169e+02	-8.3667	-49.002754	0.001318	13.175209	2.231941	-0.000264
1426	1.4179e+02	-8.3862	-49.349947	0.001743	17.431816	2.953029	-0.000349
1427	1.4189e+02	-8.4058	-49.709252	0.001804	18.039902	3.056042	-0.000361
1428	1.4199e+02	-8.4264	-50.032223	0.001622	16.215642	2.747004	-0.000325
1429	1.4209e+02	-8.4448	-50.375380	0.001723	17.229120	2.918692	-0.000345
1430	1.4219e+02	-8.4651	-50.694313	0.001601	16.012947	2.712667	-0.000321
1431	1.4228e+02	-8.4863	-51.041507	0.001743	17.431816	2.953029	-0.000349
1432	1.4238e+02	-8.5056	-51.376589	0.001682	16.823729	2.850017	-0.000337
1433	1.4248e+02	-8.5265	-51.760117	0.001926	19.256075	3.262067	-0.000385
1434	1.4258e+02	-8.5446	-52.107311	0.001743	17.431816	2.953029	-0.000349
1435	1.4268e+02	-8.5657	-52.418170	0.001561	15.607556	2.643992	-0.000312
1436	1.4278e+02	-8.5858	-52.729030	0.001561	15.607556	2.643992	-0.000312
1437	1.4288e+02	-8.6053	-53.092372	0.001824	18.242598	3.090380	-0.000365
1438	1.4298e+02	-8.6251	-53.427454	0.001682	16.823729	2.850017	-0.000337
1439	1.4308e+02	-8.6447	-53.774648	0.001743	17.431816	2.953029	-0.000349
1440	1.4318e+02	-8.6659	-54.154139	0.001905	19.053380	3.227730	-0.000381
1441	1.4328e+02	-8.6845	-54.509407	0.001784	17.837207	3.021705	-0.000357
1442	1.4338e+02	-8.7048	-54.884860	0.001885	18.850684	3.193392	-0.000377
1443	1.4348e+02	-8.7241	-55.256277	0.001865	18.647989	3.159055	-0.000373
1444	1.4358e+02	-8.7446	-55.587322	0.001662	16.621033	2.815679	-0.000333
1445	1.4368e+02	-8.7642	-55.958738	0.001865	18.647989	3.159055	-0.000373
1446	1.4378e+02	-8.7845	-56.334192	0.001885	18.850684	3.193392	-0.000377
1447	1.4388e+02	-8.8042	-56.673311	0.001703	17.026424	2.884354	-0.000341
1448	1.4398e+02	-8.8243	-57.093174	0.002108	21.080335	3.571105	-0.000422
1449	1.4408e+02	-8.8441	-57.525147	0.002169	21.688422	3.674118	-0.000434
1450	1.4418e+02	-8.8638	-57.848118	0.001622	16.215642	2.747004	-0.000325
1451	1.4428e+02	-8.8852	-58.227609	0.001905	19.053380	3.227730	-0.000381
1452	1.4437e+02	-8.9039	-58.611137	0.001926	19.256075	3.262067	-0.000385
1453	1.4447e+02	-8.9235	-58.982553	0.001865	18.647989	3.159055	-0.000373
1454	1.4457e+02	-8.9430	-59.418564	0.002189	21.891117	3.708456	-0.000438
1455	1.4467e+02	-8.9635	-59.773832	0.001784	17.837207	3.021705	-0.000357
1456	1.4477e+02	-8.9839	-60.157360	0.001926	19.256075	3.262067	-0.000385
1457	1.4487e+02	-9.0029	-60.548962	0.001966	19.661466	3.330743	-0.000394
1458	1.4497e+02	-9.0231	-60.944601	0.001986	19.864162	3.365080	-0.000398
1459	1.4507e+02	-9.0440	-61.332166	0.001946	19.458771	3.296405	-0.000390
1460	1.4517e+02	-9.0644	-61.739917	0.002047	20.472248	3.468093	-0.000410
1461	1.4527e+02	-9.0829	-62.123445	0.001926	19.256075	3.262067	-0.000385
1462	1.4537e+02	-9.1035	-62.511010	0.001946	19.458771	3.296405	-0.000390
1463	1.4547e+02	-9.1235	-62.930872	0.002108	21.080335	3.571105	-0.000422
1464	1.4557e+02	-9.1437	-63.350734	0.002108	21.080335	3.571105	-0.000422
1465	1.4567e+02	-9.1629	-63.746373	0.001986	19.864162	3.365080	-0.000398
1466	1.4577e+02	-9.1821	-64.178347	0.002169	21.688422	3.674118	-0.000434
1467	1.4587e+02	-9.2027	-64.578023	0.002007	20.066857	3.399418	-0.000402
1468	1.4597e+02	-9.2224	-64.973663	0.001986	19.864162	3.365080	-0.000398
1469	1.4607e+02	-9.2427	-65.425822	0.002270	22.701899	3.845806	-0.000454
1470	1.4617e+02	-9.2630	-65.829535	0.002027	20.269553	3.433755	-0.000406
1471	1.4626e+02	-9.2828	-66.229212	0.002007	20.066857	3.399418	-0.000402
1472	1.4636e+02	-9.3027	-66.681371	0.002270	22.701899	3.845806	-0.000454
1473	1.4646e+02	-9.3217	-67.040676	0.001804	18.039902	3.056042	-0.000361
1474	1.4656e+02	-9.3423	-67.508984	0.002351	23.512681	3.983156	-0.000471
1475	1.4666e+02	-9.3623	-67.957106	0.002250	22.499204	3.811468	-0.000450
1476	1.4676e+02	-9.3823	-68.364857	0.002047	20.472248	3.468093	-0.000410
1477	1.4686e+02	-9.4017	-68.804904	0.002209	22.093813	3.742793	-0.000442
1478	1.4696e+02	-9.4218	-69.236878	0.002169	21.688422	3.674118	-0.000434
1479	1.4706e+02	-9.4414	-69.713260	0.002392	23.918072	4.051831	-0.000479
1480	1.4716e+02	-9.4620	-70.145233	0.002169	21.688422	3.674118	-0.000434
1481	1.4726e+02	-9.4820	-70.621615	0.002392	23.918072	4.051831	-0.000479
1482	1.4736e+02	-9.5017	-71.077812	0.002290	22.904595	3.880143	-0.000458
1483	1.4746e+02	-9.5210	-71.505748	0.002149	21.485726	3.639781	-0.000430
1484	1.4756e+02	-9.5410	-71.990204	0.002432	24.323464	4.120506	-0.000487
1485	1.4766e+02	-9.5605	-72.458512	0.002351	23.512681	3.983156	-0.000471
1486	1.4776e+02	-9.5810	-72.890486	0.002169	21.688422	3.674118	-0.000434
1487	1.4786e+02	-9.6016	-73.354756	0.002331	23.309986	3.948819	-0.000467
1488	1.4796e+02	-9.6213	-73.843250	0.002453	24.526159	4.154844	-0.000491
1489	1.4806e+02	-9.6404	-74.275223	0.002169	21.688422	3.674118	-0.000434
1490	1.4816e+02	-9.6605	-74.791977	0.002595	25.945028	4.395207	-0.000519
1491	1.4825e+02	-9.6808	-75.292582	0.002513	25.134246	4.257856	-0.000503
1492	1.4835e+02	-9.6997	-75.752815	0.002311	23.107290	3.914481	-0.000463
1493	1.4845e+02	-9.7205	-76.249383	0.002493	24.931550	4.223519	-0.000499
1494	1.4855e+02	-9.7400	-76.661171	0.002067	20.674944	3.502430	-0.000414
1495	1.4865e+02	-9.7607	-77.226370	0.002838	28.377374	4.807257	-0.000568
1496	1.4875e+02	-9.7797	-77.702752	0.002392	23.918072	4.051831	-0.000479
1497	1.4885e+02	-9.7998	-78.239691	0.002696	26.958505	4.566894	-0.000540
1498	1.4895e+02	-9.8206	-78.720110	0.002412	24.120768	4.086169	-0.000483
1499	1.4905e+02	-9.8392	-79.200529	0.002412	24.120768	4.086169	-0.000483
1500	1.4915e+02	-9.8592	-79.709208	0.002554	25.539637	4.326532	-0.000511
1501	1.4925e+02	-9.8802	-80.266333	0.002797	27.971983	4.738582	-0.000560
1502	1.4935e+02	-9.8999	-80.783086	0.002595	25.945028	4.395207	-0.000519
1503	1.4945e+02	-9.9197	-81.303877	0.002615	26.147723	4.429544	-0.000523
1504	1.4955e+02	-9.9388	-81.808519	0.002534	25.336941	4.292194	-0.000507
1505	1.4965e+02	-9.9596	-82.341421	0.002676	26.755810	4.532557	-0.000536
1506	1.4975e+02	-9.9789	-82.870285	0.002655	26.553114	4.498219	-0.000532
1507	1.4985e+02	-9.9986	-83.435484	0.002838	28.377374	4.807257	-0.000568
1508	1.4995e+02	-9.9799	-83.814975	-0.001905	-19.053380	-3.227730	-0.000381
1509	1.5005e+02	-9.9597	-84.089500	-0.001378	-13.783296	-2.334954	-0.000276
1510	1.5015e+02	-9.9409	-84.388248	-0.001500	-14.999469	-2.540979	-0.000300
1511	1.5025e+02	-9.9204	-84.678922	-0.001459	-14.594078	-2.472304	-0.000292
1512	1.5034e+02	-9.9005	-84.925187	-0.001236	-12.364427	-2.094591	-0.000248
1513	1.5044e+02	-9.8811	-85.215861	-0.001459	-14.594078	-2.472304	-0.000292
1514	1.5054e+02	-9.8601	-85.450015	-0.001176	-11.756341	-1.991578	-0.000235
1515	1.5064e+02	-9.8402	-85.684169	-0.001176	-11.756341	-1.991578	-0.000235
1516	1.5074e+02	-9.8199	-85.910249	-0.001135	-11.350950	-1.922903	-0.000227
1517	1.5084e+02	-9.7995	-86.140365	-0.001155	-11.553645	-1.957240	-0.000231
1518	1.5094e+02	-9.7804	-86.326073	-0.000932	-9.323994	-1.579527	-0.000187
1519	1.5104e+02	-9.7607	-86.507745	-0.000912	-9.121299	-1.545190	-0.000183
1520	1.5114e+02	-9.7401	-86.766121	-0.001297	-12.972514	-2.197603	-0.000260
1521	1.5124e+02	-9.7212	-86.891272	-0.000628	-6.283561	-1.064464	-0.000126
1522	1.5134e+02	-9.7005	-87.072944	-0.000912	-9.121299	-1.545190	-0.000183
1523	1.5144e+02	-9.6805	-87.274800	-0.001013	-10.134776	-1.716878	-0.000203
1524	1.5154e+02	-9.6609	-87.399952	-0.000628	-6.283561	-1.064464	-0.000126
1525	1.5164e+02	-9.6411	-87.565474	-0.000831	-8.310517	-1.407840	-0.000166
1526	1.5174e+02	-9.6206	-87.678514	-0.000568	-5.675475	-0.961451	-0.000114
1527	1.5184e+02	-9.6014	-87.803665	-0.000628	-6.283561	-1.064464	-0.000126
1528	1.5194e+02	-9.5807	-88.001485	-0.000993	-9.932081	-1.682540	-0.000199
1529	1.5204e+02	-9.5601	-88.106450	-0.000527	-5.270084	-0.892776	-0.000105
1530	1.5214e+02	-9.5410	-88.183156	-0.000385	-3.851215	-0.652413	-0.000077
1531	1.5224e+02	-9.5213	-88.332530	-0.000750	-7.499735	-1.270489	-0.000150
1532	1.5233e+02	-9.5014	-88.477867	-0.000730	-7.297039	-1.236152	-0.000146
1533	1.5243e+02	-9.4809	-88.538424	-0.000304	-3.040433	-0.515063	-0.000061
1534	1.5253e+02	-9.4619	-88.631278	-0.000466	-4.661997	-0.789764	-0.000093
1535	1.5263e+02	-9.4414	-88.736244	-0.000527	-5.270084	-0.892776	-0.000105
1536	1.5273e+02	-9.4220	-88.821023	-0.000426	-4.256606	-0.721089	-0.000085
1537	1.5283e+02	-9.4009	-88.853320	-0.000162	-1.621564	-0.274700	-0.000032
1538	1.5293e+02	-9.3818	-88.982509	-0.000649	-6.486257	-1.098802	-0.000130
1539	1.5303e+02	-9.3616	-89.047103	-0.000324	-3.243128	-0.549401	-0.000065
1540	1.5313e+02	-9.3425	-89.131883	-0.000426	-4.256606	-0.721089	-0.000085
1541	1.5323e+02	-9.3213	-89.200514	-0.000345	-3.445824	-0.583738	-0.000069
1542	1.5333e+02	-9.3024	-89.277220	-0.000385	-3.851215	-0.652413	-0.000077
1543	1.5343e+02	-9.2824	-89.341814	-0.000324	-3.243128	-0.549401	-0.000065
1544	1.5353e+02	-9.2622	-89.398334	-0.000284	-2.837737	-0.480726	-0.000057
1545	1.5363e+02	-9.2429	-89.466965	-0.000345	-3.445824	-0.583738	-0.000069
1546	1.5373e+02	-9.2226	-89.519448	-0.000264	-2.635042	-0.446388	-0.000053
1547	1.5383e+02	-9.2023	-89.567893	-0.000243	-2.432346	-0.412051	-0.000049
1548	1.5393e+02	-9.1818	-89.656710	-0.000446	-4.459302	-0.755426	-0.000089
1549	1.5403e+02	-9.1626	-89.652673	0.000020	0.202696	0.034338	0.000004
1550	1.5413e+02	-9.1426	-89.705156	-0.000264	-2.635042	-0.446388	-0.000053
1551	1.5422e+02	-9.1231	-89.761676	-0.000284	-2.837737	-0.480726	-0.000057
1552	1.5432e+02	-9.1031	-89.798010	-0.000182	-1.824260	-0.309038	-0.000037
1553	1.5442e+02	-9.0829	-89.838382	-0.000203	-2.026955	-0.343376	-0.000041
1554	1.5452e+02	-9.0627	-89.834344	0.000020	0.202696	0.034338	0.000004
1555	1.5462e+02	-9.0428	-89.850493	-0.000081	-0.810782	-0.137350	-0.000016
1556	1.5472e+02	-9.0224	-89.915087	-0.000324	-3.243128	-0.549401	-0.000065
1557	1.5482e+02	-9.0038	-89.907013	0.000041	0.405391	0.068675	0.000008
1558	1.5492e+02	-8.9835	-89.927199	-0.000101	-1.013478	-0.171688	-0.000020
1559	1.5502e+02	-8.9641	-89.943347	-0.000081	-0.810782	-0.137350	-0.000016
1560	1.5512e+02	-8.9433	-89.959496	-0.000081	-0.810782	-0.137350	-0.000016
1561	1.5522e+02	-8.9245	-89.983718	-0.000122	-1.216173	-0.206025	-0.000024
1562	1.5532e+02	-8.9041	-90.003904	-0.000101	-1.013478	-0.171688	-0.000020
1563	1.5542e+02	-8.8843	-89.999867	0.000020	0.202696	0.034338	0.000004
1564	1.5552e+02	-8.8640	-90.016016	-0.000081	-0.810782	-0.137350	-0.000016
1565	1.5562e+02	-8.8431	-90.016016	0.000000	0.000000	0.000000	0.000000
1566	1.5572e+02	-8.8243	-90.032164	-0.000081	-0.810782	-0.137350	-0.000016
1567	1.5582e+02	-8.8040	-90.032164	0.000000	0.000000	0.000000	0.000000
1568	1.5592e+02	-8.7845	-90.024090	0.000041	0.405391	0.068675	0.000008
1569	1.5602e+02	-8.7651	-90.003904	0.000101	1.013478	0.171688	0.000020
1570	1.5612e+02	-8.7450	-90.003904	0.000000	0.000000	0.000000	0.000000
1571	1.5622e+02	-8.7256	-89.991793	0.000061	0.608087	0.103013	0.000012
1572	1.5631e+02	-8.7048	-89.975644	0.000081	0.810782	0.137350	0.000016
1573	1.5641e+02	-8.6847	-89.979681	-0.000020	-0.202696	-0.034338	-0.000004
1574	1.5651e+02	-8.6653	-89.927199	0.000264	2.635042	0.446388	0.000053
1575	1.5661e+02	-8.6448	-89.927199	0.000000	0.000000	0.000000	0.000000
1576	1.5671e+02	-8.6253	-89.919124	0.000041	0.405391	0.068675	0.000008
1577	1.5681e+02	-8.6041	-89.907013	0.000061	0.608087	0.103013	0.000012
1578	1.5691e+02	-8.5844	-89.870679	0.000182	1.824260	0.309038	0.000037
1579	1.5701e+02	-8.5658	-89.886827	-0.000081	-0.810782	-0.137350	-0.000016
1580	1.5711e+02	-8.5460	-89.802047	0.000426	4.256606	0.721089	0.000085
1581	1.5721e+02	-8.5263	-89.834344	-0.000162	-1.621564	-0.274700	-0.000032
1582	1.5731e+02	-8.5048	-89.729379	0.000527	5.270084	0.892776	0.000105
1583	1.5741e+02	-8.4862	-89.709193	0.000101	1.013478	0.171688	0.000020
1584	1.5751e+02	-8.4668	-89.697082	0.000061	0.608087	0.103013	0.000012
1585	1.5761e+02	-8.4459	-89.680933	0.000081	0.810782	0.137350	0.000016
1586	1.5771e+02	-8.4268	-89.676896	0.000020	0.202696	0.034338	0.000004
1587	1.5781e+02	-8.4060	-89.596153	0.000405	4.053911	0.686751	0.000081
1588	1.5791e+02	-8.3858	-89.571931	0.000122	1.216173	0.206025	0.000024
1589	1.5801e+02	-8.3652	-89.523485	0.000243	2.432346	0.412051	0.000049
1590	1.5811e+02	-8.3453	-89.471002	0.000264	2.635042	0.446388	0.000053
1591	1.5821e+02	-8.3266	-89.475039	-0.000020	-0.202696	-0.034338	-0.000004
1592	1.5830e+02	-8.3067	-89.414482	0.000304	3.040433	0.515063	0.000061
1593	1.5840e+02	-8.2867	-89.345851	0.000345	3.445824	0.583738	0.000069
1594	1.5850e+02	-8.2661	-89.357962	-0.000061	-0.608087	-0.103013	-0.000012
1595	1.5860e+02	-8.2472	-89.293368	0.000324	3.243128	0.549401	0.000065
1596	1.5870e+02	-8.2268	-89.257034	0.000182	1.824260	0.309038	0.000037
1597	1.5880e+02	-8.2075	-89.192440	0.000324	3.243128	0.549401	0.000065
1598	1.5890e+02	-8.1870	-89.135920	0.000284	2.837737	0.480726	0.000057
1599	1.5900e+02	-8.1675	-89.127846	0.000041	0.405391	0.068675	0.000008
1600	1.5910e+02	-8.1465	-89.034992	0.000466	4.661997	0.789764	0.000093
1601	1.5920e+02	-8.1274	-88.946175	0.000446	4.459302	0.755426	0.000089
1602	1.5930e+02	-8.1075	-88.966360	-0.000101	-1.013478	-0.171688	-0.000020
1603	1.5940e+02	-8.0872	-88.849283	0.000588	5.878170	0.995789	0.000118
1604	1.5950e+02	-8.0673	-88.841209	0.000041	0.405391	0.068675	0.000008
1605	1.5960e+02	-8.0481	-88.756429	0.000426	4.256606	0.721089	0.000085
1606	1.5970e+02	-8.0272	-88.699909	0.000284	2.837737	0.480726	0.000057
1607	1.5980e+02	-8.0081	-88.655501	0.000223	2.229651	0.377713	0.000045
1608	1.5990e+02	-7.9871	-88.603018	0.000264	2.635042	0.446388	0.000053
1609	1.6000e+02	-7.9676	-88.518238	0.000426	4.256606	0.721089	0.000085
1610	1.6010e+02	-7.9477	-88.433458	0.000426	4.256606	0.721089	0.000085
1611	1.6019e+02	-7.9273	-88.437495	-0.000020	-0.202696	-0.034338	-0.000004
1612	1.6029e+02	-7.9073	-88.380976	0.000284	2.837737	0.480726	0.000057
1613	1.6039e+02	-7.8888	-88.324456	0.000284	2.837737	0.480726	0.000057
1614	1.6049e+02	-7.8680	-88.247750	0.000385	3.851215	0.652413	0.000077
1615	1.6059e+02	-7.8476	-88.150859	0.000486	4.864693	0.824101	0.000097
1616	1.6069e+02	-7.8278	-88.138747	0.000061	0.608087	0.103013	0.000012
1617	1.6079e+02	-7.8090	-88.094339	0.000223	2.229651	0.377713	0.000045
1618	1.6089e+02	-7.7889	-88.009559	0.000426	4.256606	0.721089	0.000085
1619	1.6099e+02	-7.7689	-87.912668	0.000486	4.864693	0.824101	0.000097
1620	1.6109e+02	-7.7486	-87.835962	0.000385	3.851215	0.652413	0.000077
1621	1.6119e+02	-7.7291	-87.791554	0.000223	2.229651	0.377713	0.000045
1622	1.6129e+02	-7.7094	-87.751182	0.000203	2.026955	0.343376	0.000041
1623	1.6139e+02	-7.6877	-87.666403	0.000426	4.256606	0.721089	0.000085
1624	1.6149e+02	-7.6694	-87.581623	0.000426	4.256606	0.721089	0.000085
1625	1.6159e+02	-7.6495	-87.525103	0.000284	2.837737	0.480726	0.000057
1626	1.6169e+02	-7.6291	-87.452434	0.000365	3.648520	0.618076	0.000073
1627	1.6179e+02	-7.6089	-87.383803	0.000345	3.445824	0.583738	0.000069
1628	1.6189e+02	-7.5899	-87.327283	0.000284	2.837737	0.480726	0.000057
1629	1.6199e+02	-7.5698	-87.234429	0.000466	4.661997	0.789764	0.000093
1630	1.6209e+02	-7.5497	-87.157723	0.000385	3.851215	0.652413	0.000077
1631	1.6219e+02	-7.5299	-87.085055	0.000365	3.648520	0.618076	0.000073
1632	1.6228e+02	-7.5098	-87.000275	0.000426	4.256606	0.721089	0.000085
1633	1.6238e+02	-7.4904	-86.963941	0.000182	1.824260	0.309038	0.000037
1634	1.6248e+02	-7.4702	-86.850901	0.000568	5.675475	0.961451	0.000114
1635	1.6258e+02	-7.4506	-86.778233	0.000365	3.648520	0.618076	0.000073
1636	1.6268e+02	-7.4312	-86.693453	0.000426	4.256606	0.721089	0.000085
1637	1.6278e+02	-7.4109	-86.636933	0.000284	2.837737	0.480726	0.000057
1638	1.6288e+02	-7.3898	-86.560227	0.000385	3.851215	0.652413	0.000077
1639	1.6298e+02	-7.3701	-86.479485	0.000405	4.053911	0.686751	0.000081
1640	1.6308e+02	-7.3509	-86.362408	0.000588	5.878170	0.995789	0.000118
1641	1.6318e+02	-7.3303	-86.297814	0.000324	3.243128	0.549401	0.000065
1642	1.6328e+02	-7.3111	-86.217071	0.000405	4.053911	0.686751	0.000081
1643	1.6338e+02	-7.2903	-86.132291	0.000426	4.256606	0.721089	0.000085
1644	1.6348e+02	-7.2714	-86.027325	0.000527	5.270084	0.892776	0.000105
1645	1.6358e+02	-7.2505	-85.958694	0.000345	3.445824	0.583738	0.000069
1646	1.6368e+02	-7.2308	-85.894100	0.000324	3.243128	0.549401	0.000065
1647	1.6378e+02	-7.2115	-85.845654	0.000243	2.432346	0.412051	0.000049
1648	1.6388e+02	-7.1920	-85.724540	0.000608	6.080866	1.030127	0.000122
1649	1.6398e+02	-7.1713	-85.631686	0.000466	4.661997	0.789764	0.000093
1650	1.6408e+02	-7.1524	-85.542869	0.000446	4.459302	0.755426	0.000089
1651	1.6418e+02	-7.1310	-85.433866	0.000547	5.472779	0.927114	0.000110
1652	1.6427e+02	-7.1121	-85.393495	0.000203	2.026955	0.343376	0.000041
1653	1.6437e+02	-7.0920	-85.300641	0.000466	4.661997	0.789764	0.000093
1654	1.6447e+02	-7.0722	-85.223935	0.000385	3.851215	0.652413	0.000077
1655	1.6457e+02	-7.0508	-85.127044	0.000486	4.864693	0.824101	0.000097
1656	1.6467e+02	-7.0319	-85.058413	0.000345	3.445824	0.583738	0.000069
1657	1.6477e+02	-7.0123	-84.945373	0.000568	5.675475	0.961451	0.000114
1658	1.6487e+02	-6.9926	-84.905002	0.000203	2.026955	0.343376	0.000041
1659	1.6497e+02	-6.9719	-84.800036	0.000527	5.270084	0.892776	0.000105
1660	1.6507e+02	-6.9527	-84.727368	0.000365	3.648520	0.618076	0.000073
1661	1.6517e+02	-6.9320	-84.590105	0.000689	6.891648	1.167477	0.000138
1662	1.6527e+02	-6.9125	-84.517437	0.000365	3.648520	0.618076	0.000073
1663	1.6537e+02	-6.8921	-84.428620	0.000446	4.459302	0.755426	0.000089
1664	1.6547e+02	-6.8729	-84.355951	0.000365	3.648520	0.618076	0.000073
1665	1.6557e+02	-6.8530	-84.255023	0.000507	5.067388	0.858439	0.000101
1666	1.6567e+02	-6.8331	-84.141983	0.000568	5.675475	0.961451	0.000114
1667	1.6577e+02	-6.8126	-84.089500	0.000264	2.635042	0.446388	0.000053
1668	1.6587e+02	-6.7926	-84.000683	0.000446	4.459302	0.755426	0.000089
1669	1.6597e+02	-6.7727	-83.899755	0.000507	5.067388	0.858439	0.000101
1670	1.6607e+02	-6.7527	-83.802864	0.000486	4.864693	0.824101	0.000097
1671	1.6616e+02	-6.7325	-83.722121	0.000405	4.053911	0.686751	0.000081
1672	1.6626e+02	-6.7135	-83.617155	0.000527	5.270084	0.892776	0.000105
1673	1.6636e+02	-6.6925	-83.520264	0.000486	4.864693	0.824101	0.000097
1674	1.6646e+02	-6.6727	-83.471819	0.000243	2.432346	0.412051	0.000049
1675	1.6656e+02	-6.6534	-83.358779	0.000568	5.675475	0.961451	0.000114
1676	1.6666e+02	-6.6328	-83.273999	0.000426	4.256606	0.721089	0.000085
1677	1.6676e+02	-6.6135	-83.181145	0.000466	4.661997	0.789764	0.000093
1678	1.6686e+02	-6.5937	-83.084253	0.000486	4.864693	0.824101	0.000097
1679	1.6696e+02	-6.5742	-82.999474	0.000426	4.256606	0.721089	0.000085
1680	1.6706e+02	-6.5533	-82.914694	0.000426	4.256606	0.721089	0.000085
1681	1.6716e+02	-6.5335	-82.813765	0.000507	5.067388	0.858439	0.000101
1682	1.6726e+02	-6.5128	-82.712837	0.000507	5.067388	0.858439	0.000101
1683	1.6736e+02	-6.4938	-82.571537	0.000709	7.094344	1.201814	0.000142
1684	1.6746e+02	-6.4749	-82.531166	0.000203	2.026955	0.343376	0.000041
1685	1.6756e+02	-6.4551	-82.470609	0.000304	3.040433	0.515063	0.000061
1686	1.6766e+02	-6.4350	-82.349495	0.000608	6.080866	1.030127	0.000122
1687	1.6776e+02	-6.4136	-82.244529	0.000527	5.270084	0.892776	0.000105
1688	1.6786e+02	-6.3943	-82.135527	0.000547	5.472779	0.927114	0.000110
1689	1.6796e+02	-6.3748	-82.030561	0.000527	5.270084	0.892776	0.000105
1690	1.6806e+02	-6.3544	-81.905410	0.000628	6.283561	1.064464	0.000126
1691	1.6816e+02	-6.3347	-81.828704	0.000385	3.851215	0.652413	0.000077
1692	1.6825e+02	-6.3133	-81.760073	0.000345	3.445824	0.583738	0.000069
1693	1.6835e+02	-6.2952	-81.663182	0.000486	4.864693	0.824101	0.000097
1694	1.6845e+02	-6.2750	-81.542068	0.000608	6.080866	1.030127	0.000122
1695	1.6855e+02	-6.2544	-81.437102	0.000527	5.270084	0.892776	0.000105
1696	1.6865e+02	-6.2354	-81.336174	0.000507	5.067388	0.858439	0.000101
1697	1.6875e+02	-6.2143	-81.259468	0.000385	3.851215	0.652413	0.000077
1698	1.6885e+02	-6.1948	-81.114131	0.000730	7.297039	1.236152	0.000146
1699	1.6895e+02	-6.1757	-81.049537	0.000324	3.243128	0.549401	0.000065
1700	1.6905e+02	-6.1548	-80.908237	0.000709	7.094344	1.201814	0.000142
1701	1.6915e+02	-6.1360	-80.819420	0.000446	4.459302	0.755426	0.000089
1702	1.6925e+02	-6.1148	-80.730603	0.000446	4.459302	0.755426	0.000089
1703	1.6935e+02	-6.0956	-80.633712	0.000486	4.864693	0.824101	0.000097
1704	1.6945e+02	-6.0770	-80.504524	0.000649	6.486257	1.098802	0.000130
1705	1.6955e+02	-6.0550	-80.415707	0.000446	4.459302	0.755426	0.000089
1706	1.6965e+02	-6.0362	-80.343038	0.000365	3.648520	0.618076	0.000073
1707	1.6975e+02	-6.0155	-80.217887	0.000628	6.283561	1.064464	0.000126
1708	1.6985e+02	-5.9963	-80.104847	0.000568	5.675475	0.961451	0.000114
1709	1.6995e+02	-5.9760	-80.052365	0.000264	2.635042	0.446388	0.000053
1710	1.7005e+02	-5.9560	-79.911065	0.000709	7.094344	1.201814	0.000142
1711	1.7015e+02	-5.9360	-79.789951	0.000608	6.080866	1.030127	0.000122
1712	1.7024e+02	-5.9166	-79.721319	0.000345	3.445824	0.583738	0.000069
1713	1.7034e+02	-5.8963	-79.584057	0.000689	6.891648	1.167477	0.000138
1714	1.7044e+02	-5.8762	-79.499277	0.000426	4.256606	0.721089	0.000085
1715	1.7054e+02	-5.8569	-79.378163	0.000608	6.080866	1.030127	0.000122
1716	1.7064e+02	-5.8369	-79.289346	0.000446	4.459302	0.755426	0.000089
1717	1.7074e+02	-5.8167	-79.188418	0.000507	5.067388	0.858439	0.000101
1718	1.7084e+02	-5.7969	-79.103638	0.000426	4.256606	0.721089	0.000085
1719	1.7094e+02	-5.7764	-79.018858	0.000426	4.256606	0.721089	0.000085
1720	1.7104e+02	-5.7558	-78.917929	0.000507	5.067388	0.858439	0.000101
1721	1.7114e+02	-5.7368	-78.808927	0.000547	5.472779	0.927114	0.000110
1722	1.7124e+02	-5.7162	-78.683776	0.000628	6.283561	1.064464	0.000126
1723	1.7134e+02	-5.6979	-78.546513	0.000689	6.891648	1.167477	0.000138
1724	1.7144e+02	-5.6775	-78.489993	0.000284	2.837737	0.480726	0.000057
1725	1.7154e+02	-5.6573	-78.397139	0.000466	4.661997	0.789764	0.000093
1726	1.7164e+02	-5.6375	-78.259876	0.000689	6.891648	1.167477	0.000138
1727	1.7174e+02	-5.6182	-78.183171	0.000385	3.851215	0.652413	0.000077
1728	1.7184e+02	-5.5978	-78.066094	0.000588	5.878170	0.995789	0.000118
1729	1.7194e+02	-5.5771	-77.981314	0.000426	4.256606	0.721089	0.000085
1730	1.7204e+02	-5.5582	-77.872311	0.000547	5.472779	0.927114	0.000110
1731	1.7213e+02	-5.5376	-77.763309	0.000547	5.472779	0.927114	0.000110
1732	1.7223e+02	-5.5167	-77.626046	0.000689	6.891648	1.167477	0.000138
1733	1.7233e+02	-5.4979	-77.537229	0.000446	4.459302	0.755426	0.000089
1734	1.7243e+02	-5.4784	-77.448412	0.000446	4.459302	0.755426	0.000089
1735	1.7253e+02	-5.4575	-77.315187	0.000669	6.688952	1.133139	0.000134
1736	1.7263e+02	-5.4377	-77.218295	0.000486	4.864693	0.824101	0.000097
1737	1.7273e+02	-5.4185	-77.089107	0.000649	6.486257	1.098802	0.000130
1738	1.7283e+02	-5.3979	-77.036624	0.000264	2.635042	0.446388	0.000053
1739	1.7293e+02	-5.3786	-76.923584	0.000568	5.675475	0.961451	0.000114
1740	1.7303e+02	-5.3581	-76.778247	0.000730	7.297039	1.236152	0.000146
1741	1.7313e+02	-5.3383	-76.632911	0.000730	7.297039	1.236152	0.000146
1742	1.7323e+02	-5.3186	-76.519871	0.000568	5.675475	0.961451	0.000114
1743	1.7333e+02	-5.2984	-76.459314	0.000304	3.040433	0.515063	0.000061
1744	1.7343e+02	-5.2789	-76.346274	0.000568	5.675475	0.961451	0.000114
1745	1.7353e+02	-5.2579	-76.209011	0.000689	6.891648	1.167477	0.000138
1746	1.7363e+02	-5.2391	-76.128269	0.000405	4.053911	0.686751	0.000081
1747	1.7373e+02	-5.2188	-76.007155	0.000608	6.080866	1.030127	0.000122
1748	1.7383e+02	-5.1987	-75.906226	0.000507	5.067388	0.858439	0.000101
1749	1.7393e+02	-5.1791	-75.764926	0.000709	7.094344	1.201814	0.000142
1750	1.7403e+02	-5.1590	-75.692258	0.000365	3.648520	0.618076	0.000073
1751	1.7413e+02	-5.1393	-75.542884	0.000750	7.499735	1.270489	0.000150
1752	1.7422e+02	-5.1188	-75.474253	0.000345	3.445824	0.583738	0.000069
1753	1.7432e+02	-5.0993	-75.361213	0.000568	5.675475	0.961451	0.000114
1754	1.7442e+02	-5.0786	-75.227987	0.000669	6.688952	1.133139	0.000134
1755	1.7452e+02	-5.0592	-75.127059	0.000507	5.067388	0.858439	0.000101
1756	1.7462e+02	-5.0392	-75.026131	0.000507	5.067388	0.858439	0.000101
1757	1.7472e+02	-5.0208	-74.856571	0.000851	8.513212	1.442177	0.000170
1758	1.7482e+02	-5.0005	-74.767754	0.000446	4.459302	0.755426	0.000089
1759	1.7492e+02	-4.9800	-74.650677	0.000588	5.878170	0.995789	0.000118
1760	1.7502e+02	-4.9596	-74.586083	0.000324	3.243128	0.549401	0.000065
1761	1.7512e+02	-4.9405	-74.464969	0.000608	6.080866	1.030127	0.000122
1762	1.7522e+02	-4.9203	-74.295409	0.000851	8.513212	1.442177	0.000170
1763	1.7532e+02	-4.8999	-74.226778	0.000345	3.445824	0.583738	0.000069
1764	1.7542e+02	-4.8806	-74.065292	0.000811	8.107821	1.373502	0.000162
1765	1.7552e+02	-4.8599	-73.956290	0.000547	5.472779	0.927114	0.000110
1766	1.7562e+02	-4.8400	-73.839213	0.000588	5.878170	0.995789	0.000118
1767	1.7572e+02	-4.8201	-73.734247	0.000527	5.270084	0.892776	0.000105
1768	1.7582e+02	-4.8003	-73.617170	0.000588	5.878170	0.995789	0.000118
1769	1.7592e+02	-4.7807	-73.544502	0.000365	3.648520	0.618076	0.000073
1770	1.7602e+02	-4.7615	-73.391091	0.000770	7.702430	1.304827	0.000154
1771	1.7612e+02	-4.7412	-73.314385	0.000385	3.851215	0.652413	0.000077
1772	1.7621e+02	-4.7215	-73.173085	0.000709	7.094344	1.201814	0.000142
1773	1.7631e+02	-4.7002	-73.039860	0.000669	6.688952	1.133139	0.000134
1774	1.7641e+02	-4.6813	-72.983340	0.000284	2.837737	0.480726	0.000057
1775	1.7651e+02	-4.6607	-72.793594	0.000953	9.526690	1.613865	0.000191
1776	1.7661e+02	-4.6405	-72.688629	0.000527	5.270084	0.892776	0.000105
1777	1.7671e+02	-4.6213	-72.571552	0.000588	5.878170	0.995789	0.000118
1778	1.7681e+02	-4.6017	-72.450438	0.000608	6.080866	1.030127	0.000122
1779	1.7691e+02	-4.5818	-72.361621	0.000446	4.459302	0.755426	0.000089
1780	1.7701e+02	-4.5615	-72.224358	0.000689	6.891648	1.167477	0.000138
1781	1.7711e+02	-4.5415	-72.099207	0.000628	6.283561	1.064464	0.000126
1782	1.7721e+02	-4.5219	-71.990204	0.000547	5.472779	0.927114	0.000110
1783	1.7731e+02	-4.5020	-71.873128	0.000588	5.878170	0.995789	0.000118
1784	1.7741e+02	-4.4818	-71.756051	0.000588	5.878170	0.995789	0.000118
1785	1.7751e+02	-4.4617	-71.663196	0.000466	4.661997	0.789764	0.000093
1786	1.7761e+02	-4.4417	-71.521897	0.000709	7.094344	1.201814	0.000142
1787	1.7771e+02	-4.4214	-71.408857	0.000568	5.675475	0.961451	0.000114
1788	1.7781e+02	-4.4016	-71.307929	0.000507	5.067388	0.858439	0.000101
1789	1.7791e+02	-4.3822	-71.166629	0.000709	7.094344	1.201814	0.000142
1790	1.7801e+02	-4.3624	-71.049552	0.000588	5.878170	0.995789	0.000118
1791	1.7810e+02	-4.3421	-70.948623	0.000507	5.067388	0.858439	0.000101
1792	1.7820e+02	-4.3224	-70.799249	0.000750	7.499735	1.270489	0.000150
1793	1.7830e+02	-4.3024	-70.686210	0.000568	5.675475	0.961451	0.000114
1794	1.7840e+02	-4.2832	-70.573170	0.000568	5.675475	0.961451	0.000114
1795	1.7850e+02	-4.2623	-70.443981	0.000649	6.486257	1.098802	0.000130
1796	1.7860e+02	-4.2431	-70.334979	0.000547	5.472779	0.927114	0.000110
1797	1.7870e+02	-4.2223	-70.181568	0.000770	7.702430	1.304827	0.000154
1798	1.7880e+02	-4.2026	-70.052379	0.000649	6.486257	1.098802	0.000130
1799	1.7890e+02	-4.1824	-69.935302	0.000588	5.878170	0.995789	0.000118
1800	1.7900e+02	-4.1646	-69.794003	0.000709	7.094344	1.201814	0.000142
1801	1.7910e+02	-4.1429	-69.672889	0.000608	6.080866	1.030127	0.000122
1802	1.7920e+02	-4.1235	-69.547737	0.000628	6.283561	1.064464	0.000126
1803	1.7930e+02	-4.1032	-69.442772	0.000527	5.270084	0.892776	0.000105
1804	1.7940e+02	-4.0825	-69.289361	0.000770	7.702430	1.304827	0.000154
1805	1.7950e+02	-4.0631	-69.196507	0.000466	4.661997	0.789764	0.000093
1806	1.7960e+02	-4.0427	-69.071355	0.000628	6.283561	1.064464	0.000126
1807	1.7970e+02	-4.0230	-68.934093	0.000689	6.891648	1.167477	0.000138
1808	1.7980e+02	-4.0038	-68.804904	0.000649	6.486257	1.098802	0.000130
1809	1.7990e+02	-3.9835	-68.691865	0.000568	5.675475	0.961451	0.000114
1810	1.8000e+02	-3.9642	-68.570751	0.000608	6.080866	1.030127	0.000122
1811	1.8009e+02	-3.9435	-68.409265	0.000811	8.107821	1.373502	0.000162
1812	1.8019e+02	-3.9241	-68.280077	0.000649	6.486257	1.098802	0.000130
1813	1.8029e+02	-3.9038	-68.195297	0.000426	4.256606	0.721089	0.000085
1814	1.8039e+02	-3.8844	-68.033811	0.000811	8.107821	1.373502	0.000162
1815	1.8049e+02	-3.8644	-67.904623	0.000649	6.486257	1.098802	0.000130
1816	1.8059e+02	-3.8431	-67.791583	0.000568	5.675475	0.961451	0.000114
1817	1.8069e+02	-3.8239	-67.686618	0.000527	5.270084	0.892776	0.000105
1818	1.8079e+02	-3.8035	-67.525132	0.000811	8.107821	1.373502	0.000162
1819	1.8089e+02	-3.7839	-67.408055	0.000588	5.878170	0.995789	0.000118
1820	1.8099e+02	-3.7650	-67.278867	0.000649	6.486257	1.098802	0.000130
1821	1.8109e+02	-3.7442	-67.157753	0.000608	6.080866	1.030127	0.000122
1822	1.8119e+02	-3.7247	-67.016453	0.000709	7.094344	1.201814	0.000142
1823	1.8129e+02	-3.7043	-66.915525	0.000507	5.067388	0.858439	0.000101
1824	1.8139e+02	-3.6851	-66.770188	0.000730	7.297039	1.236152	0.000146
1825	1.8149e+02	-3.6654	-66.608703	0.000811	8.107821	1.373502	0.000162
1826	1.8159e+02	-3.6447	-66.499700	0.000547	5.472779	0.927114	0.000110
1827	1.8169e+02	-3.6253	-66.394734	0.000527	5.270084	0.892776	0.000105
1828	1.8179e+02	-3.6058	-66.217100	0.000892	8.918603	1.510852	0.000179
1829	1.8189e+02	-3.5855	-66.112135	0.000527	5.270084	0.892776	0.000105
1830	1.8199e+02	-3.5646	-65.978909	0.000669	6.688952	1.133139	0.000134
1831	1.8209e+02	-3.5451	-65.857795	0.000608	6.080866	1.030127	0.000122
1832	1.8218e+02	-3.5249	-65.708421	0.000750	7.499735	1.270489	0.000150
1833	1.8228e+02	-3.5056	-65.595381	0.000568	5.675475	0.961451	0.000114
1834	1.8238e+02	-3.4858	-65.450045	0.000730	7.297039	1.236152	0.000146
1835	1.8248e+02	-3.4664	-65.324893	0.000628	6.283561	1.064464	0.000126
1836	1.8258e+02	-3.4459	-65.163408	0.000811	8.107821	1.373502	0.000162
1837	1.8268e+02	-3.4259	-65.094777	0.000345	3.445824	0.583738	0.000069
1838	1.8278e+02	-3.4055	-64.953477	0.000709	7.094344	1.201814	0.000142
1839	1.8288e+02	-3.3859	-64.844474	0.000547	5.472779	0.927114	0.000110
1840	1.8298e+02	-3.3654	-64.691063	0.000770	7.702430	1.304827	0.000154
1841	1.8308e+02	-3.3466	-64.541689	0.000750	7.499735	1.270489	0.000150
1842	1.8318e+02	-3.3272	-64.396352	0.000730	7.297039	1.236152	0.000146
1843	1.8328e+02	-3.3065	-64.275238	0.000608	6.080866	1.030127	0.000122
1844	1.8338e+02	-3.2867	-64.121827	0.000770	7.702430	1.304827	0.000154
1845	1.8348e+02	-3.2664	-64.012824	0.000547	5.472779	0.927114	0.000110
1846	1.8358e+02	-3.2465	-63.875562	0.000689	6.891648	1.167477	0.000138
1847	1.8368e+02	-3.2267	-63.734262	0.000709	7.094344	1.201814	0.000142
1848	1.8378e+02	-3.2069	-63.601036	0.000669	6.688952	1.133139	0.000134
1849	1.8388e+02	-3.1857	-63.479922	0.000608	6.080866	1.030127	0.000122
1850	1.8398e+02	-3.1673	-63.330548	0.000750	7.499735	1.270489	0.000150
1851	1.8407e+02	-3.1474	-63.213471	0.000588	5.878170	0.995789	0.000118
1852	1.8417e+02	-3.1270	-63.072172	0.000709	7.094344	1.201814	0.000142
1853	1.8427e+02	-3.1073	-62.975280	0.000486	4.864693	0.824101	0.000097
1854	1.8437e+02	-3.0863	-62.809758	0.000831	8.310517	1.407840	0.000166
1855	1.8447e+02	-3.0675	-62.696718	0.000568	5.675475	0.961451	0.000114
1856	1.8457e+02	-3.0479	-62.551381	0.000730	7.297039	1.236152	0.000146
1857	1.8467e+02	-3.0267	-62.450453	0.000507	5.067388	0.858439	0.000101
1858	1.8477e+02	-3.0077	-62.284930	0.000831	8.310517	1.407840	0.000166
1859	1.8487e+02	-2.9877	-62.143630	0.000709	7.094344	1.201814	0.000142
1860	1.8497e+02	-2.9678	-62.022516	0.000608	6.080866	1.030127	0.000122
1861	1.8507e+02	-2.9472	-61.869105	0.000770	7.702430	1.304827	0.000154
1862	1.8517e+02	-2.9276	-61.723768	0.000730	7.297039	1.236152	0.000146
1863	1.8527e+02	-2.9085	-61.582469	0.000709	7.094344	1.201814	0.000142
1864	1.8537e+02	-2.8878	-61.449243	0.000669	6.688952	1.133139	0.000134
1865	1.8547e+02	-2.8681	-61.324092	0.000628	6.283561	1.064464	0.000126
1866	1.8557e+02	-2.8479	-61.158569	0.000831	8.310517	1.407840	0.000166
1867	1.8567e+02	-2.8285	-61.029381	0.000649	6.486257	1.098802	0.000130
1868	1.8577e+02	-2.8079	-60.888081	0.000709	7.094344	1.201814	0.000142
1869	1.8587e+02	-2.7884	-60.746781	0.000709	7.094344	1.201814	0.000142
1870	1.8597e+02	-2.7681	-60.581259	0.000831	8.310517	1.407840	0.000166
1871	1.8606e+02	-2.7478	-60.532813	0.000243	2.432346	0.412051	0.000049
1872	1.8616e+02	-2.7283	-60.347105	0.000932	9.323994	1.579527	0.000187
1873	1.8626e+02	-2.7083	-60.234065	0.000568	5.675475	0.961451	0.000114
1874	1.8636e+02	-2.6882	-60.068543	0.000831	8.310517	1.407840	0.000166
1875	1.8646e+02	-2.6682	-59.886872	0.000912	9.121299	1.545190	0.000183
1876	1.8656e+02	-2.6488	-59.789980	0.000486	4.864693	0.824101	0.000097
1877	1.8666e+02	-2.6291	-59.632532	0.000791	7.905126	1.339165	0.000158
1878	1.8676e+02	-2.6089	-59.471047	0.000811	8.107821	1.373502	0.000162
1879	1.8686e+02	-2.5890	-59.366081	0.000527	5.270084	0.892776	0.000105
1880	1.8696e+02	-2.5702	-59.208633	0.000791	7.905126	1.339165	0.000158
1881	1.8706e+02	-2.5496	-59.087519	0.000608	6.080866	1.030127	0.000122
1882	1.8716e+02	-2.5287	-58.982553	0.000527	5.270084	0.892776	0.000105
1883	1.8726e+02	-2.5092	-58.837216	0.000730	7.297039	1.236152	0.000146
1884	1.8736e+02	-2.4910	-58.663619	0.000872	8.715908	1.476515	0.000174
1885	1.8746e+02	-2.4699	-58.550580	0.000568	5.675475	0.961451	0.000114
1886	1.8756e+02	-2.4496	-58.425428	0.000628	6.283561	1.064464	0.000126
1887	1.8766e+02	-2.4298	-58.300277	0.000628	6.283561	1.064464	0.000126
1888	1.8776e+02	-2.4103	-58.126680	0.000872	8.715908	1.476515	0.000174
1889	1.8786e+02	-2.3899	-57.993455	0.000669	6.688952	1.133139	0.000134
1890	1.8796e+02	-2.3706	-57.844081	0.000750	7.499735	1.270489	0.000150
1891	1.8806e+02	-2.3502	-57.735078	0.000547	5.472779	0.927114	0.000110
1892	1.8815e+02	-2.3305	-57.581667	0.000770	7.702430	1.304827	0.000154
1893	1.8825e+02	-2.3105	-57.440367	0.000709	7.094344	1.201814	0.000142
1894	1.8835e+02	-2.2914	-57.335402	0.000527	5.270084	0.892776	0.000105
1895	1.8845e+02	-2.2705	-57.161805	0.000872	8.715908	1.476515	0.000174
1896	1.8855e+02	-2.2511	-57.012431	0.000750	7.499735	1.270489	0.000150
1897	1.8865e+02	-2.2301	-56.859020	0.000770	7.702430	1.304827	0.000154
1898	1.8875e+02	-2.2104	-56.737906	0.000608	6.080866	1.030127	0.000122
1899	1.8885e+02	-2.1918	-56.608717	0.000649	6.486257	1.098802	0.000130
1900	1.8895e+02	-2.1714	-56.451269	0.000791	7.905126	1.339165	0.000158
1901	1.8905e+02	-2.1511	-56.289784	0.000811	8.107821	1.373502	0.000162
1902	1.8915e+02	-2.1312	-56.164632	0.000628	6.283561	1.064464	0.000126
1903	1.8925e+02	-2.1114	-56.043518	0.000608	6.080866	1.030127	0.000122
1904	1.8935e+02	-2.0910	-55.845699	0.000993	9.932081	1.682540	0.000199
1905	1.8945e+02	-2.0711	-55.736696	0.000547	5.472779	0.927114	0.000110
1906	1.8955e+02	-2.0513	-55.583285	0.000770	7.702430	1.304827	0.000154
1907	1.8965e+02	-2.0309	-55.458134	0.000628	6.283561	1.064464	0.000126
1908	1.8975e+02	-2.0125	-55.312797	0.000730	7.297039	1.236152	0.000146
1909	1.8985e+02	-1.9911	-55.183608	0.000649	6.486257	1.098802	0.000130
1910	1.8995e+02	-1.9724	-54.997900	0.000932	9.323994	1.579527	0.000187
1911	1.9004e+02	-1.9519	-54.872749	0.000628	6.283561	1.064464	0.000126
1912	1.9014e+02	-1.9296	-54.739523	0.000669	6.688952	1.133139	0.000134
1913	1.9024e+02	-1.9118	-54.582075	0.000791	7.905126	1.339165	0.000158
1914	1.9034e+02	-1.8913	-54.469035	0.000568	5.675475	0.961451	0.000114
1915	1.9044e+02	-1.8710	-54.291401	0.000892	8.918603	1.510852	0.000179
1916	1.9054e+02	-1.8517	-54.137990	0.000770	7.702430	1.304827	0.000154
1917	1.9064e+02	-1.8320	-53.984579	0.000770	7.702430	1.304827	0.000154
1918	1.9074e+02	-1.8117	-53.879614	0.000527	5.270084	0.892776	0.000105
1919	1.9084e+02	-1.7918	-53.706017	0.000872	8.715908	1.476515	0.000174
1920	1.9094e+02	-1.7726	-53.548568	0.000791	7.905126	1.339165	0.000158
1921	1.9104e+02	-1.7522	-53.403232	0.000730	7.297039	1.236152	0.000146
1922	1.9114e+02	-1.7333	-53.286155	0.000588	5.878170	0.995789	0.000118
1923	1.9124e+02	-1.7112	-53.120632	0.000831	8.310517	1.407840	0.000166
1924	1.9134e+02	-1.6926	-52.967221	0.000770	7.702430	1.304827	0.000154
1925	1.9144e+02	-1.6727	-52.838033	0.000649	6.486257	1.098802	0.000130
1926	1.9154e+02	-1.6525	-52.696733	0.000709	7.094344	1.201814	0.000142
1927	1.9164e+02	-1.6331	-52.555433	0.000709	7.094344	1.201814	0.000142
1928	1.9174e+02	-1.6125	-52.365688	0.000953	9.526690	1.613865	0.000191
1929	1.9184e+02	-1.5929	-52.224388	0.000709	7.094344	1.201814	0.000142
1930	1.9194e+02	-1.5736	-52.111348	0.000568	5.675475	0.961451	0.000114
1931	1.9203e+02	-1.5527	-51.929677	0.000912	9.121299	1.545190	0.000183
1932	1.9213e+02	-1.5331	-51.788377	0.000709	7.094344	1.201814	0.000142
1933	1.9223e+02	-1.5127	-51.695523	0.000466	4.661997	0.789764	0.000093
1934	1.9233e+02	-1.4936	-51.493666	0.001013	10.134776	1.716878	0.000203
1935	1.9243e+02	-1.4729	-51.364478	0.000649	6.486257	1.098802	0.000130
1936	1.9253e+02	-1.4531	-51.186844	0.000892	8.918603	1.510852	0.000179
1937	1.9263e+02	-1.4331	-51.049581	0.000689	6.891648	1.167477	0.000138
1938	1.9273e+02	-1.4133	-50.892133	0.000791	7.905126	1.339165	0.000158
1939	1.9283e+02	-1.3946	-50.758908	0.000669	6.688952	1.133139	0.000134
1940	1.9293e+02	-1.3738	-50.597422	0.000811	8.107821	1.373502	0.000162
1941	1.9303e+02	-1.3544	-50.439974	0.000791	7.905126	1.339165	0.000158
1942	1.9313e+02	-1.3336	-50.242154	0.000993	9.932081	1.682540	0.000199
1943	1.9323e+02	-1.3143	-50.177560	0.000324	3.243128	0.549401	0.000065
1944	1.9333e+02	-1.2943	-49.995889	0.000912	9.121299	1.545190	0.000183
1945	1.9343e+02	-1.2733	-49.850552	0.000730	7.297039	1.236152	0.000146
1946	1.9353e+02	-1.2543	-49.685030	0.000831	8.310517	1.407840	0.000166
1947	1.9363e+02	-1.2337	-49.563915	0.000608	6.080866	1.030127	0.000122
1948	1.9373e+02	-1.2141	-49.394356	0.000851	8.513212	1.442177	0.000170
1949	1.9383e+02	-1.1954	-49.228833	0.000831	8.310517	1.407840	0.000166
1950	1.9393e+02	-1.1753	-49.091571	0.000689	6.891648	1.167477	0.000138
1951	1.9403e+02	-1.1555	-48.970457	0.000608	6.080866	1.030127	0.000122
1952	1.9412e+02	-1.1351	-48.804934	0.000831	8.310517	1.407840	0.000166
1953	1.9422e+02	-1.1136	-48.679783	0.000628	6.283561	1.064464	0.000126
1954	1.9432e+02	-1.0954	-48.502149	0.000892	8.918603	1.510852	0.000179
1955	1.9442e+02	-1.0752	-48.360849	0.000709	7.094344	1.201814	0.000142
1956	1.9452e+02	-1.0550	-48.207438	0.000770	7.702430	1.304827	0.000154
1957	1.9462e+02	-1.0356	-48.037878	0.000851	8.513212	1.442177	0.000170
1958	1.9472e+02	-1.0150	-47.916764	0.000608	6.080866	1.030127	0.000122
1959	1.9482e+02	-0.9957	-47.751242	0.000831	8.310517	1.407840	0.000166
1960	1.9492e+02	-0.9760	-47.597830	0.000770	7.702430	1.304827	0.000154
1961	1.9502e+02	-0.9555	-47.432308	0.000831	8.310517	1.407840	0.000166
1962	1.9512e+02	-0.9349	-47.282934	0.000750	7.499735	1.270489	0.000150
1963	1.9522e+02	-0.9164	-47.157783	0.000628	6.283561	1.064464	0.000126
1964	1.9532e+02	-0.8961	-46.996297	0.000811	8.107821	1.373502	0.000162
1965	1.9542e+02	-0.8762	-46.854997	0.000709	7.094344	1.201814	0.000142
1966	1.9552e+02	-0.8570	-46.665252	0.000953	9.526690	1.613865	0.000191
1967	1.9562e+02	-0.8367	-46.511841	0.000770	7.702430	1.304827	0.000154
1968	1.9572e+02	-0.8163	-46.366504	0.000730	7.297039	1.236152	0.000146
1969	1.9582e+02	-0.7954	-46.205019	0.000811	8.107821	1.373502	0.000162
1970	1.9592e+02	-0.7772	-46.035459	0.000851	8.513212	1.442177	0.000170
1971	1.9601e+02	-0.7567	-45.902233	0.000669	6.688952	1.133139	0.000134
1972	1.9611e+02	-0.7364	-45.720562	0.000912	9.121299	1.545190	0.000183
1973	1.9621e+02	-0.7162	-45.559077	0.000811	8.107821	1.373502	0.000162
1974	1.9631e+02	-0.6968	-45.446037	0.000568	5.675475	0.961451	0.000114
1975	1.9641e+02	-0.6776	-45.244180	0.001013	10.134776	1.716878	0.000203
1976	1.9651e+02	-0.6583	-45.078658	0.000831	8.310517	1.407840	0.000166
1977	1.9661e+02	-0.6367	-44.965618	0.000568	5.675475	0.961451	0.000114
1978	1.9671e+02	-0.6173	-44.779910	0.000932	9.323994	1.579527	0.000187
1979	1.9681e+02	-0.5960	-44.610350	0.000851	8.513212	1.442177	0.000170
1980	1.9691e+02	-0.5770	-44.432716	0.000892	8.918603	1.510852	0.000179
1981	1.9701e+02	-0.5566	-44.335825	0.000486	4.864693	0.824101	0.000097
1982	1.9711e+02	-0.5379	-44.158191	0.000892	8.918603	1.510852	0.000179
1983	1.9721e+02	-0.5173	-43.988631	0.000851	8.513212	1.442177	0.000170
1984	1.9731e+02	-0.4966	-43.875591	0.000568	5.675475	0.961451	0.000114
1985	1.9741e+02	-0.4771	-43.693920	0.000912	9.121299	1.545190	0.000183
1986	1.9751e+02	-0.4578	-43.536472	0.000791	7.905126	1.339165	0.000158
1987	1.9761e+02	-0.4378	-43.370949	0.000831	8.310517	1.407840	0.000166
1988	1.9771e+02	-0.4173	-43.233687	0.000689	6.891648	1.167477	0.000138
1989	1.9781e+02	-0.3979	-43.052016	0.000912	9.121299	1.545190	0.000183
1990	1.9791e+02	-0.3780	-42.890530	0.000811	8.107821	1.373502	0.000162
1991	1.9800e+02	-0.3583	-42.733082	0.000791	7.905126	1.339165	0.000158
1992	1.9810e+02	-0.3380	-42.571596	0.000811	8.107821	1.373502	0.000162
1993	1.9820e+02	-0.3177	-42.426259	0.000730	7.297039	1.236152	0.000146
1994	1.9830e+02	-0.2982	-42.248625	0.000892	8.918603	1.510852	0.000179
1995	1.9840e+02	-0.2783	-42.103289	0.000730	7.297039	1.236152	0.000146
1996	1.9850e+02	-0.2576	-41.949877	0.000770	7.702430	1.304827	0.000154
1997	1.9860e+02	-0.2386	-41.792429	0.000791	7.905126	1.339165	0.000158
1998	1.9870e+02	-0.2187	-41.614795	0.000892	8.918603	1.510852	0.000179
1999	1.9880e+02	-0.1981	-41.449273	0.000831	8.310517	1.407840	0.000166
2000	1.9890e+02	-0.1785	-41.312010	0.000689	6.891648	1.167477	0.000138
2001	1.9900e+02	-0.1581	-41.142450	0.000851	8.513212	1.442177	0.000170
2002	1.9910e+02	-0.1389	-40.993076	0.000750	7.499735	1.270489	0.000150
2003	1.9920e+02	-0.1183	-40.859851	0.000669	6.688952	1.133139	0.000134
2004	1.9930e+02	-0.0992	-40.690291	0.000851	8.513212	1.442177	0.000170
2005	1.9940e+02	-0.0791	-40.516694	0.000872	8.715908	1.476515	0.000174
2006	1.9950e+02	-0.0595	-40.355209	0.000811	8.107821	1.373502	0.000162
2007	1.9960e+02	-0.0399	-40.173538	0.000912	9.121299	1.545190	0.000183
2008	1.9970e+02	-0.0203	-40.040312	0.000669	6.688952	1.133139	0.000134
2009	1.9980e+02	0.0001	-39.915161	0.000669	6.688952	1.133139	0.000126

PMax (uC/cm2):	6.65e+01
Pr (uC/cm2):	6.83e+00
-Pr (uC/cm2):	-6.34e+01
PLoss (uC/cm2):	-6.34e+01
-Vc:	-8.38e-01
C (Max-Eff) (nF):	6.66e-01
K (Eff):	1.13e+03
Vert. (+/-Pr) Shift (uC/cm2):	-2.83e+01
Offset (uC/cm2):	-2.35e+01

A (Loop Area - uC/cm2·Volts):	-2.61e-01



Hysteresis Version: 5.48.1 - Radiant Technologies, Inc., 1999 - 9/12/24

