»»»»»»»»»»»»»»»»»»»»»»»»»»»»»»»»»»»» Hysteresis ««««««««««««««««««««««««««««««««««««
»»»  Executed Version:	5.48.1
»»»  Vision Version:	5.48.4 (R)
»»»  Vision Compiled:	9/18/24
»»»  Driver Version:	5.47.0
»»»  Windows Version:	Windows 8 or 8.1
»»»  Processor Information:	x86 (AMD or Intel) - 32 Processors
»»»  Tester Name:	PMF21124-494 (100V)
»»»  Tester S/N:	PMF21124-494
»»»  Internal Amp Type:	100V RevK 270k
»»»  Internal Amp S/N:	iAB2-596/K     
»»»  Execution Count:	1
»»»»»»»»»»»»»»»»»»»»»»»»»»»»»»»»»»»»»»»»»»««««««««««««««««««««««««««««««««««««««««««

Stored:	7/1/2025 - 14:30:30
Configured:	07/01/25 10:49:51 AM
Executed:	07/01/25 02:30:01 PM

»»»»»»»»»»»»»»»»»»»»»»»»»»»»»»»»»»» Sample Info ««««««««««««««««««««««««««««««««««««
Sample Name:	
Lot Name:	
Wafer Name:	
Die Row/Column:	0/0
Capacitor Number:	0
Sample Area (cm2):	1.00e-04
Sample Thickness (microns):	1.50e-01

Amplifier:	Internal

»»»»»»»»»»»»»»»»»»»»»»»»»»»»»»»»»»» Tester Info «««««««««««««««««««««««««««««««««««
Tester Name:	PMF21124-494 (100V)
Tester Serial Number:	PMF21124-494
Return Signal Amp. Level:	0.19 [Index: 3]

»»»»»»»»»»»»»»»»»»»»»»»»»»»»»»»» Hysteresis Info ««««««««««««««««««««««««««««««««««
Task Name:	Hyst-22
Volts:	10.00
Field:	666.67 (kV/cm)
DCBias:	0.00
DCField:	0.00 (kV/cm)
Hysteresis Period (ms):	2.00e+02
Preset:	Enabled
Preset Delay (ms):	1.00e+03
Profile:	Standard Bipolar

»»»»»»»»»»»»»»»»»»»»»»»»»»»»»»»»»»»»»» Data «««««««««««««««««««««««««««««««««««««««
Points:	2009

Valid Data

Point	Time (ms)	Drive Voltage	Measured Polarization (uC/cm2)	Capacitance (uF)	Normalized Capacitance (uF/cm2)	Dielectric Constant	Instantaneous Current (mA)
   1	0.0000e+00	-0.0005	9.582142	0.000750	7.499391	1.270431	0.000150
   2	9.9500e-02	0.0185	9.731516	0.000750	7.499391	1.270431	0.000150
   3	1.9900e-01	0.0393	9.836481	0.000527	5.269842	0.892735	0.000105
   4	2.9850e-01	0.0583	10.002004	0.000831	8.310136	1.407775	0.000166
   5	3.9800e-01	0.0781	10.106969	0.000527	5.269842	0.892735	0.000105
   6	4.9750e-01	0.0986	10.244232	0.000689	6.891332	1.167423	0.000138
   7	5.9700e-01	0.1183	10.389569	0.000730	7.296705	1.236095	0.000146
   8	6.9650e-01	0.1385	10.482423	0.000466	4.661784	0.789728	0.000093
   9	7.9600e-01	0.1595	10.599500	0.000588	5.877901	0.995743	0.000118
  10	8.9550e-01	0.1780	10.736762	0.000689	6.891332	1.167423	0.000138
  11	9.9500e-01	0.1981	10.857877	0.000608	6.080587	1.030079	0.000122
  12	1.0945e+00	0.2187	10.983028	0.000628	6.283274	1.064415	0.000126
  13	1.1940e+00	0.2381	11.112216	0.000649	6.485960	1.098751	0.000130
  14	1.2935e+00	0.2584	11.221219	0.000547	5.472529	0.927071	0.000110
  15	1.3930e+00	0.2782	11.346370	0.000628	6.283274	1.064415	0.000126
  16	1.4925e+00	0.2969	11.503818	0.000790	7.904764	1.339103	0.000158
  17	1.5920e+00	0.3182	11.624932	0.000608	6.080587	1.030079	0.000122
  18	1.6915e+00	0.3383	11.721824	0.000486	4.864470	0.824064	0.000097
  19	1.7910e+00	0.3574	11.875235	0.000770	7.702077	1.304767	0.000154
  20	1.8905e+00	0.3776	11.992312	0.000588	5.877901	0.995743	0.000118
  21	1.9900e+00	0.3976	12.129574	0.000689	6.891332	1.167423	0.000138
  22	2.0895e+00	0.4178	12.250688	0.000608	6.080587	1.030079	0.000122
  23	2.1890e+00	0.4360	12.367765	0.000588	5.877901	0.995743	0.000118
  24	2.2885e+00	0.4579	12.500991	0.000669	6.688646	1.133087	0.000134
  25	2.3880e+00	0.4774	12.609993	0.000547	5.472529	0.927071	0.000110
  26	2.4875e+00	0.4971	12.759368	0.000750	7.499391	1.270431	0.000150
  27	2.5870e+00	0.5171	12.840110	0.000405	4.053725	0.686720	0.000081
  28	2.6865e+00	0.5371	12.985447	0.000730	7.296705	1.236095	0.000146
  29	2.7860e+00	0.5576	13.134821	0.000750	7.499391	1.270431	0.000150
  30	2.8855e+00	0.5775	13.251898	0.000588	5.877901	0.995743	0.000118
  31	2.9850e+00	0.5966	13.401272	0.000750	7.499391	1.270431	0.000150
  32	3.0845e+00	0.6173	13.554683	0.000770	7.702077	1.304767	0.000154
  33	3.1840e+00	0.6372	13.679834	0.000628	6.283274	1.064415	0.000126
  34	3.2835e+00	0.6564	13.813060	0.000669	6.688646	1.133087	0.000134
  35	3.3830e+00	0.6777	13.926100	0.000568	5.675215	0.961407	0.000114
  36	3.4825e+00	0.6963	14.063362	0.000689	6.891332	1.167423	0.000138
  37	3.5820e+00	0.7159	14.164291	0.000507	5.067156	0.858400	0.000101
  38	3.6815e+00	0.7358	14.345962	0.000912	9.120881	1.545119	0.000183
  39	3.7810e+00	0.7563	14.414593	0.000345	3.445666	0.583712	0.000069
  40	3.8805e+00	0.7761	14.568004	0.000770	7.702077	1.304767	0.000154
  41	3.9800e+00	0.7957	14.701230	0.000669	6.688646	1.133087	0.000134
  42	4.0795e+00	0.8159	14.862715	0.000811	8.107450	1.373439	0.000162
  43	4.1790e+00	0.8356	14.987866	0.000628	6.283274	1.064415	0.000126
  44	4.2785e+00	0.8562	15.113018	0.000628	6.283274	1.064415	0.000126
  45	4.3780e+00	0.8751	15.234132	0.000608	6.080587	1.030079	0.000122
  46	4.4775e+00	0.8951	15.351209	0.000588	5.877901	0.995743	0.000118
  47	4.5770e+00	0.9159	15.484434	0.000669	6.688646	1.133087	0.000134
  48	4.6765e+00	0.9361	15.625734	0.000709	7.094019	1.201759	0.000142
  49	4.7760e+00	0.9556	15.771071	0.000730	7.296705	1.236095	0.000146
  50	4.8755e+00	0.9756	15.896222	0.000628	6.283274	1.064415	0.000126
  51	4.9750e+00	0.9946	16.053670	0.000790	7.904764	1.339103	0.000158
  52	5.0745e+00	1.0155	16.178821	0.000628	6.283274	1.064415	0.000126
  53	5.1740e+00	1.0350	16.316084	0.000689	6.891332	1.167423	0.000138
  54	5.2735e+00	1.0546	16.429124	0.000568	5.675215	0.961407	0.000114
  55	5.3730e+00	1.0757	16.562349	0.000669	6.688646	1.133087	0.000134
  56	5.4725e+00	1.0954	16.707686	0.000730	7.296705	1.236095	0.000146
  57	5.5720e+00	1.1151	16.836875	0.000649	6.485960	1.098751	0.000130
  58	5.6715e+00	1.1356	16.949914	0.000568	5.675215	0.961407	0.000114
  59	5.7710e+00	1.1549	17.135623	0.000932	9.323567	1.579455	0.000187
  60	5.8705e+00	1.1747	17.224440	0.000446	4.459097	0.755392	0.000089
  61	5.9700e+00	1.1949	17.373814	0.000750	7.499391	1.270431	0.000150
  62	6.0695e+00	1.2160	17.519151	0.000730	7.296705	1.236095	0.000146
  63	6.1690e+00	1.2346	17.660450	0.000709	7.094019	1.201759	0.000142
  64	6.2685e+00	1.2549	17.765416	0.000527	5.269842	0.892735	0.000105
  65	6.3680e+00	1.2741	17.886530	0.000608	6.080587	1.030079	0.000122
  66	6.4675e+00	1.2939	18.072238	0.000932	9.323567	1.579455	0.000187
  67	6.5670e+00	1.3137	18.193352	0.000608	6.080587	1.030079	0.000122
  68	6.6665e+00	1.3335	18.346763	0.000770	7.702077	1.304767	0.000154
  69	6.7660e+00	1.3529	18.463840	0.000588	5.877901	0.995743	0.000118
  70	6.8655e+00	1.3732	18.625326	0.000811	8.107450	1.373439	0.000162
  71	6.9650e+00	1.3937	18.722217	0.000486	4.864470	0.824064	0.000097
  72	7.0645e+00	1.4121	18.903888	0.000912	9.120881	1.545119	0.000183
  73	7.1640e+00	1.4336	19.069411	0.000831	8.310136	1.407775	0.000166
  74	7.2635e+00	1.4540	19.166302	0.000486	4.864470	0.824064	0.000097
  75	7.3630e+00	1.4732	19.352010	0.000932	9.323567	1.579455	0.000187
  76	7.4625e+00	1.4927	19.444864	0.000466	4.661784	0.789728	0.000093
  77	7.5620e+00	1.5133	19.610387	0.000831	8.310136	1.407775	0.000166
  78	7.6615e+00	1.5322	19.783984	0.000872	8.715509	1.476447	0.000174
  79	7.7610e+00	1.5526	19.888949	0.000527	5.269842	0.892735	0.000105
  80	7.8605e+00	1.5737	20.030249	0.000709	7.094019	1.201759	0.000142
  81	7.9600e+00	1.5931	20.199809	0.000851	8.512822	1.442111	0.000170
  82	8.0595e+00	1.6129	20.333034	0.000669	6.688646	1.133087	0.000134
  83	8.1590e+00	1.6326	20.454148	0.000608	6.080587	1.030079	0.000122
  84	8.2585e+00	1.6521	20.635819	0.000912	9.120881	1.545119	0.000183
  85	8.3580e+00	1.6733	20.801342	0.000831	8.310136	1.407775	0.000166
  86	8.4575e+00	1.6923	20.902270	0.000507	5.067156	0.858400	0.000101
  87	8.5570e+00	1.7126	21.075867	0.000872	8.715509	1.476447	0.000174
  88	8.6565e+00	1.7327	21.229278	0.000770	7.702077	1.304767	0.000154
  89	8.7560e+00	1.7528	21.342318	0.000568	5.675215	0.961407	0.000114
  90	8.8555e+00	1.7725	21.507841	0.000831	8.310136	1.407775	0.000166
  91	8.9550e+00	1.7918	21.657215	0.000750	7.499391	1.270431	0.000150
  92	9.0545e+00	1.8121	21.774292	0.000588	5.877901	0.995743	0.000118
  93	9.1540e+00	1.8318	21.911554	0.000689	6.891332	1.167423	0.000138
  94	9.2535e+00	1.8513	22.085151	0.000872	8.715509	1.476447	0.000174
  95	9.3530e+00	1.8721	22.214339	0.000649	6.485960	1.098751	0.000130
  96	9.4525e+00	1.8916	22.351602	0.000689	6.891332	1.167423	0.000138
  97	9.5520e+00	1.9112	22.509050	0.000790	7.904764	1.339103	0.000158
  98	9.6515e+00	1.9311	22.666499	0.000790	7.904764	1.339103	0.000158
  99	9.7510e+00	1.9527	22.807798	0.000709	7.094019	1.201759	0.000142
 100	9.8505e+00	1.9720	22.953135	0.000730	7.296705	1.236095	0.000146
 101	9.9500e+00	1.9914	23.090398	0.000689	6.891332	1.167423	0.000138
 102	1.0050e+01	2.0119	23.215549	0.000628	6.283274	1.064415	0.000126
 103	1.0149e+01	2.0305	23.377034	0.000811	8.107450	1.373439	0.000162
 104	1.0248e+01	2.0501	23.506223	0.000649	6.485960	1.098751	0.000130
 105	1.0348e+01	2.0713	23.667708	0.000811	8.107450	1.373439	0.000162
 106	1.0447e+01	2.0899	23.849379	0.000912	9.120881	1.545119	0.000183
 107	1.0547e+01	2.1108	23.958382	0.000547	5.472529	0.927071	0.000110
 108	1.0646e+01	2.1304	24.095645	0.000689	6.891332	1.167423	0.000138
 109	1.0746e+01	2.1510	24.293464	0.000993	9.931626	1.682463	0.000199
 110	1.0845e+01	2.1717	24.378244	0.000426	4.256411	0.721056	0.000085
 111	1.0945e+01	2.1910	24.563952	0.000932	9.323567	1.579455	0.000187
 112	1.1044e+01	2.2099	24.705252	0.000709	7.094019	1.201759	0.000142
 113	1.1144e+01	2.2308	24.834440	0.000649	6.485960	1.098751	0.000130
 114	1.1243e+01	2.2509	24.991889	0.000790	7.904764	1.339103	0.000158
 115	1.1343e+01	2.2704	25.149337	0.000790	7.904764	1.339103	0.000158
 116	1.1443e+01	2.2906	25.290637	0.000709	7.094019	1.201759	0.000142
 117	1.1542e+01	2.3100	25.448085	0.000790	7.904764	1.339103	0.000158
 118	1.1642e+01	2.3300	25.577273	0.000649	6.485960	1.098751	0.000130
 119	1.1741e+01	2.3504	25.730685	0.000770	7.702077	1.304767	0.000154
 120	1.1841e+01	2.3697	25.880059	0.000750	7.499391	1.270431	0.000150
 121	1.1940e+01	2.3906	26.045581	0.000831	8.310136	1.407775	0.000166
 122	1.2040e+01	2.4093	26.158621	0.000568	5.675215	0.961407	0.000114
 123	1.2139e+01	2.4300	26.332218	0.000872	8.715509	1.476447	0.000174
 124	1.2239e+01	2.4501	26.469480	0.000689	6.891332	1.167423	0.000138
 125	1.2338e+01	2.4685	26.635003	0.000831	8.310136	1.407775	0.000166
 126	1.2438e+01	2.4896	26.776303	0.000709	7.094019	1.201759	0.000142
 127	1.2537e+01	2.5095	26.853008	0.000385	3.851039	0.652384	0.000077
 128	1.2636e+01	2.5292	27.058902	0.001034	10.336999	1.751135	0.000207
 129	1.2736e+01	2.5495	27.180016	0.000608	6.080587	1.030079	0.000122
 130	1.2835e+01	2.5690	27.301130	0.000608	6.080587	1.030079	0.000122
 131	1.2935e+01	2.5887	27.498950	0.000993	9.931626	1.682463	0.000199
 132	1.3034e+01	2.6090	27.680621	0.000912	9.120881	1.545119	0.000183
 133	1.3134e+01	2.6289	27.781550	0.000507	5.067156	0.858400	0.000101
 134	1.3233e+01	2.6492	27.955146	0.000872	8.715509	1.476447	0.000174
 135	1.3333e+01	2.6692	28.092409	0.000689	6.891332	1.167423	0.000138
 136	1.3432e+01	2.6879	28.270043	0.000892	8.918195	1.510783	0.000179
 137	1.3532e+01	2.7084	28.395194	0.000628	6.283274	1.064415	0.000126
 138	1.3632e+01	2.7283	28.516308	0.000608	6.080587	1.030079	0.000122
 139	1.3731e+01	2.7477	28.685868	0.000851	8.512822	1.442111	0.000170
 140	1.3831e+01	2.7684	28.863502	0.000892	8.918195	1.510783	0.000179
 141	1.3930e+01	2.7883	28.968467	0.000527	5.269842	0.892735	0.000105
 142	1.4030e+01	2.8083	29.146101	0.000892	8.918195	1.510783	0.000179
 143	1.4129e+01	2.8277	29.263178	0.000588	5.877901	0.995743	0.000118
 144	1.4229e+01	2.8470	29.436775	0.000872	8.715509	1.476447	0.000174
 145	1.4328e+01	2.8680	29.622483	0.000932	9.323567	1.579455	0.000187
 146	1.4428e+01	2.8880	29.707263	0.000426	4.256411	0.721056	0.000085
 147	1.4527e+01	2.9073	29.868749	0.000811	8.107450	1.373439	0.000162
 148	1.4627e+01	2.9278	30.046383	0.000892	8.918195	1.510783	0.000179
 149	1.4726e+01	2.9470	30.151348	0.000527	5.269842	0.892735	0.000105
 150	1.4825e+01	2.9671	30.276499	0.000628	6.283274	1.064415	0.000126
 151	1.4925e+01	2.9869	30.466245	0.000953	9.526254	1.613791	0.000191
 152	1.5024e+01	3.0071	30.615619	0.000750	7.499391	1.270431	0.000150
 153	1.5124e+01	3.0264	30.696362	0.000405	4.053725	0.686720	0.000081
 154	1.5223e+01	3.0468	30.886107	0.000953	9.526254	1.613791	0.000191
 155	1.5323e+01	3.0672	31.051630	0.000831	8.310136	1.407775	0.000166
 156	1.5422e+01	3.0865	31.180818	0.000649	6.485960	1.098751	0.000130
 157	1.5522e+01	3.1065	31.314043	0.000669	6.688646	1.133087	0.000134
 158	1.5621e+01	3.1268	31.467455	0.000770	7.702077	1.304767	0.000154
 159	1.5721e+01	3.1470	31.592606	0.000628	6.283274	1.064415	0.000126
 160	1.5820e+01	3.1670	31.717757	0.000628	6.283274	1.064415	0.000126
 161	1.5920e+01	3.1876	31.887317	0.000851	8.512822	1.442111	0.000170
 162	1.6020e+01	3.2061	31.984208	0.000486	4.864470	0.824064	0.000097
 163	1.6119e+01	3.2269	32.182028	0.000993	9.931626	1.682463	0.000199
 164	1.6218e+01	3.2459	32.299104	0.000588	5.877901	0.995743	0.000118
 165	1.6318e+01	3.2662	32.408107	0.000547	5.472529	0.927071	0.000110
 166	1.6418e+01	3.2856	32.597853	0.000953	9.526254	1.613791	0.000191
 167	1.6517e+01	3.3056	32.735115	0.000689	6.891332	1.167423	0.000138
 168	1.6616e+01	3.3263	32.880452	0.000730	7.296705	1.236095	0.000146
 169	1.6716e+01	3.3465	32.981380	0.000507	5.067156	0.858400	0.000101
 170	1.6816e+01	3.3656	33.118643	0.000689	6.891332	1.167423	0.000138
 171	1.6915e+01	3.3892	33.284166	0.000831	8.310136	1.407775	0.000166
 172	1.7015e+01	3.4057	33.425465	0.000709	7.094019	1.201759	0.000142
 173	1.7114e+01	3.4258	33.542542	0.000588	5.877901	0.995743	0.000118
 174	1.7213e+01	3.4457	33.683842	0.000709	7.094019	1.201759	0.000142
 175	1.7313e+01	3.4661	33.817068	0.000669	6.688646	1.133087	0.000134
 176	1.7413e+01	3.4854	33.970479	0.000770	7.702077	1.304767	0.000154
 177	1.7512e+01	3.5050	34.103704	0.000669	6.688646	1.133087	0.000134
 178	1.7611e+01	3.5249	34.240967	0.000689	6.891332	1.167423	0.000138
 179	1.7711e+01	3.5453	34.402452	0.000811	8.107450	1.373439	0.000162
 180	1.7811e+01	3.5650	34.535678	0.000669	6.688646	1.133087	0.000134
 181	1.7910e+01	3.5845	34.648717	0.000568	5.675215	0.961407	0.000114
 182	1.8009e+01	3.6053	34.765794	0.000588	5.877901	0.995743	0.000118
 183	1.8109e+01	3.6241	34.923243	0.000790	7.904764	1.339103	0.000158
 184	1.8209e+01	3.6445	35.072617	0.000750	7.499391	1.270431	0.000150
 185	1.8308e+01	3.6656	35.209879	0.000689	6.891332	1.167423	0.000138
 186	1.8407e+01	3.6852	35.339068	0.000649	6.485960	1.098751	0.000130
 187	1.8507e+01	3.7049	35.484405	0.000730	7.296705	1.236095	0.000146
 188	1.8607e+01	3.7236	35.621667	0.000689	6.891332	1.167423	0.000138
 189	1.8706e+01	3.7441	35.771041	0.000750	7.499391	1.270431	0.000150
 190	1.8805e+01	3.7649	35.904267	0.000669	6.688646	1.133087	0.000134
 191	1.8905e+01	3.7843	35.997121	0.000466	4.661784	0.789728	0.000093
 192	1.9005e+01	3.8026	36.166681	0.000851	8.512822	1.442111	0.000170
 193	1.9104e+01	3.8252	36.283757	0.000588	5.877901	0.995743	0.000118
 194	1.9203e+01	3.8447	36.433131	0.000750	7.499391	1.270431	0.000150
 195	1.9303e+01	3.8632	36.554246	0.000608	6.080587	1.030079	0.000122
 196	1.9402e+01	3.8837	36.711694	0.000790	7.904764	1.339103	0.000158
 197	1.9502e+01	3.9043	36.832808	0.000608	6.080587	1.030079	0.000122
 198	1.9602e+01	3.9240	36.957959	0.000628	6.283274	1.064415	0.000126
 199	1.9701e+01	3.9436	37.091185	0.000669	6.688646	1.133087	0.000134
 200	1.9800e+01	3.9634	37.228447	0.000689	6.891332	1.167423	0.000138
 201	1.9900e+01	3.9836	37.402044	0.000872	8.715509	1.476447	0.000174
 202	2.0000e+01	4.0043	37.519121	0.000588	5.877901	0.995743	0.000118
 203	2.0099e+01	4.0234	37.611975	0.000466	4.661784	0.789728	0.000093
 204	2.0198e+01	4.0430	37.785572	0.000872	8.715509	1.476447	0.000174
 205	2.0298e+01	4.0625	37.938983	0.000770	7.702077	1.304767	0.000154
 206	2.0398e+01	4.0827	38.039911	0.000507	5.067156	0.858400	0.000101
 207	2.0497e+01	4.1032	38.197360	0.000790	7.904764	1.339103	0.000158
 208	2.0596e+01	4.1228	38.282140	0.000426	4.256411	0.721056	0.000085
 209	2.0696e+01	4.1431	38.467848	0.000932	9.323567	1.579455	0.000187
 210	2.0796e+01	4.1625	38.548591	0.000405	4.053725	0.686720	0.000081
 211	2.0895e+01	4.1827	38.693927	0.000730	7.296705	1.236095	0.000146
 212	2.0994e+01	4.2027	38.831190	0.000689	6.891332	1.167423	0.000138
 213	2.1094e+01	4.2216	38.936156	0.000527	5.269842	0.892735	0.000105
 214	2.1194e+01	4.2418	39.033047	0.000486	4.864470	0.824064	0.000097
 215	2.1293e+01	4.2619	39.210681	0.000892	8.918195	1.510783	0.000179
 216	2.1392e+01	4.2825	39.331795	0.000608	6.080587	1.030079	0.000122
 217	2.1492e+01	4.3025	39.460983	0.000649	6.485960	1.098751	0.000130
 218	2.1591e+01	4.3213	39.586134	0.000628	6.283274	1.064415	0.000126
 219	2.1691e+01	4.3421	39.711286	0.000628	6.283274	1.064415	0.000126
 220	2.1791e+01	4.3623	39.848548	0.000689	6.891332	1.167423	0.000138
 221	2.1890e+01	4.3819	39.953514	0.000527	5.269842	0.892735	0.000105
 222	2.1989e+01	4.4012	40.127111	0.000872	8.715509	1.476447	0.000174
 223	2.2089e+01	4.4216	40.236113	0.000547	5.472529	0.927071	0.000110
 224	2.2189e+01	4.4415	40.361265	0.000628	6.283274	1.064415	0.000126
 225	2.2288e+01	4.4607	40.478341	0.000588	5.877901	0.995743	0.000118
 226	2.2387e+01	4.4810	40.603493	0.000628	6.283274	1.064415	0.000126
 227	2.2487e+01	4.5005	40.732681	0.000649	6.485960	1.098751	0.000130
 228	2.2587e+01	4.5216	40.873981	0.000709	7.094019	1.201759	0.000142
 229	2.2686e+01	4.5406	41.011243	0.000689	6.891332	1.167423	0.000138
 230	2.2785e+01	4.5608	41.124283	0.000568	5.675215	0.961407	0.000114
 231	2.2885e+01	4.5814	41.249434	0.000628	6.283274	1.064415	0.000126
 232	2.2985e+01	4.5998	41.398808	0.000750	7.499391	1.270431	0.000150
 233	2.3084e+01	4.6206	41.507811	0.000547	5.472529	0.927071	0.000110
 234	2.3183e+01	4.6404	41.632962	0.000628	6.283274	1.064415	0.000126
 235	2.3283e+01	4.6609	41.782336	0.000750	7.499391	1.270431	0.000150
 236	2.3383e+01	4.6810	41.899413	0.000588	5.877901	0.995743	0.000118
 237	2.3482e+01	4.7004	42.020527	0.000608	6.080587	1.030079	0.000122
 238	2.3581e+01	4.7215	42.153753	0.000669	6.688646	1.133087	0.000134
 239	2.3681e+01	4.7398	42.286978	0.000669	6.688646	1.133087	0.000134
 240	2.3780e+01	4.7600	42.395981	0.000547	5.472529	0.927071	0.000110
 241	2.3880e+01	4.7805	42.561504	0.000831	8.310136	1.407775	0.000166
 242	2.3980e+01	4.8006	42.674543	0.000568	5.675215	0.961407	0.000114
 243	2.4079e+01	4.8187	42.787583	0.000568	5.675215	0.961407	0.000114
 244	2.4178e+01	4.8406	42.932920	0.000730	7.296705	1.236095	0.000146
 245	2.4278e+01	4.8603	43.086331	0.000770	7.702077	1.304767	0.000154
 246	2.4378e+01	4.8798	43.163037	0.000385	3.851039	0.652384	0.000077
 247	2.4477e+01	4.9004	43.344708	0.000912	9.120881	1.545119	0.000183
 248	2.4576e+01	4.9197	43.465822	0.000608	6.080587	1.030079	0.000122
 249	2.4676e+01	4.9400	43.603085	0.000689	6.891332	1.167423	0.000138
 250	2.4776e+01	4.9610	43.720161	0.000588	5.877901	0.995743	0.000118
 251	2.4875e+01	4.9798	43.825127	0.000527	5.269842	0.892735	0.000105
 252	2.4974e+01	4.9993	43.990650	0.000831	8.310136	1.407775	0.000166
 253	2.5074e+01	5.0198	44.123875	0.000669	6.688646	1.133087	0.000134
 254	2.5174e+01	5.0391	44.249026	0.000628	6.283274	1.064415	0.000126
 255	2.5273e+01	5.0583	44.321695	0.000365	3.648352	0.618048	0.000073
 256	2.5372e+01	5.0781	44.467032	0.000730	7.296705	1.236095	0.000146
 257	2.5472e+01	5.0986	44.588146	0.000608	6.080587	1.030079	0.000122
 258	2.5572e+01	5.1183	44.709260	0.000608	6.080587	1.030079	0.000122
 259	2.5671e+01	5.1385	44.842485	0.000669	6.688646	1.133087	0.000134
 260	2.5770e+01	5.1588	44.959562	0.000588	5.877901	0.995743	0.000118
 261	2.5870e+01	5.1781	45.092788	0.000669	6.688646	1.133087	0.000134
 262	2.5970e+01	5.1980	45.262347	0.000851	8.512822	1.442111	0.000170
 263	2.6069e+01	5.2181	45.375387	0.000568	5.675215	0.961407	0.000114
 264	2.6169e+01	5.2383	45.500538	0.000628	6.283274	1.064415	0.000126
 265	2.6268e+01	5.2586	45.637801	0.000689	6.891332	1.167423	0.000138
 266	2.6367e+01	5.2795	45.783138	0.000730	7.296705	1.236095	0.000146
 267	2.6467e+01	5.2980	45.863881	0.000405	4.053725	0.686720	0.000081
 268	2.6567e+01	5.3185	45.997106	0.000669	6.688646	1.133087	0.000134
 269	2.6666e+01	5.3381	46.142443	0.000730	7.296705	1.236095	0.000146
 270	2.6765e+01	5.3571	46.271631	0.000649	6.485960	1.098751	0.000130
 271	2.6865e+01	5.3783	46.392745	0.000608	6.080587	1.030079	0.000122
 272	2.6965e+01	5.3982	46.493674	0.000507	5.067156	0.858400	0.000101
 273	2.7064e+01	5.4182	46.647085	0.000770	7.702077	1.304767	0.000154
 274	2.7163e+01	5.4375	46.743976	0.000486	4.864470	0.824064	0.000097
 275	2.7263e+01	5.4577	46.852979	0.000547	5.472529	0.927071	0.000110
 276	2.7363e+01	5.4772	46.961981	0.000547	5.472529	0.927071	0.000110
 277	2.7462e+01	5.4973	47.143653	0.000912	9.120881	1.545119	0.000183
 278	2.7561e+01	5.5168	47.293027	0.000750	7.499391	1.270431	0.000150
 279	2.7661e+01	5.5383	47.377806	0.000426	4.256411	0.721056	0.000085
 280	2.7761e+01	5.5569	47.523143	0.000730	7.296705	1.236095	0.000146
 281	2.7860e+01	5.5775	47.624072	0.000507	5.067156	0.858400	0.000101
 282	2.7959e+01	5.5964	47.729037	0.000527	5.269842	0.892735	0.000105
 283	2.8059e+01	5.6167	47.890523	0.000811	8.107450	1.373439	0.000162
 284	2.8159e+01	5.6370	48.052008	0.000811	8.107450	1.373439	0.000162
 285	2.8258e+01	5.6557	48.132751	0.000405	4.053725	0.686720	0.000081
 286	2.8358e+01	5.6762	48.306348	0.000872	8.715509	1.476447	0.000174
 287	2.8457e+01	5.6969	48.379016	0.000365	3.648352	0.618048	0.000073
 288	2.8556e+01	5.7171	48.504167	0.000628	6.283274	1.064415	0.000126
 289	2.8656e+01	5.7368	48.629319	0.000628	6.283274	1.064415	0.000126
 290	2.8756e+01	5.7554	48.758507	0.000649	6.485960	1.098751	0.000130
 291	2.8855e+01	5.7775	48.879621	0.000608	6.080587	1.030079	0.000122
 292	2.8954e+01	5.7957	49.012846	0.000669	6.688646	1.133087	0.000134
 293	2.9054e+01	5.8164	49.105701	0.000466	4.661784	0.789728	0.000093
 294	2.9154e+01	5.8363	49.259112	0.000770	7.702077	1.304767	0.000154
 295	2.9253e+01	5.8559	49.384263	0.000628	6.283274	1.064415	0.000126
 296	2.9352e+01	5.8752	49.513451	0.000649	6.485960	1.098751	0.000130
 297	2.9452e+01	5.8947	49.590157	0.000385	3.851039	0.652384	0.000077
 298	2.9552e+01	5.9158	49.775865	0.000932	9.323567	1.579455	0.000187
 299	2.9651e+01	5.9348	49.856608	0.000405	4.053725	0.686720	0.000081
 300	2.9750e+01	5.9548	50.005982	0.000750	7.499391	1.270431	0.000150
 301	2.9850e+01	5.9750	50.123059	0.000588	5.877901	0.995743	0.000118
 302	2.9950e+01	5.9962	50.264359	0.000709	7.094019	1.201759	0.000142
 303	3.0049e+01	6.0159	50.389510	0.000628	6.283274	1.064415	0.000126
 304	3.0148e+01	6.0352	50.502550	0.000568	5.675215	0.961407	0.000114
 305	3.0248e+01	6.0552	50.643849	0.000709	7.094019	1.201759	0.000142
 306	3.0348e+01	6.0751	50.760926	0.000588	5.877901	0.995743	0.000118
 307	3.0447e+01	6.0958	50.882040	0.000608	6.080587	1.030079	0.000122
 308	3.0547e+01	6.1147	51.051600	0.000851	8.512822	1.442111	0.000170
 309	3.0646e+01	6.1346	51.164640	0.000568	5.675215	0.961407	0.000114
 310	3.0745e+01	6.1516	51.233271	0.000345	3.445666	0.583712	0.000069
 311	3.0845e+01	6.1742	51.406868	0.000872	8.715509	1.476447	0.000174
 312	3.0945e+01	6.1944	51.475499	0.000345	3.445666	0.583712	0.000069
 313	3.1044e+01	6.2151	51.608725	0.000669	6.688646	1.133087	0.000134
 314	3.1143e+01	6.2354	51.750024	0.000709	7.094019	1.201759	0.000142
 315	3.1243e+01	6.2540	51.863064	0.000568	5.675215	0.961407	0.000114
 316	3.1343e+01	6.2734	51.931696	0.000345	3.445666	0.583712	0.000069
 317	3.1442e+01	6.2942	52.097218	0.000831	8.310136	1.407775	0.000166
 318	3.1541e+01	6.3139	52.210258	0.000568	5.675215	0.961407	0.000114
 319	3.1641e+01	6.3326	52.335409	0.000628	6.283274	1.064415	0.000126
 320	3.1741e+01	6.3531	52.464597	0.000649	6.485960	1.098751	0.000130
 321	3.1840e+01	6.3736	52.577637	0.000568	5.675215	0.961407	0.000114
 322	3.1939e+01	6.3930	52.698751	0.000608	6.080587	1.030079	0.000122
 323	3.2039e+01	6.4121	52.803717	0.000527	5.269842	0.892735	0.000105
 324	3.2139e+01	6.4326	52.936942	0.000669	6.688646	1.133087	0.000134
 325	3.2238e+01	6.4529	53.058056	0.000608	6.080587	1.030079	0.000122
 326	3.2337e+01	6.4727	53.146873	0.000446	4.459097	0.755392	0.000089
 327	3.2437e+01	6.4924	53.272025	0.000628	6.283274	1.064415	0.000126
 328	3.2536e+01	6.5124	53.389102	0.000588	5.877901	0.995743	0.000118
 329	3.2636e+01	6.5325	53.522327	0.000669	6.688646	1.133087	0.000134
 330	3.2736e+01	6.5517	53.627293	0.000527	5.269842	0.892735	0.000105
 331	3.2835e+01	6.5707	53.724184	0.000486	4.864470	0.824064	0.000097
 332	3.2934e+01	6.5931	53.841261	0.000588	5.877901	0.995743	0.000118
 333	3.3034e+01	6.6125	53.966412	0.000628	6.283274	1.064415	0.000126
 334	3.3133e+01	6.6324	54.099637	0.000669	6.688646	1.133087	0.000134
 335	3.3233e+01	6.6528	54.208640	0.000547	5.472529	0.927071	0.000110
 336	3.3333e+01	6.6722	54.317643	0.000547	5.472529	0.927071	0.000110
 337	3.3432e+01	6.6916	54.434720	0.000588	5.877901	0.995743	0.000118
 338	3.3532e+01	6.7126	54.535648	0.000507	5.067156	0.858400	0.000101
 339	3.3631e+01	6.7318	54.660799	0.000628	6.283274	1.064415	0.000126
 340	3.3730e+01	6.7513	54.769802	0.000547	5.472529	0.927071	0.000110
 341	3.3830e+01	6.7722	54.907065	0.000689	6.891332	1.167423	0.000138
 342	3.3929e+01	6.7921	54.999919	0.000466	4.661784	0.789728	0.000093
 343	3.4029e+01	6.8114	55.104884	0.000527	5.269842	0.892735	0.000105
 344	3.4129e+01	6.8316	55.230035	0.000628	6.283274	1.064415	0.000126
 345	3.4228e+01	6.8525	55.351150	0.000608	6.080587	1.030079	0.000122
 346	3.4328e+01	6.8710	55.431892	0.000405	4.053725	0.686720	0.000081
 347	3.4427e+01	6.8913	55.536858	0.000527	5.269842	0.892735	0.000105
 348	3.4526e+01	6.9109	55.653935	0.000588	5.877901	0.995743	0.000118
 349	3.4626e+01	6.9310	55.783123	0.000649	6.485960	1.098751	0.000130
 350	3.4725e+01	6.9500	55.884051	0.000507	5.067156	0.858400	0.000101
 351	3.4825e+01	6.9708	55.984980	0.000507	5.067156	0.858400	0.000101
 352	3.4925e+01	6.9906	56.122242	0.000689	6.891332	1.167423	0.000138
 353	3.5024e+01	7.0119	56.207022	0.000426	4.256411	0.721056	0.000085
 354	3.5123e+01	7.0308	56.344285	0.000689	6.891332	1.167423	0.000138
 355	3.5223e+01	7.0501	56.457325	0.000568	5.675215	0.961407	0.000114
 356	3.5322e+01	7.0708	56.558253	0.000507	5.067156	0.858400	0.000101
 357	3.5422e+01	7.0898	56.695516	0.000689	6.891332	1.167423	0.000138
 358	3.5522e+01	7.1098	56.772221	0.000385	3.851039	0.652384	0.000077
 359	3.5621e+01	7.1304	56.901410	0.000649	6.485960	1.098751	0.000130
 360	3.5721e+01	7.1496	57.018487	0.000588	5.877901	0.995743	0.000118
 361	3.5820e+01	7.1693	57.123452	0.000527	5.269842	0.892735	0.000105
 362	3.5919e+01	7.1907	57.256678	0.000669	6.688646	1.133087	0.000134
 363	3.6019e+01	7.2100	57.309160	0.000263	2.634921	0.446368	0.000053
 364	3.6118e+01	7.2295	57.434312	0.000628	6.283274	1.064415	0.000126
 365	3.6218e+01	7.2494	57.535240	0.000507	5.067156	0.858400	0.000101
 366	3.6318e+01	7.2688	57.652317	0.000588	5.877901	0.995743	0.000118
 367	3.6417e+01	7.2904	57.765357	0.000568	5.675215	0.961407	0.000114
 368	3.6517e+01	7.3089	57.886471	0.000608	6.080587	1.030079	0.000122
 369	3.6616e+01	7.3304	57.983362	0.000486	4.864470	0.824064	0.000097
 370	3.6715e+01	7.3498	58.116588	0.000669	6.688646	1.133087	0.000134
 371	3.6815e+01	7.3685	58.225590	0.000547	5.472529	0.927071	0.000110
 372	3.6914e+01	7.3890	58.326519	0.000507	5.067156	0.858400	0.000101
 373	3.7014e+01	7.4099	58.447633	0.000608	6.080587	1.030079	0.000122
 374	3.7114e+01	7.4294	58.580858	0.000669	6.688646	1.133087	0.000134
 375	3.7213e+01	7.4491	58.637378	0.000284	2.837607	0.480704	0.000057
 376	3.7313e+01	7.4695	58.722158	0.000426	4.256411	0.721056	0.000085
 377	3.7412e+01	7.4896	58.875569	0.000770	7.702077	1.304767	0.000154
 378	3.7511e+01	7.5084	58.976497	0.000507	5.067156	0.858400	0.000101
 379	3.7611e+01	7.5282	59.105686	0.000649	6.485960	1.098751	0.000130
 380	3.7711e+01	7.5484	59.174317	0.000345	3.445666	0.583712	0.000069
 381	3.7810e+01	7.5691	59.275245	0.000507	5.067156	0.858400	0.000101
 382	3.7910e+01	7.5880	59.400397	0.000628	6.283274	1.064415	0.000126
 383	3.8009e+01	7.6083	59.497288	0.000486	4.864470	0.824064	0.000097
 384	3.8108e+01	7.6291	59.622439	0.000628	6.283274	1.064415	0.000126
 385	3.8208e+01	7.6486	59.739516	0.000588	5.877901	0.995743	0.000118
 386	3.8307e+01	7.6682	59.832370	0.000466	4.661784	0.789728	0.000093
 387	3.8407e+01	7.6881	59.933299	0.000507	5.067156	0.858400	0.000101
 388	3.8507e+01	7.7091	60.038264	0.000527	5.269842	0.892735	0.000105
 389	3.8606e+01	7.7282	60.135155	0.000486	4.864470	0.824064	0.000097
 390	3.8706e+01	7.7468	60.203787	0.000345	3.445666	0.583712	0.000069
 391	3.8805e+01	7.7680	60.361235	0.000790	7.904764	1.339103	0.000158
 392	3.8904e+01	7.7873	60.417755	0.000284	2.837607	0.480704	0.000057
 393	3.9004e+01	7.8086	60.546943	0.000649	6.485960	1.098751	0.000130
 394	3.9103e+01	7.8282	60.659983	0.000568	5.675215	0.961407	0.000114
 395	3.9203e+01	7.8475	60.740726	0.000405	4.053725	0.686720	0.000081
 396	3.9303e+01	7.8675	60.869914	0.000649	6.485960	1.098751	0.000130
 397	3.9402e+01	7.8873	60.962768	0.000466	4.661784	0.789728	0.000093
 398	3.9502e+01	7.9067	61.071771	0.000547	5.472529	0.927071	0.000110
 399	3.9601e+01	7.9264	61.168662	0.000486	4.864470	0.824064	0.000097
 400	3.9700e+01	7.9469	61.277665	0.000547	5.472529	0.927071	0.000110
 401	3.9800e+01	7.9671	61.362445	0.000426	4.256411	0.721056	0.000085
 402	3.9900e+01	7.9868	61.507782	0.000730	7.296705	1.236095	0.000146
 403	3.9999e+01	8.0070	61.620821	0.000568	5.675215	0.961407	0.000114
 404	4.0099e+01	8.0270	61.713675	0.000466	4.661784	0.789728	0.000093
 405	4.0198e+01	8.0479	61.810567	0.000486	4.864470	0.824064	0.000097
 406	4.0297e+01	8.0671	61.903421	0.000466	4.661784	0.789728	0.000093
 407	4.0397e+01	8.0864	62.016461	0.000568	5.675215	0.961407	0.000114
 408	4.0496e+01	8.1064	62.177946	0.000811	8.107450	1.373439	0.000162
 409	4.0596e+01	8.1260	62.210243	0.000162	1.621490	0.274688	0.000032
 410	4.0696e+01	8.1467	62.335394	0.000628	6.283274	1.064415	0.000126
 411	4.0795e+01	8.1658	62.460546	0.000628	6.283274	1.064415	0.000126
 412	4.0895e+01	8.1861	62.553400	0.000466	4.661784	0.789728	0.000093
 413	4.0994e+01	8.2053	62.694699	0.000709	7.094019	1.201759	0.000142
 414	4.1093e+01	8.2257	62.771405	0.000385	3.851039	0.652384	0.000077
 415	4.1193e+01	8.2459	62.932890	0.000811	8.107450	1.373439	0.000162
 416	4.1292e+01	8.2651	63.009596	0.000385	3.851039	0.652384	0.000077
 417	4.1392e+01	8.2870	63.082264	0.000365	3.648352	0.618048	0.000073
 418	4.1492e+01	8.3059	63.231638	0.000750	7.499391	1.270431	0.000150
 419	4.1591e+01	8.3254	63.332567	0.000507	5.067156	0.858400	0.000101
 420	4.1691e+01	8.3453	63.429458	0.000486	4.864470	0.824064	0.000097
 421	4.1790e+01	8.3654	63.542498	0.000568	5.675215	0.961407	0.000114
 422	4.1889e+01	8.3851	63.647463	0.000527	5.269842	0.892735	0.000105
 423	4.1989e+01	8.4058	63.776652	0.000649	6.485960	1.098751	0.000130
 424	4.2089e+01	8.4250	63.853357	0.000385	3.851039	0.652384	0.000077
 425	4.2188e+01	8.4451	63.970434	0.000588	5.877901	0.995743	0.000118
 426	4.2288e+01	8.4644	64.091548	0.000608	6.080587	1.030079	0.000122
 427	4.2387e+01	8.4848	64.192477	0.000507	5.067156	0.858400	0.000101
 428	4.2486e+01	8.5049	64.317628	0.000628	6.283274	1.064415	0.000126
 429	4.2586e+01	8.5241	64.402408	0.000426	4.256411	0.721056	0.000085
 430	4.2685e+01	8.5449	64.503336	0.000507	5.067156	0.858400	0.000101
 431	4.2785e+01	8.5639	64.616376	0.000568	5.675215	0.961407	0.000114
 432	4.2885e+01	8.5841	64.761713	0.000730	7.296705	1.236095	0.000146
 433	4.2984e+01	8.6044	64.814196	0.000263	2.634921	0.446368	0.000053
 434	4.3084e+01	8.6243	64.983755	0.000851	8.512822	1.442111	0.000170
 435	4.3183e+01	8.6437	65.060461	0.000385	3.851039	0.652384	0.000077
 436	4.3282e+01	8.6641	65.185612	0.000628	6.283274	1.064415	0.000126
 437	4.3382e+01	8.6841	65.270392	0.000426	4.256411	0.721056	0.000085
 438	4.3481e+01	8.7038	65.423803	0.000770	7.702077	1.304767	0.000154
 439	4.3581e+01	8.7244	65.500509	0.000385	3.851039	0.652384	0.000077
 440	4.3681e+01	8.7439	65.633734	0.000669	6.688646	1.133087	0.000134
 441	4.3780e+01	8.7650	65.730626	0.000486	4.864470	0.824064	0.000097
 442	4.3880e+01	8.7833	65.787145	0.000284	2.837607	0.480704	0.000057
 443	4.3979e+01	8.8037	65.924408	0.000689	6.891332	1.167423	0.000138
 444	4.4078e+01	8.8232	66.049559	0.000628	6.283274	1.064415	0.000126
 445	4.4178e+01	8.8432	66.162599	0.000568	5.675215	0.961407	0.000114
 446	4.4278e+01	8.8623	66.275639	0.000568	5.675215	0.961407	0.000114
 447	4.4377e+01	8.8831	66.404827	0.000649	6.485960	1.098751	0.000130
 448	4.4477e+01	8.9020	66.485570	0.000405	4.053725	0.686720	0.000081
 449	4.4576e+01	8.9220	66.606684	0.000608	6.080587	1.030079	0.000122
 450	4.4675e+01	8.9413	66.691464	0.000426	4.256411	0.721056	0.000085
 451	4.4775e+01	8.9625	66.820652	0.000649	6.485960	1.098751	0.000130
 452	4.4874e+01	8.9827	66.917543	0.000486	4.864470	0.824064	0.000097
 453	4.4974e+01	9.0022	67.054806	0.000689	6.891332	1.167423	0.000138
 454	4.5074e+01	9.0222	67.143623	0.000446	4.459097	0.755392	0.000089
 455	4.5173e+01	9.0414	67.244551	0.000507	5.067156	0.858400	0.000101
 456	4.5273e+01	9.0618	67.329331	0.000426	4.256411	0.721056	0.000085
 457	4.5372e+01	9.0815	67.454482	0.000628	6.283274	1.064415	0.000126
 458	4.5471e+01	9.1022	67.587708	0.000669	6.688646	1.133087	0.000134
 459	4.5571e+01	9.1208	67.664414	0.000385	3.851039	0.652384	0.000077
 460	4.5670e+01	9.1418	67.797639	0.000669	6.688646	1.133087	0.000134
 461	4.5770e+01	9.1615	67.914716	0.000588	5.877901	0.995743	0.000118
 462	4.5870e+01	9.1810	67.987384	0.000365	3.648352	0.618048	0.000073
 463	4.5969e+01	9.2017	68.104461	0.000588	5.877901	0.995743	0.000118
 464	4.6069e+01	9.2212	68.217501	0.000568	5.675215	0.961407	0.000114
 465	4.6168e+01	9.2408	68.358801	0.000709	7.094019	1.201759	0.000142
 466	4.6267e+01	9.2603	68.455692	0.000486	4.864470	0.824064	0.000097
 467	4.6367e+01	9.2810	68.564695	0.000547	5.472529	0.927071	0.000110
 468	4.6467e+01	9.3008	68.673697	0.000547	5.472529	0.927071	0.000110
 469	4.6566e+01	9.3208	68.786737	0.000568	5.675215	0.961407	0.000114
 470	4.6666e+01	9.3413	68.895740	0.000547	5.472529	0.927071	0.000110
 471	4.6765e+01	9.3607	68.996668	0.000507	5.067156	0.858400	0.000101
 472	4.6864e+01	9.3814	69.129894	0.000669	6.688646	1.133087	0.000134
 473	4.6964e+01	9.4007	69.255045	0.000628	6.283274	1.064415	0.000126
 474	4.7063e+01	9.4209	69.360011	0.000527	5.269842	0.892735	0.000105
 475	4.7163e+01	9.4404	69.460939	0.000507	5.067156	0.858400	0.000101
 476	4.7263e+01	9.4594	69.590127	0.000649	6.485960	1.098751	0.000130
 477	4.7362e+01	9.4794	69.703167	0.000568	5.675215	0.961407	0.000114
 478	4.7462e+01	9.4991	69.808133	0.000527	5.269842	0.892735	0.000105
 479	4.7561e+01	9.5193	69.909061	0.000507	5.067156	0.858400	0.000101
 480	4.7660e+01	9.5398	69.981729	0.000365	3.648352	0.618048	0.000073
 481	4.7760e+01	9.5605	70.127066	0.000730	7.296705	1.236095	0.000146
 482	4.7859e+01	9.5789	70.256255	0.000649	6.485960	1.098751	0.000130
 483	4.7959e+01	9.5996	70.341035	0.000426	4.256411	0.721056	0.000085
 484	4.8059e+01	9.6198	70.450037	0.000547	5.472529	0.927071	0.000110
 485	4.8158e+01	9.6393	70.567114	0.000588	5.877901	0.995743	0.000118
 486	4.8258e+01	9.6592	70.696302	0.000649	6.485960	1.098751	0.000130
 487	4.8357e+01	9.6783	70.797231	0.000507	5.067156	0.858400	0.000101
 488	4.8456e+01	9.6998	70.922382	0.000628	6.283274	1.064415	0.000126
 489	4.8556e+01	9.7192	71.023310	0.000507	5.067156	0.858400	0.000101
 490	4.8656e+01	9.7388	71.120202	0.000486	4.864470	0.824064	0.000097
 491	4.8755e+01	9.7568	71.229204	0.000547	5.472529	0.927071	0.000110
 492	4.8855e+01	9.7773	71.346281	0.000588	5.877901	0.995743	0.000118
 493	4.8954e+01	9.7980	71.463358	0.000588	5.877901	0.995743	0.000118
 494	4.9053e+01	9.8171	71.556212	0.000466	4.661784	0.789728	0.000093
 495	4.9153e+01	9.8389	71.685401	0.000649	6.485960	1.098751	0.000130
 496	4.9252e+01	9.8586	71.826700	0.000709	7.094019	1.201759	0.000142
 497	4.9352e+01	9.8782	71.863035	0.000182	1.824176	0.309024	0.000037
 498	4.9452e+01	9.8982	72.032594	0.000851	8.512822	1.442111	0.000170
 499	4.9551e+01	9.9182	72.117374	0.000426	4.256411	0.721056	0.000085
 500	4.9651e+01	9.9374	72.250600	0.000669	6.688646	1.133087	0.000134
 501	4.9750e+01	9.9586	72.351528	0.000507	5.067156	0.858400	0.000101
 502	4.9849e+01	9.9780	72.476679	0.000628	6.283274	1.064415	0.000126
 503	4.9949e+01	9.9983	72.585682	0.000547	5.472529	0.927071	0.000110
 504	5.0048e+01	9.9781	72.549348	0.000182	1.824176	0.309024	-0.000037
 505	5.0148e+01	9.9585	72.464568	0.000426	4.256411	0.721056	-0.000085
 506	5.0248e+01	9.9380	72.436308	0.000142	1.418804	0.240352	-0.000028
 507	5.0347e+01	9.9182	72.363640	0.000365	3.648352	0.618048	-0.000073
 508	5.0447e+01	9.8977	72.315194	0.000243	2.432235	0.412032	-0.000049
 509	5.0546e+01	9.8785	72.331342	-0.000081	-0.810745	-0.137344	0.000016
 510	5.0645e+01	9.8592	72.242525	0.000446	4.459097	0.755392	-0.000089
 511	5.0745e+01	9.8383	72.190043	0.000263	2.634921	0.446368	-0.000053
 512	5.0844e+01	9.8181	72.064891	0.000628	6.283274	1.064415	-0.000126
 513	5.0944e+01	9.7998	72.060854	0.000020	0.202686	0.034336	-0.000004
 514	5.1044e+01	9.7781	71.976075	0.000426	4.256411	0.721056	-0.000085
 515	5.1143e+01	9.7585	71.935703	0.000203	2.026862	0.343360	-0.000041
 516	5.1242e+01	9.7394	71.895332	0.000203	2.026862	0.343360	-0.000041
 517	5.1342e+01	9.7186	71.810552	0.000426	4.256411	0.721056	-0.000085
 518	5.1441e+01	9.6984	71.774218	0.000182	1.824176	0.309024	-0.000037
 519	5.1541e+01	9.6796	71.721735	0.000263	2.634921	0.446368	-0.000053
 520	5.1641e+01	9.6588	71.645029	0.000385	3.851039	0.652384	-0.000077
 521	5.1740e+01	9.6399	71.584472	0.000304	3.040294	0.515040	-0.000061
 522	5.1840e+01	9.6212	71.511804	0.000365	3.648352	0.618048	-0.000073
 523	5.1939e+01	9.5996	71.459321	0.000263	2.634921	0.446368	-0.000053
 524	5.2038e+01	9.5795	71.370504	0.000446	4.459097	0.755392	-0.000089
 525	5.2138e+01	9.5605	71.318021	0.000263	2.634921	0.446368	-0.000053
 526	5.2237e+01	9.5390	71.249390	0.000345	3.445666	0.583712	-0.000069
 527	5.2337e+01	9.5205	71.164610	0.000426	4.256411	0.721056	-0.000085
 528	5.2437e+01	9.5002	71.108090	0.000284	2.837607	0.480704	-0.000057
 529	5.2536e+01	9.4800	71.055608	0.000263	2.634921	0.446368	-0.000053
 530	5.2636e+01	9.4595	71.007162	0.000243	2.432235	0.412032	-0.000049
 531	5.2735e+01	9.4398	70.906234	0.000507	5.067156	0.858400	-0.000101
 532	5.2834e+01	9.4218	70.890085	0.000081	0.810745	0.137344	-0.000016
 533	5.2934e+01	9.4006	70.768971	0.000608	6.080587	1.030079	-0.000122
 534	5.3033e+01	9.3814	70.728600	0.000203	2.026862	0.343360	-0.000041
 535	5.3133e+01	9.3604	70.688228	0.000203	2.026862	0.343360	-0.000041
 536	5.3233e+01	9.3408	70.579226	0.000547	5.472529	0.927071	-0.000110
 537	5.3332e+01	9.3213	70.510594	0.000345	3.445666	0.583712	-0.000069
 538	5.3431e+01	9.3008	70.437926	0.000365	3.648352	0.618048	-0.000073
 539	5.3531e+01	9.2822	70.369294	0.000345	3.445666	0.583712	-0.000069
 540	5.3630e+01	9.2608	70.312775	0.000284	2.837607	0.480704	-0.000057
 541	5.3730e+01	9.2411	70.244143	0.000345	3.445666	0.583712	-0.000069
 542	5.3830e+01	9.2216	70.147252	0.000486	4.864470	0.824064	-0.000097
 543	5.3929e+01	9.2017	70.127066	0.000101	1.013431	0.171680	-0.000020
 544	5.4029e+01	9.1815	70.005952	0.000608	6.080587	1.030079	-0.000122
 545	5.4128e+01	9.1608	69.937321	0.000345	3.445666	0.583712	-0.000069
 546	5.4227e+01	9.1431	69.905024	0.000162	1.621490	0.274688	-0.000032
 547	5.4327e+01	9.1211	69.791984	0.000568	5.675215	0.961407	-0.000114
 548	5.4426e+01	9.1006	69.755650	0.000182	1.824176	0.309024	-0.000037
 549	5.4526e+01	9.0820	69.666833	0.000446	4.459097	0.755392	-0.000089
 550	5.4626e+01	9.0627	69.590127	0.000385	3.851039	0.652384	-0.000077
 551	5.4725e+01	9.0424	69.497273	0.000466	4.661784	0.789728	-0.000093
 552	5.4825e+01	9.0213	69.432679	0.000324	3.242980	0.549376	-0.000065
 553	5.4924e+01	9.0022	69.380196	0.000263	2.634921	0.446368	-0.000053
 554	5.5023e+01	8.9819	69.295416	0.000426	4.256411	0.721056	-0.000085
 555	5.5123e+01	8.9615	69.206599	0.000446	4.459097	0.755392	-0.000089
 556	5.5222e+01	8.9413	69.113745	0.000466	4.661784	0.789728	-0.000093
 557	5.5322e+01	8.9235	69.045114	0.000345	3.445666	0.583712	-0.000069
 558	5.5422e+01	8.9032	68.968408	0.000385	3.851039	0.652384	-0.000077
 559	5.5521e+01	8.8819	68.871517	0.000486	4.864470	0.824064	-0.000097
 560	5.5620e+01	8.8623	68.847294	0.000122	1.216117	0.206016	-0.000024
 561	5.5720e+01	8.8428	68.750403	0.000486	4.864470	0.824064	-0.000097
 562	5.5819e+01	8.8236	68.645438	0.000527	5.269842	0.892735	-0.000105
 563	5.5919e+01	8.8037	68.580843	0.000324	3.242980	0.549376	-0.000065
 564	5.6019e+01	8.7842	68.500101	0.000405	4.053725	0.686720	-0.000081
 565	5.6118e+01	8.7641	68.423395	0.000385	3.851039	0.652384	-0.000077
 566	5.6218e+01	8.7439	68.415321	0.000041	0.405372	0.068672	-0.000008
 567	5.6317e+01	8.7231	68.282095	0.000669	6.688646	1.133087	-0.000134
 568	5.6416e+01	8.7043	68.209427	0.000365	3.648352	0.618048	-0.000073
 569	5.6516e+01	8.6846	68.140796	0.000345	3.445666	0.583712	-0.000069
 570	5.6615e+01	8.6642	68.035830	0.000527	5.269842	0.892735	-0.000105
 571	5.6715e+01	8.6438	67.979310	0.000284	2.837607	0.480704	-0.000057
 572	5.6815e+01	8.6235	67.914716	0.000324	3.242980	0.549376	-0.000065
 573	5.6914e+01	8.6044	67.842048	0.000365	3.648352	0.618048	-0.000073
 574	5.7014e+01	8.5849	67.757268	0.000426	4.256411	0.721056	-0.000085
 575	5.7113e+01	8.5647	67.672488	0.000426	4.256411	0.721056	-0.000085
 576	5.7212e+01	8.5446	67.587708	0.000426	4.256411	0.721056	-0.000085
 577	5.7312e+01	8.5256	67.482742	0.000527	5.269842	0.892735	-0.000105
 578	5.7411e+01	8.5048	67.446408	0.000182	1.824176	0.309024	-0.000037
 579	5.7511e+01	8.4840	67.341443	0.000527	5.269842	0.892735	-0.000105
 580	5.7611e+01	8.4649	67.264737	0.000385	3.851039	0.652384	-0.000077
 581	5.7710e+01	8.4453	67.208217	0.000284	2.837607	0.480704	-0.000057
 582	5.7809e+01	8.4252	67.119400	0.000446	4.459097	0.755392	-0.000089
 583	5.7909e+01	8.4057	67.042695	0.000385	3.851039	0.652384	-0.000077
 584	5.8008e+01	8.3851	66.986175	0.000284	2.837607	0.480704	-0.000057
 585	5.8108e+01	8.3657	66.905432	0.000405	4.053725	0.686720	-0.000081
 586	5.8208e+01	8.3472	66.796429	0.000547	5.472529	0.927071	-0.000110
 587	5.8307e+01	8.3252	66.731835	0.000324	3.242980	0.549376	-0.000065
 588	5.8407e+01	8.3057	66.667241	0.000324	3.242980	0.549376	-0.000065
 589	5.8506e+01	8.2861	66.578424	0.000446	4.459097	0.755392	-0.000089
 590	5.8605e+01	8.2659	66.485570	0.000466	4.661784	0.789728	-0.000093
 591	5.8705e+01	8.2458	66.437124	0.000243	2.432235	0.412032	-0.000049
 592	5.8804e+01	8.2260	66.328122	0.000547	5.472529	0.927071	-0.000110
 593	5.8904e+01	8.2061	66.267565	0.000304	3.040294	0.515040	-0.000061
 594	5.9004e+01	8.1860	66.178748	0.000446	4.459097	0.755392	-0.000089
 595	5.9103e+01	8.1658	66.098005	0.000405	4.053725	0.686720	-0.000081
 596	5.9203e+01	8.1460	66.073782	0.000122	1.216117	0.206016	-0.000024
 597	5.9302e+01	8.1255	65.948631	0.000628	6.283274	1.064415	-0.000126
 598	5.9401e+01	8.1067	65.880000	0.000345	3.445666	0.583712	-0.000069
 599	5.9501e+01	8.0869	65.742737	0.000689	6.891332	1.167423	-0.000138
 600	5.9600e+01	8.0659	65.686217	0.000284	2.837607	0.480704	-0.000057
 601	5.9700e+01	8.0464	65.621623	0.000324	3.242980	0.549376	-0.000065
 602	5.9800e+01	8.0267	65.569140	0.000263	2.634921	0.446368	-0.000053
 603	5.9899e+01	8.0072	65.488397	0.000405	4.053725	0.686720	-0.000081
 604	5.9998e+01	7.9867	65.375358	0.000568	5.675215	0.961407	-0.000114
 605	6.0098e+01	7.9665	65.322875	0.000263	2.634921	0.446368	-0.000053
 606	6.0197e+01	7.9477	65.205798	0.000588	5.877901	0.995743	-0.000118
 607	6.0297e+01	7.9269	65.177538	0.000142	1.418804	0.240352	-0.000028
 608	6.0397e+01	7.9066	65.084684	0.000466	4.661784	0.789728	-0.000093
 609	6.0496e+01	7.8877	64.963570	0.000608	6.080587	1.030079	-0.000122
 610	6.0596e+01	7.8671	64.886864	0.000385	3.851039	0.652384	-0.000077
 611	6.0695e+01	7.8467	64.810159	0.000385	3.851039	0.652384	-0.000077
 612	6.0794e+01	7.8263	64.753639	0.000284	2.837607	0.480704	-0.000057
 613	6.0894e+01	7.8068	64.668859	0.000426	4.256411	0.721056	-0.000085
 614	6.0993e+01	7.7875	64.588116	0.000405	4.053725	0.686720	-0.000081
 615	6.1093e+01	7.7686	64.491225	0.000486	4.864470	0.824064	-0.000097
 616	6.1193e+01	7.7467	64.410482	0.000405	4.053725	0.686720	-0.000081
 617	6.1292e+01	7.7271	64.317628	0.000466	4.661784	0.789728	-0.000093
 618	6.1392e+01	7.7073	64.232848	0.000426	4.256411	0.721056	-0.000085
 619	6.1491e+01	7.6875	64.156143	0.000385	3.851039	0.652384	-0.000077
 620	6.1590e+01	7.6685	64.067326	0.000446	4.459097	0.755392	-0.000089
 621	6.1690e+01	7.6482	63.978509	0.000446	4.459097	0.755392	-0.000089
 622	6.1789e+01	7.6287	63.901803	0.000385	3.851039	0.652384	-0.000077
 623	6.1889e+01	7.6085	63.845283	0.000284	2.837607	0.480704	-0.000057
 624	6.1989e+01	7.5869	63.728206	0.000588	5.877901	0.995743	-0.000118
 625	6.2088e+01	7.5688	63.671686	0.000284	2.837607	0.480704	-0.000057
 626	6.2188e+01	7.5491	63.558646	0.000568	5.675215	0.961407	-0.000114
 627	6.2287e+01	7.5289	63.465792	0.000466	4.661784	0.789728	-0.000093
 628	6.2386e+01	7.5101	63.397161	0.000345	3.445666	0.583712	-0.000069
 629	6.2486e+01	7.4899	63.300270	0.000486	4.864470	0.824064	-0.000097
 630	6.2586e+01	7.4691	63.251824	0.000243	2.432235	0.412032	-0.000049
 631	6.2685e+01	7.4490	63.154933	0.000486	4.864470	0.824064	-0.000097
 632	6.2785e+01	7.4297	63.078227	0.000385	3.851039	0.652384	-0.000077
 633	6.2884e+01	7.4090	62.953076	0.000628	6.283274	1.064415	-0.000126
 634	6.2983e+01	7.3903	62.924816	0.000142	1.418804	0.240352	-0.000028
 635	6.3083e+01	7.3690	62.827925	0.000486	4.864470	0.824064	-0.000097
 636	6.3182e+01	7.3492	62.739108	0.000446	4.459097	0.755392	-0.000089
 637	6.3282e+01	7.3302	62.654328	0.000426	4.256411	0.721056	-0.000085
 638	6.3382e+01	7.3096	62.613957	0.000203	2.026862	0.343360	-0.000041
 639	6.3481e+01	7.2899	62.484768	0.000649	6.485960	1.098751	-0.000130
 640	6.3581e+01	7.2701	62.432286	0.000263	2.634921	0.446368	-0.000053
 641	6.3680e+01	7.2501	62.307134	0.000628	6.283274	1.064415	-0.000126
 642	6.3779e+01	7.2300	62.226392	0.000405	4.053725	0.686720	-0.000081
 643	6.3879e+01	7.2097	62.133538	0.000466	4.661784	0.789728	-0.000093
 644	6.3978e+01	7.1906	62.048758	0.000426	4.256411	0.721056	-0.000085
 645	6.4078e+01	7.1700	61.963978	0.000426	4.256411	0.721056	-0.000085
 646	6.4177e+01	7.1509	61.854975	0.000547	5.472529	0.927071	-0.000110
 647	6.4277e+01	7.1300	61.762121	0.000466	4.661784	0.789728	-0.000093
 648	6.4376e+01	7.1099	61.709638	0.000263	2.634921	0.446368	-0.000053
 649	6.4476e+01	7.0907	61.624858	0.000426	4.256411	0.721056	-0.000085
 650	6.4576e+01	7.0703	61.519893	0.000527	5.269842	0.892735	-0.000105
 651	6.4675e+01	7.0508	61.443187	0.000385	3.851039	0.652384	-0.000077
 652	6.4775e+01	7.0309	61.358408	0.000426	4.256411	0.721056	-0.000085
 653	6.4874e+01	7.0109	61.241331	0.000588	5.877901	0.995743	-0.000118
 654	6.4974e+01	6.9910	61.200959	0.000203	2.026862	0.343360	-0.000041
 655	6.5073e+01	6.9704	61.100031	0.000507	5.067156	0.858400	-0.000101
 656	6.5172e+01	6.9509	60.999102	0.000507	5.067156	0.858400	-0.000101
 657	6.5272e+01	6.9318	60.890100	0.000547	5.472529	0.927071	-0.000110
 658	6.5371e+01	6.9111	60.809357	0.000405	4.053725	0.686720	-0.000081
 659	6.5471e+01	6.8914	60.708429	0.000507	5.067156	0.858400	-0.000101
 660	6.5570e+01	6.8707	60.611537	0.000486	4.864470	0.824064	-0.000097
 661	6.5670e+01	6.8514	60.530795	0.000405	4.053725	0.686720	-0.000081
 662	6.5769e+01	6.8322	60.397569	0.000669	6.688646	1.133087	-0.000134
 663	6.5869e+01	6.8121	60.353161	0.000223	2.229549	0.377696	-0.000045
 664	6.5969e+01	6.7906	60.236084	0.000588	5.877901	0.995743	-0.000118
 665	6.6068e+01	6.7718	60.175527	0.000304	3.040294	0.515040	-0.000061
 666	6.6168e+01	6.7516	60.014041	0.000811	8.107450	1.373439	-0.000162
 667	6.6267e+01	6.7313	59.909076	0.000527	5.269842	0.892735	-0.000105
 668	6.6367e+01	6.7107	59.872742	0.000182	1.824176	0.309024	-0.000037
 669	6.6466e+01	6.6914	59.771813	0.000507	5.067156	0.858400	-0.000101
 670	6.6566e+01	6.6718	59.662811	0.000547	5.472529	0.927071	-0.000110
 671	6.6665e+01	6.6518	59.569956	0.000466	4.661784	0.789728	-0.000093
 672	6.6764e+01	6.6319	59.460954	0.000547	5.472529	0.927071	-0.000110
 673	6.6864e+01	6.6120	59.376174	0.000426	4.256411	0.721056	-0.000085
 674	6.6963e+01	6.5927	59.246986	0.000649	6.485960	1.098751	-0.000130
 675	6.7063e+01	6.5723	59.194503	0.000263	2.634921	0.446368	-0.000053
 676	6.7162e+01	6.5520	59.109723	0.000426	4.256411	0.721056	-0.000085
 677	6.7262e+01	6.5333	59.004757	0.000527	5.269842	0.892735	-0.000105
 678	6.7362e+01	6.5130	58.883643	0.000608	6.080587	1.030079	-0.000122
 679	6.7461e+01	6.4918	58.790789	0.000466	4.661784	0.789728	-0.000093
 680	6.7561e+01	6.4730	58.742344	0.000243	2.432235	0.412032	-0.000049
 681	6.7660e+01	6.4537	58.601044	0.000709	7.094019	1.201759	-0.000142
 682	6.7760e+01	6.4333	58.471855	0.000649	6.485960	1.098751	-0.000130
 683	6.7859e+01	6.4136	58.395150	0.000385	3.851039	0.652384	-0.000077
 684	6.7959e+01	6.3929	58.322481	0.000365	3.648352	0.618048	-0.000073
 685	6.8058e+01	6.3735	58.201367	0.000608	6.080587	1.030079	-0.000122
 686	6.8157e+01	6.3520	58.088328	0.000568	5.675215	0.961407	-0.000114
 687	6.8257e+01	6.3339	58.027771	0.000304	3.040294	0.515040	-0.000061
 688	6.8356e+01	6.3131	57.914731	0.000568	5.675215	0.961407	-0.000114
 689	6.8456e+01	6.2940	57.817839	0.000486	4.864470	0.824064	-0.000097
 690	6.8555e+01	6.2734	57.720948	0.000486	4.864470	0.824064	-0.000097
 691	6.8655e+01	6.2541	57.611946	0.000547	5.472529	0.927071	-0.000110
 692	6.8754e+01	6.2351	57.490831	0.000608	6.080587	1.030079	-0.000122
 693	6.8854e+01	6.2157	57.385866	0.000527	5.269842	0.892735	-0.000105
 694	6.8954e+01	6.1945	57.325309	0.000304	3.040294	0.515040	-0.000061
 695	6.9053e+01	6.1745	57.212269	0.000568	5.675215	0.961407	-0.000114
 696	6.9153e+01	6.1550	57.095192	0.000588	5.877901	0.995743	-0.000118
 697	6.9252e+01	6.1350	56.986190	0.000547	5.472529	0.927071	-0.000110
 698	6.9352e+01	6.1149	56.861038	0.000628	6.283274	1.064415	-0.000126
 699	6.9451e+01	6.0955	56.764147	0.000486	4.864470	0.824064	-0.000097
 700	6.9550e+01	6.0751	56.659182	0.000527	5.269842	0.892735	-0.000105
 701	6.9650e+01	6.0549	56.586513	0.000365	3.648352	0.618048	-0.000073
 702	6.9749e+01	6.0352	56.469436	0.000588	5.877901	0.995743	-0.000118
 703	6.9849e+01	6.0159	56.412916	0.000284	2.837607	0.480704	-0.000057
 704	6.9948e+01	5.9951	56.283728	0.000649	6.485960	1.098751	-0.000130
 705	7.0048e+01	5.9759	56.202985	0.000405	4.053725	0.686720	-0.000081
 706	7.0147e+01	5.9556	56.085908	0.000588	5.877901	0.995743	-0.000118
 707	7.0247e+01	5.9359	55.984980	0.000507	5.067156	0.858400	-0.000101
 708	7.0347e+01	5.9165	55.908274	0.000385	3.851039	0.652384	-0.000077
 709	7.0446e+01	5.8959	55.750826	0.000790	7.904764	1.339103	-0.000158
 710	7.0546e+01	5.8757	55.653935	0.000486	4.864470	0.824064	-0.000097
 711	7.0645e+01	5.8561	55.536858	0.000588	5.877901	0.995743	-0.000118
 712	7.0745e+01	5.8351	55.468226	0.000345	3.445666	0.583712	-0.000069
 713	7.0844e+01	5.8162	55.314815	0.000770	7.702077	1.304767	-0.000154
 714	7.0944e+01	5.7955	55.250221	0.000324	3.242980	0.549376	-0.000065
 715	7.1043e+01	5.7762	55.080661	0.000851	8.512822	1.442111	-0.000170
 716	7.1142e+01	5.7565	55.012030	0.000345	3.445666	0.583712	-0.000069
 717	7.1242e+01	5.7360	54.915139	0.000486	4.864470	0.824064	-0.000097
 718	7.1341e+01	5.7165	54.794025	0.000608	6.080587	1.030079	-0.000122
 719	7.1441e+01	5.6967	54.729431	0.000324	3.242980	0.549376	-0.000065
 720	7.1540e+01	5.6761	54.584094	0.000730	7.296705	1.236095	-0.000146
 721	7.1640e+01	5.6567	54.479128	0.000527	5.269842	0.892735	-0.000105
 722	7.1740e+01	5.6365	54.349940	0.000649	6.485960	1.098751	-0.000130
 723	7.1839e+01	5.6167	54.257086	0.000466	4.661784	0.789728	-0.000093
 724	7.1939e+01	5.5968	54.111749	0.000730	7.296705	1.236095	-0.000146
 725	7.2038e+01	5.5770	54.014858	0.000486	4.864470	0.824064	-0.000097
 726	7.2138e+01	5.5569	53.917966	0.000486	4.864470	0.824064	-0.000097
 727	7.2237e+01	5.5370	53.784741	0.000669	6.688646	1.133087	-0.000134
 728	7.2337e+01	5.5163	53.716110	0.000345	3.445666	0.583712	-0.000069
 729	7.2436e+01	5.4977	53.590958	0.000628	6.283274	1.064415	-0.000126
 730	7.2535e+01	5.4766	53.461770	0.000649	6.485960	1.098751	-0.000130
 731	7.2635e+01	5.4566	53.344693	0.000588	5.877901	0.995743	-0.000118
 732	7.2734e+01	5.4359	53.276062	0.000345	3.445666	0.583712	-0.000069
 733	7.2834e+01	5.4176	53.154948	0.000608	6.080587	1.030079	-0.000122
 734	7.2933e+01	5.3980	53.013648	0.000709	7.094019	1.201759	-0.000142
 735	7.3033e+01	5.3770	52.932905	0.000405	4.053725	0.686720	-0.000081
 736	7.3132e+01	5.3575	52.836014	0.000486	4.864470	0.824064	-0.000097
 737	7.3232e+01	5.3378	52.702788	0.000669	6.688646	1.133087	-0.000134
 738	7.3332e+01	5.3182	52.622046	0.000405	4.053725	0.686720	-0.000081
 739	7.3431e+01	5.2979	52.468635	0.000770	7.702077	1.304767	-0.000154
 740	7.3531e+01	5.2784	52.379818	0.000446	4.459097	0.755392	-0.000089
 741	7.3630e+01	5.2576	52.286964	0.000466	4.661784	0.789728	-0.000093
 742	7.3730e+01	5.2380	52.181998	0.000527	5.269842	0.892735	-0.000105
 743	7.3829e+01	5.2189	52.081070	0.000507	5.067156	0.858400	-0.000101
 744	7.3928e+01	5.1978	51.891324	0.000953	9.526254	1.613791	-0.000191
 745	7.4028e+01	5.1788	51.822693	0.000345	3.445666	0.583712	-0.000069
 746	7.4127e+01	5.1585	51.705616	0.000588	5.877901	0.995743	-0.000118
 747	7.4227e+01	5.1379	51.604688	0.000507	5.067156	0.858400	-0.000101
 748	7.4326e+01	5.1185	51.503759	0.000507	5.067156	0.858400	-0.000101
 749	7.4426e+01	5.0990	51.370534	0.000669	6.688646	1.133087	-0.000134
 750	7.4525e+01	5.0785	51.318051	0.000263	2.634921	0.446368	-0.000053
 751	7.4625e+01	5.0580	51.188863	0.000649	6.485960	1.098751	-0.000130
 752	7.4725e+01	5.0394	51.087934	0.000507	5.067156	0.858400	-0.000101
 753	7.4824e+01	5.0199	50.950672	0.000689	6.891332	1.167423	-0.000138
 754	7.4924e+01	5.0001	50.865892	0.000426	4.256411	0.721056	-0.000085
 755	7.5023e+01	4.9797	50.732666	0.000669	6.688646	1.133087	-0.000134
 756	7.5123e+01	4.9592	50.639812	0.000466	4.661784	0.789728	-0.000093
 757	7.5222e+01	4.9398	50.522735	0.000588	5.877901	0.995743	-0.000118
 758	7.5322e+01	4.9195	50.401621	0.000608	6.080587	1.030079	-0.000122
 759	7.5421e+01	4.8995	50.276470	0.000628	6.283274	1.064415	-0.000126
 760	7.5520e+01	4.8800	50.195727	0.000405	4.053725	0.686720	-0.000081
 761	7.5620e+01	4.8608	50.078650	0.000588	5.877901	0.995743	-0.000118
 762	7.5719e+01	4.8394	49.985796	0.000466	4.661784	0.789728	-0.000093
 763	7.5819e+01	4.8199	49.840459	0.000730	7.296705	1.236095	-0.000146
 764	7.5918e+01	4.8006	49.719345	0.000608	6.080587	1.030079	-0.000122
 765	7.6018e+01	4.7806	49.634565	0.000426	4.256411	0.721056	-0.000085
 766	7.6118e+01	4.7604	49.517488	0.000588	5.877901	0.995743	-0.000118
 767	7.6217e+01	4.7402	49.396374	0.000608	6.080587	1.030079	-0.000122
 768	7.6317e+01	4.7204	49.299483	0.000486	4.864470	0.824064	-0.000097
 769	7.6416e+01	4.7007	49.137998	0.000811	8.107450	1.373439	-0.000162
 770	7.6516e+01	4.6799	49.069366	0.000345	3.445666	0.583712	-0.000069
 771	7.6615e+01	4.6613	48.960364	0.000547	5.472529	0.927071	-0.000110
 772	7.6715e+01	4.6411	48.839250	0.000608	6.080587	1.030079	-0.000122
 773	7.6814e+01	4.6204	48.706024	0.000669	6.688646	1.133087	-0.000134
 774	7.6913e+01	4.6011	48.645467	0.000304	3.040294	0.515040	-0.000061
 775	7.7013e+01	4.5827	48.492056	0.000770	7.702077	1.304767	-0.000154
 776	7.7112e+01	4.5610	48.391128	0.000507	5.067156	0.858400	-0.000101
 777	7.7212e+01	4.5415	48.314422	0.000385	3.851039	0.652384	-0.000077
 778	7.7311e+01	4.5211	48.161011	0.000770	7.702077	1.304767	-0.000154
 779	7.7411e+01	4.5020	48.027785	0.000669	6.688646	1.133087	-0.000134
 780	7.7510e+01	4.4808	47.938968	0.000446	4.459097	0.755392	-0.000089
 781	7.7610e+01	4.4611	47.797669	0.000709	7.094019	1.201759	-0.000142
 782	7.7710e+01	4.4420	47.700777	0.000486	4.864470	0.824064	-0.000097
 783	7.7809e+01	4.4225	47.611960	0.000446	4.459097	0.755392	-0.000089
 784	7.7909e+01	4.4016	47.466623	0.000730	7.296705	1.236095	-0.000146
 785	7.8008e+01	4.3822	47.341472	0.000628	6.283274	1.064415	-0.000126
 786	7.8108e+01	4.3626	47.256692	0.000426	4.256411	0.721056	-0.000085
 787	7.8207e+01	4.3426	47.135578	0.000608	6.080587	1.030079	-0.000122
 788	7.8306e+01	4.3218	47.050798	0.000426	4.256411	0.721056	-0.000085
 789	7.8406e+01	4.3023	46.905462	0.000730	7.296705	1.236095	-0.000146
 790	7.8505e+01	4.2828	46.788385	0.000588	5.877901	0.995743	-0.000118
 791	7.8605e+01	4.2617	46.679382	0.000547	5.472529	0.927071	-0.000110
 792	7.8704e+01	4.2428	46.558268	0.000608	6.080587	1.030079	-0.000122
 793	7.8804e+01	4.2228	46.429080	0.000649	6.485960	1.098751	-0.000130
 794	7.8903e+01	4.2034	46.352374	0.000385	3.851039	0.652384	-0.000077
 795	7.9003e+01	4.1827	46.215111	0.000689	6.891332	1.167423	-0.000138
 796	7.9103e+01	4.1620	46.122257	0.000466	4.661784	0.789728	-0.000093
 797	7.9202e+01	4.1425	45.960772	0.000811	8.107450	1.373439	-0.000162
 798	7.9302e+01	4.1221	45.884066	0.000385	3.851039	0.652384	-0.000077
 799	7.9401e+01	4.1033	45.750841	0.000669	6.688646	1.133087	-0.000134
 800	7.9501e+01	4.0829	45.649912	0.000507	5.067156	0.858400	-0.000101
 801	7.9600e+01	4.0638	45.540910	0.000547	5.472529	0.927071	-0.000110
 802	7.9700e+01	4.0430	45.460167	0.000405	4.053725	0.686720	-0.000081
 803	7.9799e+01	4.0223	45.302719	0.000790	7.904764	1.339103	-0.000158
 804	7.9898e+01	4.0029	45.193716	0.000547	5.472529	0.927071	-0.000110
 805	7.9998e+01	3.9837	45.096825	0.000486	4.864470	0.824064	-0.000097
 806	8.0097e+01	3.9643	44.971674	0.000628	6.283274	1.064415	-0.000126
 807	8.0197e+01	3.9433	44.818262	0.000770	7.702077	1.304767	-0.000154
 808	8.0296e+01	3.9238	44.725408	0.000466	4.661784	0.789728	-0.000093
 809	8.0396e+01	3.9043	44.628517	0.000486	4.864470	0.824064	-0.000097
 810	8.0496e+01	3.8831	44.479143	0.000750	7.499391	1.270431	-0.000150
 811	8.0595e+01	3.8644	44.374177	0.000527	5.269842	0.892735	-0.000105
 812	8.0695e+01	3.8433	44.244989	0.000649	6.485960	1.098751	-0.000130
 813	8.0794e+01	3.8239	44.152135	0.000466	4.661784	0.789728	-0.000093
 814	8.0894e+01	3.8033	44.010835	0.000709	7.094019	1.201759	-0.000142
 815	8.0993e+01	3.7836	43.905870	0.000527	5.269842	0.892735	-0.000105
 816	8.1093e+01	3.7637	43.776681	0.000649	6.485960	1.098751	-0.000130
 817	8.1192e+01	3.7444	43.691902	0.000426	4.256411	0.721056	-0.000085
 818	8.1291e+01	3.7245	43.566750	0.000628	6.283274	1.064415	-0.000126
 819	8.1391e+01	3.7046	43.473896	0.000466	4.661784	0.789728	-0.000093
 820	8.1490e+01	3.6843	43.328559	0.000730	7.296705	1.236095	-0.000146
 821	8.1590e+01	3.6651	43.187260	0.000709	7.094019	1.201759	-0.000142
 822	8.1689e+01	3.6451	43.066145	0.000608	6.080587	1.030079	-0.000122
 823	8.1789e+01	3.6245	42.957143	0.000547	5.472529	0.927071	-0.000110
 824	8.1888e+01	3.6047	42.827954	0.000649	6.485960	1.098751	-0.000130
 825	8.1988e+01	3.5858	42.686655	0.000709	7.094019	1.201759	-0.000142
 826	8.2088e+01	3.5647	42.577652	0.000547	5.472529	0.927071	-0.000110
 827	8.2187e+01	3.5449	42.448464	0.000649	6.485960	1.098751	-0.000130
 828	8.2287e+01	3.5258	42.327350	0.000608	6.080587	1.030079	-0.000122
 829	8.2386e+01	3.5058	42.210273	0.000588	5.877901	0.995743	-0.000118
 830	8.2486e+01	3.4850	42.109344	0.000507	5.067156	0.858400	-0.000101
 831	8.2585e+01	3.4654	41.955933	0.000770	7.702077	1.304767	-0.000154
 832	8.2684e+01	3.4457	41.806559	0.000750	7.499391	1.270431	-0.000150
 833	8.2784e+01	3.4263	41.701594	0.000527	5.269842	0.892735	-0.000105
 834	8.2883e+01	3.4061	41.564331	0.000689	6.891332	1.167423	-0.000138
 835	8.2983e+01	3.3860	41.451291	0.000568	5.675215	0.961407	-0.000114
 836	8.3082e+01	3.3656	41.326140	0.000628	6.283274	1.064415	-0.000126
 837	8.3182e+01	3.3459	41.229249	0.000486	4.864470	0.824064	-0.000097
 838	8.3281e+01	3.3260	41.063726	0.000831	8.310136	1.407775	-0.000166
 839	8.3381e+01	3.3060	40.978946	0.000426	4.256411	0.721056	-0.000085
 840	8.3481e+01	3.2860	40.833609	0.000730	7.296705	1.236095	-0.000146
 841	8.3580e+01	3.2660	40.672124	0.000811	8.107450	1.373439	-0.000162
 842	8.3680e+01	3.2468	40.555047	0.000588	5.877901	0.995743	-0.000118
 843	8.3779e+01	3.2268	40.462193	0.000466	4.661784	0.789728	-0.000093
 844	8.3879e+01	3.2053	40.312819	0.000750	7.499391	1.270431	-0.000150
 845	8.3978e+01	3.1863	40.207853	0.000527	5.269842	0.892735	-0.000105
 846	8.4078e+01	3.1670	40.102888	0.000527	5.269842	0.892735	-0.000105
 847	8.4177e+01	3.1470	39.965625	0.000689	6.891332	1.167423	-0.000138
 848	8.4276e+01	3.1262	39.792028	0.000872	8.715509	1.476447	-0.000174
 849	8.4376e+01	3.1077	39.711286	0.000405	4.053725	0.686720	-0.000081
 850	8.4475e+01	3.0874	39.549800	0.000811	8.107450	1.373439	-0.000162
 851	8.4575e+01	3.0671	39.460983	0.000446	4.459097	0.755392	-0.000089
 852	8.4674e+01	3.0470	39.303535	0.000790	7.904764	1.339103	-0.000158
 853	8.4774e+01	3.0269	39.154161	0.000750	7.499391	1.270431	-0.000150
 854	8.4874e+01	3.0065	39.041121	0.000568	5.675215	0.961407	-0.000114
 855	8.4973e+01	2.9867	38.899821	0.000709	7.094019	1.201759	-0.000142
 856	8.5073e+01	2.9680	38.766596	0.000669	6.688646	1.133087	-0.000134
 857	8.5172e+01	2.9472	38.637408	0.000649	6.485960	1.098751	-0.000130
 858	8.5272e+01	2.9279	38.512256	0.000628	6.283274	1.064415	-0.000126
 859	8.5371e+01	2.9074	38.391142	0.000608	6.080587	1.030079	-0.000122
 860	8.5471e+01	2.8870	38.237731	0.000770	7.702077	1.304767	-0.000154
 861	8.5570e+01	2.8677	38.152951	0.000426	4.256411	0.721056	-0.000085
 862	8.5669e+01	2.8477	38.003577	0.000750	7.499391	1.270431	-0.000150
 863	8.5769e+01	2.8278	37.894575	0.000547	5.472529	0.927071	-0.000110
 864	8.5868e+01	2.8082	37.741163	0.000770	7.702077	1.304767	-0.000154
 865	8.5968e+01	2.7886	37.575641	0.000831	8.310136	1.407775	-0.000166
 866	8.6067e+01	2.7685	37.446453	0.000649	6.485960	1.098751	-0.000130
 867	8.6167e+01	2.7473	37.349561	0.000486	4.864470	0.824064	-0.000097
 868	8.6266e+01	2.7281	37.180002	0.000851	8.512822	1.442111	-0.000170
 869	8.6366e+01	2.7074	37.054850	0.000628	6.283274	1.064415	-0.000126
 870	8.6466e+01	2.6885	36.957959	0.000486	4.864470	0.824064	-0.000097
 871	8.6565e+01	2.6685	36.796474	0.000811	8.107450	1.373439	-0.000162
 872	8.6665e+01	2.6479	36.699582	0.000486	4.864470	0.824064	-0.000097
 873	8.6764e+01	2.6280	36.517911	0.000912	9.120881	1.545119	-0.000183
 874	8.6864e+01	2.6084	36.372574	0.000730	7.296705	1.236095	-0.000146
 875	8.6963e+01	2.5883	36.259535	0.000568	5.675215	0.961407	-0.000114
 876	8.7063e+01	2.5687	36.142458	0.000588	5.877901	0.995743	-0.000118
 877	8.7162e+01	2.5500	35.972898	0.000851	8.512822	1.442111	-0.000170
 878	8.7261e+01	2.5287	35.863895	0.000547	5.472529	0.927071	-0.000110
 879	8.7361e+01	2.5086	35.754893	0.000547	5.472529	0.927071	-0.000110
 880	8.7460e+01	2.4891	35.565147	0.000953	9.526254	1.613791	-0.000191
 881	8.7560e+01	2.4706	35.464219	0.000507	5.067156	0.858400	-0.000101
 882	8.7659e+01	2.4498	35.326956	0.000689	6.891332	1.167423	-0.000138
 883	8.7759e+01	2.4294	35.169508	0.000790	7.904764	1.339103	-0.000158
 884	8.7859e+01	2.4104	35.060505	0.000547	5.472529	0.927071	-0.000110
 885	8.7958e+01	2.3891	34.931317	0.000649	6.485960	1.098751	-0.000130
 886	8.8058e+01	2.3702	34.810203	0.000608	6.080587	1.030079	-0.000122
 887	8.8157e+01	2.3505	34.620458	0.000953	9.526254	1.613791	-0.000191
 888	8.8257e+01	2.3303	34.507418	0.000568	5.675215	0.961407	-0.000114
 889	8.8356e+01	2.3103	34.349969	0.000790	7.904764	1.339103	-0.000158
 890	8.8456e+01	2.2901	34.232892	0.000588	5.877901	0.995743	-0.000118
 891	8.8555e+01	2.2701	34.047184	0.000932	9.323567	1.579455	-0.000187
 892	8.8654e+01	2.2498	33.926070	0.000608	6.080587	1.030079	-0.000122
 893	8.8754e+01	2.2306	33.764585	0.000811	8.107450	1.373439	-0.000162
 894	8.8853e+01	2.2104	33.615211	0.000750	7.499391	1.270431	-0.000150
 895	8.8953e+01	2.1915	33.518319	0.000486	4.864470	0.824064	-0.000097
 896	8.9052e+01	2.1706	33.372983	0.000730	7.296705	1.236095	-0.000146
 897	8.9152e+01	2.1510	33.251869	0.000608	6.080587	1.030079	-0.000122
 898	8.9251e+01	2.1307	33.086346	0.000831	8.310136	1.407775	-0.000166
 899	8.9351e+01	2.1113	32.957158	0.000649	6.485960	1.098751	-0.000130
 900	8.9451e+01	2.0904	32.803746	0.000770	7.702077	1.304767	-0.000154
 901	8.9550e+01	2.0715	32.690707	0.000568	5.675215	0.961407	-0.000114
 902	8.9650e+01	2.0516	32.533258	0.000790	7.904764	1.339103	-0.000158
 903	8.9749e+01	2.0320	32.436367	0.000486	4.864470	0.824064	-0.000097
 904	8.9849e+01	2.0109	32.238547	0.000993	9.931626	1.682463	-0.000199
 905	8.9948e+01	1.9909	32.113396	0.000628	6.283274	1.064415	-0.000126
 906	9.0047e+01	1.9714	31.984208	0.000649	6.485960	1.098751	-0.000130
 907	9.0147e+01	1.9513	31.846945	0.000689	6.891332	1.167423	-0.000138
 908	9.0246e+01	1.9316	31.713720	0.000669	6.688646	1.133087	-0.000134
 909	9.0346e+01	1.9112	31.600680	0.000568	5.675215	0.961407	-0.000114
 910	9.0445e+01	1.8916	31.435157	0.000831	8.310136	1.407775	-0.000166
 911	9.0545e+01	1.8716	31.301932	0.000669	6.688646	1.133087	-0.000134
 912	9.0644e+01	1.8523	31.168706	0.000669	6.688646	1.133087	-0.000134
 913	9.0744e+01	1.8323	31.031444	0.000689	6.891332	1.167423	-0.000138
 914	9.0844e+01	1.8121	30.898218	0.000669	6.688646	1.133087	-0.000134
 915	9.0943e+01	1.7915	30.744807	0.000770	7.702077	1.304767	-0.000154
 916	9.1043e+01	1.7728	30.603507	0.000709	7.094019	1.201759	-0.000142
 917	9.1142e+01	1.7513	30.446059	0.000790	7.904764	1.339103	-0.000158
 918	9.1242e+01	1.7321	30.312834	0.000669	6.688646	1.133087	-0.000134
 919	9.1341e+01	1.7123	30.175571	0.000689	6.891332	1.167423	-0.000138
 920	9.1441e+01	1.6927	30.030234	0.000730	7.296705	1.236095	-0.000146
 921	9.1540e+01	1.6729	29.897009	0.000669	6.688646	1.133087	-0.000134
 922	9.1639e+01	1.6532	29.804155	0.000466	4.661784	0.789728	-0.000093
 923	9.1739e+01	1.6325	29.602298	0.001013	10.134312	1.716799	-0.000203
 924	9.1838e+01	1.6122	29.493295	0.000547	5.472529	0.927071	-0.000110
 925	9.1938e+01	1.5922	29.335847	0.000790	7.904764	1.339103	-0.000158
 926	9.2037e+01	1.5728	29.178399	0.000790	7.904764	1.339103	-0.000158
 927	9.2137e+01	1.5522	29.069396	0.000547	5.472529	0.927071	-0.000110
 928	9.2237e+01	1.5329	28.936170	0.000669	6.688646	1.133087	-0.000134
 929	9.2336e+01	1.5135	28.778722	0.000790	7.904764	1.339103	-0.000158
 930	9.2436e+01	1.4928	28.641459	0.000689	6.891332	1.167423	-0.000138
 931	9.2535e+01	1.4724	28.492085	0.000750	7.499391	1.270431	-0.000150
 932	9.2635e+01	1.4525	28.407306	0.000426	4.256411	0.721056	-0.000085
 933	9.2734e+01	1.4333	28.270043	0.000689	6.891332	1.167423	-0.000138
 934	9.2834e+01	1.4121	28.124706	0.000730	7.296705	1.236095	-0.000146
 935	9.2933e+01	1.3927	27.979369	0.000730	7.296705	1.236095	-0.000146
 936	9.3032e+01	1.3732	27.834032	0.000730	7.296705	1.236095	-0.000146
 937	9.3132e+01	1.3536	27.644287	0.000953	9.526254	1.613791	-0.000191
 938	9.3231e+01	1.3338	27.511061	0.000669	6.688646	1.133087	-0.000134
 939	9.3331e+01	1.3133	27.353613	0.000790	7.904764	1.339103	-0.000158
 940	9.3430e+01	1.2939	27.232499	0.000608	6.080587	1.030079	-0.000122
 941	9.3530e+01	1.2743	27.103311	0.000649	6.485960	1.098751	-0.000130
 942	9.3629e+01	1.2541	26.994308	0.000547	5.472529	0.927071	-0.000110
 943	9.3729e+01	1.2340	26.816674	0.000892	8.918195	1.510783	-0.000179
 944	9.3829e+01	1.2147	26.687486	0.000649	6.485960	1.098751	-0.000130
 945	9.3928e+01	1.1950	26.538112	0.000750	7.499391	1.270431	-0.000150
 946	9.4028e+01	1.1745	26.416998	0.000608	6.080587	1.030079	-0.000122
 947	9.4127e+01	1.1549	26.271661	0.000730	7.296705	1.236095	-0.000146
 948	9.4227e+01	1.1349	26.142472	0.000649	6.485960	1.098751	-0.000130
 949	9.4326e+01	1.1156	25.960801	0.000912	9.120881	1.545119	-0.000183
 950	9.4425e+01	1.0948	25.847762	0.000568	5.675215	0.961407	-0.000114
 951	9.4525e+01	1.0747	25.686276	0.000811	8.107450	1.373439	-0.000162
 952	9.4624e+01	1.0558	25.573236	0.000568	5.675215	0.961407	-0.000114
 953	9.4724e+01	1.0355	25.391565	0.000912	9.120881	1.545119	-0.000183
 954	9.4823e+01	1.0154	25.266414	0.000628	6.283274	1.064415	-0.000126
 955	9.4923e+01	0.9950	25.129151	0.000689	6.891332	1.167423	-0.000138
 956	9.5022e+01	0.9751	24.975740	0.000770	7.702077	1.304767	-0.000154
 957	9.5122e+01	0.9560	24.858663	0.000588	5.877901	0.995743	-0.000118
 958	9.5222e+01	0.9351	24.701215	0.000790	7.904764	1.339103	-0.000158
 959	9.5321e+01	0.9166	24.584138	0.000588	5.877901	0.995743	-0.000118
 960	9.5421e+01	0.8953	24.430727	0.000770	7.702077	1.304767	-0.000154
 961	9.5520e+01	0.8765	24.245019	0.000932	9.323567	1.579455	-0.000187
 962	9.5620e+01	0.8569	24.140053	0.000527	5.269842	0.892735	-0.000105
 963	9.5719e+01	0.8356	24.002791	0.000689	6.891332	1.167423	-0.000138
 964	9.5819e+01	0.8166	23.825157	0.000892	8.918195	1.510783	-0.000179
 965	9.5918e+01	0.7971	23.712117	0.000568	5.675215	0.961407	-0.000114
 966	9.6017e+01	0.7767	23.546594	0.000831	8.310136	1.407775	-0.000166
 967	9.6117e+01	0.7566	23.381072	0.000831	8.310136	1.407775	-0.000166
 968	9.6216e+01	0.7365	23.268032	0.000568	5.675215	0.961407	-0.000114
 969	9.6316e+01	0.7163	23.150955	0.000588	5.877901	0.995743	-0.000118
 970	9.6415e+01	0.6970	22.985432	0.000831	8.310136	1.407775	-0.000166
 971	9.6515e+01	0.6778	22.860281	0.000628	6.283274	1.064415	-0.000126
 972	9.6615e+01	0.6563	22.727056	0.000669	6.688646	1.133087	-0.000134
 973	9.6714e+01	0.6366	22.577682	0.000750	7.499391	1.270431	-0.000150
 974	9.6814e+01	0.6165	22.420233	0.000790	7.904764	1.339103	-0.000158
 975	9.6913e+01	0.5966	22.303156	0.000588	5.877901	0.995743	-0.000118
 976	9.7013e+01	0.5771	22.149745	0.000770	7.702077	1.304767	-0.000154
 977	9.7112e+01	0.5569	22.004408	0.000730	7.296705	1.236095	-0.000146
 978	9.7212e+01	0.5372	21.879257	0.000628	6.283274	1.064415	-0.000126
 979	9.7311e+01	0.5167	21.709697	0.000851	8.512822	1.442111	-0.000170
 980	9.7410e+01	0.4967	21.580509	0.000649	6.485960	1.098751	-0.000130
 981	9.7510e+01	0.4775	21.419024	0.000811	8.107450	1.373439	-0.000162
 982	9.7609e+01	0.4581	21.285798	0.000669	6.688646	1.133087	-0.000134
 983	9.7709e+01	0.4361	21.128350	0.000790	7.904764	1.339103	-0.000158
 984	9.7808e+01	0.4169	20.983013	0.000730	7.296705	1.236095	-0.000146
 985	9.7908e+01	0.3979	20.865936	0.000588	5.877901	0.995743	-0.000118
 986	9.8007e+01	0.3776	20.688302	0.000892	8.918195	1.510783	-0.000179
 987	9.8107e+01	0.3574	20.555077	0.000669	6.688646	1.133087	-0.000134
 988	9.8207e+01	0.3375	20.429925	0.000628	6.283274	1.064415	-0.000126
 989	9.8306e+01	0.3183	20.288626	0.000709	7.094019	1.201759	-0.000142
 990	9.8406e+01	0.2972	20.115029	0.000872	8.715509	1.476447	-0.000174
 991	9.8505e+01	0.2785	19.993915	0.000608	6.080587	1.030079	-0.000122
 992	9.8605e+01	0.2574	19.848578	0.000730	7.296705	1.236095	-0.000146
 993	9.8704e+01	0.2380	19.691130	0.000790	7.904764	1.339103	-0.000158
 994	9.8803e+01	0.2181	19.529644	0.000811	8.107450	1.373439	-0.000162
 995	9.8903e+01	0.1992	19.396419	0.000669	6.688646	1.133087	-0.000134
 996	9.9002e+01	0.1785	19.230896	0.000831	8.310136	1.407775	-0.000166
 997	9.9102e+01	0.1587	19.109782	0.000608	6.080587	1.030079	-0.000122
 998	9.9201e+01	0.1378	18.924074	0.000932	9.323567	1.579455	-0.000187
 999	9.9301e+01	0.1188	18.786811	0.000689	6.891332	1.167423	-0.000138
1000	9.9400e+01	0.0997	18.625326	0.000811	8.107450	1.373439	-0.000162
1001	9.9500e+01	0.0787	18.520360	0.000527	5.269842	0.892735	-0.000105
1002	9.9600e+01	0.0587	18.350800	0.000851	8.512822	1.442111	-0.000170
1003	9.9699e+01	0.0378	18.213538	0.000689	6.891332	1.167423	-0.000138
1004	9.9799e+01	0.0187	18.027830	0.000932	9.323567	1.579455	-0.000187
1005	9.9898e+01	-0.0011	17.894604	0.000669	6.688646	1.133087	-0.000134
1006	9.9998e+01	-0.0195	17.769453	0.000628	6.283274	1.064415	-0.000126
1007	1.0010e+02	-0.0394	17.603930	0.000831	8.310136	1.407775	-0.000166
1008	1.0020e+02	-0.0597	17.466668	0.000689	6.891332	1.167423	-0.000138
1009	1.0030e+02	-0.0786	17.305182	0.000811	8.107450	1.373439	-0.000162
1010	1.0040e+02	-0.0990	17.200217	0.000527	5.269842	0.892735	-0.000105
1011	1.0050e+02	-0.1188	16.998360	0.001013	10.134312	1.716799	-0.000203
1012	1.0059e+02	-0.1378	16.889357	0.000547	5.472529	0.927071	-0.000110
1013	1.0069e+02	-0.1598	16.691538	0.000993	9.931626	1.682463	-0.000199
1014	1.0079e+02	-0.1794	16.546201	0.000730	7.296705	1.236095	-0.000146
1015	1.0089e+02	-0.1984	16.392790	0.000770	7.702077	1.304767	-0.000154
1016	1.0099e+02	-0.2183	16.251490	0.000709	7.094019	1.201759	-0.000142
1017	1.0109e+02	-0.2380	16.094042	0.000790	7.904764	1.339103	-0.000158
1018	1.0119e+02	-0.2586	15.944668	0.000750	7.499391	1.270431	-0.000150
1019	1.0129e+02	-0.2782	15.775108	0.000851	8.512822	1.442111	-0.000170
1020	1.0139e+02	-0.2981	15.609585	0.000831	8.310136	1.407775	-0.000166
1021	1.0149e+02	-0.3181	15.476360	0.000669	6.688646	1.133087	-0.000134
1022	1.0159e+02	-0.3392	15.335060	0.000709	7.094019	1.201759	-0.000142
1023	1.0169e+02	-0.3581	15.181649	0.000770	7.702077	1.304767	-0.000154
1024	1.0179e+02	-0.3777	15.068609	0.000568	5.675215	0.961407	-0.000114
1025	1.0189e+02	-0.3973	14.862715	0.001034	10.336999	1.751135	-0.000207
1026	1.0199e+02	-0.4176	14.701230	0.000811	8.107450	1.373439	-0.000162
1027	1.0209e+02	-0.4383	14.604339	0.000486	4.864470	0.824064	-0.000097
1028	1.0219e+02	-0.4578	14.418630	0.000932	9.323567	1.579455	-0.000187
1029	1.0229e+02	-0.4778	14.261182	0.000790	7.904764	1.339103	-0.000158
1030	1.0239e+02	-0.4983	14.099697	0.000811	8.107450	1.373439	-0.000162
1031	1.0248e+02	-0.5170	13.926100	0.000872	8.715509	1.476447	-0.000174
1032	1.0258e+02	-0.5379	13.813060	0.000568	5.675215	0.961407	-0.000114
1033	1.0268e+02	-0.5570	13.631389	0.000912	9.120881	1.545119	-0.000183
1034	1.0278e+02	-0.5780	13.494126	0.000689	6.891332	1.167423	-0.000138
1035	1.0288e+02	-0.5966	13.344752	0.000750	7.499391	1.270431	-0.000150
1036	1.0298e+02	-0.6172	13.179230	0.000831	8.310136	1.407775	-0.000166
1037	1.0308e+02	-0.6371	13.033893	0.000730	7.296705	1.236095	-0.000146
1038	1.0318e+02	-0.6559	12.868370	0.000831	8.310136	1.407775	-0.000166
1039	1.0328e+02	-0.6767	12.690736	0.000892	8.918195	1.510783	-0.000179
1040	1.0338e+02	-0.6969	12.553474	0.000689	6.891332	1.167423	-0.000138
1041	1.0348e+02	-0.7173	12.436397	0.000588	5.877901	0.995743	-0.000118
1042	1.0358e+02	-0.7370	12.246651	0.000953	9.526254	1.613791	-0.000191
1043	1.0368e+02	-0.7565	12.109389	0.000689	6.891332	1.167423	-0.000138
1044	1.0378e+02	-0.7762	11.955977	0.000770	7.702077	1.304767	-0.000154
1045	1.0388e+02	-0.7970	11.790455	0.000831	8.310136	1.407775	-0.000166
1046	1.0398e+02	-0.8171	11.645118	0.000730	7.296705	1.236095	-0.000146
1047	1.0408e+02	-0.8364	11.519967	0.000628	6.283274	1.064415	-0.000126
1048	1.0418e+02	-0.8565	11.318110	0.001013	10.134312	1.716799	-0.000203
1049	1.0428e+02	-0.8762	11.152587	0.000831	8.310136	1.407775	-0.000166
1050	1.0438e+02	-0.8955	11.019362	0.000669	6.688646	1.133087	-0.000134
1051	1.0447e+02	-0.9159	10.869988	0.000750	7.499391	1.270431	-0.000150
1052	1.0457e+02	-0.9357	10.672168	0.000993	9.931626	1.682463	-0.000199
1053	1.0467e+02	-0.9557	10.538943	0.000669	6.688646	1.133087	-0.000134
1054	1.0477e+02	-0.9761	10.373420	0.000831	8.310136	1.407775	-0.000166
1055	1.0487e+02	-0.9963	10.236158	0.000689	6.891332	1.167423	-0.000138
1056	1.0497e+02	-1.0150	10.054487	0.000912	9.120881	1.545119	-0.000183
1057	1.0507e+02	-1.0339	9.888964	0.000831	8.310136	1.407775	-0.000166
1058	1.0517e+02	-1.0551	9.779961	0.000547	5.472529	0.927071	-0.000110
1059	1.0527e+02	-1.0753	9.590216	0.000953	9.526254	1.613791	-0.000191
1060	1.0537e+02	-1.0949	9.428731	0.000811	8.107450	1.373439	-0.000162
1061	1.0547e+02	-1.1156	9.271282	0.000790	7.904764	1.339103	-0.000158
1062	1.0557e+02	-1.1351	9.174391	0.000486	4.864470	0.824064	-0.000097
1063	1.0567e+02	-1.1555	8.936200	0.001196	11.958489	2.025823	-0.000239
1064	1.0577e+02	-1.1745	8.786826	0.000750	7.499391	1.270431	-0.000150
1065	1.0587e+02	-1.1942	8.645526	0.000709	7.094019	1.201759	-0.000142
1066	1.0597e+02	-1.2157	8.496152	0.000750	7.499391	1.270431	-0.000150
1067	1.0607e+02	-1.2346	8.326592	0.000851	8.512822	1.442111	-0.000170
1068	1.0617e+02	-1.2556	8.169144	0.000790	7.904764	1.339103	-0.000158
1069	1.0627e+02	-1.2745	8.048030	0.000608	6.080587	1.030079	-0.000122
1070	1.0637e+02	-1.2950	7.854248	0.000973	9.728940	1.648127	-0.000195
1071	1.0647e+02	-1.3144	7.716985	0.000689	6.891332	1.167423	-0.000138
1072	1.0656e+02	-1.3351	7.587797	0.000649	6.485960	1.098751	-0.000130
1073	1.0666e+02	-1.3534	7.389977	0.000993	9.931626	1.682463	-0.000199
1074	1.0676e+02	-1.3734	7.248677	0.000709	7.094019	1.201759	-0.000142
1075	1.0686e+02	-1.3939	7.067006	0.000912	9.120881	1.545119	-0.000183
1076	1.0696e+02	-1.4136	6.929743	0.000689	6.891332	1.167423	-0.000138
1077	1.0706e+02	-1.4340	6.784407	0.000730	7.296705	1.236095	-0.000146
1078	1.0716e+02	-1.4542	6.630995	0.000770	7.702077	1.304767	-0.000154
1079	1.0726e+02	-1.4738	6.461436	0.000851	8.512822	1.442111	-0.000170
1080	1.0736e+02	-1.4930	6.320136	0.000709	7.094019	1.201759	-0.000142
1081	1.0746e+02	-1.5131	6.170762	0.000750	7.499391	1.270431	-0.000150
1082	1.0756e+02	-1.5335	6.025425	0.000730	7.296705	1.236095	-0.000146
1083	1.0766e+02	-1.5541	5.904311	0.000608	6.080587	1.030079	-0.000122
1084	1.0776e+02	-1.5733	5.666120	0.001196	11.958489	2.025823	-0.000239
1085	1.0786e+02	-1.5930	5.545006	0.000608	6.080587	1.030079	-0.000122
1086	1.0796e+02	-1.6123	5.383521	0.000811	8.107450	1.373439	-0.000162
1087	1.0806e+02	-1.6325	5.254332	0.000649	6.485960	1.098751	-0.000130
1088	1.0816e+02	-1.6531	5.080735	0.000872	8.715509	1.476447	-0.000174
1089	1.0826e+02	-1.6732	4.935398	0.000730	7.296705	1.236095	-0.000146
1090	1.0836e+02	-1.6920	4.777950	0.000790	7.904764	1.339103	-0.000158
1091	1.0845e+02	-1.7126	4.624539	0.000770	7.702077	1.304767	-0.000154
1092	1.0855e+02	-1.7323	4.495351	0.000649	6.485960	1.098751	-0.000130
1093	1.0865e+02	-1.7522	4.341939	0.000770	7.702077	1.304767	-0.000154
1094	1.0875e+02	-1.7720	4.184491	0.000790	7.904764	1.339103	-0.000158
1095	1.0885e+02	-1.7923	4.027043	0.000790	7.904764	1.339103	-0.000158
1096	1.0895e+02	-1.8126	3.845372	0.000912	9.120881	1.545119	-0.000183
1097	1.0905e+02	-1.8326	3.700035	0.000730	7.296705	1.236095	-0.000146
1098	1.0915e+02	-1.8516	3.562772	0.000689	6.891332	1.167423	-0.000138
1099	1.0925e+02	-1.8726	3.421473	0.000709	7.094019	1.201759	-0.000142
1100	1.0935e+02	-1.8927	3.300358	0.000608	6.080587	1.030079	-0.000122
1101	1.0945e+02	-1.9113	3.102539	0.000993	9.931626	1.682463	-0.000199
1102	1.0955e+02	-1.9314	2.965276	0.000689	6.891332	1.167423	-0.000138
1103	1.0965e+02	-1.9519	2.823976	0.000709	7.094019	1.201759	-0.000142
1104	1.0975e+02	-1.9727	2.670565	0.000770	7.702077	1.304767	-0.000154
1105	1.0985e+02	-1.9919	2.488894	0.000912	9.120881	1.545119	-0.000183
1106	1.0995e+02	-2.0117	2.355669	0.000669	6.688646	1.133087	-0.000134
1107	1.1005e+02	-2.0319	2.206295	0.000750	7.499391	1.270431	-0.000150
1108	1.1015e+02	-2.0509	2.077106	0.000649	6.485960	1.098751	-0.000130
1109	1.1025e+02	-2.0719	1.891398	0.000932	9.323567	1.579455	-0.000187
1110	1.1035e+02	-2.0914	1.770284	0.000608	6.080587	1.030079	-0.000122
1111	1.1044e+02	-2.1120	1.592650	0.000892	8.918195	1.510783	-0.000179
1112	1.1054e+02	-2.1307	1.475573	0.000588	5.877901	0.995743	-0.000118
1113	1.1064e+02	-2.1507	1.330236	0.000730	7.296705	1.236095	-0.000146
1114	1.1074e+02	-2.1709	1.156639	0.000872	8.715509	1.476447	-0.000174
1115	1.1084e+02	-2.1910	0.999191	0.000790	7.904764	1.339103	-0.000158
1116	1.1094e+02	-2.2108	0.853854	0.000730	7.296705	1.236095	-0.000146
1117	1.1104e+02	-2.2308	0.748889	0.000527	5.269842	0.892735	-0.000105
1118	1.1114e+02	-2.2516	0.542995	0.001034	10.336999	1.751135	-0.000207
1119	1.1124e+02	-2.2709	0.397658	0.000730	7.296705	1.236095	-0.000146
1120	1.1134e+02	-2.2902	0.256358	0.000709	7.094019	1.201759	-0.000142
1121	1.1144e+02	-2.3104	0.086798	0.000851	8.512822	1.442111	-0.000170
1122	1.1154e+02	-2.3305	-0.054501	0.000709	7.094019	1.201759	-0.000142
1123	1.1164e+02	-2.3507	-0.203875	0.000750	7.499391	1.270431	-0.000150
1124	1.1174e+02	-2.3698	-0.353249	0.000750	7.499391	1.270431	-0.000150
1125	1.1184e+02	-2.3897	-0.506661	0.000770	7.702077	1.304767	-0.000154
1126	1.1194e+02	-2.4107	-0.647960	0.000709	7.094019	1.201759	-0.000142
1127	1.1204e+02	-2.4301	-0.765037	0.000588	5.877901	0.995743	-0.000118
1128	1.1214e+02	-2.4500	-0.950745	0.000932	9.323567	1.579455	-0.000187
1129	1.1224e+02	-2.4701	-1.100119	0.000750	7.499391	1.270431	-0.000150
1130	1.1234e+02	-2.4899	-1.221234	0.000608	6.080587	1.030079	-0.000122
1131	1.1244e+02	-2.5096	-1.378682	0.000790	7.904764	1.339103	-0.000158
1132	1.1253e+02	-2.5290	-1.540167	0.000811	8.107450	1.373439	-0.000162
1133	1.1263e+02	-2.5488	-1.681467	0.000709	7.094019	1.201759	-0.000142
1134	1.1273e+02	-2.5699	-1.822767	0.000709	7.094019	1.201759	-0.000142
1135	1.1283e+02	-2.5888	-1.996364	0.000872	8.715509	1.476447	-0.000174
1136	1.1293e+02	-2.6084	-2.133626	0.000689	6.891332	1.167423	-0.000138
1137	1.1303e+02	-2.6291	-2.270889	0.000689	6.891332	1.167423	-0.000138
1138	1.1313e+02	-2.6487	-2.428337	0.000790	7.904764	1.339103	-0.000158
1139	1.1323e+02	-2.6683	-2.561563	0.000669	6.688646	1.133087	-0.000134
1140	1.1333e+02	-2.6885	-2.674602	0.000568	5.675215	0.961407	-0.000114
1141	1.1343e+02	-2.7082	-2.872422	0.000993	9.931626	1.682463	-0.000199
1142	1.1353e+02	-2.7261	-2.985462	0.000568	5.675215	0.961407	-0.000114
1143	1.1363e+02	-2.7478	-3.155022	0.000851	8.512822	1.442111	-0.000170
1144	1.1373e+02	-2.7684	-3.255950	0.000507	5.067156	0.858400	-0.000101
1145	1.1383e+02	-2.7890	-3.433584	0.000892	8.918195	1.510783	-0.000179
1146	1.1393e+02	-2.8082	-3.611218	0.000892	8.918195	1.510783	-0.000179
1147	1.1403e+02	-2.8273	-3.695998	0.000426	4.256411	0.721056	-0.000085
1148	1.1413e+02	-2.8484	-3.857483	0.000811	8.107450	1.373439	-0.000162
1149	1.1423e+02	-2.8673	-3.982634	0.000628	6.283274	1.064415	-0.000126
1150	1.1433e+02	-2.8875	-4.136046	0.000770	7.702077	1.304767	-0.000154
1151	1.1442e+02	-2.9082	-4.301568	0.000831	8.310136	1.407775	-0.000166
1152	1.1452e+02	-2.9272	-4.438831	0.000689	6.891332	1.167423	-0.000138
1153	1.1462e+02	-2.9468	-4.612428	0.000872	8.715509	1.476447	-0.000174
1154	1.1472e+02	-2.9674	-4.701245	0.000446	4.459097	0.755392	-0.000089
1155	1.1482e+02	-2.9874	-4.878879	0.000892	8.918195	1.510783	-0.000179
1156	1.1492e+02	-3.0083	-5.028253	0.000750	7.499391	1.270431	-0.000150
1157	1.1502e+02	-3.0270	-5.141292	0.000568	5.675215	0.961407	-0.000114
1158	1.1512e+02	-3.0475	-5.306815	0.000831	8.310136	1.407775	-0.000166
1159	1.1522e+02	-3.0681	-5.456189	0.000750	7.499391	1.270431	-0.000150
1160	1.1532e+02	-3.0869	-5.609600	0.000770	7.702077	1.304767	-0.000154
1161	1.1542e+02	-3.1070	-5.734751	0.000628	6.283274	1.064415	-0.000126
1162	1.1552e+02	-3.1268	-5.884125	0.000750	7.499391	1.270431	-0.000150
1163	1.1562e+02	-3.1474	-6.065796	0.000912	9.120881	1.545119	-0.000183
1164	1.1572e+02	-3.1667	-6.219208	0.000770	7.702077	1.304767	-0.000154
1165	1.1582e+02	-3.1870	-6.332247	0.000568	5.675215	0.961407	-0.000114
1166	1.1592e+02	-3.2069	-6.441250	0.000547	5.472529	0.927071	-0.000110
1167	1.1602e+02	-3.2269	-6.643107	0.001013	10.134312	1.716799	-0.000203
1168	1.1612e+02	-3.2472	-6.768258	0.000628	6.283274	1.064415	-0.000126
1169	1.1622e+02	-3.2660	-6.929743	0.000811	8.107450	1.373439	-0.000162
1170	1.1632e+02	-3.2866	-7.050858	0.000608	6.080587	1.030079	-0.000122
1171	1.1642e+02	-3.3058	-7.212343	0.000811	8.107450	1.373439	-0.000162
1172	1.1651e+02	-3.3264	-7.369791	0.000790	7.904764	1.339103	-0.000158
1173	1.1661e+02	-3.3461	-7.515128	0.000730	7.296705	1.236095	-0.000146
1174	1.1671e+02	-3.3669	-7.656428	0.000709	7.094019	1.201759	-0.000142
1175	1.1681e+02	-3.3861	-7.797728	0.000709	7.094019	1.201759	-0.000142
1176	1.1691e+02	-3.4059	-7.959213	0.000811	8.107450	1.373439	-0.000162
1177	1.1701e+02	-3.4262	-8.104550	0.000730	7.296705	1.236095	-0.000146
1178	1.1711e+02	-3.4451	-8.257961	0.000770	7.702077	1.304767	-0.000154
1179	1.1721e+02	-3.4659	-8.391187	0.000669	6.688646	1.133087	-0.000134
1180	1.1731e+02	-3.4863	-8.540561	0.000750	7.499391	1.270431	-0.000150
1181	1.1741e+02	-3.5049	-8.706083	0.000831	8.310136	1.407775	-0.000166
1182	1.1751e+02	-3.5258	-8.851420	0.000730	7.296705	1.236095	-0.000146
1183	1.1761e+02	-3.5464	-8.956386	0.000527	5.269842	0.892735	-0.000105
1184	1.1771e+02	-3.5654	-9.138057	0.000912	9.120881	1.545119	-0.000183
1185	1.1781e+02	-3.5846	-9.295505	0.000790	7.904764	1.339103	-0.000158
1186	1.1791e+02	-3.6050	-9.404508	0.000547	5.472529	0.927071	-0.000110
1187	1.1801e+02	-3.6245	-9.549845	0.000730	7.296705	1.236095	-0.000146
1188	1.1811e+02	-3.6444	-9.670959	0.000608	6.080587	1.030079	-0.000122
1189	1.1821e+02	-3.6654	-9.832444	0.000811	8.107450	1.373439	-0.000162
1190	1.1831e+02	-3.6850	-10.006041	0.000872	8.715509	1.476447	-0.000174
1191	1.1841e+02	-3.7051	-10.135229	0.000649	6.485960	1.098751	-0.000130
1192	1.1850e+02	-3.7242	-10.300752	0.000831	8.310136	1.407775	-0.000166
1193	1.1860e+02	-3.7440	-10.458200	0.000790	7.904764	1.339103	-0.000158
1194	1.1870e+02	-3.7648	-10.559129	0.000507	5.067156	0.858400	-0.000101
1195	1.1880e+02	-3.7842	-10.752911	0.000973	9.728940	1.648127	-0.000195
1196	1.1890e+02	-3.8044	-10.898248	0.000730	7.296705	1.236095	-0.000146
1197	1.1900e+02	-3.8241	-11.031473	0.000669	6.688646	1.133087	-0.000134
1198	1.1910e+02	-3.8439	-11.184885	0.000770	7.702077	1.304767	-0.000154
1199	1.1920e+02	-3.8640	-11.346370	0.000811	8.107450	1.373439	-0.000162
1200	1.1930e+02	-3.8843	-11.471521	0.000628	6.283274	1.064415	-0.000126
1201	1.1940e+02	-3.9047	-11.608784	0.000689	6.891332	1.167423	-0.000138
1202	1.1950e+02	-3.9238	-11.742009	0.000669	6.688646	1.133087	-0.000134
1203	1.1960e+02	-3.9440	-11.911569	0.000851	8.512822	1.442111	-0.000170
1204	1.1970e+02	-3.9641	-12.060943	0.000750	7.499391	1.270431	-0.000150
1205	1.1980e+02	-3.9835	-12.190131	0.000649	6.485960	1.098751	-0.000130
1206	1.1990e+02	-4.0036	-12.311245	0.000608	6.080587	1.030079	-0.000122
1207	1.2000e+02	-4.0240	-12.452545	0.000709	7.094019	1.201759	-0.000142
1208	1.2010e+02	-4.0439	-12.630179	0.000892	8.918195	1.510783	-0.000179
1209	1.2020e+02	-4.0634	-12.763405	0.000669	6.688646	1.133087	-0.000134
1210	1.2030e+02	-4.0833	-12.912779	0.000750	7.499391	1.270431	-0.000150
1211	1.2039e+02	-4.1031	-13.070227	0.000790	7.904764	1.339103	-0.000158
1212	1.2049e+02	-4.1222	-13.215564	0.000730	7.296705	1.236095	-0.000146
1213	1.2059e+02	-4.1434	-13.352826	0.000689	6.891332	1.167423	-0.000138
1214	1.2069e+02	-4.1626	-13.514312	0.000811	8.107450	1.373439	-0.000162
1215	1.2079e+02	-4.1830	-13.627352	0.000568	5.675215	0.961407	-0.000114
1216	1.2089e+02	-4.2026	-13.821134	0.000973	9.728940	1.648127	-0.000195
1217	1.2099e+02	-4.2218	-13.950323	0.000649	6.485960	1.098751	-0.000130
1218	1.2109e+02	-4.2429	-14.099697	0.000750	7.499391	1.270431	-0.000150
1219	1.2119e+02	-4.2624	-14.265219	0.000831	8.310136	1.407775	-0.000166
1220	1.2129e+02	-4.2837	-14.362110	0.000486	4.864470	0.824064	-0.000097
1221	1.2139e+02	-4.3024	-14.519559	0.000790	7.904764	1.339103	-0.000158
1222	1.2149e+02	-4.3214	-14.701230	0.000912	9.120881	1.545119	-0.000183
1223	1.2159e+02	-4.3427	-14.822344	0.000608	6.080587	1.030079	-0.000122
1224	1.2169e+02	-4.3623	-14.979792	0.000790	7.904764	1.339103	-0.000158
1225	1.2179e+02	-4.3827	-15.137240	0.000790	7.904764	1.339103	-0.000158
1226	1.2189e+02	-4.4019	-15.286614	0.000750	7.499391	1.270431	-0.000150
1227	1.2199e+02	-4.4220	-15.431951	0.000730	7.296705	1.236095	-0.000146
1228	1.2209e+02	-4.4421	-15.553065	0.000608	6.080587	1.030079	-0.000122
1229	1.2219e+02	-4.4618	-15.714551	0.000811	8.107450	1.373439	-0.000162
1230	1.2229e+02	-4.4809	-15.855851	0.000709	7.094019	1.201759	-0.000142
1231	1.2239e+02	-4.5015	-16.013299	0.000790	7.904764	1.339103	-0.000158
1232	1.2248e+02	-4.5215	-16.138450	0.000628	6.283274	1.064415	-0.000126
1233	1.2258e+02	-4.5419	-16.320121	0.000912	9.120881	1.545119	-0.000183
1234	1.2268e+02	-4.5620	-16.469495	0.000750	7.499391	1.270431	-0.000150
1235	1.2278e+02	-4.5818	-16.602721	0.000669	6.688646	1.133087	-0.000134
1236	1.2288e+02	-4.6020	-16.727872	0.000628	6.283274	1.064415	-0.000126
1237	1.2298e+02	-4.6214	-16.869172	0.000709	7.094019	1.201759	-0.000142
1238	1.2308e+02	-4.6420	-17.050843	0.000912	9.120881	1.545119	-0.000183
1239	1.2318e+02	-4.6603	-17.151771	0.000507	5.067156	0.858400	-0.000101
1240	1.2328e+02	-4.6805	-17.305182	0.000770	7.702077	1.304767	-0.000154
1241	1.2338e+02	-4.7006	-17.446482	0.000709	7.094019	1.201759	-0.000142
1242	1.2348e+02	-4.7211	-17.616042	0.000851	8.512822	1.442111	-0.000170
1243	1.2358e+02	-4.7407	-17.765416	0.000750	7.499391	1.270431	-0.000150
1244	1.2368e+02	-4.7590	-17.890567	0.000628	6.283274	1.064415	-0.000126
1245	1.2378e+02	-4.7807	-18.027830	0.000689	6.891332	1.167423	-0.000138
1246	1.2388e+02	-4.8012	-18.185278	0.000790	7.904764	1.339103	-0.000158
1247	1.2398e+02	-4.8203	-18.314466	0.000649	6.485960	1.098751	-0.000130
1248	1.2408e+02	-4.8402	-18.439617	0.000628	6.283274	1.064415	-0.000126
1249	1.2418e+02	-4.8602	-18.605140	0.000831	8.310136	1.407775	-0.000166
1250	1.2428e+02	-4.8807	-18.762588	0.000790	7.904764	1.339103	-0.000158
1251	1.2438e+02	-4.8988	-18.883702	0.000608	6.080587	1.030079	-0.000122
1252	1.2447e+02	-4.9202	-19.045188	0.000811	8.107450	1.373439	-0.000162
1253	1.2457e+02	-4.9402	-19.170339	0.000628	6.283274	1.064415	-0.000126
1254	1.2467e+02	-4.9606	-19.315676	0.000730	7.296705	1.236095	-0.000146
1255	1.2477e+02	-4.9802	-19.481199	0.000831	8.310136	1.407775	-0.000166
1256	1.2487e+02	-5.0000	-19.594238	0.000568	5.675215	0.961407	-0.000114
1257	1.2497e+02	-5.0201	-19.727464	0.000669	6.688646	1.133087	-0.000134
1258	1.2507e+02	-5.0400	-19.933358	0.001034	10.336999	1.751135	-0.000207
1259	1.2517e+02	-5.0594	-20.030249	0.000486	4.864470	0.824064	-0.000097
1260	1.2527e+02	-5.0797	-20.195772	0.000831	8.310136	1.407775	-0.000166
1261	1.2537e+02	-5.1001	-20.341108	0.000730	7.296705	1.236095	-0.000146
1262	1.2547e+02	-5.1192	-20.474334	0.000669	6.688646	1.133087	-0.000134
1263	1.2557e+02	-5.1379	-20.591411	0.000588	5.877901	0.995743	-0.000118
1264	1.2567e+02	-5.1595	-20.756933	0.000831	8.310136	1.407775	-0.000166
1265	1.2577e+02	-5.1787	-20.874010	0.000588	5.877901	0.995743	-0.000118
1266	1.2587e+02	-5.1984	-21.051644	0.000892	8.918195	1.510783	-0.000179
1267	1.2597e+02	-5.2185	-21.168721	0.000588	5.877901	0.995743	-0.000118
1268	1.2607e+02	-5.2394	-21.374615	0.001034	10.336999	1.751135	-0.000207
1269	1.2617e+02	-5.2593	-21.455358	0.000405	4.053725	0.686720	-0.000081
1270	1.2627e+02	-5.2791	-21.649140	0.000973	9.728940	1.648127	-0.000195
1271	1.2636e+02	-5.2988	-21.754106	0.000527	5.269842	0.892735	-0.000105
1272	1.2646e+02	-5.3181	-21.919628	0.000831	8.310136	1.407775	-0.000166
1273	1.2656e+02	-5.3381	-22.036705	0.000588	5.877901	0.995743	-0.000118
1274	1.2666e+02	-5.3584	-22.182042	0.000730	7.296705	1.236095	-0.000146
1275	1.2676e+02	-5.3783	-22.327379	0.000730	7.296705	1.236095	-0.000146
1276	1.2686e+02	-5.3983	-22.500976	0.000872	8.715509	1.476447	-0.000174
1277	1.2696e+02	-5.4186	-22.622090	0.000608	6.080587	1.030079	-0.000122
1278	1.2706e+02	-5.4379	-22.755316	0.000669	6.688646	1.133087	-0.000134
1279	1.2716e+02	-5.4572	-22.904690	0.000750	7.499391	1.270431	-0.000150
1280	1.2726e+02	-5.4771	-23.058101	0.000770	7.702077	1.304767	-0.000154
1281	1.2736e+02	-5.4968	-23.191326	0.000669	6.688646	1.133087	-0.000134
1282	1.2746e+02	-5.5180	-23.356849	0.000831	8.310136	1.407775	-0.000166
1283	1.2756e+02	-5.5383	-23.514297	0.000790	7.904764	1.339103	-0.000158
1284	1.2766e+02	-5.5573	-23.635411	0.000608	6.080587	1.030079	-0.000122
1285	1.2776e+02	-5.5774	-23.780748	0.000730	7.296705	1.236095	-0.000146
1286	1.2786e+02	-5.5981	-23.958382	0.000892	8.918195	1.510783	-0.000179
1287	1.2796e+02	-5.6169	-24.075459	0.000588	5.877901	0.995743	-0.000118
1288	1.2806e+02	-5.6375	-24.257130	0.000912	9.120881	1.545119	-0.000183
1289	1.2816e+02	-5.6577	-24.366133	0.000547	5.472529	0.927071	-0.000110
1290	1.2826e+02	-5.6777	-24.527618	0.000811	8.107450	1.373439	-0.000162
1291	1.2835e+02	-5.6973	-24.664881	0.000689	6.891332	1.167423	-0.000138
1292	1.2845e+02	-5.7167	-24.822329	0.000790	7.904764	1.339103	-0.000158
1293	1.2855e+02	-5.7367	-24.919220	0.000486	4.864470	0.824064	-0.000097
1294	1.2865e+02	-5.7573	-25.100891	0.000912	9.120881	1.545119	-0.000183
1295	1.2875e+02	-5.7767	-25.274488	0.000872	8.715509	1.476447	-0.000174
1296	1.2885e+02	-5.7962	-25.383491	0.000547	5.472529	0.927071	-0.000110
1297	1.2895e+02	-5.8157	-25.553051	0.000851	8.512822	1.442111	-0.000170
1298	1.2905e+02	-5.8372	-25.726647	0.000872	8.715509	1.476447	-0.000174
1299	1.2915e+02	-5.8557	-25.799316	0.000365	3.648352	0.618048	-0.000073
1300	1.2925e+02	-5.8768	-25.993098	0.000973	9.728940	1.648127	-0.000195
1301	1.2935e+02	-5.8966	-26.146510	0.000770	7.702077	1.304767	-0.000154
1302	1.2945e+02	-5.9174	-26.287809	0.000709	7.094019	1.201759	-0.000142
1303	1.2955e+02	-5.9366	-26.429109	0.000709	7.094019	1.201759	-0.000142
1304	1.2965e+02	-5.9566	-26.546186	0.000588	5.877901	0.995743	-0.000118
1305	1.2975e+02	-5.9761	-26.727857	0.000912	9.120881	1.545119	-0.000183
1306	1.2985e+02	-5.9957	-26.857045	0.000649	6.485960	1.098751	-0.000130
1307	1.2995e+02	-6.0165	-27.034679	0.000892	8.918195	1.510783	-0.000179
1308	1.3005e+02	-6.0364	-27.155794	0.000608	6.080587	1.030079	-0.000122
1309	1.3015e+02	-6.0555	-27.305168	0.000750	7.499391	1.270431	-0.000150
1310	1.3025e+02	-6.0742	-27.494913	0.000953	9.526254	1.613791	-0.000191
1311	1.3034e+02	-6.0957	-27.583730	0.000446	4.459097	0.755392	-0.000089
1312	1.3044e+02	-6.1153	-27.745215	0.000811	8.107450	1.373439	-0.000162
1313	1.3054e+02	-6.1358	-27.894589	0.000750	7.499391	1.270431	-0.000150
1314	1.3064e+02	-6.1554	-28.043963	0.000750	7.499391	1.270431	-0.000150
1315	1.3074e+02	-6.1752	-28.221597	0.000892	8.918195	1.510783	-0.000179
1316	1.3084e+02	-6.1952	-28.338674	0.000588	5.877901	0.995743	-0.000118
1317	1.3094e+02	-6.2157	-28.504197	0.000831	8.310136	1.407775	-0.000166
1318	1.3104e+02	-6.2357	-28.625311	0.000608	6.080587	1.030079	-0.000122
1319	1.3114e+02	-6.2549	-28.790834	0.000831	8.310136	1.407775	-0.000166
1320	1.3124e+02	-6.2743	-28.920022	0.000649	6.485960	1.098751	-0.000130
1321	1.3134e+02	-6.2955	-29.101693	0.000912	9.120881	1.545119	-0.000183
1322	1.3144e+02	-6.3152	-29.238956	0.000689	6.891332	1.167423	-0.000138
1323	1.3154e+02	-6.3346	-29.388330	0.000750	7.499391	1.270431	-0.000150
1324	1.3164e+02	-6.3544	-29.513481	0.000628	6.283274	1.064415	-0.000126
1325	1.3174e+02	-6.3754	-29.683041	0.000851	8.512822	1.442111	-0.000170
1326	1.3184e+02	-6.3941	-29.868749	0.000932	9.323567	1.579455	-0.000187
1327	1.3194e+02	-6.4148	-30.010049	0.000709	7.094019	1.201759	-0.000142
1328	1.3204e+02	-6.4351	-30.179608	0.000851	8.512822	1.442111	-0.000170
1329	1.3214e+02	-6.4542	-30.324945	0.000730	7.296705	1.236095	-0.000146
1330	1.3224e+02	-6.4749	-30.494505	0.000851	8.512822	1.442111	-0.000170
1331	1.3234e+02	-6.4937	-30.647916	0.000770	7.702077	1.304767	-0.000154
1332	1.3243e+02	-6.5145	-30.817476	0.000851	8.512822	1.442111	-0.000170
1333	1.3253e+02	-6.5341	-30.982998	0.000831	8.310136	1.407775	-0.000166
1334	1.3263e+02	-6.5535	-31.160632	0.000892	8.918195	1.510783	-0.000179
1335	1.3273e+02	-6.5746	-31.261561	0.000507	5.067156	0.858400	-0.000101
1336	1.3283e+02	-6.5945	-31.427083	0.000831	8.310136	1.407775	-0.000166
1337	1.3293e+02	-6.6135	-31.604717	0.000892	8.918195	1.510783	-0.000179
1338	1.3303e+02	-6.6341	-31.774277	0.000851	8.512822	1.442111	-0.000170
1339	1.3313e+02	-6.6526	-31.943837	0.000851	8.512822	1.442111	-0.000170
1340	1.3323e+02	-6.6724	-32.133582	0.000953	9.526254	1.613791	-0.000191
1341	1.3333e+02	-6.6930	-32.258733	0.000628	6.283274	1.064415	-0.000126
1342	1.3343e+02	-6.7133	-32.424256	0.000831	8.310136	1.407775	-0.000166
1343	1.3353e+02	-6.7340	-32.618038	0.000973	9.728940	1.648127	-0.000195
1344	1.3363e+02	-6.7538	-32.735115	0.000588	5.877901	0.995743	-0.000118
1345	1.3373e+02	-6.7725	-32.973306	0.001196	11.958489	2.025823	-0.000239
1346	1.3383e+02	-6.7929	-33.098457	0.000628	6.283274	1.064415	-0.000126
1347	1.3393e+02	-6.8133	-33.276091	0.000892	8.918195	1.510783	-0.000179
1348	1.3403e+02	-6.8326	-33.405280	0.000649	6.485960	1.098751	-0.000130
1349	1.3413e+02	-6.8527	-33.595025	0.000953	9.526254	1.613791	-0.000191
1350	1.3423e+02	-6.8732	-33.800919	0.001034	10.336999	1.751135	-0.000207
1351	1.3432e+02	-6.8929	-33.954330	0.000770	7.702077	1.304767	-0.000154
1352	1.3442e+02	-6.9131	-34.123890	0.000851	8.512822	1.442111	-0.000170
1353	1.3452e+02	-6.9322	-34.289412	0.000831	8.310136	1.407775	-0.000166
1354	1.3462e+02	-6.9516	-34.454935	0.000831	8.310136	1.407775	-0.000166
1355	1.3472e+02	-6.9720	-34.660829	0.001034	10.336999	1.751135	-0.000207
1356	1.3482e+02	-6.9920	-34.810203	0.000750	7.499391	1.270431	-0.000150
1357	1.3492e+02	-7.0117	-34.995911	0.000932	9.323567	1.579455	-0.000187
1358	1.3502e+02	-7.0321	-35.169508	0.000872	8.715509	1.476447	-0.000174
1359	1.3512e+02	-7.0523	-35.347142	0.000892	8.918195	1.510783	-0.000179
1360	1.3522e+02	-7.0721	-35.480367	0.000669	6.688646	1.133087	-0.000134
1361	1.3532e+02	-7.0923	-35.674150	0.000973	9.728940	1.648127	-0.000195
1362	1.3542e+02	-7.1124	-35.847747	0.000872	8.715509	1.476447	-0.000174
1363	1.3552e+02	-7.1315	-35.985009	0.000689	6.891332	1.167423	-0.000138
1364	1.3562e+02	-7.1515	-36.178792	0.000973	9.728940	1.648127	-0.000195
1365	1.3572e+02	-7.1724	-36.348352	0.000851	8.512822	1.442111	-0.000170
1366	1.3582e+02	-7.1923	-36.517911	0.000851	8.512822	1.442111	-0.000170
1367	1.3592e+02	-7.2118	-36.719768	0.001013	10.134312	1.716799	-0.000203
1368	1.3602e+02	-7.2309	-36.881254	0.000811	8.107450	1.373439	-0.000162
1369	1.3612e+02	-7.2514	-37.083110	0.001013	10.134312	1.716799	-0.000203
1370	1.3622e+02	-7.2711	-37.228447	0.000730	7.296705	1.236095	-0.000146
1371	1.3631e+02	-7.2906	-37.418193	0.000953	9.526254	1.613791	-0.000191
1372	1.3641e+02	-7.3116	-37.591789	0.000872	8.715509	1.476447	-0.000174
1373	1.3651e+02	-7.3311	-37.797683	0.001034	10.336999	1.751135	-0.000207
1374	1.3661e+02	-7.3512	-37.951095	0.000770	7.702077	1.304767	-0.000154
1375	1.3671e+02	-7.3700	-38.104506	0.000770	7.702077	1.304767	-0.000154
1376	1.3681e+02	-7.3904	-38.338660	0.001176	11.755802	1.991487	-0.000235
1377	1.3691e+02	-7.4097	-38.532442	0.000973	9.728940	1.648127	-0.000195
1378	1.3701e+02	-7.4312	-38.685853	0.000770	7.702077	1.304767	-0.000154
1379	1.3711e+02	-7.4510	-38.915970	0.001155	11.553116	1.957151	-0.000231
1380	1.3721e+02	-7.4713	-39.037084	0.000608	6.080587	1.030079	-0.000122
1381	1.3731e+02	-7.4908	-39.259126	0.001115	11.147744	1.888479	-0.000223
1382	1.3741e+02	-7.5101	-39.432723	0.000872	8.715509	1.476447	-0.000174
1383	1.3751e+02	-7.5301	-39.610357	0.000892	8.918195	1.510783	-0.000179
1384	1.3761e+02	-7.5500	-39.812214	0.001013	10.134312	1.716799	-0.000203
1385	1.3771e+02	-7.5693	-39.981774	0.000851	8.512822	1.442111	-0.000170
1386	1.3781e+02	-7.5891	-40.179593	0.000993	9.931626	1.682463	-0.000199
1387	1.3791e+02	-7.6086	-40.365302	0.000932	9.323567	1.579455	-0.000187
1388	1.3801e+02	-7.6292	-40.575233	0.001054	10.539685	1.785471	-0.000211
1389	1.3811e+02	-7.6492	-40.793238	0.001095	10.945057	1.854143	-0.000219
1390	1.3821e+02	-7.6683	-40.954723	0.000811	8.107450	1.373439	-0.000162
1391	1.3831e+02	-7.6889	-41.116209	0.000811	8.107450	1.373439	-0.000162
1392	1.3840e+02	-7.7092	-41.366511	0.001257	12.566547	2.128831	-0.000252
1393	1.3850e+02	-7.7293	-41.532034	0.000831	8.310136	1.407775	-0.000166
1394	1.3860e+02	-7.7485	-41.750039	0.001095	10.945057	1.854143	-0.000219
1395	1.3870e+02	-7.7680	-41.951896	0.001013	10.134312	1.716799	-0.000203
1396	1.3880e+02	-7.7879	-42.117419	0.000831	8.310136	1.407775	-0.000166
1397	1.3890e+02	-7.8079	-42.343498	0.001135	11.350430	1.922815	-0.000227
1398	1.3900e+02	-7.8285	-42.541318	0.000993	9.931626	1.682463	-0.000199
1399	1.3910e+02	-7.8470	-42.747212	0.001034	10.336999	1.751135	-0.000207
1400	1.3920e+02	-7.8687	-42.908697	0.000811	8.107450	1.373439	-0.000162
1401	1.3930e+02	-7.8872	-43.114591	0.001034	10.336999	1.751135	-0.000207
1402	1.3940e+02	-7.9074	-43.312411	0.000993	9.931626	1.682463	-0.000199
1403	1.3950e+02	-7.9276	-43.550602	0.001196	11.958489	2.025823	-0.000239
1404	1.3960e+02	-7.9485	-43.732273	0.000912	9.120881	1.545119	-0.000183
1405	1.3970e+02	-7.9678	-43.922018	0.000953	9.526254	1.613791	-0.000191
1406	1.3980e+02	-7.9883	-44.148098	0.001135	11.350430	1.922815	-0.000227
1407	1.3990e+02	-8.0074	-44.321695	0.000872	8.715509	1.476447	-0.000174
1408	1.4000e+02	-8.0271	-44.567960	0.001236	12.363861	2.094495	-0.000248
1409	1.4010e+02	-8.0473	-44.749631	0.000912	9.120881	1.545119	-0.000183
1410	1.4020e+02	-8.0667	-44.899005	0.000750	7.499391	1.270431	-0.000150
1411	1.4029e+02	-8.0878	-45.153345	0.001277	12.769234	2.163167	-0.000256
1412	1.4039e+02	-8.1070	-45.347127	0.000973	9.728940	1.648127	-0.000195
1413	1.4049e+02	-8.1273	-45.573207	0.001135	11.350430	1.922815	-0.000227
1414	1.4059e+02	-8.1470	-45.787175	0.001074	10.742371	1.819807	-0.000215
1415	1.4069e+02	-8.1667	-45.984995	0.000993	9.931626	1.682463	-0.000199
1416	1.4079e+02	-8.1875	-46.162629	0.000892	8.918195	1.510783	-0.000179
1417	1.4089e+02	-8.2062	-46.408894	0.001236	12.363861	2.094495	-0.000248
1418	1.4099e+02	-8.2267	-46.586528	0.000892	8.918195	1.510783	-0.000179
1419	1.4109e+02	-8.2467	-46.820682	0.001176	11.755802	1.991487	-0.000235
1420	1.4119e+02	-8.2661	-47.026576	0.001034	10.336999	1.751135	-0.000207
1421	1.4129e+02	-8.2867	-47.220358	0.000973	9.728940	1.648127	-0.000195
1422	1.4139e+02	-8.3076	-47.454512	0.001176	11.755802	1.991487	-0.000235
1423	1.4149e+02	-8.3270	-47.700777	0.001236	12.363861	2.094495	-0.000248
1424	1.4159e+02	-8.3467	-47.874374	0.000872	8.715509	1.476447	-0.000174
1425	1.4169e+02	-8.3658	-48.092379	0.001095	10.945057	1.854143	-0.000219
1426	1.4179e+02	-8.3853	-48.354793	0.001317	13.174606	2.231839	-0.000264
1427	1.4189e+02	-8.4050	-48.540502	0.000932	9.323567	1.579455	-0.000187
1428	1.4199e+02	-8.4259	-48.746395	0.001034	10.336999	1.751135	-0.000207
1429	1.4209e+02	-8.4464	-48.976512	0.001155	11.553116	1.957151	-0.000231
1430	1.4219e+02	-8.4666	-49.226815	0.001257	12.566547	2.128831	-0.000252
1431	1.4228e+02	-8.4866	-49.444820	0.001095	10.945057	1.854143	-0.000219
1432	1.4238e+02	-8.5049	-49.646677	0.001013	10.134312	1.716799	-0.000203
1433	1.4248e+02	-8.5263	-49.872756	0.001135	11.350430	1.922815	-0.000227
1434	1.4258e+02	-8.5469	-50.127096	0.001277	12.769234	2.163167	-0.000256
1435	1.4268e+02	-8.5647	-50.304730	0.000892	8.918195	1.510783	-0.000179
1436	1.4278e+02	-8.5857	-50.498512	0.000973	9.728940	1.648127	-0.000195
1437	1.4288e+02	-8.6055	-50.760926	0.001317	13.174606	2.231839	-0.000264
1438	1.4298e+02	-8.6252	-50.999117	0.001196	11.958489	2.025823	-0.000239
1439	1.4308e+02	-8.6449	-51.233271	0.001176	11.755802	1.991487	-0.000235
1440	1.4318e+02	-8.6654	-51.402831	0.000851	8.512822	1.442111	-0.000170
1441	1.4328e+02	-8.6853	-51.677356	0.001378	13.782665	2.334847	-0.000276
1442	1.4338e+02	-8.7057	-51.903436	0.001135	11.350430	1.922815	-0.000227
1443	1.4348e+02	-8.7244	-52.157775	0.001277	12.769234	2.163167	-0.000256
1444	1.4358e+02	-8.7439	-52.367706	0.001054	10.539685	1.785471	-0.000211
1445	1.4368e+02	-8.7646	-52.601860	0.001176	11.755802	1.991487	-0.000235
1446	1.4378e+02	-8.7848	-52.852163	0.001257	12.566547	2.128831	-0.000252
1447	1.4388e+02	-8.8040	-53.049982	0.000993	9.931626	1.682463	-0.000199
1448	1.4398e+02	-8.8243	-53.296247	0.001236	12.363861	2.094495	-0.000248
1449	1.4408e+02	-8.8437	-53.530401	0.001176	11.755802	1.991487	-0.000235
1450	1.4418e+02	-8.8640	-53.768592	0.001196	11.958489	2.025823	-0.000239
1451	1.4428e+02	-8.8844	-53.994672	0.001135	11.350430	1.922815	-0.000227
1452	1.4437e+02	-8.9044	-54.277271	0.001419	14.188037	2.403519	-0.000284
1453	1.4447e+02	-8.9240	-54.523537	0.001236	12.363861	2.094495	-0.000248
1454	1.4457e+02	-8.9424	-54.830359	0.001540	15.404155	2.609534	-0.000308
1455	1.4467e+02	-8.9633	-55.020104	0.000953	9.526254	1.613791	-0.000191
1456	1.4477e+02	-8.9839	-55.246184	0.001135	11.350430	1.922815	-0.000227
1457	1.4487e+02	-9.0034	-55.500524	0.001277	12.769234	2.163167	-0.000256
1458	1.4497e+02	-9.0237	-55.771012	0.001358	13.579979	2.300511	-0.000272
1459	1.4507e+02	-9.0428	-55.964794	0.000973	9.728940	1.648127	-0.000195
1460	1.4517e+02	-9.0637	-56.239319	0.001378	13.782665	2.334847	-0.000276
1461	1.4527e+02	-9.0833	-56.493659	0.001277	12.769234	2.163167	-0.000256
1462	1.4537e+02	-9.1039	-56.768184	0.001378	13.782665	2.334847	-0.000276
1463	1.4547e+02	-9.1231	-56.998301	0.001155	11.553116	1.957151	-0.000231
1464	1.4557e+02	-9.1440	-57.280900	0.001419	14.188037	2.403519	-0.000284
1465	1.4567e+02	-9.1621	-57.547351	0.001338	13.377292	2.266175	-0.000268
1466	1.4577e+02	-9.1830	-57.777468	0.001155	11.553116	1.957151	-0.000231
1467	1.4587e+02	-9.2021	-58.064105	0.001439	14.390724	2.437855	-0.000288
1468	1.4597e+02	-9.2227	-58.342667	0.001399	13.985351	2.369183	-0.000280
1469	1.4607e+02	-9.2429	-58.552598	0.001054	10.539685	1.785471	-0.000211
1470	1.4617e+02	-9.2626	-58.887680	0.001682	16.822959	2.849886	-0.000337
1471	1.4626e+02	-9.2819	-59.137983	0.001257	12.566547	2.128831	-0.000252
1472	1.4636e+02	-9.3013	-59.416545	0.001399	13.985351	2.369183	-0.000280
1473	1.4646e+02	-9.3215	-59.634551	0.001095	10.945057	1.854143	-0.000219
1474	1.4656e+02	-9.3431	-59.921187	0.001439	14.390724	2.437855	-0.000288
1475	1.4666e+02	-9.3633	-60.195712	0.001378	13.782665	2.334847	-0.000276
1476	1.4676e+02	-9.3823	-60.454089	0.001297	12.971920	2.197503	-0.000260
1477	1.4686e+02	-9.4020	-60.716503	0.001317	13.174606	2.231839	-0.000264
1478	1.4696e+02	-9.4220	-60.986991	0.001358	13.579979	2.300511	-0.000272
1479	1.4706e+02	-9.4418	-61.261516	0.001378	13.782665	2.334847	-0.000276
1480	1.4716e+02	-9.4608	-61.532004	0.001358	13.579979	2.300511	-0.000272
1481	1.4726e+02	-9.4819	-61.838827	0.001540	15.404155	2.609534	-0.000308
1482	1.4736e+02	-9.5018	-62.109315	0.001358	13.579979	2.300511	-0.000272
1483	1.4746e+02	-9.5215	-62.448434	0.001703	17.025645	2.884222	-0.000341
1484	1.4756e+02	-9.5416	-62.686625	0.001196	11.958489	2.025823	-0.000239
1485	1.4766e+02	-9.5609	-62.949039	0.001317	13.174606	2.231839	-0.000264
1486	1.4776e+02	-9.5807	-63.272010	0.001621	16.214900	2.746878	-0.000325
1487	1.4786e+02	-9.6008	-63.550572	0.001399	13.985351	2.369183	-0.000280
1488	1.4796e+02	-9.6211	-63.841246	0.001459	14.593410	2.472191	-0.000292
1489	1.4806e+02	-9.6419	-64.160180	0.001601	16.012214	2.712542	-0.000321
1490	1.4816e+02	-9.6617	-64.446816	0.001439	14.390724	2.437855	-0.000288
1491	1.4825e+02	-9.6808	-64.798047	0.001763	17.633704	2.987230	-0.000353
1492	1.4835e+02	-9.7007	-65.072572	0.001378	13.782665	2.334847	-0.000276
1493	1.4845e+02	-9.7205	-65.343060	0.001358	13.579979	2.300511	-0.000272
1494	1.4855e+02	-9.7407	-65.666031	0.001621	16.214900	2.746878	-0.000325
1495	1.4865e+02	-9.7606	-65.976891	0.001561	15.606841	2.643870	-0.000312
1496	1.4875e+02	-9.7801	-66.307936	0.001662	16.620272	2.815550	-0.000333
1497	1.4885e+02	-9.8009	-66.606684	0.001500	14.998782	2.540863	-0.000300
1498	1.4895e+02	-9.8203	-66.929655	0.001621	16.214900	2.746878	-0.000325
1499	1.4905e+02	-9.8401	-67.260700	0.001662	16.620272	2.815550	-0.000333
1500	1.4915e+02	-9.8603	-67.563485	0.001520	15.201469	2.575199	-0.000304
1501	1.4925e+02	-9.8798	-67.906642	0.001723	17.228331	2.918558	-0.000345
1502	1.4935e+02	-9.9001	-68.225575	0.001601	16.012214	2.712542	-0.000321
1503	1.4945e+02	-9.9191	-68.528361	0.001520	15.201469	2.575199	-0.000304
1504	1.4955e+02	-9.9409	-68.859406	0.001662	16.620272	2.815550	-0.000333
1505	1.4965e+02	-9.9596	-69.170265	0.001561	15.606841	2.643870	-0.000312
1506	1.4975e+02	-9.9796	-69.545719	0.001885	18.849821	3.193246	-0.000377
1507	1.4985e+02	-9.9997	-69.880801	0.001682	16.822959	2.849886	-0.000337
1508	1.4995e+02	-9.9799	-70.062472	-0.000912	-9.120881	-1.545119	-0.000183
1509	1.5005e+02	-9.9604	-70.183586	-0.000608	-6.080587	-1.030079	-0.000122
1510	1.5015e+02	-9.9396	-70.385443	-0.001013	-10.134312	-1.716799	-0.000203
1511	1.5025e+02	-9.9199	-70.498483	-0.000568	-5.675215	-0.961407	-0.000114
1512	1.5034e+02	-9.9001	-70.587300	-0.000446	-4.459097	-0.755392	-0.000089
1513	1.5044e+02	-9.8799	-70.764934	-0.000892	-8.918195	-1.510783	-0.000179
1514	1.5054e+02	-9.8596	-70.902196	-0.000689	-6.891332	-1.167423	-0.000138
1515	1.5064e+02	-9.8401	-70.995051	-0.000466	-4.661784	-0.789728	-0.000093
1516	1.5074e+02	-9.8208	-71.120202	-0.000628	-6.283274	-1.064415	-0.000126
1517	1.5084e+02	-9.8003	-71.213056	-0.000466	-4.661784	-0.789728	-0.000093
1518	1.5094e+02	-9.7806	-71.313984	-0.000507	-5.067156	-0.858400	-0.000101
1519	1.5104e+02	-9.7606	-71.402801	-0.000446	-4.459097	-0.755392	-0.000089
1520	1.5114e+02	-9.7407	-71.455284	-0.000263	-2.634921	-0.446368	-0.000053
1521	1.5124e+02	-9.7206	-71.548138	-0.000466	-4.661784	-0.789728	-0.000093
1522	1.5134e+02	-9.7002	-71.624844	-0.000385	-3.851039	-0.652384	-0.000077
1523	1.5144e+02	-9.6812	-71.697512	-0.000365	-3.648352	-0.618048	-0.000073
1524	1.5154e+02	-9.6620	-71.749995	-0.000263	-2.634921	-0.446368	-0.000053
1525	1.5164e+02	-9.6413	-71.863035	-0.000568	-5.675215	-0.961407	-0.000114
1526	1.5174e+02	-9.6210	-71.895332	-0.000162	-1.621490	-0.274688	-0.000032
1527	1.5184e+02	-9.6007	-71.955889	-0.000304	-3.040294	-0.515040	-0.000061
1528	1.5194e+02	-9.5811	-72.044706	-0.000446	-4.459097	-0.755392	-0.000089
1529	1.5204e+02	-9.5609	-72.085077	-0.000203	-2.026862	-0.343360	-0.000041
1530	1.5214e+02	-9.5419	-72.125449	-0.000203	-2.026862	-0.343360	-0.000041
1531	1.5224e+02	-9.5213	-72.173894	-0.000243	-2.432235	-0.412032	-0.000049
1532	1.5233e+02	-9.5015	-72.222340	-0.000243	-2.432235	-0.412032	-0.000049
1533	1.5243e+02	-9.4814	-72.250600	-0.000142	-1.418804	-0.240352	-0.000028
1534	1.5253e+02	-9.4618	-72.250600	0.000000	0.000000	0.000000	0.000000
1535	1.5263e+02	-9.4424	-72.339417	-0.000446	-4.459097	-0.755392	-0.000089
1536	1.5273e+02	-9.4217	-72.375751	-0.000182	-1.824176	-0.309024	-0.000037
1537	1.5283e+02	-9.4028	-72.331342	0.000223	2.229549	0.377696	0.000045
1538	1.5293e+02	-9.3818	-72.387862	-0.000284	-2.837607	-0.480704	-0.000057
1539	1.5303e+02	-9.3621	-72.472642	-0.000426	-4.256411	-0.721056	-0.000085
1540	1.5313e+02	-9.3427	-72.488791	-0.000081	-0.810745	-0.137344	-0.000016
1541	1.5323e+02	-9.3213	-72.504939	-0.000081	-0.810745	-0.137344	-0.000016
1542	1.5333e+02	-9.3019	-72.496865	0.000041	0.405372	0.068672	0.000008
1543	1.5343e+02	-9.2822	-72.541274	-0.000223	-2.229549	-0.377696	-0.000045
1544	1.5353e+02	-9.2625	-72.496865	0.000223	2.229549	0.377696	0.000045
1545	1.5363e+02	-9.2421	-72.508976	-0.000061	-0.608059	-0.103008	-0.000012
1546	1.5373e+02	-9.2242	-72.521088	-0.000061	-0.608059	-0.103008	-0.000012
1547	1.5383e+02	-9.2023	-72.545311	-0.000122	-1.216117	-0.206016	-0.000024
1548	1.5393e+02	-9.1828	-72.561459	-0.000081	-0.810745	-0.137344	-0.000016
1549	1.5403e+02	-9.1632	-72.557422	0.000020	0.202686	0.034336	0.000004
1550	1.5413e+02	-9.1423	-72.565496	-0.000041	-0.405372	-0.068672	-0.000008
1551	1.5422e+02	-9.1231	-72.585682	-0.000101	-1.013431	-0.171680	-0.000020
1552	1.5432e+02	-9.1033	-72.573571	0.000061	0.608059	0.103008	0.000012
1553	1.5442e+02	-9.0826	-72.561459	0.000061	0.608059	0.103008	0.000012
1554	1.5452e+02	-9.0628	-72.545311	0.000081	0.810745	0.137344	0.000016
1555	1.5462e+02	-9.0437	-72.549348	-0.000020	-0.202686	-0.034336	-0.000004
1556	1.5472e+02	-9.0235	-72.545311	0.000020	0.202686	0.034336	0.000004
1557	1.5482e+02	-9.0042	-72.537236	0.000041	0.405372	0.068672	0.000008
1558	1.5492e+02	-8.9828	-72.537236	0.000000	0.000000	0.000000	0.000000
1559	1.5502e+02	-8.9639	-72.517051	0.000101	1.013431	0.171680	0.000020
1560	1.5512e+02	-8.9432	-72.513014	0.000020	0.202686	0.034336	0.000004
1561	1.5522e+02	-8.9230	-72.500902	0.000061	0.608059	0.103008	0.000012
1562	1.5532e+02	-8.9040	-72.460531	0.000203	2.026862	0.343360	0.000041
1563	1.5542e+02	-8.8834	-72.484754	-0.000122	-1.216117	-0.206016	-0.000024
1564	1.5552e+02	-8.8641	-72.428234	0.000284	2.837607	0.480704	0.000057
1565	1.5562e+02	-8.8441	-72.412085	0.000081	0.810745	0.137344	0.000016
1566	1.5572e+02	-8.8245	-72.408048	0.000020	0.202686	0.034336	0.000004
1567	1.5582e+02	-8.8049	-72.404011	0.000020	0.202686	0.034336	0.000004
1568	1.5592e+02	-8.7846	-72.371714	0.000162	1.621490	0.274688	0.000032
1569	1.5602e+02	-8.7650	-72.387862	-0.000081	-0.810745	-0.137344	-0.000016
1570	1.5612e+02	-8.7447	-72.311157	0.000385	3.851039	0.652384	0.000077
1571	1.5622e+02	-8.7251	-72.307120	0.000020	0.202686	0.034336	0.000004
1572	1.5631e+02	-8.7051	-72.250600	0.000284	2.837607	0.480704	0.000057
1573	1.5641e+02	-8.6852	-72.246563	0.000020	0.202686	0.034336	0.000004
1574	1.5651e+02	-8.6649	-72.173894	0.000365	3.648352	0.618048	0.000073
1575	1.5661e+02	-8.6450	-72.145634	0.000142	1.418804	0.240352	0.000028
1576	1.5671e+02	-8.6252	-72.093151	0.000263	2.634921	0.446368	0.000053
1577	1.5681e+02	-8.6050	-72.077003	0.000081	0.810745	0.137344	0.000016
1578	1.5691e+02	-8.5846	-72.048743	0.000142	1.418804	0.240352	0.000028
1579	1.5701e+02	-8.5664	-72.024520	0.000122	1.216117	0.206016	0.000024
1580	1.5711e+02	-8.5452	-71.959926	0.000324	3.242980	0.549376	0.000065
1581	1.5721e+02	-8.5262	-71.931666	0.000142	1.418804	0.240352	0.000028
1582	1.5731e+02	-8.5059	-71.899369	0.000162	1.621490	0.274688	0.000032
1583	1.5741e+02	-8.4862	-71.842849	0.000284	2.837607	0.480704	0.000057
1584	1.5751e+02	-8.4663	-71.798441	0.000223	2.229549	0.377696	0.000045
1585	1.5761e+02	-8.4454	-71.721735	0.000385	3.851039	0.652384	0.000077
1586	1.5771e+02	-8.4265	-71.729809	-0.000041	-0.405372	-0.068672	-0.000008
1587	1.5781e+02	-8.4058	-71.665215	0.000324	3.242980	0.549376	0.000065
1588	1.5791e+02	-8.3862	-71.616769	0.000243	2.432235	0.412032	0.000049
1589	1.5801e+02	-8.3665	-71.592547	0.000122	1.216117	0.206016	0.000024
1590	1.5811e+02	-8.3466	-71.556212	0.000182	1.824176	0.309024	0.000037
1591	1.5821e+02	-8.3258	-71.491618	0.000324	3.242980	0.549376	0.000065
1592	1.5830e+02	-8.3060	-71.422987	0.000345	3.445666	0.583712	0.000069
1593	1.5840e+02	-8.2861	-71.350318	0.000365	3.648352	0.618048	0.000073
1594	1.5850e+02	-8.2661	-71.358393	-0.000041	-0.405372	-0.068672	-0.000008
1595	1.5860e+02	-8.2475	-71.289761	0.000345	3.445666	0.583712	0.000069
1596	1.5870e+02	-8.2266	-71.209019	0.000405	4.053725	0.686720	0.000081
1597	1.5880e+02	-8.2071	-71.180759	0.000142	1.418804	0.240352	0.000028
1598	1.5890e+02	-8.1870	-71.104053	0.000385	3.851039	0.652384	0.000077
1599	1.5900e+02	-8.1662	-71.019273	0.000426	4.256411	0.721056	0.000085
1600	1.5910e+02	-8.1472	-70.991013	0.000142	1.418804	0.240352	0.000028
1601	1.5920e+02	-8.1265	-70.930456	0.000304	3.040294	0.515040	0.000061
1602	1.5930e+02	-8.1076	-70.882011	0.000243	2.432235	0.412032	0.000049
1603	1.5940e+02	-8.0863	-70.841639	0.000203	2.026862	0.343360	0.000041
1604	1.5950e+02	-8.0678	-70.728600	0.000568	5.675215	0.961407	0.000114
1605	1.5960e+02	-8.0481	-70.696302	0.000162	1.621490	0.274688	0.000032
1606	1.5970e+02	-8.0285	-70.639783	0.000284	2.837607	0.480704	0.000057
1607	1.5980e+02	-8.0077	-70.571151	0.000345	3.445666	0.583712	0.000069
1608	1.5990e+02	-7.9886	-70.462149	0.000547	5.472529	0.927071	0.000110
1609	1.6000e+02	-7.9691	-70.441963	0.000101	1.013431	0.171680	0.000020
1610	1.6010e+02	-7.9477	-70.389480	0.000263	2.634921	0.446368	0.000053
1611	1.6019e+02	-7.9281	-70.288552	0.000507	5.067156	0.858400	0.000101
1612	1.6029e+02	-7.9077	-70.256255	0.000162	1.621490	0.274688	0.000032
1613	1.6039e+02	-7.8877	-70.227995	0.000142	1.418804	0.240352	0.000028
1614	1.6049e+02	-7.8682	-70.127066	0.000507	5.067156	0.858400	0.000101
1615	1.6059e+02	-7.8483	-70.078621	0.000243	2.432235	0.412032	0.000049
1616	1.6069e+02	-7.8278	-69.957507	0.000608	6.080587	1.030079	0.000122
1617	1.6079e+02	-7.8088	-69.933284	0.000122	1.216117	0.206016	0.000024
1618	1.6089e+02	-7.7888	-69.844467	0.000446	4.459097	0.755392	0.000089
1619	1.6099e+02	-7.7682	-69.812170	0.000162	1.621490	0.274688	0.000032
1620	1.6109e+02	-7.7480	-69.719316	0.000466	4.661784	0.789728	0.000093
1621	1.6119e+02	-7.7284	-69.658759	0.000304	3.040294	0.515040	0.000061
1622	1.6129e+02	-7.7085	-69.541682	0.000588	5.877901	0.995743	0.000118
1623	1.6139e+02	-7.6883	-69.497273	0.000223	2.229549	0.377696	0.000045
1624	1.6149e+02	-7.6691	-69.420568	0.000385	3.851039	0.652384	0.000077
1625	1.6159e+02	-7.6494	-69.368085	0.000263	2.634921	0.446368	0.000053
1626	1.6169e+02	-7.6297	-69.299454	0.000345	3.445666	0.583712	0.000069
1627	1.6179e+02	-7.6085	-69.218711	0.000405	4.053725	0.686720	0.000081
1628	1.6189e+02	-7.5891	-69.133931	0.000426	4.256411	0.721056	0.000085
1629	1.6199e+02	-7.5698	-69.077411	0.000284	2.837607	0.480704	0.000057
1630	1.6209e+02	-7.5496	-68.996668	0.000405	4.053725	0.686720	0.000081
1631	1.6219e+02	-7.5302	-68.899777	0.000486	4.864470	0.824064	0.000097
1632	1.6228e+02	-7.5100	-68.839220	0.000304	3.040294	0.515040	0.000061
1633	1.6238e+02	-7.4905	-68.774626	0.000324	3.242980	0.549376	0.000065
1634	1.6248e+02	-7.4698	-68.677735	0.000486	4.864470	0.824064	0.000097
1635	1.6258e+02	-7.4501	-68.605066	0.000365	3.648352	0.618048	0.000073
1636	1.6268e+02	-7.4300	-68.592955	0.000061	0.608059	0.103008	0.000012
1637	1.6278e+02	-7.4100	-68.463766	0.000649	6.485960	1.098751	0.000130
1638	1.6288e+02	-7.3898	-68.395135	0.000345	3.445666	0.583712	0.000069
1639	1.6298e+02	-7.3691	-68.326504	0.000345	3.445666	0.583712	0.000069
1640	1.6308e+02	-7.3511	-68.225575	0.000507	5.067156	0.858400	0.000101
1641	1.6318e+02	-7.3306	-68.140796	0.000426	4.256411	0.721056	0.000085
1642	1.6328e+02	-7.3102	-68.076201	0.000324	3.242980	0.549376	0.000065
1643	1.6338e+02	-7.2910	-68.011607	0.000324	3.242980	0.549376	0.000065
1644	1.6348e+02	-7.2705	-67.914716	0.000486	4.864470	0.824064	0.000097
1645	1.6358e+02	-7.2507	-67.793602	0.000608	6.080587	1.030079	0.000122
1646	1.6368e+02	-7.2310	-67.733045	0.000304	3.040294	0.515040	0.000061
1647	1.6378e+02	-7.2115	-67.636154	0.000486	4.864470	0.824064	0.000097
1648	1.6388e+02	-7.1913	-67.567522	0.000345	3.445666	0.583712	0.000069
1649	1.6398e+02	-7.1701	-67.494854	0.000365	3.648352	0.618048	0.000073
1650	1.6408e+02	-7.1519	-67.426223	0.000345	3.445666	0.583712	0.000069
1651	1.6418e+02	-7.1320	-67.329331	0.000486	4.864470	0.824064	0.000097
1652	1.6427e+02	-7.1118	-67.240514	0.000446	4.459097	0.755392	0.000089
1653	1.6437e+02	-7.0921	-67.167846	0.000365	3.648352	0.618048	0.000073
1654	1.6447e+02	-7.0712	-67.074992	0.000466	4.661784	0.789728	0.000093
1655	1.6457e+02	-7.0514	-67.002323	0.000365	3.648352	0.618048	0.000073
1656	1.6467e+02	-7.0320	-66.921581	0.000405	4.053725	0.686720	0.000081
1657	1.6477e+02	-7.0116	-66.812578	0.000547	5.472529	0.927071	0.000110
1658	1.6487e+02	-6.9922	-66.711650	0.000507	5.067156	0.858400	0.000101
1659	1.6497e+02	-6.9722	-66.659167	0.000263	2.634921	0.446368	0.000053
1660	1.6507e+02	-6.9519	-66.618795	0.000203	2.026862	0.343360	0.000041
1661	1.6517e+02	-6.9315	-66.489607	0.000649	6.485960	1.098751	0.000130
1662	1.6527e+02	-6.9124	-66.449236	0.000203	2.026862	0.343360	0.000041
1663	1.6537e+02	-6.8929	-66.328122	0.000608	6.080587	1.030079	0.000122
1664	1.6547e+02	-6.8723	-66.243342	0.000426	4.256411	0.721056	0.000085
1665	1.6557e+02	-6.8524	-66.162599	0.000405	4.053725	0.686720	0.000081
1666	1.6567e+02	-6.8329	-66.073782	0.000446	4.459097	0.755392	0.000089
1667	1.6577e+02	-6.8134	-66.017262	0.000284	2.837607	0.480704	0.000057
1668	1.6587e+02	-6.7920	-65.932482	0.000426	4.256411	0.721056	0.000085
1669	1.6597e+02	-6.7737	-65.815405	0.000588	5.877901	0.995743	0.000118
1670	1.6607e+02	-6.7528	-65.754848	0.000304	3.040294	0.515040	0.000061
1671	1.6616e+02	-6.7340	-65.621623	0.000669	6.688646	1.133087	0.000134
1672	1.6626e+02	-6.7139	-65.565103	0.000284	2.837607	0.480704	0.000057
1673	1.6636e+02	-6.6939	-65.456100	0.000547	5.472529	0.927071	0.000110
1674	1.6646e+02	-6.6737	-65.403618	0.000263	2.634921	0.446368	0.000053
1675	1.6656e+02	-6.6527	-65.330949	0.000365	3.648352	0.618048	0.000073
1676	1.6666e+02	-6.6333	-65.209835	0.000608	6.080587	1.030079	0.000122
1677	1.6676e+02	-6.6130	-65.157352	0.000263	2.634921	0.446368	0.000053
1678	1.6686e+02	-6.5944	-65.040275	0.000588	5.877901	0.995743	0.000118
1679	1.6696e+02	-6.5729	-64.935310	0.000527	5.269842	0.892735	0.000105
1680	1.6706e+02	-6.5532	-64.850530	0.000426	4.256411	0.721056	0.000085
1681	1.6716e+02	-6.5341	-64.781899	0.000345	3.445666	0.583712	0.000069
1682	1.6726e+02	-6.5140	-64.644636	0.000689	6.891332	1.167423	0.000138
1683	1.6736e+02	-6.4929	-64.596190	0.000243	2.432235	0.412032	0.000049
1684	1.6746e+02	-6.4740	-64.527559	0.000345	3.445666	0.583712	0.000069
1685	1.6756e+02	-6.4542	-64.414519	0.000568	5.675215	0.961407	0.000114
1686	1.6766e+02	-6.4360	-64.341851	0.000365	3.648352	0.618048	0.000073
1687	1.6776e+02	-6.4137	-64.240922	0.000507	5.067156	0.858400	0.000101
1688	1.6786e+02	-6.3943	-64.152105	0.000446	4.459097	0.755392	0.000089
1689	1.6796e+02	-6.3744	-64.083474	0.000345	3.445666	0.583712	0.000069
1690	1.6806e+02	-6.3543	-63.966397	0.000588	5.877901	0.995743	0.000118
1691	1.6816e+02	-6.3342	-63.865469	0.000507	5.067156	0.858400	0.000101
1692	1.6825e+02	-6.3152	-63.784726	0.000405	4.053725	0.686720	0.000081
1693	1.6835e+02	-6.2946	-63.732243	0.000263	2.634921	0.446368	0.000053
1694	1.6845e+02	-6.2756	-63.651501	0.000405	4.053725	0.686720	0.000081
1695	1.6855e+02	-6.2547	-63.542498	0.000547	5.472529	0.927071	0.000110
1696	1.6865e+02	-6.2354	-63.445607	0.000486	4.864470	0.824064	0.000097
1697	1.6875e+02	-6.2153	-63.368901	0.000385	3.851039	0.652384	0.000077
1698	1.6885e+02	-6.1957	-63.280084	0.000446	4.459097	0.755392	0.000089
1699	1.6895e+02	-6.1752	-63.158970	0.000608	6.080587	1.030079	0.000122
1700	1.6905e+02	-6.1559	-63.134747	0.000122	1.216117	0.206016	0.000024
1701	1.6915e+02	-6.1348	-63.005559	0.000649	6.485960	1.098751	0.000130
1702	1.6925e+02	-6.1153	-62.880408	0.000628	6.283274	1.064415	0.000126
1703	1.6935e+02	-6.0952	-62.803702	0.000385	3.851039	0.652384	0.000077
1704	1.6945e+02	-6.0757	-62.714885	0.000446	4.459097	0.755392	0.000089
1705	1.6955e+02	-6.0565	-62.613957	0.000507	5.067156	0.858400	0.000101
1706	1.6965e+02	-6.0356	-62.484768	0.000649	6.485960	1.098751	0.000130
1707	1.6975e+02	-6.0162	-62.440360	0.000223	2.229549	0.377696	0.000045
1708	1.6985e+02	-5.9958	-62.327320	0.000568	5.675215	0.961407	0.000114
1709	1.6995e+02	-5.9756	-62.254652	0.000365	3.648352	0.618048	0.000073
1710	1.7005e+02	-5.9561	-62.149686	0.000527	5.269842	0.892735	0.000105
1711	1.7015e+02	-5.9364	-62.068943	0.000405	4.053725	0.686720	0.000081
1712	1.7024e+02	-5.9161	-61.980126	0.000446	4.459097	0.755392	0.000089
1713	1.7034e+02	-5.8957	-61.871124	0.000547	5.472529	0.927071	0.000110
1714	1.7044e+02	-5.8762	-61.790381	0.000405	4.053725	0.686720	0.000081
1715	1.7054e+02	-5.8569	-61.705601	0.000426	4.256411	0.721056	0.000085
1716	1.7064e+02	-5.8359	-61.588524	0.000588	5.877901	0.995743	0.000118
1717	1.7074e+02	-5.8173	-61.515856	0.000365	3.648352	0.618048	0.000073
1718	1.7084e+02	-5.7968	-61.427039	0.000446	4.459097	0.755392	0.000089
1719	1.7094e+02	-5.7761	-61.326110	0.000507	5.067156	0.858400	0.000101
1720	1.7104e+02	-5.7565	-61.176736	0.000750	7.499391	1.270431	0.000150
1721	1.7114e+02	-5.7370	-61.172699	0.000020	0.202686	0.034336	0.000004
1722	1.7124e+02	-5.7172	-61.071771	0.000507	5.067156	0.858400	0.000101
1723	1.7134e+02	-5.6964	-60.898174	0.000872	8.715509	1.476447	0.000174
1724	1.7144e+02	-5.6772	-60.865877	0.000162	1.621490	0.274688	0.000032
1725	1.7154e+02	-5.6573	-60.752837	0.000568	5.675215	0.961407	0.000114
1726	1.7164e+02	-5.6367	-60.647872	0.000527	5.269842	0.892735	0.000105
1727	1.7174e+02	-5.6184	-60.550980	0.000486	4.864470	0.824064	0.000097
1728	1.7184e+02	-5.5984	-60.462163	0.000446	4.459097	0.755392	0.000089
1729	1.7194e+02	-5.5772	-60.377384	0.000426	4.256411	0.721056	0.000085
1730	1.7204e+02	-5.5577	-60.264344	0.000568	5.675215	0.961407	0.000114
1731	1.7213e+02	-5.5373	-60.195712	0.000345	3.445666	0.583712	0.000069
1732	1.7223e+02	-5.5180	-60.074598	0.000608	6.080587	1.030079	0.000122
1733	1.7233e+02	-5.4983	-59.973670	0.000507	5.067156	0.858400	0.000101
1734	1.7243e+02	-5.4776	-59.901002	0.000365	3.648352	0.618048	0.000073
1735	1.7253e+02	-5.4575	-59.767776	0.000669	6.688646	1.133087	0.000134
1736	1.7263e+02	-5.4388	-59.715293	0.000263	2.634921	0.446368	0.000053
1737	1.7273e+02	-5.4173	-59.602253	0.000568	5.675215	0.961407	0.000114
1738	1.7283e+02	-5.3986	-59.509399	0.000466	4.661784	0.789728	0.000093
1739	1.7293e+02	-5.3773	-59.416545	0.000466	4.661784	0.789728	0.000093
1740	1.7303e+02	-5.3592	-59.283320	0.000669	6.688646	1.133087	0.000134
1741	1.7313e+02	-5.3381	-59.230837	0.000263	2.634921	0.446368	0.000053
1742	1.7323e+02	-5.3188	-59.101649	0.000649	6.485960	1.098751	0.000130
1743	1.7333e+02	-5.2988	-59.016869	0.000426	4.256411	0.721056	0.000085
1744	1.7343e+02	-5.2786	-58.899792	0.000588	5.877901	0.995743	0.000118
1745	1.7353e+02	-5.2586	-58.819049	0.000405	4.053725	0.686720	0.000081
1746	1.7363e+02	-5.2391	-58.685824	0.000669	6.688646	1.133087	0.000134
1747	1.7373e+02	-5.2187	-58.609118	0.000385	3.851039	0.652384	0.000077
1748	1.7383e+02	-5.2000	-58.520301	0.000446	4.459097	0.755392	0.000089
1749	1.7393e+02	-5.1783	-58.411298	0.000547	5.472529	0.927071	0.000110
1750	1.7403e+02	-5.1592	-58.249813	0.000811	8.107450	1.373439	0.000162
1751	1.7413e+02	-5.1396	-58.140810	0.000547	5.472529	0.927071	0.000110
1752	1.7422e+02	-5.1193	-58.100439	0.000203	2.026862	0.343360	0.000041
1753	1.7432e+02	-5.1003	-57.999511	0.000507	5.067156	0.858400	0.000101
1754	1.7442e+02	-5.0792	-57.862248	0.000689	6.891332	1.167423	0.000138
1755	1.7452e+02	-5.0598	-57.753245	0.000547	5.472529	0.927071	0.000110
1756	1.7462e+02	-5.0394	-57.668465	0.000426	4.256411	0.721056	0.000085
1757	1.7472e+02	-5.0191	-57.563500	0.000527	5.269842	0.892735	0.000105
1758	1.7482e+02	-4.9991	-57.446423	0.000588	5.877901	0.995743	0.000118
1759	1.7492e+02	-4.9792	-57.321272	0.000628	6.283274	1.064415	0.000126
1760	1.7502e+02	-4.9599	-57.248603	0.000365	3.648352	0.618048	0.000073
1761	1.7512e+02	-4.9402	-57.107304	0.000709	7.094019	1.201759	0.000142
1762	1.7522e+02	-4.9207	-57.018487	0.000446	4.459097	0.755392	0.000089
1763	1.7532e+02	-4.9004	-56.905447	0.000568	5.675215	0.961407	0.000114
1764	1.7542e+02	-4.8804	-56.812593	0.000466	4.661784	0.789728	0.000093
1765	1.7552e+02	-4.8601	-56.679367	0.000669	6.688646	1.133087	0.000134
1766	1.7562e+02	-4.8405	-56.610736	0.000345	3.445666	0.583712	0.000069
1767	1.7572e+02	-4.8213	-56.485585	0.000628	6.283274	1.064415	0.000126
1768	1.7582e+02	-4.8002	-56.372545	0.000568	5.675215	0.961407	0.000114
1769	1.7592e+02	-4.7813	-56.259505	0.000568	5.675215	0.961407	0.000114
1770	1.7602e+02	-4.7595	-56.150502	0.000547	5.472529	0.927071	0.000110
1771	1.7612e+02	-4.7418	-56.049574	0.000507	5.067156	0.858400	0.000101
1772	1.7621e+02	-4.7215	-55.976906	0.000365	3.648352	0.618048	0.000073
1773	1.7631e+02	-4.7007	-55.823494	0.000770	7.702077	1.304767	0.000154
1774	1.7641e+02	-4.6814	-55.678158	0.000730	7.296705	1.236095	0.000146
1775	1.7651e+02	-4.6613	-55.601452	0.000385	3.851039	0.652384	0.000077
1776	1.7661e+02	-4.6410	-55.508598	0.000466	4.661784	0.789728	0.000093
1777	1.7671e+02	-4.6210	-55.355187	0.000770	7.702077	1.304767	0.000154
1778	1.7681e+02	-4.6024	-55.278481	0.000385	3.851039	0.652384	0.000077
1779	1.7691e+02	-4.5822	-55.141218	0.000689	6.891332	1.167423	0.000138
1780	1.7701e+02	-4.5616	-55.052401	0.000446	4.459097	0.755392	0.000089
1781	1.7711e+02	-4.5413	-54.935325	0.000588	5.877901	0.995743	0.000118
1782	1.7721e+02	-4.5218	-54.794025	0.000709	7.094019	1.201759	0.000142
1783	1.7731e+02	-4.5010	-54.676948	0.000588	5.877901	0.995743	0.000118
1784	1.7741e+02	-4.4812	-54.551797	0.000628	6.283274	1.064415	0.000126
1785	1.7751e+02	-4.4614	-54.471054	0.000405	4.053725	0.686720	0.000081
1786	1.7761e+02	-4.4420	-54.382237	0.000446	4.459097	0.755392	0.000089
1787	1.7771e+02	-4.4218	-54.261123	0.000608	6.080587	1.030079	0.000122
1788	1.7781e+02	-4.4026	-54.123860	0.000689	6.891332	1.167423	0.000138
1789	1.7791e+02	-4.3817	-54.006783	0.000588	5.877901	0.995743	0.000118
1790	1.7801e+02	-4.3622	-53.909892	0.000486	4.864470	0.824064	0.000097
1791	1.7810e+02	-4.3423	-53.780704	0.000649	6.485960	1.098751	0.000130
1792	1.7820e+02	-4.3228	-53.679775	0.000507	5.067156	0.858400	0.000101
1793	1.7830e+02	-4.3019	-53.534438	0.000730	7.296705	1.236095	0.000146
1794	1.7840e+02	-4.2825	-53.417362	0.000588	5.877901	0.995743	0.000118
1795	1.7850e+02	-4.2628	-53.296247	0.000608	6.080587	1.030079	0.000122
1796	1.7860e+02	-4.2422	-53.183208	0.000568	5.675215	0.961407	0.000114
1797	1.7870e+02	-4.2227	-53.106502	0.000385	3.851039	0.652384	0.000077
1798	1.7880e+02	-4.2025	-52.957128	0.000750	7.499391	1.270431	0.000150
1799	1.7890e+02	-4.1826	-52.876385	0.000405	4.053725	0.686720	0.000081
1800	1.7900e+02	-4.1632	-52.767383	0.000547	5.472529	0.927071	0.000110
1801	1.7910e+02	-4.1433	-52.638194	0.000649	6.485960	1.098751	0.000130
1802	1.7920e+02	-4.1242	-52.537266	0.000507	5.067156	0.858400	0.000101
1803	1.7930e+02	-4.1035	-52.379818	0.000790	7.904764	1.339103	0.000158
1804	1.7940e+02	-4.0834	-52.270815	0.000547	5.472529	0.927071	0.000110
1805	1.7950e+02	-4.0633	-52.153738	0.000588	5.877901	0.995743	0.000118
1806	1.7960e+02	-4.0436	-52.040698	0.000568	5.675215	0.961407	0.000114
1807	1.7970e+02	-4.0231	-51.919584	0.000608	6.080587	1.030079	0.000122
1808	1.7980e+02	-4.0036	-51.774247	0.000730	7.296705	1.236095	0.000146
1809	1.7990e+02	-3.9832	-51.673319	0.000507	5.067156	0.858400	0.000101
1810	1.8000e+02	-3.9638	-51.544131	0.000649	6.485960	1.098751	0.000130
1811	1.8009e+02	-3.9444	-51.435128	0.000547	5.472529	0.927071	0.000110
1812	1.8019e+02	-3.9236	-51.314014	0.000608	6.080587	1.030079	0.000122
1813	1.8029e+02	-3.9030	-51.205011	0.000547	5.472529	0.927071	0.000110
1814	1.8039e+02	-3.8840	-51.055637	0.000750	7.499391	1.270431	0.000150
1815	1.8049e+02	-3.8641	-50.950672	0.000527	5.269842	0.892735	0.000105
1816	1.8059e+02	-3.8441	-50.805335	0.000730	7.296705	1.236095	0.000146
1817	1.8069e+02	-3.8250	-50.655961	0.000750	7.499391	1.270431	0.000150
1818	1.8079e+02	-3.8034	-50.583292	0.000365	3.648352	0.618048	0.000073
1819	1.8089e+02	-3.7842	-50.454104	0.000649	6.485960	1.098751	0.000130
1820	1.8099e+02	-3.7657	-50.349138	0.000527	5.269842	0.892735	0.000105
1821	1.8109e+02	-3.7450	-50.219950	0.000649	6.485960	1.098751	0.000130
1822	1.8119e+02	-3.7256	-50.054427	0.000831	8.310136	1.407775	0.000166
1823	1.8129e+02	-3.7047	-49.937351	0.000588	5.877901	0.995743	0.000118
1824	1.8139e+02	-3.6850	-49.836422	0.000507	5.067156	0.858400	0.000101
1825	1.8149e+02	-3.6646	-49.719345	0.000588	5.877901	0.995743	0.000118
1826	1.8159e+02	-3.6450	-49.610343	0.000547	5.472529	0.927071	0.000110
1827	1.8169e+02	-3.6256	-49.436746	0.000872	8.715509	1.476447	0.000174
1828	1.8179e+02	-3.6056	-49.368114	0.000345	3.445666	0.583712	0.000069
1829	1.8189e+02	-3.5864	-49.214703	0.000770	7.702077	1.304767	0.000154
1830	1.8199e+02	-3.5653	-49.077441	0.000689	6.891332	1.167423	0.000138
1831	1.8209e+02	-3.5455	-48.972475	0.000527	5.269842	0.892735	0.000105
1832	1.8218e+02	-3.5258	-48.827138	0.000730	7.296705	1.236095	0.000146
1833	1.8228e+02	-3.5059	-48.706024	0.000608	6.080587	1.030079	0.000122
1834	1.8238e+02	-3.4853	-48.605096	0.000507	5.067156	0.858400	0.000101
1835	1.8248e+02	-3.4646	-48.483982	0.000608	6.080587	1.030079	0.000122
1836	1.8258e+02	-3.4447	-48.366905	0.000588	5.877901	0.995743	0.000118
1837	1.8268e+02	-3.4261	-48.249828	0.000588	5.877901	0.995743	0.000118
1838	1.8278e+02	-3.4061	-48.092379	0.000790	7.904764	1.339103	0.000158
1839	1.8288e+02	-3.3862	-47.987414	0.000527	5.269842	0.892735	0.000105
1840	1.8298e+02	-3.3668	-47.870337	0.000588	5.877901	0.995743	0.000118
1841	1.8308e+02	-3.3456	-47.704814	0.000831	8.310136	1.407775	0.000166
1842	1.8318e+02	-3.3263	-47.620035	0.000426	4.256411	0.721056	0.000085
1843	1.8328e+02	-3.3057	-47.486809	0.000669	6.688646	1.133087	0.000134
1844	1.8338e+02	-3.2864	-47.345509	0.000709	7.094019	1.201759	0.000142
1845	1.8348e+02	-3.2651	-47.244581	0.000507	5.067156	0.858400	0.000101
1846	1.8358e+02	-3.2465	-47.131541	0.000568	5.675215	0.961407	0.000114
1847	1.8368e+02	-3.2256	-46.974093	0.000790	7.904764	1.339103	0.000158
1848	1.8378e+02	-3.2070	-46.885276	0.000446	4.459097	0.755392	0.000089
1849	1.8388e+02	-3.1868	-46.735902	0.000750	7.499391	1.270431	0.000150
1850	1.8398e+02	-3.1686	-46.618825	0.000588	5.877901	0.995743	0.000118
1851	1.8407e+02	-3.1467	-46.501748	0.000588	5.877901	0.995743	0.000118
1852	1.8417e+02	-3.1269	-46.396782	0.000527	5.269842	0.892735	0.000105
1853	1.8427e+02	-3.1073	-46.259520	0.000689	6.891332	1.167423	0.000138
1854	1.8437e+02	-3.0881	-46.081886	0.000892	8.918195	1.510783	0.000179
1855	1.8447e+02	-3.0674	-45.997106	0.000426	4.256411	0.721056	0.000085
1856	1.8457e+02	-3.0479	-45.863881	0.000669	6.688646	1.133087	0.000134
1857	1.8467e+02	-3.0264	-45.771026	0.000466	4.661784	0.789728	0.000093
1858	1.8477e+02	-3.0067	-45.645875	0.000628	6.283274	1.064415	0.000126
1859	1.8487e+02	-2.9866	-45.528798	0.000588	5.877901	0.995743	0.000118
1860	1.8497e+02	-2.9684	-45.391536	0.000689	6.891332	1.167423	0.000138
1861	1.8507e+02	-2.9475	-45.238125	0.000770	7.702077	1.304767	0.000154
1862	1.8517e+02	-2.9295	-45.129122	0.000547	5.472529	0.927071	0.000110
1863	1.8527e+02	-2.9070	-45.032231	0.000486	4.864470	0.824064	0.000097
1864	1.8537e+02	-2.8882	-44.866708	0.000831	8.310136	1.407775	0.000166
1865	1.8547e+02	-2.8679	-44.753668	0.000568	5.675215	0.961407	0.000114
1866	1.8557e+02	-2.8491	-44.664851	0.000446	4.459097	0.755392	0.000089
1867	1.8567e+02	-2.8283	-44.495292	0.000851	8.512822	1.442111	0.000170
1868	1.8577e+02	-2.8084	-44.394363	0.000507	5.067156	0.858400	0.000101
1869	1.8587e+02	-2.7882	-44.273249	0.000608	6.080587	1.030079	0.000122
1870	1.8597e+02	-2.7682	-44.168284	0.000527	5.269842	0.892735	0.000105
1871	1.8606e+02	-2.7486	-43.998724	0.000851	8.512822	1.442111	0.000170
1872	1.8616e+02	-2.7283	-43.853387	0.000730	7.296705	1.236095	0.000146
1873	1.8626e+02	-2.7088	-43.768607	0.000426	4.256411	0.721056	0.000085
1874	1.8636e+02	-2.6889	-43.603085	0.000831	8.310136	1.407775	0.000166
1875	1.8646e+02	-2.6685	-43.486008	0.000588	5.877901	0.995743	0.000118
1876	1.8656e+02	-2.6497	-43.360856	0.000628	6.283274	1.064415	0.000126
1877	1.8666e+02	-2.6292	-43.235705	0.000628	6.283274	1.064415	0.000126
1878	1.8676e+02	-2.6086	-43.102480	0.000669	6.688646	1.133087	0.000134
1879	1.8686e+02	-2.5885	-42.993477	0.000547	5.472529	0.927071	0.000110
1880	1.8696e+02	-2.5694	-42.831992	0.000811	8.107450	1.373439	0.000162
1881	1.8706e+02	-2.5492	-42.751249	0.000405	4.053725	0.686720	0.000081
1882	1.8716e+02	-2.5301	-42.557466	0.000973	9.728940	1.648127	0.000195
1883	1.8726e+02	-2.5101	-42.452501	0.000527	5.269842	0.892735	0.000105
1884	1.8736e+02	-2.4898	-42.343498	0.000547	5.472529	0.927071	0.000110
1885	1.8746e+02	-2.4693	-42.190087	0.000770	7.702077	1.304767	0.000154
1886	1.8756e+02	-2.4495	-42.109344	0.000405	4.053725	0.686720	0.000081
1887	1.8766e+02	-2.4299	-41.915562	0.000973	9.728940	1.648127	0.000195
1888	1.8776e+02	-2.4100	-41.834819	0.000405	4.053725	0.686720	0.000081
1889	1.8786e+02	-2.3904	-41.697556	0.000689	6.891332	1.167423	0.000138
1890	1.8796e+02	-2.3708	-41.560294	0.000689	6.891332	1.167423	0.000138
1891	1.8806e+02	-2.3501	-41.455328	0.000527	5.269842	0.892735	0.000105
1892	1.8815e+02	-2.3312	-41.297880	0.000790	7.904764	1.339103	0.000158
1893	1.8825e+02	-2.3093	-41.160617	0.000689	6.891332	1.167423	0.000138
1894	1.8835e+02	-2.2906	-41.027392	0.000669	6.688646	1.133087	0.000134
1895	1.8845e+02	-2.2705	-40.898204	0.000649	6.485960	1.098751	0.000130
1896	1.8855e+02	-2.2511	-40.781127	0.000588	5.877901	0.995743	0.000118
1897	1.8865e+02	-2.2303	-40.660013	0.000608	6.080587	1.030079	0.000122
1898	1.8875e+02	-2.2112	-40.542936	0.000588	5.877901	0.995743	0.000118
1899	1.8885e+02	-2.1918	-40.389524	0.000770	7.702077	1.304767	0.000154
1900	1.8895e+02	-2.1718	-40.252262	0.000689	6.891332	1.167423	0.000138
1901	1.8905e+02	-2.1510	-40.127111	0.000628	6.283274	1.064415	0.000126
1902	1.8915e+02	-2.1317	-40.026182	0.000507	5.067156	0.858400	0.000101
1903	1.8925e+02	-2.1115	-39.868734	0.000790	7.904764	1.339103	0.000158
1904	1.8935e+02	-2.0910	-39.727434	0.000709	7.094019	1.201759	0.000142
1905	1.8945e+02	-2.0711	-39.598246	0.000649	6.485960	1.098751	0.000130
1906	1.8955e+02	-2.0514	-39.505392	0.000466	4.661784	0.789728	0.000093
1907	1.8965e+02	-2.0319	-39.356018	0.000750	7.499391	1.270431	0.000150
1908	1.8975e+02	-2.0105	-39.198569	0.000790	7.904764	1.339103	0.000158
1909	1.8985e+02	-1.9916	-39.061307	0.000689	6.891332	1.167423	0.000138
1910	1.8995e+02	-1.9713	-38.940193	0.000608	6.080587	1.030079	0.000122
1911	1.9004e+02	-1.9522	-38.802930	0.000689	6.891332	1.167423	0.000138
1912	1.9014e+02	-1.9314	-38.689890	0.000568	5.675215	0.961407	0.000114
1913	1.9024e+02	-1.9122	-38.560702	0.000649	6.485960	1.098751	0.000130
1914	1.9034e+02	-1.8924	-38.439588	0.000608	6.080587	1.030079	0.000122
1915	1.9044e+02	-1.8724	-38.245805	0.000973	9.728940	1.648127	0.000195
1916	1.9054e+02	-1.8513	-38.148914	0.000486	4.864470	0.824064	0.000097
1917	1.9064e+02	-1.8330	-37.983392	0.000831	8.310136	1.407775	0.000166
1918	1.9074e+02	-1.8121	-37.850166	0.000669	6.688646	1.133087	0.000134
1919	1.9084e+02	-1.7927	-37.720978	0.000649	6.485960	1.098751	0.000130
1920	1.9094e+02	-1.7725	-37.611975	0.000547	5.472529	0.927071	0.000110
1921	1.9104e+02	-1.7521	-37.462601	0.000750	7.499391	1.270431	0.000150
1922	1.9114e+02	-1.7333	-37.337450	0.000628	6.283274	1.064415	0.000126
1923	1.9124e+02	-1.7133	-37.212299	0.000628	6.283274	1.064415	0.000126
1924	1.9134e+02	-1.6927	-37.026590	0.000932	9.323567	1.579455	0.000187
1925	1.9144e+02	-1.6722	-36.885291	0.000709	7.094019	1.201759	0.000142
1926	1.9154e+02	-1.6519	-36.764177	0.000608	6.080587	1.030079	0.000122
1927	1.9164e+02	-1.6330	-36.590580	0.000872	8.715509	1.476447	0.000174
1928	1.9174e+02	-1.6129	-36.449280	0.000709	7.094019	1.201759	0.000142
1929	1.9184e+02	-1.5936	-36.336240	0.000568	5.675215	0.961407	0.000114
1930	1.9194e+02	-1.5733	-36.186866	0.000750	7.499391	1.270431	0.000150
1931	1.9203e+02	-1.5536	-36.077864	0.000547	5.472529	0.927071	0.000110
1932	1.9213e+02	-1.5338	-35.892155	0.000932	9.323567	1.579455	0.000187
1933	1.9223e+02	-1.5144	-35.746818	0.000730	7.296705	1.236095	0.000146
1934	1.9233e+02	-1.4937	-35.633779	0.000568	5.675215	0.961407	0.000114
1935	1.9243e+02	-1.4737	-35.476330	0.000790	7.904764	1.339103	0.000158
1936	1.9253e+02	-1.4534	-35.290622	0.000932	9.323567	1.579455	0.000187
1937	1.9263e+02	-1.4334	-35.213916	0.000385	3.851039	0.652384	0.000077
1938	1.9273e+02	-1.4133	-35.060505	0.000770	7.702077	1.304767	0.000154
1939	1.9283e+02	-1.3938	-34.919206	0.000709	7.094019	1.201759	0.000142
1940	1.9293e+02	-1.3737	-34.753683	0.000831	8.310136	1.407775	0.000166
1941	1.9303e+02	-1.3537	-34.620458	0.000669	6.688646	1.133087	0.000134
1942	1.9313e+02	-1.3345	-34.479158	0.000709	7.094019	1.201759	0.000142
1943	1.9323e+02	-1.3139	-34.313635	0.000831	8.310136	1.407775	0.000166
1944	1.9333e+02	-1.2939	-34.176373	0.000689	6.891332	1.167423	0.000138
1945	1.9343e+02	-1.2742	-34.075444	0.000507	5.067156	0.858400	0.000101
1946	1.9353e+02	-1.2542	-33.926070	0.000750	7.499391	1.270431	0.000150
1947	1.9363e+02	-1.2341	-33.752473	0.000872	8.715509	1.476447	0.000174
1948	1.9373e+02	-1.2142	-33.619248	0.000669	6.688646	1.133087	0.000134
1949	1.9383e+02	-1.1956	-33.490060	0.000649	6.485960	1.098751	0.000130
1950	1.9393e+02	-1.1751	-33.332611	0.000790	7.904764	1.339103	0.000158
1951	1.9403e+02	-1.1555	-33.191311	0.000709	7.094019	1.201759	0.000142
1952	1.9412e+02	-1.1355	-33.045975	0.000730	7.296705	1.236095	0.000146
1953	1.9422e+02	-1.1147	-32.904675	0.000709	7.094019	1.201759	0.000142
1954	1.9432e+02	-1.0953	-32.767412	0.000689	6.891332	1.167423	0.000138
1955	1.9442e+02	-1.0753	-32.585741	0.000912	9.120881	1.545119	0.000183
1956	1.9452e+02	-1.0553	-32.444441	0.000709	7.094019	1.201759	0.000142
1957	1.9462e+02	-1.0358	-32.339476	0.000527	5.269842	0.892735	0.000105
1958	1.9472e+02	-1.0159	-32.157805	0.000912	9.120881	1.545119	0.000183
1959	1.9482e+02	-0.9949	-32.028616	0.000649	6.485960	1.098751	0.000130
1960	1.9492e+02	-0.9764	-31.875205	0.000770	7.702077	1.304767	0.000154
1961	1.9502e+02	-0.9558	-31.721794	0.000770	7.702077	1.304767	0.000154
1962	1.9512e+02	-0.9352	-31.616829	0.000527	5.269842	0.892735	0.000105
1963	1.9522e+02	-0.9160	-31.467455	0.000750	7.499391	1.270431	0.000150
1964	1.9532e+02	-0.8955	-31.285783	0.000912	9.120881	1.545119	0.000183
1965	1.9542e+02	-0.8762	-31.124298	0.000811	8.107450	1.373439	0.000162
1966	1.9552e+02	-0.8556	-30.991072	0.000669	6.688646	1.133087	0.000134
1967	1.9562e+02	-0.8360	-30.817476	0.000872	8.715509	1.476447	0.000174
1968	1.9572e+02	-0.8160	-30.708473	0.000547	5.472529	0.927071	0.000110
1969	1.9582e+02	-0.7956	-30.567173	0.000709	7.094019	1.201759	0.000142
1970	1.9592e+02	-0.7761	-30.433948	0.000669	6.688646	1.133087	0.000134
1971	1.9601e+02	-0.7561	-30.260351	0.000872	8.715509	1.476447	0.000174
1972	1.9611e+02	-0.7368	-30.123088	0.000689	6.891332	1.167423	0.000138
1973	1.9621e+02	-0.7169	-29.973714	0.000750	7.499391	1.270431	0.000150
1974	1.9631e+02	-0.6970	-29.816266	0.000790	7.904764	1.339103	0.000158
1975	1.9641e+02	-0.6763	-29.650743	0.000831	8.310136	1.407775	0.000166
1976	1.9651e+02	-0.6562	-29.513481	0.000689	6.891332	1.167423	0.000138
1977	1.9661e+02	-0.6358	-29.372181	0.000709	7.094019	1.201759	0.000142
1978	1.9671e+02	-0.6167	-29.198584	0.000872	8.715509	1.476447	0.000174
1979	1.9681e+02	-0.5972	-29.033062	0.000831	8.310136	1.407775	0.000166
1980	1.9691e+02	-0.5784	-28.879651	0.000770	7.702077	1.304767	0.000154
1981	1.9701e+02	-0.5567	-28.754499	0.000628	6.283274	1.064415	0.000126
1982	1.9711e+02	-0.5377	-28.645497	0.000547	5.472529	0.927071	0.000110
1983	1.9721e+02	-0.5170	-28.447677	0.000993	9.931626	1.682463	0.000199
1984	1.9731e+02	-0.4976	-28.270043	0.000892	8.918195	1.510783	0.000179
1985	1.9741e+02	-0.4774	-28.112595	0.000790	7.904764	1.339103	0.000158
1986	1.9751e+02	-0.4574	-27.991481	0.000608	6.080587	1.030079	0.000122
1987	1.9761e+02	-0.4378	-27.829995	0.000811	8.107450	1.373439	0.000162
1988	1.9771e+02	-0.4175	-27.680621	0.000750	7.499391	1.270431	0.000150
1989	1.9781e+02	-0.3985	-27.555470	0.000628	6.283274	1.064415	0.000126
1990	1.9791e+02	-0.3780	-27.357650	0.000993	9.931626	1.682463	0.000199
1991	1.9800e+02	-0.3577	-27.256722	0.000507	5.067156	0.858400	0.000101
1992	1.9810e+02	-0.3374	-27.115422	0.000709	7.094019	1.201759	0.000142
1993	1.9820e+02	-0.3176	-26.925677	0.000953	9.526254	1.613791	0.000191
1994	1.9830e+02	-0.2981	-26.756117	0.000851	8.512822	1.442111	0.000170
1995	1.9840e+02	-0.2777	-26.643077	0.000568	5.675215	0.961407	0.000114
1996	1.9850e+02	-0.2585	-26.465443	0.000892	8.918195	1.510783	0.000179
1997	1.9860e+02	-0.2390	-26.332218	0.000669	6.688646	1.133087	0.000134
1998	1.9870e+02	-0.2174	-26.158621	0.000872	8.715509	1.476447	0.000174
1999	1.9880e+02	-0.1986	-25.993098	0.000831	8.310136	1.407775	0.000166
2000	1.9890e+02	-0.1785	-25.900244	0.000466	4.661784	0.789728	0.000093
2001	1.9900e+02	-0.1590	-25.698388	0.001013	10.134312	1.716799	0.000203
2002	1.9910e+02	-0.1383	-25.581311	0.000588	5.877901	0.995743	0.000118
2003	1.9920e+02	-0.1194	-25.423862	0.000790	7.904764	1.339103	0.000158
2004	1.9930e+02	-0.0994	-25.306785	0.000588	5.877901	0.995743	0.000118
2005	1.9940e+02	-0.0787	-25.145300	0.000811	8.107450	1.373439	0.000162
2006	1.9950e+02	-0.0586	-24.963629	0.000912	9.120881	1.545119	0.000183
2007	1.9960e+02	-0.0396	-24.814255	0.000750	7.499391	1.270431	0.000150
2008	1.9970e+02	-0.0197	-24.685066	0.000649	6.485960	1.098751	0.000130
2009	1.9980e+02	-0.0009	-24.531655	0.000649	6.485960	1.098751	0.000154

PMax (uC/cm2):	6.30e+01
Pr (uC/cm2):	8.29e+00
-Pr (uC/cm2):	-3.41e+01
PLoss (uC/cm2):	-3.41e+01
-Vc:	-1.07e+00
C (Max-Eff) (nF):	6.30e-01
K (Eff):	1.07e+03
Vert. (+/-Pr) Shift (uC/cm2):	-1.29e+01
Offset (uC/cm2):	-9.61e+00

A (Loop Area - uC/cm2·Volts):	-9.77e-02



Hysteresis Version: 5.48.1 - Radiant Technologies, Inc., 1999 - 9/12/24

