»»»»»»»»»»»»»»»»»»»»»»»»»»»»»»»»»»»» Hysteresis ««««««««««««««««««««««««««««««««««««
»»»  Executed Version:	5.48.1
»»»  Vision Version:	5.48.4 (R)
»»»  Vision Compiled:	9/18/24
»»»  Driver Version:	5.47.0
»»»  Windows Version:	Windows 8 or 8.1
»»»  Processor Information:	x86 (AMD or Intel) - 32 Processors
»»»  Tester Name:	PMF21124-494 (100V)
»»»  Tester S/N:	PMF21124-494
»»»  Internal Amp Type:	100V RevK 270k
»»»  Internal Amp S/N:	iAB2-596/K     
»»»  Execution Count:	1
»»»»»»»»»»»»»»»»»»»»»»»»»»»»»»»»»»»»»»»»»»««««««««««««««««««««««««««««««««««««««««««

Stored:	7/1/2025 - 14:55:26
Configured:	07/01/25 10:49:51 AM
Executed:	07/01/25 02:54:59 PM

»»»»»»»»»»»»»»»»»»»»»»»»»»»»»»»»»»» Sample Info ««««««««««««««««««««««««««««««««««««
Sample Name:	
Lot Name:	
Wafer Name:	
Die Row/Column:	0/0
Capacitor Number:	0
Sample Area (cm2):	1.00e-04
Sample Thickness (microns):	1.50e-01

Amplifier:	Internal

»»»»»»»»»»»»»»»»»»»»»»»»»»»»»»»»»»» Tester Info «««««««««««««««««««««««««««««««««««
Tester Name:	PMF21124-494 (100V)
Tester Serial Number:	PMF21124-494
Return Signal Amp. Level:	0.19 [Index: 3]

»»»»»»»»»»»»»»»»»»»»»»»»»»»»»»»» Hysteresis Info ««««««««««««««««««««««««««««««««««
Task Name:	Hyst-22
Volts:	10.00
Field:	666.67 (kV/cm)
DCBias:	0.00
DCField:	0.00 (kV/cm)
Hysteresis Period (ms):	2.00e+02
Preset:	Enabled
Preset Delay (ms):	1.00e+03
Profile:	Standard Bipolar

»»»»»»»»»»»»»»»»»»»»»»»»»»»»»»»»»»»»»» Data «««««««««««««««««««««««««««««««««««««««
Points:	2009

Valid Data

Point	Time (ms)	Drive Voltage	Measured Polarization (uC/cm2)	Capacitance (uF)	Normalized Capacitance (uF/cm2)	Dielectric Constant	Instantaneous Current (mA)
   1	0.0000e+00	0.0003	13.118673	0.000689	6.891674	1.167481	0.000138
   2	9.9500e-02	0.0188	13.255935	0.000689	6.891674	1.167481	0.000138
   3	1.9900e-01	0.0386	13.360901	0.000527	5.270104	0.892780	0.000105
   4	2.9850e-01	0.0590	13.506238	0.000730	7.297067	1.236157	0.000146
   5	3.9800e-01	0.0793	13.611203	0.000527	5.270104	0.892780	0.000105
   6	4.9750e-01	0.0986	13.716169	0.000527	5.270104	0.892780	0.000105
   7	5.9700e-01	0.1182	13.849394	0.000669	6.688978	1.133144	0.000134
   8	6.9650e-01	0.1385	13.990694	0.000709	7.094371	1.201819	0.000142
   9	7.9600e-01	0.1594	14.087585	0.000486	4.864711	0.824104	0.000097
  10	8.9550e-01	0.1785	14.261182	0.000872	8.715941	1.476520	0.000174
  11	9.9500e-01	0.1981	14.333850	0.000365	3.648533	0.618078	0.000073
  12	1.0945e+00	0.2177	14.479187	0.000730	7.297067	1.236157	0.000146
  13	1.1940e+00	0.2383	14.608376	0.000649	6.486282	1.098806	0.000130
  14	1.2935e+00	0.2574	14.733527	0.000628	6.283585	1.064468	0.000126
  15	1.3930e+00	0.2779	14.862715	0.000649	6.486282	1.098806	0.000130
  16	1.4925e+00	0.2982	14.991904	0.000649	6.486282	1.098806	0.000130
  17	1.5920e+00	0.3182	15.129166	0.000689	6.891674	1.167481	0.000138
  18	1.6915e+00	0.3381	15.201835	0.000365	3.648533	0.618078	0.000073
  19	1.7910e+00	0.3576	15.363320	0.000811	8.107852	1.373507	0.000162
  20	1.8905e+00	0.3773	15.500583	0.000689	6.891674	1.167481	0.000138
  21	1.9900e+00	0.3976	15.617660	0.000588	5.878193	0.995793	0.000118
  22	2.0895e+00	0.4165	15.738774	0.000608	6.080889	1.030130	0.000122
  23	2.1890e+00	0.4378	15.847776	0.000547	5.472800	0.927117	0.000110
  24	2.2885e+00	0.4575	16.009262	0.000811	8.107852	1.373507	0.000162
  25	2.3880e+00	0.4781	16.081930	0.000365	3.648533	0.618078	0.000073
  26	2.4875e+00	0.4971	16.219193	0.000689	6.891674	1.167481	0.000138
  27	2.5870e+00	0.5171	16.324158	0.000527	5.270104	0.892780	0.000105
  28	2.6865e+00	0.5366	16.521978	0.000993	9.932119	1.682546	0.000199
  29	2.7860e+00	0.5572	16.606758	0.000426	4.256622	0.721091	0.000085
  30	2.8855e+00	0.5772	16.760169	0.000770	7.702460	1.304832	0.000154
  31	2.9850e+00	0.5972	16.857060	0.000486	4.864711	0.824104	0.000097
  32	3.0845e+00	0.6170	17.002397	0.000730	7.297067	1.236157	0.000146
  33	3.1840e+00	0.6380	17.175994	0.000872	8.715941	1.476520	0.000174
  34	3.2835e+00	0.6560	17.252700	0.000385	3.851230	0.652416	0.000077
  35	3.3830e+00	0.6766	17.410148	0.000791	7.905156	1.339170	0.000158
  36	3.4825e+00	0.6967	17.539336	0.000649	6.486282	1.098806	0.000130
  37	3.5820e+00	0.7169	17.668525	0.000649	6.486282	1.098806	0.000130
  38	3.6815e+00	0.7366	17.773490	0.000527	5.270104	0.892780	0.000105
  39	3.7810e+00	0.7561	17.939013	0.000831	8.310548	1.407845	0.000166
  40	3.8805e+00	0.7753	18.064164	0.000628	6.283585	1.064468	0.000126
  41	3.9800e+00	0.7964	18.253909	0.000953	9.526726	1.613871	0.000191
  42	4.0795e+00	0.8164	18.346763	0.000466	4.662015	0.789767	0.000093
  43	4.1790e+00	0.8359	18.516323	0.000851	8.513245	1.442183	0.000170
  44	4.2785e+00	0.8559	18.601103	0.000426	4.256622	0.721091	0.000085
  45	4.3780e+00	0.8764	18.746440	0.000730	7.297067	1.236157	0.000146
  46	4.4775e+00	0.8960	18.863517	0.000588	5.878193	0.995793	0.000118
  47	4.5770e+00	0.9150	19.045188	0.000912	9.121334	1.545196	0.000183
  48	4.6765e+00	0.9351	19.174376	0.000649	6.486282	1.098806	0.000130
  49	4.7760e+00	0.9562	19.327787	0.000770	7.702460	1.304832	0.000154
  50	4.8755e+00	0.9760	19.436790	0.000547	5.472800	0.927117	0.000110
  51	4.9750e+00	0.9944	19.610387	0.000872	8.715941	1.476520	0.000174
  52	5.0745e+00	1.0148	19.739575	0.000649	6.486282	1.098806	0.000130
  53	5.1740e+00	1.0351	19.860689	0.000608	6.080889	1.030130	0.000122
  54	5.2735e+00	1.0551	20.014100	0.000770	7.702460	1.304832	0.000154
  55	5.3730e+00	1.0753	20.135214	0.000608	6.080889	1.030130	0.000122
  56	5.4725e+00	1.0950	20.292663	0.000791	7.905156	1.339170	0.000158
  57	5.5720e+00	1.1155	20.385517	0.000466	4.662015	0.789767	0.000093
  58	5.6715e+00	1.1348	20.567188	0.000912	9.121334	1.545196	0.000183
  59	5.7710e+00	1.1558	20.740785	0.000872	8.715941	1.476520	0.000174
  60	5.8705e+00	1.1750	20.882085	0.000709	7.094371	1.201819	0.000142
  61	5.9700e+00	1.1954	20.946679	0.000324	3.243141	0.549403	0.000065
  62	6.0695e+00	1.2144	21.140461	0.000973	9.729423	1.648209	0.000195
  63	6.1690e+00	1.2347	21.285798	0.000730	7.297067	1.236157	0.000146
  64	6.2685e+00	1.2542	21.427098	0.000709	7.094371	1.201819	0.000142
  65	6.3680e+00	1.2739	21.604732	0.000892	8.918637	1.510858	0.000179
  66	6.4675e+00	1.2939	21.733920	0.000649	6.486282	1.098806	0.000130
  67	6.5670e+00	1.3128	21.871183	0.000689	6.891674	1.167481	0.000138
  68	6.6665e+00	1.3335	22.012483	0.000709	7.094371	1.201819	0.000142
  69	6.7660e+00	1.3527	22.093225	0.000405	4.053926	0.686754	0.000081
  70	6.8655e+00	1.3735	22.278934	0.000932	9.324030	1.579533	0.000187
  71	6.9650e+00	1.3932	22.428308	0.000750	7.499763	1.270494	0.000150
  72	7.0645e+00	1.4129	22.557496	0.000649	6.486282	1.098806	0.000130
  73	7.1640e+00	1.4341	22.751278	0.000973	9.729423	1.648209	0.000195
  74	7.2635e+00	1.4536	22.844133	0.000466	4.662015	0.789767	0.000093
  75	7.3630e+00	1.4735	22.985432	0.000709	7.094371	1.201819	0.000142
  76	7.4625e+00	1.4925	23.175178	0.000953	9.526726	1.613871	0.000191
  77	7.5620e+00	1.5127	23.324552	0.000750	7.499763	1.270494	0.000150
  78	7.6615e+00	1.5324	23.502186	0.000892	8.918637	1.510858	0.000179
  79	7.7610e+00	1.5540	23.582928	0.000405	4.053926	0.686754	0.000081
  80	7.8605e+00	1.5736	23.728265	0.000730	7.297067	1.236157	0.000146
  81	7.9600e+00	1.5927	23.873602	0.000730	7.297067	1.236157	0.000146
  82	8.0595e+00	1.6123	24.035088	0.000811	8.107852	1.373507	0.000162
  83	8.1590e+00	1.6328	24.176387	0.000709	7.094371	1.201819	0.000142
  84	8.2585e+00	1.6528	24.297501	0.000608	6.080889	1.030130	0.000122
  85	8.3580e+00	1.6731	24.450913	0.000770	7.702460	1.304832	0.000154
  86	8.4575e+00	1.6922	24.596249	0.000730	7.297067	1.236157	0.000146
  87	8.5570e+00	1.7118	24.781958	0.000932	9.324030	1.579533	0.000187
  88	8.6565e+00	1.7319	24.911146	0.000649	6.486282	1.098806	0.000130
  89	8.7560e+00	1.7519	25.068594	0.000791	7.905156	1.339170	0.000158
  90	8.8555e+00	1.7727	25.189708	0.000608	6.080889	1.030130	0.000122
  91	8.9550e+00	1.7924	25.351194	0.000811	8.107852	1.373507	0.000162
  92	9.0545e+00	1.8126	25.480382	0.000649	6.486282	1.098806	0.000130
  93	9.1540e+00	1.8326	25.637831	0.000791	7.905156	1.339170	0.000158
  94	9.2535e+00	1.8524	25.791242	0.000770	7.702460	1.304832	0.000154
  95	9.3530e+00	1.8723	25.916393	0.000628	6.283585	1.064468	0.000126
  96	9.4525e+00	1.8913	26.098064	0.000912	9.121334	1.545196	0.000183
  97	9.5520e+00	1.9115	26.263587	0.000831	8.310548	1.407845	0.000166
  98	9.6515e+00	1.9307	26.408923	0.000730	7.297067	1.236157	0.000146
  99	9.7510e+00	1.9517	26.550223	0.000709	7.094371	1.201819	0.000142
 100	9.8505e+00	1.9719	26.675374	0.000628	6.283585	1.064468	0.000126
 101	9.9500e+00	1.9910	26.828786	0.000770	7.702460	1.304832	0.000154
 102	1.0050e+01	2.0121	26.986234	0.000791	7.905156	1.339170	0.000158
 103	1.0149e+01	2.0306	27.135608	0.000750	7.499763	1.270494	0.000150
 104	1.0248e+01	2.0510	27.276908	0.000709	7.094371	1.201819	0.000142
 105	1.0348e+01	2.0714	27.434356	0.000791	7.905156	1.339170	0.000158
 106	1.0447e+01	2.0901	27.579693	0.000730	7.297067	1.236157	0.000146
 107	1.0547e+01	2.1109	27.761364	0.000912	9.121334	1.545196	0.000183
 108	1.0646e+01	2.1298	27.906701	0.000730	7.297067	1.236157	0.000146
 109	1.0746e+01	2.1506	28.048001	0.000709	7.094371	1.201819	0.000142
 110	1.0845e+01	2.1709	28.229672	0.000912	9.121334	1.545196	0.000183
 111	1.0945e+01	2.1906	28.350786	0.000608	6.080889	1.030130	0.000122
 112	1.1044e+01	2.2109	28.500160	0.000750	7.499763	1.270494	0.000150
 113	1.1144e+01	2.2307	28.681831	0.000912	9.121334	1.545196	0.000183
 114	1.1243e+01	2.2512	28.798908	0.000588	5.878193	0.995793	0.000118
 115	1.1343e+01	2.2698	28.952319	0.000770	7.702460	1.304832	0.000154
 116	1.1443e+01	2.2901	29.101693	0.000750	7.499763	1.270494	0.000150
 117	1.1542e+01	2.3104	29.267216	0.000831	8.310548	1.407845	0.000166
 118	1.1642e+01	2.3300	29.400441	0.000669	6.688978	1.133144	0.000134
 119	1.1741e+01	2.3491	29.529629	0.000649	6.486282	1.098806	0.000130
 120	1.1841e+01	2.3705	29.691115	0.000811	8.107852	1.373507	0.000162
 121	1.1940e+01	2.3896	29.860674	0.000851	8.513245	1.442183	0.000170
 122	1.2040e+01	2.4110	30.006011	0.000730	7.297067	1.236157	0.000146
 123	1.2139e+01	2.4299	30.115014	0.000547	5.472800	0.927117	0.000110
 124	1.2239e+01	2.4505	30.288611	0.000872	8.715941	1.476520	0.000174
 125	1.2338e+01	2.4702	30.446059	0.000791	7.905156	1.339170	0.000158
 126	1.2438e+01	2.4903	30.563136	0.000588	5.878193	0.995793	0.000118
 127	1.2537e+01	2.5101	30.692324	0.000649	6.486282	1.098806	0.000130
 128	1.2636e+01	2.5295	30.861884	0.000851	8.513245	1.442183	0.000170
 129	1.2736e+01	2.5488	31.003184	0.000709	7.094371	1.201819	0.000142
 130	1.2835e+01	2.5698	31.144484	0.000709	7.094371	1.201819	0.000142
 131	1.2935e+01	2.5892	31.314043	0.000851	8.513245	1.442183	0.000170
 132	1.3034e+01	2.6083	31.467455	0.000770	7.702460	1.304832	0.000154
 133	1.3134e+01	2.6290	31.572420	0.000527	5.270104	0.892780	0.000105
 134	1.3233e+01	2.6488	31.713720	0.000709	7.094371	1.201819	0.000142
 135	1.3333e+01	2.6685	31.850982	0.000689	6.891674	1.167481	0.000138
 136	1.3432e+01	2.6882	31.992282	0.000709	7.094371	1.201819	0.000142
 137	1.3532e+01	2.7082	32.190102	0.000993	9.932119	1.682546	0.000199
 138	1.3632e+01	2.7278	32.307179	0.000588	5.878193	0.995793	0.000118
 139	1.3731e+01	2.7483	32.444441	0.000689	6.891674	1.167481	0.000138
 140	1.3831e+01	2.7685	32.618038	0.000872	8.715941	1.476520	0.000174
 141	1.3930e+01	2.7889	32.731078	0.000568	5.675496	0.961455	0.000114
 142	1.4030e+01	2.8088	32.920823	0.000953	9.526726	1.613871	0.000191
 143	1.4129e+01	2.8287	33.045975	0.000628	6.283585	1.064468	0.000126
 144	1.4229e+01	2.8480	33.171126	0.000628	6.283585	1.064468	0.000126
 145	1.4328e+01	2.8677	33.280128	0.000547	5.472800	0.927117	0.000110
 146	1.4428e+01	2.8873	33.453725	0.000872	8.715941	1.476520	0.000174
 147	1.4527e+01	2.9079	33.627322	0.000872	8.715941	1.476520	0.000174
 148	1.4627e+01	2.9292	33.760548	0.000669	6.688978	1.133144	0.000134
 149	1.4726e+01	2.9472	33.913959	0.000770	7.702460	1.304832	0.000154
 150	1.4825e+01	2.9680	34.039110	0.000628	6.283585	1.064468	0.000126
 151	1.4925e+01	2.9870	34.164261	0.000628	6.283585	1.064468	0.000126
 152	1.5024e+01	3.0079	34.325747	0.000811	8.107852	1.373507	0.000162
 153	1.5124e+01	3.0277	34.454935	0.000649	6.486282	1.098806	0.000130
 154	1.5223e+01	3.0464	34.592198	0.000689	6.891674	1.167481	0.000138
 155	1.5323e+01	3.0680	34.749646	0.000791	7.905156	1.339170	0.000158
 156	1.5422e+01	3.0871	34.874797	0.000628	6.283585	1.064468	0.000126
 157	1.5522e+01	3.1072	35.040320	0.000831	8.310548	1.407845	0.000166
 158	1.5621e+01	3.1268	35.193731	0.000770	7.702460	1.304832	0.000154
 159	1.5721e+01	3.1473	35.330993	0.000689	6.891674	1.167481	0.000138
 160	1.5820e+01	3.1658	35.472293	0.000709	7.094371	1.201819	0.000142
 161	1.5920e+01	3.1866	35.561110	0.000446	4.459319	0.755429	0.000089
 162	1.6020e+01	3.2064	35.734707	0.000872	8.715941	1.476520	0.000174
 163	1.6119e+01	3.2265	35.884081	0.000750	7.499763	1.270494	0.000150
 164	1.6218e+01	3.2461	35.976935	0.000466	4.662015	0.789767	0.000093
 165	1.6318e+01	3.2661	36.142458	0.000831	8.310548	1.407845	0.000166
 166	1.6418e+01	3.2853	36.303943	0.000811	8.107852	1.373507	0.000162
 167	1.6517e+01	3.3070	36.412946	0.000547	5.472800	0.927117	0.000110
 168	1.6616e+01	3.3260	36.538097	0.000628	6.283585	1.064468	0.000126
 169	1.6716e+01	3.3459	36.691508	0.000770	7.702460	1.304832	0.000154
 170	1.6816e+01	3.3659	36.857031	0.000831	8.310548	1.407845	0.000166
 171	1.6915e+01	3.3857	36.982182	0.000628	6.283585	1.064468	0.000126
 172	1.7015e+01	3.4061	37.135593	0.000770	7.702460	1.304832	0.000154
 173	1.7114e+01	3.4251	37.284967	0.000750	7.499763	1.270494	0.000150
 174	1.7213e+01	3.4463	37.410118	0.000628	6.283585	1.064468	0.000126
 175	1.7313e+01	3.4660	37.539307	0.000649	6.486282	1.098806	0.000130
 176	1.7413e+01	3.4862	37.680606	0.000709	7.094371	1.201819	0.000142
 177	1.7512e+01	3.5062	37.813832	0.000669	6.688978	1.133144	0.000134
 178	1.7611e+01	3.5257	37.930909	0.000588	5.878193	0.995793	0.000118
 179	1.7711e+01	3.5457	38.088357	0.000791	7.905156	1.339170	0.000158
 180	1.7811e+01	3.5652	38.229657	0.000709	7.094371	1.201819	0.000142
 181	1.7910e+01	3.5838	38.342697	0.000568	5.675496	0.961455	0.000114
 182	1.8009e+01	3.6049	38.532442	0.000953	9.526726	1.613871	0.000191
 183	1.8109e+01	3.6242	38.661630	0.000649	6.486282	1.098806	0.000130
 184	1.8209e+01	3.6448	38.770633	0.000547	5.472800	0.927117	0.000110
 185	1.8308e+01	3.6652	38.915970	0.000730	7.297067	1.236157	0.000146
 186	1.8407e+01	3.6858	39.085530	0.000851	8.513245	1.442183	0.000170
 187	1.8507e+01	3.7039	39.218755	0.000669	6.688978	1.133144	0.000134
 188	1.8607e+01	3.7246	39.315646	0.000486	4.864711	0.824104	0.000097
 189	1.8706e+01	3.7450	39.481169	0.000831	8.310548	1.407845	0.000166
 190	1.8805e+01	3.7652	39.598246	0.000588	5.878193	0.995793	0.000118
 191	1.8905e+01	3.7836	39.719360	0.000608	6.080889	1.030130	0.000122
 192	1.9005e+01	3.8042	39.840474	0.000608	6.080889	1.030130	0.000122
 193	1.9104e+01	3.8242	39.985811	0.000730	7.297067	1.236157	0.000146
 194	1.9203e+01	3.8445	40.135185	0.000750	7.499763	1.270494	0.000150
 195	1.9303e+01	3.8635	40.240150	0.000527	5.270104	0.892780	0.000105
 196	1.9402e+01	3.8828	40.385487	0.000730	7.297067	1.236157	0.000146
 197	1.9502e+01	3.9045	40.551010	0.000831	8.310548	1.407845	0.000166
 198	1.9602e+01	3.9248	40.635790	0.000426	4.256622	0.721091	0.000085
 199	1.9701e+01	3.9436	40.789201	0.000770	7.702460	1.304832	0.000154
 200	1.9800e+01	3.9639	40.934538	0.000730	7.297067	1.236157	0.000146
 201	1.9900e+01	3.9834	41.083912	0.000750	7.499763	1.270494	0.000150
 202	2.0000e+01	4.0044	41.172729	0.000446	4.459319	0.755429	0.000089
 203	2.0099e+01	4.0231	41.309991	0.000689	6.891674	1.167481	0.000138
 204	2.0198e+01	4.0428	41.427068	0.000588	5.878193	0.995793	0.000118
 205	2.0298e+01	4.0647	41.596628	0.000851	8.513245	1.442183	0.000170
 206	2.0398e+01	4.0831	41.701594	0.000527	5.270104	0.892780	0.000105
 207	2.0497e+01	4.1038	41.859042	0.000791	7.905156	1.339170	0.000158
 208	2.0596e+01	4.1225	41.996305	0.000689	6.891674	1.167481	0.000138
 209	2.0696e+01	4.1431	42.141641	0.000730	7.297067	1.236157	0.000146
 210	2.0796e+01	4.1616	42.278904	0.000689	6.891674	1.167481	0.000138
 211	2.0895e+01	4.1823	42.355610	0.000385	3.851230	0.652416	0.000077
 212	2.0994e+01	4.2020	42.517095	0.000811	8.107852	1.373507	0.000162
 213	2.1094e+01	4.2228	42.646283	0.000649	6.486282	1.098806	0.000130
 214	2.1194e+01	4.2426	42.763360	0.000588	5.878193	0.995793	0.000118
 215	2.1293e+01	4.2628	42.908697	0.000730	7.297067	1.236157	0.000146
 216	2.1392e+01	4.2837	43.062108	0.000770	7.702460	1.304832	0.000154
 217	2.1492e+01	4.3028	43.219557	0.000791	7.905156	1.339170	0.000158
 218	2.1591e+01	4.3217	43.340671	0.000608	6.080889	1.030130	0.000122
 219	2.1691e+01	4.3424	43.445636	0.000527	5.270104	0.892780	0.000105
 220	2.1791e+01	4.3615	43.595010	0.000750	7.499763	1.270494	0.000150
 221	2.1890e+01	4.3834	43.720161	0.000628	6.283585	1.064468	0.000126
 222	2.1989e+01	4.4007	43.861461	0.000709	7.094371	1.201819	0.000142
 223	2.2089e+01	4.4224	44.002761	0.000709	7.094371	1.201819	0.000142
 224	2.2189e+01	4.4411	44.164246	0.000811	8.107852	1.373507	0.000162
 225	2.2288e+01	4.4620	44.240952	0.000385	3.851230	0.652416	0.000077
 226	2.2387e+01	4.4821	44.418586	0.000892	8.918637	1.510858	0.000179
 227	2.2487e+01	4.5019	44.547774	0.000649	6.486282	1.098806	0.000130
 228	2.2587e+01	4.5214	44.685037	0.000689	6.891674	1.167481	0.000138
 229	2.2686e+01	4.5412	44.798077	0.000568	5.675496	0.961455	0.000114
 230	2.2785e+01	4.5604	44.935339	0.000689	6.891674	1.167481	0.000138
 231	2.2885e+01	4.5815	45.068565	0.000669	6.688978	1.133144	0.000134
 232	2.2985e+01	4.6018	45.209865	0.000709	7.094371	1.201819	0.000142
 233	2.3084e+01	4.6214	45.330979	0.000608	6.080889	1.030130	0.000122
 234	2.3183e+01	4.6404	45.439981	0.000547	5.472800	0.927117	0.000110
 235	2.3283e+01	4.6603	45.629727	0.000953	9.526726	1.613871	0.000191
 236	2.3383e+01	4.6801	45.734692	0.000527	5.270104	0.892780	0.000105
 237	2.3482e+01	4.7002	45.888103	0.000770	7.702460	1.304832	0.000154
 238	2.3581e+01	4.7208	46.009217	0.000608	6.080889	1.030130	0.000122
 239	2.3681e+01	4.7407	46.085923	0.000385	3.851230	0.652416	0.000077
 240	2.3780e+01	4.7608	46.247408	0.000811	8.107852	1.373507	0.000162
 241	2.3880e+01	4.7808	46.384671	0.000689	6.891674	1.167481	0.000138
 242	2.3980e+01	4.7997	46.534045	0.000750	7.499763	1.270494	0.000150
 243	2.4079e+01	4.8202	46.651122	0.000588	5.878193	0.995793	0.000118
 244	2.4178e+01	4.8402	46.852979	0.001013	10.134815	1.716884	0.000203
 245	2.4278e+01	4.8603	46.945833	0.000466	4.662015	0.789767	0.000093
 246	2.4378e+01	4.8800	47.083096	0.000689	6.891674	1.167481	0.000138
 247	2.4477e+01	4.8997	47.192098	0.000547	5.472800	0.927117	0.000110
 248	2.4576e+01	4.9201	47.333398	0.000709	7.094371	1.201819	0.000142
 249	2.4676e+01	4.9396	47.442401	0.000547	5.472800	0.927117	0.000110
 250	2.4776e+01	4.9593	47.595812	0.000770	7.702460	1.304832	0.000154
 251	2.4875e+01	4.9796	47.716926	0.000608	6.080889	1.030130	0.000122
 252	2.4974e+01	5.0005	47.850151	0.000669	6.688978	1.133144	0.000134
 253	2.5074e+01	5.0201	47.995488	0.000730	7.297067	1.236157	0.000146
 254	2.5174e+01	5.0387	48.084305	0.000446	4.459319	0.755429	0.000089
 255	2.5273e+01	5.0587	48.245791	0.000811	8.107852	1.373507	0.000162
 256	2.5372e+01	5.0777	48.354793	0.000547	5.472800	0.927117	0.000110
 257	2.5472e+01	5.0997	48.508204	0.000770	7.702460	1.304832	0.000154
 258	2.5572e+01	5.1186	48.629319	0.000608	6.080889	1.030130	0.000122
 259	2.5671e+01	5.1390	48.738321	0.000547	5.472800	0.927117	0.000110
 260	2.5770e+01	5.1586	48.871547	0.000669	6.688978	1.133144	0.000134
 261	2.5870e+01	5.1788	48.996698	0.000628	6.283585	1.064468	0.000126
 262	2.5970e+01	5.1986	49.154146	0.000791	7.905156	1.339170	0.000158
 263	2.6069e+01	5.2184	49.255075	0.000507	5.067408	0.858442	0.000101
 264	2.6169e+01	5.2386	49.396374	0.000709	7.094371	1.201819	0.000142
 265	2.6268e+01	5.2581	49.525563	0.000649	6.486282	1.098806	0.000130
 266	2.6367e+01	5.2776	49.638602	0.000568	5.675496	0.961455	0.000114
 267	2.6467e+01	5.2973	49.800088	0.000811	8.107852	1.373507	0.000162
 268	2.6567e+01	5.3181	49.917165	0.000588	5.878193	0.995793	0.000118
 269	2.6666e+01	5.3385	50.038279	0.000608	6.080889	1.030130	0.000122
 270	2.6765e+01	5.3579	50.171504	0.000669	6.688978	1.133144	0.000134
 271	2.6865e+01	5.3776	50.361250	0.000953	9.526726	1.613871	0.000191
 272	2.6965e+01	5.3982	50.466215	0.000527	5.270104	0.892780	0.000105
 273	2.7064e+01	5.4177	50.538884	0.000365	3.648533	0.618078	0.000073
 274	2.7163e+01	5.4377	50.716518	0.000892	8.918637	1.510858	0.000179
 275	2.7263e+01	5.4564	50.813409	0.000486	4.864711	0.824104	0.000097
 276	2.7363e+01	5.4775	50.970857	0.000791	7.905156	1.339170	0.000158
 277	2.7462e+01	5.4971	51.083897	0.000568	5.675496	0.961455	0.000114
 278	2.7561e+01	5.5181	51.209048	0.000628	6.283585	1.064468	0.000126
 279	2.7661e+01	5.5373	51.350348	0.000709	7.094371	1.201819	0.000142
 280	2.7761e+01	5.5572	51.491648	0.000709	7.094371	1.201819	0.000142
 281	2.7860e+01	5.5776	51.576428	0.000426	4.256622	0.721091	0.000085
 282	2.7959e+01	5.5962	51.733876	0.000791	7.905156	1.339170	0.000158
 283	2.8059e+01	5.6179	51.846916	0.000568	5.675496	0.961455	0.000114
 284	2.8159e+01	5.6380	52.020513	0.000872	8.715941	1.476520	0.000174
 285	2.8258e+01	5.6565	52.109330	0.000446	4.459319	0.755429	0.000089
 286	2.8358e+01	5.6763	52.262741	0.000770	7.702460	1.304832	0.000154
 287	2.8457e+01	5.6959	52.371743	0.000547	5.472800	0.927117	0.000110
 288	2.8556e+01	5.7162	52.504969	0.000669	6.688978	1.133144	0.000134
 289	2.8656e+01	5.7362	52.642231	0.000689	6.891674	1.167481	0.000138
 290	2.8756e+01	5.7561	52.751234	0.000547	5.472800	0.927117	0.000110
 291	2.8855e+01	5.7775	52.868311	0.000588	5.878193	0.995793	0.000118
 292	2.8954e+01	5.7967	52.989425	0.000608	6.080889	1.030130	0.000122
 293	2.9054e+01	5.8166	53.130725	0.000709	7.094371	1.201819	0.000142
 294	2.9154e+01	5.8364	53.231653	0.000507	5.067408	0.858442	0.000101
 295	2.9253e+01	5.8559	53.356804	0.000628	6.283585	1.064468	0.000126
 296	2.9352e+01	5.8755	53.518290	0.000811	8.107852	1.373507	0.000162
 297	2.9452e+01	5.8959	53.607107	0.000446	4.459319	0.755429	0.000089
 298	2.9552e+01	5.9162	53.748407	0.000709	7.094371	1.201819	0.000142
 299	2.9651e+01	5.9326	53.877595	0.000649	6.486282	1.098806	0.000130
 300	2.9750e+01	5.9547	53.966412	0.000446	4.459319	0.755429	0.000089
 301	2.9850e+01	5.9750	54.083489	0.000588	5.878193	0.995793	0.000118
 302	2.9950e+01	5.9965	54.236900	0.000770	7.702460	1.304832	0.000154
 303	3.0049e+01	6.0156	54.317643	0.000405	4.053926	0.686754	0.000081
 304	3.0148e+01	6.0356	54.446831	0.000649	6.486282	1.098806	0.000130
 305	3.0248e+01	6.0560	54.580057	0.000669	6.688978	1.133144	0.000134
 306	3.0348e+01	6.0744	54.701171	0.000608	6.080889	1.030130	0.000122
 307	3.0447e+01	6.0949	54.822285	0.000608	6.080889	1.030130	0.000122
 308	3.0547e+01	6.1153	54.927250	0.000527	5.270104	0.892780	0.000105
 309	3.0646e+01	6.1346	55.064513	0.000689	6.891674	1.167481	0.000138
 310	3.0745e+01	6.1546	55.205813	0.000709	7.094371	1.201819	0.000142
 311	3.0845e+01	6.1745	55.282518	0.000385	3.851230	0.652416	0.000077
 312	3.0945e+01	6.1949	55.387484	0.000527	5.270104	0.892780	0.000105
 313	3.1044e+01	6.2147	55.528784	0.000709	7.094371	1.201819	0.000142
 314	3.1143e+01	6.2347	55.678158	0.000750	7.499763	1.270494	0.000150
 315	3.1243e+01	6.2537	55.779086	0.000507	5.067408	0.858442	0.000101
 316	3.1343e+01	6.2733	55.900200	0.000608	6.080889	1.030130	0.000122
 317	3.1442e+01	6.2946	56.005166	0.000527	5.270104	0.892780	0.000105
 318	3.1541e+01	6.3137	56.110131	0.000527	5.270104	0.892780	0.000105
 319	3.1641e+01	6.3338	56.243357	0.000669	6.688978	1.133144	0.000134
 320	3.1741e+01	6.3534	56.364471	0.000608	6.080889	1.030130	0.000122
 321	3.1840e+01	6.3741	56.453288	0.000446	4.459319	0.755429	0.000089
 322	3.1939e+01	6.3940	56.570365	0.000588	5.878193	0.995793	0.000118
 323	3.2039e+01	6.4126	56.715701	0.000730	7.297067	1.236157	0.000146
 324	3.2139e+01	6.4330	56.824704	0.000547	5.472800	0.927117	0.000110
 325	3.2238e+01	6.4535	56.929670	0.000527	5.270104	0.892780	0.000105
 326	3.2337e+01	6.4730	57.075006	0.000730	7.297067	1.236157	0.000146
 327	3.2437e+01	6.4938	57.115378	0.000203	2.026963	0.343377	0.000041
 328	3.2536e+01	6.5127	57.288975	0.000872	8.715941	1.476520	0.000174
 329	3.2636e+01	6.5327	57.365680	0.000385	3.851230	0.652416	0.000077
 330	3.2736e+01	6.5529	57.511017	0.000730	7.297067	1.236157	0.000146
 331	3.2835e+01	6.5725	57.611946	0.000507	5.067408	0.858442	0.000101
 332	3.2934e+01	6.5922	57.724985	0.000568	5.675496	0.961455	0.000114
 333	3.3034e+01	6.6120	57.858211	0.000669	6.688978	1.133144	0.000134
 334	3.3133e+01	6.6324	57.955102	0.000486	4.864711	0.824104	0.000097
 335	3.3233e+01	6.6515	58.068142	0.000568	5.675496	0.961455	0.000114
 336	3.3333e+01	6.6718	58.213479	0.000730	7.297067	1.236157	0.000146
 337	3.3432e+01	6.6917	58.330556	0.000588	5.878193	0.995793	0.000118
 338	3.3532e+01	6.7117	58.427447	0.000486	4.864711	0.824104	0.000097
 339	3.3631e+01	6.7324	58.504153	0.000385	3.851230	0.652416	0.000077
 340	3.3730e+01	6.7513	58.645452	0.000709	7.094371	1.201819	0.000142
 341	3.3830e+01	6.7728	58.790789	0.000730	7.297067	1.236157	0.000146
 342	3.3929e+01	6.7910	58.863458	0.000365	3.648533	0.618078	0.000073
 343	3.4029e+01	6.8128	59.012832	0.000750	7.499763	1.270494	0.000150
 344	3.4129e+01	6.8300	59.097612	0.000426	4.256622	0.721091	0.000085
 345	3.4228e+01	6.8522	59.194503	0.000486	4.864711	0.824104	0.000097
 346	3.4328e+01	6.8710	59.319654	0.000628	6.283585	1.064468	0.000126
 347	3.4427e+01	6.8903	59.416545	0.000486	4.864711	0.824104	0.000097
 348	3.4526e+01	6.9103	59.557845	0.000709	7.094371	1.201819	0.000142
 349	3.4626e+01	6.9320	59.654736	0.000486	4.864711	0.824104	0.000097
 350	3.4725e+01	6.9511	59.755665	0.000507	5.067408	0.858442	0.000101
 351	3.4825e+01	6.9706	59.880816	0.000628	6.283585	1.064468	0.000126
 352	3.4925e+01	6.9900	59.941373	0.000304	3.040445	0.515065	0.000061
 353	3.5024e+01	7.0110	60.070561	0.000649	6.486282	1.098806	0.000130
 354	3.5123e+01	7.0299	60.236084	0.000831	8.310548	1.407845	0.000166
 355	3.5223e+01	7.0510	60.312789	0.000385	3.851230	0.652416	0.000077
 356	3.5322e+01	7.0702	60.405643	0.000466	4.662015	0.789767	0.000093
 357	3.5422e+01	7.0910	60.502535	0.000486	4.864711	0.824104	0.000097
 358	3.5522e+01	7.1105	60.635760	0.000669	6.688978	1.133144	0.000134
 359	3.5621e+01	7.1302	60.708429	0.000365	3.648533	0.618078	0.000073
 360	3.5721e+01	7.1502	60.857803	0.000750	7.499763	1.270494	0.000150
 361	3.5820e+01	7.1708	60.958731	0.000507	5.067408	0.858442	0.000101
 362	3.5919e+01	7.1905	61.091957	0.000669	6.688978	1.133144	0.000134
 363	3.6019e+01	7.2100	61.148476	0.000284	2.837748	0.480728	0.000057
 364	3.6118e+01	7.2299	61.309962	0.000811	8.107852	1.373507	0.000162
 365	3.6218e+01	7.2510	61.402816	0.000466	4.662015	0.789767	0.000093
 366	3.6318e+01	7.2701	61.487596	0.000426	4.256622	0.721091	0.000085
 367	3.6417e+01	7.2897	61.612747	0.000628	6.283585	1.064468	0.000126
 368	3.6517e+01	7.3096	61.717713	0.000527	5.270104	0.892780	0.000105
 369	3.6616e+01	7.3307	61.798455	0.000405	4.053926	0.686754	0.000081
 370	3.6715e+01	7.3498	61.915532	0.000588	5.878193	0.995793	0.000118
 371	3.6815e+01	7.3691	62.024535	0.000547	5.472800	0.927117	0.000110
 372	3.6914e+01	7.3904	62.153723	0.000649	6.486282	1.098806	0.000130
 373	3.7014e+01	7.4099	62.230429	0.000385	3.851230	0.652416	0.000077
 374	3.7114e+01	7.4292	62.375766	0.000730	7.297067	1.236157	0.000146
 375	3.7213e+01	7.4497	62.464583	0.000446	4.459319	0.755429	0.000089
 376	3.7313e+01	7.4690	62.557437	0.000466	4.662015	0.789767	0.000093
 377	3.7412e+01	7.4883	62.682588	0.000628	6.283585	1.064468	0.000126
 378	3.7511e+01	7.5098	62.811776	0.000649	6.486282	1.098806	0.000130
 379	3.7611e+01	7.5286	62.904631	0.000466	4.662015	0.789767	0.000093
 380	3.7711e+01	7.5489	63.025745	0.000608	6.080889	1.030130	0.000122
 381	3.7810e+01	7.5685	63.134747	0.000547	5.472800	0.927117	0.000110
 382	3.7910e+01	7.5886	63.223564	0.000446	4.459319	0.755429	0.000089
 383	3.8009e+01	7.6079	63.308344	0.000426	4.256622	0.721091	0.000085
 384	3.8108e+01	7.6282	63.437532	0.000649	6.486282	1.098806	0.000130
 385	3.8208e+01	7.6499	63.574795	0.000689	6.891674	1.167481	0.000138
 386	3.8307e+01	7.6690	63.651501	0.000385	3.851230	0.652416	0.000077
 387	3.8407e+01	7.6874	63.780689	0.000649	6.486282	1.098806	0.000130
 388	3.8507e+01	7.7082	63.881617	0.000507	5.067408	0.858442	0.000101
 389	3.8606e+01	7.7275	63.994657	0.000568	5.675496	0.961455	0.000114
 390	3.8706e+01	7.7468	64.091548	0.000486	4.864711	0.824104	0.000097
 391	3.8805e+01	7.7679	64.224774	0.000669	6.688978	1.133144	0.000134
 392	3.8904e+01	7.7869	64.345888	0.000608	6.080889	1.030130	0.000122
 393	3.9004e+01	7.8077	64.434705	0.000446	4.459319	0.755429	0.000089
 394	3.9103e+01	7.8272	64.555819	0.000608	6.080889	1.030130	0.000122
 395	3.9203e+01	7.8468	64.664822	0.000547	5.472800	0.927117	0.000110
 396	3.9303e+01	7.8675	64.777861	0.000568	5.675496	0.961455	0.000114
 397	3.9402e+01	7.8870	64.882827	0.000527	5.270104	0.892780	0.000105
 398	3.9502e+01	7.9070	64.975681	0.000466	4.662015	0.789767	0.000093
 399	3.9601e+01	7.9276	65.080647	0.000527	5.270104	0.892780	0.000105
 400	3.9700e+01	7.9483	65.165427	0.000426	4.256622	0.721091	0.000085
 401	3.9800e+01	7.9673	65.298652	0.000669	6.688978	1.133144	0.000134
 402	3.9900e+01	7.9852	65.431877	0.000669	6.688978	1.133144	0.000134
 403	3.9999e+01	8.0071	65.544917	0.000568	5.675496	0.961455	0.000114
 404	4.0099e+01	8.0276	65.645846	0.000507	5.067408	0.858442	0.000101
 405	4.0198e+01	8.0463	65.738700	0.000466	4.662015	0.789767	0.000093
 406	4.0297e+01	8.0656	65.843665	0.000527	5.270104	0.892780	0.000105
 407	4.0397e+01	8.0862	65.964779	0.000608	6.080889	1.030130	0.000122
 408	4.0496e+01	8.1060	66.061671	0.000486	4.864711	0.824104	0.000097
 409	4.0596e+01	8.1259	66.170673	0.000547	5.472800	0.927117	0.000110
 410	4.0696e+01	8.1466	66.299862	0.000649	6.486282	1.098806	0.000130
 411	4.0795e+01	8.1665	66.392716	0.000466	4.662015	0.789767	0.000093
 412	4.0895e+01	8.1863	66.501718	0.000547	5.472800	0.927117	0.000110
 413	4.0994e+01	8.2063	66.598610	0.000486	4.864711	0.824104	0.000097
 414	4.1093e+01	8.2265	66.679352	0.000405	4.053926	0.686754	0.000081
 415	4.1193e+01	8.2474	66.820652	0.000709	7.094371	1.201819	0.000142
 416	4.1292e+01	8.2655	66.965989	0.000730	7.297067	1.236157	0.000146
 417	4.1392e+01	8.2862	67.030583	0.000324	3.243141	0.549403	0.000065
 418	4.1492e+01	8.3060	67.127474	0.000486	4.864711	0.824104	0.000097
 419	4.1591e+01	8.3257	67.272811	0.000730	7.297067	1.236157	0.000146
 420	4.1691e+01	8.3452	67.333368	0.000304	3.040445	0.515065	0.000061
 421	4.1790e+01	8.3651	67.462557	0.000649	6.486282	1.098806	0.000130
 422	4.1889e+01	8.3855	67.555411	0.000466	4.662015	0.789767	0.000093
 423	4.1989e+01	8.4054	67.660376	0.000527	5.270104	0.892780	0.000105
 424	4.2089e+01	8.4248	67.761305	0.000507	5.067408	0.858442	0.000101
 425	4.2188e+01	8.4448	67.922790	0.000811	8.107852	1.373507	0.000162
 426	4.2288e+01	8.4647	67.987384	0.000324	3.243141	0.549403	0.000065
 427	4.2387e+01	8.4860	68.068127	0.000405	4.053926	0.686754	0.000081
 428	4.2486e+01	8.5052	68.249798	0.000912	9.121334	1.545196	0.000183
 429	4.2586e+01	8.5247	68.350727	0.000507	5.067408	0.858442	0.000101
 430	4.2685e+01	8.5452	68.431469	0.000405	4.053926	0.686754	0.000081
 431	4.2785e+01	8.5645	68.532398	0.000507	5.067408	0.858442	0.000101
 432	4.2885e+01	8.5841	68.629289	0.000486	4.864711	0.824104	0.000097
 433	4.2984e+01	8.6040	68.790774	0.000811	8.107852	1.373507	0.000162
 434	4.3084e+01	8.6237	68.814997	0.000122	1.216178	0.206026	0.000024
 435	4.3183e+01	8.6442	68.940148	0.000628	6.283585	1.064468	0.000126
 436	4.3282e+01	8.6633	69.049151	0.000547	5.472800	0.927117	0.000110
 437	4.3382e+01	8.6846	69.194488	0.000730	7.297067	1.236157	0.000146
 438	4.3481e+01	8.7031	69.275231	0.000405	4.053926	0.686754	0.000081
 439	4.3581e+01	8.7244	69.380196	0.000527	5.270104	0.892780	0.000105
 440	4.3681e+01	8.7440	69.493236	0.000568	5.675496	0.961455	0.000114
 441	4.3780e+01	8.7643	69.626462	0.000669	6.688978	1.133144	0.000134
 442	4.3880e+01	8.7836	69.703167	0.000385	3.851230	0.652416	0.000077
 443	4.3979e+01	8.8030	69.848504	0.000730	7.297067	1.236157	0.000146
 444	4.4078e+01	8.8233	69.933284	0.000426	4.256622	0.721091	0.000085
 445	4.4178e+01	8.8428	70.054398	0.000608	6.080889	1.030130	0.000122
 446	4.4278e+01	8.8626	70.123029	0.000345	3.445837	0.583741	0.000069
 447	4.4377e+01	8.8824	70.252218	0.000649	6.486282	1.098806	0.000130
 448	4.4477e+01	8.9028	70.373332	0.000608	6.080889	1.030130	0.000122
 449	4.4576e+01	8.9224	70.454074	0.000405	4.053926	0.686754	0.000081
 450	4.4675e+01	8.9421	70.595374	0.000709	7.094371	1.201819	0.000142
 451	4.4775e+01	8.9625	70.659968	0.000324	3.243141	0.549403	0.000065
 452	4.4874e+01	8.9820	70.785119	0.000628	6.283585	1.064468	0.000126
 453	4.4974e+01	9.0018	70.918345	0.000669	6.688978	1.133144	0.000134
 454	4.5074e+01	9.0218	70.978902	0.000304	3.040445	0.515065	0.000061
 455	4.5173e+01	9.0420	71.095979	0.000588	5.878193	0.995793	0.000118
 456	4.5273e+01	9.0616	71.213056	0.000588	5.878193	0.995793	0.000118
 457	4.5372e+01	9.0820	71.305910	0.000466	4.662015	0.789767	0.000093
 458	4.5471e+01	9.1010	71.402801	0.000486	4.864711	0.824104	0.000097
 459	4.5571e+01	9.1217	71.552175	0.000750	7.499763	1.270494	0.000150
 460	4.5670e+01	9.1422	71.628881	0.000385	3.851230	0.652416	0.000077
 461	4.5770e+01	9.1616	71.709624	0.000405	4.053926	0.686754	0.000081
 462	4.5870e+01	9.1807	71.798441	0.000446	4.459319	0.755429	0.000089
 463	4.5969e+01	9.1995	71.923592	0.000628	6.283585	1.064468	0.000126
 464	4.6069e+01	9.2206	72.000297	0.000385	3.851230	0.652416	0.000077
 465	4.6168e+01	9.2413	72.117374	0.000588	5.878193	0.995793	0.000118
 466	4.6267e+01	9.2603	72.238488	0.000608	6.080889	1.030130	0.000122
 467	4.6367e+01	9.2798	72.278860	0.000203	2.026963	0.343377	0.000041
 468	4.6467e+01	9.3000	72.404011	0.000628	6.283585	1.064468	0.000126
 469	4.6566e+01	9.3189	72.492828	0.000446	4.459319	0.755429	0.000089
 470	4.6666e+01	9.3401	72.626053	0.000669	6.688978	1.133144	0.000134
 471	4.6765e+01	9.3604	72.755242	0.000649	6.486282	1.098806	0.000130
 472	4.6864e+01	9.3801	72.823873	0.000345	3.445837	0.583741	0.000069
 473	4.6964e+01	9.4019	72.940950	0.000588	5.878193	0.995793	0.000118
 474	4.7063e+01	9.4207	73.025730	0.000426	4.256622	0.721091	0.000085
 475	4.7163e+01	9.4405	73.122621	0.000486	4.864711	0.824104	0.000097
 476	4.7263e+01	9.4599	73.223549	0.000507	5.067408	0.858442	0.000101
 477	4.7362e+01	9.4803	73.316404	0.000466	4.662015	0.789767	0.000093
 478	4.7462e+01	9.4996	73.429443	0.000568	5.675496	0.961455	0.000114
 479	4.7561e+01	9.5197	73.518260	0.000446	4.459319	0.755429	0.000089
 480	4.7660e+01	9.5405	73.635337	0.000588	5.878193	0.995793	0.000118
 481	4.7760e+01	9.5593	73.716080	0.000405	4.053926	0.686754	0.000081
 482	4.7859e+01	9.5795	73.808934	0.000466	4.662015	0.789767	0.000093
 483	4.7959e+01	9.6001	73.885640	0.000385	3.851230	0.652416	0.000077
 484	4.8059e+01	9.6194	74.018865	0.000669	6.688978	1.133144	0.000134
 485	4.8158e+01	9.6397	74.127868	0.000547	5.472800	0.927117	0.000110
 486	4.8258e+01	9.6598	74.208611	0.000405	4.053926	0.686754	0.000081
 487	4.8357e+01	9.6790	74.329725	0.000608	6.080889	1.030130	0.000122
 488	4.8456e+01	9.6985	74.382207	0.000264	2.635052	0.446390	0.000053
 489	4.8556e+01	9.7192	74.511396	0.000649	6.486282	1.098806	0.000130
 490	4.8656e+01	9.7388	74.604250	0.000466	4.662015	0.789767	0.000093
 491	4.8755e+01	9.7590	74.713253	0.000547	5.472800	0.927117	0.000110
 492	4.8855e+01	9.7778	74.793995	0.000405	4.053926	0.686754	0.000081
 493	4.8954e+01	9.7992	74.919146	0.000628	6.283585	1.064468	0.000126
 494	4.9053e+01	9.8193	75.012001	0.000466	4.662015	0.789767	0.000093
 495	4.9153e+01	9.8376	75.088706	0.000385	3.851230	0.652416	0.000077
 496	4.9252e+01	9.8584	75.181560	0.000466	4.662015	0.789767	0.000093
 497	4.9352e+01	9.8788	75.266340	0.000426	4.256622	0.721091	0.000085
 498	4.9452e+01	9.8976	75.399566	0.000669	6.688978	1.133144	0.000134
 499	4.9551e+01	9.9189	75.480308	0.000405	4.053926	0.686754	0.000081
 500	4.9651e+01	9.9376	75.569125	0.000446	4.459319	0.755429	0.000089
 501	4.9750e+01	9.9580	75.678128	0.000547	5.472800	0.927117	0.000110
 502	4.9849e+01	9.9777	75.750796	0.000365	3.648533	0.618078	0.000073
 503	4.9949e+01	9.9973	75.863836	0.000568	5.675496	0.961455	0.000114
 504	5.0048e+01	9.9769	75.803279	0.000304	3.040445	0.515065	-0.000061
 505	5.0148e+01	9.9577	75.742722	0.000304	3.040445	0.515065	-0.000061
 506	5.0248e+01	9.9374	75.686202	0.000284	2.837748	0.480728	-0.000057
 507	5.0347e+01	9.9178	75.613534	0.000365	3.648533	0.618078	-0.000073
 508	5.0447e+01	9.8988	75.524717	0.000446	4.459319	0.755429	-0.000089
 509	5.0546e+01	9.8783	75.448011	0.000385	3.851230	0.652416	-0.000077
 510	5.0645e+01	9.8584	75.391491	0.000284	2.837748	0.480728	-0.000057
 511	5.0745e+01	9.8390	75.334971	0.000284	2.837748	0.480728	-0.000057
 512	5.0844e+01	9.8184	75.225969	0.000547	5.472800	0.927117	-0.000110
 513	5.0944e+01	9.7990	75.165412	0.000304	3.040445	0.515065	-0.000061
 514	5.1044e+01	9.7787	75.072558	0.000466	4.662015	0.789767	-0.000093
 515	5.1143e+01	9.7589	75.003926	0.000345	3.445837	0.583741	-0.000069
 516	5.1242e+01	9.7382	74.943369	0.000304	3.040445	0.515065	-0.000061
 517	5.1342e+01	9.7192	74.882812	0.000304	3.040445	0.515065	-0.000061
 518	5.1441e+01	9.6985	74.777847	0.000527	5.270104	0.892780	-0.000105
 519	5.1541e+01	9.6790	74.701141	0.000385	3.851230	0.652416	-0.000077
 520	5.1641e+01	9.6588	74.640584	0.000304	3.040445	0.515065	-0.000061
 521	5.1740e+01	9.6387	74.551767	0.000446	4.459319	0.755429	-0.000089
 522	5.1840e+01	9.6191	74.466987	0.000426	4.256622	0.721091	-0.000085
 523	5.1939e+01	9.5990	74.370096	0.000486	4.864711	0.824104	-0.000097
 524	5.2038e+01	9.5801	74.289353	0.000405	4.053926	0.686754	-0.000081
 525	5.2138e+01	9.5599	74.192462	0.000486	4.864711	0.824104	-0.000097
 526	5.2237e+01	9.5399	74.156128	0.000182	1.824267	0.309039	-0.000037
 527	5.2337e+01	9.5203	74.055199	0.000507	5.067408	0.858442	-0.000101
 528	5.2437e+01	9.4997	73.962345	0.000466	4.662015	0.789767	-0.000093
 529	5.2536e+01	9.4798	73.897751	0.000324	3.243141	0.549403	-0.000065
 530	5.2636e+01	9.4601	73.817008	0.000405	4.053926	0.686754	-0.000081
 531	5.2735e+01	9.4404	73.712043	0.000527	5.270104	0.892780	-0.000105
 532	5.2834e+01	9.4199	73.651486	0.000304	3.040445	0.515065	-0.000061
 533	5.2934e+01	9.4008	73.586892	0.000324	3.243141	0.549403	-0.000065
 534	5.3033e+01	9.3803	73.485963	0.000507	5.067408	0.858442	-0.000101
 535	5.3133e+01	9.3604	73.364849	0.000608	6.080889	1.030130	-0.000122
 536	5.3233e+01	9.3408	73.280069	0.000426	4.256622	0.721091	-0.000085
 537	5.3332e+01	9.3215	73.231624	0.000243	2.432356	0.412052	-0.000049
 538	5.3431e+01	9.3000	73.134732	0.000486	4.864711	0.824104	-0.000097
 539	5.3531e+01	9.2812	73.045915	0.000446	4.459319	0.755429	-0.000089
 540	5.3630e+01	9.2613	72.969210	0.000385	3.851230	0.652416	-0.000077
 541	5.3730e+01	9.2414	72.876356	0.000466	4.662015	0.789767	-0.000093
 542	5.3830e+01	9.2203	72.835984	0.000203	2.026963	0.343377	-0.000041
 543	5.3929e+01	9.2011	72.755242	0.000405	4.053926	0.686754	-0.000081
 544	5.4029e+01	9.1799	72.630090	0.000628	6.283585	1.064468	-0.000126
 545	5.4128e+01	9.1614	72.573571	0.000284	2.837748	0.480728	-0.000057
 546	5.4227e+01	9.1407	72.480716	0.000466	4.662015	0.789767	-0.000093
 547	5.4327e+01	9.1225	72.391899	0.000446	4.459319	0.755429	-0.000089
 548	5.4426e+01	9.1010	72.343454	0.000243	2.432356	0.412052	-0.000049
 549	5.4526e+01	9.0817	72.238488	0.000527	5.270104	0.892780	-0.000105
 550	5.4626e+01	9.0613	72.177931	0.000304	3.040445	0.515065	-0.000061
 551	5.4725e+01	9.0430	72.036632	0.000709	7.094371	1.201819	-0.000142
 552	5.4825e+01	9.0221	71.996260	0.000203	2.026963	0.343377	-0.000041
 553	5.4924e+01	9.0027	71.867072	0.000649	6.486282	1.098806	-0.000130
 554	5.5023e+01	8.9821	71.822663	0.000223	2.229659	0.377715	-0.000045
 555	5.5123e+01	8.9620	71.701549	0.000608	6.080889	1.030130	-0.000122
 556	5.5222e+01	8.9420	71.661178	0.000203	2.026963	0.343377	-0.000041
 557	5.5322e+01	8.9223	71.556212	0.000527	5.270104	0.892780	-0.000105
 558	5.5422e+01	8.9027	71.483544	0.000365	3.648533	0.618078	-0.000073
 559	5.5521e+01	8.8821	71.374541	0.000547	5.472800	0.927117	-0.000110
 560	5.5620e+01	8.8633	71.342244	0.000162	1.621570	0.274701	-0.000032
 561	5.5720e+01	8.8428	71.225167	0.000588	5.878193	0.995793	-0.000118
 562	5.5819e+01	8.8221	71.128276	0.000486	4.864711	0.824104	-0.000097
 563	5.5919e+01	8.8029	71.079830	0.000243	2.432356	0.412052	-0.000049
 564	5.6019e+01	8.7842	70.978902	0.000507	5.067408	0.858442	-0.000101
 565	5.6118e+01	8.7647	70.906234	0.000365	3.648533	0.618078	-0.000073
 566	5.6218e+01	8.7430	70.813379	0.000466	4.662015	0.789767	-0.000093
 567	5.6317e+01	8.7234	70.712451	0.000507	5.067408	0.858442	-0.000101
 568	5.6416e+01	8.7037	70.639783	0.000365	3.648533	0.618078	-0.000073
 569	5.6516e+01	8.6842	70.575188	0.000324	3.243141	0.549403	-0.000065
 570	5.6615e+01	8.6639	70.494446	0.000405	4.053926	0.686754	-0.000081
 571	5.6715e+01	8.6443	70.413703	0.000405	4.053926	0.686754	-0.000081
 572	5.6815e+01	8.6237	70.324886	0.000446	4.459319	0.755429	-0.000089
 573	5.6914e+01	8.6056	70.219920	0.000527	5.270104	0.892780	-0.000105
 574	5.7014e+01	8.5848	70.143215	0.000385	3.851230	0.652416	-0.000077
 575	5.7113e+01	8.5654	70.050361	0.000466	4.662015	0.789767	-0.000093
 576	5.7212e+01	8.5452	69.973655	0.000385	3.851230	0.652416	-0.000077
 577	5.7312e+01	8.5255	69.868690	0.000527	5.270104	0.892780	-0.000105
 578	5.7411e+01	8.5051	69.775836	0.000466	4.662015	0.789767	-0.000093
 579	5.7511e+01	8.4844	69.687019	0.000446	4.459319	0.755429	-0.000089
 580	5.7611e+01	8.4644	69.622424	0.000324	3.243141	0.549403	-0.000065
 581	5.7710e+01	8.4451	69.549756	0.000365	3.648533	0.618078	-0.000073
 582	5.7809e+01	8.4245	69.440753	0.000547	5.472800	0.927117	-0.000110
 583	5.7909e+01	8.4058	69.360011	0.000405	4.053926	0.686754	-0.000081
 584	5.8008e+01	8.3859	69.295416	0.000324	3.243141	0.549403	-0.000065
 585	5.8108e+01	8.3660	69.246971	0.000243	2.432356	0.412052	-0.000049
 586	5.8208e+01	8.3453	69.121820	0.000628	6.283585	1.064468	-0.000126
 587	5.8307e+01	8.3253	69.004743	0.000588	5.878193	0.995793	-0.000118
 588	5.8407e+01	8.3063	68.919963	0.000426	4.256622	0.721091	-0.000085
 589	5.8506e+01	8.2857	68.851331	0.000345	3.445837	0.583741	-0.000069
 590	5.8605e+01	8.2666	68.762514	0.000446	4.459319	0.755429	-0.000089
 591	5.8705e+01	8.2456	68.681772	0.000405	4.053926	0.686754	-0.000081
 592	5.8804e+01	8.2243	68.596992	0.000426	4.256622	0.721091	-0.000085
 593	5.8904e+01	8.2067	68.483952	0.000568	5.675496	0.961455	-0.000114
 594	5.9004e+01	8.1855	68.399172	0.000426	4.256622	0.721091	-0.000085
 595	5.9103e+01	8.1665	68.322467	0.000385	3.851230	0.652416	-0.000077
 596	5.9203e+01	8.1458	68.193278	0.000649	6.486282	1.098806	-0.000130
 597	5.9302e+01	8.1260	68.173093	0.000101	1.013482	0.171688	-0.000020
 598	5.9401e+01	8.1068	68.056016	0.000588	5.878193	0.995793	-0.000118
 599	5.9501e+01	8.0862	67.967199	0.000446	4.459319	0.755429	-0.000089
 600	5.9600e+01	8.0658	67.910679	0.000284	2.837748	0.480728	-0.000057
 601	5.9700e+01	8.0478	67.813788	0.000486	4.864711	0.824104	-0.000097
 602	5.9800e+01	8.0265	67.716896	0.000486	4.864711	0.824104	-0.000097
 603	5.9899e+01	8.0079	67.611931	0.000527	5.270104	0.892780	-0.000105
 604	5.9998e+01	7.9868	67.519077	0.000466	4.662015	0.789767	-0.000093
 605	6.0098e+01	7.9665	67.482742	0.000182	1.824267	0.309039	-0.000037
 606	6.0197e+01	7.9472	67.353554	0.000649	6.486282	1.098806	-0.000130
 607	6.0297e+01	7.9275	67.272811	0.000405	4.053926	0.686754	-0.000081
 608	6.0397e+01	7.9078	67.155734	0.000588	5.878193	0.995793	-0.000118
 609	6.0496e+01	7.8870	67.115363	0.000203	2.026963	0.343377	-0.000041
 610	6.0596e+01	7.8677	67.026546	0.000446	4.459319	0.755429	-0.000089
 611	6.0695e+01	7.8462	66.893321	0.000669	6.688978	1.133144	-0.000134
 612	6.0794e+01	7.8271	66.832764	0.000304	3.040445	0.515065	-0.000061
 613	6.0894e+01	7.8082	66.772207	0.000304	3.040445	0.515065	-0.000061
 614	6.0993e+01	7.7872	66.683390	0.000446	4.459319	0.755429	-0.000089
 615	6.1093e+01	7.7676	66.582461	0.000507	5.067408	0.858442	-0.000101
 616	6.1193e+01	7.7473	66.485570	0.000486	4.864711	0.824104	-0.000097
 617	6.1292e+01	7.7277	66.400790	0.000426	4.256622	0.721091	-0.000085
 618	6.1392e+01	7.7089	66.356382	0.000223	2.229659	0.377715	-0.000045
 619	6.1491e+01	7.6881	66.223156	0.000669	6.688978	1.133144	-0.000134
 620	6.1590e+01	7.6685	66.146450	0.000385	3.851230	0.652416	-0.000077
 621	6.1690e+01	7.6482	66.041485	0.000527	5.270104	0.892780	-0.000105
 622	6.1789e+01	7.6283	65.900185	0.000709	7.094371	1.201819	-0.000142
 623	6.1889e+01	7.6079	65.859814	0.000203	2.026963	0.343377	-0.000041
 624	6.1989e+01	7.5879	65.787145	0.000365	3.648533	0.618078	-0.000073
 625	6.2088e+01	7.5680	65.718514	0.000345	3.445837	0.583741	-0.000069
 626	6.2188e+01	7.5483	65.557029	0.000811	8.107852	1.373507	-0.000162
 627	6.2287e+01	7.5286	65.500509	0.000284	2.837748	0.480728	-0.000057
 628	6.2386e+01	7.5085	65.407655	0.000466	4.662015	0.789767	-0.000093
 629	6.2486e+01	7.4902	65.318838	0.000446	4.459319	0.755429	-0.000089
 630	6.2586e+01	7.4679	65.209835	0.000547	5.472800	0.927117	-0.000110
 631	6.2685e+01	7.4491	65.141204	0.000345	3.445837	0.583741	-0.000069
 632	6.2785e+01	7.4300	65.020090	0.000608	6.080889	1.030130	-0.000122
 633	6.2884e+01	7.4102	64.919161	0.000507	5.067408	0.858442	-0.000101
 634	6.2983e+01	7.3901	64.858604	0.000304	3.040445	0.515065	-0.000061
 635	6.3083e+01	7.3684	64.753639	0.000527	5.270104	0.892780	-0.000105
 636	6.3182e+01	7.3497	64.644636	0.000547	5.472800	0.927117	-0.000110
 637	6.3282e+01	7.3299	64.551782	0.000466	4.662015	0.789767	-0.000093
 638	6.3382e+01	7.3098	64.483151	0.000345	3.445837	0.583741	-0.000069
 639	6.3481e+01	7.2904	64.370111	0.000568	5.675496	0.961455	-0.000114
 640	6.3581e+01	7.2692	64.240922	0.000649	6.486282	1.098806	-0.000130
 641	6.3680e+01	7.2515	64.156143	0.000426	4.256622	0.721091	-0.000085
 642	6.3779e+01	7.2301	64.079437	0.000385	3.851230	0.652416	-0.000077
 643	6.3879e+01	7.2099	63.986583	0.000466	4.662015	0.789767	-0.000093
 644	6.3978e+01	7.1905	63.913914	0.000365	3.648533	0.618078	-0.000073
 645	6.4078e+01	7.1700	63.792800	0.000608	6.080889	1.030130	-0.000122
 646	6.4177e+01	7.1504	63.695909	0.000486	4.864711	0.824104	-0.000097
 647	6.4277e+01	7.1310	63.574795	0.000608	6.080889	1.030130	-0.000122
 648	6.4376e+01	7.1102	63.485978	0.000446	4.459319	0.755429	-0.000089
 649	6.4476e+01	7.0904	63.364864	0.000608	6.080889	1.030130	-0.000122
 650	6.4576e+01	7.0699	63.308344	0.000284	2.837748	0.480728	-0.000057
 651	6.4675e+01	7.0499	63.219527	0.000446	4.459319	0.755429	-0.000089
 652	6.4775e+01	7.0313	63.086302	0.000669	6.688978	1.133144	-0.000134
 653	6.4874e+01	7.0112	63.041893	0.000223	2.229659	0.377715	-0.000045
 654	6.4974e+01	6.9910	62.904631	0.000689	6.891674	1.167481	-0.000138
 655	6.5073e+01	6.9711	62.795628	0.000547	5.472800	0.927117	-0.000110
 656	6.5172e+01	6.9503	62.722959	0.000365	3.648533	0.618078	-0.000073
 657	6.5272e+01	6.9320	62.605882	0.000588	5.878193	0.995793	-0.000118
 658	6.5371e+01	6.9118	62.500917	0.000527	5.270104	0.892780	-0.000105
 659	6.5471e+01	6.8911	62.452471	0.000243	2.432356	0.412052	-0.000049
 660	6.5570e+01	6.8711	62.278874	0.000872	8.715941	1.476520	-0.000174
 661	6.5670e+01	6.8519	62.194095	0.000426	4.256622	0.721091	-0.000085
 662	6.5769e+01	6.8322	62.109315	0.000426	4.256622	0.721091	-0.000085
 663	6.5869e+01	6.8124	62.032609	0.000385	3.851230	0.652416	-0.000077
 664	6.5969e+01	6.7922	61.923607	0.000547	5.472800	0.927117	-0.000110
 665	6.6068e+01	6.7723	61.770195	0.000770	7.702460	1.304832	-0.000154
 666	6.6168e+01	6.7519	61.701564	0.000345	3.445837	0.583741	-0.000069
 667	6.6267e+01	6.7318	61.608710	0.000466	4.662015	0.789767	-0.000093
 668	6.6367e+01	6.7122	61.495670	0.000568	5.675496	0.961455	-0.000114
 669	6.6466e+01	6.6923	61.382630	0.000568	5.675496	0.961455	-0.000114
 670	6.6566e+01	6.6723	61.301888	0.000405	4.053926	0.686754	-0.000081
 671	6.6665e+01	6.6515	61.209033	0.000466	4.662015	0.789767	-0.000093
 672	6.6764e+01	6.6317	61.075808	0.000669	6.688978	1.133144	-0.000134
 673	6.6864e+01	6.6117	60.982954	0.000466	4.662015	0.789767	-0.000093
 674	6.6963e+01	6.5930	60.869914	0.000568	5.675496	0.961455	-0.000114
 675	6.7063e+01	6.5723	60.825506	0.000223	2.229659	0.377715	-0.000045
 676	6.7162e+01	6.5537	60.688243	0.000689	6.891674	1.167481	-0.000138
 677	6.7262e+01	6.5333	60.583277	0.000527	5.270104	0.892780	-0.000105
 678	6.7362e+01	6.5124	60.470238	0.000568	5.675496	0.961455	-0.000114
 679	6.7461e+01	6.4930	60.381421	0.000446	4.459319	0.755429	-0.000089
 680	6.7561e+01	6.4736	60.276455	0.000527	5.270104	0.892780	-0.000105
 681	6.7660e+01	6.4531	60.167452	0.000547	5.472800	0.927117	-0.000110
 682	6.7760e+01	6.4324	60.106895	0.000304	3.040445	0.515065	-0.000061
 683	6.7859e+01	6.4133	59.965596	0.000709	7.094371	1.201819	-0.000142
 684	6.7959e+01	6.3935	59.820259	0.000730	7.297067	1.236157	-0.000146
 685	6.8058e+01	6.3732	59.755665	0.000324	3.243141	0.549403	-0.000065
 686	6.8157e+01	6.3528	59.638588	0.000588	5.878193	0.995793	-0.000118
 687	6.8257e+01	6.3331	59.537659	0.000507	5.067408	0.858442	-0.000101
 688	6.8356e+01	6.3132	59.420582	0.000588	5.878193	0.995793	-0.000118
 689	6.8456e+01	6.2939	59.339840	0.000405	4.053926	0.686754	-0.000081
 690	6.8555e+01	6.2739	59.214688	0.000628	6.283585	1.064468	-0.000126
 691	6.8655e+01	6.2540	59.097612	0.000588	5.878193	0.995793	-0.000118
 692	6.8754e+01	6.2344	58.984572	0.000568	5.675496	0.961455	-0.000114
 693	6.8854e+01	6.2146	58.915940	0.000345	3.445837	0.583741	-0.000069
 694	6.8954e+01	6.1953	58.790789	0.000628	6.283585	1.064468	-0.000126
 695	6.9053e+01	6.1752	58.673712	0.000588	5.878193	0.995793	-0.000118
 696	6.9153e+01	6.1550	58.580858	0.000466	4.662015	0.789767	-0.000093
 697	6.9252e+01	6.1345	58.475893	0.000527	5.270104	0.892780	-0.000105
 698	6.9352e+01	6.1153	58.334593	0.000709	7.094371	1.201819	-0.000142
 699	6.9451e+01	6.0954	58.237702	0.000486	4.864711	0.824104	-0.000097
 700	6.9550e+01	6.0743	58.140810	0.000486	4.864711	0.824104	-0.000097
 701	6.9650e+01	6.0564	58.011622	0.000649	6.486282	1.098806	-0.000130
 702	6.9749e+01	6.0350	57.914731	0.000486	4.864711	0.824104	-0.000097
 703	6.9849e+01	6.0149	57.817839	0.000486	4.864711	0.824104	-0.000097
 704	6.9948e+01	5.9947	57.700763	0.000588	5.878193	0.995793	-0.000118
 705	7.0048e+01	5.9753	57.611946	0.000446	4.459319	0.755429	-0.000089
 706	7.0147e+01	5.9534	57.490831	0.000608	6.080889	1.030130	-0.000122
 707	7.0247e+01	5.9350	57.365680	0.000628	6.283585	1.064468	-0.000126
 708	7.0347e+01	5.9158	57.252640	0.000568	5.675496	0.961455	-0.000114
 709	7.0446e+01	5.8953	57.188046	0.000324	3.243141	0.549403	-0.000065
 710	7.0546e+01	5.8765	57.042709	0.000730	7.297067	1.236157	-0.000146
 711	7.0645e+01	5.8562	56.966004	0.000385	3.851230	0.652416	-0.000077
 712	7.0745e+01	5.8364	56.840853	0.000628	6.283585	1.064468	-0.000126
 713	7.0844e+01	5.8166	56.715701	0.000628	6.283585	1.064468	-0.000126
 714	7.0944e+01	5.7954	56.578439	0.000689	6.891674	1.167481	-0.000138
 715	7.1043e+01	5.7758	56.529993	0.000243	2.432356	0.412052	-0.000049
 716	7.1142e+01	5.7561	56.416953	0.000568	5.675496	0.961455	-0.000114
 717	7.1242e+01	5.7373	56.324099	0.000466	4.662015	0.789767	-0.000093
 718	7.1341e+01	5.7150	56.186837	0.000689	6.891674	1.167481	-0.000138
 719	7.1441e+01	5.6972	56.102057	0.000426	4.256622	0.721091	-0.000085
 720	7.1540e+01	5.6772	55.976906	0.000628	6.283585	1.064468	-0.000126
 721	7.1640e+01	5.6561	55.880014	0.000486	4.864711	0.824104	-0.000097
 722	7.1740e+01	5.6371	55.783123	0.000486	4.864711	0.824104	-0.000097
 723	7.1839e+01	5.6177	55.641823	0.000709	7.094371	1.201819	-0.000142
 724	7.1939e+01	5.5963	55.512635	0.000649	6.486282	1.098806	-0.000130
 725	7.2038e+01	5.5775	55.456115	0.000284	2.837748	0.480728	-0.000057
 726	7.2138e+01	5.5566	55.310778	0.000730	7.297067	1.236157	-0.000146
 727	7.2237e+01	5.5373	55.213887	0.000486	4.864711	0.824104	-0.000097
 728	7.2337e+01	5.5169	55.153330	0.000304	3.040445	0.515065	-0.000061
 729	7.2436e+01	5.4967	54.995882	0.000791	7.905156	1.339170	-0.000158
 730	7.2535e+01	5.4774	54.898990	0.000486	4.864711	0.824104	-0.000097
 731	7.2635e+01	5.4569	54.794025	0.000527	5.270104	0.892780	-0.000105
 732	7.2734e+01	5.4383	54.697134	0.000486	4.864711	0.824104	-0.000097
 733	7.2834e+01	5.4174	54.576019	0.000608	6.080889	1.030130	-0.000122
 734	7.2933e+01	5.3974	54.450868	0.000628	6.283585	1.064468	-0.000126
 735	7.3033e+01	5.3783	54.370126	0.000405	4.053926	0.686754	-0.000081
 736	7.3132e+01	5.3576	54.257086	0.000568	5.675496	0.961455	-0.000114
 737	7.3232e+01	5.3374	54.156157	0.000507	5.067408	0.858442	-0.000101
 738	7.3332e+01	5.3185	54.035043	0.000608	6.080889	1.030130	-0.000122
 739	7.3431e+01	5.2984	53.913929	0.000608	6.080889	1.030130	-0.000122
 740	7.3531e+01	5.2776	53.861446	0.000264	2.635052	0.446390	-0.000053
 741	7.3630e+01	5.2588	53.675738	0.000932	9.324030	1.579533	-0.000187
 742	7.3730e+01	5.2393	53.651515	0.000122	1.216178	0.206026	-0.000024
 743	7.3829e+01	5.2183	53.494067	0.000791	7.905156	1.339170	-0.000158
 744	7.3928e+01	5.1981	53.372953	0.000608	6.080889	1.030130	-0.000122
 745	7.4028e+01	5.1789	53.280099	0.000466	4.662015	0.789767	-0.000093
 746	7.4127e+01	5.1585	53.187245	0.000466	4.662015	0.789767	-0.000093
 747	7.4227e+01	5.1391	53.078242	0.000547	5.472800	0.927117	-0.000110
 748	7.4326e+01	5.1183	52.928868	0.000750	7.499763	1.270494	-0.000150
 749	7.4426e+01	5.1003	52.819865	0.000547	5.472800	0.927117	-0.000110
 750	7.4525e+01	5.0783	52.706826	0.000568	5.675496	0.961455	-0.000114
 751	7.4625e+01	5.0591	52.634157	0.000365	3.648533	0.618078	-0.000073
 752	7.4725e+01	5.0402	52.496895	0.000689	6.891674	1.167481	-0.000138
 753	7.4824e+01	5.0204	52.416152	0.000405	4.053926	0.686754	-0.000081
 754	7.4924e+01	4.9996	52.282926	0.000669	6.688978	1.133144	-0.000134
 755	7.5023e+01	4.9792	52.137589	0.000730	7.297067	1.236157	-0.000146
 756	7.5123e+01	4.9596	52.032624	0.000527	5.270104	0.892780	-0.000105
 757	7.5222e+01	4.9397	51.943807	0.000446	4.459319	0.755429	-0.000089
 758	7.5322e+01	4.9200	51.786359	0.000791	7.905156	1.339170	-0.000158
 759	7.5421e+01	4.9004	51.741950	0.000223	2.229659	0.377715	-0.000045
 760	7.5520e+01	4.8797	51.588539	0.000770	7.702460	1.304832	-0.000154
 761	7.5620e+01	4.8606	51.483573	0.000527	5.270104	0.892780	-0.000105
 762	7.5719e+01	4.8400	51.370534	0.000568	5.675496	0.961455	-0.000114
 763	7.5819e+01	4.8199	51.277680	0.000466	4.662015	0.789767	-0.000093
 764	7.5918e+01	4.7990	51.132343	0.000730	7.297067	1.236157	-0.000146
 765	7.6018e+01	4.7805	51.059674	0.000365	3.648533	0.618078	-0.000073
 766	7.6118e+01	4.7609	50.946634	0.000568	5.675496	0.961455	-0.000114
 767	7.6217e+01	4.7412	50.809372	0.000689	6.891674	1.167481	-0.000138
 768	7.6317e+01	4.7210	50.712481	0.000486	4.864711	0.824104	-0.000097
 769	7.6416e+01	4.7010	50.607515	0.000527	5.270104	0.892780	-0.000105
 770	7.6516e+01	4.6810	50.478327	0.000649	6.486282	1.098806	-0.000130
 771	7.6615e+01	4.6606	50.341064	0.000689	6.891674	1.167481	-0.000138
 772	7.6715e+01	4.6406	50.252247	0.000446	4.459319	0.755429	-0.000089
 773	7.6814e+01	4.6216	50.143244	0.000547	5.472800	0.927117	-0.000110
 774	7.6913e+01	4.6011	50.038279	0.000527	5.270104	0.892780	-0.000105
 775	7.7013e+01	4.5805	49.921202	0.000588	5.878193	0.995793	-0.000118
 776	7.7112e+01	4.5617	49.800088	0.000608	6.080889	1.030130	-0.000122
 777	7.7212e+01	4.5410	49.695122	0.000527	5.270104	0.892780	-0.000105
 778	7.7311e+01	4.5216	49.638602	0.000284	2.837748	0.480728	-0.000057
 779	7.7411e+01	4.5013	49.428671	0.001054	10.540208	1.785560	-0.000211
 780	7.7510e+01	4.4805	49.356003	0.000365	3.648533	0.618078	-0.000073
 781	7.7610e+01	4.4619	49.263149	0.000466	4.662015	0.789767	-0.000093
 782	7.7710e+01	4.4421	49.113775	0.000750	7.499763	1.270494	-0.000150
 783	7.7809e+01	4.4216	48.992661	0.000608	6.080889	1.030130	-0.000122
 784	7.7909e+01	4.4018	48.924029	0.000345	3.445837	0.583741	-0.000069
 785	7.8008e+01	4.3822	48.786767	0.000689	6.891674	1.167481	-0.000138
 786	7.8108e+01	4.3609	48.714098	0.000365	3.648533	0.618078	-0.000073
 787	7.8207e+01	4.3427	48.584910	0.000649	6.486282	1.098806	-0.000130
 788	7.8306e+01	4.3214	48.431499	0.000770	7.702460	1.304832	-0.000154
 789	7.8406e+01	4.3019	48.374979	0.000284	2.837748	0.480728	-0.000057
 790	7.8505e+01	4.2821	48.213494	0.000811	8.107852	1.373507	-0.000162
 791	7.8605e+01	4.2632	48.128714	0.000426	4.256622	0.721091	-0.000085
 792	7.8704e+01	4.2426	47.983377	0.000730	7.297067	1.236157	-0.000146
 793	7.8804e+01	4.2229	47.870337	0.000568	5.675496	0.961455	-0.000114
 794	7.8903e+01	4.2015	47.749223	0.000608	6.080889	1.030130	-0.000122
 795	7.9003e+01	4.1825	47.660406	0.000446	4.459319	0.755429	-0.000089
 796	7.9103e+01	4.1628	47.515069	0.000730	7.297067	1.236157	-0.000146
 797	7.9202e+01	4.1423	47.373769	0.000709	7.094371	1.201819	-0.000142
 798	7.9302e+01	4.1232	47.268804	0.000527	5.270104	0.892780	-0.000105
 799	7.9401e+01	4.1035	47.163838	0.000527	5.270104	0.892780	-0.000105
 800	7.9501e+01	4.0832	47.046761	0.000588	5.878193	0.995793	-0.000118
 801	7.9600e+01	4.0633	46.905462	0.000709	7.094371	1.201819	-0.000142
 802	7.9700e+01	4.0439	46.804533	0.000507	5.067408	0.858442	-0.000101
 803	7.9799e+01	4.0228	46.715716	0.000446	4.459319	0.755429	-0.000089
 804	7.9898e+01	4.0032	46.546156	0.000851	8.513245	1.442183	-0.000170
 805	7.9998e+01	3.9826	46.433117	0.000568	5.675496	0.961455	-0.000114
 806	8.0097e+01	3.9648	46.295854	0.000689	6.891674	1.167481	-0.000138
 807	8.0197e+01	3.9433	46.174740	0.000608	6.080889	1.030130	-0.000122
 808	8.0296e+01	3.9230	46.077849	0.000486	4.864711	0.824104	-0.000097
 809	8.0396e+01	3.9037	45.940586	0.000689	6.891674	1.167481	-0.000138
 810	8.0496e+01	3.8833	45.831583	0.000547	5.472800	0.927117	-0.000110
 811	8.0595e+01	3.8634	45.678172	0.000770	7.702460	1.304832	-0.000154
 812	8.0695e+01	3.8438	45.561095	0.000588	5.878193	0.995793	-0.000118
 813	8.0794e+01	3.8244	45.492464	0.000345	3.445837	0.583741	-0.000069
 814	8.0894e+01	3.8028	45.306756	0.000932	9.324030	1.579533	-0.000187
 815	8.0993e+01	3.7839	45.230050	0.000385	3.851230	0.652416	-0.000077
 816	8.1093e+01	3.7646	45.064528	0.000831	8.310548	1.407845	-0.000166
 817	8.1192e+01	3.7453	44.947451	0.000588	5.878193	0.995793	-0.000118
 818	8.1291e+01	3.7239	44.830374	0.000588	5.878193	0.995793	-0.000118
 819	8.1391e+01	3.7037	44.729445	0.000507	5.067408	0.858442	-0.000101
 820	8.1490e+01	3.6843	44.600257	0.000649	6.486282	1.098806	-0.000130
 821	8.1590e+01	3.6656	44.438772	0.000811	8.107852	1.373507	-0.000162
 822	8.1689e+01	3.6451	44.333806	0.000527	5.270104	0.892780	-0.000105
 823	8.1789e+01	3.6253	44.212692	0.000608	6.080889	1.030130	-0.000122
 824	8.1888e+01	3.6048	44.067355	0.000730	7.297067	1.236157	-0.000146
 825	8.1988e+01	3.5843	43.966427	0.000507	5.067408	0.858442	-0.000101
 826	8.2088e+01	3.5641	43.845313	0.000608	6.080889	1.030130	-0.000122
 827	8.2187e+01	3.5452	43.675753	0.000851	8.513245	1.442183	-0.000170
 828	8.2287e+01	3.5259	43.586936	0.000446	4.459319	0.755429	-0.000089
 829	8.2386e+01	3.5056	43.429488	0.000791	7.905156	1.339170	-0.000158
 830	8.2486e+01	3.4858	43.340671	0.000446	4.459319	0.755429	-0.000089
 831	8.2585e+01	3.4652	43.227631	0.000568	5.675496	0.961455	-0.000114
 832	8.2684e+01	3.4459	43.049997	0.000892	8.918637	1.510858	-0.000179
 833	8.2784e+01	3.4257	42.932920	0.000588	5.878193	0.995793	-0.000118
 834	8.2883e+01	3.4061	42.819880	0.000568	5.675496	0.961455	-0.000114
 835	8.2983e+01	3.3862	42.662432	0.000791	7.905156	1.339170	-0.000158
 836	8.3082e+01	3.3654	42.537281	0.000628	6.283585	1.064468	-0.000126
 837	8.3182e+01	3.3460	42.412129	0.000628	6.283585	1.064468	-0.000126
 838	8.3281e+01	3.3260	42.323313	0.000446	4.459319	0.755429	-0.000089
 839	8.3381e+01	3.3054	42.157790	0.000831	8.310548	1.407845	-0.000166
 840	8.3481e+01	3.2862	42.028602	0.000649	6.486282	1.098806	-0.000130
 841	8.3580e+01	3.2663	41.883265	0.000730	7.297067	1.236157	-0.000146
 842	8.3680e+01	3.2464	41.770225	0.000568	5.675496	0.961455	-0.000114
 843	8.3779e+01	3.2270	41.677371	0.000466	4.662015	0.789767	-0.000093
 844	8.3879e+01	3.2063	41.515885	0.000811	8.107852	1.373507	-0.000162
 845	8.3978e+01	3.1873	41.374586	0.000709	7.094371	1.201819	-0.000142
 846	8.4078e+01	3.1666	41.309991	0.000324	3.243141	0.549403	-0.000065
 847	8.4177e+01	3.1474	41.152543	0.000791	7.905156	1.339170	-0.000158
 848	8.4276e+01	3.1271	41.007206	0.000730	7.297067	1.236157	-0.000146
 849	8.4376e+01	3.1069	40.869944	0.000689	6.891674	1.167481	-0.000138
 850	8.4475e+01	3.0864	40.704421	0.000831	8.310548	1.407845	-0.000166
 851	8.4575e+01	3.0681	40.619641	0.000426	4.256622	0.721091	-0.000085
 852	8.4674e+01	3.0477	40.466230	0.000770	7.702460	1.304832	-0.000154
 853	8.4774e+01	3.0270	40.308782	0.000791	7.905156	1.339170	-0.000158
 854	8.4874e+01	3.0071	40.203816	0.000527	5.270104	0.892780	-0.000105
 855	8.4973e+01	2.9874	40.066554	0.000689	6.891674	1.167481	-0.000138
 856	8.5073e+01	2.9673	39.905068	0.000811	8.107852	1.373507	-0.000162
 857	8.5172e+01	2.9463	39.779917	0.000628	6.283585	1.064468	-0.000126
 858	8.5272e+01	2.9275	39.634580	0.000730	7.297067	1.236157	-0.000146
 859	8.5371e+01	2.9075	39.517503	0.000588	5.878193	0.995793	-0.000118
 860	8.5471e+01	2.8875	39.392352	0.000628	6.283585	1.064468	-0.000126
 861	8.5570e+01	2.8677	39.222792	0.000851	8.513245	1.442183	-0.000170
 862	8.5669e+01	2.8478	39.085530	0.000689	6.891674	1.167481	-0.000138
 863	8.5769e+01	2.8281	38.968453	0.000588	5.878193	0.995793	-0.000118
 864	8.5868e+01	2.8080	38.859450	0.000547	5.472800	0.927117	-0.000110
 865	8.5968e+01	2.7880	38.661630	0.000993	9.932119	1.682546	-0.000199
 866	8.6067e+01	2.7681	38.544553	0.000588	5.878193	0.995793	-0.000118
 867	8.6167e+01	2.7486	38.431514	0.000568	5.675496	0.961455	-0.000114
 868	8.6266e+01	2.7280	38.286177	0.000730	7.297067	1.236157	-0.000146
 869	8.6366e+01	2.7087	38.152951	0.000669	6.688978	1.133144	-0.000134
 870	8.6466e+01	2.6880	37.987429	0.000831	8.310548	1.407845	-0.000166
 871	8.6565e+01	2.6684	37.862278	0.000628	6.283585	1.064468	-0.000126
 872	8.6665e+01	2.6485	37.757312	0.000527	5.270104	0.892780	-0.000105
 873	8.6764e+01	2.6290	37.620049	0.000689	6.891674	1.167481	-0.000138
 874	8.6864e+01	2.6091	37.482787	0.000689	6.891674	1.167481	-0.000138
 875	8.6963e+01	2.5887	37.337450	0.000730	7.297067	1.236157	-0.000146
 876	8.7063e+01	2.5697	37.216336	0.000608	6.080889	1.030130	-0.000122
 877	8.7162e+01	2.5494	37.054850	0.000811	8.107852	1.373507	-0.000162
 878	8.7261e+01	2.5291	36.933736	0.000608	6.080889	1.030130	-0.000122
 879	8.7361e+01	2.5097	36.804548	0.000649	6.486282	1.098806	-0.000130
 880	8.7460e+01	2.4888	36.643063	0.000811	8.107852	1.373507	-0.000162
 881	8.7560e+01	2.4690	36.521948	0.000608	6.080889	1.030130	-0.000122
 882	8.7659e+01	2.4502	36.384686	0.000689	6.891674	1.167481	-0.000138
 883	8.7759e+01	2.4297	36.271646	0.000568	5.675496	0.961455	-0.000114
 884	8.7859e+01	2.4097	36.162643	0.000547	5.472800	0.927117	-0.000110
 885	8.7958e+01	2.3900	35.948675	0.001074	10.742904	1.819897	-0.000215
 886	8.8058e+01	2.3702	35.855821	0.000466	4.662015	0.789767	-0.000093
 887	8.8157e+01	2.3500	35.746818	0.000547	5.472800	0.927117	-0.000110
 888	8.8257e+01	2.3301	35.593407	0.000770	7.702460	1.304832	-0.000154
 889	8.8356e+01	2.3107	35.431922	0.000811	8.107852	1.373507	-0.000162
 890	8.8456e+01	2.2897	35.286585	0.000730	7.297067	1.236157	-0.000146
 891	8.8555e+01	2.2704	35.177582	0.000547	5.472800	0.927117	-0.000110
 892	8.8654e+01	2.2500	35.016097	0.000811	8.107852	1.373507	-0.000162
 893	8.8754e+01	2.2303	34.907094	0.000547	5.472800	0.927117	-0.000110
 894	8.8853e+01	2.2112	34.757720	0.000750	7.499763	1.270494	-0.000150
 895	8.8953e+01	2.1911	34.596235	0.000811	8.107852	1.373507	-0.000162
 896	8.9052e+01	2.1716	34.491269	0.000527	5.270104	0.892780	-0.000105
 897	8.9152e+01	2.1514	34.337858	0.000770	7.702460	1.304832	-0.000154
 898	8.9251e+01	2.1302	34.200595	0.000689	6.891674	1.167481	-0.000138
 899	8.9351e+01	2.1109	34.087556	0.000568	5.675496	0.961455	-0.000114
 900	8.9451e+01	2.0904	33.926070	0.000811	8.107852	1.373507	-0.000162
 901	8.9550e+01	2.0711	33.772659	0.000770	7.702460	1.304832	-0.000154
 902	8.9650e+01	2.0515	33.667693	0.000527	5.270104	0.892780	-0.000105
 903	8.9749e+01	2.0319	33.518319	0.000750	7.499763	1.270494	-0.000150
 904	8.9849e+01	2.0112	33.413354	0.000527	5.270104	0.892780	-0.000105
 905	8.9948e+01	1.9911	33.251869	0.000811	8.107852	1.373507	-0.000162
 906	9.0047e+01	1.9714	33.110569	0.000709	7.094371	1.201819	-0.000142
 907	9.0147e+01	1.9523	32.973306	0.000689	6.891674	1.167481	-0.000138
 908	9.0246e+01	1.9320	32.852192	0.000608	6.080889	1.030130	-0.000122
 909	9.0346e+01	1.9117	32.690707	0.000811	8.107852	1.373507	-0.000162
 910	9.0445e+01	1.8914	32.585741	0.000527	5.270104	0.892780	-0.000105
 911	9.0545e+01	1.8727	32.472701	0.000568	5.675496	0.961455	-0.000114
 912	9.0644e+01	1.8520	32.327364	0.000730	7.297067	1.236157	-0.000146
 913	9.0744e+01	1.8324	32.141656	0.000932	9.324030	1.579533	-0.000187
 914	9.0844e+01	1.8124	32.036691	0.000527	5.270104	0.892780	-0.000105
 915	9.0943e+01	1.7913	31.846945	0.000953	9.526726	1.613871	-0.000191
 916	9.1043e+01	1.7719	31.790425	0.000284	2.837748	0.480728	-0.000057
 917	9.1142e+01	1.7519	31.637014	0.000770	7.702460	1.304832	-0.000154
 918	9.1242e+01	1.7318	31.447269	0.000953	9.526726	1.613871	-0.000191
 919	9.1341e+01	1.7123	31.334229	0.000568	5.675496	0.961455	-0.000114
 920	9.1441e+01	1.6922	31.196966	0.000689	6.891674	1.167481	-0.000138
 921	9.1540e+01	1.6723	31.079889	0.000588	5.878193	0.995793	-0.000118
 922	9.1639e+01	1.6530	30.910330	0.000851	8.513245	1.442183	-0.000170
 923	9.1739e+01	1.6328	30.777104	0.000669	6.688978	1.133144	-0.000134
 924	9.1838e+01	1.6124	30.643879	0.000669	6.688978	1.133144	-0.000134
 925	9.1938e+01	1.5929	30.494505	0.000750	7.499763	1.270494	-0.000150
 926	9.2037e+01	1.5726	30.341094	0.000770	7.702460	1.304832	-0.000154
 927	9.2137e+01	1.5532	30.167497	0.000872	8.715941	1.476520	-0.000174
 928	9.2237e+01	1.5332	30.086754	0.000405	4.053926	0.686754	-0.000081
 929	9.2336e+01	1.5139	29.925269	0.000811	8.107852	1.373507	-0.000162
 930	9.2436e+01	1.4928	29.775895	0.000750	7.499763	1.270494	-0.000150
 931	9.2535e+01	1.4739	29.634595	0.000709	7.094371	1.201819	-0.000142
 932	9.2635e+01	1.4529	29.493295	0.000709	7.094371	1.201819	-0.000142
 933	9.2734e+01	1.4340	29.388330	0.000527	5.270104	0.892780	-0.000105
 934	9.2834e+01	1.4131	29.230881	0.000791	7.905156	1.339170	-0.000158
 935	9.2933e+01	1.3926	29.117842	0.000568	5.675496	0.961455	-0.000114
 936	9.3032e+01	1.3735	28.952319	0.000831	8.310548	1.407845	-0.000166
 937	9.3132e+01	1.3541	28.815056	0.000689	6.891674	1.167481	-0.000138
 938	9.3231e+01	1.3332	28.669719	0.000730	7.297067	1.236157	-0.000146
 939	9.3331e+01	1.3134	28.508234	0.000811	8.107852	1.373507	-0.000162
 940	9.3430e+01	1.2936	28.407306	0.000507	5.067408	0.858442	-0.000101
 941	9.3530e+01	1.2742	28.274080	0.000669	6.688978	1.133144	-0.000134
 942	9.3629e+01	1.2548	28.148929	0.000628	6.283585	1.064468	-0.000126
 943	9.3729e+01	1.2344	28.015703	0.000669	6.688978	1.133144	-0.000134
 944	9.3829e+01	1.2152	27.862292	0.000770	7.702460	1.304832	-0.000154
 945	9.3928e+01	1.1952	27.692733	0.000851	8.513245	1.442183	-0.000170
 946	9.4028e+01	1.1747	27.575656	0.000588	5.878193	0.995793	-0.000118
 947	9.4127e+01	1.1546	27.426282	0.000750	7.499763	1.270494	-0.000150
 948	9.4227e+01	1.1351	27.317279	0.000547	5.472800	0.927117	-0.000110
 949	9.4326e+01	1.1141	27.163868	0.000770	7.702460	1.304832	-0.000154
 950	9.4425e+01	1.0947	27.026605	0.000689	6.891674	1.167481	-0.000138
 951	9.4525e+01	1.0758	26.869157	0.000791	7.905156	1.339170	-0.000158
 952	9.4624e+01	1.0548	26.715746	0.000770	7.702460	1.304832	-0.000154
 953	9.4724e+01	1.0360	26.578483	0.000689	6.891674	1.167481	-0.000138
 954	9.4823e+01	1.0159	26.461406	0.000588	5.878193	0.995793	-0.000118
 955	9.4923e+01	0.9952	26.275698	0.000932	9.324030	1.579533	-0.000187
 956	9.5022e+01	0.9762	26.178807	0.000486	4.864711	0.824104	-0.000097
 957	9.5122e+01	0.9562	26.025396	0.000770	7.702460	1.304832	-0.000154
 958	9.5222e+01	0.9356	25.912356	0.000568	5.675496	0.961455	-0.000114
 959	9.5321e+01	0.9155	25.754907	0.000791	7.905156	1.339170	-0.000158
 960	9.5421e+01	0.8911	25.585348	0.000851	8.513245	1.442183	-0.000170
 961	9.5520e+01	0.8762	25.431937	0.000770	7.702460	1.304832	-0.000154
 962	9.5620e+01	0.8562	25.314860	0.000588	5.878193	0.995793	-0.000118
 963	9.5719e+01	0.8365	25.153374	0.000811	8.107852	1.373507	-0.000162
 964	9.5819e+01	0.8163	25.008037	0.000730	7.297067	1.236157	-0.000146
 965	9.5918e+01	0.7961	24.870775	0.000689	6.891674	1.167481	-0.000138
 966	9.6017e+01	0.7756	24.713326	0.000791	7.905156	1.339170	-0.000158
 967	9.6117e+01	0.7561	24.584138	0.000649	6.486282	1.098806	-0.000130
 968	9.6216e+01	0.7359	24.418616	0.000831	8.310548	1.407845	-0.000166
 969	9.6316e+01	0.7167	24.257130	0.000811	8.107852	1.373507	-0.000162
 970	9.6415e+01	0.6963	24.136016	0.000608	6.080889	1.030130	-0.000122
 971	9.6515e+01	0.6767	23.974531	0.000811	8.107852	1.373507	-0.000162
 972	9.6615e+01	0.6566	23.837268	0.000689	6.891674	1.167481	-0.000138
 973	9.6714e+01	0.6366	23.687894	0.000750	7.499763	1.270494	-0.000150
 974	9.6814e+01	0.6167	23.570817	0.000588	5.878193	0.995793	-0.000118
 975	9.6913e+01	0.5965	23.381072	0.000953	9.526726	1.613871	-0.000191
 976	9.7013e+01	0.5773	23.235735	0.000730	7.297067	1.236157	-0.000146
 977	9.7112e+01	0.5575	23.098472	0.000689	6.891674	1.167481	-0.000138
 978	9.7212e+01	0.5382	22.928912	0.000851	8.513245	1.442183	-0.000170
 979	9.7311e+01	0.5170	22.795687	0.000669	6.688978	1.133144	-0.000134
 980	9.7410e+01	0.4973	22.654387	0.000709	7.094371	1.201819	-0.000142
 981	9.7510e+01	0.4775	22.533273	0.000608	6.080889	1.030130	-0.000122
 982	9.7609e+01	0.4576	22.355639	0.000892	8.918637	1.510858	-0.000179
 983	9.7709e+01	0.4369	22.238562	0.000588	5.878193	0.995793	-0.000118
 984	9.7808e+01	0.4179	22.048817	0.000953	9.526726	1.613871	-0.000191
 985	9.7908e+01	0.3976	21.887331	0.000811	8.107852	1.373507	-0.000162
 986	9.8007e+01	0.3785	21.754106	0.000669	6.688978	1.133144	-0.000134
 987	9.8107e+01	0.3583	21.572435	0.000912	9.121334	1.545196	-0.000183
 988	9.8207e+01	0.3387	21.435172	0.000689	6.891674	1.167481	-0.000138
 989	9.8306e+01	0.3172	21.322132	0.000568	5.675496	0.961455	-0.000114
 990	9.8406e+01	0.2980	21.100090	0.001115	11.148297	1.888573	-0.000223
 991	9.8505e+01	0.2783	20.958790	0.000709	7.094371	1.201819	-0.000142
 992	9.8605e+01	0.2586	20.849788	0.000547	5.472800	0.927117	-0.000110
 993	9.8704e+01	0.2374	20.708488	0.000709	7.094371	1.201819	-0.000142
 994	9.8803e+01	0.2195	20.526817	0.000912	9.121334	1.545196	-0.000183
 995	9.8903e+01	0.1983	20.357257	0.000851	8.513245	1.442183	-0.000170
 996	9.9002e+01	0.1782	20.232106	0.000628	6.283585	1.064468	-0.000126
 997	9.9102e+01	0.1598	20.038323	0.000973	9.729423	1.648209	-0.000195
 998	9.9201e+01	0.1386	19.909135	0.000649	6.486282	1.098806	-0.000130
 999	9.9301e+01	0.1184	19.779947	0.000649	6.486282	1.098806	-0.000130
1000	9.9400e+01	0.0991	19.626535	0.000770	7.702460	1.304832	-0.000154
1001	9.9500e+01	0.0792	19.473124	0.000770	7.702460	1.304832	-0.000154
1002	9.9600e+01	0.0584	19.279342	0.000973	9.729423	1.648209	-0.000195
1003	9.9699e+01	0.0385	19.125931	0.000770	7.702460	1.304832	-0.000154
1004	9.9799e+01	0.0193	19.008854	0.000588	5.878193	0.995793	-0.000118
1005	9.9898e+01	-0.0003	18.855442	0.000770	7.702460	1.304832	-0.000154
1006	9.9998e+01	-0.0187	18.730291	0.000628	6.283585	1.064468	-0.000126
1007	1.0010e+02	-0.0381	18.560732	0.000851	8.513245	1.442183	-0.000170
1008	1.0020e+02	-0.0590	18.419432	0.000709	7.094371	1.201819	-0.000142
1009	1.0030e+02	-0.0788	18.278132	0.000709	7.094371	1.201819	-0.000142
1010	1.0040e+02	-0.0983	18.100498	0.000892	8.918637	1.510858	-0.000179
1011	1.0050e+02	-0.1183	17.951124	0.000750	7.499763	1.270494	-0.000150
1012	1.0059e+02	-0.1385	17.793676	0.000791	7.905156	1.339170	-0.000158
1013	1.0069e+02	-0.1591	17.628153	0.000831	8.310548	1.407845	-0.000166
1014	1.0079e+02	-0.1787	17.486853	0.000709	7.094371	1.201819	-0.000142
1015	1.0089e+02	-0.1981	17.317294	0.000851	8.513245	1.442183	-0.000170
1016	1.0099e+02	-0.2171	17.184068	0.000669	6.688978	1.133144	-0.000134
1017	1.0109e+02	-0.2388	17.026620	0.000791	7.905156	1.339170	-0.000158
1018	1.0119e+02	-0.2583	16.844949	0.000912	9.121334	1.545196	-0.000183
1019	1.0129e+02	-0.2782	16.735946	0.000547	5.472800	0.927117	-0.000110
1020	1.0139e+02	-0.2975	16.574461	0.000811	8.107852	1.373507	-0.000162
1021	1.0149e+02	-0.3170	16.388753	0.000932	9.324030	1.579533	-0.000187
1022	1.0159e+02	-0.3378	16.271676	0.000588	5.878193	0.995793	-0.000118
1023	1.0169e+02	-0.3578	16.085967	0.000932	9.324030	1.579533	-0.000187
1024	1.0179e+02	-0.3785	15.932556	0.000770	7.702460	1.304832	-0.000154
1025	1.0189e+02	-0.3972	15.771071	0.000811	8.107852	1.373507	-0.000162
1026	1.0199e+02	-0.4172	15.617660	0.000770	7.702460	1.304832	-0.000154
1027	1.0209e+02	-0.4373	15.440026	0.000892	8.918637	1.510858	-0.000179
1028	1.0219e+02	-0.4575	15.290652	0.000750	7.499763	1.270494	-0.000150
1029	1.0229e+02	-0.4773	15.165500	0.000628	6.283585	1.064468	-0.000126
1030	1.0239e+02	-0.4977	14.963644	0.001013	10.134815	1.716884	-0.000203
1031	1.0248e+02	-0.5177	14.858678	0.000527	5.270104	0.892780	-0.000105
1032	1.0258e+02	-0.5369	14.644710	0.001074	10.742904	1.819897	-0.000215
1033	1.0268e+02	-0.5562	14.523596	0.000608	6.080889	1.030130	-0.000122
1034	1.0278e+02	-0.5773	14.349999	0.000872	8.715941	1.476520	-0.000174
1035	1.0288e+02	-0.5965	14.216774	0.000669	6.688978	1.133144	-0.000134
1036	1.0298e+02	-0.6171	14.043177	0.000872	8.715941	1.476520	-0.000174
1037	1.0308e+02	-0.6367	13.905914	0.000689	6.891674	1.167481	-0.000138
1038	1.0318e+02	-0.6560	13.695983	0.001054	10.540208	1.785560	-0.000211
1039	1.0328e+02	-0.6773	13.586980	0.000547	5.472800	0.927117	-0.000110
1040	1.0338e+02	-0.6968	13.417421	0.000851	8.513245	1.442183	-0.000170
1041	1.0348e+02	-0.7163	13.243824	0.000872	8.715941	1.476520	-0.000174
1042	1.0358e+02	-0.7357	13.094450	0.000750	7.499763	1.270494	-0.000150
1043	1.0368e+02	-0.7561	12.937001	0.000791	7.905156	1.339170	-0.000158
1044	1.0378e+02	-0.7761	12.791665	0.000730	7.297067	1.236157	-0.000146
1045	1.0388e+02	-0.7968	12.609993	0.000912	9.121334	1.545196	-0.000183
1046	1.0398e+02	-0.8159	12.464657	0.000730	7.297067	1.236157	-0.000146
1047	1.0408e+02	-0.8361	12.335468	0.000649	6.486282	1.098806	-0.000130
1048	1.0418e+02	-0.8554	12.190131	0.000730	7.297067	1.236157	-0.000146
1049	1.0428e+02	-0.8755	12.036720	0.000770	7.702460	1.304832	-0.000154
1050	1.0438e+02	-0.8954	11.818715	0.001095	10.945600	1.854235	-0.000219
1051	1.0447e+02	-0.9161	11.681452	0.000689	6.891674	1.167481	-0.000138
1052	1.0457e+02	-0.9361	11.560338	0.000608	6.080889	1.030130	-0.000122
1053	1.0467e+02	-0.9560	11.398853	0.000811	8.107852	1.373507	-0.000162
1054	1.0477e+02	-0.9749	11.257553	0.000709	7.094371	1.201819	-0.000142
1055	1.0487e+02	-0.9962	11.075882	0.000912	9.121334	1.545196	-0.000183
1056	1.0497e+02	-1.0152	10.922471	0.000770	7.702460	1.304832	-0.000154
1057	1.0507e+02	-1.0347	10.756948	0.000831	8.310548	1.407845	-0.000166
1058	1.0517e+02	-1.0556	10.656020	0.000507	5.067408	0.858442	-0.000101
1059	1.0527e+02	-1.0756	10.502609	0.000770	7.702460	1.304832	-0.000154
1060	1.0537e+02	-1.0950	10.345160	0.000791	7.905156	1.339170	-0.000158
1061	1.0547e+02	-1.1153	10.187712	0.000791	7.905156	1.339170	-0.000158
1062	1.0557e+02	-1.1353	9.989892	0.000993	9.932119	1.682546	-0.000199
1063	1.0567e+02	-1.1557	9.844555	0.000730	7.297067	1.236157	-0.000146
1064	1.0577e+02	-1.1752	9.743627	0.000507	5.067408	0.858442	-0.000101
1065	1.0587e+02	-1.1960	9.509473	0.001176	11.756386	1.991586	-0.000235
1066	1.0597e+02	-1.2146	9.404508	0.000527	5.270104	0.892780	-0.000105
1067	1.0607e+02	-1.2347	9.238985	0.000831	8.310548	1.407845	-0.000166
1068	1.0617e+02	-1.2547	9.109797	0.000649	6.486282	1.098806	-0.000130
1069	1.0627e+02	-1.2736	8.924089	0.000932	9.324030	1.579533	-0.000187
1070	1.0637e+02	-1.2946	8.794900	0.000649	6.486282	1.098806	-0.000130
1071	1.0647e+02	-1.3143	8.613229	0.000912	9.121334	1.545196	-0.000183
1072	1.0656e+02	-1.3335	8.463855	0.000750	7.499763	1.270494	-0.000150
1073	1.0666e+02	-1.3535	8.298333	0.000831	8.310548	1.407845	-0.000166
1074	1.0676e+02	-1.3744	8.193367	0.000527	5.270104	0.892780	-0.000105
1075	1.0686e+02	-1.3934	8.064179	0.000649	6.486282	1.098806	-0.000130
1076	1.0696e+02	-1.4131	7.898656	0.000831	8.310548	1.407845	-0.000166
1077	1.0706e+02	-1.4341	7.725059	0.000872	8.715941	1.476520	-0.000174
1078	1.0716e+02	-1.4532	7.547425	0.000892	8.918637	1.510858	-0.000179
1079	1.0726e+02	-1.4730	7.430348	0.000588	5.878193	0.995793	-0.000118
1080	1.0736e+02	-1.4930	7.252714	0.000892	8.918637	1.510858	-0.000179
1081	1.0746e+02	-1.5128	7.115452	0.000689	6.891674	1.167481	-0.000138
1082	1.0756e+02	-1.5337	6.958003	0.000791	7.905156	1.339170	-0.000158
1083	1.0766e+02	-1.5535	6.784407	0.000872	8.715941	1.476520	-0.000174
1084	1.0776e+02	-1.5733	6.614847	0.000851	8.513245	1.442183	-0.000170
1085	1.0786e+02	-1.5923	6.497770	0.000588	5.878193	0.995793	-0.000118
1086	1.0796e+02	-1.6132	6.368582	0.000649	6.486282	1.098806	-0.000130
1087	1.0806e+02	-1.6330	6.190948	0.000892	8.918637	1.510858	-0.000179
1088	1.0816e+02	-1.6525	6.065796	0.000628	6.283585	1.064468	-0.000126
1089	1.0826e+02	-1.6724	5.884125	0.000912	9.121334	1.545196	-0.000183
1090	1.0836e+02	-1.6925	5.718603	0.000831	8.310548	1.407845	-0.000166
1091	1.0845e+02	-1.7127	5.561154	0.000791	7.905156	1.339170	-0.000158
1092	1.0855e+02	-1.7322	5.444078	0.000588	5.878193	0.995793	-0.000118
1093	1.0865e+02	-1.7531	5.294704	0.000750	7.499763	1.270494	-0.000150
1094	1.0875e+02	-1.7715	5.141292	0.000770	7.702460	1.304832	-0.000154
1095	1.0885e+02	-1.7926	5.020178	0.000608	6.080889	1.030130	-0.000122
1096	1.0895e+02	-1.8129	4.842544	0.000892	8.918637	1.510858	-0.000179
1097	1.0905e+02	-1.8317	4.689133	0.000770	7.702460	1.304832	-0.000154
1098	1.0915e+02	-1.8517	4.531685	0.000791	7.905156	1.339170	-0.000158
1099	1.0925e+02	-1.8719	4.350014	0.000912	9.121334	1.545196	-0.000183
1100	1.0935e+02	-1.8919	4.208714	0.000709	7.094371	1.201819	-0.000142
1101	1.0945e+02	-1.9116	4.055303	0.000770	7.702460	1.304832	-0.000154
1102	1.0955e+02	-1.9333	3.938226	0.000588	5.878193	0.995793	-0.000118
1103	1.0965e+02	-1.9521	3.728295	0.001054	10.540208	1.785560	-0.000211
1104	1.0975e+02	-1.9720	3.599107	0.000649	6.486282	1.098806	-0.000130
1105	1.0985e+02	-1.9910	3.445695	0.000770	7.702460	1.304832	-0.000154
1106	1.0995e+02	-2.0115	3.320544	0.000628	6.283585	1.064468	-0.000126
1107	1.1005e+02	-2.0310	3.146947	0.000872	8.715941	1.476520	-0.000174
1108	1.1015e+02	-2.0515	3.001610	0.000730	7.297067	1.236157	-0.000146
1109	1.1025e+02	-2.0721	2.848199	0.000770	7.702460	1.304832	-0.000154
1110	1.1035e+02	-2.0908	2.751308	0.000486	4.864711	0.824104	-0.000097
1111	1.1044e+02	-2.1111	2.589823	0.000811	8.107852	1.373507	-0.000162
1112	1.1054e+02	-2.1307	2.436411	0.000770	7.702460	1.304832	-0.000154
1113	1.1064e+02	-2.1510	2.303186	0.000669	6.688978	1.133144	-0.000134
1114	1.1074e+02	-2.1711	2.141701	0.000811	8.107852	1.373507	-0.000162
1115	1.1084e+02	-2.1910	2.000401	0.000709	7.094371	1.201819	-0.000142
1116	1.1094e+02	-2.2113	1.810655	0.000953	9.526726	1.613871	-0.000191
1117	1.1104e+02	-2.2299	1.653207	0.000791	7.905156	1.339170	-0.000158
1118	1.1114e+02	-2.2507	1.568427	0.000426	4.256622	0.721091	-0.000085
1119	1.1124e+02	-2.2707	1.366570	0.001013	10.134815	1.716884	-0.000203
1120	1.1134e+02	-2.2910	1.237382	0.000649	6.486282	1.098806	-0.000130
1121	1.1144e+02	-2.3103	1.083971	0.000770	7.702460	1.304832	-0.000154
1122	1.1154e+02	-2.3296	0.946708	0.000689	6.891674	1.167481	-0.000138
1123	1.1164e+02	-2.3506	0.793297	0.000770	7.702460	1.304832	-0.000154
1124	1.1174e+02	-2.3698	0.631812	0.000811	8.107852	1.373507	-0.000162
1125	1.1184e+02	-2.3903	0.494549	0.000689	6.891674	1.167481	-0.000138
1126	1.1194e+02	-2.4098	0.320952	0.000872	8.715941	1.476520	-0.000174
1127	1.1204e+02	-2.4298	0.171578	0.000750	7.499763	1.270494	-0.000150
1128	1.1214e+02	-2.4496	0.006056	0.000831	8.310548	1.407845	-0.000166
1129	1.1224e+02	-2.4699	-0.106984	0.000568	5.675496	0.961455	-0.000114
1130	1.1234e+02	-2.4902	-0.252321	0.000730	7.297067	1.236157	-0.000146
1131	1.1244e+02	-2.5095	-0.385546	0.000669	6.688978	1.133144	-0.000134
1132	1.1253e+02	-2.5285	-0.551069	0.000831	8.310548	1.407845	-0.000166
1133	1.1263e+02	-2.5478	-0.740814	0.000953	9.526726	1.613871	-0.000191
1134	1.1273e+02	-2.5691	-0.870003	0.000649	6.486282	1.098806	-0.000130
1135	1.1283e+02	-2.5894	-1.027451	0.000791	7.905156	1.339170	-0.000158
1136	1.1293e+02	-2.6096	-1.172788	0.000730	7.297067	1.236157	-0.000146
1137	1.1303e+02	-2.6284	-1.354459	0.000912	9.121334	1.545196	-0.000183
1138	1.1313e+02	-2.6485	-1.495759	0.000709	7.094371	1.201819	-0.000142
1139	1.1323e+02	-2.6672	-1.661281	0.000831	8.310548	1.407845	-0.000166
1140	1.1333e+02	-2.6875	-1.766247	0.000527	5.270104	0.892780	-0.000105
1141	1.1343e+02	-2.7083	-1.951955	0.000932	9.324030	1.579533	-0.000187
1142	1.1353e+02	-2.7279	-2.081143	0.000649	6.486282	1.098806	-0.000130
1143	1.1363e+02	-2.7484	-2.258777	0.000892	8.918637	1.510858	-0.000179
1144	1.1373e+02	-2.7686	-2.400077	0.000709	7.094371	1.201819	-0.000142
1145	1.1383e+02	-2.7869	-2.565600	0.000831	8.310548	1.407845	-0.000166
1146	1.1393e+02	-2.8085	-2.698825	0.000669	6.688978	1.133144	-0.000134
1147	1.1403e+02	-2.8270	-2.815902	0.000588	5.878193	0.995793	-0.000118
1148	1.1413e+02	-2.8481	-2.989499	0.000872	8.715941	1.476520	-0.000174
1149	1.1423e+02	-2.8683	-3.126762	0.000689	6.891674	1.167481	-0.000138
1150	1.1433e+02	-2.8883	-3.284210	0.000791	7.905156	1.339170	-0.000158
1151	1.1442e+02	-2.9082	-3.409361	0.000628	6.283585	1.064468	-0.000126
1152	1.1452e+02	-2.9269	-3.591032	0.000912	9.121334	1.545196	-0.000183
1153	1.1462e+02	-2.9478	-3.744443	0.000770	7.702460	1.304832	-0.000154
1154	1.1472e+02	-2.9684	-3.905929	0.000811	8.107852	1.373507	-0.000162
1155	1.1482e+02	-2.9871	-4.067414	0.000811	8.107852	1.373507	-0.000162
1156	1.1492e+02	-3.0075	-4.200640	0.000669	6.688978	1.133144	-0.000134
1157	1.1502e+02	-3.0273	-4.354051	0.000770	7.702460	1.304832	-0.000154
1158	1.1512e+02	-3.0472	-4.507462	0.000770	7.702460	1.304832	-0.000154
1159	1.1522e+02	-3.0664	-4.664910	0.000791	7.905156	1.339170	-0.000158
1160	1.1532e+02	-3.0875	-4.786024	0.000608	6.080889	1.030130	-0.000122
1161	1.1542e+02	-3.1066	-4.983844	0.000993	9.932119	1.682546	-0.000199
1162	1.1552e+02	-3.1268	-5.100921	0.000588	5.878193	0.995793	-0.000118
1163	1.1562e+02	-3.1477	-5.246258	0.000730	7.297067	1.236157	-0.000146
1164	1.1572e+02	-3.1664	-5.407743	0.000811	8.107852	1.373507	-0.000162
1165	1.1582e+02	-3.1862	-5.561154	0.000770	7.702460	1.304832	-0.000154
1166	1.1592e+02	-3.2070	-5.714566	0.000770	7.702460	1.304832	-0.000154
1167	1.1602e+02	-3.2274	-5.888162	0.000872	8.715941	1.476520	-0.000174
1168	1.1612e+02	-3.2462	-6.009277	0.000608	6.080889	1.030130	-0.000122
1169	1.1622e+02	-3.2661	-6.158651	0.000750	7.499763	1.270494	-0.000150
1170	1.1632e+02	-3.2858	-6.291876	0.000669	6.688978	1.133144	-0.000134
1171	1.1642e+02	-3.3063	-6.445287	0.000770	7.702460	1.304832	-0.000154
1172	1.1651e+02	-3.3267	-6.643107	0.000993	9.932119	1.682546	-0.000199
1173	1.1661e+02	-3.3466	-6.756147	0.000568	5.675496	0.961455	-0.000114
1174	1.1671e+02	-3.3665	-6.889372	0.000669	6.688978	1.133144	-0.000134
1175	1.1681e+02	-3.3861	-7.062969	0.000872	8.715941	1.476520	-0.000174
1176	1.1691e+02	-3.4062	-7.188120	0.000628	6.283585	1.064468	-0.000126
1177	1.1701e+02	-3.4261	-7.357680	0.000851	8.513245	1.442183	-0.000170
1178	1.1711e+02	-3.4453	-7.486868	0.000649	6.486282	1.098806	-0.000130
1179	1.1721e+02	-3.4654	-7.672576	0.000932	9.324030	1.579533	-0.000187
1180	1.1731e+02	-3.4854	-7.809839	0.000689	6.891674	1.167481	-0.000138
1181	1.1741e+02	-3.5052	-7.926916	0.000588	5.878193	0.995793	-0.000118
1182	1.1751e+02	-3.5259	-8.120699	0.000973	9.729423	1.648209	-0.000195
1183	1.1761e+02	-3.5458	-8.229701	0.000547	5.472800	0.927117	-0.000110
1184	1.1771e+02	-3.5651	-8.443669	0.001074	10.742904	1.819897	-0.000215
1185	1.1781e+02	-3.5843	-8.536524	0.000466	4.662015	0.789767	-0.000093
1186	1.1791e+02	-3.6046	-8.702046	0.000831	8.310548	1.407845	-0.000166
1187	1.1801e+02	-3.6255	-8.871606	0.000851	8.513245	1.442183	-0.000170
1188	1.1811e+02	-3.6455	-9.033091	0.000811	8.107852	1.373507	-0.000162
1189	1.1821e+02	-3.6655	-9.174391	0.000709	7.094371	1.201819	-0.000142
1190	1.1831e+02	-3.6842	-9.315691	0.000709	7.094371	1.201819	-0.000142
1191	1.1841e+02	-3.7051	-9.420656	0.000527	5.270104	0.892780	-0.000105
1192	1.1850e+02	-3.7244	-9.614439	0.000973	9.729423	1.648209	-0.000195
1193	1.1860e+02	-3.7440	-9.767850	0.000770	7.702460	1.304832	-0.000154
1194	1.1870e+02	-3.7646	-9.901075	0.000669	6.688978	1.133144	-0.000134
1195	1.1880e+02	-3.7845	-10.070635	0.000851	8.513245	1.442183	-0.000170
1196	1.1890e+02	-3.8039	-10.191749	0.000608	6.080889	1.030130	-0.000122
1197	1.1900e+02	-3.8245	-10.369383	0.000892	8.918637	1.510858	-0.000179
1198	1.1910e+02	-3.8449	-10.559129	0.000953	9.526726	1.613871	-0.000191
1199	1.1920e+02	-3.8634	-10.676205	0.000588	5.878193	0.995793	-0.000118
1200	1.1930e+02	-3.8832	-10.793282	0.000588	5.878193	0.995793	-0.000118
1201	1.1940e+02	-3.9032	-10.978991	0.000932	9.324030	1.579533	-0.000187
1202	1.1950e+02	-3.9236	-11.112216	0.000669	6.688978	1.133144	-0.000134
1203	1.1960e+02	-3.9433	-11.257553	0.000730	7.297067	1.236157	-0.000146
1204	1.1970e+02	-3.9644	-11.423076	0.000831	8.310548	1.407845	-0.000166
1205	1.1980e+02	-3.9839	-11.568412	0.000730	7.297067	1.236157	-0.000146
1206	1.1990e+02	-4.0036	-11.717786	0.000750	7.499763	1.270494	-0.000150
1207	1.2000e+02	-4.0232	-11.875235	0.000791	7.905156	1.339170	-0.000158
1208	1.2010e+02	-4.0435	-12.016535	0.000709	7.094371	1.201819	-0.000142
1209	1.2020e+02	-4.0628	-12.161871	0.000730	7.297067	1.236157	-0.000146
1210	1.2030e+02	-4.0836	-12.323357	0.000811	8.107852	1.373507	-0.000162
1211	1.2039e+02	-4.1029	-12.456582	0.000669	6.688978	1.133144	-0.000134
1212	1.2049e+02	-4.1234	-12.614031	0.000791	7.905156	1.339170	-0.000158
1213	1.2059e+02	-4.1428	-12.771479	0.000791	7.905156	1.339170	-0.000158
1214	1.2069e+02	-4.1632	-12.920853	0.000750	7.499763	1.270494	-0.000150
1215	1.2079e+02	-4.1821	-13.090413	0.000851	8.513245	1.442183	-0.000170
1216	1.2089e+02	-4.2027	-13.227675	0.000689	6.891674	1.167481	-0.000138
1217	1.2099e+02	-4.2218	-13.332641	0.000527	5.270104	0.892780	-0.000105
1218	1.2109e+02	-4.2430	-13.506238	0.000872	8.715941	1.476520	-0.000174
1219	1.2119e+02	-4.2638	-13.655612	0.000750	7.499763	1.270494	-0.000150
1220	1.2129e+02	-4.2830	-13.760577	0.000527	5.270104	0.892780	-0.000105
1221	1.2139e+02	-4.3021	-13.950323	0.000953	9.526726	1.613871	-0.000191
1222	1.2149e+02	-4.3222	-14.083548	0.000669	6.688978	1.133144	-0.000134
1223	1.2159e+02	-4.3417	-14.245033	0.000811	8.107852	1.373507	-0.000162
1224	1.2169e+02	-4.3626	-14.378259	0.000669	6.688978	1.133144	-0.000134
1225	1.2179e+02	-4.3822	-14.531670	0.000770	7.702460	1.304832	-0.000154
1226	1.2189e+02	-4.4027	-14.677007	0.000730	7.297067	1.236157	-0.000146
1227	1.2199e+02	-4.4228	-14.834455	0.000791	7.905156	1.339170	-0.000158
1228	1.2209e+02	-4.4424	-14.979792	0.000730	7.297067	1.236157	-0.000146
1229	1.2219e+02	-4.4624	-15.100906	0.000608	6.080889	1.030130	-0.000122
1230	1.2229e+02	-4.4812	-15.258355	0.000791	7.905156	1.339170	-0.000158
1231	1.2239e+02	-4.5017	-15.419840	0.000811	8.107852	1.373507	-0.000162
1232	1.2248e+02	-4.5221	-15.553065	0.000669	6.688978	1.133144	-0.000134
1233	1.2258e+02	-4.5421	-15.710514	0.000791	7.905156	1.339170	-0.000158
1234	1.2268e+02	-4.5616	-15.839702	0.000649	6.486282	1.098806	-0.000130
1235	1.2278e+02	-4.5809	-15.981002	0.000709	7.094371	1.201819	-0.000142
1236	1.2288e+02	-4.6016	-16.150562	0.000851	8.513245	1.442183	-0.000170
1237	1.2298e+02	-4.6210	-16.291861	0.000709	7.094371	1.201819	-0.000142
1238	1.2308e+02	-4.6411	-16.441235	0.000750	7.499763	1.270494	-0.000150
1239	1.2318e+02	-4.6608	-16.554275	0.000568	5.675496	0.961455	-0.000114
1240	1.2328e+02	-4.6813	-16.707686	0.000770	7.702460	1.304832	-0.000154
1241	1.2338e+02	-4.7002	-16.840912	0.000669	6.688978	1.133144	-0.000134
1242	1.2348e+02	-4.7217	-16.982211	0.000709	7.094371	1.201819	-0.000142
1243	1.2358e+02	-4.7407	-17.143697	0.000811	8.107852	1.373507	-0.000162
1244	1.2368e+02	-4.7609	-17.333442	0.000953	9.526726	1.613871	-0.000191
1245	1.2378e+02	-4.7812	-17.446482	0.000568	5.675496	0.961455	-0.000114
1246	1.2388e+02	-4.8009	-17.595856	0.000750	7.499763	1.270494	-0.000150
1247	1.2398e+02	-4.8208	-17.757342	0.000811	8.107852	1.373507	-0.000162
1248	1.2408e+02	-4.8409	-17.882493	0.000628	6.283585	1.064468	-0.000126
1249	1.2418e+02	-4.8605	-18.043978	0.000811	8.107852	1.373507	-0.000162
1250	1.2428e+02	-4.8798	-18.193352	0.000750	7.499763	1.270494	-0.000150
1251	1.2438e+02	-4.9006	-18.314466	0.000608	6.080889	1.030130	-0.000122
1252	1.2447e+02	-4.9200	-18.463840	0.000750	7.499763	1.270494	-0.000150
1253	1.2457e+02	-4.9398	-18.597066	0.000669	6.688978	1.133144	-0.000134
1254	1.2467e+02	-4.9602	-18.766625	0.000851	8.513245	1.442183	-0.000170
1255	1.2477e+02	-4.9796	-18.875628	0.000547	5.472800	0.927117	-0.000110
1256	1.2487e+02	-5.0006	-19.053262	0.000892	8.918637	1.510858	-0.000179
1257	1.2497e+02	-5.0197	-19.210710	0.000791	7.905156	1.339170	-0.000158
1258	1.2507e+02	-5.0403	-19.368159	0.000791	7.905156	1.339170	-0.000158
1259	1.2517e+02	-5.0591	-19.501384	0.000669	6.688978	1.133144	-0.000134
1260	1.2527e+02	-5.0796	-19.642684	0.000709	7.094371	1.201819	-0.000142
1261	1.2537e+02	-5.0991	-19.743612	0.000507	5.067408	0.858442	-0.000101
1262	1.2547e+02	-5.1196	-19.945469	0.001013	10.134815	1.716884	-0.000203
1263	1.2557e+02	-5.1387	-20.102917	0.000791	7.905156	1.339170	-0.000158
1264	1.2567e+02	-5.1585	-20.224031	0.000608	6.080889	1.030130	-0.000122
1265	1.2577e+02	-5.1787	-20.401665	0.000892	8.918637	1.510858	-0.000179
1266	1.2587e+02	-5.1985	-20.530854	0.000649	6.486282	1.098806	-0.000130
1267	1.2597e+02	-5.2185	-20.643894	0.000568	5.675496	0.961455	-0.000114
1268	1.2607e+02	-5.2384	-20.837676	0.000973	9.729423	1.648209	-0.000195
1269	1.2617e+02	-5.2594	-20.954753	0.000588	5.878193	0.995793	-0.000118
1270	1.2627e+02	-5.2786	-21.104127	0.000750	7.499763	1.270494	-0.000150
1271	1.2636e+02	-5.2988	-21.245427	0.000709	7.094371	1.201819	-0.000142
1272	1.2646e+02	-5.3182	-21.402875	0.000791	7.905156	1.339170	-0.000158
1273	1.2656e+02	-5.3384	-21.564361	0.000811	8.107852	1.373507	-0.000162
1274	1.2666e+02	-5.3575	-21.685475	0.000608	6.080889	1.030130	-0.000122
1275	1.2676e+02	-5.3783	-21.850997	0.000831	8.310548	1.407845	-0.000166
1276	1.2686e+02	-5.3928	-21.976148	0.000628	6.283585	1.064468	-0.000126
1277	1.2696e+02	-5.4173	-22.137634	0.000811	8.107852	1.373507	-0.000162
1278	1.2706e+02	-5.4376	-22.287008	0.000750	7.499763	1.270494	-0.000150
1279	1.2716e+02	-5.4579	-22.416196	0.000649	6.486282	1.098806	-0.000130
1280	1.2726e+02	-5.4779	-22.585756	0.000851	8.513245	1.442183	-0.000170
1281	1.2736e+02	-5.4973	-22.686684	0.000507	5.067408	0.858442	-0.000101
1282	1.2746e+02	-5.5176	-22.852207	0.000831	8.310548	1.407845	-0.000166
1283	1.2756e+02	-5.5376	-23.037915	0.000932	9.324030	1.579533	-0.000187
1284	1.2766e+02	-5.5568	-23.207475	0.000851	8.513245	1.442183	-0.000170
1285	1.2776e+02	-5.5777	-23.324552	0.000588	5.878193	0.995793	-0.000118
1286	1.2786e+02	-5.5969	-23.486037	0.000811	8.107852	1.373507	-0.000162
1287	1.2796e+02	-5.6174	-23.619263	0.000669	6.688978	1.133144	-0.000134
1288	1.2806e+02	-5.6371	-23.736340	0.000588	5.878193	0.995793	-0.000118
1289	1.2816e+02	-5.6581	-23.897825	0.000811	8.107852	1.373507	-0.000162
1290	1.2826e+02	-5.6763	-24.051236	0.000770	7.702460	1.304832	-0.000154
1291	1.2835e+02	-5.6972	-24.212722	0.000811	8.107852	1.373507	-0.000162
1292	1.2845e+02	-5.7172	-24.386318	0.000872	8.715941	1.476520	-0.000174
1293	1.2855e+02	-5.7364	-24.527618	0.000709	7.094371	1.201819	-0.000142
1294	1.2865e+02	-5.7559	-24.676992	0.000750	7.499763	1.270494	-0.000150
1295	1.2875e+02	-5.7767	-24.842515	0.000831	8.310548	1.407845	-0.000166
1296	1.2885e+02	-5.7964	-24.971703	0.000649	6.486282	1.098806	-0.000130
1297	1.2895e+02	-5.8163	-25.137226	0.000831	8.310548	1.407845	-0.000166
1298	1.2905e+02	-5.8356	-25.282563	0.000730	7.297067	1.236157	-0.000146
1299	1.2915e+02	-5.8562	-25.440011	0.000791	7.905156	1.339170	-0.000158
1300	1.2925e+02	-5.8765	-25.585348	0.000730	7.297067	1.236157	-0.000146
1301	1.2935e+02	-5.8958	-25.775093	0.000953	9.526726	1.613871	-0.000191
1302	1.2945e+02	-5.9158	-25.928504	0.000770	7.702460	1.304832	-0.000154
1303	1.2955e+02	-5.9355	-26.085953	0.000791	7.905156	1.339170	-0.000158
1304	1.2965e+02	-5.9557	-26.207067	0.000608	6.080889	1.030130	-0.000122
1305	1.2975e+02	-5.9760	-26.364515	0.000791	7.905156	1.339170	-0.000158
1306	1.2985e+02	-5.9976	-26.513889	0.000750	7.499763	1.270494	-0.000150
1307	1.2995e+02	-6.0165	-26.715746	0.001013	10.134815	1.716884	-0.000203
1308	1.3005e+02	-6.0361	-26.885305	0.000851	8.513245	1.442183	-0.000170
1309	1.3015e+02	-6.0553	-27.022568	0.000689	6.891674	1.167481	-0.000138
1310	1.3025e+02	-6.0756	-27.184053	0.000811	8.107852	1.373507	-0.000162
1311	1.3034e+02	-6.0948	-27.337465	0.000770	7.702460	1.304832	-0.000154
1312	1.3044e+02	-6.1163	-27.498950	0.000811	8.107852	1.373507	-0.000162
1313	1.3054e+02	-6.1348	-27.696770	0.000993	9.932119	1.682546	-0.000199
1314	1.3064e+02	-6.1548	-27.813847	0.000588	5.878193	0.995793	-0.000118
1315	1.3074e+02	-6.1751	-27.991481	0.000892	8.918637	1.510858	-0.000179
1316	1.3084e+02	-6.1954	-28.140855	0.000750	7.499763	1.270494	-0.000150
1317	1.3094e+02	-6.2154	-28.318489	0.000892	8.918637	1.510858	-0.000179
1318	1.3104e+02	-6.2357	-28.479974	0.000811	8.107852	1.373507	-0.000162
1319	1.3114e+02	-6.2552	-28.649534	0.000851	8.513245	1.442183	-0.000170
1320	1.3124e+02	-6.2747	-28.790834	0.000709	7.094371	1.201819	-0.000142
1321	1.3134e+02	-6.2949	-28.968467	0.000892	8.918637	1.510858	-0.000179
1322	1.3144e+02	-6.3150	-29.146101	0.000892	8.918637	1.510858	-0.000179
1323	1.3154e+02	-6.3345	-29.267216	0.000608	6.080889	1.030130	-0.000122
1324	1.3164e+02	-6.3545	-29.497332	0.001155	11.553689	1.957248	-0.000231
1325	1.3174e+02	-6.3743	-29.658818	0.000811	8.107852	1.373507	-0.000162
1326	1.3184e+02	-6.3949	-29.800117	0.000709	7.094371	1.201819	-0.000142
1327	1.3194e+02	-6.4136	-29.969677	0.000851	8.513245	1.442183	-0.000170
1328	1.3204e+02	-6.4346	-30.127125	0.000791	7.905156	1.339170	-0.000158
1329	1.3214e+02	-6.4535	-30.316871	0.000953	9.526726	1.613871	-0.000191
1330	1.3224e+02	-6.4741	-30.490468	0.000872	8.715941	1.476520	-0.000174
1331	1.3234e+02	-6.4934	-30.680213	0.000953	9.526726	1.613871	-0.000191
1332	1.3243e+02	-6.5138	-30.797290	0.000588	5.878193	0.995793	-0.000118
1333	1.3253e+02	-6.5341	-30.999147	0.001013	10.134815	1.716884	-0.000203
1334	1.3263e+02	-6.5533	-31.140447	0.000709	7.094371	1.201819	-0.000142
1335	1.3273e+02	-6.5733	-31.326155	0.000932	9.324030	1.579533	-0.000187
1336	1.3283e+02	-6.5938	-31.499752	0.000872	8.715941	1.476520	-0.000174
1337	1.3293e+02	-6.6132	-31.657200	0.000791	7.905156	1.339170	-0.000158
1338	1.3303e+02	-6.6327	-31.863094	0.001034	10.337511	1.751222	-0.000207
1339	1.3313e+02	-6.6530	-31.996319	0.000669	6.688978	1.133144	-0.000134
1340	1.3323e+02	-6.6733	-32.173953	0.000892	8.918637	1.510858	-0.000179
1341	1.3333e+02	-6.6937	-32.339476	0.000831	8.310548	1.407845	-0.000166
1342	1.3343e+02	-6.7123	-32.529221	0.000953	9.526726	1.613871	-0.000191
1343	1.3353e+02	-6.7329	-32.771449	0.001216	12.161778	2.060261	-0.000243
1344	1.3363e+02	-6.7519	-32.892563	0.000608	6.080889	1.030130	-0.000122
1345	1.3373e+02	-6.7720	-33.066160	0.000872	8.715941	1.476520	-0.000174
1346	1.3383e+02	-6.7928	-33.268017	0.001013	10.134815	1.716884	-0.000203
1347	1.3393e+02	-6.8130	-33.389131	0.000608	6.080889	1.030130	-0.000122
1348	1.3403e+02	-6.8325	-33.607136	0.001095	10.945600	1.854235	-0.000219
1349	1.3413e+02	-6.8521	-33.760548	0.000770	7.702460	1.304832	-0.000154
1350	1.3423e+02	-6.8730	-33.926070	0.000831	8.310548	1.407845	-0.000166
1351	1.3432e+02	-6.8915	-34.131964	0.001034	10.337511	1.751222	-0.000207
1352	1.3442e+02	-6.9130	-34.329784	0.000993	9.932119	1.682546	-0.000199
1353	1.3452e+02	-6.9318	-34.511455	0.000912	9.121334	1.545196	-0.000183
1354	1.3462e+02	-6.9516	-34.697163	0.000932	9.324030	1.579533	-0.000187
1355	1.3472e+02	-6.9722	-34.878834	0.000912	9.121334	1.545196	-0.000183
1356	1.3482e+02	-6.9914	-35.044357	0.000831	8.310548	1.407845	-0.000166
1357	1.3492e+02	-7.0121	-35.189694	0.000730	7.297067	1.236157	-0.000146
1358	1.3502e+02	-7.0325	-35.452107	0.001318	13.175260	2.231949	-0.000264
1359	1.3512e+02	-7.0520	-35.589370	0.000689	6.891674	1.167481	-0.000138
1360	1.3522e+02	-7.0721	-35.779115	0.000953	9.526726	1.613871	-0.000191
1361	1.3532e+02	-7.0915	-35.985009	0.001034	10.337511	1.751222	-0.000207
1362	1.3542e+02	-7.1112	-36.150532	0.000831	8.310548	1.407845	-0.000166
1363	1.3552e+02	-7.1312	-36.348352	0.000993	9.932119	1.682546	-0.000199
1364	1.3562e+02	-7.1507	-36.509837	0.000811	8.107852	1.373507	-0.000162
1365	1.3572e+02	-7.1709	-36.703620	0.000973	9.729423	1.648209	-0.000195
1366	1.3582e+02	-7.1918	-36.941811	0.001196	11.959082	2.025923	-0.000239
1367	1.3592e+02	-7.2105	-37.107333	0.000831	8.310548	1.407845	-0.000166
1368	1.3602e+02	-7.2310	-37.309190	0.001013	10.134815	1.716884	-0.000203
1369	1.3612e+02	-7.2507	-37.511047	0.001013	10.134815	1.716884	-0.000203
1370	1.3622e+02	-7.2707	-37.692718	0.000912	9.121334	1.545196	-0.000183
1371	1.3631e+02	-7.2913	-37.890537	0.000993	9.932119	1.682546	-0.000199
1372	1.3641e+02	-7.3105	-38.116617	0.001135	11.350993	1.922910	-0.000227
1373	1.3651e+02	-7.3310	-38.257917	0.000709	7.094371	1.201819	-0.000142
1374	1.3661e+02	-7.3509	-38.496108	0.001196	11.959082	2.025923	-0.000239
1375	1.3671e+02	-7.3701	-38.649519	0.000770	7.702460	1.304832	-0.000154
1376	1.3681e+02	-7.3909	-38.827153	0.000892	8.918637	1.510858	-0.000179
1377	1.3691e+02	-7.4113	-39.065344	0.001196	11.959082	2.025923	-0.000239
1378	1.3701e+02	-7.4303	-39.259126	0.000973	9.729423	1.648209	-0.000195
1379	1.3711e+02	-7.4504	-39.404463	0.000730	7.297067	1.236157	-0.000146
1380	1.3721e+02	-7.4707	-39.650729	0.001236	12.364474	2.094599	-0.000248
1381	1.3731e+02	-7.4899	-39.840474	0.000953	9.526726	1.613871	-0.000191
1382	1.3741e+02	-7.5101	-40.066554	0.001135	11.350993	1.922910	-0.000227
1383	1.3751e+02	-7.5291	-40.211891	0.000730	7.297067	1.236157	-0.000146
1384	1.3761e+02	-7.5504	-40.401636	0.000953	9.526726	1.613871	-0.000191
1385	1.3771e+02	-7.5699	-40.651938	0.001257	12.567171	2.128936	-0.000252
1386	1.3781e+02	-7.5886	-40.821498	0.000851	8.513245	1.442183	-0.000170
1387	1.3791e+02	-7.6096	-41.011243	0.000953	9.526726	1.613871	-0.000191
1388	1.3801e+02	-7.6285	-41.172729	0.000811	8.107852	1.373507	-0.000162
1389	1.3811e+02	-7.6481	-41.414957	0.001216	12.161778	2.060261	-0.000243
1390	1.3821e+02	-7.6697	-41.600665	0.000932	9.324030	1.579533	-0.000187
1391	1.3831e+02	-7.6899	-41.806559	0.001034	10.337511	1.751222	-0.000207
1392	1.3840e+02	-7.7096	-42.020527	0.001074	10.742904	1.819897	-0.000215
1393	1.3850e+02	-7.7284	-42.218347	0.000993	9.932119	1.682546	-0.000199
1394	1.3860e+02	-7.7488	-42.420204	0.001013	10.134815	1.716884	-0.000203
1395	1.3870e+02	-7.7681	-42.646283	0.001135	11.350993	1.922910	-0.000227
1396	1.3880e+02	-7.7882	-42.811806	0.000831	8.310548	1.407845	-0.000166
1397	1.3890e+02	-7.8085	-43.074220	0.001318	13.175260	2.231949	-0.000264
1398	1.3900e+02	-7.8279	-43.243779	0.000851	8.513245	1.442183	-0.000170
1399	1.3910e+02	-7.8479	-43.465822	0.001115	11.148297	1.888573	-0.000223
1400	1.3920e+02	-7.8688	-43.675753	0.001054	10.540208	1.785560	-0.000211
1401	1.3930e+02	-7.8882	-43.889721	0.001074	10.742904	1.819897	-0.000215
1402	1.3940e+02	-7.9080	-44.079467	0.000953	9.526726	1.613871	-0.000191
1403	1.3950e+02	-7.9282	-44.277286	0.000993	9.932119	1.682546	-0.000199
1404	1.3960e+02	-7.9483	-44.491254	0.001074	10.742904	1.819897	-0.000215
1405	1.3970e+02	-7.9674	-44.721371	0.001155	11.553689	1.957248	-0.000231
1406	1.3980e+02	-7.9871	-44.955525	0.001176	11.756386	1.991586	-0.000235
1407	1.3990e+02	-8.0070	-45.125085	0.000851	8.513245	1.442183	-0.000170
1408	1.4000e+02	-8.0272	-45.335016	0.001054	10.540208	1.785560	-0.000211
1409	1.4010e+02	-8.0475	-45.544947	0.001054	10.540208	1.785560	-0.000211
1410	1.4020e+02	-8.0679	-45.771026	0.001135	11.350993	1.922910	-0.000227
1411	1.4029e+02	-8.0873	-45.972883	0.001013	10.134815	1.716884	-0.000203
1412	1.4039e+02	-8.1070	-46.247408	0.001378	13.783349	2.334962	-0.000276
1413	1.4049e+02	-8.1271	-46.421005	0.000872	8.715941	1.476520	-0.000174
1414	1.4059e+02	-8.1467	-46.655159	0.001176	11.756386	1.991586	-0.000235
1415	1.4069e+02	-8.1676	-46.844905	0.000953	9.526726	1.613871	-0.000191
1416	1.4079e+02	-8.1879	-47.087133	0.001216	12.161778	2.060261	-0.000243
1417	1.4089e+02	-8.2066	-47.321287	0.001176	11.756386	1.991586	-0.000235
1418	1.4099e+02	-8.2260	-47.531218	0.001054	10.540208	1.785560	-0.000211
1419	1.4109e+02	-8.2465	-47.757297	0.001135	11.350993	1.922910	-0.000227
1420	1.4119e+02	-8.2664	-47.959154	0.001013	10.134815	1.716884	-0.000203
1421	1.4129e+02	-8.2861	-48.225605	0.001338	13.377956	2.266287	-0.000268
1422	1.4139e+02	-8.3065	-48.407276	0.000912	9.121334	1.545196	-0.000183
1423	1.4149e+02	-8.3255	-48.633356	0.001135	11.350993	1.922910	-0.000227
1424	1.4159e+02	-8.3466	-48.895769	0.001318	13.175260	2.231949	-0.000264
1425	1.4169e+02	-8.3658	-49.146072	0.001257	12.567171	2.128936	-0.000252
1426	1.4179e+02	-8.3859	-49.360040	0.001074	10.742904	1.819897	-0.000215
1427	1.4189e+02	-8.4055	-49.602268	0.001216	12.161778	2.060261	-0.000243
1428	1.4199e+02	-8.4256	-49.836422	0.001176	11.756386	1.991586	-0.000235
1429	1.4209e+02	-8.4447	-50.058465	0.001115	11.148297	1.888573	-0.000223
1430	1.4219e+02	-8.4660	-50.268396	0.001054	10.540208	1.785560	-0.000211
1431	1.4228e+02	-8.4863	-50.502550	0.001176	11.756386	1.991586	-0.000235
1432	1.4238e+02	-8.5055	-50.744778	0.001216	12.161778	2.060261	-0.000243
1433	1.4248e+02	-8.5263	-50.982969	0.001196	11.959082	2.025923	-0.000239
1434	1.4258e+02	-8.5445	-51.192900	0.001054	10.540208	1.785560	-0.000211
1435	1.4268e+02	-8.5651	-51.463388	0.001358	13.580652	2.300625	-0.000272
1436	1.4278e+02	-8.5849	-51.721765	0.001297	12.972563	2.197612	-0.000260
1437	1.4288e+02	-8.6052	-51.943807	0.001115	11.148297	1.888573	-0.000223
1438	1.4298e+02	-8.6258	-52.157775	0.001074	10.742904	1.819897	-0.000215
1439	1.4308e+02	-8.6459	-52.387892	0.001155	11.553689	1.957248	-0.000231
1440	1.4318e+02	-8.6652	-52.670491	0.001419	14.188741	2.403638	-0.000284
1441	1.4328e+02	-8.6844	-52.892534	0.001115	11.148297	1.888573	-0.000223
1442	1.4338e+02	-8.7045	-53.150911	0.001297	12.972563	2.197612	-0.000260
1443	1.4348e+02	-8.7244	-53.397176	0.001236	12.364474	2.094599	-0.000248
1444	1.4358e+02	-8.7447	-53.643441	0.001236	12.364474	2.094599	-0.000248
1445	1.4368e+02	-8.7654	-53.909892	0.001338	13.377956	2.266287	-0.000268
1446	1.4378e+02	-8.7840	-54.168269	0.001297	12.972563	2.197612	-0.000260
1447	1.4388e+02	-8.8034	-54.374163	0.001034	10.337511	1.751222	-0.000207
1448	1.4398e+02	-8.8238	-54.644651	0.001358	13.580652	2.300625	-0.000272
1449	1.4408e+02	-8.8435	-54.874768	0.001155	11.553689	1.957248	-0.000231
1450	1.4418e+02	-8.8635	-55.169478	0.001480	14.796830	2.506651	-0.000296
1451	1.4428e+02	-8.8824	-55.395558	0.001135	11.350993	1.922910	-0.000227
1452	1.4437e+02	-8.9040	-55.637786	0.001216	12.161778	2.060261	-0.000243
1453	1.4447e+02	-8.9238	-55.916349	0.001399	13.986045	2.369300	-0.000280
1454	1.4457e+02	-8.9435	-56.215097	0.001500	14.999526	2.540989	-0.000300
1455	1.4467e+02	-8.9630	-56.449250	0.001176	11.756386	1.991586	-0.000235
1456	1.4477e+02	-8.9838	-56.663219	0.001074	10.742904	1.819897	-0.000215
1457	1.4487e+02	-9.0036	-56.966004	0.001520	15.202223	2.575326	-0.000304
1458	1.4497e+02	-9.0234	-57.244566	0.001399	13.986045	2.369300	-0.000280
1459	1.4507e+02	-9.0432	-57.470646	0.001135	11.350993	1.922910	-0.000227
1460	1.4517e+02	-9.0636	-57.761320	0.001459	14.594134	2.472313	-0.000292
1461	1.4527e+02	-9.0833	-58.039882	0.001399	13.986045	2.369300	-0.000280
1462	1.4537e+02	-9.1028	-58.286147	0.001236	12.364474	2.094599	-0.000248
1463	1.4547e+02	-9.1235	-58.576821	0.001459	14.594134	2.472313	-0.000292
1464	1.4557e+02	-9.1431	-58.875569	0.001500	14.999526	2.540989	-0.000300
1465	1.4567e+02	-9.1628	-59.129909	0.001277	12.769867	2.163274	-0.000256
1466	1.4577e+02	-9.1821	-59.432694	0.001520	15.202223	2.575326	-0.000304
1467	1.4587e+02	-9.2024	-59.735479	0.001520	15.202223	2.575326	-0.000304
1468	1.4597e+02	-9.2232	-60.018078	0.001419	14.188741	2.403638	-0.000284
1469	1.4607e+02	-9.2432	-60.332975	0.001581	15.810312	2.678339	-0.000316
1470	1.4617e+02	-9.2622	-60.591352	0.001297	12.972563	2.197612	-0.000260
1471	1.4626e+02	-9.2831	-60.845691	0.001277	12.769867	2.163274	-0.000256
1472	1.4636e+02	-9.3027	-61.152514	0.001540	15.404919	2.609664	-0.000308
1473	1.4646e+02	-9.3219	-61.439150	0.001439	14.391438	2.437976	-0.000288
1474	1.4656e+02	-9.3414	-61.745973	0.001540	15.404919	2.609664	-0.000308
1475	1.4666e+02	-9.3616	-62.000312	0.001277	12.769867	2.163274	-0.000256
1476	1.4676e+02	-9.3824	-62.351543	0.001763	17.634578	2.987378	-0.000353
1477	1.4686e+02	-9.4022	-62.630105	0.001399	13.986045	2.369300	-0.000280
1478	1.4696e+02	-9.4218	-62.916742	0.001439	14.391438	2.437976	-0.000288
1479	1.4706e+02	-9.4409	-63.215490	0.001500	14.999526	2.540989	-0.000300
1480	1.4716e+02	-9.4620	-63.538461	0.001622	16.215704	2.747015	-0.000325
1481	1.4726e+02	-9.4819	-63.829135	0.001459	14.594134	2.472313	-0.000292
1482	1.4736e+02	-9.5014	-64.188440	0.001804	18.039971	3.056054	-0.000361
1483	1.4746e+02	-9.5210	-64.483151	0.001480	14.796830	2.506651	-0.000296
1484	1.4756e+02	-9.5412	-64.789973	0.001540	15.404919	2.609664	-0.000308
1485	1.4766e+02	-9.5608	-65.092758	0.001520	15.202223	2.575326	-0.000304
1486	1.4776e+02	-9.5808	-65.427840	0.001682	16.823793	2.850028	-0.000337
1487	1.4786e+02	-9.6008	-65.738700	0.001561	15.607615	2.644002	-0.000312
1488	1.4796e+02	-9.6210	-66.069745	0.001662	16.621097	2.815690	-0.000333
1489	1.4806e+02	-9.6400	-66.388679	0.001601	16.013008	2.712677	-0.000321
1490	1.4816e+02	-9.6610	-66.723761	0.001682	16.823793	2.850028	-0.000337
1491	1.4825e+02	-9.6799	-67.054806	0.001662	16.621097	2.815690	-0.000333
1492	1.4835e+02	-9.7000	-67.369703	0.001581	15.810312	2.678339	-0.000316
1493	1.4845e+02	-9.7202	-67.696711	0.001642	16.418401	2.781352	-0.000329
1494	1.4855e+02	-9.7408	-68.023719	0.001642	16.418401	2.781352	-0.000329
1495	1.4865e+02	-9.7605	-68.383024	0.001804	18.039971	3.056054	-0.000361
1496	1.4875e+02	-9.7798	-68.705995	0.001622	16.215704	2.747015	-0.000325
1497	1.4885e+02	-9.8007	-69.012817	0.001540	15.404919	2.609664	-0.000308
1498	1.4895e+02	-9.8199	-69.424605	0.002068	20.675023	3.502444	-0.000414
1499	1.4905e+02	-9.8392	-69.707204	0.001419	14.188741	2.403638	-0.000284
1500	1.4915e+02	-9.8589	-70.090732	0.001926	19.256149	3.262080	-0.000385
1501	1.4925e+02	-9.8804	-70.401592	0.001561	15.607615	2.644002	-0.000312
1502	1.4935e+02	-9.8990	-70.764934	0.001824	18.242667	3.090391	-0.000365
1503	1.4945e+02	-9.9182	-71.124239	0.001804	18.039971	3.056054	-0.000361
1504	1.4955e+02	-9.9388	-71.519878	0.001986	19.864238	3.365093	-0.000398
1505	1.4965e+02	-9.9596	-71.875146	0.001784	17.837275	3.021716	-0.000357
1506	1.4975e+02	-9.9786	-72.226377	0.001763	17.634578	2.987378	-0.000353
1507	1.4985e+02	-9.9997	-72.573571	0.001743	17.431882	2.953041	-0.000349
1508	1.4995e+02	-9.9779	-72.803687	-0.001155	-11.553689	-1.957248	-0.000231
1509	1.5005e+02	-9.9588	-72.953061	-0.000750	-7.499763	-1.270494	-0.000150
1510	1.5015e+02	-9.9386	-73.138770	-0.000932	-9.324030	-1.579533	-0.000187
1511	1.5025e+02	-9.9196	-73.324478	-0.000932	-9.324030	-1.579533	-0.000187
1512	1.5034e+02	-9.8994	-73.449629	-0.000628	-6.283585	-1.064468	-0.000126
1513	1.5044e+02	-9.8798	-73.570743	-0.000608	-6.080889	-1.030130	-0.000122
1514	1.5054e+02	-9.8605	-73.708006	-0.000689	-6.891674	-1.167481	-0.000138
1515	1.5064e+02	-9.8392	-73.849305	-0.000709	-7.094371	-1.201819	-0.000142
1516	1.5074e+02	-9.8201	-73.978494	-0.000649	-6.486282	-1.098806	-0.000130
1517	1.5084e+02	-9.7995	-74.071348	-0.000466	-4.662015	-0.789767	-0.000093
1518	1.5094e+02	-9.7803	-74.208611	-0.000689	-6.891674	-1.167481	-0.000138
1519	1.5104e+02	-9.7602	-74.329725	-0.000608	-6.080889	-1.030130	-0.000122
1520	1.5114e+02	-9.7400	-74.422579	-0.000466	-4.662015	-0.789767	-0.000093
1521	1.5124e+02	-9.7203	-74.519470	-0.000486	-4.864711	-0.824104	-0.000097
1522	1.5134e+02	-9.7000	-74.624436	-0.000527	-5.270104	-0.892780	-0.000105
1523	1.5144e+02	-9.6808	-74.737475	-0.000568	-5.675496	-0.961455	-0.000114
1524	1.5154e+02	-9.6612	-74.781884	-0.000223	-2.229659	-0.377715	-0.000045
1525	1.5164e+02	-9.6407	-74.894924	-0.000568	-5.675496	-0.961455	-0.000114
1526	1.5174e+02	-9.6211	-74.939332	-0.000223	-2.229659	-0.377715	-0.000045
1527	1.5184e+02	-9.6000	-75.028149	-0.000446	-4.459319	-0.755429	-0.000089
1528	1.5194e+02	-9.5815	-75.080632	-0.000264	-2.635052	-0.446390	-0.000053
1529	1.5204e+02	-9.5605	-75.153300	-0.000365	-3.648533	-0.618078	-0.000073
1530	1.5214e+02	-9.5410	-75.225969	-0.000365	-3.648533	-0.618078	-0.000073
1531	1.5224e+02	-9.5214	-75.314786	-0.000446	-4.459319	-0.755429	-0.000089
1532	1.5233e+02	-9.5015	-75.298637	0.000081	0.810785	0.137351	0.000016
1533	1.5243e+02	-9.4819	-75.375343	-0.000385	-3.851230	-0.652416	-0.000077
1534	1.5253e+02	-9.4609	-75.415714	-0.000203	-2.026963	-0.343377	-0.000041
1535	1.5263e+02	-9.4409	-75.480308	-0.000324	-3.243141	-0.549403	-0.000065
1536	1.5273e+02	-9.4209	-75.512605	-0.000162	-1.621570	-0.274701	-0.000032
1537	1.5283e+02	-9.4009	-75.561051	-0.000243	-2.432356	-0.412052	-0.000049
1538	1.5293e+02	-9.3825	-75.597385	-0.000182	-1.824267	-0.309039	-0.000037
1539	1.5303e+02	-9.3614	-75.633719	-0.000182	-1.824267	-0.309039	-0.000037
1540	1.5313e+02	-9.3428	-75.690239	-0.000284	-2.837748	-0.480728	-0.000057
1541	1.5323e+02	-9.3219	-75.682165	0.000041	0.405393	0.068675	0.000008
1542	1.5333e+02	-9.3024	-75.750796	-0.000345	-3.445837	-0.583741	-0.000069
1543	1.5343e+02	-9.2824	-75.758871	-0.000041	-0.405393	-0.068675	-0.000008
1544	1.5353e+02	-9.2622	-75.762908	-0.000020	-0.202696	-0.034338	-0.000004
1545	1.5363e+02	-9.2426	-75.779056	-0.000081	-0.810785	-0.137351	-0.000016
1546	1.5373e+02	-9.2232	-75.779056	0.000000	0.000000	0.000000	0.000000
1547	1.5383e+02	-9.2029	-75.803279	-0.000122	-1.216178	-0.206026	-0.000024
1548	1.5393e+02	-9.1824	-75.827502	-0.000122	-1.216178	-0.206026	-0.000024
1549	1.5403e+02	-9.1628	-75.811353	0.000081	0.810785	0.137351	0.000016
1550	1.5413e+02	-9.1431	-75.843651	-0.000162	-1.621570	-0.274701	-0.000032
1551	1.5422e+02	-9.1240	-75.827502	0.000081	0.810785	0.137351	0.000016
1552	1.5432e+02	-9.1034	-75.831539	-0.000020	-0.202696	-0.034338	-0.000004
1553	1.5442e+02	-9.0825	-75.851725	-0.000101	-1.013482	-0.171688	-0.000020
1554	1.5452e+02	-9.0620	-75.831539	0.000101	1.013482	0.171688	0.000020
1555	1.5462e+02	-9.0433	-75.863836	-0.000162	-1.621570	-0.274701	-0.000032
1556	1.5472e+02	-9.0229	-75.839613	0.000122	1.216178	0.206026	0.000024
1557	1.5482e+02	-9.0034	-75.791168	0.000243	2.432356	0.412052	0.000049
1558	1.5492e+02	-8.9833	-75.803279	-0.000061	-0.608089	-0.103013	-0.000012
1559	1.5502e+02	-8.9626	-75.815391	-0.000061	-0.608089	-0.103013	-0.000012
1560	1.5512e+02	-8.9435	-75.827502	-0.000061	-0.608089	-0.103013	-0.000012
1561	1.5522e+02	-8.9235	-75.775019	0.000264	2.635052	0.446390	0.000053
1562	1.5532e+02	-8.9041	-75.779056	-0.000020	-0.202696	-0.034338	-0.000004
1563	1.5542e+02	-8.8837	-75.726574	0.000264	2.635052	0.446390	0.000053
1564	1.5552e+02	-8.8637	-75.718499	0.000041	0.405393	0.068675	0.000008
1565	1.5562e+02	-8.8433	-75.674091	0.000223	2.229659	0.377715	0.000045
1566	1.5572e+02	-8.8243	-75.710425	-0.000182	-1.824267	-0.309039	-0.000037
1567	1.5582e+02	-8.8048	-75.666017	0.000223	2.229659	0.377715	0.000045
1568	1.5592e+02	-8.7836	-75.674091	-0.000041	-0.405393	-0.068675	-0.000008
1569	1.5602e+02	-8.7643	-75.633719	0.000203	2.026963	0.343377	0.000041
1570	1.5612e+02	-8.7437	-75.605460	0.000142	1.418874	0.240364	0.000028
1571	1.5622e+02	-8.7251	-75.544902	0.000304	3.040445	0.515065	0.000061
1572	1.5631e+02	-8.7048	-75.548940	-0.000020	-0.202696	-0.034338	-0.000004
1573	1.5641e+02	-8.6860	-75.512605	0.000182	1.824267	0.309039	0.000037
1574	1.5651e+02	-8.6646	-75.456086	0.000284	2.837748	0.480728	0.000057
1575	1.5661e+02	-8.6453	-75.443974	0.000061	0.608089	0.103013	0.000012
1576	1.5671e+02	-8.6257	-75.395528	0.000243	2.432356	0.412052	0.000049
1577	1.5681e+02	-8.6047	-75.371306	0.000122	1.216178	0.206026	0.000024
1578	1.5691e+02	-8.5858	-75.322860	0.000243	2.432356	0.412052	0.000049
1579	1.5701e+02	-8.5654	-75.262303	0.000304	3.040445	0.515065	0.000061
1580	1.5711e+02	-8.5441	-75.221932	0.000203	2.026963	0.343377	0.000041
1581	1.5721e+02	-8.5260	-75.189635	0.000162	1.621570	0.274701	0.000032
1582	1.5731e+02	-8.5053	-75.157337	0.000162	1.621570	0.274701	0.000032
1583	1.5741e+02	-8.4863	-75.129078	0.000142	1.418874	0.240364	0.000028
1584	1.5751e+02	-8.4660	-75.040261	0.000446	4.459319	0.755429	0.000089
1585	1.5761e+02	-8.4457	-75.020075	0.000101	1.013482	0.171688	0.000020
1586	1.5771e+02	-8.4251	-74.959518	0.000304	3.040445	0.515065	0.000061
1587	1.5781e+02	-8.4055	-74.947406	0.000061	0.608089	0.103013	0.000012
1588	1.5791e+02	-8.3850	-74.862627	0.000426	4.256622	0.721091	0.000085
1589	1.5801e+02	-8.3654	-74.846478	0.000081	0.810785	0.137351	0.000016
1590	1.5811e+02	-8.3472	-74.785921	0.000304	3.040445	0.515065	0.000061
1591	1.5821e+02	-8.3258	-74.769772	0.000081	0.810785	0.137351	0.000016
1592	1.5830e+02	-8.3067	-74.672881	0.000486	4.864711	0.824104	0.000097
1593	1.5840e+02	-8.2864	-74.632510	0.000203	2.026963	0.343377	0.000041
1594	1.5850e+02	-8.2672	-74.551767	0.000405	4.053926	0.686754	0.000081
1595	1.5860e+02	-8.2473	-74.559841	-0.000041	-0.405393	-0.068675	-0.000008
1596	1.5870e+02	-8.2260	-74.523507	0.000182	1.824267	0.309039	0.000037
1597	1.5880e+02	-8.2065	-74.426616	0.000486	4.864711	0.824104	0.000097
1598	1.5890e+02	-8.1866	-74.382207	0.000223	2.229659	0.377715	0.000045
1599	1.5900e+02	-8.1673	-74.293390	0.000446	4.459319	0.755429	0.000089
1600	1.5910e+02	-8.1476	-74.273205	0.000101	1.013482	0.171688	0.000020
1601	1.5920e+02	-8.1277	-74.156128	0.000588	5.878193	0.995793	0.000118
1602	1.5930e+02	-8.1070	-74.152091	0.000020	0.202696	0.034338	0.000004
1603	1.5940e+02	-8.0865	-74.043088	0.000547	5.472800	0.927117	0.000110
1604	1.5950e+02	-8.0675	-73.994642	0.000243	2.432356	0.412052	0.000049
1605	1.5960e+02	-8.0473	-73.938122	0.000284	2.837748	0.480728	0.000057
1606	1.5970e+02	-8.0272	-73.865454	0.000365	3.648533	0.618078	0.000073
1607	1.5980e+02	-8.0073	-73.845268	0.000101	1.013482	0.171688	0.000020
1608	1.5990e+02	-7.9874	-73.772600	0.000365	3.648533	0.618078	0.000073
1609	1.6000e+02	-7.9672	-73.728191	0.000223	2.229659	0.377715	0.000045
1610	1.6010e+02	-7.9477	-73.635337	0.000466	4.662015	0.789767	0.000093
1611	1.6019e+02	-7.9289	-73.562669	0.000365	3.648533	0.618078	0.000073
1612	1.6029e+02	-7.9080	-73.485963	0.000385	3.851230	0.652416	0.000077
1613	1.6039e+02	-7.8882	-73.385035	0.000507	5.067408	0.858442	0.000101
1614	1.6049e+02	-7.8683	-73.340626	0.000223	2.229659	0.377715	0.000045
1615	1.6059e+02	-7.8476	-73.235661	0.000527	5.270104	0.892780	0.000105
1616	1.6069e+02	-7.8281	-73.207401	0.000142	1.418874	0.240364	0.000028
1617	1.6079e+02	-7.8085	-73.171067	0.000182	1.824267	0.309039	0.000037
1618	1.6089e+02	-7.7872	-73.098398	0.000365	3.648533	0.618078	0.000073
1619	1.6099e+02	-7.7682	-73.025730	0.000365	3.648533	0.618078	0.000073
1620	1.6109e+02	-7.7481	-72.936913	0.000446	4.459319	0.755429	0.000089
1621	1.6119e+02	-7.7283	-72.815799	0.000608	6.080889	1.030130	0.000122
1622	1.6129e+02	-7.7086	-72.787539	0.000142	1.418874	0.240364	0.000028
1623	1.6139e+02	-7.6889	-72.674499	0.000568	5.675496	0.961455	0.000114
1624	1.6149e+02	-7.6686	-72.650276	0.000122	1.216178	0.206026	0.000024
1625	1.6159e+02	-7.6483	-72.585682	0.000324	3.243141	0.549403	0.000065
1626	1.6169e+02	-7.6285	-72.517051	0.000345	3.445837	0.583741	0.000069
1627	1.6179e+02	-7.6096	-72.404011	0.000568	5.675496	0.961455	0.000114
1628	1.6189e+02	-7.5887	-72.375751	0.000142	1.418874	0.240364	0.000028
1629	1.6199e+02	-7.5700	-72.278860	0.000486	4.864711	0.824104	0.000097
1630	1.6209e+02	-7.5504	-72.230414	0.000243	2.432356	0.412052	0.000049
1631	1.6219e+02	-7.5302	-72.149671	0.000405	4.053926	0.686754	0.000081
1632	1.6228e+02	-7.5101	-72.032594	0.000588	5.878193	0.995793	0.000118
1633	1.6238e+02	-7.4899	-72.032594	0.000000	0.000000	0.000000	0.000000
1634	1.6248e+02	-7.4702	-71.919555	0.000568	5.675496	0.961455	0.000114
1635	1.6258e+02	-7.4496	-71.814589	0.000527	5.270104	0.892780	0.000105
1636	1.6268e+02	-7.4301	-71.754032	0.000304	3.040445	0.515065	0.000061
1637	1.6278e+02	-7.4104	-71.693475	0.000304	3.040445	0.515065	0.000061
1638	1.6288e+02	-7.3904	-71.624844	0.000345	3.445837	0.583741	0.000069
1639	1.6298e+02	-7.3708	-71.540064	0.000426	4.256622	0.721091	0.000085
1640	1.6308e+02	-7.3502	-71.471433	0.000345	3.445837	0.583741	0.000069
1641	1.6318e+02	-7.3310	-71.386653	0.000426	4.256622	0.721091	0.000085
1642	1.6328e+02	-7.3104	-71.313984	0.000365	3.648533	0.618078	0.000073
1643	1.6338e+02	-7.2911	-71.237279	0.000385	3.851230	0.652416	0.000077
1644	1.6348e+02	-7.2702	-71.176722	0.000304	3.040445	0.515065	0.000061
1645	1.6358e+02	-7.2513	-71.087905	0.000446	4.459319	0.755429	0.000089
1646	1.6368e+02	-7.2311	-71.011199	0.000385	3.851230	0.652416	0.000077
1647	1.6378e+02	-7.2116	-70.914308	0.000486	4.864711	0.824104	0.000097
1648	1.6388e+02	-7.1918	-70.809342	0.000527	5.270104	0.892780	0.000105
1649	1.6398e+02	-7.1719	-70.732637	0.000385	3.851230	0.652416	0.000077
1650	1.6408e+02	-7.1521	-70.676117	0.000284	2.837748	0.480728	0.000057
1651	1.6418e+02	-7.1313	-70.567114	0.000547	5.472800	0.927117	0.000110
1652	1.6427e+02	-7.1117	-70.534817	0.000162	1.621570	0.274701	0.000032
1653	1.6437e+02	-7.0921	-70.437926	0.000486	4.864711	0.824104	0.000097
1654	1.6447e+02	-7.0711	-70.353146	0.000426	4.256622	0.721091	0.000085
1655	1.6457e+02	-7.0511	-70.280477	0.000365	3.648533	0.618078	0.000073
1656	1.6467e+02	-7.0321	-70.211846	0.000345	3.445837	0.583741	0.000069
1657	1.6477e+02	-7.0116	-70.106881	0.000527	5.270104	0.892780	0.000105
1658	1.6487e+02	-6.9913	-70.030175	0.000385	3.851230	0.652416	0.000077
1659	1.6497e+02	-6.9721	-69.929247	0.000507	5.067408	0.858442	0.000101
1660	1.6507e+02	-6.9519	-69.892912	0.000182	1.824267	0.309039	0.000037
1661	1.6517e+02	-6.9312	-69.775836	0.000588	5.878193	0.995793	0.000118
1662	1.6527e+02	-6.9118	-69.727390	0.000243	2.432356	0.412052	0.000049
1663	1.6537e+02	-6.8921	-69.582053	0.000730	7.297067	1.236157	0.000146
1664	1.6547e+02	-6.8725	-69.561867	0.000101	1.013482	0.171688	0.000020
1665	1.6557e+02	-6.8527	-69.473050	0.000446	4.459319	0.755429	0.000089
1666	1.6567e+02	-6.8328	-69.355973	0.000588	5.878193	0.995793	0.000118
1667	1.6577e+02	-6.8132	-69.323676	0.000162	1.621570	0.274701	0.000032
1668	1.6587e+02	-6.7923	-69.198525	0.000628	6.283585	1.064468	0.000126
1669	1.6597e+02	-6.7725	-69.150079	0.000243	2.432356	0.412052	0.000049
1670	1.6607e+02	-6.7531	-69.028965	0.000608	6.080889	1.030130	0.000122
1671	1.6616e+02	-6.7329	-68.976483	0.000264	2.635052	0.446390	0.000053
1672	1.6626e+02	-6.7139	-68.903814	0.000365	3.648533	0.618078	0.000073
1673	1.6636e+02	-6.6931	-68.790774	0.000568	5.675496	0.961455	0.000114
1674	1.6646e+02	-6.6736	-68.693883	0.000486	4.864711	0.824104	0.000097
1675	1.6656e+02	-6.6522	-68.625252	0.000345	3.445837	0.583741	0.000069
1676	1.6666e+02	-6.6339	-68.536435	0.000446	4.459319	0.755429	0.000089
1677	1.6676e+02	-6.6138	-68.435506	0.000507	5.067408	0.858442	0.000101
1678	1.6686e+02	-6.5941	-68.330541	0.000527	5.270104	0.892780	0.000105
1679	1.6696e+02	-6.5729	-68.290170	0.000203	2.026963	0.343377	0.000041
1680	1.6706e+02	-6.5540	-68.169056	0.000608	6.080889	1.030130	0.000122
1681	1.6716e+02	-6.5343	-68.100424	0.000345	3.445837	0.583741	0.000069
1682	1.6726e+02	-6.5131	-68.023719	0.000385	3.851230	0.652416	0.000077
1683	1.6736e+02	-6.4944	-67.938939	0.000426	4.256622	0.721091	0.000085
1684	1.6746e+02	-6.4741	-67.850122	0.000446	4.459319	0.755429	0.000089
1685	1.6756e+02	-6.4538	-67.729008	0.000608	6.080889	1.030130	0.000122
1686	1.6766e+02	-6.4337	-67.684599	0.000223	2.229659	0.377715	0.000045
1687	1.6776e+02	-6.4136	-67.567522	0.000588	5.878193	0.995793	0.000118
1688	1.6786e+02	-6.3943	-67.502928	0.000324	3.243141	0.549403	0.000065
1689	1.6796e+02	-6.3741	-67.406037	0.000486	4.864711	0.824104	0.000097
1690	1.6806e+02	-6.3546	-67.301071	0.000527	5.270104	0.892780	0.000105
1691	1.6816e+02	-6.3350	-67.224366	0.000385	3.851230	0.652416	0.000077
1692	1.6825e+02	-6.3149	-67.107289	0.000588	5.878193	0.995793	0.000118
1693	1.6835e+02	-6.2956	-67.054806	0.000264	2.635052	0.446390	0.000053
1694	1.6845e+02	-6.2750	-66.982138	0.000365	3.648533	0.618078	0.000073
1695	1.6855e+02	-6.2550	-66.873135	0.000547	5.472800	0.927117	0.000110
1696	1.6865e+02	-6.2349	-66.756058	0.000588	5.878193	0.995793	0.000118
1697	1.6875e+02	-6.2161	-66.679352	0.000385	3.851230	0.652416	0.000077
1698	1.6885e+02	-6.1948	-66.574387	0.000527	5.270104	0.892780	0.000105
1699	1.6895e+02	-6.1752	-66.534016	0.000203	2.026963	0.343377	0.000041
1700	1.6905e+02	-6.1554	-66.416939	0.000588	5.878193	0.995793	0.000118
1701	1.6915e+02	-6.1365	-66.311973	0.000527	5.270104	0.892780	0.000105
1702	1.6925e+02	-6.1153	-66.247379	0.000324	3.243141	0.549403	0.000065
1703	1.6935e+02	-6.0950	-66.186822	0.000304	3.040445	0.515065	0.000061
1704	1.6945e+02	-6.0751	-66.081856	0.000527	5.270104	0.892780	0.000105
1705	1.6955e+02	-6.0556	-65.956705	0.000628	6.283585	1.064468	0.000126
1706	1.6965e+02	-6.0376	-65.875962	0.000405	4.053926	0.686754	0.000081
1707	1.6975e+02	-6.0162	-65.795220	0.000405	4.053926	0.686754	0.000081
1708	1.6985e+02	-5.9960	-65.682180	0.000568	5.675496	0.961455	0.000114
1709	1.6995e+02	-5.9756	-65.597400	0.000426	4.256622	0.721091	0.000085
1710	1.7005e+02	-5.9564	-65.476286	0.000608	6.080889	1.030130	0.000122
1711	1.7015e+02	-5.9361	-65.403618	0.000365	3.648533	0.618078	0.000073
1712	1.7024e+02	-5.9171	-65.330949	0.000365	3.648533	0.618078	0.000073
1713	1.7034e+02	-5.8959	-65.209835	0.000608	6.080889	1.030130	0.000122
1714	1.7044e+02	-5.8759	-65.129092	0.000405	4.053926	0.686754	0.000081
1715	1.7054e+02	-5.8572	-65.056424	0.000365	3.648533	0.618078	0.000073
1716	1.7064e+02	-5.8362	-64.935310	0.000608	6.080889	1.030130	0.000122
1717	1.7074e+02	-5.8163	-64.838419	0.000486	4.864711	0.824104	0.000097
1718	1.7084e+02	-5.7967	-64.741527	0.000486	4.864711	0.824104	0.000097
1719	1.7094e+02	-5.7784	-64.632525	0.000547	5.472800	0.927117	0.000110
1720	1.7104e+02	-5.7564	-64.527559	0.000527	5.270104	0.892780	0.000105
1721	1.7114e+02	-5.7368	-64.446816	0.000405	4.053926	0.686754	0.000081
1722	1.7124e+02	-5.7166	-64.325702	0.000608	6.080889	1.030130	0.000122
1723	1.7134e+02	-5.6970	-64.212662	0.000568	5.675496	0.961455	0.000114
1724	1.7144e+02	-5.6770	-64.148068	0.000324	3.243141	0.549403	0.000065
1725	1.7154e+02	-5.6564	-64.002731	0.000730	7.297067	1.236157	0.000146
1726	1.7164e+02	-5.6372	-63.921989	0.000405	4.053926	0.686754	0.000081
1727	1.7174e+02	-5.6177	-63.792800	0.000649	6.486282	1.098806	0.000130
1728	1.7184e+02	-5.5978	-63.776652	0.000081	0.810785	0.137351	0.000016
1729	1.7194e+02	-5.5780	-63.607092	0.000851	8.513245	1.442183	0.000170
1730	1.7204e+02	-5.5573	-63.570758	0.000182	1.824267	0.309039	0.000037
1731	1.7213e+02	-5.5381	-63.409272	0.000811	8.107852	1.373507	0.000162
1732	1.7223e+02	-5.5173	-63.320455	0.000446	4.459319	0.755429	0.000089
1733	1.7233e+02	-5.4980	-63.223564	0.000486	4.864711	0.824104	0.000097
1734	1.7243e+02	-5.4773	-63.138784	0.000426	4.256622	0.721091	0.000085
1735	1.7253e+02	-5.4575	-62.997485	0.000709	7.094371	1.201819	0.000142
1736	1.7263e+02	-5.4381	-62.892519	0.000527	5.270104	0.892780	0.000105
1737	1.7273e+02	-5.4169	-62.827925	0.000324	3.243141	0.549403	0.000065
1738	1.7283e+02	-5.3983	-62.662402	0.000831	8.310548	1.407845	0.000166
1739	1.7293e+02	-5.3781	-62.561474	0.000507	5.067408	0.858442	0.000101
1740	1.7303e+02	-5.3577	-62.480731	0.000405	4.053926	0.686754	0.000081
1741	1.7313e+02	-5.3387	-62.375766	0.000527	5.270104	0.892780	0.000105
1742	1.7323e+02	-5.3188	-62.262726	0.000568	5.675496	0.961455	0.000114
1743	1.7333e+02	-5.2987	-62.157760	0.000527	5.270104	0.892780	0.000105
1744	1.7343e+02	-5.2785	-62.072981	0.000426	4.256622	0.721091	0.000085
1745	1.7353e+02	-5.2594	-61.947829	0.000628	6.283585	1.064468	0.000126
1746	1.7363e+02	-5.2384	-61.838827	0.000547	5.472800	0.927117	0.000110
1747	1.7373e+02	-5.2194	-61.717713	0.000608	6.080889	1.030130	0.000122
1748	1.7383e+02	-5.1988	-61.632933	0.000426	4.256622	0.721091	0.000085
1749	1.7393e+02	-5.1791	-61.527967	0.000527	5.270104	0.892780	0.000105
1750	1.7403e+02	-5.1582	-61.398779	0.000649	6.486282	1.098806	0.000130
1751	1.7413e+02	-5.1395	-61.350333	0.000243	2.432356	0.412052	0.000049
1752	1.7422e+02	-5.1189	-61.221145	0.000649	6.486282	1.098806	0.000130
1753	1.7432e+02	-5.0993	-61.104068	0.000588	5.878193	0.995793	0.000118
1754	1.7442e+02	-5.0793	-60.974880	0.000649	6.486282	1.098806	0.000130
1755	1.7452e+02	-5.0595	-60.882025	0.000466	4.662015	0.789767	0.000093
1756	1.7462e+02	-5.0391	-60.789171	0.000466	4.662015	0.789767	0.000093
1757	1.7472e+02	-5.0200	-60.700354	0.000446	4.459319	0.755429	0.000089
1758	1.7482e+02	-4.9999	-60.542906	0.000791	7.905156	1.339170	0.000158
1759	1.7492e+02	-4.9797	-60.466201	0.000385	3.851230	0.652416	0.000077
1760	1.7502e+02	-4.9615	-60.328938	0.000689	6.891674	1.167481	0.000138
1761	1.7512e+02	-4.9401	-60.256269	0.000365	3.648533	0.618078	0.000073
1762	1.7522e+02	-4.9207	-60.135155	0.000608	6.080889	1.030130	0.000122
1763	1.7532e+02	-4.9001	-59.969633	0.000831	8.310548	1.407845	0.000166
1764	1.7542e+02	-4.8807	-59.901002	0.000345	3.445837	0.583741	0.000069
1765	1.7552e+02	-4.8599	-59.796036	0.000527	5.270104	0.892780	0.000105
1766	1.7562e+02	-4.8405	-59.678959	0.000588	5.878193	0.995793	0.000118
1767	1.7572e+02	-4.8203	-59.537659	0.000709	7.094371	1.201819	0.000142
1768	1.7582e+02	-4.8003	-59.464991	0.000365	3.648533	0.618078	0.000073
1769	1.7592e+02	-4.7806	-59.351951	0.000568	5.675496	0.961455	0.000114
1770	1.7602e+02	-4.7604	-59.214688	0.000689	6.891674	1.167481	0.000138
1771	1.7612e+02	-4.7408	-59.113760	0.000507	5.067408	0.858442	0.000101
1772	1.7621e+02	-4.7216	-59.016869	0.000486	4.864711	0.824104	0.000097
1773	1.7631e+02	-4.7006	-58.895755	0.000608	6.080889	1.030130	0.000122
1774	1.7641e+02	-4.6808	-58.762529	0.000669	6.688978	1.133144	0.000134
1775	1.7651e+02	-4.6606	-58.629304	0.000669	6.688978	1.133144	0.000134
1776	1.7661e+02	-4.6393	-58.532412	0.000486	4.864711	0.824104	0.000097
1777	1.7671e+02	-4.6213	-58.387076	0.000730	7.297067	1.236157	0.000146
1778	1.7681e+02	-4.6014	-58.322481	0.000324	3.243141	0.549403	0.000065
1779	1.7691e+02	-4.5822	-58.169070	0.000770	7.702460	1.304832	0.000154
1780	1.7701e+02	-4.5618	-58.080253	0.000446	4.459319	0.755429	0.000089
1781	1.7711e+02	-4.5414	-57.930879	0.000750	7.499763	1.270494	0.000150
1782	1.7721e+02	-4.5217	-57.821877	0.000547	5.472800	0.927117	0.000110
1783	1.7731e+02	-4.5012	-57.733060	0.000446	4.459319	0.755429	0.000089
1784	1.7741e+02	-4.4812	-57.607908	0.000628	6.283585	1.064468	0.000126
1785	1.7751e+02	-4.4609	-57.486794	0.000608	6.080889	1.030130	0.000122
1786	1.7761e+02	-4.4426	-57.357606	0.000649	6.486282	1.098806	0.000130
1787	1.7771e+02	-4.4218	-57.252640	0.000527	5.270104	0.892780	0.000105
1788	1.7781e+02	-4.4023	-57.111341	0.000709	7.094371	1.201819	0.000142
1789	1.7791e+02	-4.3823	-57.030598	0.000405	4.053926	0.686754	0.000081
1790	1.7801e+02	-4.3616	-56.848927	0.000912	9.121334	1.545196	0.000183
1791	1.7810e+02	-4.3423	-56.752036	0.000486	4.864711	0.824104	0.000097
1792	1.7820e+02	-4.3225	-56.618810	0.000669	6.688978	1.133144	0.000134
1793	1.7830e+02	-4.3022	-56.505770	0.000568	5.675496	0.961455	0.000114
1794	1.7840e+02	-4.2824	-56.408879	0.000486	4.864711	0.824104	0.000097
1795	1.7850e+02	-4.2628	-56.279691	0.000649	6.486282	1.098806	0.000130
1796	1.7860e+02	-4.2426	-56.182799	0.000486	4.864711	0.824104	0.000097
1797	1.7870e+02	-4.2224	-56.033425	0.000750	7.499763	1.270494	0.000150
1798	1.7880e+02	-4.2025	-55.944608	0.000446	4.459319	0.755429	0.000089
1799	1.7890e+02	-4.1823	-55.787160	0.000791	7.905156	1.339170	0.000158
1800	1.7900e+02	-4.1617	-55.690269	0.000486	4.864711	0.824104	0.000097
1801	1.7910e+02	-4.1428	-55.581266	0.000547	5.472800	0.927117	0.000110
1802	1.7920e+02	-4.1234	-55.452078	0.000649	6.486282	1.098806	0.000130
1803	1.7930e+02	-4.1028	-55.367298	0.000426	4.256622	0.721091	0.000085
1804	1.7940e+02	-4.0829	-55.221961	0.000730	7.297067	1.236157	0.000146
1805	1.7950e+02	-4.0630	-55.141218	0.000405	4.053926	0.686754	0.000081
1806	1.7960e+02	-4.0433	-55.007993	0.000669	6.688978	1.133144	0.000134
1807	1.7970e+02	-4.0230	-54.866693	0.000709	7.094371	1.201819	0.000142
1808	1.7980e+02	-4.0030	-54.749616	0.000588	5.878193	0.995793	0.000118
1809	1.7990e+02	-3.9834	-54.628502	0.000608	6.080889	1.030130	0.000122
1810	1.8000e+02	-3.9641	-54.535648	0.000466	4.662015	0.789767	0.000093
1811	1.8009e+02	-3.9430	-54.434720	0.000507	5.067408	0.858442	0.000101
1812	1.8019e+02	-3.9230	-54.273234	0.000811	8.107852	1.373507	0.000162
1813	1.8029e+02	-3.9043	-54.164232	0.000547	5.472800	0.927117	0.000110
1814	1.8039e+02	-3.8838	-54.022932	0.000709	7.094371	1.201819	0.000142
1815	1.8049e+02	-3.8632	-53.885669	0.000689	6.891674	1.167481	0.000138
1816	1.8059e+02	-3.8443	-53.813001	0.000365	3.648533	0.618078	0.000073
1817	1.8069e+02	-3.8238	-53.703998	0.000547	5.472800	0.927117	0.000110
1818	1.8079e+02	-3.8039	-53.522327	0.000912	9.121334	1.545196	0.000183
1819	1.8089e+02	-3.7848	-53.429473	0.000466	4.662015	0.789767	0.000093
1820	1.8099e+02	-3.7653	-53.304322	0.000628	6.283585	1.064468	0.000126
1821	1.8109e+02	-3.7448	-53.243765	0.000304	3.040445	0.515065	0.000061
1822	1.8119e+02	-3.7250	-53.090354	0.000770	7.702460	1.304832	0.000154
1823	1.8129e+02	-3.7054	-52.957128	0.000669	6.688978	1.133144	0.000134
1824	1.8139e+02	-3.6850	-52.864274	0.000466	4.662015	0.789767	0.000093
1825	1.8149e+02	-3.6656	-52.775457	0.000446	4.459319	0.755429	0.000089
1826	1.8159e+02	-3.6449	-52.589749	0.000932	9.324030	1.579533	0.000187
1827	1.8169e+02	-3.6252	-52.509006	0.000405	4.053926	0.686754	0.000081
1828	1.8179e+02	-3.6049	-52.359632	0.000750	7.499763	1.270494	0.000150
1829	1.8189e+02	-3.5866	-52.242555	0.000588	5.878193	0.995793	0.000118
1830	1.8199e+02	-3.5660	-52.129515	0.000568	5.675496	0.961455	0.000114
1831	1.8209e+02	-3.5452	-52.004364	0.000628	6.283585	1.064468	0.000126
1832	1.8218e+02	-3.5253	-51.891324	0.000568	5.675496	0.961455	0.000114
1833	1.8228e+02	-3.5051	-51.758099	0.000669	6.688978	1.133144	0.000134
1834	1.8238e+02	-3.4853	-51.636985	0.000608	6.080889	1.030130	0.000122
1835	1.8248e+02	-3.4644	-51.560279	0.000385	3.851230	0.652416	0.000077
1836	1.8258e+02	-3.4451	-51.378608	0.000912	9.121334	1.545196	0.000183
1837	1.8268e+02	-3.4258	-51.281717	0.000486	4.864711	0.824104	0.000097
1838	1.8278e+02	-3.4062	-51.168677	0.000568	5.675496	0.961455	0.000114
1839	1.8288e+02	-3.3864	-51.031414	0.000689	6.891674	1.167481	0.000138
1840	1.8298e+02	-3.3661	-50.910300	0.000608	6.080889	1.030130	0.000122
1841	1.8308e+02	-3.3462	-50.773038	0.000689	6.891674	1.167481	0.000138
1842	1.8318e+02	-3.3274	-50.692295	0.000405	4.053926	0.686754	0.000081
1843	1.8328e+02	-3.3063	-50.522735	0.000851	8.513245	1.442183	0.000170
1844	1.8338e+02	-3.2857	-50.462178	0.000304	3.040445	0.515065	0.000061
1845	1.8348e+02	-3.2668	-50.292618	0.000851	8.513245	1.442183	0.000170
1846	1.8358e+02	-3.2471	-50.151319	0.000709	7.094371	1.201819	0.000142
1847	1.8368e+02	-3.2266	-50.018093	0.000669	6.688978	1.133144	0.000134
1848	1.8378e+02	-3.2069	-49.949462	0.000345	3.445837	0.583741	0.000069
1849	1.8388e+02	-3.1860	-49.828348	0.000608	6.080889	1.030130	0.000122
1850	1.8398e+02	-3.1662	-49.683011	0.000730	7.297067	1.236157	0.000146
1851	1.8407e+02	-3.1469	-49.557860	0.000628	6.283585	1.064468	0.000126
1852	1.8417e+02	-3.1268	-49.432709	0.000628	6.283585	1.064468	0.000126
1853	1.8427e+02	-3.1069	-49.287372	0.000730	7.297067	1.236157	0.000146
1854	1.8437e+02	-3.0867	-49.194518	0.000466	4.662015	0.789767	0.000093
1855	1.8447e+02	-3.0674	-49.045144	0.000750	7.499763	1.270494	0.000150
1856	1.8457e+02	-3.0469	-48.936141	0.000547	5.472800	0.927117	0.000110
1857	1.8467e+02	-3.0261	-48.835212	0.000507	5.067408	0.858442	0.000101
1858	1.8477e+02	-3.0070	-48.706024	0.000649	6.486282	1.098806	0.000130
1859	1.8487e+02	-2.9879	-48.540502	0.000831	8.310548	1.407845	0.000166
1860	1.8497e+02	-2.9675	-48.435536	0.000527	5.270104	0.892780	0.000105
1861	1.8507e+02	-2.9477	-48.298273	0.000689	6.891674	1.167481	0.000138
1862	1.8517e+02	-2.9272	-48.213494	0.000426	4.256622	0.721091	0.000085
1863	1.8527e+02	-2.9079	-48.096417	0.000588	5.878193	0.995793	0.000118
1864	1.8537e+02	-2.8878	-47.967228	0.000649	6.486282	1.098806	0.000130
1865	1.8547e+02	-2.8677	-47.821891	0.000730	7.297067	1.236157	0.000146
1866	1.8557e+02	-2.8481	-47.648295	0.000872	8.715941	1.476520	0.000174
1867	1.8567e+02	-2.8284	-47.547366	0.000507	5.067408	0.858442	0.000101
1868	1.8577e+02	-2.8076	-47.418178	0.000649	6.486282	1.098806	0.000130
1869	1.8587e+02	-2.7882	-47.317249	0.000507	5.067408	0.858442	0.000101
1870	1.8597e+02	-2.7690	-47.184024	0.000669	6.688978	1.133144	0.000134
1871	1.8606e+02	-2.7482	-47.054836	0.000649	6.486282	1.098806	0.000130
1872	1.8616e+02	-2.7291	-46.933722	0.000608	6.080889	1.030130	0.000122
1873	1.8626e+02	-2.7080	-46.808570	0.000628	6.283585	1.064468	0.000126
1874	1.8636e+02	-2.6890	-46.695531	0.000568	5.675496	0.961455	0.000114
1875	1.8646e+02	-2.6684	-46.542119	0.000770	7.702460	1.304832	0.000154
1876	1.8656e+02	-2.6494	-46.412931	0.000649	6.486282	1.098806	0.000130
1877	1.8666e+02	-2.6290	-46.283743	0.000649	6.486282	1.098806	0.000130
1878	1.8676e+02	-2.6085	-46.150517	0.000669	6.688978	1.133144	0.000134
1879	1.8686e+02	-2.5887	-46.029403	0.000608	6.080889	1.030130	0.000122
1880	1.8696e+02	-2.5681	-45.936549	0.000466	4.662015	0.789767	0.000093
1881	1.8706e+02	-2.5491	-45.758915	0.000892	8.918637	1.510858	0.000179
1882	1.8716e+02	-2.5282	-45.645875	0.000568	5.675496	0.961455	0.000114
1883	1.8726e+02	-2.5096	-45.532835	0.000568	5.675496	0.961455	0.000114
1884	1.8736e+02	-2.4895	-45.375387	0.000791	7.905156	1.339170	0.000158
1885	1.8746e+02	-2.4696	-45.282533	0.000466	4.662015	0.789767	0.000093
1886	1.8756e+02	-2.4502	-45.121048	0.000811	8.107852	1.373507	0.000162
1887	1.8766e+02	-2.4303	-44.987822	0.000669	6.688978	1.133144	0.000134
1888	1.8776e+02	-2.4105	-44.882857	0.000527	5.270104	0.892780	0.000105
1889	1.8786e+02	-2.3901	-44.713297	0.000851	8.513245	1.442183	0.000170
1890	1.8796e+02	-2.3704	-44.559886	0.000770	7.702460	1.304832	0.000154
1891	1.8806e+02	-2.3505	-44.462994	0.000486	4.864711	0.824104	0.000097
1892	1.8815e+02	-2.3306	-44.297472	0.000831	8.310548	1.407845	0.000166
1893	1.8825e+02	-2.3103	-44.196543	0.000507	5.067408	0.858442	0.000101
1894	1.8835e+02	-2.2911	-44.063318	0.000669	6.688978	1.133144	0.000134
1895	1.8845e+02	-2.2707	-43.905870	0.000791	7.905156	1.339170	0.000158
1896	1.8855e+02	-2.2506	-43.772644	0.000669	6.688978	1.133144	0.000134
1897	1.8865e+02	-2.2308	-43.659604	0.000568	5.675496	0.961455	0.000114
1898	1.8875e+02	-2.2112	-43.502156	0.000791	7.905156	1.339170	0.000158
1899	1.8885e+02	-2.1909	-43.332596	0.000851	8.513245	1.442183	0.000170
1900	1.8895e+02	-2.1714	-43.227631	0.000527	5.270104	0.892780	0.000105
1901	1.8905e+02	-2.1506	-43.082294	0.000730	7.297067	1.236157	0.000146
1902	1.8915e+02	-2.1314	-42.961180	0.000608	6.080889	1.030130	0.000122
1903	1.8925e+02	-2.1115	-42.831992	0.000649	6.486282	1.098806	0.000130
1904	1.8935e+02	-2.0913	-42.690692	0.000709	7.094371	1.201819	0.000142
1905	1.8945e+02	-2.0713	-42.573615	0.000588	5.878193	0.995793	0.000118
1906	1.8955e+02	-2.0520	-42.408092	0.000831	8.310548	1.407845	0.000166
1907	1.8965e+02	-2.0311	-42.250644	0.000791	7.905156	1.339170	0.000158
1908	1.8975e+02	-2.0110	-42.149716	0.000507	5.067408	0.858442	0.000101
1909	1.8985e+02	-1.9907	-41.988230	0.000811	8.107852	1.373507	0.000162
1910	1.8995e+02	-1.9712	-41.855005	0.000669	6.688978	1.133144	0.000134
1911	1.9004e+02	-1.9524	-41.741965	0.000568	5.675496	0.961455	0.000114
1912	1.9014e+02	-1.9321	-41.592591	0.000750	7.499763	1.270494	0.000150
1913	1.9024e+02	-1.9118	-41.435143	0.000791	7.905156	1.339170	0.000158
1914	1.9034e+02	-1.8929	-41.305954	0.000649	6.486282	1.098806	0.000130
1915	1.9044e+02	-1.8721	-41.164655	0.000709	7.094371	1.201819	0.000142
1916	1.9054e+02	-1.8521	-41.011243	0.000770	7.702460	1.304832	0.000154
1917	1.9064e+02	-1.8314	-40.898204	0.000568	5.675496	0.961455	0.000114
1918	1.9074e+02	-1.8123	-40.736718	0.000811	8.107852	1.373507	0.000162
1919	1.9084e+02	-1.7925	-40.627715	0.000547	5.472800	0.927117	0.000110
1920	1.9094e+02	-1.7725	-40.490453	0.000689	6.891674	1.167481	0.000138
1921	1.9104e+02	-1.7521	-40.316856	0.000872	8.715941	1.476520	0.000174
1922	1.9114e+02	-1.7326	-40.183631	0.000669	6.688978	1.133144	0.000134
1923	1.9124e+02	-1.7128	-40.054442	0.000649	6.486282	1.098806	0.000130
1924	1.9134e+02	-1.6915	-39.884883	0.000851	8.513245	1.442183	0.000170
1925	1.9144e+02	-1.6730	-39.743583	0.000709	7.094371	1.201819	0.000142
1926	1.9154e+02	-1.6531	-39.622469	0.000608	6.080889	1.030130	0.000122
1927	1.9164e+02	-1.6331	-39.533652	0.000446	4.459319	0.755429	0.000089
1928	1.9174e+02	-1.6130	-39.356018	0.000892	8.918637	1.510858	0.000179
1929	1.9184e+02	-1.5930	-39.178384	0.000892	8.918637	1.510858	0.000179
1930	1.9194e+02	-1.5733	-39.016898	0.000811	8.107852	1.373507	0.000162
1931	1.9203e+02	-1.5527	-38.911933	0.000527	5.270104	0.892780	0.000105
1932	1.9213e+02	-1.5336	-38.778707	0.000669	6.688978	1.133144	0.000134
1933	1.9223e+02	-1.5131	-38.625296	0.000770	7.702460	1.304832	0.000154
1934	1.9233e+02	-1.4928	-38.463811	0.000811	8.107852	1.373507	0.000162
1935	1.9243e+02	-1.4726	-38.362882	0.000507	5.067408	0.858442	0.000101
1936	1.9253e+02	-1.4531	-38.229657	0.000669	6.688978	1.133144	0.000134
1937	1.9263e+02	-1.4336	-38.068171	0.000811	8.107852	1.373507	0.000162
1938	1.9273e+02	-1.4136	-37.930909	0.000689	6.891674	1.167481	0.000138
1939	1.9283e+02	-1.3936	-37.769423	0.000811	8.107852	1.373507	0.000162
1940	1.9293e+02	-1.3744	-37.591789	0.000892	8.918637	1.510858	0.000179
1941	1.9303e+02	-1.3530	-37.470675	0.000608	6.080889	1.030130	0.000122
1942	1.9313e+02	-1.3335	-37.305153	0.000831	8.310548	1.407845	0.000166
1943	1.9323e+02	-1.3135	-37.180002	0.000628	6.283585	1.064468	0.000126
1944	1.9333e+02	-1.2949	-37.054850	0.000628	6.283585	1.064468	0.000126
1945	1.9343e+02	-1.2751	-36.877216	0.000892	8.918637	1.510858	0.000179
1946	1.9353e+02	-1.2541	-36.719768	0.000791	7.905156	1.339170	0.000158
1947	1.9363e+02	-1.2343	-36.546171	0.000872	8.715941	1.476520	0.000174
1948	1.9373e+02	-1.2152	-36.441206	0.000527	5.270104	0.892780	0.000105
1949	1.9383e+02	-1.1950	-36.312017	0.000649	6.486282	1.098806	0.000130
1950	1.9393e+02	-1.1745	-36.122272	0.000953	9.526726	1.613871	0.000191
1951	1.9403e+02	-1.1559	-35.952712	0.000851	8.513245	1.442183	0.000170
1952	1.9412e+02	-1.1355	-35.847747	0.000527	5.270104	0.892780	0.000105
1953	1.9422e+02	-1.1148	-35.690298	0.000791	7.905156	1.339170	0.000158
1954	1.9432e+02	-1.0957	-35.532850	0.000791	7.905156	1.339170	0.000158
1955	1.9442e+02	-1.0745	-35.387513	0.000730	7.297067	1.236157	0.000146
1956	1.9452e+02	-1.0555	-35.238139	0.000750	7.499763	1.270494	0.000150
1957	1.9462e+02	-1.0354	-35.100877	0.000689	6.891674	1.167481	0.000138
1958	1.9472e+02	-1.0166	-34.983800	0.000588	5.878193	0.995793	0.000118
1959	1.9482e+02	-0.9947	-34.814240	0.000851	8.513245	1.442183	0.000170
1960	1.9492e+02	-0.9757	-34.652755	0.000811	8.107852	1.373507	0.000162
1961	1.9502e+02	-0.9557	-34.483195	0.000851	8.513245	1.442183	0.000170
1962	1.9512e+02	-0.9349	-34.354007	0.000649	6.486282	1.098806	0.000130
1963	1.9522e+02	-0.9164	-34.269227	0.000426	4.256622	0.721091	0.000085
1964	1.9532e+02	-0.8957	-34.067370	0.001013	10.134815	1.716884	0.000203
1965	1.9542e+02	-0.8757	-33.909922	0.000791	7.905156	1.339170	0.000158
1966	1.9552e+02	-0.8555	-33.756510	0.000770	7.702460	1.304832	0.000154
1967	1.9562e+02	-0.8359	-33.599062	0.000791	7.905156	1.339170	0.000158
1968	1.9572e+02	-0.8167	-33.433540	0.000831	8.310548	1.407845	0.000166
1969	1.9582e+02	-0.7965	-33.320500	0.000568	5.675496	0.961455	0.000114
1970	1.9592e+02	-0.7761	-33.175163	0.000730	7.297067	1.236157	0.000146
1971	1.9601e+02	-0.7563	-33.045975	0.000649	6.486282	1.098806	0.000130
1972	1.9611e+02	-0.7368	-32.900638	0.000730	7.297067	1.236157	0.000146
1973	1.9621e+02	-0.7165	-32.723004	0.000892	8.918637	1.510858	0.000179
1974	1.9631e+02	-0.6971	-32.553444	0.000851	8.513245	1.442183	0.000170
1975	1.9641e+02	-0.6769	-32.420219	0.000669	6.688978	1.133144	0.000134
1976	1.9651e+02	-0.6561	-32.291030	0.000649	6.486282	1.098806	0.000130
1977	1.9661e+02	-0.6361	-32.129545	0.000811	8.107852	1.373507	0.000162
1978	1.9671e+02	-0.6171	-31.984208	0.000730	7.297067	1.236157	0.000146
1979	1.9681e+02	-0.5968	-31.855020	0.000649	6.486282	1.098806	0.000130
1980	1.9691e+02	-0.5766	-31.685460	0.000851	8.513245	1.442183	0.000170
1981	1.9701e+02	-0.5572	-31.548197	0.000689	6.891674	1.167481	0.000138
1982	1.9711e+02	-0.5380	-31.386712	0.000811	8.107852	1.373507	0.000162
1983	1.9721e+02	-0.5175	-31.273672	0.000568	5.675496	0.961455	0.000114
1984	1.9731e+02	-0.4968	-31.116224	0.000791	7.905156	1.339170	0.000158
1985	1.9741e+02	-0.4771	-30.982998	0.000669	6.688978	1.133144	0.000134
1986	1.9751e+02	-0.4573	-30.797290	0.000932	9.324030	1.579533	0.000187
1987	1.9761e+02	-0.4372	-30.655990	0.000709	7.094371	1.201819	0.000142
1988	1.9771e+02	-0.4176	-30.518728	0.000689	6.891674	1.167481	0.000138
1989	1.9781e+02	-0.3978	-30.365316	0.000770	7.702460	1.304832	0.000154
1990	1.9791e+02	-0.3776	-30.224017	0.000709	7.094371	1.201819	0.000142
1991	1.9800e+02	-0.3579	-30.078680	0.000730	7.297067	1.236157	0.000146
1992	1.9810e+02	-0.3382	-29.917194	0.000811	8.107852	1.373507	0.000162
1993	1.9820e+02	-0.3185	-29.767820	0.000750	7.499763	1.270494	0.000150
1994	1.9830e+02	-0.2982	-29.634595	0.000669	6.688978	1.133144	0.000134
1995	1.9840e+02	-0.2783	-29.509444	0.000628	6.283585	1.064468	0.000126
1996	1.9850e+02	-0.2585	-29.351995	0.000791	7.905156	1.339170	0.000158
1997	1.9860e+02	-0.2378	-29.218770	0.000669	6.688978	1.133144	0.000134
1998	1.9870e+02	-0.2171	-29.049210	0.000851	8.513245	1.442183	0.000170
1999	1.9880e+02	-0.1982	-28.903873	0.000730	7.297067	1.236157	0.000146
2000	1.9890e+02	-0.1778	-28.819093	0.000426	4.256622	0.721091	0.000085
2001	1.9900e+02	-0.1585	-28.605125	0.001074	10.742904	1.819897	0.000215
2002	1.9910e+02	-0.1388	-28.431528	0.000872	8.715941	1.476520	0.000174
2003	1.9920e+02	-0.1184	-28.350786	0.000405	4.053926	0.686754	0.000081
2004	1.9930e+02	-0.0981	-28.157003	0.000973	9.729423	1.648209	0.000195
2005	1.9940e+02	-0.0792	-28.019741	0.000689	6.891674	1.167481	0.000138
2006	1.9950e+02	-0.0584	-27.918812	0.000507	5.067408	0.858442	0.000101
2007	1.9960e+02	-0.0393	-27.720993	0.000993	9.932119	1.682546	0.000199
2008	1.9970e+02	-0.0189	-27.563544	0.000791	7.905156	1.339170	0.000158
2009	1.9980e+02	0.0001	-27.434356	0.000791	7.905156	1.339170	0.000130

PMax (uC/cm2):	6.27e+01
Pr (uC/cm2):	5.74e+00
-Pr (uC/cm2):	-4.06e+01
PLoss (uC/cm2):	-4.06e+01
-Vc:	-7.33e-01
C (Max-Eff) (nF):	6.28e-01
K (Eff):	1.06e+03
Vert. (+/-Pr) Shift (uC/cm2):	-1.74e+01
Offset (uC/cm2):	-1.31e+01

A (Loop Area - uC/cm2·Volts):	-9.02e-02



Hysteresis Version: 5.48.1 - Radiant Technologies, Inc., 1999 - 9/12/24

