»»»»»»»»»»»»»»»»»»»»»»»»»»»»»»»»»»»» Hysteresis ««««««««««««««««««««««««««««««««««««
»»»  Executed Version:	5.48.1
»»»  Vision Version:	5.48.4 (R)
»»»  Vision Compiled:	9/18/24
»»»  Driver Version:	5.47.0
»»»  Windows Version:	Windows 8 or 8.1
»»»  Processor Information:	x86 (AMD or Intel) - 32 Processors
»»»  Tester Name:	PMF21124-494 (100V)
»»»  Tester S/N:	PMF21124-494
»»»  Internal Amp Type:	100V RevK 270k
»»»  Internal Amp S/N:	iAB2-596/K     
»»»  Execution Count:	1
»»»»»»»»»»»»»»»»»»»»»»»»»»»»»»»»»»»»»»»»»»««««««««««««««««««««««««««««««««««««««««««

Stored:	7/1/2025 - 14:44:12
Configured:	07/01/25 10:49:51 AM
Executed:	07/01/25 02:43:49 PM

»»»»»»»»»»»»»»»»»»»»»»»»»»»»»»»»»»» Sample Info ««««««««««««««««««««««««««««««««««««
Sample Name:	
Lot Name:	
Wafer Name:	
Die Row/Column:	0/0
Capacitor Number:	0
Sample Area (cm2):	1.00e-04
Sample Thickness (microns):	1.50e-01

Amplifier:	Internal

»»»»»»»»»»»»»»»»»»»»»»»»»»»»»»»»»»» Tester Info «««««««««««««««««««««««««««««««««««
Tester Name:	PMF21124-494 (100V)
Tester Serial Number:	PMF21124-494
Return Signal Amp. Level:	0.19 [Index: 3]

»»»»»»»»»»»»»»»»»»»»»»»»»»»»»»»» Hysteresis Info ««««««««««««««««««««««««««««««««««
Task Name:	Hyst-22
Volts:	10.00
Field:	666.67 (kV/cm)
DCBias:	0.00
DCField:	0.00 (kV/cm)
Hysteresis Period (ms):	1.00e+00
Preset:	Enabled
Preset Delay (ms):	1.00e+03
Profile:	Standard Bipolar

»»»»»»»»»»»»»»»»»»»»»»»»»»»»»»»»»»»»»» Data «««««««««««««««««««««««««««««««««««««««
Points:	2001

Valid Data

Point	Time (ms)	Drive Voltage	Measured Polarization (uC/cm2)	Capacitance (uF)	Normalized Capacitance (uF/cm2)	Dielectric Constant	Instantaneous Current (mA)
   1	0.0000e+00	0.0001	-0.590849	0.000848	8.482207	1.436925	0.033878
   2	5.0000e-04	0.0114	-0.421459	0.000848	8.482207	1.436925	0.033878
   3	1.0000e-03	0.0275	-0.324664	0.000485	4.846976	0.821100	0.019359
   4	1.5000e-03	0.0483	-0.155274	0.000848	8.482207	1.436925	0.033878
   5	2.0000e-03	0.0676	0.034281	0.000949	9.491994	1.607987	0.037911
   6	2.5000e-03	0.0872	0.191572	0.000788	7.876335	1.334287	0.031458
   7	3.0000e-03	0.1073	0.401293	0.001050	10.501780	1.779050	0.041944
   8	3.5000e-03	0.1277	0.554551	0.000767	7.674378	1.300075	0.030652
   9	4.0000e-03	0.1473	0.723941	0.000848	8.482207	1.436925	0.033878
  10	4.5000e-03	0.1665	0.865100	0.000707	7.068506	1.197437	0.028232
  11	5.0000e-03	0.1874	1.022390	0.000788	7.876335	1.334287	0.031458
  12	5.5000e-03	0.2068	1.252277	0.001151	11.511567	1.950112	0.045977
  13	6.0000e-03	0.2279	1.385369	0.000666	6.664591	1.129012	0.026618
  14	6.5000e-03	0.2482	1.578958	0.000969	9.693951	1.642200	0.038718
  15	7.0000e-03	0.2676	1.691885	0.000565	5.654805	0.957950	0.022585
  16	7.5000e-03	0.2871	1.857242	0.000828	8.280250	1.402712	0.033071
  17	8.0000e-03	0.3077	2.103261	0.001232	12.319396	2.086962	0.049204
  18	8.5000e-03	0.3268	2.272651	0.000848	8.482207	1.436925	0.033878
  19	9.0000e-03	0.3471	2.470273	0.000990	9.895908	1.676412	0.039524
  20	9.5000e-03	0.3678	2.631597	0.000808	8.078293	1.368500	0.032265
  21	1.0000e-02	0.3876	2.744524	0.000565	5.654805	0.957950	0.022585
  22	1.0500e-02	0.4074	2.917947	0.000868	8.684165	1.471137	0.034685
  23	1.1000e-02	0.4279	3.131701	0.001070	10.703738	1.813262	0.042751
  24	1.1500e-02	0.4476	3.268826	0.000687	6.866549	1.163225	0.027425
  25	1.2000e-02	0.4681	3.450316	0.000909	9.088079	1.539562	0.036298
  26	1.2500e-02	0.4878	3.619706	0.000848	8.482207	1.436925	0.033878
  27	1.3000e-02	0.5075	3.841526	0.001111	11.107652	1.881687	0.044364
  28	1.3500e-02	0.5275	3.974619	0.000666	6.664591	1.129012	0.026618
  29	1.4000e-02	0.5479	4.192406	0.001091	10.905695	1.847475	0.043557
  30	1.4500e-02	0.5676	4.394061	0.001010	10.097866	1.710625	0.040331
  31	1.5000e-02	0.5882	4.547319	0.000767	7.674378	1.300075	0.030652
  32	1.5500e-02	0.6079	4.720742	0.000868	8.684165	1.471137	0.034685
  33	1.6000e-02	0.6281	4.906264	0.000929	9.290036	1.573775	0.037105
  34	1.6500e-02	0.6473	5.067588	0.000808	8.078293	1.368500	0.032265
  35	1.7000e-02	0.6680	5.241012	0.000868	8.684165	1.471137	0.034685
  36	1.7500e-02	0.6876	5.450733	0.001050	10.501780	1.779050	0.041944
  37	1.8000e-02	0.7075	5.571726	0.000606	6.058719	1.026375	0.024199
  38	1.8500e-02	0.7275	5.785480	0.001070	10.703738	1.813262	0.042751
  39	1.9000e-02	0.7475	5.954870	0.000848	8.482207	1.436925	0.033878
  40	1.9500e-02	0.7673	6.108128	0.000767	7.674378	1.300075	0.030652
  41	2.0000e-02	0.7882	6.342048	0.001171	11.713524	1.984325	0.046784
  42	2.0500e-02	0.8076	6.535636	0.000969	9.693951	1.642200	0.038718
  43	2.1000e-02	0.8276	6.648563	0.000565	5.654805	0.957950	0.022585
  44	2.1500e-02	0.8478	6.797788	0.000747	7.472421	1.265862	0.029845
  45	2.2000e-02	0.8653	6.930880	0.000666	6.664591	1.129012	0.026618
  46	2.2500e-02	0.8881	7.172866	0.001212	12.117439	2.052750	0.048397
  47	2.3000e-02	0.9076	7.350322	0.000889	8.886122	1.505350	0.035491
  48	2.3500e-02	0.9280	7.531812	0.000909	9.088079	1.539562	0.036298
  49	2.4000e-02	0.9482	7.729433	0.000990	9.895908	1.676412	0.039524
  50	2.4500e-02	0.9674	7.902857	0.000868	8.684165	1.471137	0.034685
  51	2.5000e-02	0.9880	8.096445	0.000969	9.693951	1.642200	0.038718
  52	2.5500e-02	1.0062	8.294067	0.000990	9.895908	1.676412	0.039524
  53	2.6000e-02	1.0271	8.467491	0.000868	8.684165	1.471137	0.034685
  54	2.6500e-02	1.0478	8.636881	0.000848	8.482207	1.436925	0.033878
  55	2.7000e-02	1.0681	8.806271	0.000848	8.482207	1.436925	0.033878
  56	2.7500e-02	1.0879	9.011959	0.001030	10.299823	1.744837	0.041138
  57	2.8000e-02	1.1091	9.205548	0.000969	9.693951	1.642200	0.038718
  58	2.8500e-02	1.1276	9.374938	0.000848	8.482207	1.436925	0.033878
  59	2.9000e-02	1.1488	9.556427	0.000909	9.088079	1.539562	0.036298
  60	2.9500e-02	1.1676	9.709685	0.000767	7.674378	1.300075	0.030652
  61	3.0000e-02	1.1877	9.891174	0.000909	9.088079	1.539562	0.036298
  62	3.0500e-02	1.2085	10.112995	0.001111	11.107652	1.881687	0.044364
  63	3.1000e-02	1.2275	10.274319	0.000808	8.078293	1.368500	0.032265
  64	3.1500e-02	1.2491	10.492106	0.001091	10.905695	1.847475	0.043557
  65	3.2000e-02	1.2687	10.685695	0.000969	9.693951	1.642200	0.038718
  66	3.2500e-02	1.2877	10.826853	0.000707	7.068506	1.197437	0.028232
  67	3.3000e-02	1.3081	11.036574	0.001050	10.501780	1.779050	0.041944
  68	3.3500e-02	1.3264	11.197898	0.000808	8.078293	1.368500	0.032265
  69	3.4000e-02	1.3477	11.415686	0.001091	10.905695	1.847475	0.043557
  70	3.4500e-02	1.3672	11.585076	0.000848	8.482207	1.436925	0.033878
  71	3.5000e-02	1.3863	11.766565	0.000909	9.088079	1.539562	0.036298
  72	3.5500e-02	1.4072	11.939988	0.000868	8.684165	1.471137	0.034685
  73	3.6000e-02	1.4276	12.129544	0.000949	9.491994	1.607987	0.037911
  74	3.6500e-02	1.4475	12.270702	0.000707	7.068506	1.197437	0.028232
  75	3.7000e-02	1.4673	12.528821	0.001293	12.925268	2.189600	0.051624
  76	3.7500e-02	1.4871	12.710310	0.000909	9.088079	1.539562	0.036298
  77	3.8000e-02	1.5080	12.899866	0.000949	9.491994	1.607987	0.037911
  78	3.8500e-02	1.5279	13.045057	0.000727	7.270463	1.231650	0.029038
  79	3.9000e-02	1.5482	13.246712	0.001010	10.097866	1.710625	0.040331
  80	3.9500e-02	1.5681	13.432235	0.000929	9.290036	1.573775	0.037105
  81	4.0000e-02	1.5875	13.678254	0.001232	12.319396	2.086962	0.049204
  82	4.0500e-02	1.6072	13.831512	0.000767	7.674378	1.300075	0.030652
  83	4.1000e-02	1.6280	14.097696	0.001333	13.329183	2.258025	0.053237
  84	4.1500e-02	1.6466	14.238855	0.000707	7.068506	1.197437	0.028232
  85	4.2000e-02	1.6666	14.432443	0.000969	9.693951	1.642200	0.038718
  86	4.2500e-02	1.6873	14.617966	0.000929	9.290036	1.573775	0.037105
  87	4.3000e-02	1.7075	14.787356	0.000848	8.482207	1.436925	0.033878
  88	4.3500e-02	1.7276	14.984978	0.000990	9.895908	1.676412	0.039524
  89	4.4000e-02	1.7471	15.138236	0.000767	7.674378	1.300075	0.030652
  90	4.4500e-02	1.7675	15.372155	0.001171	11.713524	1.984325	0.046784
  91	4.5000e-02	1.7868	15.541545	0.000848	8.482207	1.436925	0.033878
  92	4.5500e-02	1.8074	15.763366	0.001111	11.107652	1.881687	0.044364
  93	4.6000e-02	1.8269	15.969054	0.001030	10.299823	1.744837	0.041138
  94	4.6500e-02	1.8469	16.114245	0.000727	7.270463	1.231650	0.029038
  95	4.7000e-02	1.8681	16.344132	0.001151	11.511567	1.950112	0.045977
  96	4.7500e-02	1.8884	16.574019	0.001151	11.511567	1.950112	0.045977
  97	4.8000e-02	1.9067	16.723243	0.000747	7.472421	1.265862	0.029845
  98	4.8500e-02	1.9275	16.912799	0.000949	9.491994	1.607987	0.037911
  99	4.9000e-02	1.9476	17.110421	0.000990	9.895908	1.676412	0.039524
 100	4.9500e-02	1.9681	17.299976	0.000949	9.491994	1.607987	0.037911
 101	5.0000e-02	1.9872	17.521797	0.001111	11.107652	1.881687	0.044364
 102	5.0500e-02	2.0078	17.723452	0.001010	10.097866	1.710625	0.040331
 103	5.1000e-02	2.0276	17.860577	0.000687	6.866549	1.163225	0.027425
 104	5.1500e-02	2.0479	18.078364	0.001091	10.905695	1.847475	0.043557
 105	5.2000e-02	2.0677	18.275986	0.000990	9.895908	1.676412	0.039524
 106	5.2500e-02	2.0868	18.469575	0.000969	9.693951	1.642200	0.038718
 107	5.3000e-02	2.1069	18.659131	0.000949	9.491994	1.607987	0.037911
 108	5.3500e-02	2.1273	18.860786	0.001010	10.097866	1.710625	0.040331
 109	5.4000e-02	2.1468	19.058407	0.000990	9.895908	1.676412	0.039524
 110	5.4500e-02	2.1674	19.219731	0.000808	8.078293	1.368500	0.032265
 111	5.5000e-02	2.1875	19.489949	0.001353	13.531140	2.292237	0.054044
 112	5.5500e-02	2.2076	19.631107	0.000707	7.068506	1.197437	0.028232
 113	5.6000e-02	2.2278	19.828729	0.000990	9.895908	1.676412	0.039524
 114	5.6500e-02	2.2477	20.026351	0.000990	9.895908	1.676412	0.039524
 115	5.7000e-02	2.2681	20.232039	0.001030	10.299823	1.744837	0.041138
 116	5.7500e-02	2.2874	20.409495	0.000889	8.886122	1.505350	0.035491
 117	5.8000e-02	2.3072	20.643415	0.001171	11.713524	1.984325	0.046784
 118	5.8500e-02	2.3268	20.853136	0.001050	10.501780	1.779050	0.041944
 119	5.9000e-02	2.3476	21.026560	0.000868	8.684165	1.471137	0.034685
 120	5.9500e-02	2.3676	21.220148	0.000969	9.693951	1.642200	0.038718
 121	6.0000e-02	2.3883	21.381472	0.000808	8.078293	1.368500	0.032265
 122	6.0500e-02	2.4081	21.611359	0.001151	11.511567	1.950112	0.045977
 123	6.1000e-02	2.4275	21.800914	0.000949	9.491994	1.607987	0.037911
 124	6.1500e-02	2.4483	22.014669	0.001070	10.703738	1.813262	0.042751
 125	6.2000e-02	2.4680	22.212291	0.000990	9.895908	1.676412	0.039524
 126	6.2500e-02	2.4875	22.385714	0.000868	8.684165	1.471137	0.034685
 127	6.3000e-02	2.5075	22.583336	0.000990	9.895908	1.676412	0.039524
 128	6.3500e-02	2.5288	22.833388	0.001252	12.521353	2.121175	0.050010
 129	6.4000e-02	2.5485	22.942281	0.000545	5.452847	0.923737	0.021779
 130	6.4500e-02	2.5680	23.139903	0.000990	9.895908	1.676412	0.039524
 131	6.5000e-02	2.5870	23.406088	0.001333	13.329183	2.258025	0.053237
 132	6.5500e-02	2.6070	23.599676	0.000969	9.693951	1.642200	0.038718
 133	6.6000e-02	2.6270	23.773100	0.000868	8.684165	1.471137	0.034685
 134	6.6500e-02	2.6465	23.962655	0.000949	9.491994	1.607987	0.037911
 135	6.7000e-02	2.6666	24.091715	0.000646	6.462634	1.094800	0.025812
 136	6.7500e-02	2.6882	24.361932	0.001353	13.531140	2.292237	0.054044
 137	6.8000e-02	2.7072	24.559554	0.000990	9.895908	1.676412	0.039524
 138	6.8500e-02	2.7274	24.781374	0.001111	11.107652	1.881687	0.044364
 139	6.9000e-02	2.7480	24.978996	0.000990	9.895908	1.676412	0.039524
 140	6.9500e-02	2.7667	25.156453	0.000889	8.886122	1.505350	0.035491
 141	7.0000e-02	2.7875	25.382306	0.001131	11.309610	1.915900	0.045171
 142	7.0500e-02	2.8075	25.563795	0.000909	9.088079	1.539562	0.036298
 143	7.1000e-02	2.8278	25.777550	0.001070	10.703738	1.813262	0.042751
 144	7.1500e-02	2.8479	25.850145	0.000364	3.635232	0.615825	0.014519
 145	7.2000e-02	2.8677	26.100198	0.001252	12.521353	2.121175	0.050010
 146	7.2500e-02	2.8870	26.313952	0.001070	10.703738	1.813262	0.042751
 147	7.3000e-02	2.9077	26.511574	0.000990	9.895908	1.676412	0.039524
 148	7.3500e-02	2.9282	26.717262	0.001030	10.299823	1.744837	0.041138
 149	7.4000e-02	2.9482	26.914884	0.000990	9.895908	1.676412	0.039524
 150	7.4500e-02	2.9668	27.080241	0.000828	8.280250	1.402712	0.033071
 151	7.5000e-02	2.9883	27.310127	0.001151	11.511567	1.950112	0.045977
 152	7.5500e-02	3.0067	27.487584	0.000889	8.886122	1.505350	0.035491
 153	7.6000e-02	3.0286	27.685205	0.000990	9.895908	1.676412	0.039524
 154	7.6500e-02	3.0470	27.854595	0.000848	8.482207	1.436925	0.033878
 155	7.7000e-02	3.0679	28.108681	0.001272	12.723311	2.155387	0.050817
 156	7.7500e-02	3.0878	28.253872	0.000727	7.270463	1.231650	0.029038
 157	7.8000e-02	3.1080	28.467626	0.001070	10.703738	1.813262	0.042751
 158	7.8500e-02	3.1270	28.641050	0.000868	8.684165	1.471137	0.034685
 159	7.9000e-02	3.1474	28.834638	0.000969	9.693951	1.642200	0.038718
 160	7.9500e-02	3.1659	29.024194	0.000949	9.491994	1.607987	0.037911
 161	8.0000e-02	3.1873	29.209717	0.000929	9.290036	1.573775	0.037105
 162	8.0500e-02	3.2074	29.407338	0.000990	9.895908	1.676412	0.039524
 163	8.1000e-02	3.2271	29.576729	0.000848	8.482207	1.436925	0.033878
 164	8.1500e-02	3.2472	29.802582	0.001131	11.309610	1.915900	0.045171
 165	8.2000e-02	3.2669	30.032469	0.001151	11.511567	1.950112	0.045977
 166	8.2500e-02	3.2877	30.213958	0.000909	9.088079	1.539562	0.036298
 167	8.3000e-02	3.3064	30.391415	0.000889	8.886122	1.505350	0.035491
 168	8.3500e-02	3.3282	30.589036	0.000990	9.895908	1.676412	0.039524
 169	8.4000e-02	3.3472	30.726162	0.000687	6.866549	1.163225	0.027425
 170	8.4500e-02	3.3670	30.976214	0.001252	12.521353	2.121175	0.050010
 171	8.5000e-02	3.3879	31.194001	0.001091	10.905695	1.847475	0.043557
 172	8.5500e-02	3.4077	31.363391	0.000848	8.482207	1.436925	0.033878
 173	8.6000e-02	3.4283	31.561013	0.000990	9.895908	1.676412	0.039524
 174	8.6500e-02	3.4476	31.746536	0.000929	9.290036	1.573775	0.037105
 175	8.7000e-02	3.4675	31.956257	0.001050	10.501780	1.779050	0.041944
 176	8.7500e-02	3.4869	32.109515	0.000767	7.674378	1.300075	0.030652
 177	8.8000e-02	3.5083	32.266805	0.000788	7.876335	1.334287	0.031458
 178	8.8500e-02	3.5279	32.440229	0.000868	8.684165	1.471137	0.034685
 179	8.9000e-02	3.5477	32.662049	0.001111	11.107652	1.881687	0.044364
 180	8.9500e-02	3.5678	32.912101	0.001252	12.521353	2.121175	0.050010
 181	9.0000e-02	3.5883	33.065359	0.000767	7.674378	1.300075	0.030652
 182	9.0500e-02	3.6081	33.287179	0.001111	11.107652	1.881687	0.044364
 183	9.1000e-02	3.6273	33.428338	0.000707	7.068506	1.197437	0.028232
 184	9.1500e-02	3.6475	33.597728	0.000848	8.482207	1.436925	0.033878
 185	9.2000e-02	3.6694	33.823581	0.001131	11.309610	1.915900	0.045171
 186	9.2500e-02	3.6880	34.045402	0.001111	11.107652	1.881687	0.044364
 187	9.3000e-02	3.7077	34.210759	0.000828	8.280250	1.402712	0.033071
 188	9.3500e-02	3.7277	34.412414	0.001010	10.097866	1.710625	0.040331
 189	9.4000e-02	3.7482	34.573738	0.000808	8.078293	1.368500	0.032265
 190	9.4500e-02	3.7683	34.755227	0.000909	9.088079	1.539562	0.036298
 191	9.5000e-02	3.7891	34.952849	0.000990	9.895908	1.676412	0.039524
 192	9.5500e-02	3.8068	35.146438	0.000969	9.693951	1.642200	0.038718
 193	9.6000e-02	3.8275	35.299696	0.000767	7.674378	1.300075	0.030652
 194	9.6500e-02	3.8464	35.440854	0.000707	7.068506	1.197437	0.028232
 195	9.7000e-02	3.8678	35.698972	0.001293	12.925268	2.189600	0.051624
 196	9.7500e-02	3.8869	35.860296	0.000808	8.078293	1.368500	0.032265
 197	9.8000e-02	3.9069	36.061951	0.001010	10.097866	1.710625	0.040331
 198	9.8500e-02	3.9276	36.251507	0.000949	9.491994	1.607987	0.037911
 199	9.9000e-02	3.9471	36.465261	0.001070	10.703738	1.813262	0.042751
 200	9.9500e-02	3.9674	36.638684	0.000868	8.684165	1.471137	0.034685
 201	1.0000e-01	3.9874	36.816141	0.000889	8.886122	1.505350	0.035491
 202	1.0050e-01	4.0073	37.017796	0.001010	10.097866	1.710625	0.040331
 203	1.0100e-01	4.0277	37.195252	0.000889	8.886122	1.505350	0.035491
 204	1.0150e-01	4.0472	37.380774	0.000929	9.290036	1.573775	0.037105
 205	1.0200e-01	4.0686	37.566297	0.000929	9.290036	1.573775	0.037105
 206	1.0250e-01	4.0869	37.723588	0.000788	7.876335	1.334287	0.031458
 207	1.0300e-01	4.1071	37.925243	0.001010	10.097866	1.710625	0.040331
 208	1.0350e-01	4.1281	38.090600	0.000828	8.280250	1.402712	0.033071
 209	1.0400e-01	4.1483	38.272089	0.000909	9.088079	1.539562	0.036298
 210	1.0450e-01	4.1681	38.497943	0.001131	11.309610	1.915900	0.045171
 211	1.0500e-01	4.1876	38.663300	0.000828	8.280250	1.402712	0.033071
 212	1.0550e-01	4.2071	38.864955	0.001010	10.097866	1.710625	0.040331
 213	1.0600e-01	4.2279	39.074676	0.001050	10.501780	1.779050	0.041944
 214	1.0650e-01	4.2474	39.199702	0.000626	6.260677	1.060587	0.025005
 215	1.0700e-01	4.2682	39.405390	0.001030	10.299823	1.744837	0.041138
 216	1.0750e-01	4.2882	39.554615	0.000747	7.472421	1.265862	0.029845
 217	1.0800e-01	4.3079	39.740137	0.000929	9.290036	1.573775	0.037105
 218	1.0850e-01	4.3307	39.953891	0.001070	10.703738	1.813262	0.042751
 219	1.0900e-01	4.3478	40.143447	0.000949	9.491994	1.607987	0.037911
 220	1.0950e-01	4.3672	40.308804	0.000828	8.280250	1.402712	0.033071
 221	1.1000e-01	4.3884	40.470128	0.000808	8.078293	1.368500	0.032265
 222	1.1050e-01	4.4086	40.643551	0.000868	8.684165	1.471137	0.034685
 223	1.1100e-01	4.4279	40.841173	0.000990	9.895908	1.676412	0.039524
 224	1.1150e-01	4.4476	41.010563	0.000848	8.482207	1.436925	0.033878
 225	1.1200e-01	4.4690	41.171887	0.000808	8.078293	1.368500	0.032265
 226	1.1250e-01	4.4879	41.373542	0.001010	10.097866	1.710625	0.040331
 227	1.1300e-01	4.5074	41.603429	0.001151	11.511567	1.950112	0.045977
 228	1.1350e-01	4.5282	41.760719	0.000788	7.876335	1.334287	0.031458
 229	1.1400e-01	4.5483	41.934143	0.000868	8.684165	1.471137	0.034685
 230	1.1450e-01	4.5676	42.111599	0.000889	8.886122	1.505350	0.035491
 231	1.1500e-01	4.5880	42.276956	0.000828	8.280250	1.402712	0.033071
 232	1.1550e-01	4.6082	42.470545	0.000969	9.693951	1.642200	0.038718
 233	1.1600e-01	4.6292	42.635902	0.000828	8.280250	1.402712	0.033071
 234	1.1650e-01	4.6480	42.825458	0.000949	9.491994	1.607987	0.037911
 235	1.1700e-01	4.6683	43.002914	0.000889	8.886122	1.505350	0.035491
 236	1.1750e-01	4.6864	43.127940	0.000626	6.260677	1.060587	0.025005
 237	1.1800e-01	4.7079	43.325562	0.000990	9.895908	1.676412	0.039524
 238	1.1850e-01	4.7290	43.523184	0.000990	9.895908	1.676412	0.039524
 239	1.1900e-01	4.7485	43.724838	0.001010	10.097866	1.710625	0.040331
 240	1.1950e-01	4.7682	43.874063	0.000747	7.472421	1.265862	0.029845
 241	1.2000e-01	4.7882	44.027321	0.000767	7.674378	1.300075	0.030652
 242	1.2050e-01	4.8083	44.249141	0.001111	11.107652	1.881687	0.044364
 243	1.2100e-01	4.8285	44.402399	0.000767	7.674378	1.300075	0.030652
 244	1.2150e-01	4.8492	44.567756	0.000828	8.280250	1.402712	0.033071
 245	1.2200e-01	4.8688	44.716981	0.000747	7.472421	1.265862	0.029845
 246	1.2250e-01	4.8889	44.906536	0.000949	9.491994	1.607987	0.037911
 247	1.2300e-01	4.9081	45.067860	0.000808	8.078293	1.368500	0.032265
 248	1.2350e-01	4.9286	45.269515	0.001010	10.097866	1.710625	0.040331
 249	1.2400e-01	4.9495	45.451005	0.000909	9.088079	1.539562	0.036298
 250	1.2450e-01	4.9683	45.648627	0.000990	9.895908	1.676412	0.039524
 251	1.2500e-01	4.9890	45.826083	0.000889	8.886122	1.505350	0.035491
 252	1.2550e-01	5.0089	45.987407	0.000808	8.078293	1.368500	0.032265
 253	1.2600e-01	5.0287	46.152764	0.000828	8.280250	1.402712	0.033071
 254	1.2650e-01	5.0497	46.306022	0.000767	7.674378	1.300075	0.030652
 255	1.2700e-01	5.0681	46.463312	0.000788	7.876335	1.334287	0.031458
 256	1.2750e-01	5.0885	46.624636	0.000808	8.078293	1.368500	0.032265
 257	1.2800e-01	5.1086	46.830324	0.001030	10.299823	1.744837	0.041138
 258	1.2850e-01	5.1283	46.979549	0.000747	7.472421	1.265862	0.029845
 259	1.2900e-01	5.1486	47.161039	0.000909	9.088079	1.539562	0.036298
 260	1.2950e-01	5.1675	47.334462	0.000868	8.684165	1.471137	0.034685
 261	1.3000e-01	5.1886	47.487719	0.000767	7.674378	1.300075	0.030652
 262	1.3050e-01	5.2081	47.709540	0.001111	11.107652	1.881687	0.044364
 263	1.3100e-01	5.2274	47.846665	0.000687	6.866549	1.163225	0.027425
 264	1.3150e-01	5.2487	48.024122	0.000889	8.886122	1.505350	0.035491
 265	1.3200e-01	5.2682	48.193512	0.000848	8.482207	1.436925	0.033878
 266	1.3250e-01	5.2896	48.346769	0.000767	7.674378	1.300075	0.030652
 267	1.3300e-01	5.3079	48.548424	0.001010	10.097866	1.710625	0.040331
 268	1.3350e-01	5.3278	48.697649	0.000747	7.472421	1.265862	0.029845
 269	1.3400e-01	5.3482	48.911403	0.001070	10.703738	1.813262	0.042751
 270	1.3450e-01	5.3687	49.064661	0.000767	7.674378	1.300075	0.030652
 271	1.3500e-01	5.3876	49.205819	0.000707	7.068506	1.197437	0.028232
 272	1.3550e-01	5.4083	49.363110	0.000788	7.876335	1.334287	0.031458
 273	1.3600e-01	5.4285	49.544600	0.000909	9.088079	1.539562	0.036298
 274	1.3650e-01	5.4482	49.713990	0.000848	8.482207	1.436925	0.033878
 275	1.3700e-01	5.4697	49.871281	0.000788	7.876335	1.334287	0.031458
 276	1.3750e-01	5.4871	50.072936	0.001010	10.097866	1.710625	0.040331
 277	1.3800e-01	5.5081	50.177796	0.000525	5.250890	0.889525	0.020972
 278	1.3850e-01	5.5289	50.367352	0.000949	9.491994	1.607987	0.037911
 279	1.3900e-01	5.5476	50.564974	0.000990	9.895908	1.676412	0.039524
 280	1.3950e-01	5.5688	50.718231	0.000767	7.674378	1.300075	0.030652
 281	1.4000e-01	5.5878	50.835191	0.000586	5.856762	0.992162	0.023392
 282	1.4050e-01	5.6079	51.052979	0.001091	10.905695	1.847475	0.043557
 283	1.4100e-01	5.6287	51.194137	0.000707	7.068506	1.197437	0.028232
 284	1.4150e-01	5.6482	51.363527	0.000848	8.482207	1.436925	0.033878
 285	1.4200e-01	5.6696	51.545017	0.000909	9.088079	1.539562	0.036298
 286	1.4250e-01	5.6891	51.678109	0.000666	6.664591	1.129012	0.026618
 287	1.4300e-01	5.7086	51.879764	0.001010	10.097866	1.710625	0.040331
 288	1.4350e-01	5.7288	52.012856	0.000666	6.664591	1.129012	0.026618
 289	1.4400e-01	5.7492	52.238710	0.001131	11.309610	1.915900	0.045171
 290	1.4450e-01	5.7678	52.363736	0.000626	6.260677	1.060587	0.025005
 291	1.4500e-01	5.7874	52.500861	0.000687	6.866549	1.163225	0.027425
 292	1.4550e-01	5.8087	52.674284	0.000868	8.684165	1.471137	0.034685
 293	1.4600e-01	5.8282	52.851741	0.000889	8.886122	1.505350	0.035491
 294	1.4650e-01	5.8484	52.984833	0.000666	6.664591	1.129012	0.026618
 295	1.4700e-01	5.8685	53.138091	0.000767	7.674378	1.300075	0.030652
 296	1.4750e-01	5.8884	53.303448	0.000828	8.280250	1.402712	0.033071
 297	1.4800e-01	5.9094	53.488970	0.000929	9.290036	1.573775	0.037105
 298	1.4850e-01	5.9283	53.650294	0.000808	8.078293	1.368500	0.032265
 299	1.4900e-01	5.9485	53.803552	0.000767	7.674378	1.300075	0.030652
 300	1.4950e-01	5.9692	53.993108	0.000949	9.491994	1.607987	0.037911
 301	1.5000e-01	5.9888	54.134266	0.000707	7.068506	1.197437	0.028232
 302	1.5050e-01	6.0083	54.335921	0.001010	10.097866	1.710625	0.040331
 303	1.5100e-01	6.0284	54.428682	0.000465	4.645018	0.786887	0.018552
 304	1.5150e-01	6.0486	54.610172	0.000909	9.088079	1.539562	0.036298
 305	1.5200e-01	6.0693	54.743264	0.000666	6.664591	1.129012	0.026618
 306	1.5250e-01	6.0886	54.948952	0.001030	10.299823	1.744837	0.041138
 307	1.5300e-01	6.1084	55.094143	0.000727	7.270463	1.231650	0.029038
 308	1.5350e-01	6.1282	55.203037	0.000545	5.452847	0.923737	0.021779
 309	1.5400e-01	6.1493	55.356295	0.000767	7.674378	1.300075	0.030652
 310	1.5450e-01	6.1688	55.537784	0.000909	9.088079	1.539562	0.036298
 311	1.5500e-01	6.1884	55.739439	0.001010	10.097866	1.710625	0.040331
 312	1.5550e-01	6.2085	55.908829	0.000848	8.482207	1.436925	0.033878
 313	1.5600e-01	6.2286	56.013690	0.000525	5.250890	0.889525	0.020972
 314	1.5650e-01	6.2482	56.199212	0.000929	9.290036	1.573775	0.037105
 315	1.5700e-01	6.2689	56.356503	0.000788	7.876335	1.334287	0.031458
 316	1.5750e-01	6.2891	56.521860	0.000828	8.280250	1.402712	0.033071
 317	1.5800e-01	6.3086	56.667052	0.000727	7.270463	1.231650	0.029038
 318	1.5850e-01	6.3287	56.755780	0.000444	4.443061	0.752675	0.017746
 319	1.5900e-01	6.3477	56.949369	0.000969	9.693951	1.642200	0.038718
 320	1.5950e-01	6.3678	57.142958	0.000969	9.693951	1.642200	0.038718
 321	1.6000e-01	6.3885	57.304281	0.000808	8.078293	1.368500	0.032265
 322	1.6050e-01	6.4078	57.449473	0.000727	7.270463	1.231650	0.029038
 323	1.6100e-01	6.4276	57.574499	0.000626	6.260677	1.060587	0.025005
 324	1.6150e-01	6.4478	57.768088	0.000969	9.693951	1.642200	0.038718
 325	1.6200e-01	6.4679	57.872948	0.000525	5.250890	0.889525	0.020972
 326	1.6250e-01	6.4868	58.135100	0.001313	13.127225	2.223812	0.052430
 327	1.6300e-01	6.5079	58.199629	0.000323	3.231317	0.547400	0.012906
 328	1.6350e-01	6.5277	58.385152	0.000929	9.290036	1.573775	0.037105
 329	1.6400e-01	6.5472	58.558575	0.000868	8.684165	1.471137	0.034685
 330	1.6450e-01	6.5674	58.651336	0.000465	4.645018	0.786887	0.018552
 331	1.6500e-01	6.5881	58.812660	0.000808	8.078293	1.368500	0.032265
 332	1.6550e-01	6.6077	58.957852	0.000727	7.270463	1.231650	0.029038
 333	1.6600e-01	6.6278	59.082878	0.000626	6.260677	1.060587	0.025005
 334	1.6650e-01	6.6486	59.240169	0.000788	7.876335	1.334287	0.031458
 335	1.6700e-01	6.6687	59.486188	0.001232	12.319396	2.086962	0.049204
 336	1.6750e-01	6.6879	59.554751	0.000343	3.433274	0.581612	0.013713
 337	1.6800e-01	6.7084	59.687843	0.000666	6.664591	1.129012	0.026618
 338	1.6850e-01	6.7273	59.901597	0.001070	10.703738	1.813262	0.042751
 339	1.6900e-01	6.7480	60.062921	0.000808	8.078293	1.368500	0.032265
 340	1.6950e-01	6.7688	60.187947	0.000626	6.260677	1.060587	0.025005
 341	1.7000e-01	6.7868	60.329105	0.000707	7.068506	1.197437	0.028232
 342	1.7050e-01	6.8079	60.522694	0.000969	9.693951	1.642200	0.038718
 343	1.7100e-01	6.8280	60.595290	0.000364	3.635232	0.615825	0.014519
 344	1.7150e-01	6.8475	60.841309	0.001232	12.319396	2.086962	0.049204
 345	1.7200e-01	6.8689	60.994567	0.000767	7.674378	1.300075	0.030652
 346	1.7250e-01	6.8869	61.071196	0.000384	3.837189	0.650037	0.015326
 347	1.7300e-01	6.9073	61.240586	0.000848	8.482207	1.436925	0.033878
 348	1.7350e-01	6.9290	61.365612	0.000626	6.260677	1.060587	0.025005
 349	1.7400e-01	6.9476	61.559201	0.000969	9.693951	1.642200	0.038718
 350	1.7450e-01	6.9678	61.720524	0.000808	8.078293	1.368500	0.032265
 351	1.7500e-01	6.9873	61.893948	0.000868	8.684165	1.471137	0.034685
 352	1.7550e-01	7.0074	62.014941	0.000606	6.058719	1.026375	0.024199
 353	1.7600e-01	7.0273	62.119801	0.000525	5.250890	0.889525	0.020972
 354	1.7650e-01	7.0477	62.277092	0.000788	7.876335	1.334287	0.031458
 355	1.7700e-01	7.0679	62.454548	0.000889	8.886122	1.505350	0.035491
 356	1.7750e-01	7.0871	62.636038	0.000909	9.088079	1.539562	0.036298
 357	1.7800e-01	7.1082	62.732832	0.000485	4.846976	0.821100	0.019359
 358	1.7850e-01	7.1277	62.890123	0.000788	7.876335	1.334287	0.031458
 359	1.7900e-01	7.1472	63.047414	0.000788	7.876335	1.334287	0.031458
 360	1.7950e-01	7.1674	63.124043	0.000384	3.837189	0.650037	0.015326
 361	1.8000e-01	7.1863	63.337797	0.001070	10.703738	1.813262	0.042751
 362	1.8050e-01	7.2070	63.487022	0.000747	7.472421	1.265862	0.029845
 363	1.8100e-01	7.2272	63.620114	0.000666	6.664591	1.129012	0.026618
 364	1.8150e-01	7.2485	63.777405	0.000788	7.876335	1.334287	0.031458
 365	1.8200e-01	7.2678	63.926629	0.000747	7.472421	1.265862	0.029845
 366	1.8250e-01	7.2876	64.027457	0.000505	5.048933	0.855312	0.020165
 367	1.8300e-01	7.3083	64.184748	0.000788	7.876335	1.334287	0.031458
 368	1.8350e-01	7.3276	64.333972	0.000747	7.472421	1.265862	0.029845
 369	1.8400e-01	7.3480	64.507396	0.000868	8.684165	1.471137	0.034685
 370	1.8450e-01	7.3676	64.664686	0.000788	7.876335	1.334287	0.031458
 371	1.8500e-01	7.3868	64.781646	0.000586	5.856762	0.992162	0.023392
 372	1.8550e-01	7.4078	64.955070	0.000868	8.684165	1.471137	0.034685
 373	1.8600e-01	7.4280	65.088162	0.000666	6.664591	1.129012	0.026618
 374	1.8650e-01	7.4463	65.249486	0.000808	8.078293	1.368500	0.032265
 375	1.8700e-01	7.4677	65.362412	0.000565	5.654805	0.957950	0.022585
 376	1.8750e-01	7.4878	65.543902	0.000909	9.088079	1.539562	0.036298
 377	1.8800e-01	7.5085	65.660862	0.000586	5.856762	0.992162	0.023392
 378	1.8850e-01	7.5275	65.793954	0.000666	6.664591	1.129012	0.026618
 379	1.8900e-01	7.5477	65.923013	0.000646	6.462634	1.094800	0.025812
 380	1.8950e-01	7.5681	66.100470	0.000889	8.886122	1.505350	0.035491
 381	1.9000e-01	7.5873	66.213396	0.000565	5.654805	0.957950	0.022585
 382	1.9050e-01	7.6071	66.386820	0.000868	8.684165	1.471137	0.034685
 383	1.9100e-01	7.6282	66.556210	0.000848	8.482207	1.436925	0.033878
 384	1.9150e-01	7.6483	66.628805	0.000364	3.635232	0.615825	0.014519
 385	1.9200e-01	7.6678	66.794163	0.000828	8.280250	1.402712	0.033071
 386	1.9250e-01	7.6880	66.947420	0.000767	7.674378	1.300075	0.030652
 387	1.9300e-01	7.7069	67.096645	0.000747	7.472421	1.265862	0.029845
 388	1.9350e-01	7.7271	67.225704	0.000646	6.462634	1.094800	0.025812
 389	1.9400e-01	7.7481	67.342664	0.000586	5.856762	0.992162	0.023392
 390	1.9450e-01	7.7679	67.512054	0.000848	8.482207	1.436925	0.033878
 391	1.9500e-01	7.7875	67.629014	0.000586	5.856762	0.992162	0.023392
 392	1.9550e-01	7.8082	67.786305	0.000788	7.876335	1.334287	0.031458
 393	1.9600e-01	7.8293	67.923430	0.000687	6.866549	1.163225	0.027425
 394	1.9650e-01	7.8473	68.100886	0.000889	8.886122	1.505350	0.035491
 395	1.9700e-01	7.8674	68.197681	0.000485	4.846976	0.821100	0.019359
 396	1.9750e-01	7.8870	68.322707	0.000626	6.260677	1.060587	0.025005
 397	1.9800e-01	7.9077	68.492097	0.000848	8.482207	1.436925	0.033878
 398	1.9850e-01	7.9272	68.653421	0.000808	8.078293	1.368500	0.032265
 399	1.9900e-01	7.9474	68.790546	0.000687	6.866549	1.163225	0.027425
 400	1.9950e-01	7.9675	68.980102	0.000949	9.491994	1.607987	0.037911
 401	2.0000e-01	7.9880	69.052698	0.000364	3.635232	0.615825	0.014519
 402	2.0050e-01	8.0078	69.230154	0.000889	8.886122	1.505350	0.035491
 403	2.0100e-01	8.0280	69.326948	0.000485	4.846976	0.821100	0.019359
 404	2.0150e-01	8.0481	69.524570	0.000990	9.895908	1.676412	0.039524
 405	2.0200e-01	8.0676	69.629431	0.000525	5.250890	0.889525	0.020972
 406	2.0250e-01	8.0878	69.722192	0.000465	4.645018	0.786887	0.018552
 407	2.0300e-01	8.1081	69.875450	0.000767	7.674378	1.300075	0.030652
 408	2.0350e-01	8.1281	70.044840	0.000848	8.482207	1.436925	0.033878
 409	2.0400e-01	8.1485	70.165833	0.000606	6.058719	1.026375	0.024199
 410	2.0450e-01	8.1683	70.311024	0.000727	7.270463	1.231650	0.029038
 411	2.0500e-01	8.1885	70.448150	0.000687	6.866549	1.163225	0.027425
 412	2.0550e-01	8.2080	70.544944	0.000485	4.846976	0.821100	0.019359
 413	2.0600e-01	8.2275	70.738533	0.000969	9.693951	1.642200	0.038718
 414	2.0650e-01	8.2489	70.855493	0.000586	5.856762	0.992162	0.023392
 415	2.0700e-01	8.2690	71.004717	0.000747	7.472421	1.265862	0.029845
 416	2.0750e-01	8.2883	71.089413	0.000424	4.241104	0.718462	0.016939
 417	2.0800e-01	8.3093	71.258803	0.000848	8.482207	1.436925	0.033878
 418	2.0850e-01	8.3276	71.383829	0.000626	6.260677	1.060587	0.025005
 419	2.0900e-01	8.3478	71.520954	0.000687	6.866549	1.163225	0.027425
 420	2.0950e-01	8.3679	71.686311	0.000828	8.280250	1.402712	0.033071
 421	2.1000e-01	8.3881	71.823436	0.000687	6.866549	1.163225	0.027425
 422	2.1050e-01	8.4088	71.968628	0.000727	7.270463	1.231650	0.029038
 423	2.1100e-01	8.4283	72.077522	0.000545	5.452847	0.923737	0.021779
 424	2.1150e-01	8.4497	72.238846	0.000808	8.078293	1.368500	0.032265
 425	2.1200e-01	8.4689	72.412269	0.000868	8.684165	1.471137	0.034685
 426	2.1250e-01	8.4882	72.488898	0.000384	3.837189	0.650037	0.015326
 427	2.1300e-01	8.5089	72.605858	0.000586	5.856762	0.992162	0.023392
 428	2.1350e-01	8.5284	72.738950	0.000666	6.664591	1.129012	0.026618
 429	2.1400e-01	8.5480	72.932539	0.000969	9.693951	1.642200	0.038718
 430	2.1450e-01	8.5675	73.077730	0.000727	7.270463	1.231650	0.029038
 431	2.1500e-01	8.5883	73.186624	0.000545	5.452847	0.923737	0.021779
 432	2.1550e-01	8.6084	73.311650	0.000626	6.260677	1.060587	0.025005
 433	2.1600e-01	8.6292	73.477007	0.000828	8.280250	1.402712	0.033071
 434	2.1650e-01	8.6481	73.638331	0.000808	8.078293	1.368500	0.032265
 435	2.1700e-01	8.6685	73.710927	0.000364	3.635232	0.615825	0.014519
 436	2.1750e-01	8.6896	73.852085	0.000707	7.068506	1.197437	0.028232
 437	2.1800e-01	8.7091	73.969045	0.000586	5.856762	0.992162	0.023392
 438	2.1850e-01	8.7274	74.110203	0.000707	7.068506	1.197437	0.028232
 439	2.1900e-01	8.7482	74.202965	0.000465	4.645018	0.786887	0.018552
 440	2.1950e-01	8.7686	74.360255	0.000788	7.876335	1.334287	0.031458
 441	2.2000e-01	8.7894	74.541745	0.000909	9.088079	1.539562	0.036298
 442	2.2050e-01	8.8086	74.674837	0.000666	6.664591	1.129012	0.026618
 443	2.2100e-01	8.8293	74.767598	0.000465	4.645018	0.786887	0.018552
 444	2.2150e-01	8.8483	74.872459	0.000525	5.250890	0.889525	0.020972
 445	2.2200e-01	8.8675	75.074114	0.001010	10.097866	1.710625	0.040331
 446	2.2250e-01	8.8873	75.174941	0.000505	5.048933	0.855312	0.020165
 447	2.2300e-01	8.9069	75.279802	0.000525	5.250890	0.889525	0.020972
 448	2.2350e-01	8.9279	75.416927	0.000687	6.866549	1.163225	0.027425
 449	2.2400e-01	8.9478	75.550020	0.000666	6.664591	1.129012	0.026618
 450	2.2450e-01	8.9673	75.638748	0.000444	4.443061	0.752675	0.017746
 451	2.2500e-01	8.9868	75.824270	0.000929	9.290036	1.573775	0.037105
 452	2.2550e-01	9.0082	75.945263	0.000606	6.058719	1.026375	0.024199
 453	2.2600e-01	9.0277	76.106587	0.000808	8.078293	1.368500	0.032265
 454	2.2650e-01	9.0479	76.288077	0.000909	9.088079	1.539562	0.036298
 455	2.2700e-01	9.0674	76.332441	0.000222	2.221530	0.376337	0.008873
 456	2.2750e-01	9.0875	76.441334	0.000545	5.452847	0.923737	0.021779
 457	2.2800e-01	9.1071	76.562327	0.000606	6.058719	1.026375	0.024199
 458	2.2850e-01	9.1278	76.667188	0.000525	5.250890	0.889525	0.020972
 459	2.2900e-01	9.1486	76.852710	0.000929	9.290036	1.573775	0.037105
 460	2.2950e-01	9.1681	77.005968	0.000767	7.674378	1.300075	0.030652
 461	2.3000e-01	9.1870	77.143094	0.000687	6.866549	1.163225	0.027425
 462	2.3050e-01	9.2065	77.292318	0.000747	7.472421	1.265862	0.029845
 463	2.3100e-01	9.2267	77.344748	0.000263	2.625445	0.444762	0.010486
 464	2.3150e-01	9.2474	77.530271	0.000929	9.290036	1.573775	0.037105
 465	2.3200e-01	9.2679	77.631098	0.000505	5.048933	0.855312	0.020165
 466	2.3250e-01	9.2877	77.731926	0.000505	5.048933	0.855312	0.020165
 467	2.3300e-01	9.3073	77.860985	0.000646	6.462634	1.094800	0.025812
 468	2.3350e-01	9.3274	78.018276	0.000788	7.876335	1.334287	0.031458
 469	2.3400e-01	9.3481	78.187666	0.000848	8.482207	1.436925	0.033878
 470	2.3450e-01	9.3677	78.244129	0.000283	2.827402	0.478975	0.011293
 471	2.3500e-01	9.3872	78.401420	0.000788	7.876335	1.334287	0.031458
 472	2.3550e-01	9.4080	78.542579	0.000707	7.068506	1.197437	0.028232
 473	2.3600e-01	9.4287	78.655505	0.000565	5.654805	0.957950	0.022585
 474	2.3650e-01	9.4476	78.824896	0.000848	8.482207	1.436925	0.033878
 475	2.3700e-01	9.4673	78.905558	0.000404	4.039146	0.684250	0.016132
 476	2.3750e-01	9.4873	79.038650	0.000666	6.664591	1.129012	0.026618
 477	2.3800e-01	9.5074	79.147544	0.000545	5.452847	0.923737	0.021779
 478	2.3850e-01	9.5273	79.280636	0.000666	6.664591	1.129012	0.026618
 479	2.3900e-01	9.5471	79.454059	0.000868	8.684165	1.471137	0.034685
 480	2.3950e-01	9.5673	79.566986	0.000565	5.654805	0.957950	0.022585
 481	2.4000e-01	9.5868	79.603284	0.000182	1.817616	0.307912	0.007260
 482	2.4050e-01	9.6078	79.796872	0.000969	9.693951	1.642200	0.038718
 483	2.4100e-01	9.6271	79.974329	0.000889	8.886122	1.505350	0.035491
 484	2.4150e-01	9.6478	80.002560	0.000141	1.413701	0.239487	0.005646
 485	2.4200e-01	9.6674	80.139686	0.000687	6.866549	1.163225	0.027425
 486	2.4250e-01	9.6875	80.288910	0.000747	7.472421	1.265862	0.029845
 487	2.4300e-01	9.7070	80.462334	0.000868	8.684165	1.471137	0.034685
 488	2.4350e-01	9.7272	80.522830	0.000303	3.029360	0.513187	0.012099
 489	2.4400e-01	9.7479	80.692220	0.000848	8.482207	1.436925	0.033878
 490	2.4450e-01	9.7681	80.817246	0.000626	6.260677	1.060587	0.025005
 491	2.4500e-01	9.7864	80.934206	0.000586	5.856762	0.992162	0.023392
 492	2.4550e-01	9.8077	81.091497	0.000788	7.876335	1.334287	0.031458
 493	2.4600e-01	9.8282	81.220556	0.000646	6.462634	1.094800	0.025812
 494	2.4650e-01	9.8474	81.345582	0.000626	6.260677	1.060587	0.025005
 495	2.4700e-01	9.8676	81.430277	0.000424	4.241104	0.718462	0.016939
 496	2.4750e-01	9.8871	81.527072	0.000485	4.846976	0.821100	0.019359
 497	2.4800e-01	9.9072	81.680329	0.000767	7.674378	1.300075	0.030652
 498	2.4850e-01	9.9280	81.821488	0.000707	7.068506	1.197437	0.028232
 499	2.4900e-01	9.9481	81.906183	0.000424	4.241104	0.718462	0.016939
 500	2.4950e-01	9.9677	82.115904	0.001050	10.501780	1.779050	0.041944
 501	2.5000e-01	9.9878	82.152202	0.000182	1.817616	0.307912	0.007260
 502	2.5050e-01	9.9854	82.180434	-0.000141	-1.413701	-0.239487	0.005646
 503	2.5100e-01	9.9695	82.071540	0.000545	5.452847	0.923737	-0.021779
 504	2.5150e-01	9.9506	81.938448	0.000666	6.664591	1.129012	-0.026618
 505	2.5200e-01	9.9316	81.918282	0.000101	1.009787	0.171062	-0.004033
 506	2.5250e-01	9.9115	81.837620	0.000404	4.039146	0.684250	-0.016132
 507	2.5300e-01	9.8914	81.712594	0.000626	6.260677	1.060587	-0.025005
 508	2.5350e-01	9.8715	81.635965	0.000384	3.837189	0.650037	-0.015326
 509	2.5400e-01	9.8505	81.555303	0.000404	4.039146	0.684250	-0.016132
 510	2.5450e-01	9.8315	81.438344	0.000586	5.856762	0.992162	-0.023392
 511	2.5500e-01	9.8120	81.389946	0.000242	2.423488	0.410550	-0.009679
 512	2.5550e-01	9.7913	81.272986	0.000586	5.856762	0.992162	-0.023392
 513	2.5600e-01	9.7717	81.196358	0.000384	3.837189	0.650037	-0.015326
 514	2.5650e-01	9.7522	81.135861	0.000303	3.029360	0.513187	-0.012099
 515	2.5700e-01	9.7321	80.974537	0.000808	8.078293	1.368500	-0.032265
 516	2.5750e-01	9.7122	80.885809	0.000444	4.443061	0.752675	-0.017746
 517	2.5800e-01	9.6924	80.756750	0.000646	6.462634	1.094800	-0.025812
 518	2.5850e-01	9.6722	80.663989	0.000465	4.645018	0.786887	-0.018552
 519	2.5900e-01	9.6527	80.583327	0.000404	4.039146	0.684250	-0.016132
 520	2.5950e-01	9.6326	80.494598	0.000444	4.443061	0.752675	-0.017746
 521	2.6000e-01	9.6124	80.365539	0.000646	6.462634	1.094800	-0.025812
 522	2.6050e-01	9.5911	80.309076	0.000283	2.827402	0.478975	-0.011293
 523	2.6100e-01	9.5724	80.147752	0.000808	8.078293	1.368500	-0.032265
 524	2.6150e-01	9.5517	80.083222	0.000323	3.231317	0.547400	-0.012906
 525	2.6200e-01	9.5325	79.986428	0.000485	4.846976	0.821100	-0.019359
 526	2.6250e-01	9.5117	79.837203	0.000747	7.472421	1.265862	-0.029845
 527	2.6300e-01	9.4922	79.744442	0.000465	4.645018	0.786887	-0.018552
 528	2.6350e-01	9.4714	79.679913	0.000323	3.231317	0.547400	-0.012906
 529	2.6400e-01	9.4525	79.534721	0.000727	7.270463	1.231650	-0.029038
 530	2.6450e-01	9.4327	79.458092	0.000384	3.837189	0.650037	-0.015326
 531	2.6500e-01	9.4116	79.341132	0.000586	5.856762	0.992162	-0.023392
 532	2.6550e-01	9.3927	79.208040	0.000666	6.664591	1.129012	-0.026618
 533	2.6600e-01	9.3719	79.187875	0.000101	1.009787	0.171062	-0.004033
 534	2.6650e-01	9.3524	79.083014	0.000525	5.250890	0.889525	-0.020972
 535	2.6700e-01	9.3329	78.982186	0.000505	5.048933	0.855312	-0.020165
 536	2.6750e-01	9.3127	78.853127	0.000646	6.462634	1.094800	-0.025812
 537	2.6800e-01	9.2932	78.784565	0.000343	3.433274	0.581612	-0.013713
 538	2.6850e-01	9.2719	78.647439	0.000687	6.866549	1.163225	-0.027425
 539	2.6900e-01	9.2529	78.546612	0.000505	5.048933	0.855312	-0.020165
 540	2.6950e-01	9.2322	78.449817	0.000485	4.846976	0.821100	-0.019359
 541	2.7000e-01	9.2126	78.284460	0.000828	8.280250	1.402712	-0.033071
 542	2.7050e-01	9.1922	78.175567	0.000545	5.452847	0.923737	-0.021779
 543	2.7100e-01	9.1724	78.111037	0.000323	3.231317	0.547400	-0.012906
 544	2.7150e-01	9.1522	77.994077	0.000586	5.856762	0.992162	-0.023392
 545	2.7200e-01	9.1315	77.869051	0.000626	6.260677	1.060587	-0.025005
 546	2.7250e-01	9.1119	77.768224	0.000505	5.048933	0.855312	-0.020165
 547	2.7300e-01	9.0924	77.647231	0.000606	6.058719	1.026375	-0.024199
 548	2.7350e-01	9.0723	77.550436	0.000485	4.846976	0.821100	-0.019359
 549	2.7400e-01	9.0524	77.465741	0.000424	4.241104	0.718462	-0.016939
 550	2.7450e-01	9.0326	77.272153	0.000969	9.693951	1.642200	-0.038718
 551	2.7500e-01	9.0112	77.235855	0.000182	1.817616	0.307912	-0.007260
 552	2.7550e-01	8.9923	77.114862	0.000606	6.058719	1.026375	-0.024199
 553	2.7600e-01	8.9734	76.993869	0.000606	6.058719	1.026375	-0.024199
 554	2.7650e-01	8.9526	76.852710	0.000707	7.068506	1.197437	-0.028232
 555	2.7700e-01	8.9331	76.772048	0.000404	4.039146	0.684250	-0.016132
 556	2.7750e-01	8.9117	76.671221	0.000505	5.048933	0.855312	-0.020165
 557	2.7800e-01	8.8916	76.521996	0.000747	7.472421	1.265862	-0.029845
 558	2.7850e-01	8.8715	76.485698	0.000182	1.817616	0.307912	-0.007260
 559	2.7900e-01	8.8519	76.328408	0.000788	7.876335	1.334287	-0.031458
 560	2.7950e-01	8.8315	76.227580	0.000505	5.048933	0.855312	-0.020165
 561	2.8000e-01	8.8129	76.126753	0.000505	5.048933	0.855312	-0.020165
 562	2.8050e-01	8.7927	76.062223	0.000323	3.231317	0.547400	-0.012906
 563	2.8100e-01	8.7726	75.925098	0.000687	6.866549	1.163225	-0.027425
 564	2.8150e-01	8.7524	75.808138	0.000586	5.856762	0.992162	-0.023392
 565	2.8200e-01	8.7332	75.675046	0.000666	6.664591	1.129012	-0.026618
 566	2.8250e-01	8.7128	75.554053	0.000606	6.058719	1.026375	-0.024199
 567	2.8300e-01	8.6926	75.465324	0.000444	4.443061	0.752675	-0.017746
 568	2.8350e-01	8.6719	75.328199	0.000687	6.866549	1.163225	-0.027425
 569	2.8400e-01	8.6526	75.235438	0.000465	4.645018	0.786887	-0.018552
 570	2.8450e-01	8.6322	75.162842	0.000364	3.635232	0.615825	-0.014519
 571	2.8500e-01	8.6124	74.977320	0.000929	9.290036	1.573775	-0.037105
 572	2.8550e-01	8.5922	74.856327	0.000606	6.058719	1.026375	-0.024199
 573	2.8600e-01	8.5724	74.763565	0.000465	4.645018	0.786887	-0.018552
 574	2.8650e-01	8.5522	74.707102	0.000283	2.827402	0.478975	-0.011293
 575	2.8700e-01	8.5327	74.545778	0.000808	8.078293	1.368500	-0.032265
 576	2.8750e-01	8.5114	74.473182	0.000364	3.635232	0.615825	-0.014519
 577	2.8800e-01	8.4918	74.364289	0.000545	5.452847	0.923737	-0.021779
 578	2.8850e-01	8.4726	74.263461	0.000505	5.048933	0.855312	-0.020165
 579	2.8900e-01	8.4528	74.061806	0.001010	10.097866	1.710625	-0.040331
 580	2.8950e-01	8.4326	73.948879	0.000565	5.654805	0.957950	-0.022585
 581	2.9000e-01	8.4128	73.872251	0.000384	3.837189	0.650037	-0.015326
 582	2.9050e-01	8.3926	73.743191	0.000646	6.462634	1.094800	-0.025812
 583	2.9100e-01	8.3728	73.658496	0.000424	4.241104	0.718462	-0.016939
 584	2.9150e-01	8.3521	73.485073	0.000868	8.684165	1.471137	-0.034685
 585	2.9200e-01	8.3325	73.404411	0.000404	4.039146	0.684250	-0.016132
 586	2.9250e-01	8.3127	73.299551	0.000525	5.250890	0.889525	-0.020972
 587	2.9300e-01	8.2919	73.134194	0.000828	8.280250	1.402712	-0.033071
 588	2.9350e-01	8.2721	73.085796	0.000242	2.423488	0.410550	-0.009679
 589	2.9400e-01	8.2526	72.952704	0.000666	6.664591	1.129012	-0.026618
 590	2.9450e-01	8.2324	72.823645	0.000646	6.462634	1.094800	-0.025812
 591	2.9500e-01	8.2117	72.718784	0.000525	5.250890	0.889525	-0.020972
 592	2.9550e-01	8.1909	72.609891	0.000545	5.452847	0.923737	-0.021779
 593	2.9600e-01	8.1720	72.460666	0.000747	7.472421	1.265862	-0.029845
 594	2.9650e-01	8.1519	72.339673	0.000606	6.058719	1.026375	-0.024199
 595	2.9700e-01	8.1329	72.210614	0.000646	6.462634	1.094800	-0.025812
 596	2.9750e-01	8.1117	72.125919	0.000424	4.241104	0.718462	-0.016939
 597	2.9800e-01	8.0927	72.041224	0.000424	4.241104	0.718462	-0.016939
 598	2.9850e-01	8.0719	71.896032	0.000727	7.270463	1.231650	-0.029038
 599	2.9900e-01	8.0518	71.762940	0.000666	6.664591	1.129012	-0.026618
 600	2.9950e-01	8.0322	71.609682	0.000767	7.674378	1.300075	-0.030652
 601	3.0000e-01	8.0121	71.512888	0.000485	4.846976	0.821100	-0.019359
 602	3.0050e-01	7.9919	71.375763	0.000687	6.866549	1.163225	-0.027425
 603	3.0100e-01	7.9712	71.254770	0.000606	6.058719	1.026375	-0.024199
 604	3.0150e-01	7.9517	71.097479	0.000788	7.876335	1.334287	-0.031458
 605	3.0200e-01	7.9327	71.053115	0.000222	2.221530	0.376337	-0.008873
 606	3.0250e-01	7.9120	70.895824	0.000788	7.876335	1.334287	-0.031458
 607	3.0300e-01	7.8915	70.843393	0.000263	2.625445	0.444762	-0.010486
 608	3.0350e-01	7.8723	70.678036	0.000828	8.280250	1.402712	-0.033071
 609	3.0400e-01	7.8522	70.593341	0.000424	4.241104	0.718462	-0.016939
 610	3.0450e-01	7.8314	70.432017	0.000808	8.078293	1.368500	-0.032265
 611	3.0500e-01	7.8119	70.294892	0.000687	6.866549	1.163225	-0.027425
 612	3.0550e-01	7.7930	70.198098	0.000485	4.846976	0.821100	-0.019359
 613	3.0600e-01	7.7722	70.097270	0.000505	5.048933	0.855312	-0.020165
 614	3.0650e-01	7.7515	69.976277	0.000606	6.058719	1.026375	-0.024199
 615	3.0700e-01	7.7332	69.827053	0.000747	7.472421	1.265862	-0.029845
 616	3.0750e-01	7.7118	69.730258	0.000485	4.846976	0.821100	-0.019359
 617	3.0800e-01	7.6917	69.577001	0.000767	7.674378	1.300075	-0.030652
 618	3.0850e-01	7.6718	69.512471	0.000323	3.231317	0.547400	-0.012906
 619	3.0900e-01	7.6520	69.363246	0.000747	7.472421	1.265862	-0.029845
 620	3.0950e-01	7.6324	69.222088	0.000707	7.068506	1.197437	-0.028232
 621	3.1000e-01	7.6118	69.101095	0.000606	6.058719	1.026375	-0.024199
 622	3.1050e-01	7.5912	68.951870	0.000747	7.472421	1.265862	-0.029845
 623	3.1100e-01	7.5714	68.798613	0.000767	7.674378	1.300075	-0.030652
 624	3.1150e-01	7.5516	68.689719	0.000545	5.452847	0.923737	-0.021779
 625	3.1200e-01	7.5333	68.596958	0.000465	4.645018	0.786887	-0.018552
 626	3.1250e-01	7.5122	68.488064	0.000545	5.452847	0.923737	-0.021779
 627	3.1300e-01	7.4927	68.367071	0.000606	6.058719	1.026375	-0.024199
 628	3.1350e-01	7.4731	68.238012	0.000646	6.462634	1.094800	-0.025812
 629	3.1400e-01	7.4527	68.100886	0.000687	6.866549	1.163225	-0.027425
 630	3.1450e-01	7.4329	67.951662	0.000747	7.472421	1.265862	-0.029845
 631	3.1500e-01	7.4133	67.858901	0.000465	4.645018	0.786887	-0.018552
 632	3.1550e-01	7.3914	67.701610	0.000788	7.876335	1.334287	-0.031458
 633	3.1600e-01	7.3730	67.669345	0.000162	1.615659	0.273700	-0.006453
 634	3.1650e-01	7.3526	67.520120	0.000747	7.472421	1.265862	-0.029845
 635	3.1700e-01	7.3315	67.318465	0.001010	10.097866	1.710625	-0.040331
 636	3.1750e-01	7.3138	67.209572	0.000545	5.452847	0.923737	-0.021779
 637	3.1800e-01	7.2931	67.128910	0.000404	4.039146	0.684250	-0.016132
 638	3.1850e-01	7.2736	66.955486	0.000868	8.684165	1.471137	-0.034685
 639	3.1900e-01	7.2522	66.866758	0.000444	4.443061	0.752675	-0.017746
 640	3.1950e-01	7.2327	66.757865	0.000545	5.452847	0.923737	-0.021779
 641	3.2000e-01	7.2125	66.608640	0.000747	7.472421	1.265862	-0.029845
 642	3.2050e-01	7.1930	66.491680	0.000586	5.856762	0.992162	-0.023392
 643	3.2100e-01	7.1725	66.334389	0.000788	7.876335	1.334287	-0.031458
 644	3.2150e-01	7.1530	66.221463	0.000565	5.654805	0.957950	-0.022585
 645	3.2200e-01	7.1326	66.060139	0.000808	8.078293	1.368500	-0.032265
 646	3.2250e-01	7.1130	65.983510	0.000384	3.837189	0.650037	-0.015326
 647	3.2300e-01	7.0923	65.785888	0.000990	9.895908	1.676412	-0.039524
 648	3.2350e-01	7.0728	65.773789	0.000061	0.605872	0.102637	-0.002420
 649	3.2400e-01	7.0526	65.624564	0.000747	7.472421	1.265862	-0.029845
 650	3.2450e-01	7.0331	65.463240	0.000808	8.078293	1.368500	-0.032265
 651	3.2500e-01	7.0117	65.338214	0.000626	6.260677	1.060587	-0.025005
 652	3.2550e-01	6.9934	65.213188	0.000626	6.260677	1.060587	-0.025005
 653	3.2600e-01	6.9727	65.067996	0.000727	7.270463	1.231650	-0.029038
 654	3.2650e-01	6.9531	64.926838	0.000707	7.068506	1.197437	-0.028232
 655	3.2700e-01	6.9324	64.809878	0.000586	5.856762	0.992162	-0.023392
 656	3.2750e-01	6.9119	64.628389	0.000909	9.088079	1.539562	-0.036298
 657	3.2800e-01	6.8927	64.527561	0.000505	5.048933	0.855312	-0.020165
 658	3.2850e-01	6.8726	64.362204	0.000828	8.280250	1.402712	-0.033071
 659	3.2900e-01	6.8524	64.313807	0.000242	2.423488	0.410550	-0.009679
 660	3.2950e-01	6.8323	64.168615	0.000727	7.270463	1.231650	-0.029038
 661	3.3000e-01	6.8134	64.035523	0.000666	6.664591	1.129012	-0.026618
 662	3.3050e-01	6.7932	63.870166	0.000828	8.280250	1.402712	-0.033071
 663	3.3100e-01	6.7728	63.777405	0.000465	4.645018	0.786887	-0.018552
 664	3.3150e-01	6.7535	63.656412	0.000606	6.058719	1.026375	-0.024199
 665	3.3200e-01	6.7328	63.507187	0.000747	7.472421	1.265862	-0.029845
 666	3.3250e-01	6.7133	63.370062	0.000687	6.866549	1.163225	-0.027425
 667	3.3300e-01	6.6940	63.204705	0.000828	8.280250	1.402712	-0.033071
 668	3.3350e-01	6.6730	63.099844	0.000525	5.250890	0.889525	-0.020972
 669	3.3400e-01	6.6528	62.978851	0.000606	6.058719	1.026375	-0.024199
 670	3.3450e-01	6.6322	62.833660	0.000727	7.270463	1.231650	-0.029038
 671	3.3500e-01	6.6125	62.712667	0.000606	6.058719	1.026375	-0.024199
 672	3.3550e-01	6.5921	62.551343	0.000808	8.078293	1.368500	-0.032265
 673	3.3600e-01	6.5732	62.454548	0.000485	4.846976	0.821100	-0.019359
 674	3.3650e-01	6.5527	62.305324	0.000747	7.472421	1.265862	-0.029845
 675	3.3700e-01	6.5320	62.220629	0.000424	4.241104	0.718462	-0.016939
 676	3.3750e-01	6.5125	62.063338	0.000788	7.876335	1.334287	-0.031458
 677	3.3800e-01	6.4923	61.910080	0.000767	7.674378	1.300075	-0.030652
 678	3.3850e-01	6.4722	61.789087	0.000606	6.058719	1.026375	-0.024199
 679	3.3900e-01	6.4523	61.631796	0.000788	7.876335	1.334287	-0.031458
 680	3.3950e-01	6.4325	61.506770	0.000626	6.260677	1.060587	-0.025005
 681	3.4000e-01	6.4124	61.377711	0.000646	6.462634	1.094800	-0.025812
 682	3.4050e-01	6.3977	61.268817	0.000545	5.452847	0.923737	-0.021779
 683	3.4100e-01	6.3725	61.155891	0.000565	5.654805	0.957950	-0.022585
 684	3.4150e-01	6.3522	60.942136	0.001070	10.703738	1.813262	-0.042751
 685	3.4200e-01	6.3336	60.805011	0.000687	6.866549	1.163225	-0.027425
 686	3.4250e-01	6.3120	60.688051	0.000586	5.856762	0.992162	-0.023392
 687	3.4300e-01	6.2927	60.663853	0.000121	1.211744	0.205275	-0.004840
 688	3.4350e-01	6.2726	60.446065	0.001091	10.905695	1.847475	-0.043557
 689	3.4400e-01	6.2537	60.296841	0.000747	7.472421	1.265862	-0.029845
 690	3.4450e-01	6.2329	60.143583	0.000767	7.674378	1.300075	-0.030652
 691	3.4500e-01	6.2128	59.974193	0.000848	8.482207	1.436925	-0.033878
 692	3.4550e-01	6.1926	59.893531	0.000404	4.039146	0.684250	-0.016132
 693	3.4600e-01	6.1728	59.740273	0.000767	7.674378	1.300075	-0.030652
 694	3.4650e-01	6.1536	59.574916	0.000828	8.280250	1.402712	-0.033071
 695	3.4700e-01	6.1324	59.498287	0.000384	3.837189	0.650037	-0.015326
 696	3.4750e-01	6.1127	59.349062	0.000747	7.472421	1.265862	-0.029845
 697	3.4800e-01	6.0934	59.224036	0.000626	6.260677	1.060587	-0.025005
 698	3.4850e-01	6.0724	59.115143	0.000545	5.452847	0.923737	-0.021779
 699	3.4900e-01	6.0522	58.909455	0.001030	10.299823	1.744837	-0.041138
 700	3.4950e-01	6.0339	58.808627	0.000505	5.048933	0.855312	-0.020165
 701	3.5000e-01	6.0132	58.627138	0.000909	9.088079	1.539562	-0.036298
 702	3.5050e-01	5.9918	58.498079	0.000646	6.462634	1.094800	-0.025812
 703	3.5100e-01	5.9729	58.397251	0.000505	5.048933	0.855312	-0.020165
 704	3.5150e-01	5.9528	58.256093	0.000707	7.068506	1.197437	-0.028232
 705	3.5200e-01	5.9338	58.086703	0.000848	8.482207	1.436925	-0.033878
 706	3.5250e-01	5.9128	57.925379	0.000808	8.078293	1.368500	-0.032265
 707	3.5300e-01	5.8923	57.800353	0.000626	6.260677	1.060587	-0.025005
 708	3.5350e-01	5.8728	57.707591	0.000465	4.645018	0.786887	-0.018552
 709	3.5400e-01	5.8527	57.469639	0.001192	11.915482	2.018537	-0.047591
 710	3.5450e-01	5.8331	57.344612	0.000626	6.260677	1.060587	-0.025005
 711	3.5500e-01	5.8124	57.267984	0.000384	3.837189	0.650037	-0.015326
 712	3.5550e-01	5.7924	57.094560	0.000868	8.684165	1.471137	-0.034685
 713	3.5600e-01	5.7724	56.989700	0.000525	5.250890	0.889525	-0.020972
 714	3.5650e-01	5.7520	56.824343	0.000828	8.280250	1.402712	-0.033071
 715	3.5700e-01	5.7324	56.707383	0.000586	5.856762	0.992162	-0.023392
 716	3.5750e-01	5.7120	56.554125	0.000767	7.674378	1.300075	-0.030652
 717	3.5800e-01	5.6931	56.412967	0.000707	7.068506	1.197437	-0.028232
 718	3.5850e-01	5.6721	56.243577	0.000848	8.482207	1.436925	-0.033878
 719	3.5900e-01	5.6519	56.106451	0.000687	6.866549	1.163225	-0.027425
 720	3.5950e-01	5.6323	55.957227	0.000747	7.472421	1.265862	-0.029845
 721	3.6000e-01	5.6122	55.828167	0.000646	6.462634	1.094800	-0.025812
 722	3.6050e-01	5.5923	55.703141	0.000626	6.260677	1.060587	-0.025005
 723	3.6100e-01	5.5725	55.566016	0.000687	6.866549	1.163225	-0.027425
 724	3.6150e-01	5.5525	55.376460	0.000949	9.491994	1.607987	-0.037911
 725	3.6200e-01	5.5319	55.235302	0.000707	7.068506	1.197437	-0.028232
 726	3.6250e-01	5.5124	55.154640	0.000404	4.039146	0.684250	-0.016132
 727	3.6300e-01	5.4926	54.969117	0.000929	9.290036	1.573775	-0.037105
 728	3.6350e-01	5.4718	54.803760	0.000828	8.280250	1.402712	-0.033071
 729	3.6400e-01	5.4517	54.662602	0.000707	7.068506	1.197437	-0.028232
 730	3.6450e-01	5.4321	54.473046	0.000949	9.491994	1.607987	-0.037911
 731	3.6500e-01	5.4120	54.360120	0.000565	5.654805	0.957950	-0.022585
 732	3.6550e-01	5.3925	54.283491	0.000384	3.837189	0.650037	-0.015326
 733	3.6600e-01	5.3735	54.122167	0.000808	8.078293	1.368500	-0.032265
 734	3.6650e-01	5.3522	53.944710	0.000889	8.886122	1.505350	-0.035491
 735	3.6700e-01	5.3320	53.767254	0.000889	8.886122	1.505350	-0.035491
 736	3.6750e-01	5.3125	53.654327	0.000565	5.654805	0.957950	-0.022585
 737	3.6800e-01	5.2927	53.464772	0.000949	9.491994	1.607987	-0.037911
 738	3.6850e-01	5.2724	53.392176	0.000364	3.635232	0.615825	-0.014519
 739	3.6900e-01	5.2527	53.198587	0.000969	9.693951	1.642200	-0.038718
 740	3.6950e-01	5.2350	53.130024	0.000343	3.433274	0.581612	-0.013713
 741	3.7000e-01	5.2130	52.900138	0.001151	11.511567	1.950112	-0.045977
 742	3.7050e-01	5.1920	52.750913	0.000747	7.472421	1.265862	-0.029845
 743	3.7100e-01	5.1723	52.625887	0.000626	6.260677	1.060587	-0.025005
 744	3.7150e-01	5.1532	52.468596	0.000788	7.876335	1.334287	-0.031458
 745	3.7200e-01	5.1328	52.335504	0.000666	6.664591	1.129012	-0.026618
 746	3.7250e-01	5.1129	52.190312	0.000727	7.270463	1.231650	-0.029038
 747	3.7300e-01	5.0922	52.024955	0.000828	8.280250	1.402712	-0.033071
 748	3.7350e-01	5.0720	51.924128	0.000505	5.048933	0.855312	-0.020165
 749	3.7400e-01	5.0516	51.738605	0.000929	9.290036	1.573775	-0.037105
 750	3.7450e-01	5.0323	51.561149	0.000889	8.886122	1.505350	-0.035491
 751	3.7500e-01	5.0124	51.428057	0.000666	6.664591	1.129012	-0.026618
 752	3.7550e-01	4.9928	51.274799	0.000767	7.674378	1.300075	-0.030652
 753	3.7600e-01	4.9722	51.097343	0.000889	8.886122	1.505350	-0.035491
 754	3.7650e-01	4.9515	50.944085	0.000767	7.674378	1.300075	-0.030652
 755	3.7700e-01	4.9329	50.871489	0.000364	3.635232	0.615825	-0.014519
 756	3.7750e-01	4.9118	50.694033	0.000889	8.886122	1.505350	-0.035491
 757	3.7800e-01	4.8926	50.484312	0.001050	10.501780	1.779050	-0.041944
 758	3.7850e-01	4.8721	50.371385	0.000565	5.654805	0.957950	-0.022585
 759	3.7900e-01	4.8529	50.185862	0.000929	9.290036	1.573775	-0.037105
 760	3.7950e-01	4.8328	50.040671	0.000727	7.270463	1.231650	-0.029038
 761	3.8000e-01	4.8117	49.919678	0.000606	6.058719	1.026375	-0.024199
 762	3.8050e-01	4.7914	49.766420	0.000767	7.674378	1.300075	-0.030652
 763	3.8100e-01	4.7723	49.601063	0.000828	8.280250	1.402712	-0.033071
 764	3.8150e-01	4.7527	49.443772	0.000788	7.876335	1.334287	-0.031458
 765	3.8200e-01	4.7314	49.310680	0.000666	6.664591	1.129012	-0.026618
 766	3.8250e-01	4.7125	49.153389	0.000788	7.876335	1.334287	-0.031458
 767	3.8300e-01	4.6924	48.992065	0.000808	8.078293	1.368500	-0.032265
 768	3.8350e-01	4.6723	48.846874	0.000727	7.270463	1.231650	-0.029038
 769	3.8400e-01	4.6523	48.677484	0.000848	8.482207	1.436925	-0.033878
 770	3.8450e-01	4.6320	48.512127	0.000828	8.280250	1.402712	-0.033071
 771	3.8500e-01	4.6127	48.427431	0.000424	4.241104	0.718462	-0.016939
 772	3.8550e-01	4.5926	48.298372	0.000646	6.462634	1.094800	-0.025812
 773	3.8600e-01	4.5723	48.088651	0.001050	10.501780	1.779050	-0.041944
 774	3.8650e-01	4.5520	47.891029	0.000990	9.895908	1.676412	-0.039524
 775	3.8700e-01	4.5325	47.717606	0.000868	8.684165	1.471137	-0.034685
 776	3.8750e-01	4.5117	47.548216	0.000848	8.482207	1.436925	-0.033878
 777	3.8800e-01	4.4920	47.463521	0.000424	4.241104	0.718462	-0.016939
 778	3.8850e-01	4.4724	47.322362	0.000707	7.068506	1.197437	-0.028232
 779	3.8900e-01	4.4531	47.177171	0.000727	7.270463	1.231650	-0.029038
 780	3.8950e-01	4.4324	47.036012	0.000707	7.068506	1.197437	-0.028232
 781	3.9000e-01	4.4128	46.826291	0.001050	10.501780	1.779050	-0.041944
 782	3.9050e-01	4.3924	46.681100	0.000727	7.270463	1.231650	-0.029038
 783	3.9100e-01	4.3732	46.499610	0.000909	9.088079	1.539562	-0.036298
 784	3.9150e-01	4.3524	46.358452	0.000707	7.068506	1.197437	-0.028232
 785	3.9200e-01	4.3329	46.193095	0.000828	8.280250	1.402712	-0.033071
 786	3.9250e-01	4.3129	46.039837	0.000767	7.674378	1.300075	-0.030652
 787	3.9300e-01	4.2929	45.866414	0.000868	8.684165	1.471137	-0.034685
 788	3.9350e-01	4.2722	45.737355	0.000646	6.462634	1.094800	-0.025812
 789	3.9400e-01	4.2529	45.576031	0.000808	8.078293	1.368500	-0.032265
 790	3.9450e-01	4.2328	45.390508	0.000929	9.290036	1.573775	-0.037105
 791	3.9500e-01	4.2122	45.261449	0.000646	6.462634	1.094800	-0.025812
 792	3.9550e-01	4.1925	45.079960	0.000909	9.088079	1.539562	-0.036298
 793	3.9600e-01	4.1724	44.894437	0.000929	9.290036	1.573775	-0.037105
 794	3.9650e-01	4.1522	44.704881	0.000949	9.491994	1.607987	-0.037911
 795	3.9700e-01	4.1324	44.612120	0.000465	4.645018	0.786887	-0.018552
 796	3.9750e-01	4.1115	44.426598	0.000929	9.290036	1.573775	-0.037105
 797	3.9800e-01	4.0926	44.325770	0.000505	5.048933	0.855312	-0.020165
 798	3.9850e-01	4.0698	44.172512	0.000767	7.674378	1.300075	-0.030652
 799	3.9900e-01	4.0521	43.906328	0.001333	13.329183	2.258025	-0.053237
 800	3.9950e-01	4.0320	43.825666	0.000404	4.039146	0.684250	-0.016132
 801	4.0000e-01	4.0131	43.619978	0.001030	10.299823	1.744837	-0.041138
 802	4.0050e-01	3.9923	43.462687	0.000788	7.876335	1.334287	-0.031458
 803	4.0100e-01	3.9717	43.305396	0.000788	7.876335	1.334287	-0.031458
 804	4.0150e-01	3.9520	43.127940	0.000889	8.886122	1.505350	-0.035491
 805	4.0200e-01	3.9313	43.010980	0.000586	5.856762	0.992162	-0.023392
 806	4.0250e-01	3.9127	42.833524	0.000889	8.886122	1.505350	-0.035491
 807	4.0300e-01	3.8916	42.660100	0.000868	8.684165	1.471137	-0.034685
 808	4.0350e-01	3.8721	42.486677	0.000868	8.684165	1.471137	-0.034685
 809	4.0400e-01	3.8522	42.345519	0.000707	7.068506	1.197437	-0.028232
 810	4.0450e-01	3.8322	42.188228	0.000788	7.876335	1.334287	-0.031458
 811	4.0500e-01	3.8116	42.006738	0.000909	9.088079	1.539562	-0.036298
 812	4.0550e-01	3.7909	41.849448	0.000788	7.876335	1.334287	-0.031458
 813	4.0600e-01	3.7735	41.684091	0.000828	8.280250	1.402712	-0.033071
 814	4.0650e-01	3.7520	41.494535	0.000949	9.491994	1.607987	-0.037911
 815	4.0700e-01	3.7338	41.284814	0.001050	10.501780	1.779050	-0.041944
 816	4.0750e-01	3.7125	41.175920	0.000545	5.452847	0.923737	-0.021779
 817	4.0800e-01	3.6926	41.014596	0.000808	8.078293	1.368500	-0.032265
 818	4.0850e-01	3.6730	40.857305	0.000788	7.876335	1.334287	-0.031458
 819	4.0900e-01	3.6523	40.695981	0.000808	8.078293	1.368500	-0.032265
 820	4.0950e-01	3.6322	40.518525	0.000889	8.886122	1.505350	-0.035491
 821	4.1000e-01	3.6112	40.328969	0.000949	9.491994	1.607987	-0.037911
 822	4.1050e-01	3.5919	40.207977	0.000606	6.058719	1.026375	-0.024199
 823	4.1100e-01	3.5727	40.014388	0.000969	9.693951	1.642200	-0.038718
 824	4.1150e-01	3.5519	39.836931	0.000889	8.886122	1.505350	-0.035491
 825	4.1200e-01	3.5321	39.639310	0.000990	9.895908	1.676412	-0.039524
 826	4.1250e-01	3.5126	39.498151	0.000707	7.068506	1.197437	-0.028232
 827	4.1300e-01	3.4923	39.352960	0.000727	7.270463	1.231650	-0.029038
 828	4.1350e-01	3.4732	39.175503	0.000889	8.886122	1.505350	-0.035491
 829	4.1400e-01	3.4534	39.014179	0.000808	8.078293	1.368500	-0.032265
 830	4.1450e-01	3.4320	38.860922	0.000767	7.674378	1.300075	-0.030652
 831	4.1500e-01	3.4125	38.647167	0.001070	10.703738	1.813262	-0.042751
 832	4.1550e-01	3.3926	38.485843	0.000808	8.078293	1.368500	-0.032265
 833	4.1600e-01	3.3722	38.336619	0.000747	7.472421	1.265862	-0.029845
 834	4.1650e-01	3.3527	38.130931	0.001030	10.299823	1.744837	-0.041138
 835	4.1700e-01	3.3329	37.961541	0.000848	8.482207	1.436925	-0.033878
 836	4.1750e-01	3.3130	37.816349	0.000727	7.270463	1.231650	-0.029038
 837	4.1800e-01	3.2919	37.695356	0.000606	6.058719	1.026375	-0.024199
 838	4.1850e-01	3.2715	37.445304	0.001252	12.521353	2.121175	-0.050010
 839	4.1900e-01	3.2523	37.332377	0.000565	5.654805	0.957950	-0.022585
 840	4.1950e-01	3.2329	37.150888	0.000909	9.088079	1.539562	-0.036298
 841	4.2000e-01	3.2129	37.025862	0.000626	6.260677	1.060587	-0.025005
 842	4.2050e-01	3.1929	36.812107	0.001070	10.703738	1.813262	-0.042751
 843	4.2100e-01	3.1726	36.695148	0.000586	5.856762	0.992162	-0.023392
 844	4.2150e-01	3.1522	36.441062	0.001272	12.723311	2.155387	-0.050817
 845	4.2200e-01	3.1329	36.283772	0.000788	7.876335	1.334287	-0.031458
 846	4.2250e-01	3.1122	36.138580	0.000727	7.270463	1.231650	-0.029038
 847	4.2300e-01	3.0920	35.920793	0.001091	10.905695	1.847475	-0.043557
 848	4.2350e-01	3.0725	35.735270	0.000929	9.290036	1.573775	-0.037105
 849	4.2400e-01	3.0524	35.582012	0.000767	7.674378	1.300075	-0.030652
 850	4.2450e-01	3.0322	35.424722	0.000788	7.876335	1.334287	-0.031458
 851	4.2500e-01	3.0127	35.202901	0.001111	11.107652	1.881687	-0.044364
 852	4.2550e-01	2.9926	35.077875	0.000626	6.260677	1.060587	-0.025005
 853	4.2600e-01	2.9728	34.908485	0.000848	8.482207	1.436925	-0.033878
 854	4.2650e-01	2.9523	34.666499	0.001212	12.117439	2.052750	-0.048397
 855	4.2700e-01	2.9330	34.549539	0.000586	5.856762	0.992162	-0.023392
 856	4.2750e-01	2.9160	34.376116	0.000868	8.684165	1.471137	-0.034685
 857	4.2800e-01	2.8928	34.190593	0.000929	9.290036	1.573775	-0.037105
 858	4.2850e-01	2.8714	33.997005	0.000969	9.693951	1.642200	-0.038718
 859	4.2900e-01	2.8522	33.831648	0.000828	8.280250	1.402712	-0.033071
 860	4.2950e-01	2.8320	33.666291	0.000828	8.280250	1.402712	-0.033071
 861	4.3000e-01	2.8122	33.484801	0.000909	9.088079	1.539562	-0.036298
 862	4.3050e-01	2.7914	33.327510	0.000788	7.876335	1.334287	-0.031458
 863	4.3100e-01	2.7730	33.125855	0.001010	10.097866	1.710625	-0.040331
 864	4.3150e-01	2.7518	32.992763	0.000666	6.664591	1.129012	-0.026618
 865	4.3200e-01	2.7324	32.783042	0.001050	10.501780	1.779050	-0.041944
 866	4.3250e-01	2.7126	32.585420	0.000990	9.895908	1.676412	-0.039524
 867	4.3300e-01	2.6929	32.496692	0.000444	4.443061	0.752675	-0.017746
 868	4.3350e-01	2.6721	32.291004	0.001030	10.299823	1.744837	-0.041138
 869	4.3400e-01	2.6521	32.077250	0.001070	10.703738	1.813262	-0.042751
 870	4.3450e-01	2.6315	31.919959	0.000788	7.876335	1.334287	-0.031458
 871	4.3500e-01	2.6118	31.706205	0.001070	10.703738	1.813262	-0.042751
 872	4.3550e-01	2.5919	31.544881	0.000808	8.078293	1.368500	-0.032265
 873	4.3600e-01	2.5727	31.375491	0.000848	8.482207	1.436925	-0.033878
 874	4.3650e-01	2.5519	31.189968	0.000929	9.290036	1.573775	-0.037105
 875	4.3700e-01	2.5311	30.980247	0.001050	10.501780	1.779050	-0.041944
 876	4.3750e-01	2.5116	30.851188	0.000646	6.462634	1.094800	-0.025812
 877	4.3800e-01	2.4921	30.649533	0.001010	10.097866	1.710625	-0.040331
 878	4.3850e-01	2.4731	30.451911	0.000990	9.895908	1.676412	-0.039524
 879	4.3900e-01	2.4527	30.282521	0.000848	8.482207	1.436925	-0.033878
 880	4.3950e-01	2.4332	30.101031	0.000909	9.088079	1.539562	-0.036298
 881	4.4000e-01	2.4123	29.919542	0.000909	9.088079	1.539562	-0.036298
 882	4.4050e-01	2.3921	29.729986	0.000949	9.491994	1.607987	-0.037911
 883	4.4100e-01	2.3714	29.548497	0.000909	9.088079	1.539562	-0.036298
 884	4.4150e-01	2.3523	29.387173	0.000808	8.078293	1.368500	-0.032265
 885	4.4200e-01	2.3322	29.225849	0.000808	8.078293	1.368500	-0.032265
 886	4.4250e-01	2.3120	29.036293	0.000949	9.491994	1.607987	-0.037911
 887	4.4300e-01	2.2914	28.834638	0.001010	10.097866	1.710625	-0.040331
 888	4.4350e-01	2.2721	28.661215	0.000868	8.684165	1.471137	-0.034685
 889	4.4400e-01	2.2520	28.520057	0.000707	7.068506	1.197437	-0.028232
 890	4.4450e-01	2.2311	28.326468	0.000969	9.693951	1.642200	-0.038718
 891	4.4500e-01	2.2115	28.096581	0.001151	11.511567	1.950112	-0.045977
 892	4.4550e-01	2.1919	27.979622	0.000586	5.856762	0.992162	-0.023392
 893	4.4600e-01	2.1716	27.753768	0.001131	11.309610	1.915900	-0.045171
 894	4.4650e-01	2.1518	27.560179	0.000969	9.693951	1.642200	-0.038718
 895	4.4700e-01	2.1323	27.390789	0.000848	8.482207	1.436925	-0.033878
 896	4.4750e-01	2.1120	27.197200	0.000969	9.693951	1.642200	-0.038718
 897	4.4800e-01	2.0912	27.003612	0.000969	9.693951	1.642200	-0.038718
 898	4.4850e-01	2.0715	26.846321	0.000788	7.876335	1.334287	-0.031458
 899	4.4900e-01	2.0525	26.624500	0.001111	11.107652	1.881687	-0.044364
 900	4.4950e-01	2.0322	26.459143	0.000828	8.280250	1.402712	-0.033071
 901	4.5000e-01	2.0113	26.285720	0.000868	8.684165	1.471137	-0.034685
 902	4.5050e-01	1.9928	26.120363	0.000828	8.280250	1.402712	-0.033071
 903	4.5100e-01	1.9724	25.950973	0.000848	8.482207	1.436925	-0.033878
 904	4.5150e-01	1.9510	25.708987	0.001212	12.117439	2.052750	-0.048397
 905	4.5200e-01	1.9318	25.487167	0.001111	11.107652	1.881687	-0.044364
 906	4.5250e-01	1.9113	25.350041	0.000687	6.866549	1.163225	-0.027425
 907	4.5300e-01	1.8918	25.208883	0.000707	7.068506	1.197437	-0.028232
 908	4.5350e-01	1.8725	24.978996	0.001151	11.511567	1.950112	-0.045977
 909	4.5400e-01	1.8513	24.765242	0.001070	10.703738	1.813262	-0.042751
 910	4.5450e-01	1.8311	24.599885	0.000828	8.280250	1.402712	-0.033071
 911	4.5500e-01	1.8121	24.374031	0.001131	11.309610	1.915900	-0.045171
 912	4.5550e-01	1.7927	24.168343	0.001030	10.299823	1.744837	-0.041138
 913	4.5600e-01	1.7735	24.007019	0.000808	8.078293	1.368500	-0.032265
 914	4.5650e-01	1.7549	23.886026	0.000606	6.058719	1.026375	-0.024199
 915	4.5700e-01	1.7313	23.664206	0.001111	11.107652	1.881687	-0.044364
 916	4.5750e-01	1.7120	23.523048	0.000707	7.068506	1.197437	-0.028232
 917	4.5800e-01	1.6919	23.313326	0.001050	10.501780	1.779050	-0.041944
 918	4.5850e-01	1.6707	23.123771	0.000949	9.491994	1.607987	-0.037911
 919	4.5900e-01	1.6518	22.954381	0.000848	8.482207	1.436925	-0.033878
 920	4.5950e-01	1.6327	22.789024	0.000828	8.280250	1.402712	-0.033071
 921	4.6000e-01	1.6109	22.555104	0.001171	11.713524	1.984325	-0.046784
 922	4.6050e-01	1.5914	22.341350	0.001070	10.703738	1.813262	-0.042751
 923	4.6100e-01	1.5707	22.155827	0.000929	9.290036	1.573775	-0.037105
 924	4.6150e-01	1.5519	21.974338	0.000909	9.088079	1.539562	-0.036298
 925	4.6200e-01	1.5319	21.825113	0.000747	7.472421	1.265862	-0.029845
 926	4.6250e-01	1.5112	21.619425	0.001030	10.299823	1.744837	-0.041138
 927	4.6300e-01	1.4926	21.470200	0.000747	7.472421	1.265862	-0.029845
 928	4.6350e-01	1.4711	21.240314	0.001151	11.511567	1.950112	-0.045977
 929	4.6400e-01	1.4517	21.078990	0.000808	8.078293	1.368500	-0.032265
 930	4.6450e-01	1.4310	20.857169	0.001111	11.107652	1.881687	-0.044364
 931	4.6500e-01	1.4113	20.631316	0.001131	11.309610	1.915900	-0.045171
 932	4.6550e-01	1.3916	20.498224	0.000666	6.664591	1.129012	-0.026618
 933	4.6600e-01	1.3717	20.328834	0.000848	8.482207	1.436925	-0.033878
 934	4.6650e-01	1.3512	20.094914	0.001171	11.713524	1.984325	-0.046784
 935	4.6700e-01	1.3319	19.885193	0.001050	10.501780	1.779050	-0.041944
 936	4.6750e-01	1.3123	19.711769	0.000868	8.684165	1.471137	-0.034685
 937	4.6800e-01	1.2911	19.493982	0.001091	10.905695	1.847475	-0.043557
 938	4.6850e-01	1.2710	19.344757	0.000747	7.472421	1.265862	-0.029845
 939	4.6900e-01	1.2521	19.151169	0.000969	9.693951	1.642200	-0.038718
 940	4.6950e-01	1.2331	18.949514	0.001010	10.097866	1.710625	-0.040331
 941	4.7000e-01	1.2115	18.763991	0.000929	9.290036	1.573775	-0.037105
 942	4.7050e-01	1.1921	18.578469	0.000929	9.290036	1.573775	-0.037105
 943	4.7100e-01	1.1720	18.425211	0.000767	7.674378	1.300075	-0.030652
 944	4.7150e-01	1.1523	18.175159	0.001252	12.521353	2.121175	-0.050010
 945	4.7200e-01	1.1322	17.985603	0.000949	9.491994	1.607987	-0.037911
 946	4.7250e-01	1.1118	17.775882	0.001050	10.501780	1.779050	-0.041944
 947	4.7300e-01	1.0926	17.622624	0.000767	7.674378	1.300075	-0.030652
 948	4.7350e-01	1.0721	17.384672	0.001192	11.915482	2.018537	-0.047591
 949	4.7400e-01	1.0522	17.183017	0.001010	10.097866	1.710625	-0.040331
 950	4.7450e-01	1.0323	17.001527	0.000909	9.088079	1.539562	-0.036298
 951	4.7500e-01	1.0123	16.844236	0.000788	7.876335	1.334287	-0.031458
 952	4.7550e-01	0.9927	16.614350	0.001151	11.511567	1.950112	-0.045977
 953	4.7600e-01	0.9727	16.461092	0.000767	7.674378	1.300075	-0.030652
 954	4.7650e-01	0.9520	16.215073	0.001232	12.319396	2.086962	-0.049204
 955	4.7700e-01	0.9325	16.077948	0.000687	6.866549	1.163225	-0.027425
 956	4.7750e-01	0.9121	15.856127	0.001111	11.107652	1.881687	-0.044364
 957	4.7800e-01	0.8922	15.662538	0.000969	9.693951	1.642200	-0.038718
 958	4.7850e-01	0.8711	15.501214	0.000808	8.078293	1.368500	-0.032265
 959	4.7900e-01	0.8530	15.243096	0.001293	12.925268	2.189600	-0.051624
 960	4.7950e-01	0.8319	15.049507	0.000969	9.693951	1.642200	-0.038718
 961	4.8000e-01	0.8112	14.815588	0.001171	11.713524	1.984325	-0.046784
 962	4.8050e-01	0.7917	14.674429	0.000707	7.068506	1.197437	-0.028232
 963	4.8100e-01	0.7713	14.537304	0.000687	6.866549	1.163225	-0.027425
 964	4.8150e-01	0.7514	14.339682	0.000990	9.895908	1.676412	-0.039524
 965	4.8200e-01	0.7304	14.113829	0.001131	11.309610	1.915900	-0.045171
 966	4.8250e-01	0.7109	13.952505	0.000808	8.078293	1.368500	-0.032265
 967	4.8300e-01	0.6915	13.714552	0.001192	11.915482	2.018537	-0.047591
 968	4.8350e-01	0.6716	13.553228	0.000808	8.078293	1.368500	-0.032265
 969	4.8400e-01	0.6522	13.323341	0.001151	11.511567	1.950112	-0.045977
 970	4.8450e-01	0.6313	13.141852	0.000909	9.088079	1.539562	-0.036298
 971	4.8500e-01	0.6119	12.952296	0.000949	9.491994	1.607987	-0.037911
 972	4.8550e-01	0.5894	12.786939	0.000828	8.280250	1.402712	-0.033071
 973	4.8600e-01	0.5716	12.577218	0.001050	10.501780	1.779050	-0.041944
 974	4.8650e-01	0.5525	12.371530	0.001030	10.299823	1.744837	-0.041138
 975	4.8700e-01	0.5318	12.133577	0.001192	11.915482	2.018537	-0.047591
 976	4.8750e-01	0.5121	11.960154	0.000868	8.684165	1.471137	-0.034685
 977	4.8800e-01	0.4915	11.786731	0.000868	8.684165	1.471137	-0.034685
 978	4.8850e-01	0.4710	11.536679	0.001252	12.521353	2.121175	-0.050010
 979	4.8900e-01	0.4494	11.330991	0.001030	10.299823	1.744837	-0.041138
 980	4.8950e-01	0.4316	11.181766	0.000747	7.472421	1.265862	-0.029845
 981	4.9000e-01	0.4110	10.931714	0.001252	12.521353	2.121175	-0.050010
 982	4.9050e-01	0.3900	10.758291	0.000868	8.684165	1.471137	-0.034685
 983	4.9100e-01	0.3712	10.568735	0.000949	9.491994	1.607987	-0.037911
 984	4.9150e-01	0.3514	10.338848	0.001151	11.511567	1.950112	-0.045977
 985	4.9200e-01	0.3320	10.189624	0.000747	7.472421	1.265862	-0.029845
 986	4.9250e-01	0.3105	9.963770	0.001131	11.309610	1.915900	-0.045171
 987	4.9300e-01	0.2919	9.778248	0.000929	9.290036	1.573775	-0.037105
 988	4.9350e-01	0.2713	9.600791	0.000889	8.886122	1.505350	-0.035491
 989	4.9400e-01	0.2522	9.358805	0.001212	12.117439	2.052750	-0.048397
 990	4.9450e-01	0.2311	9.169250	0.000949	9.491994	1.607987	-0.037911
 991	4.9500e-01	0.2113	8.915164	0.001272	12.723311	2.155387	-0.050817
 992	4.9550e-01	0.1915	8.802238	0.000565	5.654805	0.957950	-0.022585
 993	4.9600e-01	0.1719	8.580417	0.001111	11.107652	1.881687	-0.044364
 994	4.9650e-01	0.1506	8.362630	0.001091	10.905695	1.847475	-0.043557
 995	4.9700e-01	0.1313	8.177107	0.000929	9.290036	1.573775	-0.037105
 996	4.9750e-01	0.1118	7.987552	0.000949	9.491994	1.607987	-0.037911
 997	4.9800e-01	0.0919	7.789930	0.000990	9.895908	1.676412	-0.039524
 998	4.9850e-01	0.0716	7.588275	0.001010	10.097866	1.710625	-0.040331
 999	4.9900e-01	0.0520	7.366455	0.001111	11.107652	1.881687	-0.044364
1000	4.9950e-01	0.0315	7.209164	0.000788	7.876335	1.334287	-0.031458
1001	5.0000e-01	0.0117	7.011542	0.000990	9.895908	1.676412	-0.039524
1002	5.0050e-01	-0.0080	6.781655	0.001151	11.511567	1.950112	-0.045977
1003	5.0100e-01	-0.0272	6.588067	0.000969	9.693951	1.642200	-0.038718
1004	5.0150e-01	-0.0468	6.350114	0.001192	11.915482	2.018537	-0.047591
1005	5.0200e-01	-0.0669	6.196856	0.000767	7.674378	1.300075	-0.030652
1006	5.0250e-01	-0.0869	5.946804	0.001252	12.521353	2.121175	-0.050010
1007	5.0300e-01	-0.1075	5.837910	0.000545	5.452847	0.923737	-0.021779
1008	5.0350e-01	-0.1267	5.599957	0.001192	11.915482	2.018537	-0.047591
1009	5.0400e-01	-0.1473	5.438633	0.000808	8.078293	1.368500	-0.032265
1010	5.0450e-01	-0.1664	5.212780	0.001131	11.309610	1.915900	-0.045171
1011	5.0500e-01	-0.1858	4.999026	0.001070	10.703738	1.813262	-0.042751
1012	5.0550e-01	-0.2064	4.789305	0.001050	10.501780	1.779050	-0.041944
1013	5.0600e-01	-0.2274	4.615881	0.000868	8.684165	1.471137	-0.034685
1014	5.0650e-01	-0.2465	4.390028	0.001131	11.309610	1.915900	-0.045171
1015	5.0700e-01	-0.2671	4.176274	0.001070	10.703738	1.813262	-0.042751
1016	5.0750e-01	-0.2870	4.051248	0.000626	6.260677	1.060587	-0.025005
1017	5.0800e-01	-0.3065	3.813295	0.001192	11.915482	2.018537	-0.047591
1018	5.0850e-01	-0.3276	3.575342	0.001192	11.915482	2.018537	-0.047591
1019	5.0900e-01	-0.3468	3.409985	0.000828	8.280250	1.402712	-0.033071
1020	5.0950e-01	-0.3667	3.192198	0.001091	10.905695	1.847475	-0.043557
1021	5.1000e-01	-0.3880	3.030874	0.000808	8.078293	1.368500	-0.032265
1022	5.1050e-01	-0.4072	2.780821	0.001252	12.521353	2.121175	-0.050010
1023	5.1100e-01	-0.4269	2.615464	0.000828	8.280250	1.402712	-0.033071
1024	5.1150e-01	-0.4472	2.369445	0.001232	12.319396	2.086962	-0.049204
1025	5.1200e-01	-0.4664	2.151658	0.001091	10.905695	1.847475	-0.043557
1026	5.1250e-01	-0.4867	1.978235	0.000868	8.684165	1.471137	-0.034685
1027	5.1300e-01	-0.5064	1.808845	0.000848	8.482207	1.436925	-0.033878
1028	5.1350e-01	-0.5265	1.562826	0.001232	12.319396	2.086962	-0.049204
1029	5.1400e-01	-0.5467	1.397469	0.000828	8.280250	1.402712	-0.033071
1030	5.1450e-01	-0.5697	1.179681	0.001091	10.905695	1.847475	-0.043557
1031	5.1500e-01	-0.5875	1.018357	0.000808	8.078293	1.368500	-0.032265
1032	5.1550e-01	-0.6065	0.808636	0.001050	10.501780	1.779050	-0.041944
1033	5.1600e-01	-0.6274	0.550518	0.001293	12.925268	2.189600	-0.051624
1034	5.1650e-01	-0.6461	0.381128	0.000848	8.482207	1.436925	-0.033878
1035	5.1700e-01	-0.6660	0.187539	0.000969	9.693951	1.642200	-0.038718
1036	5.1750e-01	-0.6870	-0.014116	0.001010	10.097866	1.710625	-0.040331
1037	5.1800e-01	-0.7072	-0.195605	0.000909	9.088079	1.539562	-0.036298
1038	5.1850e-01	-0.7266	-0.437591	0.001212	12.117439	2.052750	-0.048397
1039	5.1900e-01	-0.7474	-0.631180	0.000969	9.693951	1.642200	-0.038718
1040	5.1950e-01	-0.7667	-0.820736	0.000949	9.491994	1.607987	-0.037911
1041	5.2000e-01	-0.7865	-1.050622	0.001151	11.511567	1.950112	-0.045977
1042	5.2050e-01	-0.8076	-1.252277	0.001010	10.097866	1.710625	-0.040331
1043	5.2100e-01	-0.8277	-1.457965	0.001030	10.299823	1.744837	-0.041138
1044	5.2150e-01	-0.8480	-1.651554	0.000969	9.693951	1.642200	-0.038718
1045	5.2200e-01	-0.8672	-1.853209	0.001010	10.097866	1.710625	-0.040331
1046	5.2250e-01	-0.8867	-2.010500	0.000788	7.876335	1.334287	-0.031458
1047	5.2300e-01	-0.9070	-2.280717	0.001353	13.531140	2.292237	-0.054044
1048	5.2350e-01	-0.9269	-2.413810	0.000666	6.664591	1.129012	-0.026618
1049	5.2400e-01	-0.9468	-2.627564	0.001070	10.703738	1.813262	-0.042751
1050	5.2450e-01	-0.9669	-2.817119	0.000949	9.491994	1.607987	-0.037911
1051	5.2500e-01	-0.9865	-3.010708	0.000969	9.693951	1.642200	-0.038718
1052	5.2550e-01	-1.0070	-3.256727	0.001232	12.319396	2.086962	-0.049204
1053	5.2600e-01	-1.0273	-3.434183	0.000889	8.886122	1.505350	-0.035491
1054	5.2650e-01	-1.0466	-3.664070	0.001151	11.511567	1.950112	-0.045977
1055	5.2700e-01	-1.0673	-3.845560	0.000909	9.088079	1.539562	-0.036298
1056	5.2750e-01	-1.0871	-4.047214	0.001010	10.097866	1.710625	-0.040331
1057	5.2800e-01	-1.1074	-4.265002	0.001091	10.905695	1.847475	-0.043557
1058	5.2850e-01	-1.1267	-4.406160	0.000707	7.068506	1.197437	-0.028232
1059	5.2900e-01	-1.1475	-4.660245	0.001272	12.723311	2.155387	-0.050817
1060	5.2950e-01	-1.1680	-4.841735	0.000909	9.088079	1.539562	-0.036298
1061	5.3000e-01	-1.1874	-5.015158	0.000868	8.684165	1.471137	-0.034685
1062	5.3050e-01	-1.2081	-5.257144	0.001212	12.117439	2.052750	-0.048397
1063	5.3100e-01	-1.2282	-5.446700	0.000949	9.491994	1.607987	-0.037911
1064	5.3150e-01	-1.2470	-5.628189	0.000909	9.088079	1.539562	-0.036298
1065	5.3200e-01	-1.2678	-5.866142	0.001192	11.915482	2.018537	-0.047591
1066	5.3250e-01	-1.2871	-6.031499	0.000828	8.280250	1.402712	-0.033071
1067	5.3300e-01	-1.3068	-6.225088	0.000969	9.693951	1.642200	-0.038718
1068	5.3350e-01	-1.3270	-6.398511	0.000868	8.684165	1.471137	-0.034685
1069	5.3400e-01	-1.3465	-6.640497	0.001212	12.117439	2.052750	-0.048397
1070	5.3450e-01	-1.3673	-6.842152	0.001010	10.097866	1.710625	-0.040331
1071	5.3500e-01	-1.3876	-7.031707	0.000949	9.491994	1.607987	-0.037911
1072	5.3550e-01	-1.4069	-7.265627	0.001171	11.713524	1.984325	-0.046784
1073	5.3600e-01	-1.4271	-7.479381	0.001070	10.703738	1.813262	-0.042751
1074	5.3650e-01	-1.4475	-7.677003	0.000990	9.895908	1.676412	-0.039524
1075	5.3700e-01	-1.4674	-7.882691	0.001030	10.299823	1.744837	-0.041138
1076	5.3750e-01	-1.4877	-8.064181	0.000909	9.088079	1.539562	-0.036298
1077	5.3800e-01	-1.5072	-8.273902	0.001050	10.501780	1.779050	-0.041944
1078	5.3850e-01	-1.5275	-8.483623	0.001050	10.501780	1.779050	-0.041944
1079	5.3900e-01	-1.5470	-8.612682	0.000646	6.462634	1.094800	-0.025812
1080	5.3950e-01	-1.5678	-8.858701	0.001232	12.319396	2.086962	-0.049204
1081	5.4000e-01	-1.5876	-9.040191	0.000909	9.088079	1.539562	-0.036298
1082	5.4050e-01	-1.6080	-9.306375	0.001333	13.329183	2.258025	-0.053237
1083	5.4100e-01	-1.6273	-9.391070	0.000424	4.241104	0.718462	-0.016939
1084	5.4150e-01	-1.6476	-9.637089	0.001232	12.319396	2.086962	-0.049204
1085	5.4200e-01	-1.6674	-9.842777	0.001030	10.299823	1.744837	-0.041138
1086	5.4250e-01	-1.6877	-10.068631	0.001131	11.309610	1.915900	-0.045171
1087	5.4300e-01	-1.7075	-10.282385	0.001070	10.703738	1.813262	-0.042751
1088	5.4350e-01	-1.7274	-10.455808	0.000868	8.684165	1.471137	-0.034685
1089	5.4400e-01	-1.7469	-10.601000	0.000727	7.270463	1.231650	-0.029038
1090	5.4450e-01	-1.7673	-10.794588	0.000969	9.693951	1.642200	-0.038718
1091	5.4500e-01	-1.7875	-11.068839	0.001373	13.733097	2.326450	-0.054850
1092	5.4550e-01	-1.8076	-11.262428	0.000969	9.693951	1.642200	-0.038718
1093	5.4600e-01	-1.8270	-11.443917	0.000909	9.088079	1.539562	-0.036298
1094	5.4650e-01	-1.8488	-11.698002	0.001272	12.723311	2.155387	-0.050817
1095	5.4700e-01	-1.8663	-11.867393	0.000848	8.482207	1.436925	-0.033878
1096	5.4750e-01	-1.8885	-12.069048	0.001010	10.097866	1.710625	-0.040331
1097	5.4800e-01	-1.9074	-12.258603	0.000949	9.491994	1.607987	-0.037911
1098	5.4850e-01	-1.9270	-12.432026	0.000868	8.684165	1.471137	-0.034685
1099	5.4900e-01	-1.9480	-12.637714	0.001030	10.299823	1.744837	-0.041138
1100	5.4950e-01	-1.9672	-12.863568	0.001131	11.309610	1.915900	-0.045171
1101	5.5000e-01	-1.9876	-12.980528	0.000586	5.856762	0.992162	-0.023392
1102	5.5050e-01	-2.0081	-13.226547	0.001232	12.319396	2.086962	-0.049204
1103	5.5100e-01	-2.0272	-13.452400	0.001131	11.309610	1.915900	-0.045171
1104	5.5150e-01	-2.0483	-13.654055	0.001010	10.097866	1.710625	-0.040331
1105	5.5200e-01	-2.0673	-13.835545	0.000909	9.088079	1.539562	-0.036298
1106	5.5250e-01	-2.0879	-14.017034	0.000909	9.088079	1.539562	-0.036298
1107	5.5300e-01	-2.1074	-14.222722	0.001030	10.299823	1.744837	-0.041138
1108	5.5350e-01	-2.1272	-14.388079	0.000828	8.280250	1.402712	-0.033071
1109	5.5400e-01	-2.1481	-14.609900	0.001111	11.107652	1.881687	-0.044364
1110	5.5450e-01	-2.1662	-14.815588	0.001030	10.299823	1.744837	-0.041138
1111	5.5500e-01	-2.1882	-15.025309	0.001050	10.501780	1.779050	-0.041944
1112	5.5550e-01	-2.2083	-15.214864	0.000949	9.491994	1.607987	-0.037911
1113	5.5600e-01	-2.2279	-15.412486	0.000990	9.895908	1.676412	-0.039524
1114	5.5650e-01	-2.2475	-15.565744	0.000767	7.674378	1.300075	-0.030652
1115	5.5700e-01	-2.2675	-15.767399	0.001010	10.097866	1.710625	-0.040331
1116	5.5750e-01	-2.2874	-15.985186	0.001091	10.905695	1.847475	-0.043557
1117	5.5800e-01	-2.3074	-16.138444	0.000767	7.674378	1.300075	-0.030652
1118	5.5850e-01	-2.3268	-16.372364	0.001171	11.713524	1.984325	-0.046784
1119	5.5900e-01	-2.3476	-16.618383	0.001232	12.319396	2.086962	-0.049204
1120	5.5950e-01	-2.3685	-16.775674	0.000788	7.876335	1.334287	-0.031458
1121	5.6000e-01	-2.3876	-16.949097	0.000868	8.684165	1.471137	-0.034685
1122	5.6050e-01	-2.4070	-17.166884	0.001091	10.905695	1.847475	-0.043557
1123	5.6100e-01	-2.4274	-17.316109	0.000747	7.472421	1.265862	-0.029845
1124	5.6150e-01	-2.4479	-17.509698	0.000969	9.693951	1.642200	-0.038718
1125	5.6200e-01	-2.4683	-17.731518	0.001111	11.107652	1.881687	-0.044364
1126	5.6250e-01	-2.4876	-17.925107	0.000969	9.693951	1.642200	-0.038718
1127	5.6300e-01	-2.5068	-18.126762	0.001010	10.097866	1.710625	-0.040331
1128	5.6350e-01	-2.5282	-18.352615	0.001131	11.309610	1.915900	-0.045171
1129	5.6400e-01	-2.5472	-18.554270	0.001010	10.097866	1.710625	-0.040331
1130	5.6450e-01	-2.5669	-18.715594	0.000808	8.078293	1.368500	-0.032265
1131	5.6500e-01	-2.5867	-18.941448	0.001131	11.309610	1.915900	-0.045171
1132	5.6550e-01	-2.6075	-19.082606	0.000707	7.068506	1.197437	-0.028232
1133	5.6600e-01	-2.6270	-19.268129	0.000929	9.290036	1.573775	-0.037105
1134	5.6650e-01	-2.6473	-19.473817	0.001030	10.299823	1.744837	-0.041138
1135	5.6700e-01	-2.6670	-19.675472	0.001010	10.097866	1.710625	-0.040331
1136	5.6750e-01	-2.6875	-19.848895	0.000868	8.684165	1.471137	-0.034685
1137	5.6800e-01	-2.7061	-20.058616	0.001050	10.501780	1.779050	-0.041944
1138	5.6850e-01	-2.7279	-20.264304	0.001030	10.299823	1.744837	-0.041138
1139	5.6900e-01	-2.7470	-20.405462	0.000707	7.068506	1.197437	-0.028232
1140	5.6950e-01	-2.7670	-20.582919	0.000889	8.886122	1.505350	-0.035491
1141	5.7000e-01	-2.7868	-20.804739	0.001111	11.107652	1.881687	-0.044364
1142	5.7050e-01	-2.8065	-21.042692	0.001192	11.915482	2.018537	-0.047591
1143	5.7100e-01	-2.8278	-21.167718	0.000626	6.260677	1.060587	-0.025005
1144	5.7150e-01	-2.8469	-21.429869	0.001313	13.127225	2.223812	-0.052430
1145	5.7200e-01	-2.8669	-21.591193	0.000808	8.078293	1.368500	-0.032265
1146	5.7250e-01	-2.8869	-21.817047	0.001131	11.309610	1.915900	-0.045171
1147	5.7300e-01	-2.9072	-21.998536	0.000909	9.088079	1.539562	-0.036298
1148	5.7350e-01	-2.9270	-22.200191	0.001010	10.097866	1.710625	-0.040331
1149	5.7400e-01	-2.9472	-22.349416	0.000747	7.472421	1.265862	-0.029845
1150	5.7450e-01	-2.9682	-22.522839	0.000868	8.684165	1.471137	-0.034685
1151	5.7500e-01	-2.9877	-22.744660	0.001111	11.107652	1.881687	-0.044364
1152	5.7550e-01	-3.0061	-22.934215	0.000949	9.491994	1.607987	-0.037911
1153	5.7600e-01	-3.0277	-23.075374	0.000707	7.068506	1.197437	-0.028232
1154	5.7650e-01	-3.0473	-23.337525	0.001313	13.127225	2.223812	-0.052430
1155	5.7700e-01	-3.0683	-23.478684	0.000707	7.068506	1.197437	-0.028232
1156	5.7750e-01	-3.0872	-23.672272	0.000969	9.693951	1.642200	-0.038718
1157	5.7800e-01	-3.1080	-23.910225	0.001192	11.915482	2.018537	-0.047591
1158	5.7850e-01	-3.1276	-24.002986	0.000465	4.645018	0.786887	-0.018552
1159	5.7900e-01	-3.1477	-24.240939	0.001192	11.915482	2.018537	-0.047591
1160	5.7950e-01	-3.1673	-24.495024	0.001272	12.723311	2.155387	-0.050817
1161	5.8000e-01	-3.1867	-24.624084	0.000646	6.462634	1.094800	-0.025812
1162	5.8050e-01	-3.2069	-24.785407	0.000808	8.078293	1.368500	-0.032265
1163	5.8100e-01	-3.2270	-24.970930	0.000929	9.290036	1.573775	-0.037105
1164	5.8150e-01	-3.2475	-25.196784	0.001131	11.309610	1.915900	-0.045171
1165	5.8200e-01	-3.2664	-25.398438	0.001010	10.097866	1.710625	-0.040331
1166	5.8250e-01	-3.2871	-25.575895	0.000889	8.886122	1.505350	-0.035491
1167	5.8300e-01	-3.3076	-25.737219	0.000808	8.078293	1.368500	-0.032265
1168	5.8350e-01	-3.3277	-25.886443	0.000747	7.472421	1.265862	-0.029845
1169	5.8400e-01	-3.3469	-26.156661	0.001353	13.531140	2.292237	-0.054044
1170	5.8450e-01	-3.3668	-26.305886	0.000747	7.472421	1.265862	-0.029845
1171	5.8500e-01	-3.3869	-26.422845	0.000586	5.856762	0.992162	-0.023392
1172	5.8550e-01	-3.4078	-26.680964	0.001293	12.925268	2.189600	-0.051624
1173	5.8600e-01	-3.4278	-26.810023	0.000646	6.462634	1.094800	-0.025812
1174	5.8650e-01	-3.4480	-27.007645	0.000990	9.895908	1.676412	-0.039524
1175	5.8700e-01	-3.4681	-27.221399	0.001070	10.703738	1.813262	-0.042751
1176	5.8750e-01	-3.4876	-27.386756	0.000828	8.280250	1.402712	-0.033071
1177	5.8800e-01	-3.5059	-27.544047	0.000788	7.876335	1.334287	-0.031458
1178	5.8850e-01	-3.5275	-27.757801	0.001070	10.703738	1.813262	-0.042751
1179	5.8900e-01	-3.5478	-27.943324	0.000929	9.290036	1.573775	-0.037105
1180	5.8950e-01	-3.5683	-28.124813	0.000909	9.088079	1.539562	-0.036298
1181	5.9000e-01	-3.5871	-28.326468	0.001010	10.097866	1.710625	-0.040331
1182	5.9050e-01	-3.6073	-28.503924	0.000889	8.886122	1.505350	-0.035491
1183	5.9100e-01	-3.6274	-28.693480	0.000949	9.491994	1.607987	-0.037911
1184	5.9150e-01	-3.6469	-28.899168	0.001030	10.299823	1.744837	-0.041138
1185	5.9200e-01	-3.6672	-29.048393	0.000747	7.472421	1.265862	-0.029845
1186	5.9250e-01	-3.6878	-29.241981	0.000969	9.693951	1.642200	-0.038718
1187	5.9300e-01	-3.7080	-29.463802	0.001111	11.107652	1.881687	-0.044364
1188	5.9350e-01	-3.7281	-29.576729	0.000565	5.654805	0.957950	-0.022585
1189	5.9400e-01	-3.7476	-29.758218	0.000909	9.088079	1.539562	-0.036298
1190	5.9450e-01	-3.7678	-29.980038	0.001111	11.107652	1.881687	-0.044364
1191	5.9500e-01	-3.7882	-30.201859	0.001111	11.107652	1.881687	-0.044364
1192	5.9550e-01	-3.8074	-30.338984	0.000687	6.866549	1.163225	-0.027425
1193	5.9600e-01	-3.8270	-30.468043	0.000646	6.462634	1.094800	-0.025812
1194	5.9650e-01	-3.8465	-30.673731	0.001030	10.299823	1.744837	-0.041138
1195	5.9700e-01	-3.8670	-30.839088	0.000828	8.280250	1.402712	-0.033071
1196	5.9750e-01	-3.8883	-31.044776	0.001030	10.299823	1.744837	-0.041138
1197	5.9800e-01	-3.9082	-31.222233	0.000889	8.886122	1.505350	-0.035491
1198	5.9850e-01	-3.9278	-31.391623	0.000848	8.482207	1.436925	-0.033878
1199	5.9900e-01	-3.9472	-31.585212	0.000969	9.693951	1.642200	-0.038718
1200	5.9950e-01	-3.9668	-31.758635	0.000868	8.684165	1.471137	-0.034685
1201	6.0000e-01	-3.9866	-31.863496	0.000525	5.250890	0.889525	-0.020972
1202	6.0050e-01	-4.0079	-32.105481	0.001212	12.117439	2.052750	-0.048397
1203	6.0100e-01	-4.0272	-32.254706	0.000747	7.472421	1.265862	-0.029845
1204	6.0150e-01	-4.0473	-32.504758	0.001252	12.521353	2.121175	-0.050010
1205	6.0200e-01	-4.0675	-32.637850	0.000666	6.664591	1.129012	-0.026618
1206	6.0250e-01	-4.0876	-32.823373	0.000929	9.290036	1.573775	-0.037105
1207	6.0300e-01	-4.1074	-33.029061	0.001030	10.299823	1.744837	-0.041138
1208	6.0350e-01	-4.1276	-33.198451	0.000848	8.482207	1.436925	-0.033878
1209	6.0400e-01	-4.1474	-33.416238	0.001091	10.905695	1.847475	-0.043557
1210	6.0450e-01	-4.1679	-33.565463	0.000747	7.472421	1.265862	-0.029845
1211	6.0500e-01	-4.1871	-33.714688	0.000747	7.472421	1.265862	-0.029845
1212	6.0550e-01	-4.2069	-33.916343	0.001010	10.097866	1.710625	-0.040331
1213	6.0600e-01	-4.2271	-34.061534	0.000727	7.270463	1.231650	-0.029038
1214	6.0650e-01	-4.2478	-34.255123	0.000969	9.693951	1.642200	-0.038718
1215	6.0700e-01	-4.2677	-34.412414	0.000788	7.876335	1.334287	-0.031458
1216	6.0750e-01	-4.2872	-34.601969	0.000949	9.491994	1.607987	-0.037911
1217	6.0800e-01	-4.3073	-34.755227	0.000767	7.674378	1.300075	-0.030652
1218	6.0850e-01	-4.3284	-34.960915	0.001030	10.299823	1.744837	-0.041138
1219	6.0900e-01	-4.3470	-35.134338	0.000868	8.684165	1.471137	-0.034685
1220	6.0950e-01	-4.3674	-35.340027	0.001030	10.299823	1.744837	-0.041138
1221	6.1000e-01	-4.3879	-35.481185	0.000707	7.068506	1.197437	-0.028232
1222	6.1050e-01	-4.4080	-35.646542	0.000828	8.280250	1.402712	-0.033071
1223	6.1100e-01	-4.4279	-35.828031	0.000909	9.088079	1.539562	-0.036298
1224	6.1150e-01	-4.4477	-35.997422	0.000848	8.482207	1.436925	-0.033878
1225	6.1200e-01	-4.4672	-36.150679	0.000767	7.674378	1.300075	-0.030652
1226	6.1250e-01	-4.4868	-36.340235	0.000949	9.491994	1.607987	-0.037911
1227	6.1300e-01	-4.5075	-36.586254	0.001232	12.319396	2.086962	-0.049204
1228	6.1350e-01	-4.5283	-36.699181	0.000565	5.654805	0.957950	-0.022585
1229	6.1400e-01	-4.5466	-36.836306	0.000687	6.866549	1.163225	-0.027425
1230	6.1450e-01	-4.5679	-37.017796	0.000909	9.088079	1.539562	-0.036298
1231	6.1500e-01	-4.5878	-37.199285	0.000909	9.088079	1.539562	-0.036298
1232	6.1550e-01	-4.6088	-37.425138	0.001131	11.309610	1.915900	-0.045171
1233	6.1600e-01	-4.6275	-37.566297	0.000707	7.068506	1.197437	-0.028232
1234	6.1650e-01	-4.6479	-37.759886	0.000969	9.693951	1.642200	-0.038718
1235	6.1700e-01	-4.6680	-37.945408	0.000929	9.290036	1.573775	-0.037105
1236	6.1750e-01	-4.6876	-38.090600	0.000727	7.270463	1.231650	-0.029038
1237	6.1800e-01	-4.7083	-38.276122	0.000929	9.290036	1.573775	-0.037105
1238	6.1850e-01	-4.7279	-38.485843	0.001050	10.501780	1.779050	-0.041944
1239	6.1900e-01	-4.7474	-38.643134	0.000788	7.876335	1.334287	-0.031458
1240	6.1950e-01	-4.7681	-38.792359	0.000747	7.472421	1.265862	-0.029845
1241	6.2000e-01	-4.7883	-38.945617	0.000767	7.674378	1.300075	-0.030652
1242	6.2050e-01	-4.8078	-39.159371	0.001070	10.703738	1.813262	-0.042751
1243	6.2100e-01	-4.8280	-39.356993	0.000990	9.895908	1.676412	-0.039524
1244	6.2150e-01	-4.8481	-39.498151	0.000707	7.068506	1.197437	-0.028232
1245	6.2200e-01	-4.8682	-39.691740	0.000969	9.693951	1.642200	-0.038718
1246	6.2250e-01	-4.8884	-39.844998	0.000767	7.674378	1.300075	-0.030652
1247	6.2300e-01	-4.9085	-40.038586	0.000969	9.693951	1.642200	-0.038718
1248	6.2350e-01	-4.9282	-40.167646	0.000646	6.462634	1.094800	-0.025812
1249	6.2400e-01	-4.9482	-40.349135	0.000909	9.088079	1.539562	-0.036298
1250	6.2450e-01	-4.9680	-40.591121	0.001212	12.117439	2.052750	-0.048397
1251	6.2500e-01	-4.9885	-40.712114	0.000606	6.058719	1.026375	-0.024199
1252	6.2550e-01	-5.0080	-40.893603	0.000909	9.088079	1.539562	-0.036298
1253	6.2600e-01	-5.0282	-40.970232	0.000384	3.837189	0.650037	-0.015326
1254	6.2650e-01	-5.0492	-41.252549	0.001414	14.137012	2.394875	-0.056463
1255	6.2700e-01	-5.0678	-41.434038	0.000909	9.088079	1.539562	-0.036298
1256	6.2750e-01	-5.0886	-41.555031	0.000606	6.058719	1.026375	-0.024199
1257	6.2800e-01	-5.1075	-41.748620	0.000969	9.693951	1.642200	-0.038718
1258	6.2850e-01	-5.1276	-41.893812	0.000727	7.270463	1.231650	-0.029038
1259	6.2900e-01	-5.1472	-42.095467	0.001010	10.097866	1.710625	-0.040331
1260	6.2950e-01	-5.1679	-42.260824	0.000828	8.280250	1.402712	-0.033071
1261	6.3000e-01	-5.1876	-42.430214	0.000848	8.482207	1.436925	-0.033878
1262	6.3050e-01	-5.2082	-42.648001	0.001091	10.905695	1.847475	-0.043557
1263	6.3100e-01	-5.2283	-42.789160	0.000707	7.068506	1.197437	-0.028232
1264	6.3150e-01	-5.2473	-42.954517	0.000828	8.280250	1.402712	-0.033071
1265	6.3200e-01	-5.2674	-43.144072	0.000949	9.491994	1.607987	-0.037911
1266	6.3250e-01	-5.2879	-43.313462	0.000848	8.482207	1.436925	-0.033878
1267	6.3300e-01	-5.3083	-43.494952	0.000909	9.088079	1.539562	-0.036298
1268	6.3350e-01	-5.3272	-43.611912	0.000586	5.856762	0.992162	-0.023392
1269	6.3400e-01	-5.3474	-43.857931	0.001232	12.319396	2.086962	-0.049204
1270	6.3450e-01	-5.3683	-44.019255	0.000808	8.078293	1.368500	-0.032265
1271	6.3500e-01	-5.3876	-44.180579	0.000808	8.078293	1.368500	-0.032265
1272	6.3550e-01	-5.4078	-44.349969	0.000848	8.482207	1.436925	-0.033878
1273	6.3600e-01	-5.4273	-44.539524	0.000949	9.491994	1.607987	-0.037911
1274	6.3650e-01	-5.4487	-44.704881	0.000828	8.280250	1.402712	-0.033071
1275	6.3700e-01	-5.4676	-44.854106	0.000747	7.472421	1.265862	-0.029845
1276	6.3750e-01	-5.4884	-44.979132	0.000626	6.260677	1.060587	-0.025005
1277	6.3800e-01	-5.5085	-45.168688	0.000949	9.491994	1.607987	-0.037911
1278	6.3850e-01	-5.5286	-45.342111	0.000868	8.684165	1.471137	-0.034685
1279	6.3900e-01	-5.5482	-45.523600	0.000909	9.088079	1.539562	-0.036298
1280	6.3950e-01	-5.5680	-45.680891	0.000788	7.876335	1.334287	-0.031458
1281	6.4000e-01	-5.5885	-45.858348	0.000889	8.886122	1.505350	-0.035491
1282	6.4050e-01	-5.6075	-46.023705	0.000828	8.280250	1.402712	-0.033071
1283	6.4100e-01	-5.6281	-46.213260	0.000949	9.491994	1.607987	-0.037911
1284	6.4150e-01	-5.6483	-46.398783	0.000929	9.290036	1.573775	-0.037105
1285	6.4200e-01	-5.6696	-46.552041	0.000767	7.674378	1.300075	-0.030652
1286	6.4250e-01	-5.6879	-46.729497	0.000889	8.886122	1.505350	-0.035491
1287	6.4300e-01	-5.7078	-46.882755	0.000767	7.674378	1.300075	-0.030652
1288	6.4350e-01	-5.7276	-47.060211	0.000889	8.886122	1.505350	-0.035491
1289	6.4400e-01	-5.7478	-47.213469	0.000767	7.674378	1.300075	-0.030652
1290	6.4450e-01	-5.7685	-47.403024	0.000949	9.491994	1.607987	-0.037911
1291	6.4500e-01	-5.7887	-47.580481	0.000889	8.886122	1.505350	-0.035491
1292	6.4550e-01	-5.8082	-47.729705	0.000747	7.472421	1.265862	-0.029845
1293	6.4600e-01	-5.8277	-47.907162	0.000889	8.886122	1.505350	-0.035491
1294	6.4650e-01	-5.8485	-48.104784	0.000990	9.895908	1.676412	-0.039524
1295	6.4700e-01	-5.8686	-48.262074	0.000788	7.876335	1.334287	-0.031458
1296	6.4750e-01	-5.8887	-48.387100	0.000626	6.260677	1.060587	-0.025005
1297	6.4800e-01	-5.9086	-48.592789	0.001030	10.299823	1.744837	-0.041138
1298	6.4850e-01	-5.9290	-48.770245	0.000889	8.886122	1.505350	-0.035491
1299	6.4900e-01	-5.9480	-48.899304	0.000646	6.462634	1.094800	-0.025812
1300	6.4950e-01	-5.9678	-49.092893	0.000969	9.693951	1.642200	-0.038718
1301	6.5000e-01	-5.9876	-49.254217	0.000808	8.078293	1.368500	-0.032265
1302	6.5050e-01	-6.0090	-49.419574	0.000828	8.280250	1.402712	-0.033071
1303	6.5100e-01	-6.0285	-49.605096	0.000929	9.290036	1.573775	-0.037105
1304	6.5150e-01	-6.0484	-49.754321	0.000747	7.472421	1.265862	-0.029845
1305	6.5200e-01	-6.0679	-49.935810	0.000909	9.088079	1.539562	-0.036298
1306	6.5250e-01	-6.0880	-50.072936	0.000687	6.866549	1.163225	-0.027425
1307	6.5300e-01	-6.1086	-50.270558	0.000990	9.895908	1.676412	-0.039524
1308	6.5350e-01	-6.1286	-50.427848	0.000788	7.876335	1.334287	-0.031458
1309	6.5400e-01	-6.1481	-50.617404	0.000949	9.491994	1.607987	-0.037911
1310	6.5450e-01	-6.1671	-50.782761	0.000828	8.280250	1.402712	-0.033071
1311	6.5500e-01	-6.1887	-51.016681	0.001171	11.713524	1.984325	-0.046784
1312	6.5550e-01	-6.2089	-51.085243	0.000343	3.433274	0.581612	-0.013713
1313	6.5600e-01	-6.2284	-51.262700	0.000889	8.886122	1.505350	-0.035491
1314	6.5650e-01	-6.2482	-51.456289	0.000969	9.693951	1.642200	-0.038718
1315	6.5700e-01	-6.2681	-51.637778	0.000909	9.088079	1.539562	-0.036298
1316	6.5750e-01	-6.2888	-51.758771	0.000606	6.058719	1.026375	-0.024199
1317	6.5800e-01	-6.3096	-51.968492	0.001050	10.501780	1.779050	-0.041944
1318	6.5850e-01	-6.3285	-52.109650	0.000707	7.068506	1.197437	-0.028232
1319	6.5900e-01	-6.3483	-52.262908	0.000767	7.674378	1.300075	-0.030652
1320	6.5950e-01	-6.3685	-52.476662	0.001070	10.703738	1.813262	-0.042751
1321	6.6000e-01	-6.3886	-52.601689	0.000626	6.260677	1.060587	-0.025005
1322	6.6050e-01	-6.4082	-52.779145	0.000889	8.886122	1.505350	-0.035491
1323	6.6100e-01	-6.4295	-52.940469	0.000808	8.078293	1.368500	-0.032265
1324	6.6150e-01	-6.4491	-53.089693	0.000747	7.472421	1.265862	-0.029845
1325	6.6200e-01	-6.4692	-53.279249	0.000949	9.491994	1.607987	-0.037911
1326	6.6250e-01	-6.4886	-53.424441	0.000727	7.270463	1.231650	-0.029038
1327	6.6300e-01	-6.5076	-53.605930	0.000909	9.088079	1.539562	-0.036298
1328	6.6350e-01	-6.5290	-53.783386	0.000889	8.886122	1.505350	-0.035491
1329	6.6400e-01	-6.5495	-53.940677	0.000788	7.876335	1.334287	-0.031458
1330	6.6450e-01	-6.5687	-54.122167	0.000909	9.088079	1.539562	-0.036298
1331	6.6500e-01	-6.5885	-54.267358	0.000727	7.270463	1.231650	-0.029038
1332	6.6550e-01	-6.6084	-54.452881	0.000929	9.290036	1.573775	-0.037105
1333	6.6600e-01	-6.6285	-54.561774	0.000545	5.452847	0.923737	-0.021779
1334	6.6650e-01	-6.6480	-54.759396	0.000990	9.895908	1.676412	-0.039524
1335	6.6700e-01	-6.6682	-54.924753	0.000828	8.280250	1.402712	-0.033071
1336	6.6750e-01	-6.6889	-55.073978	0.000747	7.472421	1.265862	-0.029845
1337	6.6800e-01	-6.7085	-55.251434	0.000889	8.886122	1.505350	-0.035491
1338	6.6850e-01	-6.7286	-55.420824	0.000848	8.482207	1.436925	-0.033878
1339	6.6900e-01	-6.7481	-55.570049	0.000747	7.472421	1.265862	-0.029845
1340	6.6950e-01	-6.7683	-55.779770	0.001050	10.501780	1.779050	-0.041944
1341	6.7000e-01	-6.7890	-55.937061	0.000788	7.876335	1.334287	-0.031458
1342	6.7050e-01	-6.8085	-56.074186	0.000687	6.866549	1.163225	-0.027425
1343	6.7100e-01	-6.8281	-56.239543	0.000828	8.280250	1.402712	-0.033071
1344	6.7150e-01	-6.8488	-56.449265	0.001050	10.501780	1.779050	-0.041944
1345	6.7200e-01	-6.8684	-56.622688	0.000868	8.684165	1.471137	-0.034685
1346	6.7250e-01	-6.8885	-56.739648	0.000586	5.856762	0.992162	-0.023392
1347	6.7300e-01	-6.9086	-56.905005	0.000828	8.280250	1.402712	-0.033071
1348	6.7350e-01	-6.9294	-57.130858	0.001131	11.309610	1.915900	-0.045171
1349	6.7400e-01	-6.9489	-57.231686	0.000505	5.048933	0.855312	-0.020165
1350	6.7450e-01	-6.9685	-57.425274	0.000969	9.693951	1.642200	-0.038718
1351	6.7500e-01	-6.9886	-57.558367	0.000666	6.664591	1.129012	-0.026618
1352	6.7550e-01	-7.0087	-57.772121	0.001070	10.703738	1.813262	-0.042751
1353	6.7600e-01	-7.0283	-57.917312	0.000727	7.270463	1.231650	-0.029038
1354	6.7650e-01	-7.0484	-58.054438	0.000687	6.866549	1.163225	-0.027425
1355	6.7700e-01	-7.0692	-58.211729	0.000788	7.876335	1.334287	-0.031458
1356	6.7750e-01	-7.0881	-58.328689	0.000586	5.856762	0.992162	-0.023392
1357	6.7800e-01	-7.1085	-58.542443	0.001070	10.703738	1.813262	-0.042751
1358	6.7850e-01	-7.1284	-58.671502	0.000646	6.462634	1.094800	-0.025812
1359	6.7900e-01	-7.1485	-58.937686	0.001333	13.329183	2.258025	-0.053237
1360	6.7950e-01	-7.1687	-58.998183	0.000303	3.029360	0.513187	-0.012099
1361	6.8000e-01	-7.1882	-59.179672	0.000909	9.088079	1.539562	-0.036298
1362	6.8050e-01	-7.2083	-59.389393	0.001050	10.501780	1.779050	-0.041944
1363	6.8100e-01	-7.2285	-59.554751	0.000828	8.280250	1.402712	-0.033071
1364	6.8150e-01	-7.2486	-59.663644	0.000545	5.452847	0.923737	-0.021779
1365	6.8200e-01	-7.2681	-59.845134	0.000909	9.088079	1.539562	-0.036298
1366	6.8250e-01	-7.2886	-59.998391	0.000767	7.674378	1.300075	-0.030652
1367	6.8300e-01	-7.3084	-60.200046	0.001010	10.097866	1.710625	-0.040331
1368	6.8350e-01	-7.3286	-60.312973	0.000565	5.654805	0.957950	-0.022585
1369	6.8400e-01	-7.3493	-60.486396	0.000868	8.684165	1.471137	-0.034685
1370	6.8450e-01	-7.3689	-60.627555	0.000707	7.068506	1.197437	-0.028232
1371	6.8500e-01	-7.3884	-60.825177	0.000990	9.895908	1.676412	-0.039524
1372	6.8550e-01	-7.4091	-60.990534	0.000828	8.280250	1.402712	-0.033071
1373	6.8600e-01	-7.4287	-61.155891	0.000828	8.280250	1.402712	-0.033071
1374	6.8650e-01	-7.4485	-61.317215	0.000808	8.078293	1.368500	-0.032265
1375	6.8700e-01	-7.4683	-61.478539	0.000808	8.078293	1.368500	-0.032265
1376	6.8750e-01	-7.4888	-61.660028	0.000909	9.088079	1.539562	-0.036298
1377	6.8800e-01	-7.5105	-61.833451	0.000868	8.684165	1.471137	-0.034685
1378	6.8850e-01	-7.5294	-61.978643	0.000727	7.270463	1.231650	-0.029038
1379	6.8900e-01	-7.5483	-62.148033	0.000848	8.482207	1.436925	-0.033878
1380	6.8950e-01	-7.5690	-62.305324	0.000788	7.876335	1.334287	-0.031458
1381	6.9000e-01	-7.5877	-62.422284	0.000586	5.856762	0.992162	-0.023392
1382	6.9050e-01	-7.6078	-62.607806	0.000929	9.290036	1.573775	-0.037105
1383	6.9100e-01	-7.6270	-62.801395	0.000969	9.693951	1.642200	-0.038718
1384	6.9150e-01	-7.6484	-62.994984	0.000969	9.693951	1.642200	-0.038718
1385	6.9200e-01	-7.6673	-63.099844	0.000525	5.250890	0.889525	-0.020972
1386	6.9250e-01	-7.6882	-63.253102	0.000767	7.674378	1.300075	-0.030652
1387	6.9300e-01	-7.7076	-63.402327	0.000747	7.472421	1.265862	-0.029845
1388	6.9350e-01	-7.7283	-63.563651	0.000808	8.078293	1.368500	-0.032265
1389	6.9400e-01	-7.7479	-63.729008	0.000828	8.280250	1.402712	-0.033071
1390	6.9450e-01	-7.7677	-63.894365	0.000828	8.280250	1.402712	-0.033071
1391	6.9500e-01	-7.7876	-64.096020	0.001010	10.097866	1.710625	-0.040331
1392	6.9550e-01	-7.8083	-64.265410	0.000848	8.482207	1.436925	-0.033878
1393	6.9600e-01	-7.8284	-64.406568	0.000707	7.068506	1.197437	-0.028232
1394	6.9650e-01	-7.8486	-64.551760	0.000727	7.270463	1.231650	-0.029038
1395	6.9700e-01	-7.8675	-64.709051	0.000788	7.876335	1.334287	-0.031458
1396	6.9750e-01	-7.8880	-64.894573	0.000929	9.290036	1.573775	-0.037105
1397	6.9800e-01	-7.9086	-65.051864	0.000788	7.876335	1.334287	-0.031458
1398	6.9850e-01	-7.9285	-65.213188	0.000808	8.078293	1.368500	-0.032265
1399	6.9900e-01	-7.9481	-65.326115	0.000565	5.654805	0.957950	-0.022585
1400	6.9950e-01	-7.9679	-65.511637	0.000929	9.290036	1.573775	-0.037105
1401	7.0000e-01	-7.9884	-65.701193	0.000949	9.491994	1.607987	-0.037911
1402	7.0050e-01	-8.0076	-65.882682	0.000909	9.088079	1.539562	-0.036298
1403	7.0100e-01	-8.0274	-66.056105	0.000868	8.684165	1.471137	-0.034685
1404	7.0150e-01	-8.0476	-66.136767	0.000404	4.039146	0.684250	-0.016132
1405	7.0200e-01	-8.0671	-66.362621	0.001131	11.309610	1.915900	-0.045171
1406	7.0250e-01	-8.0882	-66.548143	0.000929	9.290036	1.573775	-0.037105
1407	7.0300e-01	-8.1080	-66.693335	0.000727	7.270463	1.231650	-0.029038
1408	7.0350e-01	-8.1275	-66.838527	0.000727	7.270463	1.231650	-0.029038
1409	7.0400e-01	-8.1477	-66.987751	0.000747	7.472421	1.265862	-0.029845
1410	7.0450e-01	-8.1678	-67.132943	0.000727	7.270463	1.231650	-0.029038
1411	7.0500e-01	-8.1879	-67.322498	0.000949	9.491994	1.607987	-0.037911
1412	7.0550e-01	-8.2081	-67.467690	0.000727	7.270463	1.231650	-0.029038
1413	7.0600e-01	-8.2276	-67.661279	0.000969	9.693951	1.642200	-0.038718
1414	7.0650e-01	-8.2478	-67.834702	0.000868	8.684165	1.471137	-0.034685
1415	7.0700e-01	-8.2679	-67.947629	0.000565	5.654805	0.957950	-0.022585
1416	7.0750e-01	-8.2877	-68.137184	0.000949	9.491994	1.607987	-0.037911
1417	7.0800e-01	-8.3079	-68.346905	0.001050	10.501780	1.779050	-0.041944
1418	7.0850e-01	-8.3277	-68.459832	0.000565	5.654805	0.957950	-0.022585
1419	7.0900e-01	-8.3491	-68.596958	0.000687	6.866549	1.163225	-0.027425
1420	7.0950e-01	-8.3680	-68.786513	0.000949	9.491994	1.607987	-0.037911
1421	7.1000e-01	-8.3884	-68.976069	0.000949	9.491994	1.607987	-0.037911
1422	7.1050e-01	-8.4077	-69.125293	0.000747	7.472421	1.265862	-0.029845
1423	7.1100e-01	-8.4284	-69.290651	0.000828	8.280250	1.402712	-0.033071
1424	7.1150e-01	-8.4486	-69.451974	0.000808	8.078293	1.368500	-0.032265
1425	7.1200e-01	-8.4682	-69.593133	0.000707	7.068506	1.197437	-0.028232
1426	7.1250e-01	-8.4882	-69.782689	0.000949	9.491994	1.607987	-0.037911
1427	7.1300e-01	-8.5078	-69.923847	0.000707	7.068506	1.197437	-0.028232
1428	7.1350e-01	-8.5279	-70.113403	0.000949	9.491994	1.607987	-0.037911
1429	7.1400e-01	-8.5480	-70.230363	0.000586	5.856762	0.992162	-0.023392
1430	7.1450e-01	-8.5688	-70.371521	0.000707	7.068506	1.197437	-0.028232
1431	7.1500e-01	-8.5883	-70.520746	0.000747	7.472421	1.265862	-0.029845
1432	7.1550e-01	-8.6085	-70.649805	0.000646	6.462634	1.094800	-0.025812
1433	7.1600e-01	-8.6268	-70.915989	0.001333	13.329183	2.258025	-0.053237
1434	7.1650e-01	-8.6475	-71.032949	0.000586	5.856762	0.992162	-0.023392
1435	7.1700e-01	-8.6628	-71.178141	0.000727	7.270463	1.231650	-0.029038
1436	7.1750e-01	-8.6872	-71.351564	0.000868	8.684165	1.471137	-0.034685
1437	7.1800e-01	-8.7086	-71.581451	0.001151	11.511567	1.950112	-0.045977
1438	7.1850e-01	-8.7278	-71.718576	0.000687	6.866549	1.163225	-0.027425
1439	7.1900e-01	-8.7476	-71.896032	0.000889	8.886122	1.505350	-0.035491
1440	7.1950e-01	-8.7675	-72.012992	0.000586	5.856762	0.992162	-0.023392
1441	7.2000e-01	-8.7882	-72.162217	0.000747	7.472421	1.265862	-0.029845
1442	7.2050e-01	-8.8093	-72.339673	0.000889	8.886122	1.505350	-0.035491
1443	7.2100e-01	-8.8294	-72.541328	0.001010	10.097866	1.710625	-0.040331
1444	7.2150e-01	-8.8480	-72.674420	0.000666	6.664591	1.129012	-0.026618
1445	7.2200e-01	-8.8685	-72.863976	0.000949	9.491994	1.607987	-0.037911
1446	7.2250e-01	-8.8877	-73.033366	0.000848	8.482207	1.436925	-0.033878
1447	7.2300e-01	-8.9082	-73.206789	0.000868	8.684165	1.471137	-0.034685
1448	7.2350e-01	-8.9277	-73.376179	0.000848	8.482207	1.436925	-0.033878
1449	7.2400e-01	-8.9478	-73.497172	0.000606	6.058719	1.026375	-0.024199
1450	7.2450e-01	-8.9680	-73.694794	0.000990	9.895908	1.676412	-0.039524
1451	7.2500e-01	-8.9878	-73.848052	0.000767	7.674378	1.300075	-0.030652
1452	7.2550e-01	-9.0083	-74.033574	0.000929	9.290036	1.573775	-0.037105
1453	7.2600e-01	-9.0284	-74.202965	0.000848	8.482207	1.436925	-0.033878
1454	7.2650e-01	-9.0479	-74.332024	0.000646	6.462634	1.094800	-0.025812
1455	7.2700e-01	-9.0681	-74.545778	0.001070	10.703738	1.813262	-0.042751
1456	7.2750e-01	-9.0871	-74.634506	0.000444	4.443061	0.752675	-0.017746
1457	7.2800e-01	-9.1090	-74.844227	0.001050	10.501780	1.779050	-0.041944
1458	7.2850e-01	-9.1282	-74.989419	0.000727	7.270463	1.231650	-0.029038
1459	7.2900e-01	-9.1486	-75.138644	0.000747	7.472421	1.265862	-0.029845
1460	7.2950e-01	-9.1676	-75.287868	0.000747	7.472421	1.265862	-0.029845
1461	7.3000e-01	-9.1871	-75.420960	0.000666	6.664591	1.129012	-0.026618
1462	7.3050e-01	-9.2069	-75.654880	0.001171	11.713524	1.984325	-0.046784
1463	7.3100e-01	-9.2289	-75.828303	0.000868	8.684165	1.471137	-0.034685
1464	7.3150e-01	-9.2487	-75.981561	0.000767	7.674378	1.300075	-0.030652
1465	7.3200e-01	-9.2677	-76.134819	0.000767	7.674378	1.300075	-0.030652
1466	7.3250e-01	-9.2878	-76.328408	0.000969	9.693951	1.642200	-0.038718
1467	7.3300e-01	-9.3079	-76.489732	0.000808	8.078293	1.368500	-0.032265
1468	7.3350e-01	-9.3275	-76.622824	0.000666	6.664591	1.129012	-0.026618
1469	7.3400e-01	-9.3482	-76.808346	0.000929	9.290036	1.573775	-0.037105
1470	7.3450e-01	-9.3696	-76.945472	0.000687	6.866549	1.163225	-0.027425
1471	7.3500e-01	-9.3885	-77.139060	0.000969	9.693951	1.642200	-0.038718
1472	7.3550e-01	-9.4086	-77.276186	0.000687	6.866549	1.163225	-0.027425
1473	7.3600e-01	-9.4276	-77.441543	0.000828	8.280250	1.402712	-0.033071
1474	7.3650e-01	-9.4477	-77.659330	0.001091	10.905695	1.847475	-0.043557
1475	7.3700e-01	-9.4685	-77.804522	0.000727	7.270463	1.231650	-0.029038
1476	7.3750e-01	-9.4880	-77.965846	0.000808	8.078293	1.368500	-0.032265
1477	7.3800e-01	-9.5087	-78.147335	0.000909	9.088079	1.539562	-0.036298
1478	7.3850e-01	-9.5289	-78.316725	0.000848	8.482207	1.436925	-0.033878
1479	7.3900e-01	-9.5481	-78.437718	0.000606	6.058719	1.026375	-0.024199
1480	7.3950e-01	-9.5683	-78.607108	0.000848	8.482207	1.436925	-0.033878
1481	7.4000e-01	-9.5881	-78.796664	0.000949	9.491994	1.607987	-0.037911
1482	7.4050e-01	-9.6082	-78.974120	0.000889	8.886122	1.505350	-0.035491
1483	7.4100e-01	-9.6290	-79.139477	0.000828	8.280250	1.402712	-0.033071
1484	7.4150e-01	-9.6479	-79.300801	0.000808	8.078293	1.368500	-0.032265
1485	7.4200e-01	-9.6680	-79.486324	0.000929	9.290036	1.573775	-0.037105
1486	7.4250e-01	-9.6882	-79.587151	0.000505	5.048933	0.855312	-0.020165
1487	7.4300e-01	-9.7083	-79.853336	0.001333	13.329183	2.258025	-0.053237
1488	7.4350e-01	-9.7279	-80.002560	0.000747	7.472421	1.265862	-0.029845
1489	7.4400e-01	-9.7492	-80.119520	0.000586	5.856762	0.992162	-0.023392
1490	7.4450e-01	-9.7681	-80.321175	0.001010	10.097866	1.710625	-0.040331
1491	7.4500e-01	-9.7883	-80.450234	0.000646	6.462634	1.094800	-0.025812
1492	7.4550e-01	-9.8075	-80.676088	0.001131	11.309610	1.915900	-0.045171
1493	7.4600e-01	-9.8267	-80.748684	0.000364	3.635232	0.615825	-0.014519
1494	7.4650e-01	-9.8487	-81.006802	0.001293	12.925268	2.189600	-0.051624
1495	7.4700e-01	-9.8670	-81.115696	0.000545	5.452847	0.923737	-0.021779
1496	7.4750e-01	-9.8878	-81.325417	0.001050	10.501780	1.779050	-0.041944
1497	7.4800e-01	-9.9085	-81.482708	0.000788	7.876335	1.334287	-0.031458
1498	7.4850e-01	-9.9281	-81.680329	0.000990	9.895908	1.676412	-0.039524
1499	7.4900e-01	-9.9482	-81.817455	0.000687	6.866549	1.163225	-0.027425
1500	7.4950e-01	-9.9659	-82.007010	0.000949	9.491994	1.607987	-0.037911
1501	7.5000e-01	-9.9873	-82.103805	0.000485	4.846976	0.821100	-0.019359
1502	7.5050e-01	-9.9860	-82.119937	-0.000081	-0.807829	-0.136850	-0.003226
1503	7.5100e-01	-9.9708	-82.180434	-0.000303	-3.029360	-0.513187	-0.012099
1504	7.5150e-01	-9.9525	-82.075573	0.000525	5.250890	0.889525	0.020972
1505	7.5200e-01	-9.9320	-82.087672	-0.000061	-0.605872	-0.102637	-0.002420
1506	7.5250e-01	-9.9134	-82.019110	0.000343	3.433274	0.581612	0.013713
1507	7.5300e-01	-9.8927	-81.994911	0.000121	1.211744	0.205275	0.004840
1508	7.5350e-01	-9.8734	-81.954580	0.000202	2.019573	0.342125	0.008066
1509	7.5400e-01	-9.8542	-81.881984	0.000364	3.635232	0.615825	0.014519
1510	7.5450e-01	-9.8322	-81.849720	0.000162	1.615659	0.273700	0.006453
1511	7.5500e-01	-9.8133	-81.769058	0.000404	4.039146	0.684250	0.016132
1512	7.5550e-01	-9.7932	-81.724694	0.000222	2.221530	0.376337	0.008873
1513	7.5600e-01	-9.7724	-81.676296	0.000242	2.423488	0.410550	0.009679
1514	7.5650e-01	-9.7535	-81.571436	0.000525	5.250890	0.889525	0.020972
1515	7.5700e-01	-9.7334	-81.547237	0.000121	1.211744	0.205275	0.004840
1516	7.5750e-01	-9.7129	-81.462542	0.000424	4.241104	0.718462	0.016939
1517	7.5800e-01	-9.6925	-81.345582	0.000586	5.856762	0.992162	0.023392
1518	7.5850e-01	-9.6726	-81.293152	0.000263	2.625445	0.444762	0.010486
1519	7.5900e-01	-9.6522	-81.256854	0.000182	1.817616	0.307912	0.007260
1520	7.5950e-01	-9.6326	-81.196358	0.000303	3.029360	0.513187	0.012099
1521	7.6000e-01	-9.6128	-81.115696	0.000404	4.039146	0.684250	0.016132
1522	7.6050e-01	-9.5930	-81.010835	0.000525	5.250890	0.889525	0.020972
1523	7.6100e-01	-9.5722	-80.930173	0.000404	4.039146	0.684250	0.016132
1524	7.6150e-01	-9.5527	-80.853544	0.000384	3.837189	0.650037	0.015326
1525	7.6200e-01	-9.5325	-80.756750	0.000485	4.846976	0.821100	0.019359
1526	7.6250e-01	-9.5121	-80.676088	0.000404	4.039146	0.684250	0.016132
1527	7.6300e-01	-9.4932	-80.603492	0.000364	3.635232	0.615825	0.014519
1528	7.6350e-01	-9.4715	-80.506698	0.000485	4.846976	0.821100	0.019359
1529	7.6400e-01	-9.4520	-80.393771	0.000565	5.654805	0.957950	0.022585
1530	7.6450e-01	-9.4324	-80.381672	0.000061	0.605872	0.102637	0.002420
1531	7.6500e-01	-9.4132	-80.244546	0.000687	6.866549	1.163225	0.027425
1532	7.6550e-01	-9.3931	-80.143719	0.000505	5.048933	0.855312	0.020165
1533	7.6600e-01	-9.3726	-80.103388	0.000202	2.019573	0.342125	0.008066
1534	7.6650e-01	-9.3525	-80.010627	0.000465	4.645018	0.786887	0.018552
1535	7.6700e-01	-9.3330	-79.901733	0.000545	5.452847	0.923737	0.021779
1536	7.6750e-01	-9.3122	-79.817038	0.000424	4.241104	0.718462	0.016939
1537	7.6800e-01	-9.2921	-79.764608	0.000263	2.625445	0.444762	0.010486
1538	7.6850e-01	-9.2722	-79.667813	0.000485	4.846976	0.821100	0.019359
1539	7.6900e-01	-9.2536	-79.583118	0.000424	4.241104	0.718462	0.016939
1540	7.6950e-01	-9.2329	-79.538754	0.000222	2.221530	0.376337	0.008873
1541	7.7000e-01	-9.2133	-79.369364	0.000848	8.482207	1.436925	0.033878
1542	7.7050e-01	-9.1932	-79.312901	0.000283	2.827402	0.478975	0.011293
1543	7.7100e-01	-9.1718	-79.216106	0.000485	4.846976	0.821100	0.019359
1544	7.7150e-01	-9.1517	-79.115279	0.000505	5.048933	0.855312	0.020165
1545	7.7200e-01	-9.1322	-79.054782	0.000303	3.029360	0.513187	0.012099
1546	7.7250e-01	-9.1132	-78.889425	0.000828	8.280250	1.402712	0.033071
1547	7.7300e-01	-9.0934	-78.877326	0.000061	0.605872	0.102637	0.002420
1548	7.7350e-01	-9.0730	-78.760366	0.000586	5.856762	0.992162	0.023392
1549	7.7400e-01	-9.0528	-78.659539	0.000505	5.048933	0.855312	0.020165
1550	7.7450e-01	-9.0314	-78.558711	0.000505	5.048933	0.855312	0.020165
1551	7.7500e-01	-9.0125	-78.433685	0.000626	6.260677	1.060587	0.025005
1552	7.7550e-01	-8.9939	-78.405453	0.000141	1.413701	0.239487	0.005646
1553	7.7600e-01	-8.9735	-78.268328	0.000687	6.866549	1.163225	0.027425
1554	7.7650e-01	-8.9533	-78.163467	0.000525	5.250890	0.889525	0.020972
1555	7.7700e-01	-8.9335	-78.086839	0.000384	3.837189	0.650037	0.015326
1556	7.7750e-01	-8.9130	-77.973912	0.000565	5.654805	0.957950	0.022585
1557	7.7800e-01	-8.8917	-77.885184	0.000444	4.443061	0.752675	0.017746
1558	7.7850e-01	-8.8709	-77.776290	0.000545	5.452847	0.923737	0.021779
1559	7.7900e-01	-8.8532	-77.711760	0.000323	3.231317	0.547400	0.012906
1560	7.7950e-01	-8.8319	-77.570602	0.000707	7.068506	1.197437	0.028232
1561	7.8000e-01	-8.8123	-77.461708	0.000545	5.452847	0.923737	0.021779
1562	7.8050e-01	-8.7928	-77.385079	0.000384	3.837189	0.650037	0.015326
1563	7.8100e-01	-8.7727	-77.316517	0.000343	3.433274	0.581612	0.013713
1564	7.8150e-01	-8.7525	-77.183425	0.000666	6.664591	1.129012	0.026618
1565	7.8200e-01	-8.7327	-77.139060	0.000222	2.221530	0.376337	0.008873
1566	7.8250e-01	-8.7127	-77.005968	0.000666	6.664591	1.129012	0.026618
1567	7.8300e-01	-8.6927	-76.969670	0.000182	1.817616	0.307912	0.007260
1568	7.8350e-01	-8.6726	-76.788181	0.000909	9.088079	1.539562	0.036298
1569	7.8400e-01	-8.6530	-76.675254	0.000565	5.654805	0.957950	0.022585
1570	7.8450e-01	-8.6326	-76.558294	0.000586	5.856762	0.992162	0.023392
1571	7.8500e-01	-8.6121	-76.530063	0.000141	1.413701	0.239487	0.005646
1572	7.8550e-01	-8.5938	-76.441334	0.000444	4.443061	0.752675	0.017746
1573	7.8600e-01	-8.5731	-76.352606	0.000444	4.443061	0.752675	0.017746
1574	7.8650e-01	-8.5535	-76.199348	0.000767	7.674378	1.300075	0.030652
1575	7.8700e-01	-8.5328	-76.050124	0.000747	7.472421	1.265862	0.029845
1576	7.8750e-01	-8.5130	-75.961396	0.000444	4.443061	0.752675	0.017746
1577	7.8800e-01	-8.4931	-75.892833	0.000343	3.433274	0.581612	0.013713
1578	7.8850e-01	-8.4730	-75.755708	0.000687	6.866549	1.163225	0.027425
1579	7.8900e-01	-8.4534	-75.727476	0.000141	1.413701	0.239487	0.005646
1580	7.8950e-01	-8.4327	-75.602450	0.000626	6.260677	1.060587	0.025005
1581	7.9000e-01	-8.4126	-75.481457	0.000606	6.058719	1.026375	0.024199
1582	7.9050e-01	-8.3927	-75.384663	0.000485	4.846976	0.821100	0.019359
1583	7.9100e-01	-8.3735	-75.312067	0.000364	3.635232	0.615825	0.014519
1584	7.9150e-01	-8.3521	-75.211239	0.000505	5.048933	0.855312	0.020165
1585	7.9200e-01	-8.3326	-75.037816	0.000868	8.684165	1.471137	0.034685
1586	7.9250e-01	-8.3128	-74.961187	0.000384	3.837189	0.650037	0.015326
1587	7.9300e-01	-8.2923	-74.876492	0.000424	4.241104	0.718462	0.016939
1588	7.9350e-01	-8.2728	-74.739367	0.000687	6.866549	1.163225	0.027425
1589	7.9400e-01	-8.2520	-74.650639	0.000444	4.443061	0.752675	0.017746
1590	7.9450e-01	-8.2331	-74.541745	0.000545	5.452847	0.923737	0.021779
1591	7.9500e-01	-8.2117	-74.448984	0.000465	4.645018	0.786887	0.018552
1592	7.9550e-01	-8.1922	-74.303792	0.000727	7.270463	1.231650	0.029038
1593	7.9600e-01	-8.1727	-74.239263	0.000323	3.231317	0.547400	0.012906
1594	7.9650e-01	-8.1525	-74.081972	0.000788	7.876335	1.334287	0.031458
1595	7.9700e-01	-8.1330	-74.009376	0.000364	3.635232	0.615825	0.014519
1596	7.9750e-01	-8.1120	-73.904515	0.000525	5.250890	0.889525	0.020972
1597	7.9800e-01	-8.0927	-73.783522	0.000606	6.058719	1.026375	0.024199
1598	7.9850e-01	-8.0726	-73.698827	0.000424	4.241104	0.718462	0.016939
1599	7.9900e-01	-8.0524	-73.545570	0.000767	7.674378	1.300075	0.030652
1600	7.9950e-01	-8.0329	-73.472974	0.000364	3.635232	0.615825	0.014519
1601	8.0000e-01	-8.0128	-73.360047	0.000565	5.654805	0.957950	0.022585
1602	8.0050e-01	-7.9920	-73.243087	0.000586	5.856762	0.992162	0.023392
1603	8.0100e-01	-7.9719	-73.146293	0.000485	4.846976	0.821100	0.019359
1604	8.0150e-01	-7.9523	-73.037399	0.000545	5.452847	0.923737	0.021779
1605	8.0200e-01	-7.9328	-72.908340	0.000646	6.462634	1.094800	0.025812
1606	8.0250e-01	-7.9127	-72.876075	0.000162	1.615659	0.273700	0.006453
1607	8.0300e-01	-7.8931	-72.730884	0.000727	7.270463	1.231650	0.029038
1608	8.0350e-01	-7.8724	-72.621990	0.000545	5.452847	0.923737	0.021779
1609	8.0400e-01	-7.8550	-72.549394	0.000364	3.635232	0.615825	0.014519
1610	8.0450e-01	-7.8327	-72.392103	0.000788	7.876335	1.334287	0.031458
1611	8.0500e-01	-7.8126	-72.275144	0.000586	5.856762	0.992162	0.023392
1612	8.0550e-01	-7.7927	-72.158184	0.000586	5.856762	0.992162	0.023392
1613	8.0600e-01	-7.7723	-72.073489	0.000424	4.241104	0.718462	0.016939
1614	8.0650e-01	-7.7522	-71.972661	0.000505	5.048933	0.855312	0.020165
1615	8.0700e-01	-7.7320	-71.831503	0.000707	7.068506	1.197437	0.028232
1616	8.0750e-01	-7.7125	-71.710510	0.000606	6.058719	1.026375	0.024199
1617	8.0800e-01	-7.6929	-71.617748	0.000465	4.645018	0.786887	0.018552
1618	8.0850e-01	-7.6722	-71.484656	0.000666	6.664591	1.129012	0.026618
1619	8.0900e-01	-7.6521	-71.424160	0.000303	3.029360	0.513187	0.012099
1620	8.0950e-01	-7.6316	-71.311233	0.000565	5.654805	0.957950	0.022585
1621	8.1000e-01	-7.6130	-71.178141	0.000666	6.664591	1.129012	0.026618
1622	8.1050e-01	-7.5922	-71.081346	0.000485	4.846976	0.821100	0.019359
1623	8.1100e-01	-7.5721	-70.944221	0.000687	6.866549	1.163225	0.027425
1624	8.1150e-01	-7.5523	-70.827261	0.000586	5.856762	0.992162	0.023392
1625	8.1200e-01	-7.5318	-70.718367	0.000545	5.452847	0.923737	0.021779
1626	8.1250e-01	-7.5129	-70.589308	0.000646	6.462634	1.094800	0.025812
1627	8.1300e-01	-7.4921	-70.508646	0.000404	4.039146	0.684250	0.016132
1628	8.1350e-01	-7.4729	-70.432017	0.000384	3.837189	0.650037	0.015326
1629	8.1400e-01	-7.4525	-70.298925	0.000666	6.664591	1.129012	0.026618
1630	8.1450e-01	-7.4326	-70.210197	0.000444	4.443061	0.752675	0.017746
1631	8.1500e-01	-7.4128	-70.044840	0.000828	8.280250	1.402712	0.033071
1632	8.1550e-01	-7.3933	-69.871417	0.000868	8.684165	1.471137	0.034685
1633	8.1600e-01	-7.3725	-69.855284	0.000081	0.807829	0.136850	0.003226
1634	8.1650e-01	-7.3536	-69.689927	0.000828	8.280250	1.402712	0.033071
1635	8.1700e-01	-7.3322	-69.577001	0.000565	5.654805	0.957950	0.022585
1636	8.1750e-01	-7.3127	-69.492305	0.000424	4.241104	0.718462	0.016939
1637	8.1800e-01	-7.2923	-69.379379	0.000565	5.654805	0.957950	0.022585
1638	8.1850e-01	-7.2718	-69.282584	0.000485	4.846976	0.821100	0.019359
1639	8.1900e-01	-7.2523	-69.133360	0.000747	7.472421	1.265862	0.029845
1640	8.1950e-01	-7.2334	-69.016400	0.000586	5.856762	0.992162	0.023392
1641	8.2000e-01	-7.2120	-68.915572	0.000505	5.048933	0.855312	0.020165
1642	8.2050e-01	-7.1925	-68.794579	0.000606	6.058719	1.026375	0.024199
1643	8.2100e-01	-7.1723	-68.665520	0.000646	6.462634	1.094800	0.025812
1644	8.2150e-01	-7.1534	-68.536461	0.000646	6.462634	1.094800	0.025812
1645	8.2200e-01	-7.1333	-68.447733	0.000444	4.443061	0.752675	0.017746
1646	8.2250e-01	-7.1125	-68.326740	0.000606	6.058719	1.026375	0.024199
1647	8.2300e-01	-7.0924	-68.229946	0.000485	4.846976	0.821100	0.019359
1648	8.2350e-01	-7.0722	-68.096853	0.000666	6.664591	1.129012	0.026618
1649	8.2400e-01	-7.0515	-67.979893	0.000586	5.856762	0.992162	0.023392
1650	8.2450e-01	-7.0325	-67.838735	0.000707	7.068506	1.197437	0.028232
1651	8.2500e-01	-7.0124	-67.745974	0.000465	4.645018	0.786887	0.018552
1652	8.2550e-01	-6.9929	-67.580617	0.000828	8.280250	1.402712	0.033071
1653	8.2600e-01	-6.9730	-67.520120	0.000303	3.029360	0.513187	0.012099
1654	8.2650e-01	-6.9526	-67.374929	0.000727	7.270463	1.231650	0.029038
1655	8.2700e-01	-6.9324	-67.229737	0.000727	7.270463	1.231650	0.029038
1656	8.2750e-01	-6.9129	-67.165208	0.000323	3.231317	0.547400	0.012906
1657	8.2800e-01	-6.8922	-67.080513	0.000424	4.241104	0.718462	0.016939
1658	8.2850e-01	-6.8723	-66.935321	0.000727	7.270463	1.231650	0.029038
1659	8.2900e-01	-6.8525	-66.782063	0.000767	7.674378	1.300075	0.030652
1660	8.2950e-01	-6.8330	-66.681236	0.000505	5.048933	0.855312	0.020165
1661	8.3000e-01	-6.8122	-66.564276	0.000586	5.856762	0.992162	0.023392
1662	8.3050e-01	-6.7927	-66.443283	0.000606	6.058719	1.026375	0.024199
1663	8.3100e-01	-6.7731	-66.330356	0.000565	5.654805	0.957950	0.022585
1664	8.3150e-01	-6.7530	-66.193231	0.000687	6.866549	1.163225	0.027425
1665	8.3200e-01	-6.7323	-66.104503	0.000444	4.443061	0.752675	0.017746
1666	8.3250e-01	-6.7127	-65.983510	0.000606	6.058719	1.026375	0.024199
1667	8.3300e-01	-6.6950	-65.914947	0.000343	3.433274	0.581612	0.013713
1668	8.3350e-01	-6.6730	-65.741524	0.000868	8.684165	1.471137	0.034685
1669	8.3400e-01	-6.6535	-65.592299	0.000747	7.472421	1.265862	0.029845
1670	8.3450e-01	-6.6322	-65.439041	0.000767	7.674378	1.300075	0.030652
1671	8.3500e-01	-6.6126	-65.350313	0.000444	4.443061	0.752675	0.017746
1672	8.3550e-01	-6.5931	-65.180923	0.000848	8.482207	1.436925	0.033878
1673	8.3600e-01	-6.5730	-65.152691	0.000141	1.413701	0.239487	0.005646
1674	8.3650e-01	-6.5534	-64.983301	0.000848	8.482207	1.436925	0.033878
1675	8.3700e-01	-6.5330	-64.862308	0.000606	6.058719	1.026375	0.024199
1676	8.3750e-01	-6.5122	-64.721150	0.000707	7.068506	1.197437	0.028232
1677	8.3800e-01	-6.4930	-64.612256	0.000545	5.452847	0.923737	0.021779
1678	8.3850e-01	-6.4722	-64.491263	0.000606	6.058719	1.026375	0.024199
1679	8.3900e-01	-6.4518	-64.362204	0.000646	6.462634	1.094800	0.025812
1680	8.3950e-01	-6.4329	-64.229112	0.000666	6.664591	1.129012	0.026618
1681	8.4000e-01	-6.4124	-64.136351	0.000465	4.645018	0.786887	0.018552
1682	8.4050e-01	-6.3917	-63.950828	0.000929	9.290036	1.573775	0.037105
1683	8.4100e-01	-6.3721	-63.858067	0.000465	4.645018	0.786887	0.018552
1684	8.4150e-01	-6.3526	-63.789504	0.000343	3.433274	0.581612	0.013713
1685	8.4200e-01	-6.3328	-63.644312	0.000727	7.270463	1.231650	0.029038
1686	8.4250e-01	-6.3114	-63.523320	0.000606	6.058719	1.026375	0.024199
1687	8.4300e-01	-6.2928	-63.349896	0.000868	8.684165	1.471137	0.034685
1688	8.4350e-01	-6.2727	-63.281334	0.000343	3.433274	0.581612	0.013713
1689	8.4400e-01	-6.2525	-63.107910	0.000868	8.684165	1.471137	0.034685
1690	8.4450e-01	-6.2330	-63.047414	0.000303	3.029360	0.513187	0.012099
1691	8.4500e-01	-6.2122	-62.934487	0.000565	5.654805	0.957950	0.022585
1692	8.4550e-01	-6.1921	-62.744932	0.000949	9.491994	1.607987	0.037911
1693	8.4600e-01	-6.1732	-62.623939	0.000606	6.058719	1.026375	0.024199
1694	8.4650e-01	-6.1524	-62.519078	0.000525	5.250890	0.889525	0.020972
1695	8.4700e-01	-6.1326	-62.410184	0.000545	5.452847	0.923737	0.021779
1696	8.4750e-01	-6.1121	-62.260960	0.000747	7.472421	1.265862	0.029845
1697	8.4800e-01	-6.0926	-62.152066	0.000545	5.452847	0.923737	0.021779
1698	8.4850e-01	-6.0725	-61.990742	0.000808	8.078293	1.368500	0.032265
1699	8.4900e-01	-6.0520	-61.881848	0.000545	5.452847	0.923737	0.021779
1700	8.4950e-01	-6.0329	-61.768922	0.000565	5.654805	0.957950	0.022585
1701	8.5000e-01	-6.0122	-61.639862	0.000646	6.462634	1.094800	0.025812
1702	8.5050e-01	-5.9925	-61.490638	0.000747	7.472421	1.265862	0.029845
1703	8.5100e-01	-5.9730	-61.377711	0.000565	5.654805	0.957950	0.022585
1704	8.5150e-01	-5.9528	-61.280917	0.000485	4.846976	0.821100	0.019359
1705	8.5200e-01	-5.9321	-61.131692	0.000747	7.472421	1.265862	0.029845
1706	8.5250e-01	-5.9119	-61.006666	0.000626	6.260677	1.060587	0.025005
1707	8.5300e-01	-5.8930	-60.865508	0.000707	7.068506	1.197437	0.028232
1708	8.5350e-01	-5.8723	-60.764680	0.000505	5.048933	0.855312	0.020165
1709	8.5400e-01	-5.8527	-60.615455	0.000747	7.472421	1.265862	0.029845
1710	8.5450e-01	-5.8320	-60.550926	0.000323	3.231317	0.547400	0.012906
1711	8.5500e-01	-5.8125	-60.361370	0.000949	9.491994	1.607987	0.037911
1712	8.5550e-01	-5.7925	-60.220212	0.000707	7.068506	1.197437	0.028232
1713	8.5600e-01	-5.7722	-60.115351	0.000525	5.250890	0.889525	0.020972
1714	8.5650e-01	-5.7520	-59.966127	0.000747	7.472421	1.265862	0.029845
1715	8.5700e-01	-5.7325	-59.849167	0.000586	5.856762	0.992162	0.023392
1716	8.5750e-01	-5.7124	-59.687843	0.000808	8.078293	1.368500	0.032265
1717	8.5800e-01	-5.6922	-59.554751	0.000666	6.664591	1.129012	0.026618
1718	8.5850e-01	-5.6715	-59.437791	0.000586	5.856762	0.992162	0.023392
1719	8.5900e-01	-5.6513	-59.308731	0.000646	6.462634	1.094800	0.025812
1720	8.5950e-01	-5.6324	-59.248235	0.000303	3.029360	0.513187	0.012099
1721	8.6000e-01	-5.6123	-59.066746	0.000909	9.088079	1.539562	0.036298
1722	8.6050e-01	-5.5924	-58.921554	0.000727	7.270463	1.231650	0.029038
1723	8.6100e-01	-5.5726	-58.828793	0.000465	4.645018	0.786887	0.018552
1724	8.6150e-01	-5.5531	-58.651336	0.000889	8.886122	1.505350	0.035491
1725	8.6200e-01	-5.5314	-58.485979	0.000828	8.280250	1.402712	0.033071
1726	8.6250e-01	-5.5122	-58.364986	0.000606	6.058719	1.026375	0.024199
1727	8.6300e-01	-5.4926	-58.243993	0.000606	6.058719	1.026375	0.024199
1728	8.6350e-01	-5.4725	-58.135100	0.000545	5.452847	0.923737	0.021779
1729	8.6400e-01	-5.4527	-57.945544	0.000949	9.491994	1.607987	0.037911
1730	8.6450e-01	-5.4319	-57.852783	0.000465	4.645018	0.786887	0.018552
1731	8.6500e-01	-5.4121	-57.719691	0.000666	6.664591	1.129012	0.026618
1732	8.6550e-01	-5.3913	-57.618863	0.000505	5.048933	0.855312	0.020165
1733	8.6600e-01	-5.3721	-57.429308	0.000949	9.491994	1.607987	0.037911
1734	8.6650e-01	-5.3522	-57.292182	0.000687	6.866549	1.163225	0.027425
1735	8.6700e-01	-5.3327	-57.167156	0.000626	6.260677	1.060587	0.025005
1736	8.6750e-01	-5.3117	-57.062296	0.000525	5.250890	0.889525	0.020972
1737	8.6800e-01	-5.2924	-56.937270	0.000626	6.260677	1.060587	0.025005
1738	8.6850e-01	-5.2723	-56.816277	0.000606	6.058719	1.026375	0.024199
1739	8.6900e-01	-5.2534	-56.642853	0.000868	8.684165	1.471137	0.034685
1740	8.6950e-01	-5.2326	-56.554125	0.000444	4.443061	0.752675	0.017746
1741	8.7000e-01	-5.2131	-56.392801	0.000808	8.078293	1.368500	0.032265
1742	8.7050e-01	-5.1911	-56.263742	0.000646	6.462634	1.094800	0.025812
1743	8.7100e-01	-5.1728	-56.106451	0.000788	7.876335	1.334287	0.031458
1744	8.7150e-01	-5.1524	-55.993524	0.000565	5.654805	0.957950	0.022585
1745	8.7200e-01	-5.1319	-55.844300	0.000747	7.472421	1.265862	0.029845
1746	8.7250e-01	-5.1125	-55.727340	0.000586	5.856762	0.992162	0.023392
1747	8.7300e-01	-5.0916	-55.606347	0.000606	6.058719	1.026375	0.024199
1748	8.7350e-01	-5.0721	-55.485354	0.000606	6.058719	1.026375	0.024199
1749	8.7400e-01	-5.0507	-55.291765	0.000969	9.693951	1.642200	0.038718
1750	8.7450e-01	-5.0324	-55.146574	0.000727	7.270463	1.231650	0.029038
1751	8.7500e-01	-5.0117	-55.049779	0.000485	4.846976	0.821100	0.019359
1752	8.7550e-01	-4.9918	-54.904588	0.000727	7.270463	1.231650	0.029038
1753	8.7600e-01	-4.9714	-54.771496	0.000666	6.664591	1.129012	0.026618
1754	8.7650e-01	-4.9528	-54.662602	0.000545	5.452847	0.923737	0.021779
1755	8.7700e-01	-4.9320	-54.460947	0.001010	10.097866	1.710625	0.040331
1756	8.7750e-01	-4.9123	-54.364153	0.000485	4.846976	0.821100	0.019359
1757	8.7800e-01	-4.8927	-54.222994	0.000707	7.068506	1.197437	0.028232
1758	8.7850e-01	-4.8728	-54.081836	0.000707	7.068506	1.197437	0.028232
1759	8.7900e-01	-4.8524	-53.932611	0.000747	7.472421	1.265862	0.029845
1760	8.7950e-01	-4.8328	-53.815651	0.000586	5.856762	0.992162	0.023392
1761	8.8000e-01	-4.8122	-53.658360	0.000788	7.876335	1.334287	0.031458
1762	8.8050e-01	-4.7923	-53.525268	0.000666	6.664591	1.129012	0.026618
1763	8.8100e-01	-4.7724	-53.384110	0.000707	7.068506	1.197437	0.028232
1764	8.8150e-01	-4.7524	-53.214720	0.000848	8.482207	1.436925	0.033878
1765	8.8200e-01	-4.7323	-53.077594	0.000687	6.866549	1.163225	0.027425
1766	8.8250e-01	-4.7121	-52.988866	0.000444	4.443061	0.752675	0.017746
1767	8.8300e-01	-4.6912	-52.791244	0.000990	9.895908	1.676412	0.039524
1768	8.8350e-01	-4.6723	-52.698483	0.000465	4.645018	0.786887	0.018552
1769	8.8400e-01	-4.6525	-52.512960	0.000929	9.290036	1.573775	0.037105
1770	8.8450e-01	-4.6326	-52.391967	0.000606	6.058719	1.026375	0.024199
1771	8.8500e-01	-4.6113	-52.270974	0.000606	6.058719	1.026375	0.024199
1772	8.8550e-01	-4.5918	-52.125783	0.000727	7.270463	1.231650	0.029038
1773	8.8600e-01	-4.5719	-51.976558	0.000747	7.472421	1.265862	0.029845
1774	8.8650e-01	-4.5527	-51.823300	0.000767	7.674378	1.300075	0.030652
1775	8.8700e-01	-4.5313	-51.666010	0.000788	7.876335	1.334287	0.031458
1776	8.8750e-01	-4.5115	-51.569215	0.000485	4.846976	0.821100	0.019359
1777	8.8800e-01	-4.4917	-51.403858	0.000828	8.280250	1.402712	0.033071
1778	8.8850e-01	-4.4718	-51.218336	0.000929	9.290036	1.573775	0.037105
1779	8.8900e-01	-4.4517	-51.141707	0.000384	3.837189	0.650037	0.015326
1780	8.8950e-01	-4.4318	-50.984416	0.000788	7.876335	1.334287	0.031458
1781	8.9000e-01	-4.4117	-50.847291	0.000687	6.866549	1.163225	0.027425
1782	8.9050e-01	-4.3909	-50.661768	0.000929	9.290036	1.573775	0.037105
1783	8.9100e-01	-4.3739	-50.536742	0.000626	6.260677	1.060587	0.025005
1784	8.9150e-01	-4.3525	-50.439948	0.000485	4.846976	0.821100	0.019359
1785	8.9200e-01	-4.3307	-50.262491	0.000889	8.886122	1.505350	0.035491
1786	8.9250e-01	-4.3122	-50.145531	0.000586	5.856762	0.992162	0.023392
1787	8.9300e-01	-4.2927	-49.951943	0.000969	9.693951	1.642200	0.038718
1788	8.9350e-01	-4.2722	-49.802718	0.000747	7.472421	1.265862	0.029845
1789	8.9400e-01	-4.2518	-49.685758	0.000586	5.856762	0.992162	0.023392
1790	8.9450e-01	-4.2313	-49.500236	0.000929	9.290036	1.573775	0.037105
1791	8.9500e-01	-4.2123	-49.423607	0.000384	3.837189	0.650037	0.015326
1792	8.9550e-01	-4.1920	-49.282448	0.000707	7.068506	1.197437	0.028232
1793	8.9600e-01	-4.1718	-49.064661	0.001091	10.905695	1.847475	0.043557
1794	8.9650e-01	-4.1523	-48.983999	0.000404	4.039146	0.684250	0.016132
1795	8.9700e-01	-4.1315	-48.810576	0.000868	8.684165	1.471137	0.034685
1796	8.9750e-01	-4.1117	-48.669417	0.000707	7.068506	1.197437	0.028232
1797	8.9800e-01	-4.0913	-48.495994	0.000868	8.684165	1.471137	0.034685
1798	8.9850e-01	-4.0714	-48.342736	0.000767	7.674378	1.300075	0.030652
1799	8.9900e-01	-4.0525	-48.197545	0.000727	7.270463	1.231650	0.029038
1800	8.9950e-01	-4.0314	-48.060419	0.000687	6.866549	1.163225	0.027425
1801	9.0000e-01	-4.0116	-47.907162	0.000767	7.674378	1.300075	0.030652
1802	9.0050e-01	-3.9914	-47.733739	0.000868	8.684165	1.471137	0.034685
1803	9.0100e-01	-3.9712	-47.661143	0.000364	3.635232	0.615825	0.014519
1804	9.0150e-01	-3.9518	-47.447389	0.001070	10.703738	1.813262	0.042751
1805	9.0200e-01	-3.9326	-47.350594	0.000485	4.846976	0.821100	0.019359
1806	9.0250e-01	-3.9124	-47.173138	0.000889	8.886122	1.505350	0.035491
1807	9.0300e-01	-3.8914	-47.068277	0.000525	5.250890	0.889525	0.020972
1808	9.0350e-01	-3.8712	-46.902920	0.000828	8.280250	1.402712	0.033071
1809	9.0400e-01	-3.8508	-46.773861	0.000646	6.462634	1.094800	0.025812
1810	9.0450e-01	-3.8309	-46.620603	0.000767	7.674378	1.300075	0.030652
1811	9.0500e-01	-3.8117	-46.451213	0.000848	8.482207	1.436925	0.033878
1812	9.0550e-01	-3.7904	-46.233426	0.001091	10.905695	1.847475	0.043557
1813	9.0600e-01	-3.7717	-46.164863	0.000343	3.433274	0.581612	0.013713
1814	9.0650e-01	-3.7519	-46.011605	0.000767	7.674378	1.300075	0.030652
1815	9.0700e-01	-3.7321	-45.854315	0.000788	7.876335	1.334287	0.031458
1816	9.0750e-01	-3.7118	-45.753487	0.000505	5.048933	0.855312	0.020165
1817	9.0800e-01	-3.6927	-45.580064	0.000868	8.684165	1.471137	0.034685
1818	9.0850e-01	-3.6723	-45.414707	0.000828	8.280250	1.402712	0.033071
1819	9.0900e-01	-3.6518	-45.241284	0.000868	8.684165	1.471137	0.034685
1820	9.0950e-01	-3.6314	-45.128357	0.000565	5.654805	0.957950	0.022585
1821	9.1000e-01	-3.6106	-44.946867	0.000909	9.088079	1.539562	0.036298
1822	9.1050e-01	-3.5908	-44.773444	0.000868	8.684165	1.471137	0.034685
1823	9.1100e-01	-3.5719	-44.620186	0.000767	7.674378	1.300075	0.030652
1824	9.1150e-01	-3.5521	-44.438697	0.000909	9.088079	1.539562	0.036298
1825	9.1200e-01	-3.5316	-44.341903	0.000485	4.846976	0.821100	0.019359
1826	9.1250e-01	-3.5114	-44.204777	0.000687	6.866549	1.163225	0.027425
1827	9.1300e-01	-3.4916	-43.991023	0.001070	10.703738	1.813262	0.042751
1828	9.1350e-01	-3.4713	-43.857931	0.000666	6.664591	1.129012	0.026618
1829	9.1400e-01	-3.4510	-43.700640	0.000788	7.876335	1.334287	0.031458
1830	9.1450e-01	-3.4315	-43.559481	0.000707	7.068506	1.197437	0.028232
1831	9.1500e-01	-3.4107	-43.418323	0.000707	7.068506	1.197437	0.028232
1832	9.1550e-01	-3.3922	-43.236834	0.000909	9.088079	1.539562	0.036298
1833	9.1600e-01	-3.3715	-43.107774	0.000646	6.462634	1.094800	0.025812
1834	9.1650e-01	-3.3524	-42.970649	0.000687	6.866549	1.163225	0.027425
1835	9.1700e-01	-3.3315	-42.785127	0.000929	9.290036	1.573775	0.037105
1836	9.1750e-01	-3.3121	-42.615736	0.000848	8.482207	1.436925	0.033878
1837	9.1800e-01	-3.2919	-42.462479	0.000767	7.674378	1.300075	0.030652
1838	9.1850e-01	-3.2717	-42.333419	0.000646	6.462634	1.094800	0.025812
1839	9.1900e-01	-3.2520	-42.147897	0.000929	9.290036	1.573775	0.037105
1840	9.1950e-01	-3.2319	-41.978507	0.000848	8.482207	1.436925	0.033878
1841	9.2000e-01	-3.2117	-41.897845	0.000404	4.039146	0.684250	0.016132
1842	9.2050e-01	-3.1913	-41.696190	0.001010	10.097866	1.710625	0.040331
1843	9.2100e-01	-3.1716	-41.550998	0.000727	7.270463	1.231650	0.029038
1844	9.2150e-01	-3.1513	-41.361443	0.000949	9.491994	1.607987	0.037911
1845	9.2200e-01	-3.1312	-41.232384	0.000646	6.462634	1.094800	0.025812
1846	9.2250e-01	-3.1106	-41.054927	0.000889	8.886122	1.505350	0.035491
1847	9.2300e-01	-3.0921	-40.933934	0.000606	6.058719	1.026375	0.024199
1848	9.2350e-01	-3.0715	-40.752445	0.000909	9.088079	1.539562	0.036298
1849	9.2400e-01	-3.0506	-40.631452	0.000606	6.058719	1.026375	0.024199
1850	9.2450e-01	-3.0317	-40.401565	0.001151	11.511567	1.950112	0.045977
1851	9.2500e-01	-3.0116	-40.240241	0.000808	8.078293	1.368500	0.032265
1852	9.2550e-01	-2.9917	-40.119248	0.000606	6.058719	1.026375	0.024199
1853	9.2600e-01	-2.9719	-40.010355	0.000545	5.452847	0.923737	0.021779
1854	9.2650e-01	-2.9526	-39.768369	0.001212	12.117439	2.052750	0.048397
1855	9.2700e-01	-2.9316	-39.623177	0.000727	7.270463	1.231650	0.029038
1856	9.2750e-01	-2.9108	-39.486052	0.000687	6.866549	1.163225	0.027425
1857	9.2800e-01	-2.8902	-39.300529	0.000929	9.290036	1.573775	0.037105
1858	9.2850e-01	-2.8712	-39.171470	0.000646	6.462634	1.094800	0.025812
1859	9.2900e-01	-2.8518	-39.002080	0.000848	8.482207	1.436925	0.033878
1860	9.2950e-01	-2.8309	-38.860922	0.000707	7.068506	1.197437	0.028232
1861	9.3000e-01	-2.8114	-38.683465	0.000889	8.886122	1.505350	0.035491
1862	9.3050e-01	-2.7918	-38.530207	0.000767	7.674378	1.300075	0.030652
1863	9.3100e-01	-2.7711	-38.340652	0.000949	9.491994	1.607987	0.037911
1864	9.3150e-01	-2.7522	-38.175295	0.000828	8.280250	1.402712	0.033071
1865	9.3200e-01	-2.7326	-38.005905	0.000848	8.482207	1.436925	0.033878
1866	9.3250e-01	-2.7116	-37.864746	0.000707	7.068506	1.197437	0.028232
1867	9.3300e-01	-2.6908	-37.731654	0.000666	6.664591	1.129012	0.026618
1868	9.3350e-01	-2.6714	-37.558231	0.000868	8.684165	1.471137	0.034685
1869	9.3400e-01	-2.6508	-37.400940	0.000788	7.876335	1.334287	0.031458
1870	9.3450e-01	-2.6314	-37.191219	0.001050	10.501780	1.779050	0.041944
1871	9.3500e-01	-2.6105	-37.050060	0.000707	7.068506	1.197437	0.028232
1872	9.3550e-01	-2.5922	-36.904869	0.000727	7.270463	1.231650	0.029038
1873	9.3600e-01	-2.5709	-36.731446	0.000868	8.684165	1.471137	0.034685
1874	9.3650e-01	-2.5513	-36.570122	0.000808	8.078293	1.368500	0.032265
1875	9.3700e-01	-2.5312	-36.396698	0.000868	8.684165	1.471137	0.034685
1876	9.3750e-01	-2.5117	-36.235374	0.000808	8.078293	1.368500	0.032265
1877	9.3800e-01	-2.4915	-36.070017	0.000828	8.280250	1.402712	0.033071
1878	9.3850e-01	-2.4714	-35.884495	0.000929	9.290036	1.573775	0.037105
1879	9.3900e-01	-2.4505	-35.755436	0.000646	6.462634	1.094800	0.025812
1880	9.3950e-01	-2.4308	-35.582012	0.000868	8.684165	1.471137	0.034685
1881	9.4000e-01	-2.4119	-35.404556	0.000889	8.886122	1.505350	0.035491
1882	9.4050e-01	-2.3914	-35.251298	0.000767	7.674378	1.300075	0.030652
1883	9.4100e-01	-2.3719	-35.085941	0.000828	8.280250	1.402712	0.033071
1884	9.4150e-01	-2.3518	-34.916551	0.000848	8.482207	1.436925	0.033878
1885	9.4200e-01	-2.3319	-34.775393	0.000707	7.068506	1.197437	0.028232
1886	9.4250e-01	-2.3110	-34.561638	0.001070	10.703738	1.813262	0.042751
1887	9.4300e-01	-2.2916	-34.464844	0.000485	4.846976	0.821100	0.019359
1888	9.4350e-01	-2.2713	-34.287388	0.000889	8.886122	1.505350	0.035491
1889	9.4400e-01	-2.2512	-34.097832	0.000949	9.491994	1.607987	0.037911
1890	9.4450e-01	-2.2321	-33.884078	0.001070	10.703738	1.813262	0.042751
1891	9.4500e-01	-2.2120	-33.750986	0.000666	6.664591	1.129012	0.026618
1892	9.4550e-01	-2.1912	-33.569496	0.000909	9.088079	1.539562	0.036298
1893	9.4600e-01	-2.1716	-33.400106	0.000848	8.482207	1.436925	0.033878
1894	9.4650e-01	-2.1519	-33.271047	0.000646	6.462634	1.094800	0.025812
1895	9.4700e-01	-2.1320	-33.037127	0.001171	11.713524	1.984325	0.046784
1896	9.4750e-01	-2.1113	-32.916134	0.000606	6.058719	1.026375	0.024199
1897	9.4800e-01	-2.0920	-32.770943	0.000727	7.270463	1.231650	0.029038
1898	9.4850e-01	-2.0716	-32.585420	0.000929	9.290036	1.573775	0.037105
1899	9.4900e-01	-2.0518	-32.391831	0.000969	9.693951	1.642200	0.038718
1900	9.4950e-01	-2.0309	-32.190176	0.001010	10.097866	1.710625	0.040331
1901	9.5000e-01	-2.0109	-32.057084	0.000666	6.664591	1.129012	0.026618
1902	9.5050e-01	-1.9912	-31.891727	0.000828	8.280250	1.402712	0.033071
1903	9.5100e-01	-1.9711	-31.661841	0.001151	11.511567	1.950112	0.045977
1904	9.5150e-01	-1.9523	-31.561013	0.000505	5.048933	0.855312	0.020165
1905	9.5200e-01	-1.9319	-31.391623	0.000848	8.482207	1.436925	0.033878
1906	9.5250e-01	-1.9114	-31.198034	0.000969	9.693951	1.642200	0.038718
1907	9.5300e-01	-1.8916	-31.032677	0.000828	8.280250	1.402712	0.033071
1908	9.5350e-01	-1.8709	-30.835055	0.000990	9.895908	1.676412	0.039524
1909	9.5400e-01	-1.8513	-30.693897	0.000707	7.068506	1.197437	0.028232
1910	9.5450e-01	-1.8320	-30.536606	0.000788	7.876335	1.334287	0.031458
1911	9.5500e-01	-1.8118	-30.326885	0.001050	10.501780	1.779050	0.041944
1912	9.5550e-01	-1.7915	-30.181693	0.000727	7.270463	1.231650	0.029038
1913	9.5600e-01	-1.7711	-30.109098	0.000364	3.635232	0.615825	0.014519
1914	9.5650e-01	-1.7518	-29.846946	0.001313	13.127225	2.223812	0.052430
1915	9.5700e-01	-1.7319	-29.717887	0.000646	6.462634	1.094800	0.025812
1916	9.5750e-01	-1.7110	-29.488000	0.001151	11.511567	1.950112	0.045977
1917	9.5800e-01	-1.6917	-29.318610	0.000848	8.482207	1.436925	0.033878
1918	9.5850e-01	-1.6718	-29.201650	0.000586	5.856762	0.992162	0.023392
1919	9.5900e-01	-1.6521	-28.967731	0.001171	11.713524	1.984325	0.046784
1920	9.5950e-01	-1.6316	-28.810440	0.000788	7.876335	1.334287	0.031458
1921	9.6000e-01	-1.6114	-28.653149	0.000788	7.876335	1.334287	0.031458
1922	9.6050e-01	-1.5910	-28.451494	0.001010	10.097866	1.710625	0.040331
1923	9.6100e-01	-1.5714	-28.249839	0.001010	10.097866	1.710625	0.040331
1924	9.6150e-01	-1.5516	-28.136912	0.000565	5.654805	0.957950	0.022585
1925	9.6200e-01	-1.5314	-27.898960	0.001192	11.915482	2.018537	0.047591
1926	9.6250e-01	-1.5121	-27.753768	0.000727	7.270463	1.231650	0.029038
1927	9.6300e-01	-1.4921	-27.564212	0.000949	9.491994	1.607987	0.037911
1928	9.6350e-01	-1.4716	-27.354491	0.001050	10.501780	1.779050	0.041944
1929	9.6400e-01	-1.4507	-27.209300	0.000727	7.270463	1.231650	0.029038
1930	9.6450e-01	-1.4307	-27.031843	0.000889	8.886122	1.505350	0.035491
1931	9.6500e-01	-1.4114	-26.874553	0.000788	7.876335	1.334287	0.031458
1932	9.6550e-01	-1.3911	-26.648699	0.001131	11.309610	1.915900	0.045171
1933	9.6600e-01	-1.3724	-26.519640	0.000646	6.462634	1.094800	0.025812
1934	9.6650e-01	-1.3505	-26.398647	0.000606	6.058719	1.026375	0.024199
1935	9.6700e-01	-1.3319	-26.180860	0.001091	10.905695	1.847475	0.043557
1936	9.6750e-01	-1.3112	-25.983238	0.000990	9.895908	1.676412	0.039524
1937	9.6800e-01	-1.2911	-25.862245	0.000606	6.058719	1.026375	0.024199
1938	9.6850e-01	-1.2704	-25.624292	0.001192	11.915482	2.018537	0.047591
1939	9.6900e-01	-1.2507	-25.475067	0.000747	7.472421	1.265862	0.029845
1940	9.6950e-01	-1.2312	-25.245181	0.001151	11.511567	1.950112	0.045977
1941	9.7000e-01	-1.2110	-25.144353	0.000505	5.048933	0.855312	0.020165
1942	9.7050e-01	-1.1911	-24.906400	0.001192	11.915482	2.018537	0.047591
1943	9.7100e-01	-1.1716	-24.745076	0.000808	8.078293	1.368500	0.032265
1944	9.7150e-01	-1.1512	-24.632150	0.000565	5.654805	0.957950	0.022585
1945	9.7200e-01	-1.1308	-24.390164	0.001212	12.117439	2.052750	0.048397
1946	9.7250e-01	-1.1112	-24.232873	0.000788	7.876335	1.334287	0.031458
1947	9.7300e-01	-1.0915	-24.039284	0.000969	9.693951	1.642200	0.038718
1948	9.7350e-01	-1.0709	-23.849729	0.000949	9.491994	1.607987	0.037911
1949	9.7400e-01	-1.0516	-23.684372	0.000828	8.280250	1.402712	0.033071
1950	9.7450e-01	-1.0313	-23.506915	0.000889	8.886122	1.505350	0.035491
1951	9.7500e-01	-1.0115	-23.349624	0.000788	7.876335	1.334287	0.031458
1952	9.7550e-01	-0.9916	-23.160069	0.000949	9.491994	1.607987	0.037911
1953	9.7600e-01	-0.9715	-22.934215	0.001131	11.309610	1.915900	0.045171
1954	9.7650e-01	-0.9516	-22.805156	0.000646	6.462634	1.094800	0.025812
1955	9.7700e-01	-0.9314	-22.567203	0.001192	11.915482	2.018537	0.047591
1956	9.7750e-01	-0.9122	-22.401846	0.000828	8.280250	1.402712	0.033071
1957	9.7800e-01	-0.8910	-22.228423	0.000868	8.684165	1.471137	0.034685
1958	9.7850e-01	-0.8710	-22.038867	0.000949	9.491994	1.607987	0.037911
1959	9.7900e-01	-0.8515	-21.825113	0.001070	10.703738	1.813262	0.042751
1960	9.7950e-01	-0.8305	-21.683955	0.000707	7.068506	1.197437	0.028232
1961	9.8000e-01	-0.8117	-21.522631	0.000808	8.078293	1.368500	0.032265
1962	9.8050e-01	-0.7908	-21.325009	0.000990	9.895908	1.676412	0.039524
1963	9.8100e-01	-0.7713	-21.123354	0.001010	10.097866	1.710625	0.040331
1964	9.8150e-01	-0.7513	-20.974129	0.000747	7.472421	1.265862	0.029845
1965	9.8200e-01	-0.7310	-20.732143	0.001212	12.117439	2.052750	0.048397
1966	9.8250e-01	-0.7116	-20.590985	0.000707	7.068506	1.197437	0.028232
1967	9.8300e-01	-0.6911	-20.365131	0.001131	11.309610	1.915900	0.045171
1968	9.8350e-01	-0.6711	-20.199774	0.000828	8.280250	1.402712	0.033071
1969	9.8400e-01	-0.6511	-20.082814	0.000586	5.856762	0.992162	0.023392
1970	9.8450e-01	-0.6306	-19.840829	0.001212	12.117439	2.052750	0.048397
1971	9.8500e-01	-0.6115	-19.659339	0.000909	9.088079	1.539562	0.036298
1972	9.8550e-01	-0.5910	-19.469784	0.000949	9.491994	1.607987	0.037911
1973	9.8600e-01	-0.5712	-19.324592	0.000727	7.270463	1.231650	0.029038
1974	9.8650e-01	-0.5513	-19.110838	0.001070	10.703738	1.813262	0.042751
1975	9.8700e-01	-0.5312	-18.901117	0.001050	10.501780	1.779050	0.041944
1976	9.8750e-01	-0.5109	-18.727693	0.000868	8.684165	1.471137	0.034685
1977	9.8800e-01	-0.4909	-18.534105	0.000969	9.693951	1.642200	0.038718
1978	9.8850e-01	-0.4710	-18.340516	0.000969	9.693951	1.642200	0.038718
1979	9.8900e-01	-0.4511	-18.227589	0.000565	5.654805	0.957950	0.022585
1980	9.8950e-01	-0.4305	-18.005769	0.001111	11.107652	1.881687	0.044364
1981	9.9000e-01	-0.4110	-17.844445	0.000808	8.078293	1.368500	0.032265
1982	9.9050e-01	-0.3904	-17.598426	0.001232	12.319396	2.086962	0.049204
1983	9.9100e-01	-0.3715	-17.408870	0.000949	9.491994	1.607987	0.037911
1984	9.9150e-01	-0.3506	-17.291910	0.000586	5.856762	0.992162	0.023392
1985	9.9200e-01	-0.3314	-17.070090	0.001111	11.107652	1.881687	0.044364
1986	9.9250e-01	-0.3114	-16.908766	0.000808	8.078293	1.368500	0.032265
1987	9.9300e-01	-0.2911	-16.711144	0.000990	9.895908	1.676412	0.039524
1988	9.9350e-01	-0.2711	-16.473191	0.001192	11.915482	2.018537	0.047591
1989	9.9400e-01	-0.2503	-16.291702	0.000909	9.088079	1.539562	0.036298
1990	9.9450e-01	-0.2308	-16.130378	0.000808	8.078293	1.368500	0.032265
1991	9.9500e-01	-0.2112	-15.944855	0.000929	9.290036	1.573775	0.037105
1992	9.9550e-01	-0.1913	-15.714969	0.001151	11.511567	1.950112	0.045977
1993	9.9600e-01	-0.1714	-15.537512	0.000889	8.886122	1.505350	0.035491
1994	9.9650e-01	-0.1510	-15.396354	0.000707	7.068506	1.197437	0.028232
1995	9.9700e-01	-0.1308	-15.235030	0.000808	8.078293	1.368500	0.032265
1996	9.9750e-01	-0.1117	-14.944647	0.001454	14.540927	2.463300	0.058077
1997	9.9800e-01	-0.0909	-14.779290	0.000828	8.280250	1.402712	0.033071
1998	9.9850e-01	-0.0702	-14.634098	0.000727	7.270463	1.231650	0.029038
1999	9.9900e-01	-0.0506	-14.468741	0.000828	8.280250	1.402712	0.033071
2000	9.9950e-01	-0.0304	-14.259020	0.001050	10.501780	1.779050	0.041944
2001	1.0000e+00	-0.0099	-14.077531	0.001050	10.501780	1.779050	0.036298

PMax (uC/cm2):	8.27e+01
Pr (uC/cm2):	7.43e+00
-Pr (uC/cm2):	-1.35e+01
PLoss (uC/cm2):	-1.35e+01
-Vc:	-7.39e-01
C (Max-Eff) (nF):	8.28e-01
K (Eff):	1.40e+03
Vert. (+/-Pr) Shift (uC/cm2):	-3.05e+00
Offset (uC/cm2):	5.55e-01

A (Loop Area - uC/cm2·Volts):	-1.95e-02



Hysteresis Version: 5.48.1 - Radiant Technologies, Inc., 1999 - 9/12/24

