»»»»»»»»»»»»»»»»»»»»»»»»»»»»»»»»»»»» Hysteresis ««««««««««««««««««««««««««««««««««««
»»»  Executed Version:	5.48.1
»»»  Vision Version:	5.48.4 (R)
»»»  Vision Compiled:	9/18/24
»»»  Driver Version:	5.47.0
»»»  Windows Version:	Windows 8 or 8.1
»»»  Processor Information:	x86 (AMD or Intel) - 32 Processors
»»»  Tester Name:	PMF21124-494 (100V)
»»»  Tester S/N:	PMF21124-494
»»»  Internal Amp Type:	100V RevK 270k
»»»  Internal Amp S/N:	iAB2-596/K     
»»»  Execution Count:	1
»»»»»»»»»»»»»»»»»»»»»»»»»»»»»»»»»»»»»»»»»»««««««««««««««««««««««««««««««««««««««««««

Stored:	7/1/2025 - 14:52:7
Configured:	07/01/25 10:49:51 AM
Executed:	07/01/25 02:51:40 PM

»»»»»»»»»»»»»»»»»»»»»»»»»»»»»»»»»»» Sample Info ««««««««««««««««««««««««««««««««««««
Sample Name:	
Lot Name:	
Wafer Name:	
Die Row/Column:	0/0
Capacitor Number:	0
Sample Area (cm2):	1.00e-04
Sample Thickness (microns):	1.50e-01

Amplifier:	Internal

»»»»»»»»»»»»»»»»»»»»»»»»»»»»»»»»»»» Tester Info «««««««««««««««««««««««««««««««««««
Tester Name:	PMF21124-494 (100V)
Tester Serial Number:	PMF21124-494
Return Signal Amp. Level:	0.19 [Index: 3]

»»»»»»»»»»»»»»»»»»»»»»»»»»»»»»»» Hysteresis Info ««««««««««««««««««««««««««««««««««
Task Name:	Hyst-22
Volts:	10.00
Field:	666.67 (kV/cm)
DCBias:	0.00
DCField:	0.00 (kV/cm)
Hysteresis Period (ms):	2.00e+02
Preset:	Enabled
Preset Delay (ms):	1.00e+03
Profile:	Standard Bipolar

»»»»»»»»»»»»»»»»»»»»»»»»»»»»»»»»»»»»»» Data «««««««««««««««««««««««««««««««««««««««
Points:	2009

Valid Data

Point	Time (ms)	Drive Voltage	Measured Polarization (uC/cm2)	Capacitance (uF)	Normalized Capacitance (uF/cm2)	Dielectric Constant	Instantaneous Current (mA)
   1	0.0000e+00	-0.0006	13.375031	0.000790	7.904824	1.339113	0.000158
   2	9.9500e-02	0.0199	13.532479	0.000790	7.904824	1.339113	0.000158
   3	1.9900e-01	0.0394	13.649556	0.000588	5.877946	0.995751	0.000118
   4	2.9850e-01	0.0596	13.782781	0.000669	6.688697	1.133096	0.000134
   5	3.9800e-01	0.0791	13.924081	0.000709	7.094073	1.201768	0.000142
   6	4.9750e-01	0.0990	14.045195	0.000608	6.080634	1.030087	0.000122
   7	5.9700e-01	0.1185	14.190532	0.000730	7.296761	1.236105	0.000146
   8	6.9650e-01	0.1384	14.315683	0.000628	6.283322	1.064424	0.000126
   9	7.9600e-01	0.1580	14.481206	0.000831	8.310200	1.407786	0.000166
  10	8.9550e-01	0.1783	14.610394	0.000649	6.486009	1.098760	0.000130
  11	9.9500e-01	0.1986	14.739583	0.000649	6.486009	1.098760	0.000130
  12	1.0945e+00	0.2184	14.901068	0.000811	8.107512	1.373450	0.000162
  13	1.1940e+00	0.2387	15.010071	0.000547	5.472571	0.927079	0.000110
  14	1.2935e+00	0.2578	15.171556	0.000811	8.107512	1.373450	0.000162
  15	1.3930e+00	0.2776	15.260373	0.000446	4.459132	0.755397	0.000089
  16	1.4925e+00	0.2984	15.450118	0.000953	9.526326	1.613803	0.000191
  17	1.5920e+00	0.3176	15.595455	0.000730	7.296761	1.236105	0.000146
  18	1.6915e+00	0.3384	15.744829	0.000750	7.499448	1.270441	0.000150
  19	1.7910e+00	0.3579	15.837684	0.000466	4.661819	0.789734	0.000093
  20	1.8905e+00	0.3781	15.999169	0.000811	8.107512	1.373450	0.000162
  21	1.9900e+00	0.3984	16.176803	0.000892	8.918263	1.510795	0.000179
  22	2.0895e+00	0.4169	16.334251	0.000790	7.904824	1.339113	0.000158
  23	2.1890e+00	0.4372	16.459402	0.000628	6.283322	1.064424	0.000126
  24	2.2885e+00	0.4572	16.592628	0.000669	6.688697	1.133096	0.000134
  25	2.3880e+00	0.4775	16.766225	0.000872	8.715575	1.476458	0.000174
  26	2.4875e+00	0.4974	16.903487	0.000689	6.891385	1.167432	0.000138
  27	2.5870e+00	0.5177	17.036713	0.000669	6.688697	1.133096	0.000134
  28	2.6865e+00	0.5372	17.202235	0.000831	8.310200	1.407786	0.000166
  29	2.7860e+00	0.5584	17.359684	0.000790	7.904824	1.339113	0.000158
  30	2.8855e+00	0.5771	17.513095	0.000770	7.702136	1.304777	0.000154
  31	2.9850e+00	0.5967	17.626135	0.000568	5.675258	0.961415	0.000114
  32	3.0845e+00	0.6169	17.815880	0.000953	9.526326	1.613803	0.000191
  33	3.1840e+00	0.6380	17.936994	0.000608	6.080634	1.030087	0.000122
  34	3.2835e+00	0.6571	18.114628	0.000892	8.918263	1.510795	0.000179
  35	3.3830e+00	0.6769	18.251891	0.000689	6.891385	1.167432	0.000138
  36	3.4825e+00	0.6970	18.433562	0.000912	9.120951	1.545131	0.000183
  37	3.5820e+00	0.7162	18.570824	0.000689	6.891385	1.167432	0.000138
  38	3.6815e+00	0.7354	18.724236	0.000770	7.702136	1.304777	0.000154
  39	3.7810e+00	0.7565	18.889758	0.000831	8.310200	1.407786	0.000166
  40	3.8805e+00	0.7745	19.014909	0.000628	6.283322	1.064424	0.000126
  41	3.9800e+00	0.7954	19.172358	0.000790	7.904824	1.339113	0.000158
  42	4.0795e+00	0.8157	19.321732	0.000750	7.499448	1.270441	0.000150
  43	4.1790e+00	0.8371	19.487254	0.000831	8.310200	1.407786	0.000166
  44	4.2785e+00	0.8553	19.612405	0.000628	6.283322	1.064424	0.000126
  45	4.3780e+00	0.8759	19.781965	0.000851	8.512887	1.442122	0.000170
  46	4.4775e+00	0.8959	19.903079	0.000608	6.080634	1.030087	0.000122
  47	4.5770e+00	0.9155	20.056490	0.000770	7.702136	1.304777	0.000154
  48	4.6765e+00	0.9350	20.262384	0.001034	10.337078	1.751148	0.000207
  49	4.7760e+00	0.9556	20.391573	0.000649	6.486009	1.098760	0.000130
  50	4.8755e+00	0.9753	20.561132	0.000851	8.512887	1.442122	0.000170
  51	4.9750e+00	0.9959	20.662061	0.000507	5.067195	0.858406	0.000101
  52	5.0745e+00	1.0147	20.847769	0.000932	9.323639	1.579467	0.000187
  53	5.1740e+00	1.0357	20.968883	0.000608	6.080634	1.030087	0.000122
  54	5.2735e+00	1.0561	21.178814	0.001054	10.539765	1.785485	0.000211
  55	5.3730e+00	1.0751	21.283780	0.000527	5.269883	0.892742	0.000105
  56	5.4725e+00	1.0954	21.453339	0.000851	8.512887	1.442122	0.000170
  57	5.5720e+00	1.1151	21.667308	0.001074	10.742453	1.819821	0.000215
  58	5.6715e+00	1.1348	21.788422	0.000608	6.080634	1.030087	0.000122
  59	5.7710e+00	1.1561	21.941833	0.000770	7.702136	1.304777	0.000154
  60	5.8705e+00	1.1748	22.099281	0.000790	7.904824	1.339113	0.000158
  61	5.9700e+00	1.1956	22.208284	0.000547	5.472571	0.927079	0.000110
  62	6.0695e+00	1.2145	22.385918	0.000892	8.918263	1.510795	0.000179
  63	6.1690e+00	1.2357	22.555477	0.000851	8.512887	1.442122	0.000170
  64	6.2685e+00	1.2547	22.712926	0.000790	7.904824	1.339113	0.000158
  65	6.3680e+00	1.2746	22.878448	0.000831	8.310200	1.407786	0.000166
  66	6.4675e+00	1.2939	23.011674	0.000669	6.688697	1.133096	0.000134
  67	6.5670e+00	1.3134	23.177196	0.000831	8.310200	1.407786	0.000166
  68	6.6665e+00	1.3342	23.322533	0.000730	7.296761	1.236105	0.000146
  69	6.7660e+00	1.3544	23.496130	0.000872	8.715575	1.476458	0.000174
  70	6.8655e+00	1.3734	23.641467	0.000730	7.296761	1.236105	0.000146
  71	6.9650e+00	1.3937	23.782767	0.000709	7.094073	1.201768	0.000142
  72	7.0645e+00	1.4129	23.968475	0.000932	9.323639	1.579467	0.000187
  73	7.1640e+00	1.4326	24.117849	0.000750	7.499448	1.270441	0.000150
  74	7.2635e+00	1.4523	24.299520	0.000912	9.120951	1.545131	0.000183
  75	7.3630e+00	1.4730	24.452931	0.000770	7.702136	1.304777	0.000154
  76	7.4625e+00	1.4920	24.618454	0.000831	8.310200	1.407786	0.000166
  77	7.5620e+00	1.5133	24.767828	0.000750	7.499448	1.270441	0.000150
  78	7.6615e+00	1.5318	24.905090	0.000689	6.891385	1.167432	0.000138
  79	7.7610e+00	1.5520	25.066576	0.000811	8.107512	1.373450	0.000162
  80	7.8605e+00	1.5724	25.215950	0.000750	7.499448	1.270441	0.000150
  81	7.9600e+00	1.5927	25.405695	0.000953	9.526326	1.613803	0.000191
  82	8.0595e+00	1.6129	25.563143	0.000790	7.904824	1.339113	0.000158
  83	8.1590e+00	1.6332	25.672146	0.000547	5.472571	0.927079	0.000110
  84	8.2585e+00	1.6516	25.861892	0.000953	9.526326	1.613803	0.000191
  85	8.3580e+00	1.6724	26.039526	0.000892	8.918263	1.510795	0.000179
  86	8.4575e+00	1.6920	26.192937	0.000770	7.702136	1.304777	0.000154
  87	8.5570e+00	1.7131	26.394793	0.001013	10.134390	1.716812	0.000203
  88	8.6565e+00	1.7315	26.536093	0.000709	7.094073	1.201768	0.000142
  89	8.7560e+00	1.7519	26.689504	0.000770	7.702136	1.304777	0.000154
  90	8.8555e+00	1.7725	26.826767	0.000689	6.891385	1.167432	0.000138
  91	8.9550e+00	1.7927	27.016512	0.000953	9.526326	1.613803	0.000191
  92	9.0545e+00	1.8118	27.137626	0.000608	6.080634	1.030087	0.000122
  93	9.1540e+00	1.8324	27.295075	0.000790	7.904824	1.339113	0.000158
  94	9.2535e+00	1.8517	27.448486	0.000770	7.702136	1.304777	0.000154
  95	9.3530e+00	1.8716	27.646306	0.000993	9.931702	1.682476	0.000199
  96	9.4525e+00	1.8914	27.803754	0.000790	7.904824	1.339113	0.000158
  97	9.5520e+00	1.9124	27.993499	0.000953	9.526326	1.613803	0.000191
  98	9.6515e+00	1.9311	28.102502	0.000547	5.472571	0.927079	0.000110
  99	9.7510e+00	1.9524	28.296284	0.000973	9.729014	1.648140	0.000195
 100	9.8505e+00	1.9720	28.433547	0.000689	6.891385	1.167432	0.000138
 101	9.9500e+00	1.9913	28.611181	0.000892	8.918263	1.510795	0.000179
 102	1.0050e+01	2.0107	28.772666	0.000811	8.107512	1.373450	0.000162
 103	1.0149e+01	2.0306	28.934152	0.000811	8.107512	1.373450	0.000162
 104	1.0248e+01	2.0512	29.059303	0.000628	6.283322	1.064424	0.000126
 105	1.0348e+01	2.0712	29.253086	0.000973	9.729014	1.648140	0.000195
 106	1.0447e+01	2.0901	29.394385	0.000709	7.094073	1.201768	0.000142
 107	1.0547e+01	2.1110	29.555871	0.000811	8.107512	1.373450	0.000162
 108	1.0646e+01	2.1312	29.717356	0.000811	8.107512	1.373450	0.000162
 109	1.0746e+01	2.1510	29.842507	0.000628	6.283322	1.064424	0.000126
 110	1.0845e+01	2.1698	30.020141	0.000892	8.918263	1.510795	0.000179
 111	1.0945e+01	2.1909	30.165478	0.000730	7.296761	1.236105	0.000146
 112	1.1044e+01	2.2101	30.331001	0.000831	8.310200	1.407786	0.000166
 113	1.1144e+01	2.2300	30.492486	0.000811	8.107512	1.373450	0.000162
 114	1.1243e+01	2.2503	30.617637	0.000628	6.283322	1.064424	0.000126
 115	1.1343e+01	2.2698	30.803346	0.000932	9.323639	1.579467	0.000187
 116	1.1443e+01	2.2900	30.952720	0.000750	7.499448	1.270441	0.000150
 117	1.1542e+01	2.3095	31.110168	0.000790	7.904824	1.339113	0.000158
 118	1.1642e+01	2.3301	31.259542	0.000750	7.499448	1.270441	0.000150
 119	1.1741e+01	2.3502	31.445250	0.000932	9.323639	1.579467	0.000187
 120	1.1841e+01	2.3700	31.574439	0.000649	6.486009	1.098760	0.000130
 121	1.1940e+01	2.3899	31.735924	0.000811	8.107512	1.373450	0.000162
 122	1.2040e+01	2.4100	31.877224	0.000709	7.094073	1.201768	0.000142
 123	1.2139e+01	2.4292	32.062932	0.000932	9.323639	1.579467	0.000187
 124	1.2239e+01	2.4493	32.264789	0.001013	10.134390	1.716812	0.000203
 125	1.2338e+01	2.4686	32.369754	0.000527	5.269883	0.892742	0.000105
 126	1.2438e+01	2.4901	32.486831	0.000588	5.877946	0.995751	0.000118
 127	1.2537e+01	2.5100	32.696762	0.001054	10.539765	1.785485	0.000211
 128	1.2636e+01	2.5291	32.838062	0.000709	7.094073	1.201768	0.000142
 129	1.2736e+01	2.5493	32.999548	0.000811	8.107512	1.373450	0.000162
 130	1.2835e+01	2.5695	33.148922	0.000750	7.499448	1.270441	0.000150
 131	1.2935e+01	2.5879	33.282147	0.000669	6.688697	1.133096	0.000134
 132	1.3034e+01	2.6072	33.463818	0.000912	9.120951	1.545131	0.000183
 133	1.3134e+01	2.6288	33.633378	0.000851	8.512887	1.442122	0.000170
 134	1.3233e+01	2.6485	33.798900	0.000831	8.310200	1.407786	0.000166
 135	1.3333e+01	2.6687	33.932126	0.000669	6.688697	1.133096	0.000134
 136	1.3432e+01	2.6879	34.085537	0.000770	7.702136	1.304777	0.000154
 137	1.3532e+01	2.7087	34.255097	0.000851	8.512887	1.442122	0.000170
 138	1.3632e+01	2.7286	34.412545	0.000790	7.904824	1.339113	0.000158
 139	1.3731e+01	2.7470	34.582105	0.000851	8.512887	1.442122	0.000170
 140	1.3831e+01	2.7680	34.711293	0.000649	6.486009	1.098760	0.000130
 141	1.3930e+01	2.7879	34.864704	0.000770	7.702136	1.304777	0.000154
 142	1.4030e+01	2.8085	35.042338	0.000892	8.918263	1.510795	0.000179
 143	1.4129e+01	2.8270	35.215935	0.000872	8.715575	1.476458	0.000174
 144	1.4229e+01	2.8481	35.361272	0.000730	7.296761	1.236105	0.000146
 145	1.4328e+01	2.8681	35.514683	0.000770	7.702136	1.304777	0.000154
 146	1.4428e+01	2.8872	35.635797	0.000608	6.080634	1.030087	0.000122
 147	1.4527e+01	2.9073	35.793245	0.000790	7.904824	1.339113	0.000158
 148	1.4627e+01	2.9285	35.978954	0.000932	9.323639	1.579467	0.000187
 149	1.4726e+01	2.9472	36.120253	0.000709	7.094073	1.201768	0.000142
 150	1.4825e+01	2.9671	36.257516	0.000689	6.891385	1.167432	0.000138
 151	1.4925e+01	2.9850	36.419001	0.000811	8.107512	1.373450	0.000162
 152	1.5024e+01	3.0071	36.564338	0.000730	7.296761	1.236105	0.000146
 153	1.5124e+01	3.0275	36.725824	0.000811	8.107512	1.373450	0.000162
 154	1.5223e+01	3.0475	36.927681	0.001013	10.134390	1.716812	0.000203
 155	1.5323e+01	3.0660	37.032646	0.000527	5.269883	0.892742	0.000105
 156	1.5422e+01	3.0869	37.186057	0.000770	7.702136	1.304777	0.000154
 157	1.5522e+01	3.1070	37.355617	0.000851	8.512887	1.442122	0.000170
 158	1.5621e+01	3.1266	37.537288	0.000912	9.120951	1.545131	0.000183
 159	1.5721e+01	3.1476	37.690699	0.000770	7.702136	1.304777	0.000154
 160	1.5820e+01	3.1670	37.783553	0.000466	4.661819	0.789734	0.000093
 161	1.5920e+01	3.1864	37.961187	0.000892	8.918263	1.510795	0.000179
 162	1.6020e+01	3.2063	38.122673	0.000811	8.107512	1.373450	0.000162
 163	1.6119e+01	3.2266	38.316455	0.000973	9.729014	1.648140	0.000195
 164	1.6218e+01	3.2471	38.445644	0.000649	6.486009	1.098760	0.000130
 165	1.6318e+01	3.2661	38.590981	0.000730	7.296761	1.236105	0.000146
 166	1.6418e+01	3.2859	38.724206	0.000669	6.688697	1.133096	0.000134
 167	1.6517e+01	3.3060	38.905877	0.000912	9.120951	1.545131	0.000183
 168	1.6616e+01	3.3257	39.059288	0.000770	7.702136	1.304777	0.000154
 169	1.6716e+01	3.3463	39.200588	0.000709	7.094073	1.201768	0.000142
 170	1.6816e+01	3.3665	39.325739	0.000628	6.283322	1.064424	0.000126
 171	1.6915e+01	3.3862	39.527596	0.001013	10.134390	1.716812	0.000203
 172	1.7015e+01	3.4051	39.648710	0.000608	6.080634	1.030087	0.000122
 173	1.7114e+01	3.4261	39.777898	0.000649	6.486009	1.098760	0.000130
 174	1.7213e+01	3.4460	39.939384	0.000811	8.107512	1.373450	0.000162
 175	1.7313e+01	3.4649	40.117018	0.000892	8.918263	1.510795	0.000179
 176	1.7413e+01	3.4879	40.274466	0.000790	7.904824	1.339113	0.000158
 177	1.7512e+01	3.5058	40.431914	0.000790	7.904824	1.339113	0.000158
 178	1.7611e+01	3.5257	40.561103	0.000649	6.486009	1.098760	0.000130
 179	1.7711e+01	3.5454	40.698365	0.000689	6.891385	1.167432	0.000138
 180	1.7811e+01	3.5653	40.871962	0.000872	8.715575	1.476458	0.000174
 181	1.7910e+01	3.5854	40.980965	0.000547	5.472571	0.927079	0.000110
 182	1.8009e+01	3.6051	41.146487	0.000831	8.310200	1.407786	0.000166
 183	1.8109e+01	3.6250	41.279713	0.000669	6.688697	1.133096	0.000134
 184	1.8209e+01	3.6445	41.445235	0.000831	8.310200	1.407786	0.000166
 185	1.8308e+01	3.6656	41.574424	0.000649	6.486009	1.098760	0.000130
 186	1.8407e+01	3.6852	41.723798	0.000750	7.499448	1.270441	0.000150
 187	1.8507e+01	3.7041	41.905469	0.000912	9.120951	1.545131	0.000183
 188	1.8607e+01	3.7254	42.050806	0.000730	7.296761	1.236105	0.000146
 189	1.8706e+01	3.7446	42.188068	0.000689	6.891385	1.167432	0.000138
 190	1.8805e+01	3.7657	42.377814	0.000953	9.526326	1.613803	0.000191
 191	1.8905e+01	3.7844	42.515076	0.000689	6.891385	1.167432	0.000138
 192	1.9005e+01	3.8033	42.664450	0.000750	7.499448	1.270441	0.000150
 193	1.9104e+01	3.8238	42.838047	0.000872	8.715575	1.476458	0.000174
 194	1.9203e+01	3.8435	42.934939	0.000486	4.864507	0.824070	0.000097
 195	1.9303e+01	3.8634	43.124684	0.000953	9.526326	1.613803	0.000191
 196	1.9402e+01	3.8831	43.237724	0.000568	5.675258	0.961415	0.000114
 197	1.9502e+01	3.9048	43.383061	0.000730	7.296761	1.236105	0.000146
 198	1.9602e+01	3.9233	43.592992	0.001054	10.539765	1.785485	0.000211
 199	1.9701e+01	3.9430	43.738329	0.000730	7.296761	1.236105	0.000146
 200	1.9800e+01	3.9635	43.839257	0.000507	5.067195	0.858406	0.000101
 201	1.9900e+01	3.9834	44.029002	0.000953	9.526326	1.613803	0.000191
 202	2.0000e+01	4.0029	44.154154	0.000628	6.283322	1.064424	0.000126
 203	2.0099e+01	4.0229	44.295453	0.000709	7.094073	1.201768	0.000142
 204	2.0198e+01	4.0432	44.477124	0.000912	9.120951	1.545131	0.000183
 205	2.0298e+01	4.0636	44.602276	0.000628	6.283322	1.064424	0.000126
 206	2.0398e+01	4.0827	44.743575	0.000709	7.094073	1.201768	0.000142
 207	2.0497e+01	4.1027	44.941395	0.000993	9.931702	1.682476	0.000199
 208	2.0596e+01	4.1219	45.034249	0.000466	4.661819	0.789734	0.000093
 209	2.0696e+01	4.1421	45.183623	0.000750	7.499448	1.270441	0.000150
 210	2.0796e+01	4.1621	45.373369	0.000953	9.526326	1.613803	0.000191
 211	2.0895e+01	4.1821	45.498520	0.000628	6.283322	1.064424	0.000126
 212	2.0994e+01	4.2023	45.655968	0.000790	7.904824	1.339113	0.000158
 213	2.1094e+01	4.2216	45.793231	0.000689	6.891385	1.167432	0.000138
 214	2.1194e+01	4.2426	45.950679	0.000790	7.904824	1.339113	0.000158
 215	2.1293e+01	4.2626	46.075830	0.000628	6.283322	1.064424	0.000126
 216	2.1392e+01	4.2823	46.221167	0.000730	7.296761	1.236105	0.000146
 217	2.1492e+01	4.3024	46.374578	0.000770	7.702136	1.304777	0.000154
 218	2.1591e+01	4.3215	46.479544	0.000527	5.269883	0.892742	0.000105
 219	2.1691e+01	4.3429	46.641029	0.000811	8.107512	1.373450	0.000162
 220	2.1791e+01	4.3615	46.814626	0.000872	8.715575	1.476458	0.000174
 221	2.1890e+01	4.3816	46.943814	0.000649	6.486009	1.098760	0.000130
 222	2.1989e+01	4.4022	47.081077	0.000689	6.891385	1.167432	0.000138
 223	2.2089e+01	4.4215	47.226414	0.000730	7.296761	1.236105	0.000146
 224	2.2189e+01	4.4411	47.387899	0.000811	8.107512	1.373450	0.000162
 225	2.2288e+01	4.4614	47.521125	0.000669	6.688697	1.133096	0.000134
 226	2.2387e+01	4.4897	47.638202	0.000588	5.877946	0.995751	0.000118
 227	2.2487e+01	4.5016	47.775464	0.000689	6.891385	1.167432	0.000138
 228	2.2587e+01	4.5215	47.973284	0.000993	9.931702	1.682476	0.000199
 229	2.2686e+01	4.5409	48.094398	0.000608	6.080634	1.030087	0.000122
 230	2.2785e+01	4.5617	48.235698	0.000709	7.094073	1.201768	0.000142
 231	2.2885e+01	4.5805	48.385072	0.000750	7.499448	1.270441	0.000150
 232	2.2985e+01	4.6006	48.550594	0.000831	8.310200	1.407786	0.000166
 233	2.3084e+01	4.6214	48.667671	0.000588	5.877946	0.995751	0.000118
 234	2.3183e+01	4.6403	48.800897	0.000669	6.688697	1.133096	0.000134
 235	2.3283e+01	4.6597	48.942197	0.000709	7.094073	1.201768	0.000142
 236	2.3383e+01	4.6803	49.079459	0.000689	6.891385	1.167432	0.000138
 237	2.3482e+01	4.7004	49.249019	0.000851	8.512887	1.442122	0.000170
 238	2.3581e+01	4.7213	49.366096	0.000588	5.877946	0.995751	0.000118
 239	2.3681e+01	4.7412	49.511433	0.000730	7.296761	1.236105	0.000146
 240	2.3780e+01	4.7601	49.624472	0.000568	5.675258	0.961415	0.000114
 241	2.3880e+01	4.7807	49.789995	0.000831	8.310200	1.407786	0.000166
 242	2.3980e+01	4.7995	49.939369	0.000750	7.499448	1.270441	0.000150
 243	2.4079e+01	4.8199	50.056446	0.000588	5.877946	0.995751	0.000118
 244	2.4178e+01	4.8403	50.189671	0.000669	6.688697	1.133096	0.000134
 245	2.4278e+01	4.8599	50.318860	0.000649	6.486009	1.098760	0.000130
 246	2.4378e+01	4.8801	50.480345	0.000811	8.107512	1.373450	0.000162
 247	2.4477e+01	4.9010	50.657979	0.000892	8.918263	1.510795	0.000179
 248	2.4576e+01	4.9191	50.734685	0.000385	3.851068	0.652389	0.000077
 249	2.4676e+01	4.9394	50.912319	0.000892	8.918263	1.510795	0.000179
 250	2.4776e+01	4.9596	51.061693	0.000750	7.499448	1.270441	0.000150
 251	2.4875e+01	4.9798	51.207030	0.000730	7.296761	1.236105	0.000146
 252	2.4974e+01	4.9996	51.299884	0.000466	4.661819	0.789734	0.000093
 253	2.5074e+01	5.0185	51.485592	0.000932	9.323639	1.579467	0.000187
 254	2.5174e+01	5.0391	51.634966	0.000750	7.499448	1.270441	0.000150
 255	2.5273e+01	5.0588	51.756080	0.000608	6.080634	1.030087	0.000122
 256	2.5372e+01	5.0793	51.869120	0.000568	5.675258	0.961415	0.000114
 257	2.5472e+01	5.1005	52.050791	0.000912	9.120951	1.545131	0.000183
 258	2.5572e+01	5.1184	52.175942	0.000628	6.283322	1.064424	0.000126
 259	2.5671e+01	5.1402	52.297056	0.000608	6.080634	1.030087	0.000122
 260	2.5770e+01	5.1574	52.426245	0.000649	6.486009	1.098760	0.000130
 261	2.5870e+01	5.1775	52.539284	0.000568	5.675258	0.961415	0.000114
 262	2.5970e+01	5.1983	52.704807	0.000831	8.310200	1.407786	0.000166
 263	2.6069e+01	5.2184	52.817847	0.000568	5.675258	0.961415	0.000114
 264	2.6169e+01	5.2370	53.011629	0.000973	9.729014	1.648140	0.000195
 265	2.6268e+01	5.2589	53.177152	0.000831	8.310200	1.407786	0.000166
 266	2.6367e+01	5.2774	53.278080	0.000507	5.067195	0.858406	0.000101
 267	2.6467e+01	5.2987	53.407269	0.000649	6.486009	1.098760	0.000130
 268	2.6567e+01	5.3182	53.572791	0.000831	8.310200	1.407786	0.000166
 269	2.6666e+01	5.3382	53.657571	0.000426	4.256444	0.721061	0.000085
 270	2.6765e+01	5.3573	53.806945	0.000750	7.499448	1.270441	0.000150
 271	2.6865e+01	5.3777	53.907874	0.000507	5.067195	0.858406	0.000101
 272	2.6965e+01	5.3971	54.097619	0.000953	9.526326	1.613803	0.000191
 273	2.7064e+01	5.4174	54.214696	0.000588	5.877946	0.995751	0.000118
 274	2.7163e+01	5.4371	54.347921	0.000669	6.688697	1.133096	0.000134
 275	2.7263e+01	5.4569	54.509407	0.000811	8.107512	1.373450	0.000162
 276	2.7363e+01	5.4775	54.606298	0.000486	4.864507	0.824070	0.000097
 277	2.7462e+01	5.4967	54.767783	0.000811	8.107512	1.373450	0.000162
 278	2.7561e+01	5.5167	54.848526	0.000405	4.053756	0.686725	0.000081
 279	2.7661e+01	5.5374	54.997900	0.000750	7.499448	1.270441	0.000150
 280	2.7761e+01	5.5567	55.159386	0.000811	8.107512	1.373450	0.000162
 281	2.7860e+01	5.5770	55.268388	0.000547	5.472571	0.927079	0.000110
 282	2.7959e+01	5.5972	55.409688	0.000709	7.094073	1.201768	0.000142
 283	2.8059e+01	5.6167	55.510616	0.000507	5.067195	0.858406	0.000101
 284	2.8159e+01	5.6371	55.700362	0.000953	9.526326	1.613803	0.000191
 285	2.8258e+01	5.6568	55.833587	0.000669	6.688697	1.133096	0.000134
 286	2.8358e+01	5.6762	55.922404	0.000446	4.459132	0.755397	0.000089
 287	2.8457e+01	5.6960	56.055630	0.000669	6.688697	1.133096	0.000134
 288	2.8556e+01	5.7171	56.192892	0.000689	6.891385	1.167432	0.000138
 289	2.8656e+01	5.7369	56.301895	0.000547	5.472571	0.927079	0.000110
 290	2.8756e+01	5.7557	56.435120	0.000669	6.688697	1.133096	0.000134
 291	2.8855e+01	5.7769	56.572383	0.000689	6.891385	1.167432	0.000138
 292	2.8954e+01	5.7960	56.721757	0.000750	7.499448	1.270441	0.000150
 293	2.9054e+01	5.8158	56.782314	0.000304	3.040317	0.515044	0.000061
 294	2.9154e+01	5.8355	56.951874	0.000851	8.512887	1.442122	0.000170
 295	2.9253e+01	5.8556	57.072988	0.000608	6.080634	1.030087	0.000122
 296	2.9352e+01	5.8758	57.222362	0.000750	7.499448	1.270441	0.000150
 297	2.9452e+01	5.8955	57.315216	0.000466	4.661819	0.789734	0.000093
 298	2.9552e+01	5.9153	57.492850	0.000892	8.918263	1.510795	0.000179
 299	2.9651e+01	5.9353	57.622038	0.000649	6.486009	1.098760	0.000130
 300	2.9750e+01	5.9554	57.722967	0.000507	5.067195	0.858406	0.000101
 301	2.9850e+01	5.9754	57.864267	0.000709	7.094073	1.201768	0.000142
 302	2.9950e+01	5.9956	57.993455	0.000649	6.486009	1.098760	0.000130
 303	3.0049e+01	6.0149	58.122643	0.000649	6.486009	1.098760	0.000130
 304	3.0148e+01	6.0354	58.223572	0.000507	5.067195	0.858406	0.000101
 305	3.0248e+01	6.0554	58.332574	0.000547	5.472571	0.927079	0.000110
 306	3.0348e+01	6.0748	58.534431	0.001013	10.134390	1.716812	0.000203
 307	3.0447e+01	6.0957	58.611137	0.000385	3.851068	0.652389	0.000077
 308	3.0547e+01	6.1144	58.748399	0.000689	6.891385	1.167432	0.000138
 309	3.0646e+01	6.1352	58.873550	0.000628	6.283322	1.064424	0.000126
 310	3.0745e+01	6.1549	58.990627	0.000588	5.877946	0.995751	0.000118
 311	3.0845e+01	6.1742	59.152113	0.000811	8.107512	1.373450	0.000162
 312	3.0945e+01	6.1945	59.281301	0.000649	6.486009	1.098760	0.000130
 313	3.1044e+01	6.2148	59.394341	0.000568	5.675258	0.961415	0.000114
 314	3.1143e+01	6.2344	59.527566	0.000669	6.688697	1.133096	0.000134
 315	3.1243e+01	6.2543	59.652718	0.000628	6.283322	1.064424	0.000126
 316	3.1343e+01	6.2747	59.761720	0.000547	5.472571	0.927079	0.000110
 317	3.1442e+01	6.2939	59.898983	0.000689	6.891385	1.167432	0.000138
 318	3.1541e+01	6.3137	59.987800	0.000446	4.459132	0.755397	0.000089
 319	3.1641e+01	6.3335	60.145248	0.000790	7.904824	1.339113	0.000158
 320	3.1741e+01	6.3531	60.278474	0.000669	6.688697	1.133096	0.000134
 321	3.1840e+01	6.3731	60.403625	0.000628	6.283322	1.064424	0.000126
 322	3.1939e+01	6.3935	60.496479	0.000466	4.661819	0.789734	0.000093
 323	3.2039e+01	6.4122	60.649890	0.000770	7.702136	1.304777	0.000154
 324	3.2139e+01	6.4330	60.799264	0.000750	7.499448	1.270441	0.000150
 325	3.2238e+01	6.4529	60.908267	0.000547	5.472571	0.927079	0.000110
 326	3.2337e+01	6.4721	61.029381	0.000608	6.080634	1.030087	0.000122
 327	3.2437e+01	6.4924	61.186829	0.000790	7.904824	1.339113	0.000158
 328	3.2536e+01	6.5126	61.303906	0.000588	5.877946	0.995751	0.000118
 329	3.2636e+01	6.5334	61.388686	0.000426	4.256444	0.721061	0.000085
 330	3.2736e+01	6.5533	61.489614	0.000507	5.067195	0.858406	0.000101
 331	3.2835e+01	6.5731	61.663211	0.000872	8.715575	1.476458	0.000174
 332	3.2934e+01	6.5929	61.800474	0.000689	6.891385	1.167432	0.000138
 333	3.3034e+01	6.6125	61.889291	0.000446	4.459132	0.755397	0.000089
 334	3.3133e+01	6.6319	61.990219	0.000507	5.067195	0.858406	0.000101
 335	3.3233e+01	6.6519	62.151705	0.000811	8.107512	1.373450	0.000162
 336	3.3333e+01	6.6724	62.244559	0.000466	4.661819	0.789734	0.000093
 337	3.3432e+01	6.6918	62.385859	0.000709	7.094073	1.201768	0.000142
 338	3.3532e+01	6.7113	62.486787	0.000507	5.067195	0.858406	0.000101
 339	3.3631e+01	6.7322	62.624050	0.000689	6.891385	1.167432	0.000138
 340	3.3730e+01	6.7518	62.737089	0.000568	5.675258	0.961415	0.000114
 341	3.3830e+01	6.7729	62.898575	0.000811	8.107512	1.373450	0.000162
 342	3.3929e+01	6.7912	62.991429	0.000466	4.661819	0.789734	0.000093
 343	3.4029e+01	6.8121	63.088320	0.000486	4.864507	0.824070	0.000097
 344	3.4129e+01	6.8322	63.249806	0.000811	8.107512	1.373450	0.000162
 345	3.4228e+01	6.8523	63.330548	0.000405	4.053756	0.686725	0.000081
 346	3.4328e+01	6.8712	63.487997	0.000790	7.904824	1.339113	0.000158
 347	3.4427e+01	6.8903	63.540479	0.000263	2.634941	0.446371	0.000053
 348	3.4526e+01	6.9112	63.726188	0.000932	9.323639	1.579467	0.000187
 349	3.4626e+01	6.9305	63.823079	0.000486	4.864507	0.824070	0.000097
 350	3.4725e+01	6.9512	63.952267	0.000649	6.486009	1.098760	0.000130
 351	3.4825e+01	6.9707	64.061270	0.000547	5.472571	0.927079	0.000110
 352	3.4925e+01	6.9900	64.170273	0.000547	5.472571	0.927079	0.000110
 353	3.5024e+01	7.0101	64.315609	0.000730	7.296761	1.236105	0.000146
 354	3.5123e+01	7.0312	64.448835	0.000669	6.688697	1.133096	0.000134
 355	3.5223e+01	7.0504	64.509392	0.000304	3.040317	0.515044	0.000061
 356	3.5322e+01	7.0699	64.687026	0.000892	8.918263	1.510795	0.000179
 357	3.5422e+01	7.0908	64.791991	0.000527	5.269883	0.892742	0.000105
 358	3.5522e+01	7.1112	64.929254	0.000689	6.891385	1.167432	0.000138
 359	3.5621e+01	7.1294	65.062480	0.000669	6.688697	1.133096	0.000134
 360	3.5721e+01	7.1502	65.155334	0.000466	4.661819	0.789734	0.000093
 361	3.5820e+01	7.1705	65.292596	0.000689	6.891385	1.167432	0.000138
 362	3.5919e+01	7.1905	65.417747	0.000628	6.283322	1.064424	0.000126
 363	3.6019e+01	7.2100	65.563084	0.000730	7.296761	1.236105	0.000146
 364	3.6118e+01	7.2297	65.651901	0.000446	4.459132	0.755397	0.000089
 365	3.6218e+01	7.2500	65.809350	0.000790	7.904824	1.339113	0.000158
 366	3.6318e+01	7.2697	65.934501	0.000628	6.283322	1.064424	0.000126
 367	3.6417e+01	7.2890	66.051578	0.000588	5.877946	0.995751	0.000118
 368	3.6517e+01	7.3102	66.152506	0.000507	5.067195	0.858406	0.000101
 369	3.6616e+01	7.3298	66.293806	0.000709	7.094073	1.201768	0.000142
 370	3.6715e+01	7.3498	66.374549	0.000405	4.053756	0.686725	0.000081
 371	3.6815e+01	7.3693	66.519886	0.000730	7.296761	1.236105	0.000146
 372	3.6914e+01	7.3887	66.632925	0.000568	5.675258	0.961415	0.000114
 373	3.7014e+01	7.4083	66.766151	0.000669	6.688697	1.133096	0.000134
 374	3.7114e+01	7.4282	66.895339	0.000649	6.486009	1.098760	0.000130
 375	3.7213e+01	7.4487	66.959933	0.000324	3.243005	0.549380	0.000065
 376	3.7313e+01	7.4696	67.101233	0.000709	7.094073	1.201768	0.000142
 377	3.7412e+01	7.4883	67.250607	0.000750	7.499448	1.270441	0.000150
 378	3.7511e+01	7.5083	67.335387	0.000426	4.256444	0.721061	0.000085
 379	3.7611e+01	7.5293	67.436315	0.000507	5.067195	0.858406	0.000101
 380	3.7711e+01	7.5489	67.581652	0.000730	7.296761	1.236105	0.000146
 381	3.7810e+01	7.5686	67.747175	0.000831	8.310200	1.407786	0.000166
 382	3.7910e+01	7.5884	67.827918	0.000405	4.053756	0.686725	0.000081
 383	3.8009e+01	7.6074	67.961143	0.000669	6.688697	1.133096	0.000134
 384	3.8108e+01	7.6276	68.049960	0.000446	4.459132	0.755397	0.000089
 385	3.8208e+01	7.6490	68.171074	0.000608	6.080634	1.030087	0.000122
 386	3.8307e+01	7.6673	68.272002	0.000507	5.067195	0.858406	0.000101
 387	3.8407e+01	7.6877	68.437525	0.000831	8.310200	1.407786	0.000166
 388	3.8507e+01	7.7080	68.522305	0.000426	4.256444	0.721061	0.000085
 389	3.8606e+01	7.7283	68.651493	0.000649	6.486009	1.098760	0.000130
 390	3.8706e+01	7.7477	68.784719	0.000669	6.688697	1.133096	0.000134
 391	3.8805e+01	7.7677	68.905833	0.000608	6.080634	1.030087	0.000122
 392	3.8904e+01	7.7871	69.014835	0.000547	5.472571	0.927079	0.000110
 393	3.9004e+01	7.8071	69.099615	0.000426	4.256444	0.721061	0.000085
 394	3.9103e+01	7.8265	69.232841	0.000669	6.688697	1.133096	0.000134
 395	3.9203e+01	7.8467	69.349918	0.000588	5.877946	0.995751	0.000118
 396	3.9303e+01	7.8677	69.450846	0.000507	5.067195	0.858406	0.000101
 397	3.9402e+01	7.8870	69.584072	0.000669	6.688697	1.133096	0.000134
 398	3.9502e+01	7.9063	69.685000	0.000507	5.067195	0.858406	0.000101
 399	3.9601e+01	7.9267	69.822263	0.000689	6.891385	1.167432	0.000138
 400	3.9700e+01	7.9461	69.878782	0.000284	2.837629	0.480707	0.000057
 401	3.9800e+01	7.9660	70.056416	0.000892	8.918263	1.510795	0.000179
 402	3.9900e+01	7.9859	70.165419	0.000547	5.472571	0.927079	0.000110
 403	3.9999e+01	8.0067	70.250199	0.000426	4.256444	0.721061	0.000085
 404	4.0099e+01	8.0266	70.395536	0.000730	7.296761	1.236105	0.000146
 405	4.0198e+01	8.0474	70.516650	0.000608	6.080634	1.030087	0.000122
 406	4.0297e+01	8.0668	70.609504	0.000466	4.661819	0.789734	0.000093
 407	4.0397e+01	8.0865	70.714470	0.000527	5.269883	0.892742	0.000105
 408	4.0496e+01	8.1065	70.847695	0.000669	6.688697	1.133096	0.000134
 409	4.0596e+01	8.1258	70.976883	0.000649	6.486009	1.098760	0.000130
 410	4.0696e+01	8.1463	71.077812	0.000507	5.067195	0.858406	0.000101
 411	4.0795e+01	8.1669	71.194889	0.000588	5.877946	0.995751	0.000118
 412	4.0895e+01	8.1857	71.299854	0.000527	5.269883	0.892742	0.000105
 413	4.0994e+01	8.2060	71.408857	0.000547	5.472571	0.927079	0.000110
 414	4.1093e+01	8.2249	71.558231	0.000750	7.499448	1.270441	0.000150
 415	4.1193e+01	8.2460	71.675308	0.000588	5.877946	0.995751	0.000118
 416	4.1292e+01	8.2666	71.735865	0.000304	3.040317	0.515044	0.000061
 417	4.1392e+01	8.2862	71.873128	0.000689	6.891385	1.167432	0.000138
 418	4.1492e+01	8.3057	71.986167	0.000568	5.675258	0.961415	0.000114
 419	4.1591e+01	8.3242	72.087096	0.000507	5.067195	0.858406	0.000101
 420	4.1691e+01	8.3452	72.183987	0.000486	4.864507	0.824070	0.000097
 421	4.1790e+01	8.3646	72.321250	0.000689	6.891385	1.167432	0.000138
 422	4.1889e+01	8.3855	72.450438	0.000649	6.486009	1.098760	0.000130
 423	4.1989e+01	8.4045	72.575589	0.000628	6.283322	1.064424	0.000126
 424	4.2089e+01	8.4250	72.672480	0.000486	4.864507	0.824070	0.000097
 425	4.2188e+01	8.4451	72.813780	0.000709	7.094073	1.201768	0.000142
 426	4.2288e+01	8.4650	72.870300	0.000284	2.837629	0.480707	0.000057
 427	4.2387e+01	8.4843	73.023711	0.000770	7.702136	1.304777	0.000154
 428	4.2486e+01	8.5049	73.116565	0.000466	4.661819	0.789734	0.000093
 429	4.2586e+01	8.5247	73.233642	0.000588	5.877946	0.995751	0.000118
 430	4.2685e+01	8.5447	73.322459	0.000446	4.459132	0.755397	0.000089
 431	4.2785e+01	8.5657	73.459722	0.000689	6.891385	1.167432	0.000138
 432	4.2885e+01	8.5843	73.564687	0.000527	5.269883	0.892742	0.000105
 433	4.2984e+01	8.6047	73.693876	0.000649	6.486009	1.098760	0.000130
 434	4.3084e+01	8.6248	73.835176	0.000709	7.094073	1.201768	0.000142
 435	4.3183e+01	8.6431	73.919955	0.000426	4.256444	0.721061	0.000085
 436	4.3282e+01	8.6621	74.016847	0.000486	4.864507	0.824070	0.000097
 437	4.3382e+01	8.6846	74.137961	0.000608	6.080634	1.030087	0.000122
 438	4.3481e+01	8.7033	74.242926	0.000527	5.269883	0.892742	0.000105
 439	4.3581e+01	8.7238	74.339817	0.000486	4.864507	0.824070	0.000097
 440	4.3681e+01	8.7433	74.481117	0.000709	7.094073	1.201768	0.000142
 441	4.3780e+01	8.7638	74.545711	0.000324	3.243005	0.549380	0.000065
 442	4.3880e+01	8.7833	74.695085	0.000750	7.499448	1.270441	0.000150
 443	4.3979e+01	8.8032	74.812162	0.000588	5.877946	0.995751	0.000118
 444	4.4078e+01	8.8251	74.880794	0.000345	3.445693	0.583716	0.000069
 445	4.4178e+01	8.8425	75.026131	0.000730	7.296761	1.236105	0.000146
 446	4.4278e+01	8.8613	75.114948	0.000446	4.459132	0.755397	0.000089
 447	4.4377e+01	8.8821	75.219913	0.000527	5.269883	0.892742	0.000105
 448	4.4477e+01	8.9025	75.353139	0.000669	6.688697	1.133096	0.000134
 449	4.4576e+01	8.9227	75.413696	0.000304	3.040317	0.515044	0.000061
 450	4.4675e+01	8.9420	75.530773	0.000588	5.877946	0.995751	0.000118
 451	4.4775e+01	8.9624	75.655924	0.000628	6.283322	1.064424	0.000126
 452	4.4874e+01	8.9826	75.740704	0.000426	4.256444	0.721061	0.000085
 453	4.4974e+01	9.0026	75.857781	0.000588	5.877946	0.995751	0.000118
 454	4.5074e+01	9.0216	75.974857	0.000588	5.877946	0.995751	0.000118
 455	4.5173e+01	9.0411	76.067712	0.000466	4.661819	0.789734	0.000093
 456	4.5273e+01	9.0604	76.184789	0.000588	5.877946	0.995751	0.000118
 457	4.5372e+01	9.0813	76.293791	0.000547	5.472571	0.927079	0.000110
 458	4.5471e+01	9.1016	76.386645	0.000466	4.661819	0.789734	0.000093
 459	4.5571e+01	9.1229	76.487574	0.000507	5.067195	0.858406	0.000101
 460	4.5670e+01	9.1421	76.596576	0.000547	5.472571	0.927079	0.000110
 461	4.5770e+01	9.1617	76.749988	0.000770	7.702136	1.304777	0.000154
 462	4.5870e+01	9.1810	76.826693	0.000385	3.851068	0.652389	0.000077
 463	4.5969e+01	9.2024	76.915510	0.000446	4.459132	0.755397	0.000089
 464	4.6069e+01	9.2209	77.040661	0.000628	6.283322	1.064424	0.000126
 465	4.6168e+01	9.2412	77.157738	0.000588	5.877946	0.995751	0.000118
 466	4.6267e+01	9.2609	77.214258	0.000284	2.837629	0.480707	0.000057
 467	4.6367e+01	9.2802	77.331335	0.000588	5.877946	0.995751	0.000118
 468	4.6467e+01	9.3011	77.456486	0.000628	6.283322	1.064424	0.000126
 469	4.6566e+01	9.3208	77.593749	0.000689	6.891385	1.167432	0.000138
 470	4.6666e+01	9.3408	77.718900	0.000628	6.283322	1.064424	0.000126
 471	4.6765e+01	9.3611	77.811754	0.000466	4.661819	0.789734	0.000093
 472	4.6864e+01	9.3809	77.896534	0.000426	4.256444	0.721061	0.000085
 473	4.6964e+01	9.4007	78.013611	0.000588	5.877946	0.995751	0.000118
 474	4.7063e+01	9.4205	78.086279	0.000365	3.648380	0.618052	0.000073
 475	4.7163e+01	9.4398	78.223542	0.000689	6.891385	1.167432	0.000138
 476	4.7263e+01	9.4598	78.320433	0.000486	4.864507	0.824070	0.000097
 477	4.7362e+01	9.4801	78.453659	0.000669	6.688697	1.133096	0.000134
 478	4.7462e+01	9.4995	78.538439	0.000426	4.256444	0.721061	0.000085
 479	4.7561e+01	9.5197	78.663590	0.000628	6.283322	1.064424	0.000126
 480	4.7660e+01	9.5399	78.784704	0.000608	6.080634	1.030087	0.000122
 481	4.7760e+01	9.5593	78.857372	0.000365	3.648380	0.618052	0.000073
 482	4.7859e+01	9.5801	78.974449	0.000588	5.877946	0.995751	0.000118
 483	4.7959e+01	9.5996	79.071341	0.000486	4.864507	0.824070	0.000097
 484	4.8059e+01	9.6196	79.200529	0.000649	6.486009	1.098760	0.000130
 485	4.8158e+01	9.6395	79.325680	0.000628	6.283322	1.064424	0.000126
 486	4.8258e+01	9.6594	79.406423	0.000405	4.053756	0.686725	0.000081
 487	4.8357e+01	9.6795	79.507351	0.000507	5.067195	0.858406	0.000101
 488	4.8456e+01	9.6992	79.592131	0.000426	4.256444	0.721061	0.000085
 489	4.8556e+01	9.7192	79.705171	0.000568	5.675258	0.961415	0.000114
 490	4.8656e+01	9.7379	79.806099	0.000507	5.067195	0.858406	0.000101
 491	4.8755e+01	9.7596	79.907028	0.000507	5.067195	0.858406	0.000101
 492	4.8855e+01	9.7784	80.028142	0.000608	6.080634	1.030087	0.000122
 493	4.8954e+01	9.7981	80.141182	0.000568	5.675258	0.961415	0.000114
 494	4.9053e+01	9.8183	80.217887	0.000385	3.851068	0.652389	0.000077
 495	4.9153e+01	9.8383	80.339001	0.000608	6.080634	1.030087	0.000122
 496	4.9252e+01	9.8572	80.496449	0.000790	7.904824	1.339113	0.000158
 497	4.9352e+01	9.8788	80.573155	0.000385	3.851068	0.652389	0.000077
 498	4.9452e+01	9.8975	80.674083	0.000507	5.067195	0.858406	0.000101
 499	4.9551e+01	9.9178	80.787123	0.000568	5.675258	0.961415	0.000114
 500	4.9651e+01	9.9380	80.904200	0.000588	5.877946	0.995751	0.000118
 501	4.9750e+01	9.9586	81.021277	0.000588	5.877946	0.995751	0.000118
 502	4.9849e+01	9.9775	81.089908	0.000345	3.445693	0.583716	0.000069
 503	4.9949e+01	9.9978	81.211023	0.000608	6.080634	1.030087	0.000122
 504	5.0048e+01	9.9780	81.118168	0.000466	4.661819	0.789734	-0.000093
 505	5.0148e+01	9.9576	81.085871	0.000162	1.621502	0.274690	-0.000032
 506	5.0248e+01	9.9378	80.980906	0.000527	5.269883	0.892742	-0.000105
 507	5.0347e+01	9.9179	80.892089	0.000446	4.459132	0.755397	-0.000089
 508	5.0447e+01	9.8981	80.855755	0.000182	1.824190	0.309026	-0.000037
 509	5.0546e+01	9.8779	80.766938	0.000446	4.459132	0.755397	-0.000089
 510	5.0645e+01	9.8590	80.722529	0.000223	2.229566	0.377699	-0.000045
 511	5.0745e+01	9.8391	80.617564	0.000527	5.269883	0.892742	-0.000105
 512	5.0844e+01	9.8193	80.565081	0.000263	2.634941	0.446371	-0.000053
 513	5.0944e+01	9.7998	80.488375	0.000385	3.851068	0.652389	-0.000077
 514	5.1044e+01	9.7790	80.379373	0.000547	5.472571	0.927079	-0.000110
 515	5.1143e+01	9.7584	80.326890	0.000263	2.634941	0.446371	-0.000053
 516	5.1242e+01	9.7388	80.238073	0.000446	4.459132	0.755397	-0.000089
 517	5.1342e+01	9.7192	80.161367	0.000385	3.851068	0.652389	-0.000077
 518	5.1441e+01	9.6988	80.056402	0.000527	5.269883	0.892742	-0.000105
 519	5.1541e+01	9.6790	79.987770	0.000345	3.445693	0.583716	-0.000069
 520	5.1641e+01	9.6594	79.931250	0.000284	2.837629	0.480707	-0.000057
 521	5.1740e+01	9.6396	79.858582	0.000365	3.648380	0.618052	-0.000073
 522	5.1840e+01	9.6194	79.749579	0.000547	5.472571	0.927079	-0.000110
 523	5.1939e+01	9.5988	79.660762	0.000446	4.459132	0.755397	-0.000089
 524	5.2038e+01	9.5795	79.592131	0.000345	3.445693	0.583716	-0.000069
 525	5.2138e+01	9.5588	79.511388	0.000405	4.053756	0.686725	-0.000081
 526	5.2237e+01	9.5395	79.462943	0.000243	2.432254	0.412035	-0.000049
 527	5.2337e+01	9.5215	79.382200	0.000405	4.053756	0.686725	-0.000081
 528	5.2437e+01	9.5000	79.317606	0.000324	3.243005	0.549380	-0.000065
 529	5.2536e+01	9.4800	79.228789	0.000446	4.459132	0.755397	-0.000089
 530	5.2636e+01	9.4617	79.135935	0.000466	4.661819	0.789734	-0.000093
 531	5.2735e+01	9.4409	79.071341	0.000324	3.243005	0.549380	-0.000065
 532	5.2834e+01	9.4214	78.994635	0.000385	3.851068	0.652389	-0.000077
 533	5.2934e+01	9.4010	78.897744	0.000486	4.864507	0.824070	-0.000097
 534	5.3033e+01	9.3814	78.821038	0.000385	3.851068	0.652389	-0.000077
 535	5.3133e+01	9.3610	78.748370	0.000365	3.648380	0.618052	-0.000073
 536	5.3233e+01	9.3414	78.659553	0.000446	4.459132	0.755397	-0.000089
 537	5.3332e+01	9.3216	78.578810	0.000405	4.053756	0.686725	-0.000081
 538	5.3431e+01	9.3009	78.506142	0.000365	3.648380	0.618052	-0.000073
 539	5.3531e+01	9.2812	78.417325	0.000446	4.459132	0.755397	-0.000089
 540	5.3630e+01	9.2609	78.324470	0.000466	4.661819	0.789734	-0.000093
 541	5.3730e+01	9.2413	78.243728	0.000405	4.053756	0.686725	-0.000081
 542	5.3830e+01	9.2214	78.183171	0.000304	3.040317	0.515044	-0.000061
 543	5.3929e+01	9.2017	78.110502	0.000365	3.648380	0.618052	-0.000073
 544	5.4029e+01	9.1801	77.993425	0.000588	5.877946	0.995751	-0.000118
 545	5.4128e+01	9.1614	77.904608	0.000446	4.459132	0.755397	-0.000089
 546	5.4227e+01	9.1409	77.811754	0.000466	4.661819	0.789734	-0.000093
 547	5.4327e+01	9.1230	77.735049	0.000385	3.851068	0.652389	-0.000077
 548	5.4426e+01	9.1026	77.654306	0.000405	4.053756	0.686725	-0.000081
 549	5.4526e+01	9.0805	77.545303	0.000547	5.472571	0.927079	-0.000110
 550	5.4626e+01	9.0620	77.508969	0.000182	1.824190	0.309026	-0.000037
 551	5.4725e+01	9.0412	77.359595	0.000750	7.499448	1.270441	-0.000150
 552	5.4825e+01	9.0216	77.290964	0.000345	3.445693	0.583716	-0.000069
 553	5.4924e+01	9.0018	77.226370	0.000324	3.243005	0.549380	-0.000065
 554	5.5023e+01	8.9822	77.117367	0.000547	5.472571	0.927079	-0.000110
 555	5.5123e+01	8.9617	77.032587	0.000426	4.256444	0.721061	-0.000085
 556	5.5222e+01	8.9429	76.923584	0.000547	5.472571	0.927079	-0.000110
 557	5.5322e+01	8.9225	76.863027	0.000304	3.040317	0.515044	-0.000061
 558	5.5422e+01	8.9022	76.758062	0.000527	5.269883	0.892742	-0.000105
 559	5.5521e+01	8.8819	76.717690	0.000203	2.026878	0.343362	-0.000041
 560	5.5620e+01	8.8623	76.645022	0.000365	3.648380	0.618052	-0.000073
 561	5.5720e+01	8.8422	76.507759	0.000689	6.891385	1.167432	-0.000138
 562	5.5819e+01	8.8232	76.418942	0.000446	4.459132	0.755397	-0.000089
 563	5.5919e+01	8.8038	76.354348	0.000324	3.243005	0.549380	-0.000065
 564	5.6019e+01	8.7833	76.241308	0.000568	5.675258	0.961415	-0.000114
 565	5.6118e+01	8.7646	76.160566	0.000405	4.053756	0.686725	-0.000081
 566	5.6218e+01	8.7427	76.067712	0.000466	4.661819	0.789734	-0.000093
 567	5.6317e+01	8.7235	75.970820	0.000486	4.864507	0.824070	-0.000097
 568	5.6416e+01	8.7031	75.922375	0.000243	2.432254	0.412035	-0.000049
 569	5.6516e+01	8.6833	75.833558	0.000446	4.459132	0.755397	-0.000089
 570	5.6615e+01	8.6637	75.696295	0.000689	6.891385	1.167432	-0.000138
 571	5.6715e+01	8.6446	75.611515	0.000426	4.256444	0.721061	-0.000085
 572	5.6815e+01	8.6242	75.538847	0.000365	3.648380	0.618052	-0.000073
 573	5.6914e+01	8.6053	75.421770	0.000588	5.877946	0.995751	-0.000118
 574	5.7014e+01	8.5849	75.332953	0.000446	4.459132	0.755397	-0.000089
 575	5.7113e+01	8.5647	75.248173	0.000426	4.256444	0.721061	-0.000085
 576	5.7212e+01	8.5442	75.167430	0.000405	4.053756	0.686725	-0.000081
 577	5.7312e+01	8.5254	75.066502	0.000507	5.067195	0.858406	-0.000101
 578	5.7411e+01	8.5049	74.989796	0.000385	3.851068	0.652389	-0.000077
 579	5.7511e+01	8.4842	74.876757	0.000568	5.675258	0.961415	-0.000114
 580	5.7611e+01	8.4648	74.787940	0.000446	4.459132	0.755397	-0.000089
 581	5.7710e+01	8.4463	74.711234	0.000385	3.851068	0.652389	-0.000077
 582	5.7809e+01	8.4249	74.630491	0.000405	4.053756	0.686725	-0.000081
 583	5.7909e+01	8.4058	74.545711	0.000426	4.256444	0.721061	-0.000085
 584	5.8008e+01	8.3849	74.440746	0.000527	5.269883	0.892742	-0.000105
 585	5.8108e+01	8.3657	74.319632	0.000608	6.080634	1.030087	-0.000122
 586	5.8208e+01	8.3448	74.230815	0.000446	4.459132	0.755397	-0.000089
 587	5.8307e+01	8.3253	74.170258	0.000304	3.040317	0.515044	-0.000061
 588	5.8407e+01	8.3057	74.065292	0.000527	5.269883	0.892742	-0.000105
 589	5.8506e+01	8.2858	73.960327	0.000527	5.269883	0.892742	-0.000105
 590	5.8605e+01	8.2648	73.875547	0.000426	4.256444	0.721061	-0.000085
 591	5.8705e+01	8.2459	73.722136	0.000770	7.702136	1.304777	-0.000154
 592	5.8804e+01	8.2267	73.701950	0.000101	1.013439	0.171681	-0.000020
 593	5.8904e+01	8.2056	73.601022	0.000507	5.067195	0.858406	-0.000101
 594	5.9004e+01	8.1867	73.520279	0.000405	4.053756	0.686725	-0.000081
 595	5.9103e+01	8.1660	73.403202	0.000588	5.877946	0.995751	-0.000118
 596	5.9203e+01	8.1467	73.310348	0.000466	4.661819	0.789734	-0.000093
 597	5.9302e+01	8.1261	73.221531	0.000446	4.459132	0.755397	-0.000089
 598	5.9401e+01	8.1068	73.116565	0.000527	5.269883	0.892742	-0.000105
 599	5.9501e+01	8.0862	73.056008	0.000304	3.040317	0.515044	-0.000061
 600	5.9600e+01	8.0668	72.947006	0.000547	5.472571	0.927079	-0.000110
 601	5.9700e+01	8.0463	72.850114	0.000486	4.864507	0.824070	-0.000097
 602	5.9800e+01	8.0259	72.789557	0.000304	3.040317	0.515044	-0.000061
 603	5.9899e+01	8.0069	72.700740	0.000446	4.459132	0.755397	-0.000089
 604	5.9998e+01	7.9862	72.567515	0.000669	6.688697	1.133096	-0.000134
 605	6.0098e+01	7.9672	72.498884	0.000345	3.445693	0.583716	-0.000069
 606	6.0197e+01	7.9471	72.365658	0.000669	6.688697	1.133096	-0.000134
 607	6.0297e+01	7.9270	72.264730	0.000507	5.067195	0.858406	-0.000101
 608	6.0397e+01	7.9078	72.200136	0.000324	3.243005	0.549380	-0.000065
 609	6.0496e+01	7.8877	72.087096	0.000568	5.675258	0.961415	-0.000114
 610	6.0596e+01	7.8684	71.982130	0.000527	5.269883	0.892742	-0.000105
 611	6.0695e+01	7.8470	71.869090	0.000568	5.675258	0.961415	-0.000114
 612	6.0794e+01	7.8276	71.812571	0.000284	2.837629	0.480707	-0.000057
 613	6.0894e+01	7.8078	71.683382	0.000649	6.486009	1.098760	-0.000130
 614	6.0993e+01	7.7881	71.566305	0.000588	5.877946	0.995751	-0.000118
 615	6.1093e+01	7.7675	71.461340	0.000527	5.269883	0.892742	-0.000105
 616	6.1193e+01	7.7475	71.388671	0.000365	3.648380	0.618052	-0.000073
 617	6.1292e+01	7.7276	71.279669	0.000547	5.472571	0.927079	-0.000110
 618	6.1392e+01	7.7064	71.211037	0.000345	3.445693	0.583716	-0.000069
 619	6.1491e+01	7.6878	71.065700	0.000730	7.296761	1.236105	-0.000146
 620	6.1590e+01	7.6672	70.984958	0.000405	4.053756	0.686725	-0.000081
 621	6.1690e+01	7.6479	70.863844	0.000608	6.080634	1.030087	-0.000122
 622	6.1789e+01	7.6278	70.766952	0.000486	4.864507	0.824070	-0.000097
 623	6.1889e+01	7.6080	70.674098	0.000466	4.661819	0.789734	-0.000093
 624	6.1989e+01	7.5883	70.561058	0.000568	5.675258	0.961415	-0.000114
 625	6.2088e+01	7.5687	70.452056	0.000547	5.472571	0.927079	-0.000110
 626	6.2188e+01	7.5492	70.371313	0.000405	4.053756	0.686725	-0.000081
 627	6.2287e+01	7.5293	70.298645	0.000365	3.648380	0.618052	-0.000073
 628	6.2386e+01	7.5078	70.161382	0.000689	6.891385	1.167432	-0.000138
 629	6.2486e+01	7.4892	70.068528	0.000466	4.661819	0.789734	-0.000093
 630	6.2586e+01	7.4686	69.955488	0.000568	5.675258	0.961415	-0.000114
 631	6.2685e+01	7.4498	69.858597	0.000486	4.864507	0.824070	-0.000097
 632	6.2785e+01	7.4296	69.757668	0.000507	5.067195	0.858406	-0.000101
 633	6.2884e+01	7.4107	69.644629	0.000568	5.675258	0.961415	-0.000114
 634	6.2983e+01	7.3901	69.575997	0.000345	3.445693	0.583716	-0.000069
 635	6.3083e+01	7.3690	69.450846	0.000628	6.283322	1.064424	-0.000126
 636	6.3182e+01	7.3515	69.349918	0.000507	5.067195	0.858406	-0.000101
 637	6.3282e+01	7.3292	69.257064	0.000466	4.661819	0.789734	-0.000093
 638	6.3382e+01	7.3099	69.184395	0.000365	3.648380	0.618052	-0.000073
 639	6.3481e+01	7.2899	69.071355	0.000568	5.675258	0.961415	-0.000114
 640	6.3581e+01	7.2691	68.962353	0.000547	5.472571	0.927079	-0.000110
 641	6.3680e+01	7.2501	68.829127	0.000669	6.688697	1.133096	-0.000134
 642	6.3779e+01	7.2291	68.800867	0.000142	1.418815	0.240354	-0.000028
 643	6.3879e+01	7.2105	68.639382	0.000811	8.107512	1.373450	-0.000162
 644	6.3978e+01	7.1908	68.506156	0.000669	6.688697	1.133096	-0.000134
 645	6.4078e+01	7.1700	68.429451	0.000385	3.851068	0.652389	-0.000077
 646	6.4177e+01	7.1510	68.332560	0.000486	4.864507	0.824070	-0.000097
 647	6.4277e+01	7.1301	68.267965	0.000324	3.243005	0.549380	-0.000065
 648	6.4376e+01	7.1102	68.138777	0.000649	6.486009	1.098760	-0.000130
 649	6.4476e+01	7.0911	68.053997	0.000426	4.256444	0.721061	-0.000085
 650	6.4576e+01	7.0703	67.900586	0.000770	7.702136	1.304777	-0.000154
 651	6.4675e+01	7.0513	67.815806	0.000426	4.256444	0.721061	-0.000085
 652	6.4775e+01	7.0313	67.747175	0.000345	3.445693	0.583716	-0.000069
 653	6.4874e+01	7.0107	67.597801	0.000750	7.499448	1.270441	-0.000150
 654	6.4974e+01	6.9903	67.500910	0.000486	4.864507	0.824070	-0.000097
 655	6.5073e+01	6.9717	67.404018	0.000486	4.864507	0.824070	-0.000097
 656	6.5172e+01	6.9500	67.290978	0.000568	5.675258	0.961415	-0.000114
 657	6.5272e+01	6.9310	67.210236	0.000405	4.053756	0.686725	-0.000081
 658	6.5371e+01	6.9115	67.068936	0.000709	7.094073	1.201768	-0.000142
 659	6.5471e+01	6.8913	67.004342	0.000324	3.243005	0.549380	-0.000065
 660	6.5570e+01	6.8712	66.887265	0.000588	5.877946	0.995751	-0.000118
 661	6.5670e+01	6.8516	66.782299	0.000527	5.269883	0.892742	-0.000105
 662	6.5769e+01	6.8319	66.685408	0.000486	4.864507	0.824070	-0.000097
 663	6.5869e+01	6.8124	66.580443	0.000527	5.269883	0.892742	-0.000105
 664	6.5969e+01	6.7910	66.447217	0.000669	6.688697	1.133096	-0.000134
 665	6.6068e+01	6.7721	66.346289	0.000507	5.067195	0.858406	-0.000101
 666	6.6168e+01	6.7522	66.217100	0.000649	6.486009	1.098760	-0.000130
 667	6.6267e+01	6.7324	66.164618	0.000263	2.634941	0.446371	-0.000053
 668	6.6367e+01	6.7117	66.019281	0.000730	7.296761	1.236105	-0.000146
 669	6.6466e+01	6.6924	65.930464	0.000446	4.459132	0.755397	-0.000089
 670	6.6566e+01	6.6714	65.841647	0.000446	4.459132	0.755397	-0.000089
 671	6.6665e+01	6.6528	65.732644	0.000547	5.472571	0.927079	-0.000110
 672	6.6764e+01	6.6317	65.623641	0.000547	5.472571	0.927079	-0.000110
 673	6.6864e+01	6.6123	65.474267	0.000750	7.499448	1.270441	-0.000150
 674	6.6963e+01	6.5928	65.357190	0.000588	5.877946	0.995751	-0.000118
 675	6.7063e+01	6.5723	65.276448	0.000405	4.053756	0.686725	-0.000081
 676	6.7162e+01	6.5530	65.175519	0.000507	5.067195	0.858406	-0.000101
 677	6.7262e+01	6.5331	65.090740	0.000426	4.256444	0.721061	-0.000085
 678	6.7362e+01	6.5129	64.937328	0.000770	7.702136	1.304777	-0.000154
 679	6.7461e+01	6.4928	64.816214	0.000608	6.080634	1.030087	-0.000122
 680	6.7561e+01	6.4738	64.755657	0.000304	3.040317	0.515044	-0.000061
 681	6.7660e+01	6.4523	64.626469	0.000649	6.486009	1.098760	-0.000130
 682	6.7760e+01	6.4331	64.525541	0.000507	5.067195	0.858406	-0.000101
 683	6.7859e+01	6.4116	64.392315	0.000669	6.688697	1.133096	-0.000134
 684	6.7959e+01	6.3931	64.315609	0.000385	3.851068	0.652389	-0.000077
 685	6.8058e+01	6.3721	64.178347	0.000689	6.891385	1.167432	-0.000138
 686	6.8157e+01	6.3542	64.073381	0.000527	5.269883	0.892742	-0.000105
 687	6.8257e+01	6.3332	63.948230	0.000628	6.283322	1.064424	-0.000126
 688	6.8356e+01	6.3136	63.835190	0.000568	5.675258	0.961415	-0.000114
 689	6.8456e+01	6.2950	63.754448	0.000405	4.053756	0.686725	-0.000081
 690	6.8555e+01	6.2740	63.637371	0.000588	5.877946	0.995751	-0.000118
 691	6.8655e+01	6.2542	63.536442	0.000507	5.067195	0.858406	-0.000101
 692	6.8754e+01	6.2346	63.415328	0.000608	6.080634	1.030087	-0.000122
 693	6.8854e+01	6.2151	63.346697	0.000345	3.445693	0.583716	-0.000069
 694	6.8954e+01	6.1947	63.225583	0.000608	6.080634	1.030087	-0.000122
 695	6.9053e+01	6.1749	63.132729	0.000466	4.661819	0.789734	-0.000093
 696	6.9153e+01	6.1555	62.999503	0.000669	6.688697	1.133096	-0.000134
 697	6.9252e+01	6.1352	62.854166	0.000730	7.296761	1.236105	-0.000146
 698	6.9352e+01	6.1146	62.793609	0.000304	3.040317	0.515044	-0.000061
 699	6.9451e+01	6.0955	62.684607	0.000547	5.472571	0.927079	-0.000110
 700	6.9550e+01	6.0749	62.587715	0.000486	4.864507	0.824070	-0.000097
 701	6.9650e+01	6.0555	62.430267	0.000790	7.904824	1.339113	-0.000158
 702	6.9749e+01	6.0345	62.361636	0.000345	3.445693	0.583716	-0.000069
 703	6.9849e+01	6.0156	62.256670	0.000527	5.269883	0.892742	-0.000105
 704	6.9948e+01	5.9952	62.159779	0.000486	4.864507	0.824070	-0.000097
 705	7.0048e+01	5.9766	61.998294	0.000811	8.107512	1.373450	-0.000162
 706	7.0147e+01	5.9554	61.921588	0.000385	3.851068	0.652389	-0.000077
 707	7.0247e+01	5.9354	61.808548	0.000568	5.675258	0.961415	-0.000114
 708	7.0347e+01	5.9159	61.691471	0.000588	5.877946	0.995751	-0.000118
 709	7.0446e+01	5.8958	61.554209	0.000689	6.891385	1.167432	-0.000138
 710	7.0546e+01	5.8762	61.469429	0.000426	4.256444	0.721061	-0.000085
 711	7.0645e+01	5.8564	61.360426	0.000547	5.472571	0.927079	-0.000110
 712	7.0745e+01	5.8358	61.235275	0.000628	6.283322	1.064424	-0.000126
 713	7.0844e+01	5.8166	61.126272	0.000547	5.472571	0.927079	-0.000110
 714	7.0944e+01	5.7958	61.025344	0.000507	5.067195	0.858406	-0.000101
 715	7.1043e+01	5.7766	60.892118	0.000669	6.688697	1.133096	-0.000134
 716	7.1142e+01	5.7568	60.799264	0.000466	4.661819	0.789734	-0.000093
 717	7.1242e+01	5.7362	60.670076	0.000649	6.486009	1.098760	-0.000130
 718	7.1341e+01	5.7159	60.561073	0.000547	5.472571	0.927079	-0.000110
 719	7.1441e+01	5.6971	60.419773	0.000709	7.094073	1.201768	-0.000142
 720	7.1540e+01	5.6760	60.330956	0.000446	4.459132	0.755397	-0.000089
 721	7.1640e+01	5.6573	60.217917	0.000568	5.675258	0.961415	-0.000114
 722	7.1740e+01	5.6373	60.076617	0.000709	7.094073	1.201768	-0.000142
 723	7.1839e+01	5.6173	59.987800	0.000446	4.459132	0.755397	-0.000089
 724	7.1939e+01	5.5967	59.866686	0.000608	6.080634	1.030087	-0.000122
 725	7.2038e+01	5.5767	59.769795	0.000486	4.864507	0.824070	-0.000097
 726	7.2138e+01	5.5569	59.644643	0.000628	6.283322	1.064424	-0.000126
 727	7.2237e+01	5.5369	59.543715	0.000507	5.067195	0.858406	-0.000101
 728	7.2337e+01	5.5166	59.386267	0.000790	7.904824	1.339113	-0.000158
 729	7.2436e+01	5.4969	59.305524	0.000405	4.053756	0.686725	-0.000081
 730	7.2535e+01	5.4775	59.184410	0.000608	6.080634	1.030087	-0.000122
 731	7.2635e+01	5.4571	59.051184	0.000669	6.688697	1.133096	-0.000134
 732	7.2734e+01	5.4378	58.934108	0.000588	5.877946	0.995751	-0.000118
 733	7.2834e+01	5.4180	58.853365	0.000405	4.053756	0.686725	-0.000081
 734	7.2933e+01	5.3980	58.703991	0.000750	7.499448	1.270441	-0.000150
 735	7.3033e+01	5.3780	58.603062	0.000507	5.067195	0.858406	-0.000101
 736	7.3132e+01	5.3570	58.498097	0.000527	5.269883	0.892742	-0.000105
 737	7.3232e+01	5.3382	58.356797	0.000709	7.094073	1.201768	-0.000142
 738	7.3332e+01	5.3179	58.255869	0.000507	5.067195	0.858406	-0.000101
 739	7.3431e+01	5.2988	58.163015	0.000466	4.661819	0.789734	-0.000093
 740	7.3531e+01	5.2775	58.041901	0.000608	6.080634	1.030087	-0.000122
 741	7.3630e+01	5.2590	57.884452	0.000790	7.904824	1.339113	-0.000158
 742	7.3730e+01	5.2378	57.791598	0.000466	4.661819	0.789734	-0.000093
 743	7.3829e+01	5.2187	57.670484	0.000608	6.080634	1.030087	-0.000122
 744	7.3928e+01	5.1984	57.529184	0.000709	7.094073	1.201768	-0.000142
 745	7.4028e+01	5.1781	57.412107	0.000588	5.877946	0.995751	-0.000118
 746	7.4127e+01	5.1589	57.303105	0.000547	5.472571	0.927079	-0.000110
 747	7.4227e+01	5.1394	57.194102	0.000547	5.472571	0.927079	-0.000110
 748	7.4326e+01	5.1188	57.056839	0.000689	6.891385	1.167432	-0.000138
 749	7.4426e+01	5.0988	56.911502	0.000730	7.296761	1.236105	-0.000146
 750	7.4525e+01	5.0782	56.802500	0.000547	5.472571	0.927079	-0.000110
 751	7.4625e+01	5.0588	56.681386	0.000608	6.080634	1.030087	-0.000122
 752	7.4725e+01	5.0396	56.604680	0.000385	3.851068	0.652389	-0.000077
 753	7.4824e+01	5.0191	56.459343	0.000730	7.296761	1.236105	-0.000146
 754	7.4924e+01	5.0002	56.342266	0.000588	5.877946	0.995751	-0.000118
 755	7.5023e+01	4.9790	56.245375	0.000486	4.864507	0.824070	-0.000097
 756	7.5123e+01	4.9599	56.140410	0.000527	5.269883	0.892742	-0.000105
 757	7.5222e+01	4.9399	55.999110	0.000709	7.094073	1.201768	-0.000142
 758	7.5322e+01	4.9202	55.873959	0.000628	6.283322	1.064424	-0.000126
 759	7.5421e+01	4.9001	55.773030	0.000507	5.067195	0.858406	-0.000101
 760	7.5520e+01	4.8806	55.639805	0.000669	6.688697	1.133096	-0.000134
 761	7.5620e+01	4.8597	55.506579	0.000669	6.688697	1.133096	-0.000134
 762	7.5719e+01	4.8400	55.397577	0.000547	5.472571	0.927079	-0.000110
 763	7.5819e+01	4.8194	55.292611	0.000527	5.269883	0.892742	-0.000105
 764	7.5918e+01	4.8003	55.143237	0.000750	7.499448	1.270441	-0.000150
 765	7.6018e+01	4.7810	55.018086	0.000628	6.283322	1.064424	-0.000126
 766	7.6118e+01	4.7599	54.925232	0.000466	4.661819	0.789734	-0.000093
 767	7.6217e+01	4.7401	54.800081	0.000628	6.283322	1.064424	-0.000126
 768	7.6317e+01	4.7184	54.666855	0.000669	6.688697	1.133096	-0.000134
 769	7.6416e+01	4.7015	54.561889	0.000527	5.269883	0.892742	-0.000105
 770	7.6516e+01	4.6809	54.412515	0.000750	7.499448	1.270441	-0.000150
 771	7.6615e+01	4.6611	54.287364	0.000628	6.283322	1.064424	-0.000126
 772	7.6715e+01	4.6407	54.182399	0.000527	5.269883	0.892742	-0.000105
 773	7.6814e+01	4.6209	54.073396	0.000547	5.472571	0.927079	-0.000110
 774	7.6913e+01	4.6009	53.924022	0.000750	7.499448	1.270441	-0.000150
 775	7.7013e+01	4.5816	53.806945	0.000588	5.877946	0.995751	-0.000118
 776	7.7112e+01	4.5611	53.665645	0.000709	7.094073	1.201768	-0.000142
 777	7.7212e+01	4.5412	53.508197	0.000790	7.904824	1.339113	-0.000158
 778	7.7311e+01	4.5208	53.411306	0.000486	4.864507	0.824070	-0.000097
 779	7.7411e+01	4.5011	53.282117	0.000649	6.486009	1.098760	-0.000130
 780	7.7510e+01	4.4811	53.177152	0.000527	5.269883	0.892742	-0.000105
 781	7.7610e+01	4.4610	53.023741	0.000770	7.702136	1.304777	-0.000154
 782	7.7710e+01	4.4413	52.910701	0.000568	5.675258	0.961415	-0.000114
 783	7.7809e+01	4.4225	52.765364	0.000730	7.296761	1.236105	-0.000146
 784	7.7909e+01	4.4018	52.640213	0.000628	6.283322	1.064424	-0.000126
 785	7.8008e+01	4.3819	52.519099	0.000608	6.080634	1.030087	-0.000122
 786	7.8108e+01	4.3618	52.414133	0.000527	5.269883	0.892742	-0.000105
 787	7.8207e+01	4.3413	52.272834	0.000709	7.094073	1.201768	-0.000142
 788	7.8306e+01	4.3224	52.151719	0.000608	6.080634	1.030087	-0.000122
 789	7.8406e+01	4.3021	52.002345	0.000750	7.499448	1.270441	-0.000150
 790	7.8505e+01	4.2828	51.881231	0.000608	6.080634	1.030087	-0.000122
 791	7.8605e+01	4.2626	51.748006	0.000669	6.688697	1.133096	-0.000134
 792	7.8704e+01	4.2427	51.606706	0.000709	7.094073	1.201768	-0.000142
 793	7.8804e+01	4.2229	51.457332	0.000750	7.499448	1.270441	-0.000150
 794	7.8903e+01	4.2020	51.372552	0.000426	4.256444	0.721061	-0.000085
 795	7.9003e+01	4.1824	51.239327	0.000669	6.688697	1.133096	-0.000134
 796	7.9103e+01	4.1618	51.110138	0.000649	6.486009	1.098760	-0.000130
 797	7.9202e+01	4.1419	50.924430	0.000932	9.323639	1.579467	-0.000187
 798	7.9302e+01	4.1228	50.819465	0.000527	5.269883	0.892742	-0.000105
 799	7.9401e+01	4.1030	50.718536	0.000507	5.067195	0.858406	-0.000101
 800	7.9501e+01	4.0823	50.561088	0.000790	7.904824	1.339113	-0.000158
 801	7.9600e+01	4.0633	50.435937	0.000628	6.283322	1.064424	-0.000126
 802	7.9700e+01	4.0421	50.326934	0.000547	5.472571	0.927079	-0.000110
 803	7.9799e+01	4.0234	50.197746	0.000649	6.486009	1.098760	-0.000130
 804	7.9898e+01	4.0026	50.092780	0.000527	5.269883	0.892742	-0.000105
 805	7.9998e+01	3.9832	49.943406	0.000750	7.499448	1.270441	-0.000150
 806	8.0097e+01	3.9635	49.789995	0.000770	7.702136	1.304777	-0.000154
 807	8.0197e+01	3.9439	49.648695	0.000709	7.094073	1.201768	-0.000142
 808	8.0296e+01	3.9233	49.547767	0.000507	5.067195	0.858406	-0.000101
 809	8.0396e+01	3.9034	49.414541	0.000669	6.688697	1.133096	-0.000134
 810	8.0496e+01	3.8830	49.236907	0.000892	8.918263	1.510795	-0.000179
 811	8.0595e+01	3.8624	49.148090	0.000446	4.459132	0.755397	-0.000089
 812	8.0695e+01	3.8435	48.990642	0.000790	7.904824	1.339113	-0.000158
 813	8.0794e+01	3.8241	48.853380	0.000689	6.891385	1.167432	-0.000138
 814	8.0894e+01	3.8045	48.764563	0.000446	4.459132	0.755397	-0.000089
 815	8.0993e+01	3.7832	48.599040	0.000831	8.310200	1.407786	-0.000166
 816	8.1093e+01	3.7641	48.449666	0.000750	7.499448	1.270441	-0.000150
 817	8.1192e+01	3.7453	48.344700	0.000527	5.269883	0.892742	-0.000105
 818	8.1291e+01	3.7247	48.187252	0.000790	7.904824	1.339113	-0.000158
 819	8.1391e+01	3.7045	48.098435	0.000446	4.459132	0.755397	-0.000089
 820	8.1490e+01	3.6845	47.936950	0.000811	8.107512	1.373450	-0.000162
 821	8.1590e+01	3.6655	47.795650	0.000709	7.094073	1.201768	-0.000142
 822	8.1689e+01	3.6442	47.702796	0.000466	4.661819	0.789734	-0.000093
 823	8.1789e+01	3.6253	47.541310	0.000811	8.107512	1.373450	-0.000162
 824	8.1888e+01	3.6053	47.383862	0.000790	7.904824	1.339113	-0.000158
 825	8.1988e+01	3.5855	47.246600	0.000689	6.891385	1.167432	-0.000138
 826	8.2088e+01	3.5659	47.129523	0.000588	5.877946	0.995751	-0.000118
 827	8.2187e+01	3.5441	46.992260	0.000689	6.891385	1.167432	-0.000138
 828	8.2287e+01	3.5258	46.867109	0.000628	6.283322	1.064424	-0.000126
 829	8.2386e+01	3.5052	46.725809	0.000709	7.094073	1.201768	-0.000142
 830	8.2486e+01	3.4854	46.624881	0.000507	5.067195	0.858406	-0.000101
 831	8.2585e+01	3.4658	46.471469	0.000770	7.702136	1.304777	-0.000154
 832	8.2684e+01	3.4469	46.326133	0.000730	7.296761	1.236105	-0.000146
 833	8.2784e+01	3.4267	46.213093	0.000568	5.675258	0.961415	-0.000114
 834	8.2883e+01	3.4049	46.075830	0.000689	6.891385	1.167432	-0.000138
 835	8.2983e+01	3.3862	45.930493	0.000730	7.296761	1.236105	-0.000146
 836	8.3082e+01	3.3656	45.789194	0.000709	7.094073	1.201768	-0.000142
 837	8.3182e+01	3.3463	45.639820	0.000750	7.499448	1.270441	-0.000150
 838	8.3281e+01	3.3263	45.494483	0.000730	7.296761	1.236105	-0.000146
 839	8.3381e+01	3.3057	45.373369	0.000608	6.080634	1.030087	-0.000122
 840	8.3481e+01	3.2856	45.236106	0.000689	6.891385	1.167432	-0.000138
 841	8.3580e+01	3.2660	45.090769	0.000730	7.296761	1.236105	-0.000146
 842	8.3680e+01	3.2461	44.969655	0.000608	6.080634	1.030087	-0.000122
 843	8.3779e+01	3.2266	44.824318	0.000730	7.296761	1.236105	-0.000146
 844	8.3879e+01	3.2067	44.683018	0.000709	7.094073	1.201768	-0.000142
 845	8.3978e+01	3.1861	44.525570	0.000790	7.904824	1.339113	-0.000158
 846	8.4078e+01	3.1664	44.396382	0.000649	6.486009	1.098760	-0.000130
 847	8.4177e+01	3.1461	44.242971	0.000770	7.702136	1.304777	-0.000154
 848	8.4276e+01	3.1261	44.121856	0.000608	6.080634	1.030087	-0.000122
 849	8.4376e+01	3.1078	43.972482	0.000750	7.499448	1.270441	-0.000150
 850	8.4475e+01	3.0871	43.823108	0.000750	7.499448	1.270441	-0.000150
 851	8.4575e+01	3.0673	43.641437	0.000912	9.120951	1.545131	-0.000183
 852	8.4674e+01	3.0470	43.540509	0.000507	5.067195	0.858406	-0.000101
 853	8.4774e+01	3.0270	43.399209	0.000709	7.094073	1.201768	-0.000142
 854	8.4874e+01	3.0077	43.274058	0.000628	6.283322	1.064424	-0.000126
 855	8.4973e+01	2.9877	43.108535	0.000831	8.310200	1.407786	-0.000166
 856	8.5073e+01	2.9678	42.971273	0.000689	6.891385	1.167432	-0.000138
 857	8.5172e+01	2.9476	42.838047	0.000669	6.688697	1.133096	-0.000134
 858	8.5272e+01	2.9279	42.737119	0.000507	5.067195	0.858406	-0.000101
 859	8.5371e+01	2.9079	42.575633	0.000811	8.107512	1.373450	-0.000162
 860	8.5471e+01	2.8871	42.410111	0.000831	8.310200	1.407786	-0.000166
 861	8.5570e+01	2.8674	42.276885	0.000669	6.688697	1.133096	-0.000134
 862	8.5669e+01	2.8481	42.159809	0.000588	5.877946	0.995751	-0.000118
 863	8.5769e+01	2.8281	41.998323	0.000811	8.107512	1.373450	-0.000162
 864	8.5868e+01	2.8082	41.861060	0.000689	6.891385	1.167432	-0.000138
 865	8.5968e+01	2.7880	41.743984	0.000588	5.877946	0.995751	-0.000118
 866	8.6067e+01	2.7685	41.574424	0.000851	8.512887	1.442122	-0.000170
 867	8.6167e+01	2.7472	41.437161	0.000689	6.891385	1.167432	-0.000138
 868	8.6266e+01	2.7287	41.291824	0.000730	7.296761	1.236105	-0.000146
 869	8.6366e+01	2.7088	41.170710	0.000608	6.080634	1.030087	-0.000122
 870	8.6466e+01	2.6860	41.029411	0.000709	7.094073	1.201768	-0.000142
 871	8.6565e+01	2.6682	40.896185	0.000669	6.688697	1.133096	-0.000134
 872	8.6665e+01	2.6484	40.771034	0.000628	6.283322	1.064424	-0.000126
 873	8.6764e+01	2.6286	40.629734	0.000709	7.094073	1.201768	-0.000142
 874	8.6864e+01	2.6086	40.492471	0.000689	6.891385	1.167432	-0.000138
 875	8.6963e+01	2.5887	40.306763	0.000932	9.323639	1.579467	-0.000187
 876	8.7063e+01	2.5687	40.205835	0.000507	5.067195	0.858406	-0.000101
 877	8.7162e+01	2.5489	40.080684	0.000628	6.283322	1.064424	-0.000126
 878	8.7261e+01	2.5285	39.915161	0.000831	8.310200	1.407786	-0.000166
 879	8.7361e+01	2.5095	39.753676	0.000811	8.107512	1.373450	-0.000162
 880	8.7460e+01	2.4895	39.604302	0.000750	7.499448	1.270441	-0.000150
 881	8.7560e+01	2.4694	39.463002	0.000709	7.094073	1.201768	-0.000142
 882	8.7659e+01	2.4495	39.293442	0.000851	8.512887	1.442122	-0.000170
 883	8.7759e+01	2.4291	39.196551	0.000486	4.864507	0.824070	-0.000097
 884	8.7859e+01	2.4090	39.039103	0.000790	7.904824	1.339113	-0.000158
 885	8.7958e+01	2.3895	38.917989	0.000608	6.080634	1.030087	-0.000122
 886	8.8058e+01	2.3693	38.784763	0.000669	6.688697	1.133096	-0.000134
 887	8.8157e+01	2.3498	38.611166	0.000872	8.715575	1.476458	-0.000174
 888	8.8257e+01	2.3292	38.449681	0.000811	8.107512	1.373450	-0.000162
 889	8.8356e+01	2.3111	38.268010	0.000912	9.120951	1.545131	-0.000183
 890	8.8456e+01	2.2904	38.191304	0.000385	3.851068	0.652389	-0.000077
 891	8.8555e+01	2.2708	38.062116	0.000649	6.486009	1.098760	-0.000130
 892	8.8654e+01	2.2507	37.876407	0.000932	9.323639	1.579467	-0.000187
 893	8.8754e+01	2.2295	37.759331	0.000588	5.877946	0.995751	-0.000118
 894	8.8853e+01	2.2103	37.601882	0.000790	7.904824	1.339113	-0.000158
 895	8.8953e+01	2.1905	37.484805	0.000588	5.877946	0.995751	-0.000118
 896	8.9052e+01	2.1689	37.250651	0.001176	11.755892	1.991502	-0.000235
 897	8.9152e+01	2.1497	37.129537	0.000608	6.080634	1.030087	-0.000122
 898	8.9251e+01	2.1301	37.008423	0.000608	6.080634	1.030087	-0.000122
 899	8.9351e+01	2.1108	36.842901	0.000831	8.310200	1.407786	-0.000166
 900	8.9451e+01	2.0905	36.697564	0.000730	7.296761	1.236105	-0.000146
 901	8.9550e+01	2.0710	36.560301	0.000689	6.891385	1.167432	-0.000138
 902	8.9650e+01	2.0513	36.382667	0.000892	8.918263	1.510795	-0.000179
 903	8.9749e+01	2.0309	36.281739	0.000507	5.067195	0.858406	-0.000101
 904	8.9849e+01	2.0106	36.104105	0.000892	8.918263	1.510795	-0.000179
 905	8.9948e+01	1.9904	35.938582	0.000831	8.310200	1.407786	-0.000166
 906	9.0047e+01	1.9727	35.793245	0.000730	7.296761	1.236105	-0.000146
 907	9.0147e+01	1.9514	35.664057	0.000649	6.486009	1.098760	-0.000130
 908	9.0246e+01	1.9315	35.510646	0.000770	7.702136	1.304777	-0.000154
 909	9.0346e+01	1.9115	35.369346	0.000709	7.094073	1.201768	-0.000142
 910	9.0445e+01	1.8917	35.211898	0.000790	7.904824	1.339113	-0.000158
 911	9.0545e+01	1.8723	35.074635	0.000689	6.891385	1.167432	-0.000138
 912	9.0644e+01	1.8517	34.921224	0.000770	7.702136	1.304777	-0.000154
 913	9.0744e+01	1.8321	34.796073	0.000628	6.283322	1.064424	-0.000126
 914	9.0844e+01	1.8124	34.638625	0.000790	7.904824	1.339113	-0.000158
 915	9.0943e+01	1.7910	34.432731	0.001034	10.337078	1.751148	-0.000207
 916	9.1043e+01	1.7716	34.299505	0.000669	6.688697	1.133096	-0.000134
 917	9.1142e+01	1.7516	34.166280	0.000669	6.688697	1.133096	-0.000134
 918	9.1242e+01	1.7322	34.008831	0.000790	7.904824	1.339113	-0.000158
 919	9.1341e+01	1.7126	33.843309	0.000831	8.310200	1.407786	-0.000166
 920	9.1441e+01	1.6920	33.710083	0.000669	6.688697	1.133096	-0.000134
 921	9.1540e+01	1.6720	33.597044	0.000568	5.675258	0.961415	-0.000114
 922	9.1639e+01	1.6525	33.427484	0.000851	8.512887	1.442122	-0.000170
 923	9.1739e+01	1.6329	33.274073	0.000770	7.702136	1.304777	-0.000154
 924	9.1838e+01	1.6126	33.088365	0.000932	9.323639	1.579467	-0.000187
 925	9.1938e+01	1.5923	32.967250	0.000608	6.080634	1.030087	-0.000122
 926	9.2037e+01	1.5734	32.854211	0.000568	5.675258	0.961415	-0.000114
 927	9.2137e+01	1.5533	32.648317	0.001034	10.337078	1.751148	-0.000207
 928	9.2237e+01	1.5334	32.511054	0.000689	6.891385	1.167432	-0.000138
 929	9.2336e+01	1.5137	32.365717	0.000730	7.296761	1.236105	-0.000146
 930	9.2436e+01	1.4939	32.204232	0.000811	8.107512	1.373450	-0.000162
 931	9.2535e+01	1.4725	32.034672	0.000851	8.512887	1.442122	-0.000170
 932	9.2635e+01	1.4536	31.909521	0.000628	6.283322	1.064424	-0.000126
 933	9.2734e+01	1.4339	31.784370	0.000628	6.283322	1.064424	-0.000126
 934	9.2834e+01	1.4130	31.590587	0.000973	9.729014	1.648140	-0.000195
 935	9.2933e+01	1.3934	31.453325	0.000689	6.891385	1.167432	-0.000138
 936	9.3032e+01	1.3729	31.259542	0.000973	9.729014	1.648140	-0.000195
 937	9.3132e+01	1.3530	31.142465	0.000588	5.877946	0.995751	-0.000118
 938	9.3231e+01	1.3335	31.009240	0.000669	6.688697	1.133096	-0.000134
 939	9.3331e+01	1.3132	30.807383	0.001013	10.134390	1.716812	-0.000203
 940	9.3430e+01	1.2931	30.686269	0.000608	6.080634	1.030087	-0.000122
 941	9.3530e+01	1.2743	30.504598	0.000912	9.120951	1.545131	-0.000183
 942	9.3629e+01	1.2550	30.347149	0.000790	7.904824	1.339113	-0.000158
 943	9.3729e+01	1.2339	30.201812	0.000730	7.296761	1.236105	-0.000146
 944	9.3829e+01	1.2141	30.028216	0.000872	8.715575	1.476458	-0.000174
 945	9.3928e+01	1.1938	29.870767	0.000790	7.904824	1.339113	-0.000158
 946	9.4028e+01	1.1752	29.749653	0.000608	6.080634	1.030087	-0.000122
 947	9.4127e+01	1.1551	29.547796	0.001013	10.134390	1.716812	-0.000203
 948	9.4227e+01	1.1349	29.374200	0.000872	8.715575	1.476458	-0.000174
 949	9.4326e+01	1.1151	29.257123	0.000588	5.877946	0.995751	-0.000118
 950	9.4425e+01	1.0952	29.103712	0.000770	7.702136	1.304777	-0.000154
 951	9.4525e+01	1.0760	28.938189	0.000831	8.310200	1.407786	-0.000166
 952	9.4624e+01	1.0556	28.764592	0.000872	8.715575	1.476458	-0.000174
 953	9.4724e+01	1.0357	28.631367	0.000669	6.688697	1.133096	-0.000134
 954	9.4823e+01	1.0151	28.498141	0.000669	6.688697	1.133096	-0.000134
 955	9.4923e+01	0.9959	28.324544	0.000872	8.715575	1.476458	-0.000174
 956	9.5022e+01	0.9762	28.130762	0.000973	9.729014	1.648140	-0.000195
 957	9.5122e+01	0.9560	27.957165	0.000872	8.715575	1.476458	-0.000174
 958	9.5222e+01	0.9380	27.823940	0.000669	6.688697	1.133096	-0.000134
 959	9.5321e+01	0.9156	27.678603	0.000730	7.296761	1.236105	-0.000146
 960	9.5421e+01	0.8953	27.480783	0.000993	9.931702	1.682476	-0.000199
 961	9.5520e+01	0.8766	27.331409	0.000750	7.499448	1.270441	-0.000150
 962	9.5620e+01	0.8560	27.206258	0.000628	6.283322	1.064424	-0.000126
 963	9.5719e+01	0.8363	27.052847	0.000770	7.702136	1.304777	-0.000154
 964	9.5819e+01	0.8155	26.883287	0.000851	8.512887	1.442122	-0.000170
 965	9.5918e+01	0.7962	26.725839	0.000790	7.904824	1.339113	-0.000158
 966	9.6017e+01	0.7771	26.528019	0.000993	9.931702	1.682476	-0.000199
 967	9.6117e+01	0.7560	26.378645	0.000750	7.499448	1.270441	-0.000150
 968	9.6216e+01	0.7367	26.237345	0.000709	7.094073	1.201768	-0.000142
 969	9.6316e+01	0.7168	26.071823	0.000831	8.310200	1.407786	-0.000166
 970	9.6415e+01	0.6961	25.914374	0.000790	7.904824	1.339113	-0.000158
 971	9.6515e+01	0.6765	25.773075	0.000709	7.094073	1.201768	-0.000142
 972	9.6615e+01	0.6563	25.611589	0.000811	8.107512	1.373450	-0.000162
 973	9.6714e+01	0.6371	25.446067	0.000831	8.310200	1.407786	-0.000166
 974	9.6814e+01	0.6165	25.288618	0.000790	7.904824	1.339113	-0.000158
 975	9.6913e+01	0.5966	25.119059	0.000851	8.512887	1.442122	-0.000170
 976	9.7013e+01	0.5765	24.977759	0.000709	7.094073	1.201768	-0.000142
 977	9.7112e+01	0.5573	24.812236	0.000831	8.310200	1.407786	-0.000166
 978	9.7212e+01	0.5375	24.650751	0.000811	8.107512	1.373450	-0.000162
 979	9.7311e+01	0.5172	24.452931	0.000993	9.931702	1.682476	-0.000199
 980	9.7410e+01	0.4970	24.291446	0.000811	8.107512	1.373450	-0.000162
 981	9.7510e+01	0.4778	24.133997	0.000790	7.904824	1.339113	-0.000158
 982	9.7609e+01	0.4587	23.992698	0.000709	7.094073	1.201768	-0.000142
 983	9.7709e+01	0.4372	23.798915	0.000973	9.729014	1.648140	-0.000195
 984	9.7808e+01	0.4184	23.649541	0.000750	7.499448	1.270441	-0.000150
 985	9.7908e+01	0.3976	23.496130	0.000770	7.702136	1.304777	-0.000154
 986	9.8007e+01	0.3773	23.342719	0.000770	7.702136	1.304777	-0.000154
 987	9.8107e+01	0.3578	23.185271	0.000790	7.904824	1.339113	-0.000158
 988	9.8207e+01	0.3378	23.007637	0.000892	8.918263	1.510795	-0.000179
 989	9.8306e+01	0.3182	22.890560	0.000588	5.877946	0.995751	-0.000118
 990	9.8406e+01	0.2988	22.672554	0.001095	10.945141	1.854157	-0.000219
 991	9.8505e+01	0.2780	22.498957	0.000872	8.715575	1.476458	-0.000174
 992	9.8605e+01	0.2585	22.345546	0.000770	7.702136	1.304777	-0.000154
 993	9.8704e+01	0.2387	22.200209	0.000730	7.296761	1.236105	-0.000146
 994	9.8803e+01	0.2180	22.066984	0.000669	6.688697	1.133096	-0.000134
 995	9.8903e+01	0.1984	21.865127	0.001013	10.134390	1.716812	-0.000203
 996	9.9002e+01	0.1792	21.699605	0.000831	8.310200	1.407786	-0.000166
 997	9.9102e+01	0.1581	21.578491	0.000608	6.080634	1.030087	-0.000122
 998	9.9201e+01	0.1358	21.392782	0.000932	9.323639	1.579467	-0.000187
 999	9.9301e+01	0.1183	21.223223	0.000851	8.512887	1.442122	-0.000170
1000	9.9400e+01	0.0983	21.102109	0.000608	6.080634	1.030087	-0.000122
1001	9.9500e+01	0.0792	20.904289	0.000993	9.931702	1.682476	-0.000199
1002	9.9600e+01	0.0586	20.771063	0.000669	6.688697	1.133096	-0.000134
1003	9.9699e+01	0.0388	20.581318	0.000953	9.526326	1.613803	-0.000191
1004	9.9799e+01	0.0185	20.407721	0.000872	8.715575	1.476458	-0.000174
1005	9.9898e+01	-0.0006	20.242199	0.000831	8.310200	1.407786	-0.000166
1006	9.9998e+01	-0.0192	20.104936	0.000689	6.891385	1.167432	-0.000138
1007	1.0010e+02	-0.0385	19.911153	0.000973	9.729014	1.648140	-0.000195
1008	1.0020e+02	-0.0587	19.786002	0.000628	6.283322	1.064424	-0.000126
1009	1.0030e+02	-0.0799	19.600294	0.000932	9.323639	1.579467	-0.000187
1010	1.0040e+02	-0.0992	19.410549	0.000953	9.526326	1.613803	-0.000191
1011	1.0050e+02	-0.1189	19.245026	0.000831	8.310200	1.407786	-0.000166
1012	1.0059e+02	-0.1384	19.083541	0.000811	8.107512	1.373450	-0.000162
1013	1.0069e+02	-0.1585	18.938204	0.000730	7.296761	1.236105	-0.000146
1014	1.0079e+02	-0.1788	18.732310	0.001034	10.337078	1.751148	-0.000207
1015	1.0089e+02	-0.1991	18.586973	0.000730	7.296761	1.236105	-0.000146
1016	1.0099e+02	-0.2185	18.401265	0.000932	9.323639	1.579467	-0.000187
1017	1.0109e+02	-0.2387	18.268039	0.000669	6.688697	1.133096	-0.000134
1018	1.0119e+02	-0.2586	18.130777	0.000689	6.891385	1.167432	-0.000138
1019	1.0129e+02	-0.2779	17.924883	0.001034	10.337078	1.751148	-0.000207
1020	1.0139e+02	-0.2985	17.775509	0.000750	7.499448	1.270441	-0.000150
1021	1.0149e+02	-0.3184	17.601912	0.000872	8.715575	1.476458	-0.000174
1022	1.0159e+02	-0.3375	17.480798	0.000608	6.080634	1.030087	-0.000122
1023	1.0169e+02	-0.3577	17.270867	0.001054	10.539765	1.785485	-0.000211
1024	1.0179e+02	-0.3779	17.089196	0.000912	9.120951	1.545131	-0.000183
1025	1.0189e+02	-0.3977	16.951933	0.000689	6.891385	1.167432	-0.000138
1026	1.0199e+02	-0.4168	16.786410	0.000831	8.310200	1.407786	-0.000166
1027	1.0209e+02	-0.4367	16.641074	0.000730	7.296761	1.236105	-0.000146
1028	1.0219e+02	-0.4568	16.471514	0.000851	8.512887	1.442122	-0.000170
1029	1.0229e+02	-0.4782	16.277731	0.000973	9.729014	1.648140	-0.000195
1030	1.0239e+02	-0.4973	16.132394	0.000730	7.296761	1.236105	-0.000146
1031	1.0248e+02	-0.5170	15.934575	0.000993	9.931702	1.682476	-0.000199
1032	1.0258e+02	-0.5380	15.801349	0.000669	6.688697	1.133096	-0.000134
1033	1.0268e+02	-0.5569	15.631790	0.000851	8.512887	1.442122	-0.000170
1034	1.0278e+02	-0.5766	15.486453	0.000730	7.296761	1.236105	-0.000146
1035	1.0288e+02	-0.5971	15.312856	0.000872	8.715575	1.476458	-0.000174
1036	1.0298e+02	-0.6173	15.155408	0.000790	7.904824	1.339113	-0.000158
1037	1.0308e+02	-0.6369	14.989885	0.000831	8.310200	1.407786	-0.000166
1038	1.0318e+02	-0.6567	14.856660	0.000669	6.688697	1.133096	-0.000134
1039	1.0328e+02	-0.6772	14.679026	0.000892	8.918263	1.510795	-0.000179
1040	1.0338e+02	-0.6966	14.501392	0.000892	8.918263	1.510795	-0.000179
1041	1.0348e+02	-0.7169	14.339906	0.000811	8.107512	1.373450	-0.000162
1042	1.0358e+02	-0.7368	14.174384	0.000831	8.310200	1.407786	-0.000166
1043	1.0368e+02	-0.7566	13.972527	0.001013	10.134390	1.716812	-0.000203
1044	1.0378e+02	-0.7767	13.835264	0.000689	6.891385	1.167432	-0.000138
1045	1.0388e+02	-0.7960	13.653593	0.000912	9.120951	1.545131	-0.000183
1046	1.0398e+02	-0.8162	13.524405	0.000649	6.486009	1.098760	-0.000130
1047	1.0408e+02	-0.8362	13.330622	0.000973	9.729014	1.648140	-0.000195
1048	1.0418e+02	-0.8567	13.189322	0.000709	7.094073	1.201768	-0.000142
1049	1.0428e+02	-0.8760	13.003614	0.000932	9.323639	1.579467	-0.000187
1050	1.0438e+02	-0.8961	12.834055	0.000851	8.512887	1.442122	-0.000170
1051	1.0447e+02	-0.9161	12.668532	0.000831	8.310200	1.407786	-0.000166
1052	1.0457e+02	-0.9361	12.498972	0.000851	8.512887	1.442122	-0.000170
1053	1.0467e+02	-0.9562	12.369784	0.000649	6.486009	1.098760	-0.000130
1054	1.0477e+02	-0.9751	12.188113	0.000912	9.120951	1.545131	-0.000183
1055	1.0487e+02	-0.9956	12.034702	0.000770	7.702136	1.304777	-0.000154
1056	1.0497e+02	-1.0152	11.877253	0.000790	7.904824	1.339113	-0.000158
1057	1.0507e+02	-1.0353	11.675397	0.001013	10.134390	1.716812	-0.000203
1058	1.0517e+02	-1.0558	11.501800	0.000872	8.715575	1.476458	-0.000174
1059	1.0527e+02	-1.0753	11.348389	0.000770	7.702136	1.304777	-0.000154
1060	1.0537e+02	-1.0955	11.190940	0.000790	7.904824	1.339113	-0.000158
1061	1.0547e+02	-1.1155	11.017343	0.000872	8.715575	1.476458	-0.000174
1062	1.0557e+02	-1.1359	10.851821	0.000831	8.310200	1.407786	-0.000166
1063	1.0567e+02	-1.1533	10.710521	0.000709	7.094073	1.201768	-0.000142
1064	1.0577e+02	-1.1752	10.524813	0.000932	9.323639	1.579467	-0.000187
1065	1.0587e+02	-1.1951	10.339105	0.000932	9.323639	1.579467	-0.000187
1066	1.0597e+02	-1.2155	10.197805	0.000709	7.094073	1.201768	-0.000142
1067	1.0607e+02	-1.2336	9.995948	0.001013	10.134390	1.716812	-0.000203
1068	1.0617e+02	-1.2550	9.834463	0.000811	8.107512	1.373450	-0.000162
1069	1.0627e+02	-1.2739	9.697200	0.000689	6.891385	1.167432	-0.000138
1070	1.0637e+02	-1.2939	9.491306	0.001034	10.337078	1.751148	-0.000207
1071	1.0647e+02	-1.3126	9.366155	0.000628	6.283322	1.064424	-0.000126
1072	1.0656e+02	-1.3338	9.156224	0.001054	10.539765	1.785485	-0.000211
1073	1.0666e+02	-1.3544	9.035110	0.000608	6.080634	1.030087	-0.000122
1074	1.0676e+02	-1.3734	8.877661	0.000790	7.904824	1.339113	-0.000158
1075	1.0686e+02	-1.3933	8.687916	0.000953	9.526326	1.613803	-0.000191
1076	1.0696e+02	-1.4139	8.538542	0.000750	7.499448	1.270441	-0.000150
1077	1.0706e+02	-1.4339	8.397242	0.000709	7.094073	1.201768	-0.000142
1078	1.0716e+02	-1.4539	8.211534	0.000932	9.323639	1.579467	-0.000187
1079	1.0726e+02	-1.4733	8.033900	0.000892	8.918263	1.510795	-0.000179
1080	1.0736e+02	-1.4931	7.856266	0.000892	8.918263	1.510795	-0.000179
1081	1.0746e+02	-1.5143	7.658446	0.000993	9.931702	1.682476	-0.000199
1082	1.0756e+02	-1.5335	7.525221	0.000669	6.688697	1.133096	-0.000134
1083	1.0766e+02	-1.5534	7.355661	0.000851	8.512887	1.442122	-0.000170
1084	1.0776e+02	-1.5735	7.210324	0.000730	7.296761	1.236105	-0.000146
1085	1.0786e+02	-1.5920	7.004431	0.001034	10.337078	1.751148	-0.000207
1086	1.0796e+02	-1.6125	6.871205	0.000669	6.688697	1.133096	-0.000134
1087	1.0806e+02	-1.6326	6.713757	0.000790	7.904824	1.339113	-0.000158
1088	1.0816e+02	-1.6533	6.536123	0.000892	8.918263	1.510795	-0.000179
1089	1.0826e+02	-1.6727	6.358489	0.000892	8.918263	1.510795	-0.000179
1090	1.0836e+02	-1.6920	6.201040	0.000790	7.904824	1.339113	-0.000158
1091	1.0845e+02	-1.7128	6.015332	0.000932	9.323639	1.579467	-0.000187
1092	1.0855e+02	-1.7325	5.825587	0.000953	9.526326	1.613803	-0.000191
1093	1.0865e+02	-1.7523	5.704473	0.000608	6.080634	1.030087	-0.000122
1094	1.0875e+02	-1.7735	5.534913	0.000851	8.512887	1.442122	-0.000170
1095	1.0885e+02	-1.7915	5.385539	0.000750	7.499448	1.270441	-0.000150
1096	1.0895e+02	-1.8116	5.203868	0.000912	9.120951	1.545131	-0.000183
1097	1.0905e+02	-1.8316	5.034308	0.000851	8.512887	1.442122	-0.000170
1098	1.0915e+02	-1.8521	4.860711	0.000872	8.715575	1.476458	-0.000174
1099	1.0925e+02	-1.8718	4.707300	0.000770	7.702136	1.304777	-0.000154
1100	1.0935e+02	-1.8923	4.574075	0.000669	6.688697	1.133096	-0.000134
1101	1.0945e+02	-1.9119	4.384329	0.000953	9.526326	1.613803	-0.000191
1102	1.0955e+02	-1.9319	4.222844	0.000811	8.107512	1.373450	-0.000162
1103	1.0965e+02	-1.9519	4.037136	0.000932	9.323639	1.579467	-0.000187
1104	1.0975e+02	-1.9705	3.875650	0.000811	8.107512	1.373450	-0.000162
1105	1.0985e+02	-1.9910	3.726276	0.000750	7.499448	1.270441	-0.000150
1106	1.0995e+02	-2.0115	3.560754	0.000831	8.310200	1.407786	-0.000166
1107	1.1005e+02	-2.0317	3.419454	0.000709	7.094073	1.201768	-0.000142
1108	1.1015e+02	-2.0518	3.245857	0.000872	8.715575	1.476458	-0.000174
1109	1.1025e+02	-2.0706	3.019778	0.001135	11.350517	1.922830	-0.000227
1110	1.1035e+02	-2.0915	2.866366	0.000770	7.702136	1.304777	-0.000154
1111	1.1044e+02	-2.1120	2.712955	0.000770	7.702136	1.304777	-0.000154
1112	1.1054e+02	-2.1306	2.523210	0.000953	9.526326	1.613803	-0.000191
1113	1.1064e+02	-2.1511	2.357687	0.000831	8.310200	1.407786	-0.000166
1114	1.1074e+02	-2.1719	2.180053	0.000892	8.918263	1.510795	-0.000179
1115	1.1084e+02	-2.1902	2.050865	0.000649	6.486009	1.098760	-0.000130
1116	1.1094e+02	-2.2105	1.893417	0.000790	7.904824	1.339113	-0.000158
1117	1.1104e+02	-2.2305	1.703671	0.000953	9.526326	1.613803	-0.000191
1118	1.1114e+02	-2.2508	1.574483	0.000649	6.486009	1.098760	-0.000130
1119	1.1124e+02	-2.2707	1.356478	0.001095	10.945141	1.854157	-0.000219
1120	1.1134e+02	-2.2887	1.215178	0.000709	7.094073	1.201768	-0.000142
1121	1.1144e+02	-2.3099	1.045618	0.000851	8.512887	1.442122	-0.000170
1122	1.1154e+02	-2.3304	0.872021	0.000872	8.715575	1.476458	-0.000174
1123	1.1164e+02	-2.3500	0.690350	0.000912	9.120951	1.545131	-0.000183
1124	1.1174e+02	-2.3705	0.532902	0.000790	7.904824	1.339113	-0.000158
1125	1.1184e+02	-2.3911	0.347194	0.000932	9.323639	1.579467	-0.000187
1126	1.1194e+02	-2.4103	0.213968	0.000669	6.688697	1.133096	-0.000134
1127	1.1204e+02	-2.4306	0.024223	0.000953	9.526326	1.613803	-0.000191
1128	1.1214e+02	-2.4503	-0.096891	0.000608	6.080634	1.030087	-0.000122
1129	1.1224e+02	-2.4695	-0.310859	0.001074	10.742453	1.819821	-0.000215
1130	1.1234e+02	-2.4905	-0.444085	0.000669	6.688697	1.133096	-0.000134
1131	1.1244e+02	-2.5098	-0.625756	0.000912	9.120951	1.545131	-0.000183
1132	1.1253e+02	-2.5291	-0.779167	0.000770	7.702136	1.304777	-0.000154
1133	1.1263e+02	-2.5484	-0.968913	0.000953	9.526326	1.613803	-0.000191
1134	1.1273e+02	-2.5697	-1.102138	0.000669	6.688697	1.133096	-0.000134
1135	1.1283e+02	-2.5888	-1.275735	0.000872	8.715575	1.476458	-0.000174
1136	1.1293e+02	-2.6077	-1.465480	0.000953	9.526326	1.613803	-0.000191
1137	1.1303e+02	-2.6292	-1.622929	0.000790	7.904824	1.339113	-0.000158
1138	1.1313e+02	-2.6489	-1.796525	0.000872	8.715575	1.476458	-0.000174
1139	1.1323e+02	-2.6691	-1.933788	0.000689	6.891385	1.167432	-0.000138
1140	1.1333e+02	-2.6881	-2.071051	0.000689	6.891385	1.167432	-0.000138
1141	1.1343e+02	-2.7084	-2.272907	0.001013	10.134390	1.716812	-0.000203
1142	1.1353e+02	-2.7290	-2.414207	0.000709	7.094073	1.201768	-0.000142
1143	1.1363e+02	-2.7479	-2.571655	0.000790	7.904824	1.339113	-0.000158
1144	1.1373e+02	-2.7688	-2.785624	0.001074	10.742453	1.819821	-0.000215
1145	1.1383e+02	-2.7882	-2.926923	0.000709	7.094073	1.201768	-0.000142
1146	1.1393e+02	-2.8087	-3.108595	0.000912	9.120951	1.545131	-0.000183
1147	1.1403e+02	-2.8286	-3.249894	0.000709	7.094073	1.201768	-0.000142
1148	1.1413e+02	-2.8480	-3.375045	0.000628	6.283322	1.064424	-0.000126
1149	1.1423e+02	-2.8682	-3.564791	0.000953	9.526326	1.613803	-0.000191
1150	1.1433e+02	-2.8877	-3.738388	0.000872	8.715575	1.476458	-0.000174
1151	1.1442e+02	-2.9073	-3.895836	0.000790	7.904824	1.339113	-0.000158
1152	1.1452e+02	-2.9286	-4.049247	0.000770	7.702136	1.304777	-0.000154
1153	1.1462e+02	-2.9474	-4.214770	0.000831	8.310200	1.407786	-0.000166
1154	1.1472e+02	-2.9670	-4.400478	0.000932	9.323639	1.579467	-0.000187
1155	1.1482e+02	-2.9868	-4.561963	0.000811	8.107512	1.373450	-0.000162
1156	1.1492e+02	-3.0069	-4.699226	0.000689	6.891385	1.167432	-0.000138
1157	1.1502e+02	-3.0270	-4.848600	0.000750	7.499448	1.270441	-0.000150
1158	1.1512e+02	-3.0481	-5.034308	0.000932	9.323639	1.579467	-0.000187
1159	1.1522e+02	-3.0675	-5.211942	0.000892	8.918263	1.510795	-0.000179
1160	1.1532e+02	-3.0864	-5.345168	0.000669	6.688697	1.133096	-0.000134
1161	1.1542e+02	-3.1067	-5.514727	0.000851	8.512887	1.442122	-0.000170
1162	1.1552e+02	-3.1274	-5.664101	0.000750	7.499448	1.270441	-0.000150
1163	1.1562e+02	-3.1471	-5.809438	0.000730	7.296761	1.236105	-0.000146
1164	1.1572e+02	-3.1672	-6.003221	0.000973	9.729014	1.648140	-0.000195
1165	1.1582e+02	-3.1862	-6.152595	0.000750	7.499448	1.270441	-0.000150
1166	1.1592e+02	-3.2063	-6.350415	0.000993	9.931702	1.682476	-0.000199
1167	1.1602e+02	-3.2263	-6.459417	0.000547	5.472571	0.927079	-0.000110
1168	1.1612e+02	-3.2463	-6.624940	0.000831	8.310200	1.407786	-0.000166
1169	1.1622e+02	-3.2657	-6.782388	0.000790	7.904824	1.339113	-0.000158
1170	1.1632e+02	-3.2860	-6.919651	0.000689	6.891385	1.167432	-0.000138
1171	1.1642e+02	-3.3067	-7.129582	0.001054	10.539765	1.785485	-0.000211
1172	1.1651e+02	-3.3263	-7.291067	0.000811	8.107512	1.373450	-0.000162
1173	1.1661e+02	-3.3461	-7.432367	0.000709	7.094073	1.201768	-0.000142
1174	1.1671e+02	-3.3666	-7.573667	0.000709	7.094073	1.201768	-0.000142
1175	1.1681e+02	-3.3865	-7.755338	0.000912	9.120951	1.545131	-0.000183
1176	1.1691e+02	-3.4055	-7.896638	0.000709	7.094073	1.201768	-0.000142
1177	1.1701e+02	-3.4258	-8.082346	0.000932	9.323639	1.579467	-0.000187
1178	1.1711e+02	-3.4455	-8.243831	0.000811	8.107512	1.373450	-0.000162
1179	1.1721e+02	-3.4658	-8.409354	0.000831	8.310200	1.407786	-0.000166
1180	1.1731e+02	-3.4859	-8.562765	0.000770	7.702136	1.304777	-0.000154
1181	1.1741e+02	-3.5056	-8.720213	0.000790	7.904824	1.339113	-0.000158
1182	1.1751e+02	-3.5261	-8.873624	0.000770	7.702136	1.304777	-0.000154
1183	1.1761e+02	-3.5461	-9.018961	0.000730	7.296761	1.236105	-0.000146
1184	1.1771e+02	-3.5650	-9.204669	0.000932	9.323639	1.579467	-0.000187
1185	1.1781e+02	-3.5845	-9.382303	0.000892	8.918263	1.510795	-0.000179
1186	1.1791e+02	-3.6057	-9.551863	0.000851	8.512887	1.442122	-0.000170
1187	1.1801e+02	-3.6252	-9.713349	0.000811	8.107512	1.373450	-0.000162
1188	1.1811e+02	-3.6454	-9.866760	0.000770	7.702136	1.304777	-0.000154
1189	1.1821e+02	-3.6649	-10.028245	0.000811	8.107512	1.373450	-0.000162
1190	1.1831e+02	-3.6850	-10.157434	0.000649	6.486009	1.098760	-0.000130
1191	1.1841e+02	-3.7042	-10.339105	0.000912	9.120951	1.545131	-0.000183
1192	1.1850e+02	-3.7248	-10.476367	0.000689	6.891385	1.167432	-0.000138
1193	1.1860e+02	-3.7451	-10.629778	0.000770	7.702136	1.304777	-0.000154
1194	1.1870e+02	-3.7657	-10.775115	0.000730	7.296761	1.236105	-0.000146
1195	1.1880e+02	-3.7848	-10.968898	0.000973	9.729014	1.648140	-0.000195
1196	1.1890e+02	-3.8043	-11.073863	0.000527	5.269883	0.892742	-0.000105
1197	1.1900e+02	-3.8245	-11.251497	0.000892	8.918263	1.510795	-0.000179
1198	1.1910e+02	-3.8432	-11.384723	0.000669	6.688697	1.133096	-0.000134
1199	1.1920e+02	-3.8647	-11.578505	0.000973	9.729014	1.648140	-0.000195
1200	1.1930e+02	-3.8836	-11.719805	0.000709	7.094073	1.201768	-0.000142
1201	1.1940e+02	-3.9035	-11.877253	0.000790	7.904824	1.339113	-0.000158
1202	1.1950e+02	-3.9240	-12.014516	0.000689	6.891385	1.167432	-0.000138
1203	1.1960e+02	-3.9432	-12.200224	0.000932	9.323639	1.579467	-0.000187
1204	1.1970e+02	-3.9636	-12.341524	0.000709	7.094073	1.201768	-0.000142
1205	1.1980e+02	-3.9838	-12.486861	0.000730	7.296761	1.236105	-0.000146
1206	1.1990e+02	-4.0038	-12.660458	0.000872	8.715575	1.476458	-0.000174
1207	1.2000e+02	-4.0231	-12.825980	0.000831	8.310200	1.407786	-0.000166
1208	1.2010e+02	-4.0427	-12.951131	0.000628	6.283322	1.064424	-0.000126
1209	1.2020e+02	-4.0643	-13.100505	0.000750	7.499448	1.270441	-0.000150
1210	1.2030e+02	-4.0825	-13.274102	0.000872	8.715575	1.476458	-0.000174
1211	1.2039e+02	-4.1030	-13.395216	0.000608	6.080634	1.030087	-0.000122
1212	1.2049e+02	-4.1237	-13.621296	0.001135	11.350517	1.922830	-0.000227
1213	1.2059e+02	-4.1425	-13.762596	0.000709	7.094073	1.201768	-0.000142
1214	1.2069e+02	-4.1628	-13.899858	0.000689	6.891385	1.167432	-0.000138
1215	1.2079e+02	-4.1824	-14.085567	0.000932	9.323639	1.579467	-0.000187
1216	1.2089e+02	-4.2027	-14.243015	0.000790	7.904824	1.339113	-0.000158
1217	1.2099e+02	-4.2223	-14.384315	0.000709	7.094073	1.201768	-0.000142
1218	1.2109e+02	-4.2422	-14.557911	0.000872	8.715575	1.476458	-0.000174
1219	1.2119e+02	-4.2632	-14.683063	0.000628	6.283322	1.064424	-0.000126
1220	1.2129e+02	-4.2831	-14.872808	0.000953	9.526326	1.613803	-0.000191
1221	1.2139e+02	-4.3016	-15.034293	0.000811	8.107512	1.373450	-0.000162
1222	1.2149e+02	-4.3220	-15.167519	0.000669	6.688697	1.133096	-0.000134
1223	1.2159e+02	-4.3420	-15.304782	0.000689	6.891385	1.167432	-0.000138
1224	1.2169e+02	-4.3616	-15.494527	0.000953	9.526326	1.613803	-0.000191
1225	1.2179e+02	-4.3827	-15.692347	0.000993	9.931702	1.682476	-0.000199
1226	1.2189e+02	-4.4016	-15.797312	0.000527	5.269883	0.892742	-0.000105
1227	1.2199e+02	-4.4216	-15.966872	0.000851	8.512887	1.442122	-0.000170
1228	1.2209e+02	-4.4415	-16.100097	0.000669	6.688697	1.133096	-0.000134
1229	1.2219e+02	-4.4609	-16.273694	0.000872	8.715575	1.476458	-0.000174
1230	1.2229e+02	-4.4824	-16.439217	0.000831	8.310200	1.407786	-0.000166
1231	1.2239e+02	-4.5014	-16.584554	0.000730	7.296761	1.236105	-0.000146
1232	1.2248e+02	-4.5210	-16.766225	0.000912	9.120951	1.545131	-0.000183
1233	1.2258e+02	-4.5406	-16.911562	0.000730	7.296761	1.236105	-0.000146
1234	1.2268e+02	-4.5612	-17.089196	0.000892	8.918263	1.510795	-0.000179
1235	1.2278e+02	-4.5821	-17.238570	0.000750	7.499448	1.270441	-0.000150
1236	1.2288e+02	-4.6023	-17.387944	0.000750	7.499448	1.270441	-0.000150
1237	1.2298e+02	-4.6211	-17.549429	0.000811	8.107512	1.373450	-0.000162
1238	1.2308e+02	-4.6409	-17.706877	0.000790	7.904824	1.339113	-0.000158
1239	1.2318e+02	-4.6609	-17.827991	0.000608	6.080634	1.030087	-0.000122
1240	1.2328e+02	-4.6808	-18.037922	0.001054	10.539765	1.785485	-0.000211
1241	1.2338e+02	-4.7007	-18.163074	0.000628	6.283322	1.064424	-0.000126
1242	1.2348e+02	-4.7208	-18.368968	0.001034	10.337078	1.751148	-0.000207
1243	1.2358e+02	-4.7415	-18.526416	0.000790	7.904824	1.339113	-0.000158
1244	1.2368e+02	-4.7619	-18.631381	0.000527	5.269883	0.892742	-0.000105
1245	1.2378e+02	-4.7807	-18.800941	0.000851	8.512887	1.442122	-0.000170
1246	1.2388e+02	-4.8012	-18.978575	0.000892	8.918263	1.510795	-0.000179
1247	1.2398e+02	-4.8199	-19.127949	0.000750	7.499448	1.270441	-0.000150
1248	1.2408e+02	-4.8386	-19.301546	0.000872	8.715575	1.476458	-0.000174
1249	1.2418e+02	-4.8602	-19.446883	0.000730	7.296761	1.236105	-0.000146
1250	1.2428e+02	-4.8804	-19.612405	0.000831	8.310200	1.407786	-0.000166
1251	1.2438e+02	-4.9006	-19.713334	0.000507	5.067195	0.858406	-0.000101
1252	1.2447e+02	-4.9207	-19.923265	0.001054	10.539765	1.785485	-0.000211
1253	1.2457e+02	-4.9399	-20.080713	0.000790	7.904824	1.339113	-0.000158
1254	1.2467e+02	-4.9604	-20.234124	0.000770	7.702136	1.304777	-0.000154
1255	1.2477e+02	-4.9802	-20.387535	0.000770	7.702136	1.304777	-0.000154
1256	1.2487e+02	-4.9998	-20.553058	0.000831	8.310200	1.407786	-0.000166
1257	1.2497e+02	-5.0195	-20.694358	0.000709	7.094073	1.201768	-0.000142
1258	1.2507e+02	-5.0394	-20.819509	0.000628	6.283322	1.064424	-0.000126
1259	1.2517e+02	-5.0590	-21.061737	0.001216	12.161268	2.060175	-0.000243
1260	1.2527e+02	-5.0787	-21.186888	0.000628	6.283322	1.064424	-0.000126
1261	1.2537e+02	-5.1022	-21.336262	0.000750	7.499448	1.270441	-0.000150
1262	1.2547e+02	-5.1196	-21.521971	0.000932	9.323639	1.579467	-0.000187
1263	1.2557e+02	-5.1389	-21.683456	0.000811	8.107512	1.373450	-0.000162
1264	1.2567e+02	-5.1578	-21.808607	0.000628	6.283322	1.064424	-0.000126
1265	1.2577e+02	-5.1784	-21.974130	0.000831	8.310200	1.407786	-0.000166
1266	1.2587e+02	-5.1991	-22.139652	0.000831	8.310200	1.407786	-0.000166
1267	1.2597e+02	-5.2191	-22.289026	0.000750	7.499448	1.270441	-0.000150
1268	1.2607e+02	-5.2387	-22.458586	0.000851	8.512887	1.442122	-0.000170
1269	1.2617e+02	-5.2588	-22.591812	0.000669	6.688697	1.133096	-0.000134
1270	1.2627e+02	-5.2780	-22.809817	0.001095	10.945141	1.854157	-0.000219
1271	1.2636e+02	-5.2983	-22.930931	0.000608	6.080634	1.030087	-0.000122
1272	1.2646e+02	-5.3189	-23.120676	0.000953	9.526326	1.613803	-0.000191
1273	1.2656e+02	-5.3381	-23.217568	0.000486	4.864507	0.824070	-0.000097
1274	1.2666e+02	-5.3589	-23.387127	0.000851	8.512887	1.442122	-0.000170
1275	1.2676e+02	-5.3787	-23.560724	0.000872	8.715575	1.476458	-0.000174
1276	1.2686e+02	-5.3984	-23.734321	0.000872	8.715575	1.476458	-0.000174
1277	1.2696e+02	-5.4199	-23.903881	0.000851	8.512887	1.442122	-0.000170
1278	1.2706e+02	-5.4370	-24.057292	0.000770	7.702136	1.304777	-0.000154
1279	1.2716e+02	-5.4572	-24.214740	0.000790	7.904824	1.339113	-0.000158
1280	1.2726e+02	-5.4776	-24.420634	0.001034	10.337078	1.751148	-0.000207
1281	1.2736e+02	-5.4979	-24.565971	0.000730	7.296761	1.236105	-0.000146
1282	1.2746e+02	-5.5171	-24.743605	0.000892	8.918263	1.510795	-0.000179
1283	1.2756e+02	-5.5376	-24.880868	0.000689	6.891385	1.167432	-0.000138
1284	1.2766e+02	-5.5569	-25.050427	0.000851	8.512887	1.442122	-0.000170
1285	1.2776e+02	-5.5779	-25.191727	0.000709	7.094073	1.201768	-0.000142
1286	1.2786e+02	-5.5982	-25.369361	0.000892	8.918263	1.510795	-0.000179
1287	1.2796e+02	-5.6181	-25.538921	0.000851	8.512887	1.442122	-0.000170
1288	1.2806e+02	-5.6371	-25.724629	0.000932	9.323639	1.579467	-0.000187
1289	1.2816e+02	-5.6572	-25.894189	0.000851	8.512887	1.442122	-0.000170
1290	1.2826e+02	-5.6763	-26.047600	0.000770	7.702136	1.304777	-0.000154
1291	1.2835e+02	-5.6966	-26.217159	0.000851	8.512887	1.442122	-0.000170
1292	1.2845e+02	-5.7162	-26.394793	0.000892	8.918263	1.510795	-0.000179
1293	1.2855e+02	-5.7362	-26.528019	0.000669	6.688697	1.133096	-0.000134
1294	1.2865e+02	-5.7561	-26.729876	0.001013	10.134390	1.716812	-0.000203
1295	1.2875e+02	-5.7764	-26.923658	0.000973	9.729014	1.648140	-0.000195
1296	1.2885e+02	-5.7968	-27.056884	0.000669	6.688697	1.133096	-0.000134
1297	1.2895e+02	-5.8162	-27.218369	0.000811	8.107512	1.373450	-0.000162
1298	1.2905e+02	-5.8371	-27.323335	0.000527	5.269883	0.892742	-0.000105
1299	1.2915e+02	-5.8575	-27.581711	0.001297	12.972019	2.197520	-0.000260
1300	1.2925e+02	-5.8761	-27.763382	0.000912	9.120951	1.545131	-0.000183
1301	1.2935e+02	-5.8960	-27.884497	0.000608	6.080634	1.030087	-0.000122
1302	1.2945e+02	-5.9155	-28.070205	0.000932	9.323639	1.579467	-0.000187
1303	1.2955e+02	-5.9361	-28.199393	0.000649	6.486009	1.098760	-0.000130
1304	1.2965e+02	-5.9558	-28.401250	0.001013	10.134390	1.716812	-0.000203
1305	1.2975e+02	-5.9756	-28.562735	0.000811	8.107512	1.373450	-0.000162
1306	1.2985e+02	-5.9970	-28.720184	0.000790	7.904824	1.339113	-0.000158
1307	1.2995e+02	-6.0161	-28.905892	0.000932	9.323639	1.579467	-0.000187
1308	1.3005e+02	-6.0356	-29.083526	0.000892	8.918263	1.510795	-0.000179
1309	1.3015e+02	-6.0552	-29.245011	0.000811	8.107512	1.373450	-0.000162
1310	1.3025e+02	-6.0765	-29.390348	0.000730	7.296761	1.236105	-0.000146
1311	1.3034e+02	-6.0959	-29.543759	0.000770	7.702136	1.304777	-0.000154
1312	1.3044e+02	-6.1154	-29.773876	0.001155	11.553204	1.957166	-0.000231
1313	1.3054e+02	-6.1349	-29.894990	0.000608	6.080634	1.030087	-0.000122
1314	1.3064e+02	-6.1578	-30.092810	0.000993	9.931702	1.682476	-0.000199
1315	1.3074e+02	-6.1751	-30.217961	0.000628	6.283322	1.064424	-0.000126
1316	1.3084e+02	-6.1950	-30.415781	0.000993	9.931702	1.682476	-0.000199
1317	1.3094e+02	-6.2154	-30.617637	0.001013	10.134390	1.716812	-0.000203
1318	1.3104e+02	-6.2346	-30.775086	0.000790	7.904824	1.339113	-0.000158
1319	1.3114e+02	-6.2561	-30.940608	0.000831	8.310200	1.407786	-0.000166
1320	1.3124e+02	-6.2743	-31.094019	0.000770	7.702136	1.304777	-0.000154
1321	1.3134e+02	-6.2943	-31.279728	0.000932	9.323639	1.579467	-0.000187
1322	1.3144e+02	-6.3147	-31.421027	0.000709	7.094073	1.201768	-0.000142
1323	1.3154e+02	-6.3350	-31.630959	0.001054	10.539765	1.785485	-0.000211
1324	1.3164e+02	-6.3544	-31.780333	0.000750	7.499448	1.270441	-0.000150
1325	1.3174e+02	-6.3741	-31.945855	0.000831	8.310200	1.407786	-0.000166
1326	1.3184e+02	-6.3940	-32.147712	0.001013	10.134390	1.716812	-0.000203
1327	1.3194e+02	-6.4143	-32.313234	0.000831	8.310200	1.407786	-0.000166
1328	1.3204e+02	-6.4350	-32.486831	0.000872	8.715575	1.476458	-0.000174
1329	1.3214e+02	-6.4537	-32.688688	0.001013	10.134390	1.716812	-0.000203
1330	1.3224e+02	-6.4745	-32.834025	0.000730	7.296761	1.236105	-0.000146
1331	1.3234e+02	-6.4948	-33.052030	0.001095	10.945141	1.854157	-0.000219
1332	1.3243e+02	-6.5131	-33.177181	0.000628	6.283322	1.064424	-0.000126
1333	1.3253e+02	-6.5335	-33.403261	0.001135	11.350517	1.922830	-0.000227
1334	1.3263e+02	-6.5533	-33.556672	0.000770	7.702136	1.304777	-0.000154
1335	1.3273e+02	-6.5742	-33.722195	0.000831	8.310200	1.407786	-0.000166
1336	1.3283e+02	-6.5936	-33.911940	0.000953	9.526326	1.613803	-0.000191
1337	1.3293e+02	-6.6139	-34.093611	0.000912	9.120951	1.545131	-0.000183
1338	1.3303e+02	-6.6328	-34.283357	0.000953	9.526326	1.613803	-0.000191
1339	1.3313e+02	-6.6530	-34.485213	0.001013	10.134390	1.716812	-0.000203
1340	1.3323e+02	-6.6743	-34.618439	0.000669	6.688697	1.133096	-0.000134
1341	1.3333e+02	-6.6911	-34.812221	0.000973	9.729014	1.648140	-0.000195
1342	1.3343e+02	-6.7133	-34.973707	0.000811	8.107512	1.373450	-0.000162
1343	1.3353e+02	-6.7329	-35.207861	0.001176	11.755892	1.991502	-0.000235
1344	1.3363e+02	-6.7519	-35.385495	0.000892	8.918263	1.510795	-0.000179
1345	1.3373e+02	-6.7728	-35.551017	0.000831	8.310200	1.407786	-0.000166
1346	1.3383e+02	-6.7921	-35.728651	0.000892	8.918263	1.510795	-0.000179
1347	1.3393e+02	-6.8132	-35.938582	0.001054	10.539765	1.785485	-0.000211
1348	1.3403e+02	-6.8332	-36.091993	0.000770	7.702136	1.304777	-0.000154
1349	1.3413e+02	-6.8524	-36.281739	0.000953	9.526326	1.613803	-0.000191
1350	1.3423e+02	-6.8724	-36.495707	0.001074	10.742453	1.819821	-0.000215
1351	1.3432e+02	-6.8930	-36.669304	0.000872	8.715575	1.476458	-0.000174
1352	1.3442e+02	-6.9124	-36.850975	0.000912	9.120951	1.545131	-0.000183
1353	1.3452e+02	-6.9315	-37.077055	0.001135	11.350517	1.922830	-0.000227
1354	1.3462e+02	-6.9517	-37.238540	0.000811	8.107512	1.373450	-0.000162
1355	1.3472e+02	-6.9713	-37.424248	0.000932	9.323639	1.579467	-0.000187
1356	1.3482e+02	-6.9919	-37.618031	0.000973	9.729014	1.648140	-0.000195
1357	1.3492e+02	-7.0112	-37.807776	0.000953	9.526326	1.613803	-0.000191
1358	1.3502e+02	-7.0328	-37.965224	0.000790	7.904824	1.339113	-0.000158
1359	1.3512e+02	-7.0520	-38.150933	0.000932	9.323639	1.579467	-0.000187
1360	1.3522e+02	-7.0747	-38.377012	0.001135	11.350517	1.922830	-0.000227
1361	1.3532e+02	-7.0905	-38.526386	0.000750	7.499448	1.270441	-0.000150
1362	1.3542e+02	-7.1114	-38.716132	0.000953	9.526326	1.613803	-0.000191
1363	1.3552e+02	-7.1320	-38.893766	0.000892	8.918263	1.510795	-0.000179
1364	1.3562e+02	-7.1521	-39.099660	0.001034	10.337078	1.751148	-0.000207
1365	1.3572e+02	-7.1706	-39.325739	0.001135	11.350517	1.922830	-0.000227
1366	1.3582e+02	-7.1921	-39.539707	0.001074	10.742453	1.819821	-0.000215
1367	1.3592e+02	-7.2105	-39.668896	0.000649	6.486009	1.098760	-0.000130
1368	1.3602e+02	-7.2311	-39.882864	0.001074	10.742453	1.819821	-0.000215
1369	1.3612e+02	-7.2513	-40.080684	0.000993	9.931702	1.682476	-0.000199
1370	1.3622e+02	-7.2711	-40.262355	0.000912	9.120951	1.545131	-0.000183
1371	1.3631e+02	-7.2906	-40.460174	0.000993	9.931702	1.682476	-0.000199
1372	1.3641e+02	-7.3114	-40.629734	0.000851	8.512887	1.442122	-0.000170
1373	1.3651e+02	-7.3311	-40.819479	0.000953	9.526326	1.613803	-0.000191
1374	1.3661e+02	-7.3514	-41.033448	0.001074	10.742453	1.819821	-0.000215
1375	1.3671e+02	-7.3695	-41.235304	0.001013	10.134390	1.716812	-0.000203
1376	1.3681e+02	-7.3896	-41.465421	0.001155	11.553204	1.957166	-0.000231
1377	1.3691e+02	-7.4092	-41.618832	0.000770	7.702136	1.304777	-0.000154
1378	1.3701e+02	-7.4307	-41.812615	0.000973	9.729014	1.648140	-0.000195
1379	1.3711e+02	-7.4509	-42.050806	0.001196	11.958580	2.025838	-0.000239
1380	1.3721e+02	-7.4704	-42.204217	0.000770	7.702136	1.304777	-0.000154
1381	1.3731e+02	-7.4905	-42.430297	0.001135	11.350517	1.922830	-0.000227
1382	1.3741e+02	-7.5105	-42.648302	0.001095	10.945141	1.854157	-0.000219
1383	1.3751e+02	-7.5299	-42.829973	0.000912	9.120951	1.545131	-0.000183
1384	1.3761e+02	-7.5497	-43.015681	0.000932	9.323639	1.579467	-0.000187
1385	1.3771e+02	-7.5696	-43.274058	0.001297	12.972019	2.197520	-0.000260
1386	1.3781e+02	-7.5882	-43.443618	0.000851	8.512887	1.442122	-0.000170
1387	1.3791e+02	-7.6083	-43.621252	0.000892	8.918263	1.510795	-0.000179
1388	1.3801e+02	-7.6285	-43.863480	0.001216	12.161268	2.060175	-0.000243
1389	1.3811e+02	-7.6495	-44.069374	0.001034	10.337078	1.751148	-0.000207
1390	1.3821e+02	-7.6688	-44.295453	0.001135	11.350517	1.922830	-0.000227
1391	1.3831e+02	-7.6880	-44.428679	0.000669	6.688697	1.133096	-0.000134
1392	1.3840e+02	-7.7100	-44.719353	0.001459	14.593521	2.472209	-0.000292
1393	1.3850e+02	-7.7290	-44.909098	0.000953	9.526326	1.613803	-0.000191
1394	1.3860e+02	-7.7477	-45.131140	0.001115	11.147829	1.888493	-0.000223
1395	1.3870e+02	-7.7685	-45.316849	0.000932	9.323639	1.579467	-0.000187
1396	1.3880e+02	-7.7884	-45.538891	0.001115	11.147829	1.888493	-0.000223
1397	1.3890e+02	-7.8078	-45.740748	0.001013	10.134390	1.716812	-0.000203
1398	1.3900e+02	-7.8287	-45.999125	0.001297	12.972019	2.197520	-0.000260
1399	1.3910e+02	-7.8476	-46.176759	0.000892	8.918263	1.510795	-0.000179
1400	1.3920e+02	-7.8677	-46.398801	0.001115	11.147829	1.888493	-0.000223
1401	1.3930e+02	-7.8887	-46.636992	0.001196	11.958580	2.025838	-0.000239
1402	1.3940e+02	-7.9083	-46.834812	0.000993	9.931702	1.682476	-0.000199
1403	1.3950e+02	-7.9279	-47.052817	0.001095	10.945141	1.854157	-0.000219
1404	1.3960e+02	-7.9478	-47.286971	0.001176	11.755892	1.991502	-0.000235
1405	1.3970e+02	-7.9666	-47.448456	0.000811	8.107512	1.373450	-0.000162
1406	1.3980e+02	-7.9873	-47.731056	0.001419	14.188146	2.403537	-0.000284
1407	1.3990e+02	-8.0073	-47.940987	0.001054	10.539765	1.785485	-0.000211
1408	1.4000e+02	-8.0270	-48.130732	0.000953	9.526326	1.613803	-0.000191
1409	1.4010e+02	-8.0476	-48.340663	0.001054	10.539765	1.785485	-0.000211
1410	1.4020e+02	-8.0663	-48.574817	0.001176	11.755892	1.991502	-0.000235
1411	1.4029e+02	-8.0875	-48.829157	0.001277	12.769331	2.163183	-0.000256
1412	1.4039e+02	-8.1073	-49.087533	0.001297	12.972019	2.197520	-0.000260
1413	1.4049e+02	-8.1270	-49.309576	0.001115	11.147829	1.888493	-0.000223
1414	1.4059e+02	-8.1482	-49.527581	0.001095	10.945141	1.854157	-0.000219
1415	1.4069e+02	-8.1668	-49.725401	0.000993	9.931702	1.682476	-0.000199
1416	1.4079e+02	-8.1873	-49.995889	0.001358	13.580082	2.300528	-0.000272
1417	1.4089e+02	-8.2071	-50.234080	0.001196	11.958580	2.025838	-0.000239
1418	1.4099e+02	-8.2259	-50.456122	0.001115	11.147829	1.888493	-0.000223
1419	1.4109e+02	-8.2463	-50.686239	0.001155	11.553204	1.957166	-0.000231
1420	1.4119e+02	-8.2661	-50.920393	0.001176	11.755892	1.991502	-0.000235
1421	1.4129e+02	-8.2866	-51.170695	0.001257	12.566643	2.128847	-0.000252
1422	1.4139e+02	-8.3073	-51.392738	0.001115	11.147829	1.888493	-0.000223
1423	1.4149e+02	-8.3267	-51.626892	0.001176	11.755892	1.991502	-0.000235
1424	1.4159e+02	-8.3458	-51.844897	0.001095	10.945141	1.854157	-0.000219
1425	1.4169e+02	-8.3658	-52.075014	0.001155	11.553204	1.957166	-0.000231
1426	1.4179e+02	-8.3862	-52.349539	0.001378	13.782770	2.334864	-0.000276
1427	1.4189e+02	-8.4054	-52.559470	0.001054	10.539765	1.785485	-0.000211
1428	1.4199e+02	-8.4258	-52.805735	0.001236	12.363956	2.094511	-0.000248
1429	1.4209e+02	-8.4467	-53.047964	0.001216	12.161268	2.060175	-0.000243
1430	1.4219e+02	-8.4653	-53.302303	0.001277	12.769331	2.163183	-0.000256
1431	1.4228e+02	-8.4859	-53.516271	0.001074	10.742453	1.819821	-0.000215
1432	1.4238e+02	-8.5057	-53.794834	0.001399	13.985458	2.369201	-0.000280
1433	1.4248e+02	-8.5253	-54.041099	0.001236	12.363956	2.094511	-0.000248
1434	1.4258e+02	-8.5455	-54.291401	0.001257	12.566643	2.128847	-0.000252
1435	1.4268e+02	-8.5654	-54.537667	0.001236	12.363956	2.094511	-0.000248
1436	1.4278e+02	-8.5851	-54.771821	0.001176	11.755892	1.991502	-0.000235
1437	1.4288e+02	-8.6052	-55.010012	0.001196	11.958580	2.025838	-0.000239
1438	1.4298e+02	-8.6250	-55.292611	0.001419	14.188146	2.403537	-0.000284
1439	1.4308e+02	-8.6450	-55.559062	0.001338	13.377395	2.266192	-0.000268
1440	1.4318e+02	-8.6650	-55.809364	0.001257	12.566643	2.128847	-0.000252
1441	1.4328e+02	-8.6850	-56.055630	0.001236	12.363956	2.094511	-0.000248
1442	1.4338e+02	-8.7045	-56.305932	0.001257	12.566643	2.128847	-0.000252
1443	1.4348e+02	-8.7251	-56.564309	0.001297	12.972019	2.197520	-0.000260
1444	1.4358e+02	-8.7457	-56.838834	0.001378	13.782770	2.334864	-0.000276
1445	1.4368e+02	-8.7650	-57.121434	0.001419	14.188146	2.403537	-0.000284
1446	1.4378e+02	-8.7844	-57.371736	0.001257	12.566643	2.128847	-0.000252
1447	1.4388e+02	-8.8052	-57.650298	0.001399	13.985458	2.369201	-0.000280
1448	1.4398e+02	-8.8242	-57.932898	0.001419	14.188146	2.403537	-0.000284
1449	1.4408e+02	-8.8430	-58.239720	0.001540	15.404273	2.609554	-0.000308
1450	1.4418e+02	-8.8643	-58.465800	0.001135	11.350517	1.922830	-0.000227
1451	1.4428e+02	-8.8843	-58.720139	0.001277	12.769331	2.163183	-0.000256
1452	1.4437e+02	-8.9035	-58.982553	0.001317	13.174707	2.231856	-0.000264
1453	1.4447e+02	-8.9244	-59.273227	0.001459	14.593521	2.472209	-0.000292
1454	1.4457e+02	-8.9438	-59.559864	0.001439	14.390834	2.437873	-0.000288
1455	1.4467e+02	-8.9624	-59.894946	0.001682	16.823087	2.849908	-0.000337
1456	1.4477e+02	-8.9828	-60.149285	0.001277	12.769331	2.163183	-0.000256
1457	1.4487e+02	-9.0041	-60.419773	0.001358	13.580082	2.300528	-0.000272
1458	1.4497e+02	-9.0244	-60.730633	0.001561	15.606960	2.643891	-0.000312
1459	1.4507e+02	-9.0433	-61.009195	0.001399	13.985458	2.369201	-0.000280
1460	1.4517e+02	-9.0640	-61.303906	0.001480	14.796209	2.506546	-0.000296
1461	1.4527e+02	-9.0829	-61.570357	0.001338	13.377395	2.266192	-0.000268
1462	1.4537e+02	-9.1037	-61.877179	0.001540	15.404273	2.609554	-0.000308
1463	1.4547e+02	-9.1226	-62.167853	0.001459	14.593521	2.472209	-0.000292
1464	1.4557e+02	-9.1435	-62.442378	0.001378	13.782770	2.334864	-0.000276
1465	1.4567e+02	-9.1625	-62.781498	0.001703	17.025775	2.884244	-0.000341
1466	1.4577e+02	-9.1826	-63.088320	0.001540	15.404273	2.609554	-0.000308
1467	1.4587e+02	-9.2026	-63.362845	0.001378	13.782770	2.334864	-0.000276
1468	1.4597e+02	-9.2224	-63.673705	0.001561	15.606960	2.643891	-0.000312
1469	1.4607e+02	-9.2432	-63.940156	0.001338	13.377395	2.266192	-0.000268
1470	1.4617e+02	-9.2627	-64.263127	0.001622	16.215024	2.746899	-0.000325
1471	1.4626e+02	-9.2831	-64.573986	0.001561	15.606960	2.643891	-0.000312
1472	1.4636e+02	-9.3030	-64.909068	0.001682	16.823087	2.849908	-0.000337
1473	1.4646e+02	-9.3219	-65.211854	0.001520	15.201585	2.575218	-0.000304
1474	1.4656e+02	-9.3416	-65.506564	0.001480	14.796209	2.506546	-0.000296
1475	1.4666e+02	-9.3615	-65.882018	0.001885	18.849965	3.193271	-0.000377
1476	1.4676e+02	-9.3818	-66.188840	0.001540	15.404273	2.609554	-0.000308
1477	1.4686e+02	-9.4013	-66.479514	0.001459	14.593521	2.472209	-0.000292
1478	1.4696e+02	-9.4225	-66.774225	0.001480	14.796209	2.506546	-0.000296
1479	1.4706e+02	-9.4415	-67.121419	0.001743	17.431150	2.952917	-0.000349
1480	1.4716e+02	-9.4608	-67.448427	0.001642	16.417712	2.781236	-0.000329
1481	1.4726e+02	-9.4823	-67.763323	0.001581	15.809648	2.678227	-0.000316
1482	1.4736e+02	-9.5007	-68.138777	0.001885	18.849965	3.193271	-0.000377
1483	1.4746e+02	-9.5213	-68.445599	0.001540	15.404273	2.609554	-0.000308
1484	1.4756e+02	-9.5415	-68.784719	0.001703	17.025775	2.884244	-0.000341
1485	1.4766e+02	-9.5614	-69.148061	0.001824	18.241902	3.090262	-0.000365
1486	1.4776e+02	-9.5818	-69.471032	0.001622	16.215024	2.746899	-0.000325
1487	1.4786e+02	-9.6008	-69.798040	0.001642	16.417712	2.781236	-0.000329
1488	1.4796e+02	-9.6202	-70.157345	0.001804	18.039214	3.055926	-0.000361
1489	1.4806e+02	-9.6407	-70.488390	0.001662	16.620399	2.815572	-0.000333
1490	1.4816e+02	-9.6606	-70.835584	0.001743	17.431150	2.952917	-0.000349
1491	1.4825e+02	-9.6800	-71.178740	0.001723	17.228463	2.918581	-0.000345
1492	1.4835e+02	-9.7006	-71.570342	0.001966	19.660716	3.330615	-0.000394
1493	1.4845e+02	-9.7200	-71.913499	0.001723	17.228463	2.918581	-0.000345
1494	1.4855e+02	-9.7403	-72.224358	0.001561	15.606960	2.643891	-0.000312
1495	1.4865e+02	-9.7610	-72.636146	0.002067	20.674155	3.502297	-0.000414
1496	1.4875e+02	-9.7798	-72.979303	0.001723	17.228463	2.918581	-0.000345
1497	1.4885e+02	-9.7995	-73.342645	0.001824	18.241902	3.090262	-0.000365
1498	1.4895e+02	-9.8206	-73.726173	0.001926	19.255341	3.261943	-0.000385
1499	1.4905e+02	-9.8399	-74.065292	0.001703	17.025775	2.884244	-0.000341
1500	1.4915e+02	-9.8596	-74.469006	0.002027	20.268780	3.433624	-0.000406
1501	1.4925e+02	-9.8799	-74.852534	0.001926	19.255341	3.261943	-0.000385
1502	1.4935e+02	-9.8987	-75.207802	0.001784	17.836526	3.021589	-0.000357
1503	1.4945e+02	-9.9191	-75.627664	0.002108	21.079531	3.570969	-0.000422
1504	1.4955e+02	-9.9400	-75.986969	0.001804	18.039214	3.055926	-0.000361
1505	1.4965e+02	-9.9605	-76.382608	0.001986	19.863404	3.364952	-0.000398
1506	1.4975e+02	-9.9791	-76.778247	0.001986	19.863404	3.364952	-0.000398
1507	1.4985e+02	-9.9997	-77.177924	0.002007	20.066092	3.399288	-0.000402
1508	1.4995e+02	-9.9782	-77.383818	-0.001034	-10.337078	-1.751148	-0.000207
1509	1.5005e+02	-9.9594	-77.577600	-0.000973	-9.729014	-1.648140	-0.000195
1510	1.5015e+02	-9.9388	-77.823866	-0.001236	-12.363956	-2.094511	-0.000248
1511	1.5025e+02	-9.9193	-78.001500	-0.000892	-8.918263	-1.510795	-0.000179
1512	1.5034e+02	-9.9005	-78.150874	-0.000750	-7.499448	-1.270441	-0.000150
1513	1.5044e+02	-9.8813	-78.344656	-0.000973	-9.729014	-1.648140	-0.000195
1514	1.5054e+02	-9.8607	-78.473844	-0.000649	-6.486009	-1.098760	-0.000130
1515	1.5064e+02	-9.8399	-78.619181	-0.000730	-7.296761	-1.236105	-0.000146
1516	1.5074e+02	-9.8206	-78.780667	-0.000811	-8.107512	-1.373450	-0.000162
1517	1.5084e+02	-9.7993	-78.938115	-0.000790	-7.904824	-1.339113	-0.000158
1518	1.5094e+02	-9.7797	-79.087489	-0.000750	-7.499448	-1.270441	-0.000150
1519	1.5104e+02	-9.7606	-79.188418	-0.000507	-5.067195	-0.858406	-0.000101
1520	1.5114e+02	-9.7408	-79.329717	-0.000709	-7.094073	-1.201768	-0.000142
1521	1.5124e+02	-9.7197	-79.410460	-0.000405	-4.053756	-0.686725	-0.000081
1522	1.5134e+02	-9.7001	-79.531574	-0.000608	-6.080634	-1.030087	-0.000122
1523	1.5144e+02	-9.6808	-79.628465	-0.000486	-4.864507	-0.824070	-0.000097
1524	1.5154e+02	-9.6609	-79.773802	-0.000730	-7.296761	-1.236105	-0.000146
1525	1.5164e+02	-9.6407	-79.854545	-0.000405	-4.053756	-0.686725	-0.000081
1526	1.5174e+02	-9.6214	-79.955473	-0.000507	-5.067195	-0.858406	-0.000101
1527	1.5184e+02	-9.6014	-80.048327	-0.000466	-4.661819	-0.789734	-0.000093
1528	1.5194e+02	-9.5816	-80.104847	-0.000284	-2.837629	-0.480707	-0.000057
1529	1.5204e+02	-9.5610	-80.189627	-0.000426	-4.256444	-0.721061	-0.000085
1530	1.5214e+02	-9.5410	-80.274407	-0.000426	-4.256444	-0.721061	-0.000085
1531	1.5224e+02	-9.5216	-80.322853	-0.000243	-2.432254	-0.412035	-0.000049
1532	1.5233e+02	-9.5010	-80.415707	-0.000466	-4.661819	-0.789734	-0.000093
1533	1.5243e+02	-9.4812	-80.480301	-0.000324	-3.243005	-0.549380	-0.000065
1534	1.5253e+02	-9.4613	-80.544895	-0.000324	-3.243005	-0.549380	-0.000065
1535	1.5263e+02	-9.4415	-80.589304	-0.000223	-2.229566	-0.377699	-0.000045
1536	1.5273e+02	-9.4206	-80.657935	-0.000345	-3.445693	-0.583716	-0.000069
1537	1.5283e+02	-9.4013	-80.690232	-0.000162	-1.621502	-0.274690	-0.000032
1538	1.5293e+02	-9.3820	-80.775012	-0.000426	-4.256444	-0.721061	-0.000085
1539	1.5303e+02	-9.3616	-80.754826	0.000101	1.013439	0.171681	0.000020
1540	1.5313e+02	-9.3414	-80.811346	-0.000284	-2.837629	-0.480707	-0.000057
1541	1.5323e+02	-9.3221	-80.835569	-0.000122	-1.216127	-0.206017	-0.000024
1542	1.5333e+02	-9.3024	-80.884015	-0.000243	-2.432254	-0.412035	-0.000049
1543	1.5343e+02	-9.2824	-80.940534	-0.000284	-2.837629	-0.480707	-0.000057
1544	1.5353e+02	-9.2623	-80.932460	0.000041	0.405376	0.068672	0.000008
1545	1.5363e+02	-9.2426	-80.980906	-0.000243	-2.432254	-0.412035	-0.000049
1546	1.5373e+02	-9.2224	-80.988980	-0.000041	-0.405376	-0.068672	-0.000008
1547	1.5383e+02	-9.2020	-81.057611	-0.000345	-3.445693	-0.583716	-0.000069
1548	1.5393e+02	-9.1816	-81.053574	0.000020	0.202688	0.034336	0.000004
1549	1.5403e+02	-9.1635	-81.077797	-0.000122	-1.216127	-0.206017	-0.000024
1550	1.5413e+02	-9.1425	-81.077797	0.000000	0.000000	0.000000	0.000000
1551	1.5422e+02	-9.1226	-81.102020	-0.000122	-1.216127	-0.206017	-0.000024
1552	1.5432e+02	-9.1028	-81.093946	0.000041	0.405376	0.068672	0.000008
1553	1.5442e+02	-9.0831	-81.134317	-0.000203	-2.026878	-0.343362	-0.000041
1554	1.5452e+02	-9.0623	-81.162577	-0.000142	-1.418815	-0.240354	-0.000028
1555	1.5462e+02	-9.0424	-81.162577	0.000000	0.000000	0.000000	0.000000
1556	1.5472e+02	-9.0229	-81.166614	-0.000020	-0.202688	-0.034336	-0.000004
1557	1.5482e+02	-9.0034	-81.186800	-0.000101	-1.013439	-0.171681	-0.000020
1558	1.5492e+02	-8.9838	-81.211023	-0.000122	-1.216127	-0.206017	-0.000024
1559	1.5502e+02	-8.9639	-81.150465	0.000304	3.040317	0.515044	0.000061
1560	1.5512e+02	-8.9433	-81.182763	-0.000162	-1.621502	-0.274690	-0.000032
1561	1.5522e+02	-8.9240	-81.150465	0.000162	1.621502	0.274690	0.000032
1562	1.5532e+02	-8.9030	-81.174688	-0.000122	-1.216127	-0.206017	-0.000024
1563	1.5542e+02	-8.8831	-81.170651	0.000020	0.202688	0.034336	0.000004
1564	1.5552e+02	-8.8642	-81.154503	0.000081	0.810751	0.137345	0.000016
1565	1.5562e+02	-8.8435	-81.134317	0.000101	1.013439	0.171681	0.000020
1566	1.5572e+02	-8.8245	-81.110094	0.000122	1.216127	0.206017	0.000024
1567	1.5582e+02	-8.8054	-81.130280	-0.000101	-1.013439	-0.171681	-0.000020
1568	1.5592e+02	-8.7847	-81.097983	0.000162	1.621502	0.274690	0.000032
1569	1.5602e+02	-8.7641	-81.102020	-0.000020	-0.202688	-0.034336	-0.000004
1570	1.5612e+02	-8.7451	-81.069723	0.000162	1.621502	0.274690	0.000032
1571	1.5622e+02	-8.7227	-81.037426	0.000162	1.621502	0.274690	0.000032
1572	1.5631e+02	-8.7055	-81.033389	0.000020	0.202688	0.034336	0.000004
1573	1.5641e+02	-8.6860	-81.005129	0.000142	1.418815	0.240354	0.000028
1574	1.5651e+02	-8.6653	-80.980906	0.000122	1.216127	0.206017	0.000024
1575	1.5661e+02	-8.6447	-80.936497	0.000223	2.229566	0.377699	0.000045
1576	1.5671e+02	-8.6255	-80.924386	0.000061	0.608063	0.103009	0.000012
1577	1.5681e+02	-8.6053	-80.867866	0.000284	2.837629	0.480707	0.000057
1578	1.5691e+02	-8.5849	-80.863829	0.000020	0.202688	0.034336	0.000004
1579	1.5701e+02	-8.5651	-80.843643	0.000101	1.013439	0.171681	0.000020
1580	1.5711e+02	-8.5448	-80.803272	0.000203	2.026878	0.343362	0.000041
1581	1.5721e+02	-8.5252	-80.775012	0.000142	1.418815	0.240354	0.000028
1582	1.5731e+02	-8.5053	-80.734640	0.000203	2.026878	0.343362	0.000041
1583	1.5741e+02	-8.4854	-80.670046	0.000324	3.243005	0.549380	0.000065
1584	1.5751e+02	-8.4653	-80.657935	0.000061	0.608063	0.103009	0.000012
1585	1.5761e+02	-8.4470	-80.633712	0.000122	1.216127	0.206017	0.000024
1586	1.5771e+02	-8.4254	-80.597378	0.000182	1.824190	0.309026	0.000037
1587	1.5781e+02	-8.4053	-80.569118	0.000142	1.418815	0.240354	0.000028
1588	1.5791e+02	-8.3859	-80.524709	0.000223	2.229566	0.377699	0.000045
1589	1.5801e+02	-8.3655	-80.468190	0.000284	2.837629	0.480707	0.000057
1590	1.5811e+02	-8.3458	-80.387447	0.000405	4.053756	0.686725	0.000081
1591	1.5821e+02	-8.3261	-80.363224	0.000122	1.216127	0.206017	0.000024
1592	1.5830e+02	-8.3071	-80.347075	0.000081	0.810751	0.137345	0.000016
1593	1.5840e+02	-8.2858	-80.270370	0.000385	3.851068	0.652389	0.000077
1594	1.5850e+02	-8.2654	-80.213850	0.000284	2.837629	0.480707	0.000057
1595	1.5860e+02	-8.2465	-80.197701	0.000081	0.810751	0.137345	0.000016
1596	1.5870e+02	-8.2272	-80.137144	0.000304	3.040317	0.515044	0.000061
1597	1.5880e+02	-8.2066	-80.076587	0.000304	3.040317	0.515044	0.000061
1598	1.5890e+02	-8.1866	-80.036216	0.000203	2.026878	0.343362	0.000041
1599	1.5900e+02	-8.1665	-79.975659	0.000304	3.040317	0.515044	0.000061
1600	1.5910e+02	-8.1472	-79.935288	0.000203	2.026878	0.343362	0.000041
1601	1.5920e+02	-8.1259	-79.854545	0.000405	4.053756	0.686725	0.000081
1602	1.5930e+02	-8.1072	-79.810136	0.000223	2.229566	0.377699	0.000045
1603	1.5940e+02	-8.0869	-79.741505	0.000345	3.445693	0.583716	0.000069
1604	1.5950e+02	-8.0678	-79.689022	0.000263	2.634941	0.446371	0.000053
1605	1.5960e+02	-8.0470	-79.652688	0.000182	1.824190	0.309026	0.000037
1606	1.5970e+02	-8.0275	-79.575983	0.000385	3.851068	0.652389	0.000077
1607	1.5980e+02	-8.0089	-79.515425	0.000304	3.040317	0.515044	0.000061
1608	1.5990e+02	-7.9877	-79.491203	0.000122	1.216127	0.206017	0.000024
1609	1.6000e+02	-7.9675	-79.422571	0.000345	3.445693	0.583716	0.000069
1610	1.6010e+02	-7.9487	-79.317606	0.000527	5.269883	0.892742	0.000105
1611	1.6019e+02	-7.9282	-79.305494	0.000061	0.608063	0.103009	0.000012
1612	1.6029e+02	-7.9078	-79.244937	0.000304	3.040317	0.515044	0.000061
1613	1.6039e+02	-7.8877	-79.160158	0.000426	4.256444	0.721061	0.000085
1614	1.6049e+02	-7.8682	-79.115749	0.000223	2.229566	0.377699	0.000045
1615	1.6059e+02	-7.8482	-79.022895	0.000466	4.661819	0.789734	0.000093
1616	1.6069e+02	-7.8287	-78.982524	0.000203	2.026878	0.343362	0.000041
1617	1.6079e+02	-7.8088	-78.897744	0.000426	4.256444	0.721061	0.000085
1618	1.6089e+02	-7.7876	-78.845261	0.000263	2.634941	0.446371	0.000053
1619	1.6099e+02	-7.7680	-78.772593	0.000365	3.648380	0.618052	0.000073
1620	1.6109e+02	-7.7485	-78.691850	0.000405	4.053756	0.686725	0.000081
1621	1.6119e+02	-7.7285	-78.639367	0.000263	2.634941	0.446371	0.000053
1622	1.6129e+02	-7.7097	-78.623218	0.000081	0.810751	0.137345	0.000016
1623	1.6139e+02	-7.6881	-78.530364	0.000466	4.661819	0.789734	0.000093
1624	1.6149e+02	-7.6691	-78.485956	0.000223	2.229566	0.377699	0.000045
1625	1.6159e+02	-7.6494	-78.421362	0.000324	3.243005	0.549380	0.000065
1626	1.6169e+02	-7.6286	-78.328508	0.000466	4.661819	0.789734	0.000093
1627	1.6179e+02	-7.6089	-78.227579	0.000507	5.067195	0.858406	0.000101
1628	1.6189e+02	-7.5883	-78.187208	0.000203	2.026878	0.343362	0.000041
1629	1.6199e+02	-7.5688	-78.114539	0.000365	3.648380	0.618052	0.000073
1630	1.6209e+02	-7.5488	-78.074168	0.000203	2.026878	0.343362	0.000041
1631	1.6219e+02	-7.5304	-77.985351	0.000446	4.459132	0.755397	0.000089
1632	1.6228e+02	-7.5099	-77.908645	0.000385	3.851068	0.652389	0.000077
1633	1.6238e+02	-7.4905	-77.831940	0.000385	3.851068	0.652389	0.000077
1634	1.6248e+02	-7.4704	-77.743123	0.000446	4.459132	0.755397	0.000089
1635	1.6258e+02	-7.4507	-77.662380	0.000405	4.053756	0.686725	0.000081
1636	1.6268e+02	-7.4301	-77.605860	0.000284	2.837629	0.480707	0.000057
1637	1.6278e+02	-7.4104	-77.541266	0.000324	3.243005	0.549380	0.000065
1638	1.6288e+02	-7.3904	-77.452449	0.000446	4.459132	0.755397	0.000089
1639	1.6298e+02	-7.3720	-77.347484	0.000527	5.269883	0.892742	0.000105
1640	1.6308e+02	-7.3502	-77.299038	0.000243	2.432254	0.412035	0.000049
1641	1.6318e+02	-7.3322	-77.214258	0.000426	4.256444	0.721061	0.000085
1642	1.6328e+02	-7.3113	-77.133515	0.000405	4.053756	0.686725	0.000081
1643	1.6338e+02	-7.2906	-77.064884	0.000345	3.445693	0.583716	0.000069
1644	1.6348e+02	-7.2717	-76.972030	0.000466	4.661819	0.789734	0.000093
1645	1.6358e+02	-7.2510	-76.903399	0.000345	3.445693	0.583716	0.000069
1646	1.6368e+02	-7.2311	-76.818619	0.000426	4.256444	0.721061	0.000085
1647	1.6378e+02	-7.2115	-76.737876	0.000405	4.053756	0.686725	0.000081
1648	1.6388e+02	-7.1919	-76.677319	0.000304	3.040317	0.515044	0.000061
1649	1.6398e+02	-7.1714	-76.580428	0.000486	4.864507	0.824070	0.000097
1650	1.6408e+02	-7.1523	-76.519871	0.000304	3.040317	0.515044	0.000061
1651	1.6418e+02	-7.1335	-76.422980	0.000486	4.864507	0.824070	0.000097
1652	1.6427e+02	-7.1121	-76.338200	0.000426	4.256444	0.721061	0.000085
1653	1.6437e+02	-7.0908	-76.245346	0.000466	4.661819	0.789734	0.000093
1654	1.6447e+02	-7.0718	-76.164603	0.000405	4.053756	0.686725	0.000081
1655	1.6457e+02	-7.0514	-76.124231	0.000203	2.026878	0.343362	0.000041
1656	1.6467e+02	-7.0316	-75.999080	0.000628	6.283322	1.064424	0.000126
1657	1.6477e+02	-7.0117	-75.910263	0.000446	4.459132	0.755397	0.000089
1658	1.6487e+02	-6.9922	-75.825483	0.000426	4.256444	0.721061	0.000085
1659	1.6497e+02	-6.9728	-75.728592	0.000486	4.864507	0.824070	0.000097
1660	1.6507e+02	-6.9527	-75.672072	0.000284	2.837629	0.480707	0.000057
1661	1.6517e+02	-6.9331	-75.591330	0.000405	4.053756	0.686725	0.000081
1662	1.6527e+02	-6.9125	-75.522698	0.000345	3.445693	0.583716	0.000069
1663	1.6537e+02	-6.8935	-75.357176	0.000831	8.310200	1.407786	0.000166
1664	1.6547e+02	-6.8732	-75.336990	0.000101	1.013439	0.171681	0.000020
1665	1.6557e+02	-6.8521	-75.195690	0.000709	7.094073	1.201768	0.000142
1666	1.6567e+02	-6.8327	-75.163393	0.000162	1.621502	0.274690	0.000032
1667	1.6577e+02	-6.8129	-75.034205	0.000649	6.486009	1.098760	0.000130
1668	1.6587e+02	-6.7934	-74.973648	0.000304	3.040317	0.515044	0.000061
1669	1.6597e+02	-6.7728	-74.896942	0.000385	3.851068	0.652389	0.000077
1670	1.6607e+02	-6.7532	-74.779865	0.000588	5.877946	0.995751	0.000118
1671	1.6616e+02	-6.7337	-74.699123	0.000405	4.053756	0.686725	0.000081
1672	1.6626e+02	-6.7133	-74.606268	0.000466	4.661819	0.789734	0.000093
1673	1.6636e+02	-6.6934	-74.557823	0.000243	2.432254	0.412035	0.000049
1674	1.6646e+02	-6.6725	-74.444783	0.000568	5.675258	0.961415	0.000114
1675	1.6656e+02	-6.6523	-74.323669	0.000608	6.080634	1.030087	0.000122
1676	1.6666e+02	-6.6331	-74.271186	0.000263	2.634941	0.446371	0.000053
1677	1.6676e+02	-6.6138	-74.194481	0.000385	3.851068	0.652389	0.000077
1678	1.6686e+02	-6.5936	-74.065292	0.000649	6.486009	1.098760	0.000130
1679	1.6696e+02	-6.5732	-73.992624	0.000365	3.648380	0.618052	0.000073
1680	1.6706e+02	-6.5533	-73.911881	0.000405	4.053756	0.686725	0.000081
1681	1.6716e+02	-6.5329	-73.790767	0.000608	6.080634	1.030087	0.000122
1682	1.6726e+02	-6.5133	-73.701950	0.000446	4.459132	0.755397	0.000089
1683	1.6736e+02	-6.4931	-73.661579	0.000203	2.026878	0.343362	0.000041
1684	1.6746e+02	-6.4742	-73.516242	0.000730	7.296761	1.236105	0.000146
1685	1.6756e+02	-6.4539	-73.427425	0.000446	4.459132	0.755397	0.000089
1686	1.6766e+02	-6.4344	-73.338608	0.000446	4.459132	0.755397	0.000089
1687	1.6776e+02	-6.4135	-73.257865	0.000405	4.053756	0.686725	0.000081
1688	1.6786e+02	-6.3940	-73.152900	0.000527	5.269883	0.892742	0.000105
1689	1.6796e+02	-6.3733	-73.064083	0.000446	4.459132	0.755397	0.000089
1690	1.6806e+02	-6.3538	-72.995451	0.000345	3.445693	0.583716	0.000069
1691	1.6816e+02	-6.3344	-72.914709	0.000405	4.053756	0.686725	0.000081
1692	1.6825e+02	-6.3153	-72.749186	0.000831	8.310200	1.407786	0.000166
1693	1.6835e+02	-6.2941	-72.704778	0.000223	2.229566	0.377699	0.000045
1694	1.6845e+02	-6.2743	-72.624035	0.000405	4.053756	0.686725	0.000081
1695	1.6855e+02	-6.2546	-72.547329	0.000385	3.851068	0.652389	0.000077
1696	1.6865e+02	-6.2354	-72.373732	0.000872	8.715575	1.476458	0.000174
1697	1.6875e+02	-6.2140	-72.276841	0.000486	4.864507	0.824070	0.000097
1698	1.6885e+02	-6.1958	-72.159764	0.000588	5.877946	0.995751	0.000118
1699	1.6895e+02	-6.1757	-72.087096	0.000365	3.648380	0.618052	0.000073
1700	1.6905e+02	-6.1549	-71.986167	0.000507	5.067195	0.858406	0.000101
1701	1.6915e+02	-6.1351	-71.885239	0.000507	5.067195	0.858406	0.000101
1702	1.6925e+02	-6.1161	-71.796422	0.000446	4.459132	0.755397	0.000089
1703	1.6935e+02	-6.0953	-71.691456	0.000527	5.269883	0.892742	0.000105
1704	1.6945e+02	-6.0765	-71.570342	0.000608	6.080634	1.030087	0.000122
1705	1.6955e+02	-6.0551	-71.449228	0.000608	6.080634	1.030087	0.000122
1706	1.6965e+02	-6.0357	-71.360411	0.000446	4.459132	0.755397	0.000089
1707	1.6975e+02	-6.0151	-71.255446	0.000527	5.269883	0.892742	0.000105
1708	1.6985e+02	-5.9962	-71.186814	0.000345	3.445693	0.583716	0.000069
1709	1.6995e+02	-5.9756	-71.041478	0.000730	7.296761	1.236105	0.000146
1710	1.7005e+02	-5.9566	-70.940549	0.000507	5.067195	0.858406	0.000101
1711	1.7015e+02	-5.9361	-70.823472	0.000588	5.877946	0.995751	0.000118
1712	1.7024e+02	-5.9169	-70.706395	0.000588	5.877946	0.995751	0.000118
1713	1.7034e+02	-5.8955	-70.597393	0.000547	5.472571	0.927079	0.000110
1714	1.7044e+02	-5.8756	-70.532798	0.000324	3.243005	0.549380	0.000065
1715	1.7054e+02	-5.8572	-70.443981	0.000446	4.459132	0.755397	0.000089
1716	1.7064e+02	-5.8366	-70.310756	0.000669	6.688697	1.133096	0.000134
1717	1.7074e+02	-5.8167	-70.217902	0.000466	4.661819	0.789734	0.000093
1718	1.7084e+02	-5.7965	-70.121011	0.000486	4.864507	0.824070	0.000097
1719	1.7094e+02	-5.7754	-70.040268	0.000405	4.053756	0.686725	0.000081
1720	1.7104e+02	-5.7567	-69.923191	0.000588	5.877946	0.995751	0.000118
1721	1.7114e+02	-5.7372	-69.810151	0.000568	5.675258	0.961415	0.000114
1722	1.7124e+02	-5.7169	-69.685000	0.000628	6.283322	1.064424	0.000126
1723	1.7134e+02	-5.6972	-69.612332	0.000365	3.648380	0.618052	0.000073
1724	1.7144e+02	-5.6770	-69.495255	0.000588	5.877946	0.995751	0.000118
1725	1.7154e+02	-5.6570	-69.370103	0.000628	6.283322	1.064424	0.000126
1726	1.7164e+02	-5.6367	-69.236878	0.000669	6.688697	1.133096	0.000134
1727	1.7174e+02	-5.6176	-69.188432	0.000243	2.432254	0.412035	0.000049
1728	1.7184e+02	-5.5972	-69.055207	0.000669	6.688697	1.133096	0.000134
1729	1.7194e+02	-5.5765	-68.950241	0.000527	5.269883	0.892742	0.000105
1730	1.7204e+02	-5.5578	-68.845276	0.000527	5.269883	0.892742	0.000105
1731	1.7213e+02	-5.5380	-68.728199	0.000588	5.877946	0.995751	0.000118
1732	1.7223e+02	-5.5173	-68.615159	0.000568	5.675258	0.961415	0.000114
1733	1.7233e+02	-5.4968	-68.514231	0.000507	5.067195	0.858406	0.000101
1734	1.7243e+02	-5.4781	-68.413302	0.000507	5.067195	0.858406	0.000101
1735	1.7253e+02	-5.4578	-68.296225	0.000588	5.877946	0.995751	0.000118
1736	1.7263e+02	-5.4381	-68.167037	0.000649	6.486009	1.098760	0.000130
1737	1.7273e+02	-5.4178	-68.058034	0.000547	5.472571	0.927079	0.000110
1738	1.7283e+02	-5.3978	-67.936920	0.000608	6.080634	1.030087	0.000122
1739	1.7293e+02	-5.3783	-67.868289	0.000345	3.445693	0.583716	0.000069
1740	1.7303e+02	-5.3580	-67.755249	0.000568	5.675258	0.961415	0.000114
1741	1.7313e+02	-5.3391	-67.609912	0.000730	7.296761	1.236105	0.000146
1742	1.7323e+02	-5.3188	-67.549355	0.000304	3.040317	0.515044	0.000061
1743	1.7333e+02	-5.2987	-67.383833	0.000831	8.310200	1.407786	0.000166
1744	1.7343e+02	-5.2791	-67.335387	0.000243	2.432254	0.412035	0.000049
1745	1.7353e+02	-5.2585	-67.190050	0.000730	7.296761	1.236105	0.000146
1746	1.7363e+02	-5.2396	-67.077010	0.000568	5.675258	0.961415	0.000114
1747	1.7373e+02	-5.2188	-66.963970	0.000568	5.675258	0.961415	0.000114
1748	1.7383e+02	-5.1994	-66.875154	0.000446	4.459132	0.755397	0.000089
1749	1.7393e+02	-5.1781	-66.774225	0.000507	5.067195	0.858406	0.000101
1750	1.7403e+02	-5.1584	-66.653111	0.000608	6.080634	1.030087	0.000122
1751	1.7413e+02	-5.1383	-66.536034	0.000588	5.877946	0.995751	0.000118
1752	1.7422e+02	-5.1187	-66.410883	0.000628	6.283322	1.064424	0.000126
1753	1.7432e+02	-5.0989	-66.301880	0.000547	5.472571	0.927079	0.000110
1754	1.7442e+02	-5.0797	-66.229212	0.000365	3.648380	0.618052	0.000073
1755	1.7452e+02	-5.0594	-66.063689	0.000831	8.310200	1.407786	0.000166
1756	1.7462e+02	-5.0403	-65.978909	0.000426	4.256444	0.721061	0.000085
1757	1.7472e+02	-5.0197	-65.849721	0.000649	6.486009	1.098760	0.000130
1758	1.7482e+02	-4.9998	-65.756867	0.000466	4.661819	0.789734	0.000093
1759	1.7492e+02	-4.9786	-65.599419	0.000790	7.904824	1.339113	0.000158
1760	1.7502e+02	-4.9600	-65.494453	0.000527	5.269883	0.892742	0.000105
1761	1.7512e+02	-4.9411	-65.369302	0.000628	6.283322	1.064424	0.000126
1762	1.7522e+02	-4.9200	-65.240114	0.000649	6.486009	1.098760	0.000130
1763	1.7532e+02	-4.9004	-65.139185	0.000507	5.067195	0.858406	0.000101
1764	1.7542e+02	-4.8793	-65.026145	0.000568	5.675258	0.961415	0.000114
1765	1.7552e+02	-4.8607	-64.921180	0.000527	5.269883	0.892742	0.000105
1766	1.7562e+02	-4.8400	-64.808140	0.000568	5.675258	0.961415	0.000114
1767	1.7572e+02	-4.8204	-64.715286	0.000466	4.661819	0.789734	0.000093
1768	1.7582e+02	-4.8004	-64.553800	0.000811	8.107512	1.373450	0.000162
1769	1.7592e+02	-4.7807	-64.456909	0.000486	4.864507	0.824070	0.000097
1770	1.7602e+02	-4.7600	-64.315609	0.000709	7.094073	1.201768	0.000142
1771	1.7612e+02	-4.7408	-64.230830	0.000426	4.256444	0.721061	0.000085
1772	1.7621e+02	-4.7208	-64.081456	0.000750	7.499448	1.270441	0.000150
1773	1.7631e+02	-4.7000	-63.964379	0.000588	5.877946	0.995751	0.000118
1774	1.7641e+02	-4.6809	-63.831153	0.000669	6.688697	1.133096	0.000134
1775	1.7651e+02	-4.6615	-63.697928	0.000669	6.688697	1.133096	0.000134
1776	1.7661e+02	-4.6411	-63.617185	0.000405	4.053756	0.686725	0.000081
1777	1.7671e+02	-4.6211	-63.483959	0.000669	6.688697	1.133096	0.000134
1778	1.7681e+02	-4.6008	-63.342660	0.000709	7.094073	1.201768	0.000142
1779	1.7691e+02	-4.5809	-63.253843	0.000446	4.459132	0.755397	0.000089
1780	1.7701e+02	-4.5612	-63.152914	0.000507	5.067195	0.858406	0.000101
1781	1.7711e+02	-4.5409	-63.011615	0.000709	7.094073	1.201768	0.000142
1782	1.7721e+02	-4.5232	-62.922798	0.000446	4.459132	0.755397	0.000089
1783	1.7731e+02	-4.5016	-62.745164	0.000892	8.918263	1.510795	0.000179
1784	1.7741e+02	-4.4821	-62.644235	0.000507	5.067195	0.858406	0.000101
1785	1.7751e+02	-4.4609	-62.527158	0.000588	5.877946	0.995751	0.000118
1786	1.7761e+02	-4.4412	-62.410081	0.000588	5.877946	0.995751	0.000118
1787	1.7771e+02	-4.4215	-62.260707	0.000750	7.499448	1.270441	0.000150
1788	1.7781e+02	-4.4011	-62.159779	0.000507	5.067195	0.858406	0.000101
1789	1.7791e+02	-4.3823	-62.066925	0.000466	4.661819	0.789734	0.000093
1790	1.7801e+02	-4.3622	-61.945811	0.000608	6.080634	1.030087	0.000122
1791	1.7810e+02	-4.3435	-61.812585	0.000669	6.688697	1.133096	0.000134
1792	1.7820e+02	-4.3221	-61.683397	0.000649	6.486009	1.098760	0.000130
1793	1.7830e+02	-4.3027	-61.602654	0.000405	4.053756	0.686725	0.000081
1794	1.7840e+02	-4.2821	-61.469429	0.000669	6.688697	1.133096	0.000134
1795	1.7850e+02	-4.2618	-61.328129	0.000709	7.094073	1.201768	0.000142
1796	1.7860e+02	-4.2421	-61.207015	0.000608	6.080634	1.030087	0.000122
1797	1.7870e+02	-4.2218	-61.093975	0.000568	5.675258	0.961415	0.000114
1798	1.7880e+02	-4.2023	-60.980935	0.000568	5.675258	0.961415	0.000114
1799	1.7890e+02	-4.1823	-60.839636	0.000709	7.094073	1.201768	0.000142
1800	1.7900e+02	-4.1634	-60.702373	0.000689	6.891385	1.167432	0.000138
1801	1.7910e+02	-4.1434	-60.597407	0.000527	5.269883	0.892742	0.000105
1802	1.7920e+02	-4.1222	-60.452071	0.000730	7.296761	1.236105	0.000146
1803	1.7930e+02	-4.1022	-60.379402	0.000365	3.648380	0.618052	0.000073
1804	1.7940e+02	-4.0836	-60.246177	0.000669	6.688697	1.133096	0.000134
1805	1.7950e+02	-4.0638	-60.100840	0.000730	7.296761	1.236105	0.000146
1806	1.7960e+02	-4.0424	-59.951466	0.000750	7.499448	1.270441	0.000150
1807	1.7970e+02	-4.0231	-59.826315	0.000628	6.283322	1.064424	0.000126
1808	1.7980e+02	-4.0032	-59.753646	0.000365	3.648380	0.618052	0.000073
1809	1.7990e+02	-3.9835	-59.584086	0.000851	8.512887	1.442122	0.000170
1810	1.8000e+02	-3.9639	-59.471047	0.000568	5.675258	0.961415	0.000114
1811	1.8009e+02	-3.9438	-59.333784	0.000689	6.891385	1.167432	0.000138
1812	1.8019e+02	-3.9243	-59.204596	0.000649	6.486009	1.098760	0.000130
1813	1.8029e+02	-3.9043	-59.079444	0.000628	6.283322	1.064424	0.000126
1814	1.8039e+02	-3.8850	-58.970442	0.000547	5.472571	0.927079	0.000110
1815	1.8049e+02	-3.8641	-58.825105	0.000730	7.296761	1.236105	0.000146
1816	1.8059e+02	-3.8438	-58.720139	0.000527	5.269883	0.892742	0.000105
1817	1.8069e+02	-3.8253	-58.578840	0.000709	7.094073	1.201768	0.000142
1818	1.8079e+02	-3.8039	-58.485985	0.000466	4.661819	0.789734	0.000093
1819	1.8089e+02	-3.7839	-58.332574	0.000770	7.702136	1.304777	0.000154
1820	1.8099e+02	-3.7656	-58.203386	0.000649	6.486009	1.098760	0.000130
1821	1.8109e+02	-3.7460	-58.070160	0.000669	6.688697	1.133096	0.000134
1822	1.8119e+02	-3.7247	-57.945009	0.000628	6.283322	1.064424	0.000126
1823	1.8129e+02	-3.7054	-57.791598	0.000770	7.702136	1.304777	0.000154
1824	1.8139e+02	-3.6852	-57.662410	0.000649	6.486009	1.098760	0.000130
1825	1.8149e+02	-3.6654	-57.517073	0.000730	7.296761	1.236105	0.000146
1826	1.8159e+02	-3.6446	-57.428256	0.000446	4.459132	0.755397	0.000089
1827	1.8169e+02	-3.6250	-57.274845	0.000770	7.702136	1.304777	0.000154
1828	1.8179e+02	-3.6052	-57.149694	0.000628	6.283322	1.064424	0.000126
1829	1.8189e+02	-3.5851	-57.052802	0.000486	4.864507	0.824070	0.000097
1830	1.8199e+02	-3.5652	-56.919577	0.000669	6.688697	1.133096	0.000134
1831	1.8209e+02	-3.5457	-56.806537	0.000568	5.675258	0.961415	0.000114
1832	1.8218e+02	-3.5258	-56.673311	0.000669	6.688697	1.133096	0.000134
1833	1.8228e+02	-3.5043	-56.467418	0.001034	10.337078	1.751148	0.000207
1834	1.8238e+02	-3.4852	-56.390712	0.000385	3.851068	0.652389	0.000077
1835	1.8248e+02	-3.4657	-56.265561	0.000628	6.283322	1.064424	0.000126
1836	1.8258e+02	-3.4465	-56.096001	0.000851	8.512887	1.442122	0.000170
1837	1.8268e+02	-3.4256	-55.970850	0.000628	6.283322	1.064424	0.000126
1838	1.8278e+02	-3.4057	-55.853773	0.000588	5.877946	0.995751	0.000118
1839	1.8288e+02	-3.3871	-55.668065	0.000932	9.323639	1.579467	0.000187
1840	1.8298e+02	-3.3670	-55.555025	0.000568	5.675258	0.961415	0.000114
1841	1.8308e+02	-3.3467	-55.425837	0.000649	6.486009	1.098760	0.000130
1842	1.8318e+02	-3.3260	-55.292611	0.000669	6.688697	1.133096	0.000134
1843	1.8328e+02	-3.3066	-55.207831	0.000426	4.256444	0.721061	0.000085
1844	1.8338e+02	-3.2861	-55.030197	0.000892	8.918263	1.510795	0.000179
1845	1.8348e+02	-3.2660	-54.929269	0.000507	5.067195	0.858406	0.000101
1846	1.8358e+02	-3.2471	-54.743561	0.000932	9.323639	1.579467	0.000187
1847	1.8368e+02	-3.2268	-54.650706	0.000466	4.661819	0.789734	0.000093
1848	1.8378e+02	-3.2060	-54.485184	0.000831	8.310200	1.407786	0.000166
1849	1.8388e+02	-3.1868	-54.400404	0.000426	4.256444	0.721061	0.000085
1850	1.8398e+02	-3.1670	-54.242956	0.000790	7.904824	1.339113	0.000158
1851	1.8407e+02	-3.1468	-54.117805	0.000628	6.283322	1.064424	0.000126
1852	1.8417e+02	-3.1281	-53.952282	0.000831	8.310200	1.407786	0.000166
1853	1.8427e+02	-3.1070	-53.871539	0.000405	4.053756	0.686725	0.000081
1854	1.8437e+02	-3.0878	-53.689868	0.000912	9.120951	1.545131	0.000183
1855	1.8447e+02	-3.0669	-53.556643	0.000669	6.688697	1.133096	0.000134
1856	1.8457e+02	-3.0476	-53.455714	0.000507	5.067195	0.858406	0.000101
1857	1.8467e+02	-3.0267	-53.270006	0.000932	9.323639	1.579467	0.000187
1858	1.8477e+02	-3.0073	-53.144855	0.000628	6.283322	1.064424	0.000126
1859	1.8487e+02	-2.9874	-53.011629	0.000669	6.688697	1.133096	0.000134
1860	1.8497e+02	-2.9684	-52.918775	0.000466	4.661819	0.789734	0.000093
1861	1.8507e+02	-2.9475	-52.777476	0.000709	7.094073	1.201768	0.000142
1862	1.8517e+02	-2.9276	-52.632139	0.000730	7.296761	1.236105	0.000146
1863	1.8527e+02	-2.9075	-52.474690	0.000790	7.904824	1.339113	0.000158
1864	1.8537e+02	-2.8882	-52.317242	0.000790	7.904824	1.339113	0.000158
1865	1.8547e+02	-2.8683	-52.228425	0.000446	4.459132	0.755397	0.000089
1866	1.8557e+02	-2.8500	-52.042717	0.000932	9.323639	1.579467	0.000187
1867	1.8567e+02	-2.8282	-51.893343	0.000750	7.499448	1.270441	0.000150
1868	1.8577e+02	-2.8079	-51.784340	0.000547	5.472571	0.927079	0.000110
1869	1.8587e+02	-2.7878	-51.606706	0.000892	8.918263	1.510795	0.000179
1870	1.8597e+02	-2.7685	-51.481555	0.000628	6.283322	1.064424	0.000126
1871	1.8606e+02	-2.7487	-51.320070	0.000811	8.107512	1.373450	0.000162
1872	1.8616e+02	-2.7292	-51.186844	0.000669	6.688697	1.133096	0.000134
1873	1.8626e+02	-2.7075	-51.029396	0.000790	7.904824	1.339113	0.000158
1874	1.8636e+02	-2.6886	-50.900207	0.000649	6.486009	1.098760	0.000130
1875	1.8646e+02	-2.6686	-50.742759	0.000790	7.904824	1.339113	0.000158
1876	1.8656e+02	-2.6488	-50.585311	0.000790	7.904824	1.339113	0.000158
1877	1.8666e+02	-2.6289	-50.444011	0.000709	7.094073	1.201768	0.000142
1878	1.8676e+02	-2.6071	-50.355194	0.000446	4.459132	0.755397	0.000089
1879	1.8686e+02	-2.5893	-50.177560	0.000892	8.918263	1.510795	0.000179
1880	1.8696e+02	-2.5698	-50.016075	0.000811	8.107512	1.373450	0.000162
1881	1.8706e+02	-2.5487	-49.866701	0.000750	7.499448	1.270441	0.000150
1882	1.8716e+02	-2.5293	-49.765772	0.000507	5.067195	0.858406	0.000101
1883	1.8726e+02	-2.5101	-49.632547	0.000669	6.688697	1.133096	0.000134
1884	1.8736e+02	-2.4897	-49.487210	0.000730	7.296761	1.236105	0.000146
1885	1.8746e+02	-2.4702	-49.345910	0.000709	7.094073	1.201768	0.000142
1886	1.8756e+02	-2.4503	-49.184425	0.000811	8.107512	1.373450	0.000162
1887	1.8766e+02	-2.4303	-49.002754	0.000912	9.120951	1.545131	0.000183
1888	1.8776e+02	-2.4091	-48.869528	0.000669	6.688697	1.133096	0.000134
1889	1.8786e+02	-2.3899	-48.708043	0.000811	8.107512	1.373450	0.000162
1890	1.8796e+02	-2.3706	-48.623263	0.000426	4.256444	0.721061	0.000085
1891	1.8806e+02	-2.3511	-48.417369	0.001034	10.337078	1.751148	0.000207
1892	1.8815e+02	-2.3303	-48.308366	0.000547	5.472571	0.927079	0.000110
1893	1.8825e+02	-2.3109	-48.175141	0.000669	6.688697	1.133096	0.000134
1894	1.8835e+02	-2.2911	-47.993470	0.000912	9.120951	1.545131	0.000183
1895	1.8845e+02	-2.2704	-47.856207	0.000689	6.891385	1.167432	0.000138
1896	1.8855e+02	-2.2518	-47.682610	0.000872	8.715575	1.476458	0.000174
1897	1.8865e+02	-2.2301	-47.593793	0.000446	4.459132	0.755397	0.000089
1898	1.8875e+02	-2.2102	-47.464605	0.000649	6.486009	1.098760	0.000130
1899	1.8885e+02	-2.1918	-47.282934	0.000912	9.120951	1.545131	0.000183
1900	1.8895e+02	-2.1706	-47.165857	0.000588	5.877946	0.995751	0.000118
1901	1.8905e+02	-2.1507	-46.988223	0.000892	8.918263	1.510795	0.000179
1902	1.8915e+02	-2.1305	-46.854997	0.000669	6.688697	1.133096	0.000134
1903	1.8925e+02	-2.1117	-46.705623	0.000750	7.499448	1.270441	0.000150
1904	1.8935e+02	-2.0908	-46.536064	0.000851	8.512887	1.442122	0.000170
1905	1.8945e+02	-2.0712	-46.382652	0.000770	7.702136	1.304777	0.000154
1906	1.8955e+02	-2.0517	-46.293836	0.000446	4.459132	0.755397	0.000089
1907	1.8965e+02	-2.0309	-46.108127	0.000932	9.323639	1.579467	0.000187
1908	1.8975e+02	-2.0115	-45.934530	0.000872	8.715575	1.476458	0.000174
1909	1.8985e+02	-1.9918	-45.793231	0.000709	7.094073	1.201768	0.000142
1910	1.8995e+02	-1.9727	-45.627708	0.000831	8.310200	1.407786	0.000166
1911	1.9004e+02	-1.9518	-45.522743	0.000527	5.269883	0.892742	0.000105
1912	1.9014e+02	-1.9320	-45.349146	0.000872	8.715575	1.476458	0.000174
1913	1.9024e+02	-1.9126	-45.223995	0.000628	6.283322	1.064424	0.000126
1914	1.9034e+02	-1.8916	-45.066546	0.000790	7.904824	1.339113	0.000158
1915	1.9044e+02	-1.8736	-44.901024	0.000831	8.310200	1.407786	0.000166
1916	1.9054e+02	-1.8526	-44.779910	0.000608	6.080634	1.030087	0.000122
1917	1.9064e+02	-1.8330	-44.578053	0.001013	10.134390	1.716812	0.000203
1918	1.9074e+02	-1.8124	-44.432716	0.000730	7.296761	1.236105	0.000146
1919	1.9084e+02	-1.7923	-44.335825	0.000486	4.864507	0.824070	0.000097
1920	1.9094e+02	-1.7733	-44.133968	0.001013	10.134390	1.716812	0.000203
1921	1.9104e+02	-1.7522	-44.008817	0.000628	6.283322	1.064424	0.000126
1922	1.9114e+02	-1.7327	-43.871554	0.000689	6.891385	1.167432	0.000138
1923	1.9124e+02	-1.7128	-43.701994	0.000851	8.512887	1.442122	0.000170
1924	1.9134e+02	-1.6931	-43.568769	0.000669	6.688697	1.133096	0.000134
1925	1.9144e+02	-1.6734	-43.342689	0.001135	11.350517	1.922830	0.000227
1926	1.9154e+02	-1.6523	-43.257909	0.000426	4.256444	0.721061	0.000085
1927	1.9164e+02	-1.6335	-43.068164	0.000953	9.526326	1.613803	0.000191
1928	1.9174e+02	-1.6129	-42.926864	0.000709	7.094073	1.201768	0.000142
1929	1.9184e+02	-1.5928	-42.773453	0.000770	7.702136	1.304777	0.000154
1930	1.9194e+02	-1.5729	-42.603893	0.000851	8.512887	1.442122	0.000170
1931	1.9203e+02	-1.5532	-42.454519	0.000750	7.499448	1.270441	0.000150
1932	1.9213e+02	-1.5334	-42.345517	0.000547	5.472571	0.927079	0.000110
1933	1.9223e+02	-1.5137	-42.163846	0.000912	9.120951	1.545131	0.000183
1934	1.9233e+02	-1.4929	-42.010434	0.000770	7.702136	1.304777	0.000154
1935	1.9243e+02	-1.4732	-41.848949	0.000811	8.107512	1.373450	0.000162
1936	1.9253e+02	-1.4542	-41.695538	0.000770	7.702136	1.304777	0.000154
1937	1.9263e+02	-1.4342	-41.542127	0.000770	7.702136	1.304777	0.000154
1938	1.9273e+02	-1.4128	-41.376604	0.000831	8.310200	1.407786	0.000166
1939	1.9283e+02	-1.3947	-41.203007	0.000872	8.715575	1.476458	0.000174
1940	1.9293e+02	-1.3736	-41.073819	0.000649	6.486009	1.098760	0.000130
1941	1.9303e+02	-1.3544	-40.912334	0.000811	8.107512	1.373450	0.000162
1942	1.9313e+02	-1.3348	-40.758922	0.000770	7.702136	1.304777	0.000154
1943	1.9323e+02	-1.3142	-40.605511	0.000770	7.702136	1.304777	0.000154
1944	1.9333e+02	-1.2946	-40.439989	0.000831	8.310200	1.407786	0.000166
1945	1.9343e+02	-1.2743	-40.302726	0.000689	6.891385	1.167432	0.000138
1946	1.9353e+02	-1.2550	-40.108944	0.000973	9.729014	1.648140	0.000195
1947	1.9363e+02	-1.2355	-40.032238	0.000385	3.851068	0.652389	0.000077
1948	1.9373e+02	-1.2145	-39.850567	0.000912	9.120951	1.545131	0.000183
1949	1.9383e+02	-1.1945	-39.664859	0.000932	9.323639	1.579467	0.000187
1950	1.9393e+02	-1.1743	-39.580079	0.000426	4.256444	0.721061	0.000085
1951	1.9403e+02	-1.1556	-39.394371	0.000932	9.323639	1.579467	0.000187
1952	1.9412e+02	-1.1352	-39.232885	0.000811	8.107512	1.373450	0.000162
1953	1.9422e+02	-1.1153	-39.091585	0.000709	7.094073	1.201768	0.000142
1954	1.9432e+02	-1.0954	-38.905877	0.000932	9.323639	1.579467	0.000187
1955	1.9442e+02	-1.0756	-38.760540	0.000730	7.296761	1.236105	0.000146
1956	1.9452e+02	-1.0549	-38.635389	0.000628	6.283322	1.064424	0.000126
1957	1.9462e+02	-1.0355	-38.473904	0.000811	8.107512	1.373450	0.000162
1958	1.9472e+02	-1.0161	-38.320492	0.000770	7.702136	1.304777	0.000154
1959	1.9482e+02	-0.9954	-38.142858	0.000892	8.918263	1.510795	0.000179
1960	1.9492e+02	-0.9743	-38.009633	0.000669	6.688697	1.133096	0.000134
1961	1.9502e+02	-0.9553	-37.823925	0.000932	9.323639	1.579467	0.000187
1962	1.9512e+02	-0.9352	-37.670514	0.000770	7.702136	1.304777	0.000154
1963	1.9522e+02	-0.9156	-37.521140	0.000750	7.499448	1.270441	0.000150
1964	1.9532e+02	-0.8952	-37.363691	0.000790	7.904824	1.339113	0.000158
1965	1.9542e+02	-0.8753	-37.182020	0.000912	9.120951	1.545131	0.000183
1966	1.9552e+02	-0.8569	-37.044758	0.000689	6.891385	1.167432	0.000138
1967	1.9562e+02	-0.8356	-36.871161	0.000872	8.715575	1.476458	0.000174
1968	1.9572e+02	-0.8165	-36.746009	0.000628	6.283322	1.064424	0.000126
1969	1.9582e+02	-0.7975	-36.592598	0.000770	7.702136	1.304777	0.000154
1970	1.9592e+02	-0.7759	-36.406890	0.000932	9.323639	1.579467	0.000187
1971	1.9601e+02	-0.7571	-36.253479	0.000770	7.702136	1.304777	0.000154
1972	1.9611e+02	-0.7363	-36.075845	0.000892	8.918263	1.510795	0.000179
1973	1.9621e+02	-0.7167	-35.938582	0.000689	6.891385	1.167432	0.000138
1974	1.9631e+02	-0.6981	-35.781134	0.000790	7.904824	1.339113	0.000158
1975	1.9641e+02	-0.6774	-35.623686	0.000790	7.904824	1.339113	0.000158
1976	1.9651e+02	-0.6566	-35.446052	0.000892	8.918263	1.510795	0.000179
1977	1.9661e+02	-0.6361	-35.292641	0.000770	7.702136	1.304777	0.000154
1978	1.9671e+02	-0.6165	-35.151341	0.000709	7.094073	1.201768	0.000142
1979	1.9681e+02	-0.5972	-34.985818	0.000831	8.310200	1.407786	0.000166
1980	1.9691e+02	-0.5772	-34.792036	0.000973	9.729014	1.648140	0.000195
1981	1.9701e+02	-0.5572	-34.699182	0.000466	4.661819	0.789734	0.000093
1982	1.9711e+02	-0.5372	-34.497325	0.001013	10.134390	1.716812	0.000203
1983	1.9721e+02	-0.5174	-34.339877	0.000790	7.904824	1.339113	0.000158
1984	1.9731e+02	-0.4984	-34.222800	0.000588	5.877946	0.995751	0.000118
1985	1.9741e+02	-0.4773	-34.008831	0.001074	10.742453	1.819821	0.000215
1986	1.9751e+02	-0.4576	-33.867532	0.000709	7.094073	1.201768	0.000142
1987	1.9761e+02	-0.4370	-33.718158	0.000750	7.499448	1.270441	0.000150
1988	1.9771e+02	-0.4174	-33.532449	0.000932	9.323639	1.579467	0.000187
1989	1.9781e+02	-0.3970	-33.383075	0.000750	7.499448	1.270441	0.000150
1990	1.9791e+02	-0.3782	-33.245813	0.000689	6.891385	1.167432	0.000138
1991	1.9800e+02	-0.3582	-33.076253	0.000851	8.512887	1.442122	0.000170
1992	1.9810e+02	-0.3387	-32.918805	0.000790	7.904824	1.339113	0.000158
1993	1.9820e+02	-0.3179	-32.757319	0.000811	8.107512	1.373450	0.000162
1994	1.9830e+02	-0.2982	-32.575648	0.000912	9.120951	1.545131	0.000183
1995	1.9840e+02	-0.2776	-32.402051	0.000872	8.715575	1.476458	0.000174
1996	1.9850e+02	-0.2587	-32.289012	0.000568	5.675258	0.961415	0.000114
1997	1.9860e+02	-0.2386	-32.075043	0.001074	10.742453	1.819821	0.000215
1998	1.9870e+02	-0.2190	-31.933744	0.000709	7.094073	1.201768	0.000142
1999	1.9880e+02	-0.1986	-31.768221	0.000831	8.310200	1.407786	0.000166
2000	1.9890e+02	-0.1791	-31.606736	0.000811	8.107512	1.373450	0.000162
2001	1.9900e+02	-0.1589	-31.429102	0.000892	8.918263	1.510795	0.000179
2002	1.9910e+02	-0.1387	-31.287802	0.000709	7.094073	1.201768	0.000142
2003	1.9920e+02	-0.1184	-31.138428	0.000750	7.499448	1.270441	0.000150
2004	1.9930e+02	-0.0983	-30.972905	0.000831	8.310200	1.407786	0.000166
2005	1.9940e+02	-0.0787	-30.795271	0.000892	8.918263	1.510795	0.000179
2006	1.9950e+02	-0.0592	-30.641860	0.000770	7.702136	1.304777	0.000154
2007	1.9960e+02	-0.0388	-30.480375	0.000811	8.107512	1.373450	0.000162
2008	1.9970e+02	-0.0192	-30.347149	0.000669	6.688697	1.133096	0.000134
2009	1.9980e+02	-0.0002	-30.125107	0.000669	6.688697	1.133096	0.000223

PMax (uC/cm2):	6.78e+01
Pr (uC/cm2):	6.87e+00
-Pr (uC/cm2):	-4.35e+01
PLoss (uC/cm2):	-4.35e+01
-Vc:	-8.32e-01
C (Max-Eff) (nF):	6.79e-01
K (Eff):	1.15e+03
Vert. (+/-Pr) Shift (uC/cm2):	-1.83e+01
Offset (uC/cm2):	-1.34e+01

A (Loop Area - uC/cm2·Volts):	-1.74e-01



Hysteresis Version: 5.48.1 - Radiant Technologies, Inc., 1999 - 9/12/24

