»»»»»»»»»»»»»»»»»»»»»»»»»»»»»»»»»»»» Hysteresis ««««««««««««««««««««««««««««««««««««
»»»  Executed Version:	5.48.1
»»»  Vision Version:	5.48.4 (R)
»»»  Vision Compiled:	9/18/24
»»»  Driver Version:	5.47.0
»»»  Windows Version:	Windows 8 or 8.1
»»»  Processor Information:	x86 (AMD or Intel) - 32 Processors
»»»  Tester Name:	PMF21124-494 (100V)
»»»  Tester S/N:	PMF21124-494
»»»  Internal Amp Type:	100V RevK 270k
»»»  Internal Amp S/N:	iAB2-596/K     
»»»  Execution Count:	1
»»»»»»»»»»»»»»»»»»»»»»»»»»»»»»»»»»»»»»»»»»««««««««««««««««««««««««««««««««««««««««««

Stored:	7/1/2025 - 15:7:7
Configured:	07/01/25 10:49:51 AM
Executed:	07/01/25 03:06:09 PM

»»»»»»»»»»»»»»»»»»»»»»»»»»»»»»»»»»» Sample Info ««««««««««««««««««««««««««««««««««««
Sample Name:	
Lot Name:	
Wafer Name:	
Die Row/Column:	0/0
Capacitor Number:	0
Sample Area (cm2):	1.00e-04
Sample Thickness (microns):	1.50e-01

Amplifier:	Internal

»»»»»»»»»»»»»»»»»»»»»»»»»»»»»»»»»»» Tester Info «««««««««««««««««««««««««««««««««««
Tester Name:	PMF21124-494 (100V)
Tester Serial Number:	PMF21124-494
Return Signal Amp. Level:	0.19 [Index: 3]

»»»»»»»»»»»»»»»»»»»»»»»»»»»»»»»» Hysteresis Info ««««««««««««««««««««««««««««««««««
Task Name:	Hyst-22
Volts:	10.00
Field:	666.67 (kV/cm)
DCBias:	0.00
DCField:	0.00 (kV/cm)
Hysteresis Period (ms):	2.00e+02
Preset:	Enabled
Preset Delay (ms):	1.00e+03
Profile:	Standard Bipolar

»»»»»»»»»»»»»»»»»»»»»»»»»»»»»»»»»»»»»» Data «««««««««««««««««««««««««««««««««««««««
Points:	2009

Valid Data

Point	Time (ms)	Drive Voltage	Measured Polarization (uC/cm2)	Capacitance (uF)	Normalized Capacitance (uF/cm2)	Dielectric Constant	Instantaneous Current (mA)
   1	0.0000e+00	0.0004	24.107756	0.000750	7.500150	1.270560	0.000150
   2	9.9500e-02	0.0199	24.257130	0.000750	7.500150	1.270560	0.000150
   3	1.9900e-01	0.0386	24.354021	0.000486	4.864962	0.824147	0.000097
   4	2.9850e-01	0.0587	24.446875	0.000466	4.662255	0.789807	0.000093
   5	3.9800e-01	0.0795	24.531655	0.000426	4.256842	0.721128	0.000085
   6	4.9750e-01	0.0991	24.660844	0.000649	6.486616	1.098862	0.000130
   7	5.9700e-01	0.1188	24.781958	0.000608	6.081202	1.030184	0.000122
   8	6.9650e-01	0.1386	24.907109	0.000628	6.283909	1.064523	0.000126
   9	7.9600e-01	0.1600	25.008037	0.000507	5.067669	0.858486	0.000101
  10	8.9550e-01	0.1782	25.084743	0.000385	3.851428	0.652450	0.000077
  11	9.9500e-01	0.1979	25.234117	0.000750	7.500150	1.270560	0.000150
  12	1.0945e+00	0.2185	25.294674	0.000304	3.040601	0.515092	0.000061
  13	1.1940e+00	0.2380	25.440011	0.000730	7.297443	1.236220	0.000146
  14	1.2935e+00	0.2582	25.536902	0.000486	4.864962	0.824147	0.000097
  15	1.3930e+00	0.2779	25.653979	0.000588	5.878496	0.995844	0.000118
  16	1.4925e+00	0.2982	25.779130	0.000628	6.283909	1.064523	0.000126
  17	1.5920e+00	0.3168	25.884096	0.000527	5.270375	0.892826	0.000105
  18	1.6915e+00	0.3373	25.968876	0.000426	4.256842	0.721128	0.000085
  19	1.7910e+00	0.3571	26.057693	0.000446	4.459548	0.755468	0.000089
  20	1.8905e+00	0.3778	26.198992	0.000709	7.094736	1.201881	0.000142
  21	1.9900e+00	0.3986	26.328181	0.000649	6.486616	1.098862	0.000130
  22	2.0895e+00	0.4169	26.425072	0.000486	4.864962	0.824147	0.000097
  23	2.1890e+00	0.4375	26.521963	0.000486	4.864962	0.824147	0.000097
  24	2.2885e+00	0.4588	26.667300	0.000730	7.297443	1.236220	0.000146
  25	2.3880e+00	0.4773	26.752080	0.000426	4.256842	0.721128	0.000085
  26	2.4875e+00	0.4976	26.881268	0.000649	6.486616	1.098862	0.000130
  27	2.5870e+00	0.5163	26.957974	0.000385	3.851428	0.652450	0.000077
  28	2.6865e+00	0.5367	27.087162	0.000649	6.486616	1.098862	0.000130
  29	2.7860e+00	0.5582	27.200202	0.000568	5.675789	0.961505	0.000114
  30	2.8855e+00	0.5769	27.305168	0.000527	5.270375	0.892826	0.000105
  31	2.9850e+00	0.5968	27.434356	0.000649	6.486616	1.098862	0.000130
  32	3.0845e+00	0.6172	27.535284	0.000507	5.067669	0.858486	0.000101
  33	3.1840e+00	0.6373	27.668510	0.000669	6.689323	1.133202	0.000134
  34	3.2835e+00	0.6554	27.777512	0.000547	5.473082	0.927165	0.000110
  35	3.3830e+00	0.6771	27.878441	0.000507	5.067669	0.858486	0.000101
  36	3.4825e+00	0.6966	27.975332	0.000486	4.864962	0.824147	0.000097
  37	3.5820e+00	0.7169	28.108558	0.000669	6.689323	1.133202	0.000134
  38	3.6815e+00	0.7368	28.257932	0.000750	7.500150	1.270560	0.000150
  39	3.7810e+00	0.7555	28.350786	0.000466	4.662255	0.789807	0.000093
  40	3.8805e+00	0.7766	28.447677	0.000486	4.864962	0.824147	0.000097
  41	3.9800e+00	0.7966	28.548605	0.000507	5.067669	0.858486	0.000101
  42	4.0795e+00	0.8166	28.677794	0.000649	6.486616	1.098862	0.000130
  43	4.1790e+00	0.8352	28.798908	0.000608	6.081202	1.030184	0.000122
  44	4.2785e+00	0.8563	28.907910	0.000547	5.473082	0.927165	0.000110
  45	4.3780e+00	0.8759	29.024987	0.000588	5.878496	0.995844	0.000118
  46	4.4775e+00	0.8947	29.170324	0.000730	7.297443	1.236220	0.000146
  47	4.5770e+00	0.9159	29.287401	0.000588	5.878496	0.995844	0.000118
  48	4.6765e+00	0.9352	29.384292	0.000486	4.864962	0.824147	0.000097
  49	4.7760e+00	0.9554	29.489258	0.000527	5.270375	0.892826	0.000105
  50	4.8755e+00	0.9757	29.618446	0.000649	6.486616	1.098862	0.000130
  51	4.9750e+00	0.9953	29.743598	0.000628	6.283909	1.064523	0.000126
  52	5.0745e+00	1.0145	29.913157	0.000851	8.513683	1.442257	0.000170
  53	5.1740e+00	1.0347	29.953529	0.000203	2.027067	0.343395	0.000041
  54	5.2735e+00	1.0571	30.086754	0.000669	6.689323	1.133202	0.000134
  55	5.3730e+00	1.0749	30.203831	0.000588	5.878496	0.995844	0.000118
  56	5.4725e+00	1.0948	30.365316	0.000811	8.108270	1.373578	0.000162
  57	5.5720e+00	1.1148	30.425873	0.000304	3.040601	0.515092	0.000061
  58	5.6715e+00	1.1338	30.555062	0.000649	6.486616	1.098862	0.000130
  59	5.7710e+00	1.1558	30.680213	0.000628	6.283909	1.064523	0.000126
  60	5.8705e+00	1.1741	30.801327	0.000608	6.081202	1.030184	0.000122
  61	5.9700e+00	1.1949	30.914367	0.000568	5.675789	0.961505	0.000114
  62	6.0695e+00	1.2145	31.055667	0.000709	7.094736	1.201881	0.000142
  63	6.1690e+00	1.2345	31.156595	0.000507	5.067669	0.858486	0.000101
  64	6.2685e+00	1.2545	31.301932	0.000730	7.297443	1.236220	0.000146
  65	6.3680e+00	1.2743	31.402860	0.000507	5.067669	0.858486	0.000101
  66	6.4675e+00	1.2934	31.540123	0.000689	6.892029	1.167541	0.000138
  67	6.5670e+00	1.3145	31.641051	0.000507	5.067669	0.858486	0.000101
  68	6.6665e+00	1.3346	31.750054	0.000547	5.473082	0.927165	0.000110
  69	6.7660e+00	1.3533	31.883279	0.000669	6.689323	1.133202	0.000134
  70	6.8655e+00	1.3737	32.004394	0.000608	6.081202	1.030184	0.000122
  71	6.9650e+00	1.3924	32.125508	0.000608	6.081202	1.030184	0.000122
  72	7.0645e+00	1.4134	32.246622	0.000608	6.081202	1.030184	0.000122
  73	7.1640e+00	1.4333	32.387921	0.000709	7.094736	1.201881	0.000142
  74	7.2635e+00	1.4535	32.472701	0.000426	4.256842	0.721128	0.000085
  75	7.3630e+00	1.4724	32.626112	0.000770	7.702856	1.304899	0.000154
  76	7.4625e+00	1.4922	32.731078	0.000527	5.270375	0.892826	0.000105
  77	7.5620e+00	1.5130	32.872378	0.000709	7.094736	1.201881	0.000142
  78	7.6615e+00	1.5326	32.985418	0.000568	5.675789	0.961505	0.000114
  79	7.7610e+00	1.5528	33.086346	0.000507	5.067669	0.858486	0.000101
  80	7.8605e+00	1.5733	33.203423	0.000588	5.878496	0.995844	0.000118
  81	7.9600e+00	1.5924	33.352797	0.000750	7.500150	1.270560	0.000150
  82	8.0595e+00	1.6122	33.433540	0.000405	4.054135	0.686789	0.000081
  83	8.1590e+00	1.6325	33.578877	0.000730	7.297443	1.236220	0.000146
  84	8.2585e+00	1.6532	33.687879	0.000547	5.473082	0.927165	0.000110
  85	8.3580e+00	1.6721	33.825142	0.000689	6.892029	1.167541	0.000138
  86	8.4575e+00	1.6924	33.926070	0.000507	5.067669	0.858486	0.000101
  87	8.5570e+00	1.7119	34.075444	0.000750	7.500150	1.270560	0.000150
  88	8.6565e+00	1.7321	34.164261	0.000446	4.459548	0.755468	0.000089
  89	8.7560e+00	1.7527	34.285375	0.000608	6.081202	1.030184	0.000122
  90	8.8555e+00	1.7717	34.390341	0.000527	5.270375	0.892826	0.000105
  91	8.9550e+00	1.7915	34.503381	0.000568	5.675789	0.961505	0.000114
  92	9.0545e+00	1.8113	34.616420	0.000568	5.675789	0.961505	0.000114
  93	9.1540e+00	1.8322	34.761757	0.000730	7.297443	1.236220	0.000146
  94	9.2535e+00	1.8519	34.903057	0.000709	7.094736	1.201881	0.000142
  95	9.3530e+00	1.8719	35.012060	0.000547	5.473082	0.927165	0.000110
  96	9.4525e+00	1.8909	35.173545	0.000811	8.108270	1.373578	0.000162
  97	9.5520e+00	1.9126	35.266399	0.000466	4.662255	0.789807	0.000093
  98	9.6515e+00	1.9310	35.391550	0.000628	6.283909	1.064523	0.000126
  99	9.7510e+00	1.9514	35.524776	0.000669	6.689323	1.133202	0.000134
 100	9.8505e+00	1.9711	35.633779	0.000547	5.473082	0.927165	0.000110
 101	9.9500e+00	1.9904	35.762967	0.000649	6.486616	1.098862	0.000130
 102	1.0050e+01	2.0113	35.892155	0.000649	6.486616	1.098862	0.000130
 103	1.0149e+01	2.0316	35.976935	0.000426	4.256842	0.721128	0.000085
 104	1.0248e+01	2.0507	36.094012	0.000588	5.878496	0.995844	0.000118
 105	1.0348e+01	2.0707	36.247423	0.000770	7.702856	1.304899	0.000154
 106	1.0447e+01	2.0905	36.372574	0.000628	6.283909	1.064523	0.000126
 107	1.0547e+01	2.1117	36.489651	0.000588	5.878496	0.995844	0.000118
 108	1.0646e+01	2.1305	36.614803	0.000628	6.283909	1.064523	0.000126
 109	1.0746e+01	2.1507	36.768214	0.000770	7.702856	1.304899	0.000154
 110	1.0845e+01	2.1706	36.865105	0.000486	4.864962	0.824147	0.000097
 111	1.0945e+01	2.1919	37.022553	0.000791	7.905563	1.339239	0.000158
 112	1.1044e+01	2.2105	37.147704	0.000628	6.283909	1.064523	0.000126
 113	1.1144e+01	2.2300	37.228447	0.000405	4.054135	0.686789	0.000081
 114	1.1243e+01	2.2498	37.369747	0.000709	7.094736	1.201881	0.000142
 115	1.1343e+01	2.2691	37.494898	0.000628	6.283909	1.064523	0.000126
 116	1.1443e+01	2.2903	37.603901	0.000547	5.473082	0.927165	0.000110
 117	1.1542e+01	2.3093	37.749238	0.000730	7.297443	1.236220	0.000146
 118	1.1642e+01	2.3299	37.890537	0.000709	7.094736	1.201881	0.000142
 119	1.1741e+01	2.3505	37.983392	0.000466	4.662255	0.789807	0.000093
 120	1.1841e+01	2.3701	38.140840	0.000791	7.905563	1.339239	0.000158
 121	1.1940e+01	2.3891	38.257917	0.000588	5.878496	0.995844	0.000118
 122	1.2040e+01	2.4092	38.366919	0.000547	5.473082	0.927165	0.000110
 123	1.2139e+01	2.4305	38.467848	0.000507	5.067669	0.858486	0.000101
 124	1.2239e+01	2.4487	38.617222	0.000750	7.500150	1.270560	0.000150
 125	1.2338e+01	2.4696	38.714113	0.000486	4.864962	0.824147	0.000097
 126	1.2438e+01	2.4896	38.855413	0.000709	7.094736	1.201881	0.000142
 127	1.2537e+01	2.5086	38.984601	0.000649	6.486616	1.098862	0.000130
 128	1.2636e+01	2.5291	39.109752	0.000628	6.283909	1.064523	0.000126
 129	1.2736e+01	2.5500	39.222792	0.000568	5.675789	0.961505	0.000114
 130	1.2835e+01	2.5683	39.351981	0.000649	6.486616	1.098862	0.000130
 131	1.2935e+01	2.5894	39.460983	0.000547	5.473082	0.927165	0.000110
 132	1.3034e+01	2.6089	39.569986	0.000547	5.473082	0.927165	0.000110
 133	1.3134e+01	2.6296	39.727434	0.000791	7.905563	1.339239	0.000158
 134	1.3233e+01	2.6483	39.852585	0.000628	6.283909	1.064523	0.000126
 135	1.3333e+01	2.6687	39.989848	0.000689	6.892029	1.167541	0.000138
 136	1.3432e+01	2.6885	40.046368	0.000284	2.837894	0.480752	0.000057
 137	1.3532e+01	2.7087	40.183631	0.000689	6.892029	1.167541	0.000138
 138	1.3632e+01	2.7281	40.312819	0.000649	6.486616	1.098862	0.000130
 139	1.3731e+01	2.7486	40.458156	0.000730	7.297443	1.236220	0.000146
 140	1.3831e+01	2.7683	40.555047	0.000486	4.864962	0.824147	0.000097
 141	1.3930e+01	2.7880	40.672124	0.000588	5.878496	0.995844	0.000118
 142	1.4030e+01	2.8075	40.817461	0.000730	7.297443	1.236220	0.000146
 143	1.4129e+01	2.8281	40.962798	0.000730	7.297443	1.236220	0.000146
 144	1.4229e+01	2.8481	40.991058	0.000142	1.418947	0.240376	0.000028
 145	1.4328e+01	2.8683	41.156580	0.000831	8.310976	1.407918	0.000166
 146	1.4428e+01	2.8872	41.322103	0.000831	8.310976	1.407918	0.000166
 147	1.4527e+01	2.9080	41.414957	0.000466	4.662255	0.789807	0.000093
 148	1.4627e+01	2.9278	41.527997	0.000568	5.675789	0.961505	0.000114
 149	1.4726e+01	2.9478	41.604702	0.000385	3.851428	0.652450	0.000077
 150	1.4825e+01	2.9663	41.770225	0.000831	8.310976	1.407918	0.000166
 151	1.4925e+01	2.9852	41.838856	0.000345	3.446015	0.583771	0.000069
 152	1.5024e+01	3.0076	42.004379	0.000831	8.310976	1.407918	0.000166
 153	1.5124e+01	3.0276	42.137604	0.000669	6.689323	1.133202	0.000134
 154	1.5223e+01	3.0465	42.230458	0.000466	4.662255	0.789807	0.000093
 155	1.5323e+01	3.0669	42.383870	0.000770	7.702856	1.304899	0.000154
 156	1.5422e+01	3.0869	42.529206	0.000730	7.297443	1.236220	0.000146
 157	1.5522e+01	3.1075	42.589763	0.000304	3.040601	0.515092	0.000061
 158	1.5621e+01	3.1271	42.743175	0.000770	7.702856	1.304899	0.000154
 159	1.5721e+01	3.1463	42.872363	0.000649	6.486616	1.098862	0.000130
 160	1.5820e+01	3.1669	42.957143	0.000426	4.256842	0.721128	0.000085
 161	1.5920e+01	3.1869	43.094405	0.000689	6.892029	1.167541	0.000138
 162	1.6020e+01	3.2058	43.183222	0.000446	4.459548	0.755468	0.000089
 163	1.6119e+01	3.2265	43.356819	0.000872	8.716390	1.476596	0.000174
 164	1.6218e+01	3.2455	43.453711	0.000486	4.864962	0.824147	0.000097
 165	1.6318e+01	3.2662	43.574825	0.000608	6.081202	1.030184	0.000122
 166	1.6418e+01	3.2866	43.679790	0.000527	5.270375	0.892826	0.000105
 167	1.6517e+01	3.3058	43.792830	0.000568	5.675789	0.961505	0.000114
 168	1.6616e+01	3.3256	43.938167	0.000730	7.297443	1.236220	0.000146
 169	1.6716e+01	3.3450	44.047169	0.000547	5.473082	0.927165	0.000110
 170	1.6816e+01	3.3645	44.192506	0.000730	7.297443	1.236220	0.000146
 171	1.6915e+01	3.3852	44.321695	0.000649	6.486616	1.098862	0.000130
 172	1.7015e+01	3.4058	44.398400	0.000385	3.851428	0.652450	0.000077
 173	1.7114e+01	3.4258	44.531626	0.000669	6.689323	1.133202	0.000134
 174	1.7213e+01	3.4454	44.676963	0.000730	7.297443	1.236220	0.000146
 175	1.7313e+01	3.4656	44.806151	0.000649	6.486616	1.098862	0.000130
 176	1.7413e+01	3.4850	44.899005	0.000466	4.662255	0.789807	0.000093
 177	1.7512e+01	3.5052	45.040305	0.000709	7.094736	1.201881	0.000142
 178	1.7611e+01	3.5251	45.108936	0.000345	3.446015	0.583771	0.000069
 179	1.7711e+01	3.5467	45.226013	0.000588	5.878496	0.995844	0.000118
 180	1.7811e+01	3.5648	45.359239	0.000669	6.689323	1.133202	0.000134
 181	1.7910e+01	3.5856	45.508613	0.000750	7.500150	1.270560	0.000150
 182	1.8009e+01	3.6047	45.613578	0.000527	5.270375	0.892826	0.000105
 183	1.8109e+01	3.6260	45.734692	0.000608	6.081202	1.030184	0.000122
 184	1.8209e+01	3.6449	45.831583	0.000486	4.864962	0.824147	0.000097
 185	1.8308e+01	3.6654	45.928475	0.000486	4.864962	0.824147	0.000097
 186	1.8407e+01	3.6833	46.093997	0.000831	8.310976	1.407918	0.000166
 187	1.8507e+01	3.7038	46.174740	0.000405	4.054135	0.686789	0.000081
 188	1.8607e+01	3.7240	46.295854	0.000608	6.081202	1.030184	0.000122
 189	1.8706e+01	3.7442	46.457340	0.000811	8.108270	1.373578	0.000162
 190	1.8805e+01	3.7646	46.554231	0.000486	4.864962	0.824147	0.000097
 191	1.8905e+01	3.7843	46.667271	0.000568	5.675789	0.961505	0.000114
 192	1.9005e+01	3.8036	46.735902	0.000345	3.446015	0.583771	0.000069
 193	1.9104e+01	3.8243	46.861053	0.000628	6.283909	1.064523	0.000126
 194	1.9203e+01	3.8436	46.982167	0.000608	6.081202	1.030184	0.000122
 195	1.9303e+01	3.8645	47.087133	0.000527	5.270375	0.892826	0.000105
 196	1.9402e+01	3.8834	47.216321	0.000649	6.486616	1.098862	0.000130
 197	1.9502e+01	3.9039	47.325324	0.000547	5.473082	0.927165	0.000110
 198	1.9602e+01	3.9230	47.462586	0.000689	6.892029	1.167541	0.000138
 199	1.9701e+01	3.9435	47.559478	0.000486	4.864962	0.824147	0.000097
 200	1.9800e+01	3.9635	47.684629	0.000628	6.283909	1.064523	0.000126
 201	1.9900e+01	3.9832	47.773446	0.000446	4.459548	0.755468	0.000089
 202	2.0000e+01	4.0035	47.902634	0.000649	6.486616	1.098862	0.000130
 203	2.0099e+01	4.0224	48.039897	0.000689	6.892029	1.167541	0.000138
 204	2.0198e+01	4.0430	48.136788	0.000486	4.864962	0.824147	0.000097
 205	2.0298e+01	4.0636	48.257902	0.000608	6.081202	1.030184	0.000122
 206	2.0398e+01	4.0827	48.374979	0.000588	5.878496	0.995844	0.000118
 207	2.0497e+01	4.1032	48.475907	0.000507	5.067669	0.858486	0.000101
 208	2.0596e+01	4.1227	48.617207	0.000709	7.094736	1.201881	0.000142
 209	2.0696e+01	4.1429	48.706024	0.000446	4.459548	0.755468	0.000089
 210	2.0796e+01	4.1621	48.819064	0.000568	5.675789	0.961505	0.000114
 211	2.0895e+01	4.1822	48.911918	0.000466	4.662255	0.789807	0.000093
 212	2.0994e+01	4.2022	49.033032	0.000608	6.081202	1.030184	0.000122
 213	2.1094e+01	4.2229	49.166258	0.000669	6.689323	1.133202	0.000134
 214	2.1194e+01	4.2418	49.242963	0.000385	3.851428	0.652450	0.000077
 215	2.1293e+01	4.2623	49.376189	0.000669	6.689323	1.133202	0.000134
 216	2.1392e+01	4.2825	49.477117	0.000507	5.067669	0.858486	0.000101
 217	2.1492e+01	4.3025	49.622454	0.000730	7.297443	1.236220	0.000146
 218	2.1591e+01	4.3215	49.719345	0.000486	4.864962	0.824147	0.000097
 219	2.1691e+01	4.3420	49.832385	0.000568	5.675789	0.961505	0.000114
 220	2.1791e+01	4.3621	49.925239	0.000466	4.662255	0.789807	0.000093
 221	2.1890e+01	4.3816	50.042316	0.000588	5.878496	0.995844	0.000118
 222	2.1989e+01	4.4017	50.159393	0.000588	5.878496	0.995844	0.000118
 223	2.2089e+01	4.4219	50.304730	0.000730	7.297443	1.236220	0.000146
 224	2.2189e+01	4.4420	50.365287	0.000304	3.040601	0.515092	0.000061
 225	2.2288e+01	4.4616	50.486401	0.000608	6.081202	1.030184	0.000122
 226	2.2387e+01	4.4819	50.655961	0.000851	8.513683	1.442257	0.000170
 227	2.2487e+01	4.5014	50.752852	0.000486	4.864962	0.824147	0.000097
 228	2.2587e+01	4.5217	50.817446	0.000324	3.243308	0.549431	0.000065
 229	2.2686e+01	4.5400	50.974894	0.000791	7.905563	1.339239	0.000158
 230	2.2785e+01	4.5615	51.059674	0.000426	4.256842	0.721128	0.000085
 231	2.2885e+01	4.5815	51.188863	0.000649	6.486616	1.098862	0.000130
 232	2.2985e+01	4.6005	51.322088	0.000669	6.689323	1.133202	0.000134
 233	2.3084e+01	4.6218	51.386682	0.000324	3.243308	0.549431	0.000065
 234	2.3183e+01	4.6403	51.511833	0.000628	6.283909	1.064523	0.000126
 235	2.3283e+01	4.6605	51.616799	0.000527	5.270375	0.892826	0.000105
 236	2.3383e+01	4.6806	51.737913	0.000608	6.081202	1.030184	0.000122
 237	2.3482e+01	4.7009	51.859027	0.000608	6.081202	1.030184	0.000122
 238	2.3581e+01	4.7201	51.984178	0.000628	6.283909	1.064523	0.000126
 239	2.3681e+01	4.7411	52.089144	0.000527	5.270375	0.892826	0.000105
 240	2.3780e+01	4.7606	52.145664	0.000284	2.837894	0.480752	0.000057
 241	2.3880e+01	4.7802	52.319261	0.000872	8.716390	1.476596	0.000174
 242	2.3980e+01	4.8003	52.428263	0.000547	5.473082	0.927165	0.000110
 243	2.4079e+01	4.8209	52.488820	0.000304	3.040601	0.515092	0.000061
 244	2.4178e+01	4.8392	52.634157	0.000730	7.297443	1.236220	0.000146
 245	2.4278e+01	4.8609	52.735086	0.000507	5.067669	0.858486	0.000101
 246	2.4378e+01	4.8796	52.844088	0.000547	5.473082	0.927165	0.000110
 247	2.4477e+01	4.8997	52.973277	0.000649	6.486616	1.098862	0.000130
 248	2.4576e+01	4.9197	53.082279	0.000547	5.473082	0.927165	0.000110
 249	2.4676e+01	4.9394	53.163022	0.000405	4.054135	0.686789	0.000081
 250	2.4776e+01	4.9599	53.247802	0.000426	4.256842	0.721128	0.000085
 251	2.4875e+01	4.9791	53.401213	0.000770	7.702856	1.304899	0.000154
 252	2.4974e+01	4.9998	53.457733	0.000284	2.837894	0.480752	0.000057
 253	2.5074e+01	5.0194	53.599033	0.000709	7.094736	1.201881	0.000142
 254	2.5174e+01	5.0391	53.708035	0.000547	5.473082	0.927165	0.000110
 255	2.5273e+01	5.0590	53.813001	0.000527	5.270375	0.892826	0.000105
 256	2.5372e+01	5.0784	53.917966	0.000527	5.270375	0.892826	0.000105
 257	2.5472e+01	5.0989	54.002746	0.000426	4.256842	0.721128	0.000085
 258	2.5572e+01	5.1177	54.131935	0.000649	6.486616	1.098862	0.000130
 259	2.5671e+01	5.1388	54.220752	0.000446	4.459548	0.755468	0.000089
 260	2.5770e+01	5.1580	54.333791	0.000568	5.675789	0.961505	0.000114
 261	2.5870e+01	5.1759	54.446831	0.000568	5.675789	0.961505	0.000114
 262	2.5970e+01	5.1983	54.527574	0.000405	4.054135	0.686789	0.000081
 263	2.6069e+01	5.2173	54.648688	0.000608	6.081202	1.030184	0.000122
 264	2.6169e+01	5.2393	54.789988	0.000709	7.094736	1.201881	0.000142
 265	2.6268e+01	5.2583	54.886879	0.000486	4.864962	0.824147	0.000097
 266	2.6367e+01	5.2780	54.987807	0.000507	5.067669	0.858486	0.000101
 267	2.6467e+01	5.2972	55.096810	0.000547	5.473082	0.927165	0.000110
 268	2.6567e+01	5.3185	55.205813	0.000547	5.473082	0.927165	0.000110
 269	2.6666e+01	5.3378	55.306741	0.000507	5.067669	0.858486	0.000101
 270	2.6765e+01	5.3567	55.411707	0.000527	5.270375	0.892826	0.000105
 271	2.6865e+01	5.3765	55.516672	0.000527	5.270375	0.892826	0.000105
 272	2.6965e+01	5.3977	55.621638	0.000527	5.270375	0.892826	0.000105
 273	2.7064e+01	5.4179	55.734677	0.000568	5.675789	0.961505	0.000114
 274	2.7163e+01	5.4366	55.831569	0.000486	4.864962	0.824147	0.000097
 275	2.7263e+01	5.4568	55.960757	0.000649	6.486616	1.098862	0.000130
 276	2.7363e+01	5.4762	56.089945	0.000649	6.486616	1.098862	0.000130
 277	2.7462e+01	5.4969	56.162614	0.000365	3.648721	0.618110	0.000073
 278	2.7561e+01	5.5170	56.283728	0.000608	6.081202	1.030184	0.000122
 279	2.7661e+01	5.5358	56.404842	0.000608	6.081202	1.030184	0.000122
 280	2.7761e+01	5.5569	56.473473	0.000345	3.446015	0.583771	0.000069
 281	2.7860e+01	5.5781	56.590550	0.000588	5.878496	0.995844	0.000118
 282	2.7959e+01	5.5965	56.743961	0.000770	7.702856	1.304899	0.000154
 283	2.8059e+01	5.6170	56.824704	0.000405	4.054135	0.686789	0.000081
 284	2.8159e+01	5.6380	56.905447	0.000405	4.054135	0.686789	0.000081
 285	2.8258e+01	5.6570	57.026561	0.000608	6.081202	1.030184	0.000122
 286	2.8358e+01	5.6779	57.131526	0.000527	5.270375	0.892826	0.000105
 287	2.8457e+01	5.6963	57.244566	0.000568	5.675789	0.961505	0.000114
 288	2.8556e+01	5.7154	57.365680	0.000608	6.081202	1.030184	0.000122
 289	2.8656e+01	5.7380	57.470646	0.000527	5.270375	0.892826	0.000105
 290	2.8756e+01	5.7561	57.571574	0.000507	5.067669	0.858486	0.000101
 291	2.8855e+01	5.7754	57.664428	0.000466	4.662255	0.789807	0.000093
 292	2.8954e+01	5.7970	57.720948	0.000284	2.837894	0.480752	0.000057
 293	2.9054e+01	5.8160	57.850137	0.000649	6.486616	1.098862	0.000130
 294	2.9154e+01	5.8361	57.959139	0.000547	5.473082	0.927165	0.000110
 295	2.9253e+01	5.8553	58.092365	0.000669	6.689323	1.133202	0.000134
 296	2.9352e+01	5.8751	58.173107	0.000405	4.054135	0.686789	0.000081
 297	2.9452e+01	5.8957	58.310370	0.000689	6.892029	1.167541	0.000138
 298	2.9552e+01	5.9159	58.407261	0.000486	4.864962	0.824147	0.000097
 299	2.9651e+01	5.9366	58.471855	0.000324	3.243308	0.549431	0.000065
 300	2.9750e+01	5.9551	58.588932	0.000588	5.878496	0.995844	0.000118
 301	2.9850e+01	5.9748	58.649489	0.000304	3.040601	0.515092	0.000061
 302	2.9950e+01	5.9956	58.790789	0.000709	7.094736	1.201881	0.000142
 303	3.0049e+01	6.0151	58.895755	0.000527	5.270375	0.892826	0.000105
 304	3.0148e+01	6.0345	59.012832	0.000588	5.878496	0.995844	0.000118
 305	3.0248e+01	6.0552	59.093574	0.000405	4.054135	0.686789	0.000081
 306	3.0348e+01	6.0749	59.214688	0.000608	6.081202	1.030184	0.000122
 307	3.0447e+01	6.0951	59.303505	0.000446	4.459548	0.755468	0.000089
 308	3.0547e+01	6.1144	59.448842	0.000730	7.297443	1.236220	0.000146
 309	3.0646e+01	6.1343	59.509399	0.000304	3.040601	0.515092	0.000061
 310	3.0745e+01	6.1550	59.650699	0.000709	7.094736	1.201881	0.000142
 311	3.0845e+01	6.1753	59.727405	0.000385	3.851428	0.652450	0.000077
 312	3.0945e+01	6.1946	59.844482	0.000588	5.878496	0.995844	0.000118
 313	3.1044e+01	6.2148	59.892927	0.000243	2.432481	0.412073	0.000049
 314	3.1143e+01	6.2345	60.014041	0.000608	6.081202	1.030184	0.000122
 315	3.1243e+01	6.2543	60.131118	0.000588	5.878496	0.995844	0.000118
 316	3.1343e+01	6.2749	60.228010	0.000486	4.864962	0.824147	0.000097
 317	3.1442e+01	6.2945	60.320864	0.000466	4.662255	0.789807	0.000093
 318	3.1541e+01	6.3136	60.409681	0.000446	4.459548	0.755468	0.000089
 319	3.1641e+01	6.3335	60.538869	0.000649	6.486616	1.098862	0.000130
 320	3.1741e+01	6.3532	60.619612	0.000405	4.054135	0.686789	0.000081
 321	3.1840e+01	6.3744	60.688243	0.000345	3.446015	0.583771	0.000069
 322	3.1939e+01	6.3931	60.813394	0.000628	6.283909	1.064523	0.000126
 323	3.2039e+01	6.4127	60.926434	0.000568	5.675789	0.961505	0.000114
 324	3.2139e+01	6.4330	61.011214	0.000426	4.256842	0.721128	0.000085
 325	3.2238e+01	6.4529	61.128291	0.000588	5.878496	0.995844	0.000118
 326	3.2337e+01	6.4735	61.225182	0.000486	4.864962	0.824147	0.000097
 327	3.2437e+01	6.4928	61.309962	0.000426	4.256842	0.721128	0.000085
 328	3.2536e+01	6.5130	61.394742	0.000426	4.256842	0.721128	0.000085
 329	3.2636e+01	6.5337	61.507782	0.000568	5.675789	0.961505	0.000114
 330	3.2736e+01	6.5525	61.649081	0.000709	7.094736	1.201881	0.000142
 331	3.2835e+01	6.5728	61.758084	0.000547	5.473082	0.927165	0.000110
 332	3.2934e+01	6.5929	61.810567	0.000264	2.635188	0.446413	0.000053
 333	3.3034e+01	6.6123	61.931681	0.000608	6.081202	1.030184	0.000122
 334	3.3133e+01	6.6317	62.044721	0.000568	5.675789	0.961505	0.000114
 335	3.3233e+01	6.6516	62.113352	0.000345	3.446015	0.583771	0.000069
 336	3.3333e+01	6.6723	62.234466	0.000608	6.081202	1.030184	0.000122
 337	3.3432e+01	6.6918	62.315209	0.000405	4.054135	0.686789	0.000081
 338	3.3532e+01	6.7118	62.428248	0.000568	5.675789	0.961505	0.000114
 339	3.3631e+01	6.7321	62.496880	0.000345	3.446015	0.583771	0.000069
 340	3.3730e+01	6.7512	62.626068	0.000649	6.486616	1.098862	0.000130
 341	3.3830e+01	6.7716	62.686625	0.000304	3.040601	0.515092	0.000061
 342	3.3929e+01	6.7910	62.827925	0.000709	7.094736	1.201881	0.000142
 343	3.4029e+01	6.8127	62.928853	0.000507	5.067669	0.858486	0.000101
 344	3.4129e+01	6.8317	63.033819	0.000527	5.270375	0.892826	0.000105
 345	3.4228e+01	6.8528	63.118599	0.000426	4.256842	0.721128	0.000085
 346	3.4328e+01	6.8722	63.207416	0.000446	4.459548	0.755468	0.000089
 347	3.4427e+01	6.8913	63.320455	0.000568	5.675789	0.961505	0.000114
 348	3.4526e+01	6.9108	63.433495	0.000568	5.675789	0.961505	0.000114
 349	3.4626e+01	6.9318	63.490015	0.000284	2.837894	0.480752	0.000057
 350	3.4725e+01	6.9508	63.590944	0.000507	5.067669	0.858486	0.000101
 351	3.4825e+01	6.9707	63.703983	0.000568	5.675789	0.961505	0.000114
 352	3.4925e+01	6.9904	63.772615	0.000345	3.446015	0.583771	0.000069
 353	3.5024e+01	7.0110	63.909877	0.000689	6.892029	1.167541	0.000138
 354	3.5123e+01	7.0305	63.994657	0.000426	4.256842	0.721128	0.000085
 355	3.5223e+01	7.0528	64.059251	0.000324	3.243308	0.549431	0.000065
 356	3.5322e+01	7.0710	64.139994	0.000405	4.054135	0.686789	0.000081
 357	3.5422e+01	7.0904	64.269182	0.000649	6.486616	1.098862	0.000130
 358	3.5522e+01	7.1110	64.390296	0.000608	6.081202	1.030184	0.000122
 359	3.5621e+01	7.1301	64.438742	0.000243	2.432481	0.412073	0.000049
 360	3.5721e+01	7.1500	64.531596	0.000466	4.662255	0.789807	0.000093
 361	3.5820e+01	7.1712	64.632525	0.000507	5.067669	0.858486	0.000101
 362	3.5919e+01	7.1908	64.725379	0.000466	4.662255	0.789807	0.000093
 363	3.6019e+01	7.2100	64.838419	0.000568	5.675789	0.961505	0.000114
 364	3.6118e+01	7.2295	64.915124	0.000385	3.851428	0.652450	0.000077
 365	3.6218e+01	7.2506	65.024127	0.000547	5.473082	0.927165	0.000110
 366	3.6318e+01	7.2690	65.121018	0.000486	4.864962	0.824147	0.000097
 367	3.6417e+01	7.2890	65.189649	0.000345	3.446015	0.583771	0.000069
 368	3.6517e+01	7.3098	65.310763	0.000608	6.081202	1.030184	0.000122
 369	3.6616e+01	7.3306	65.427840	0.000588	5.878496	0.995844	0.000118
 370	3.6715e+01	7.3493	65.468212	0.000203	2.027067	0.343395	0.000041
 371	3.6815e+01	7.3692	65.573177	0.000527	5.270375	0.892826	0.000105
 372	3.6914e+01	7.3881	65.678143	0.000527	5.270375	0.892826	0.000105
 373	3.7014e+01	7.4101	65.787145	0.000547	5.473082	0.927165	0.000110
 374	3.7114e+01	7.4287	65.871925	0.000426	4.256842	0.721128	0.000085
 375	3.7213e+01	7.4493	65.932482	0.000304	3.040601	0.515092	0.000061
 376	3.7313e+01	7.4684	66.061671	0.000649	6.486616	1.098862	0.000130
 377	3.7412e+01	7.4889	66.146450	0.000426	4.256842	0.721128	0.000085
 378	3.7511e+01	7.5098	66.231230	0.000426	4.256842	0.721128	0.000085
 379	3.7611e+01	7.5288	66.344270	0.000568	5.675789	0.961505	0.000114
 380	3.7711e+01	7.5488	66.420976	0.000385	3.851428	0.652450	0.000077
 381	3.7810e+01	7.5687	66.473458	0.000264	2.635188	0.446413	0.000053
 382	3.7910e+01	7.5881	66.626870	0.000770	7.702856	1.304899	0.000154
 383	3.8009e+01	7.6081	66.707612	0.000405	4.054135	0.686789	0.000081
 384	3.8108e+01	7.6272	66.824689	0.000588	5.878496	0.995844	0.000118
 385	3.8208e+01	7.6485	66.852949	0.000142	1.418947	0.240376	0.000028
 386	3.8307e+01	7.6680	67.006360	0.000770	7.702856	1.304899	0.000154
 387	3.8407e+01	7.6884	67.083066	0.000385	3.851428	0.652450	0.000077
 388	3.8507e+01	7.7075	67.188032	0.000527	5.270375	0.892826	0.000105
 389	3.8606e+01	7.7277	67.264737	0.000385	3.851428	0.652450	0.000077
 390	3.8706e+01	7.7467	67.341443	0.000385	3.851428	0.652450	0.000077
 391	3.8805e+01	7.7671	67.450445	0.000547	5.473082	0.927165	0.000110
 392	3.8904e+01	7.7870	67.531188	0.000405	4.054135	0.686789	0.000081
 393	3.9004e+01	7.8076	67.656339	0.000628	6.283909	1.064523	0.000126
 394	3.9103e+01	7.8274	67.708822	0.000264	2.635188	0.446413	0.000053
 395	3.9203e+01	7.8471	67.809750	0.000507	5.067669	0.858486	0.000101
 396	3.9303e+01	7.8674	67.898567	0.000446	4.459548	0.755468	0.000089
 397	3.9402e+01	7.8873	68.039867	0.000709	7.094736	1.201881	0.000142
 398	3.9502e+01	7.9058	68.080239	0.000203	2.027067	0.343395	0.000041
 399	3.9601e+01	7.9275	68.205390	0.000628	6.283909	1.064523	0.000126
 400	3.9700e+01	7.9469	68.269984	0.000324	3.243308	0.549431	0.000065
 401	3.9800e+01	7.9678	68.391098	0.000608	6.081202	1.030184	0.000122
 402	3.9900e+01	7.9864	68.451655	0.000304	3.040601	0.515092	0.000061
 403	3.9999e+01	8.0067	68.568732	0.000588	5.878496	0.995844	0.000118
 404	4.0099e+01	8.0266	68.665623	0.000486	4.864962	0.824147	0.000097
 405	4.0198e+01	8.0469	68.738292	0.000365	3.648721	0.618110	0.000073
 406	4.0297e+01	8.0658	68.835183	0.000486	4.864962	0.824147	0.000097
 407	4.0397e+01	8.0862	68.924000	0.000446	4.459548	0.755468	0.000089
 408	4.0496e+01	8.1064	69.045114	0.000608	6.081202	1.030184	0.000122
 409	4.0596e+01	8.1255	69.097597	0.000264	2.635188	0.446413	0.000053
 410	4.0696e+01	8.1461	69.190451	0.000466	4.662255	0.789807	0.000093
 411	4.0795e+01	8.1668	69.267156	0.000385	3.851428	0.652450	0.000077
 412	4.0895e+01	8.1860	69.396345	0.000649	6.486616	1.098862	0.000130
 413	4.0994e+01	8.2057	69.473050	0.000385	3.851428	0.652450	0.000077
 414	4.1093e+01	8.2261	69.537645	0.000324	3.243308	0.549431	0.000065
 415	4.1193e+01	8.2466	69.654721	0.000588	5.878496	0.995844	0.000118
 416	4.1292e+01	8.2661	69.731427	0.000385	3.851428	0.652450	0.000077
 417	4.1392e+01	8.2867	69.852541	0.000608	6.081202	1.030184	0.000122
 418	4.1492e+01	8.3059	69.900987	0.000243	2.432481	0.412073	0.000049
 419	4.1591e+01	8.3252	69.993841	0.000466	4.662255	0.789807	0.000093
 420	4.1691e+01	8.3447	70.070546	0.000385	3.851428	0.652450	0.000077
 421	4.1790e+01	8.3643	70.155326	0.000426	4.256842	0.721128	0.000085
 422	4.1889e+01	8.3851	70.260292	0.000527	5.270375	0.892826	0.000105
 423	4.1989e+01	8.4048	70.361220	0.000507	5.067669	0.858486	0.000101
 424	4.2089e+01	8.4251	70.429852	0.000345	3.446015	0.583771	0.000069
 425	4.2188e+01	8.4459	70.522706	0.000466	4.662255	0.789807	0.000093
 426	4.2288e+01	8.4638	70.619597	0.000486	4.864962	0.824147	0.000097
 427	4.2387e+01	8.4857	70.668043	0.000243	2.432481	0.412073	0.000049
 428	4.2486e+01	8.5040	70.760897	0.000466	4.662255	0.789807	0.000093
 429	4.2586e+01	8.5254	70.877974	0.000588	5.878496	0.995844	0.000118
 430	4.2685e+01	8.5444	70.938531	0.000304	3.040601	0.515092	0.000061
 431	4.2785e+01	8.5645	71.031385	0.000466	4.662255	0.789807	0.000093
 432	4.2885e+01	8.5837	71.124239	0.000466	4.662255	0.789807	0.000093
 433	4.2984e+01	8.6044	71.241316	0.000588	5.878496	0.995844	0.000118
 434	4.3084e+01	8.6239	71.297836	0.000284	2.837894	0.480752	0.000057
 435	4.3183e+01	8.6446	71.406838	0.000547	5.473082	0.927165	0.000110
 436	4.3282e+01	8.6646	71.503730	0.000486	4.864962	0.824147	0.000097
 437	4.3382e+01	8.6850	71.596584	0.000466	4.662255	0.789807	0.000093
 438	4.3481e+01	8.7037	71.697512	0.000507	5.067669	0.858486	0.000101
 439	4.3581e+01	8.7235	71.770181	0.000365	3.648721	0.618110	0.000073
 440	4.3681e+01	8.7432	71.854960	0.000426	4.256842	0.721128	0.000085
 441	4.3780e+01	8.7640	71.976075	0.000608	6.081202	1.030184	0.000122
 442	4.3880e+01	8.7842	72.024520	0.000243	2.432481	0.412073	0.000049
 443	4.3979e+01	8.8037	72.145634	0.000608	6.081202	1.030184	0.000122
 444	4.4078e+01	8.8238	72.238488	0.000466	4.662255	0.789807	0.000093
 445	4.4178e+01	8.8428	72.299045	0.000304	3.040601	0.515092	0.000061
 446	4.4278e+01	8.8631	72.395937	0.000486	4.864962	0.824147	0.000097
 447	4.4377e+01	8.8823	72.476679	0.000405	4.054135	0.686789	0.000081
 448	4.4477e+01	8.9020	72.585682	0.000547	5.473082	0.927165	0.000110
 449	4.4576e+01	8.9224	72.714870	0.000649	6.486616	1.098862	0.000130
 450	4.4675e+01	8.9421	72.755242	0.000203	2.027067	0.343395	0.000041
 451	4.4775e+01	8.9618	72.835984	0.000405	4.054135	0.686789	0.000081
 452	4.4874e+01	8.9819	72.924801	0.000446	4.459548	0.755468	0.000089
 453	4.4974e+01	9.0022	73.041878	0.000588	5.878496	0.995844	0.000118
 454	4.5074e+01	9.0212	73.114547	0.000365	3.648721	0.618110	0.000073
 455	4.5173e+01	9.0414	73.195289	0.000405	4.054135	0.686789	0.000081
 456	4.5273e+01	9.0620	73.276032	0.000405	4.054135	0.686789	0.000081
 457	4.5372e+01	9.0824	73.376961	0.000507	5.067669	0.858486	0.000101
 458	4.5471e+01	9.1016	73.494038	0.000588	5.878496	0.995844	0.000118
 459	4.5571e+01	9.1214	73.546520	0.000264	2.635188	0.446413	0.000053
 460	4.5670e+01	9.1412	73.631300	0.000426	4.256842	0.721128	0.000085
 461	4.5770e+01	9.1614	73.712043	0.000405	4.054135	0.686789	0.000081
 462	4.5870e+01	9.1801	73.772600	0.000304	3.040601	0.515092	0.000061
 463	4.5969e+01	9.2004	73.905825	0.000669	6.689323	1.133202	0.000134
 464	4.6069e+01	9.2207	73.950234	0.000223	2.229774	0.377734	0.000045
 465	4.6168e+01	9.2417	74.039051	0.000446	4.459548	0.755468	0.000089
 466	4.6267e+01	9.2610	74.127868	0.000446	4.459548	0.755468	0.000089
 467	4.6367e+01	9.2815	74.297428	0.000851	8.513683	1.442257	0.000170
 468	4.6467e+01	9.3018	74.353947	0.000284	2.837894	0.480752	0.000057
 469	4.6566e+01	9.3202	74.426616	0.000365	3.648721	0.618110	0.000073
 470	4.6666e+01	9.3409	74.499284	0.000365	3.648721	0.618110	0.000073
 471	4.6765e+01	9.3610	74.628473	0.000649	6.486616	1.098862	0.000130
 472	4.6864e+01	9.3812	74.652695	0.000122	1.216240	0.206037	0.000024
 473	4.6964e+01	9.4003	74.729401	0.000385	3.851428	0.652450	0.000077
 474	4.7063e+01	9.4199	74.890887	0.000811	8.108270	1.373578	0.000162
 475	4.7163e+01	9.4398	74.947406	0.000284	2.837894	0.480752	0.000057
 476	4.7263e+01	9.4593	75.016038	0.000345	3.446015	0.583771	0.000069
 477	4.7362e+01	9.4789	75.129078	0.000568	5.675789	0.961505	0.000114
 478	4.7462e+01	9.5001	75.197709	0.000345	3.446015	0.583771	0.000069
 479	4.7561e+01	9.5203	75.274414	0.000385	3.851428	0.652450	0.000077
 480	4.7660e+01	9.5400	75.383417	0.000547	5.473082	0.927165	0.000110
 481	4.7760e+01	9.5597	75.443974	0.000304	3.040601	0.515092	0.000061
 482	4.7859e+01	9.5791	75.516643	0.000365	3.648721	0.618110	0.000073
 483	4.7959e+01	9.5990	75.609497	0.000466	4.662255	0.789807	0.000093
 484	4.8059e+01	9.6206	75.714462	0.000527	5.270375	0.892826	0.000105
 485	4.8158e+01	9.6387	75.807316	0.000466	4.662255	0.789807	0.000093
 486	4.8258e+01	9.6583	75.892096	0.000426	4.256842	0.721128	0.000085
 487	4.8357e+01	9.6783	75.956690	0.000324	3.243308	0.549431	0.000065
 488	4.8456e+01	9.6983	76.045507	0.000446	4.459548	0.755468	0.000089
 489	4.8556e+01	9.7181	76.122213	0.000385	3.851428	0.652450	0.000077
 490	4.8656e+01	9.7388	76.206993	0.000426	4.256842	0.721128	0.000085
 491	4.8755e+01	9.7591	76.271587	0.000324	3.243308	0.549431	0.000065
 492	4.8855e+01	9.7781	76.352330	0.000405	4.054135	0.686789	0.000081
 493	4.8954e+01	9.7974	76.465369	0.000568	5.675789	0.961505	0.000114
 494	4.9053e+01	9.8172	76.509778	0.000223	2.229774	0.377734	0.000045
 495	4.9153e+01	9.8389	76.618781	0.000547	5.473082	0.927165	0.000110
 496	4.9252e+01	9.8574	76.731820	0.000568	5.675789	0.961505	0.000114
 497	4.9352e+01	9.8794	76.824675	0.000466	4.662255	0.789807	0.000093
 498	4.9452e+01	9.8978	76.889269	0.000324	3.243308	0.549431	0.000065
 499	4.9551e+01	9.9180	77.014420	0.000628	6.283909	1.064523	0.000126
 500	4.9651e+01	9.9375	77.058828	0.000223	2.229774	0.377734	0.000045
 501	4.9750e+01	9.9585	77.163794	0.000527	5.270375	0.892826	0.000105
 502	4.9849e+01	9.9780	77.240500	0.000385	3.851428	0.652450	0.000077
 503	4.9949e+01	9.9976	77.317205	0.000385	3.851428	0.652450	0.000077
 504	5.0048e+01	9.9774	77.268759	0.000243	2.432481	0.412073	-0.000049
 505	5.0148e+01	9.9575	77.208202	0.000304	3.040601	0.515092	-0.000061
 506	5.0248e+01	9.9379	77.163794	0.000223	2.229774	0.377734	-0.000045
 507	5.0347e+01	9.9171	77.095163	0.000345	3.446015	0.583771	-0.000069
 508	5.0447e+01	9.8981	77.034606	0.000304	3.040601	0.515092	-0.000061
 509	5.0546e+01	9.8779	76.970011	0.000324	3.243308	0.549431	-0.000065
 510	5.0645e+01	9.8584	76.917529	0.000264	2.635188	0.446413	-0.000053
 511	5.0745e+01	9.8389	76.869083	0.000243	2.432481	0.412073	-0.000049
 512	5.0844e+01	9.8178	76.808526	0.000304	3.040601	0.515092	-0.000061
 513	5.0944e+01	9.7984	76.764117	0.000223	2.229774	0.377734	-0.000045
 514	5.1044e+01	9.7784	76.679338	0.000426	4.256842	0.721128	-0.000085
 515	5.1143e+01	9.7588	76.622818	0.000284	2.837894	0.480752	-0.000057
 516	5.1242e+01	9.7391	76.517852	0.000527	5.270375	0.892826	-0.000105
 517	5.1342e+01	9.7196	76.461332	0.000284	2.837894	0.480752	-0.000057
 518	5.1441e+01	9.6988	76.445184	0.000081	0.810827	0.137358	-0.000016
 519	5.1541e+01	9.6778	76.376552	0.000345	3.446015	0.583771	-0.000069
 520	5.1641e+01	9.6595	76.287735	0.000446	4.459548	0.755468	-0.000089
 521	5.1740e+01	9.6400	76.215067	0.000365	3.648721	0.618110	-0.000073
 522	5.1840e+01	9.6192	76.138361	0.000385	3.851428	0.652450	-0.000077
 523	5.1939e+01	9.5996	76.065693	0.000365	3.648721	0.618110	-0.000073
 524	5.2038e+01	9.5801	76.041470	0.000122	1.216240	0.206037	-0.000024
 525	5.2138e+01	9.5589	75.932468	0.000547	5.473082	0.927165	-0.000110
 526	5.2237e+01	9.5301	75.875948	0.000284	2.837894	0.480752	-0.000057
 527	5.2337e+01	9.5206	75.795205	0.000405	4.054135	0.686789	-0.000081
 528	5.2437e+01	9.4999	75.734648	0.000304	3.040601	0.515092	-0.000061
 529	5.2536e+01	9.4802	75.682165	0.000264	2.635188	0.446413	-0.000053
 530	5.2636e+01	9.4605	75.621608	0.000304	3.040601	0.515092	-0.000061
 531	5.2735e+01	9.4398	75.561051	0.000304	3.040601	0.515092	-0.000061
 532	5.2834e+01	9.4208	75.500494	0.000304	3.040601	0.515092	-0.000061
 533	5.2934e+01	9.3998	75.399566	0.000507	5.067669	0.858486	-0.000101
 534	5.3033e+01	9.3808	75.343046	0.000284	2.837894	0.480752	-0.000057
 535	5.3133e+01	9.3594	75.258266	0.000426	4.256842	0.721128	-0.000085
 536	5.3233e+01	9.3408	75.197709	0.000304	3.040601	0.515092	-0.000061
 537	5.3332e+01	9.3213	75.125040	0.000365	3.648721	0.618110	-0.000073
 538	5.3431e+01	9.2996	75.044298	0.000405	4.054135	0.686789	-0.000081
 539	5.3531e+01	9.2811	74.991815	0.000264	2.635188	0.446413	-0.000053
 540	5.3630e+01	9.2605	74.890887	0.000507	5.067669	0.858486	-0.000101
 541	5.3730e+01	9.2425	74.793995	0.000486	4.864962	0.824147	-0.000097
 542	5.3830e+01	9.2212	74.753624	0.000203	2.027067	0.343395	-0.000041
 543	5.3929e+01	9.2011	74.684993	0.000345	3.446015	0.583771	-0.000069
 544	5.4029e+01	9.1806	74.620398	0.000324	3.243308	0.549431	-0.000065
 545	5.4128e+01	9.1618	74.547730	0.000365	3.648721	0.618110	-0.000073
 546	5.4227e+01	9.1406	74.499284	0.000243	2.432481	0.412073	-0.000049
 547	5.4327e+01	9.1216	74.390282	0.000547	5.473082	0.927165	-0.000110
 548	5.4426e+01	9.1016	74.349910	0.000203	2.027067	0.343395	-0.000041
 549	5.4526e+01	9.0820	74.261093	0.000446	4.459548	0.755468	-0.000089
 550	5.4626e+01	9.0620	74.204573	0.000284	2.837894	0.480752	-0.000057
 551	5.4725e+01	9.0413	74.156128	0.000243	2.432481	0.412073	-0.000049
 552	5.4825e+01	9.0210	74.071348	0.000426	4.256842	0.721128	-0.000085
 553	5.4924e+01	9.0023	73.974457	0.000486	4.864962	0.824147	-0.000097
 554	5.5023e+01	8.9813	73.909863	0.000324	3.243308	0.549431	-0.000065
 555	5.5123e+01	8.9633	73.857380	0.000264	2.635188	0.446413	-0.000053
 556	5.5222e+01	8.9426	73.748377	0.000547	5.473082	0.927165	-0.000110
 557	5.5322e+01	8.9224	73.695894	0.000264	2.635188	0.446413	-0.000053
 558	5.5422e+01	8.9031	73.615152	0.000405	4.054135	0.686789	-0.000081
 559	5.5521e+01	8.8810	73.550557	0.000324	3.243308	0.549431	-0.000065
 560	5.5620e+01	8.8627	73.465778	0.000426	4.256842	0.721128	-0.000085
 561	5.5720e+01	8.8432	73.417332	0.000243	2.432481	0.412073	-0.000049
 562	5.5819e+01	8.8236	73.348701	0.000345	3.446015	0.583771	-0.000069
 563	5.5919e+01	8.8037	73.247772	0.000507	5.067669	0.858486	-0.000101
 564	5.6019e+01	8.7830	73.211438	0.000182	1.824361	0.309055	-0.000037
 565	5.6118e+01	8.7634	73.126658	0.000426	4.256842	0.721128	-0.000085
 566	5.6218e+01	8.7428	73.009581	0.000588	5.878496	0.995844	-0.000118
 567	5.6317e+01	8.7238	72.973247	0.000182	1.824361	0.309055	-0.000037
 568	5.6416e+01	8.7042	72.852133	0.000608	6.081202	1.030184	-0.000122
 569	5.6516e+01	8.6841	72.799650	0.000264	2.635188	0.446413	-0.000053
 570	5.6615e+01	8.6646	72.755242	0.000223	2.229774	0.377734	-0.000045
 571	5.6715e+01	8.6442	72.662388	0.000466	4.662255	0.789807	-0.000093
 572	5.6815e+01	8.6246	72.597793	0.000324	3.243308	0.549431	-0.000065
 573	5.6914e+01	8.6030	72.500902	0.000486	4.864962	0.824147	-0.000097
 574	5.7014e+01	8.5834	72.460531	0.000203	2.027067	0.343395	-0.000041
 575	5.7113e+01	8.5635	72.399974	0.000304	3.040601	0.515092	-0.000061
 576	5.7212e+01	8.5435	72.299045	0.000507	5.067669	0.858486	-0.000101
 577	5.7312e+01	8.5257	72.258674	0.000203	2.027067	0.343395	-0.000041
 578	5.7411e+01	8.5040	72.161783	0.000486	4.864962	0.824147	-0.000097
 579	5.7511e+01	8.4815	72.097189	0.000324	3.243308	0.549431	-0.000065
 580	5.7611e+01	8.4644	72.008372	0.000446	4.459548	0.755468	-0.000089
 581	5.7710e+01	8.4449	71.927629	0.000405	4.054135	0.686789	-0.000081
 582	5.7809e+01	8.4254	71.842849	0.000426	4.256842	0.721128	-0.000085
 583	5.7909e+01	8.4058	71.786329	0.000284	2.837894	0.480752	-0.000057
 584	5.8008e+01	8.3854	71.713661	0.000365	3.648721	0.618110	-0.000073
 585	5.8108e+01	8.3645	71.616769	0.000486	4.864962	0.824147	-0.000097
 586	5.8208e+01	8.3447	71.548138	0.000345	3.446015	0.583771	-0.000069
 587	5.8307e+01	8.3259	71.475470	0.000365	3.648721	0.618110	-0.000073
 588	5.8407e+01	8.3046	71.382616	0.000466	4.662255	0.789807	-0.000093
 589	5.8506e+01	8.2847	71.297836	0.000426	4.256842	0.721128	-0.000085
 590	5.8605e+01	8.2644	71.237279	0.000304	3.040601	0.515092	-0.000061
 591	5.8705e+01	8.2452	71.164610	0.000365	3.648721	0.618110	-0.000073
 592	5.8804e+01	8.2253	71.059645	0.000527	5.270375	0.892826	-0.000105
 593	5.8904e+01	8.2064	71.015236	0.000223	2.229774	0.377734	-0.000045
 594	5.9004e+01	8.1860	70.938531	0.000385	3.851428	0.652450	-0.000077
 595	5.9103e+01	8.1657	70.837602	0.000507	5.067669	0.858486	-0.000101
 596	5.9203e+01	8.1463	70.764934	0.000365	3.648721	0.618110	-0.000073
 597	5.9302e+01	8.1263	70.668043	0.000486	4.864962	0.824147	-0.000097
 598	5.9401e+01	8.1059	70.595374	0.000365	3.648721	0.618110	-0.000073
 599	5.9501e+01	8.0862	70.563077	0.000162	1.621654	0.274716	-0.000032
 600	5.9600e+01	8.0670	70.474260	0.000446	4.459548	0.755468	-0.000089
 601	5.9700e+01	8.0477	70.345072	0.000649	6.486616	1.098862	-0.000130
 602	5.9800e+01	8.0268	70.320849	0.000122	1.216240	0.206037	-0.000024
 603	5.9899e+01	8.0067	70.207809	0.000568	5.675789	0.961505	-0.000114
 604	5.9998e+01	7.9869	70.155326	0.000264	2.635188	0.446413	-0.000053
 605	6.0098e+01	7.9658	70.054398	0.000507	5.067669	0.858486	-0.000101
 606	6.0197e+01	7.9468	70.014027	0.000203	2.027067	0.343395	-0.000041
 607	6.0297e+01	7.9275	69.937321	0.000385	3.851428	0.652450	-0.000077
 608	6.0397e+01	7.9068	69.840430	0.000486	4.864962	0.824147	-0.000097
 609	6.0496e+01	7.8869	69.751613	0.000446	4.459548	0.755468	-0.000089
 610	6.0596e+01	7.8675	69.691056	0.000304	3.040601	0.515092	-0.000061
 611	6.0695e+01	7.8468	69.594164	0.000486	4.864962	0.824147	-0.000097
 612	6.0794e+01	7.8271	69.573979	0.000101	1.013534	0.171697	-0.000020
 613	6.0894e+01	7.8087	69.477087	0.000486	4.864962	0.824147	-0.000097
 614	6.0993e+01	7.7881	69.404419	0.000365	3.648721	0.618110	-0.000073
 615	6.1093e+01	7.7641	69.315602	0.000446	4.459548	0.755468	-0.000089
 616	6.1193e+01	7.7472	69.242934	0.000365	3.648721	0.618110	-0.000073
 617	6.1292e+01	7.7287	69.154117	0.000446	4.459548	0.755468	-0.000089
 618	6.1392e+01	7.7087	69.093560	0.000304	3.040601	0.515092	-0.000061
 619	6.1491e+01	7.6874	68.992631	0.000507	5.067669	0.858486	-0.000101
 620	6.1590e+01	7.6682	68.919963	0.000365	3.648721	0.618110	-0.000073
 621	6.1690e+01	7.6472	68.839220	0.000405	4.054135	0.686789	-0.000081
 622	6.1789e+01	7.6281	68.750403	0.000446	4.459548	0.755468	-0.000089
 623	6.1889e+01	7.6075	68.689846	0.000304	3.040601	0.515092	-0.000061
 624	6.1989e+01	7.5887	68.596992	0.000466	4.662255	0.789807	-0.000093
 625	6.2088e+01	7.5680	68.496063	0.000507	5.067669	0.858486	-0.000101
 626	6.2188e+01	7.5489	68.451655	0.000223	2.229774	0.377734	-0.000045
 627	6.2287e+01	7.5297	68.370912	0.000405	4.054135	0.686789	-0.000081
 628	6.2386e+01	7.5079	68.298244	0.000365	3.648721	0.618110	-0.000073
 629	6.2486e+01	7.4895	68.217501	0.000405	4.054135	0.686789	-0.000081
 630	6.2586e+01	7.4680	68.144833	0.000365	3.648721	0.618110	-0.000073
 631	6.2685e+01	7.4496	68.019681	0.000628	6.283909	1.064523	-0.000126
 632	6.2785e+01	7.4294	67.963162	0.000284	2.837894	0.480752	-0.000057
 633	6.2884e+01	7.4090	67.854159	0.000547	5.473082	0.927165	-0.000110
 634	6.2983e+01	7.3879	67.805713	0.000243	2.432481	0.412073	-0.000049
 635	6.3083e+01	7.3696	67.708822	0.000486	4.864962	0.824147	-0.000097
 636	6.3182e+01	7.3492	67.660376	0.000243	2.432481	0.412073	-0.000049
 637	6.3282e+01	7.3293	67.595782	0.000324	3.243308	0.549431	-0.000065
 638	6.3382e+01	7.3090	67.482742	0.000568	5.675789	0.961505	-0.000114
 639	6.3481e+01	7.2900	67.438334	0.000223	2.229774	0.377734	-0.000045
 640	6.3581e+01	7.2701	67.297034	0.000709	7.094736	1.201881	-0.000142
 641	6.3680e+01	7.2516	67.244551	0.000264	2.635188	0.446413	-0.000053
 642	6.3779e+01	7.2292	67.135549	0.000547	5.473082	0.927165	-0.000110
 643	6.3879e+01	7.2102	67.066917	0.000345	3.446015	0.583771	-0.000069
 644	6.3978e+01	7.1899	67.018472	0.000243	2.432481	0.412073	-0.000049
 645	6.4078e+01	7.1697	66.893321	0.000628	6.283909	1.064523	-0.000126
 646	6.4177e+01	7.1499	66.824689	0.000345	3.446015	0.583771	-0.000069
 647	6.4277e+01	7.1305	66.731835	0.000466	4.662255	0.789807	-0.000093
 648	6.4376e+01	7.1102	66.679352	0.000264	2.635188	0.446413	-0.000053
 649	6.4476e+01	7.0899	66.566313	0.000568	5.675789	0.961505	-0.000114
 650	6.4576e+01	7.0699	66.513830	0.000264	2.635188	0.446413	-0.000053
 651	6.4675e+01	7.0499	66.420976	0.000466	4.662255	0.789807	-0.000093
 652	6.4775e+01	7.0306	66.360419	0.000304	3.040601	0.515092	-0.000061
 653	6.4874e+01	7.0119	66.247379	0.000568	5.675789	0.961505	-0.000114
 654	6.4974e+01	6.9911	66.178748	0.000345	3.446015	0.583771	-0.000069
 655	6.5073e+01	6.9711	66.073782	0.000527	5.270375	0.892826	-0.000105
 656	6.5172e+01	6.9508	66.009188	0.000324	3.243308	0.549431	-0.000065
 657	6.5272e+01	6.9312	65.912297	0.000486	4.864962	0.824147	-0.000097
 658	6.5371e+01	6.9108	65.843665	0.000345	3.446015	0.583771	-0.000069
 659	6.5471e+01	6.8914	65.734663	0.000547	5.473082	0.927165	-0.000110
 660	6.5570e+01	6.8703	65.686217	0.000243	2.432481	0.412073	-0.000049
 661	6.5670e+01	6.8517	65.577214	0.000547	5.473082	0.927165	-0.000110
 662	6.5769e+01	6.8322	65.476286	0.000507	5.067669	0.858486	-0.000101
 663	6.5869e+01	6.8121	65.403618	0.000365	3.648721	0.618110	-0.000073
 664	6.5969e+01	6.7913	65.314801	0.000446	4.459548	0.755468	-0.000089
 665	6.6068e+01	6.7721	65.221946	0.000466	4.662255	0.789807	-0.000093
 666	6.6168e+01	6.7513	65.137167	0.000426	4.256842	0.721128	-0.000085
 667	6.6267e+01	6.7318	65.064498	0.000365	3.648721	0.618110	-0.000073
 668	6.6367e+01	6.7126	64.995867	0.000345	3.446015	0.583771	-0.000069
 669	6.6466e+01	6.6920	64.911087	0.000426	4.256842	0.721128	-0.000085
 670	6.6566e+01	6.6724	64.818233	0.000466	4.662255	0.789807	-0.000093
 671	6.6665e+01	6.6520	64.753639	0.000324	3.243308	0.549431	-0.000065
 672	6.6764e+01	6.6325	64.652710	0.000507	5.067669	0.858486	-0.000101
 673	6.6864e+01	6.6127	64.567930	0.000426	4.256842	0.721128	-0.000085
 674	6.6963e+01	6.5926	64.471039	0.000486	4.864962	0.824147	-0.000097
 675	6.7063e+01	6.5723	64.394334	0.000385	3.851428	0.652450	-0.000077
 676	6.7162e+01	6.5520	64.317628	0.000385	3.851428	0.652450	-0.000077
 677	6.7262e+01	6.5337	64.248997	0.000345	3.446015	0.583771	-0.000069
 678	6.7362e+01	6.5128	64.139994	0.000547	5.473082	0.927165	-0.000110
 679	6.7461e+01	6.4922	64.043103	0.000486	4.864962	0.824147	-0.000097
 680	6.7561e+01	6.4735	63.982546	0.000304	3.040601	0.515092	-0.000061
 681	6.7660e+01	6.4528	63.909877	0.000365	3.648721	0.618110	-0.000073
 682	6.7760e+01	6.4330	63.825097	0.000426	4.256842	0.721128	-0.000085
 683	6.7859e+01	6.4126	63.732243	0.000466	4.662255	0.789807	-0.000093
 684	6.7959e+01	6.3924	63.631315	0.000507	5.067669	0.858486	-0.000101
 685	6.8058e+01	6.3734	63.538461	0.000466	4.662255	0.789807	-0.000093
 686	6.8157e+01	6.3523	63.514238	0.000122	1.216240	0.206037	-0.000024
 687	6.8257e+01	6.3338	63.360827	0.000770	7.702856	1.304899	-0.000154
 688	6.8356e+01	6.3129	63.280084	0.000405	4.054135	0.686789	-0.000081
 689	6.8456e+01	6.2942	63.207416	0.000365	3.648721	0.618110	-0.000073
 690	6.8555e+01	6.2742	63.086302	0.000608	6.081202	1.030184	-0.000122
 691	6.8655e+01	6.2533	63.005559	0.000405	4.054135	0.686789	-0.000081
 692	6.8754e+01	6.2347	62.932890	0.000365	3.648721	0.618110	-0.000073
 693	6.8854e+01	6.2157	62.815814	0.000588	5.878496	0.995844	-0.000118
 694	6.8954e+01	6.1947	62.735071	0.000405	4.054135	0.686789	-0.000081
 695	6.9053e+01	6.1744	62.642217	0.000466	4.662255	0.789807	-0.000093
 696	6.9153e+01	6.1555	62.553400	0.000446	4.459548	0.755468	-0.000089
 697	6.9252e+01	6.1337	62.476694	0.000385	3.851428	0.652450	-0.000077
 698	6.9352e+01	6.1138	62.371729	0.000527	5.270375	0.892826	-0.000105
 699	6.9451e+01	6.0950	62.254652	0.000588	5.878496	0.995844	-0.000118
 700	6.9550e+01	6.0751	62.177946	0.000385	3.851428	0.652450	-0.000077
 701	6.9650e+01	6.0561	62.081055	0.000486	4.864962	0.824147	-0.000097
 702	6.9749e+01	6.0345	62.028572	0.000264	2.635188	0.446413	-0.000053
 703	6.9849e+01	6.0143	61.959941	0.000345	3.446015	0.583771	-0.000069
 704	6.9948e+01	5.9954	61.859012	0.000507	5.067669	0.858486	-0.000101
 705	7.0048e+01	5.9751	61.733861	0.000628	6.283909	1.064523	-0.000126
 706	7.0147e+01	5.9557	61.649081	0.000426	4.256842	0.721128	-0.000085
 707	7.0247e+01	5.9354	61.564301	0.000426	4.256842	0.721128	-0.000085
 708	7.0347e+01	5.9154	61.515856	0.000243	2.432481	0.412073	-0.000049
 709	7.0446e+01	5.8947	61.362445	0.000770	7.702856	1.304899	-0.000154
 710	7.0546e+01	5.8758	61.261516	0.000507	5.067669	0.858486	-0.000101
 711	7.0645e+01	5.8564	61.213071	0.000243	2.432481	0.412073	-0.000049
 712	7.0745e+01	5.8367	61.079845	0.000669	6.689323	1.133202	-0.000134
 713	7.0844e+01	5.8161	60.986991	0.000466	4.662255	0.789807	-0.000093
 714	7.0944e+01	5.7960	60.918360	0.000345	3.446015	0.583771	-0.000069
 715	7.1043e+01	5.7760	60.817431	0.000507	5.067669	0.858486	-0.000101
 716	7.1142e+01	5.7549	60.740726	0.000385	3.851428	0.652450	-0.000077
 717	7.1242e+01	5.7360	60.680169	0.000304	3.040601	0.515092	-0.000061
 718	7.1341e+01	5.7162	60.563092	0.000588	5.878496	0.995844	-0.000118
 719	7.1441e+01	5.6975	60.454089	0.000547	5.473082	0.927165	-0.000110
 720	7.1540e+01	5.6765	60.389495	0.000324	3.243308	0.549431	-0.000065
 721	7.1640e+01	5.6564	60.304715	0.000426	4.256842	0.721128	-0.000085
 722	7.1740e+01	5.6368	60.191675	0.000568	5.675789	0.961505	-0.000114
 723	7.1839e+01	5.6174	60.098821	0.000466	4.662255	0.789807	-0.000093
 724	7.1939e+01	5.5967	59.977707	0.000608	6.081202	1.030184	-0.000122
 725	7.2038e+01	5.5782	59.925224	0.000264	2.635188	0.446413	-0.000053
 726	7.2138e+01	5.5569	59.812185	0.000568	5.675789	0.961505	-0.000114
 727	7.2237e+01	5.5373	59.735479	0.000385	3.851428	0.652450	-0.000077
 728	7.2337e+01	5.5169	59.630513	0.000527	5.270375	0.892826	-0.000105
 729	7.2436e+01	5.4974	59.557845	0.000365	3.648721	0.618110	-0.000073
 730	7.2535e+01	5.4768	59.444805	0.000568	5.675789	0.961505	-0.000114
 731	7.2635e+01	5.4566	59.360025	0.000426	4.256842	0.721128	-0.000085
 732	7.2734e+01	5.4375	59.263134	0.000486	4.864962	0.824147	-0.000097
 733	7.2834e+01	5.4168	59.186428	0.000385	3.851428	0.652450	-0.000077
 734	7.2933e+01	5.3980	59.089537	0.000486	4.864962	0.824147	-0.000097
 735	7.3033e+01	5.3777	58.960349	0.000649	6.486616	1.098862	-0.000130
 736	7.3132e+01	5.3568	58.891718	0.000345	3.446015	0.583771	-0.000069
 737	7.3232e+01	5.3388	58.806938	0.000426	4.256842	0.721128	-0.000085
 738	7.3332e+01	5.3178	58.693898	0.000568	5.675789	0.961505	-0.000114
 739	7.3431e+01	5.2975	58.613155	0.000405	4.054135	0.686789	-0.000081
 740	7.3531e+01	5.2775	58.504153	0.000547	5.473082	0.927165	-0.000110
 741	7.3630e+01	5.2578	58.439558	0.000324	3.243308	0.549431	-0.000065
 742	7.3730e+01	5.2386	58.326519	0.000568	5.675789	0.961505	-0.000114
 743	7.3829e+01	5.2184	58.233664	0.000466	4.662255	0.789807	-0.000093
 744	7.3928e+01	5.1981	58.116588	0.000588	5.878496	0.995844	-0.000118
 745	7.4028e+01	5.1775	58.019696	0.000486	4.864962	0.824147	-0.000097
 746	7.4127e+01	5.1578	57.947028	0.000365	3.648721	0.618110	-0.000073
 747	7.4227e+01	5.1393	57.874359	0.000365	3.648721	0.618110	-0.000073
 748	7.4326e+01	5.1189	57.761320	0.000568	5.675789	0.961505	-0.000114
 749	7.4426e+01	5.0990	57.660391	0.000507	5.067669	0.858486	-0.000101
 750	7.4525e+01	5.0795	57.547351	0.000568	5.675789	0.961505	-0.000114
 751	7.4625e+01	5.0579	57.482757	0.000324	3.243308	0.549431	-0.000065
 752	7.4725e+01	5.0391	57.393940	0.000446	4.459548	0.755468	-0.000089
 753	7.4824e+01	5.0195	57.280900	0.000568	5.675789	0.961505	-0.000114
 754	7.4924e+01	4.9992	57.175935	0.000527	5.270375	0.892826	-0.000105
 755	7.5023e+01	4.9789	57.095192	0.000405	4.054135	0.686789	-0.000081
 756	7.5123e+01	4.9603	56.978115	0.000588	5.878496	0.995844	-0.000118
 757	7.5222e+01	4.9395	56.897373	0.000405	4.054135	0.686789	-0.000081
 758	7.5322e+01	4.9197	56.788370	0.000547	5.473082	0.927165	-0.000110
 759	7.5421e+01	4.9001	56.683404	0.000527	5.270375	0.892826	-0.000105
 760	7.5520e+01	4.8794	56.602662	0.000405	4.054135	0.686789	-0.000081
 761	7.5620e+01	4.8608	56.465399	0.000689	6.892029	1.167541	-0.000138
 762	7.5719e+01	4.8405	56.392731	0.000365	3.648721	0.618110	-0.000073
 763	7.5819e+01	4.8197	56.255468	0.000689	6.892029	1.167541	-0.000138
 764	7.5918e+01	4.8002	56.194911	0.000304	3.040601	0.515092	-0.000061
 765	7.6018e+01	4.7785	56.110131	0.000426	4.256842	0.721128	-0.000085
 766	7.6118e+01	4.7569	55.989017	0.000608	6.081202	1.030184	-0.000122
 767	7.6217e+01	4.7408	55.863866	0.000628	6.283909	1.064523	-0.000126
 768	7.6317e+01	4.7204	55.799272	0.000324	3.243308	0.549431	-0.000065
 769	7.6416e+01	4.7011	55.714492	0.000426	4.256842	0.721128	-0.000085
 770	7.6516e+01	4.6809	55.573192	0.000709	7.094736	1.201881	-0.000142
 771	7.6615e+01	4.6607	55.532821	0.000203	2.027067	0.343395	-0.000041
 772	7.6715e+01	4.6403	55.387484	0.000730	7.297443	1.236220	-0.000146
 773	7.6814e+01	4.6214	55.314815	0.000365	3.648721	0.618110	-0.000073
 774	7.6913e+01	4.6003	55.225998	0.000446	4.459548	0.755468	-0.000089
 775	7.7013e+01	4.5808	55.133144	0.000466	4.662255	0.789807	-0.000093
 776	7.7112e+01	4.5613	55.003956	0.000649	6.486616	1.098862	-0.000130
 777	7.7212e+01	4.5410	54.907065	0.000486	4.864962	0.824147	-0.000097
 778	7.7311e+01	4.5216	54.806136	0.000507	5.067669	0.858486	-0.000101
 779	7.7411e+01	4.5010	54.733468	0.000365	3.648721	0.618110	-0.000073
 780	7.7510e+01	4.4802	54.628502	0.000527	5.270375	0.892826	-0.000105
 781	7.7610e+01	4.4612	54.507388	0.000608	6.081202	1.030184	-0.000122
 782	7.7710e+01	4.4410	54.446831	0.000304	3.040601	0.515092	-0.000061
 783	7.7809e+01	4.4219	54.325717	0.000608	6.081202	1.030184	-0.000122
 784	7.7909e+01	4.4010	54.261123	0.000324	3.243308	0.549431	-0.000065
 785	7.8008e+01	4.3822	54.131935	0.000649	6.486616	1.098862	-0.000130
 786	7.8108e+01	4.3616	54.075415	0.000284	2.837894	0.480752	-0.000057
 787	7.8207e+01	4.3421	53.962375	0.000568	5.675789	0.961505	-0.000114
 788	7.8306e+01	4.3224	53.825112	0.000689	6.892029	1.167541	-0.000138
 789	7.8406e+01	4.3020	53.756481	0.000345	3.446015	0.583771	-0.000069
 790	7.8505e+01	4.2822	53.643441	0.000568	5.675789	0.961505	-0.000114
 791	7.8605e+01	4.2622	53.514253	0.000649	6.486616	1.098862	-0.000130
 792	7.8704e+01	4.2425	53.425436	0.000446	4.459548	0.755468	-0.000089
 793	7.8804e+01	4.2226	53.360842	0.000324	3.243308	0.549431	-0.000065
 794	7.8903e+01	4.2020	53.203393	0.000791	7.905563	1.339239	-0.000158
 795	7.9003e+01	4.1817	53.122651	0.000405	4.054135	0.686789	-0.000081
 796	7.9103e+01	4.1621	52.989425	0.000669	6.689323	1.133202	-0.000134
 797	7.9202e+01	4.1442	52.961165	0.000142	1.418947	0.240376	-0.000028
 798	7.9302e+01	4.1212	52.852163	0.000547	5.473082	0.927165	-0.000110
 799	7.9401e+01	4.1024	52.698751	0.000770	7.702856	1.304899	-0.000154
 800	7.9501e+01	4.0820	52.601860	0.000486	4.864962	0.824147	-0.000097
 801	7.9600e+01	4.0630	52.525155	0.000385	3.851428	0.652450	-0.000077
 802	7.9700e+01	4.0432	52.400003	0.000628	6.283909	1.064523	-0.000126
 803	7.9799e+01	4.0218	52.303112	0.000486	4.864962	0.824147	-0.000097
 804	7.9898e+01	4.0033	52.246592	0.000284	2.837894	0.480752	-0.000057
 805	7.9998e+01	3.9832	52.125478	0.000608	6.081202	1.030184	-0.000122
 806	8.0097e+01	3.9632	52.028587	0.000486	4.864962	0.824147	-0.000097
 807	8.0197e+01	3.9475	51.915547	0.000568	5.675789	0.961505	-0.000114
 808	8.0296e+01	3.9227	51.838841	0.000385	3.851428	0.652450	-0.000077
 809	8.0396e+01	3.9034	51.725802	0.000568	5.675789	0.961505	-0.000114
 810	8.0496e+01	3.8834	51.576428	0.000750	7.500150	1.270560	-0.000150
 811	8.0595e+01	3.8638	51.511833	0.000324	3.243308	0.549431	-0.000065
 812	8.0695e+01	3.8447	51.382645	0.000649	6.486616	1.098862	-0.000130
 813	8.0794e+01	3.8233	51.285754	0.000486	4.864962	0.824147	-0.000097
 814	8.0894e+01	3.8027	51.176751	0.000547	5.473082	0.927165	-0.000110
 815	8.0993e+01	3.7833	51.063711	0.000568	5.675789	0.961505	-0.000114
 816	8.1093e+01	3.7635	50.950672	0.000568	5.675789	0.961505	-0.000114
 817	8.1192e+01	3.7446	50.882040	0.000345	3.446015	0.583771	-0.000069
 818	8.1291e+01	3.7244	50.752852	0.000649	6.486616	1.098862	-0.000130
 819	8.1391e+01	3.7044	50.668072	0.000426	4.256842	0.721128	-0.000085
 820	8.1490e+01	3.6851	50.522735	0.000730	7.297443	1.236220	-0.000146
 821	8.1590e+01	3.6649	50.437955	0.000426	4.256842	0.721128	-0.000085
 822	8.1689e+01	3.6443	50.332990	0.000527	5.270375	0.892826	-0.000105
 823	8.1789e+01	3.6253	50.252247	0.000405	4.054135	0.686789	-0.000081
 824	8.1888e+01	3.6056	50.135170	0.000588	5.878496	0.995844	-0.000118
 825	8.1988e+01	3.5848	49.989833	0.000730	7.297443	1.236220	-0.000146
 826	8.2088e+01	3.5647	49.921202	0.000345	3.446015	0.583771	-0.000069
 827	8.2187e+01	3.5458	49.804125	0.000588	5.878496	0.995844	-0.000118
 828	8.2287e+01	3.5260	49.711271	0.000466	4.662255	0.789807	-0.000093
 829	8.2386e+01	3.5057	49.598231	0.000568	5.675789	0.961505	-0.000114
 830	8.2486e+01	3.4852	49.473080	0.000628	6.283909	1.064523	-0.000126
 831	8.2585e+01	3.4657	49.380226	0.000466	4.662255	0.789807	-0.000093
 832	8.2684e+01	3.4461	49.263149	0.000588	5.878496	0.995844	-0.000118
 833	8.2784e+01	3.4257	49.186443	0.000385	3.851428	0.652450	-0.000077
 834	8.2883e+01	3.4063	49.016884	0.000851	8.513683	1.442257	-0.000170
 835	8.2983e+01	3.3870	48.940178	0.000385	3.851428	0.652450	-0.000077
 836	8.3082e+01	3.3661	48.867510	0.000365	3.648721	0.618110	-0.000073
 837	8.3182e+01	3.3454	48.778693	0.000446	4.459548	0.755468	-0.000089
 838	8.3281e+01	3.3254	48.629319	0.000750	7.500150	1.270560	-0.000150
 839	8.3381e+01	3.3063	48.544539	0.000426	4.256842	0.721128	-0.000085
 840	8.3481e+01	3.2857	48.403239	0.000709	7.094736	1.201881	-0.000142
 841	8.3580e+01	3.2662	48.314422	0.000446	4.459548	0.755468	-0.000089
 842	8.3680e+01	3.2458	48.197345	0.000588	5.878496	0.995844	-0.000118
 843	8.3779e+01	3.2262	48.088342	0.000547	5.473082	0.927165	-0.000110
 844	8.3879e+01	3.2059	47.955117	0.000669	6.689323	1.133202	-0.000134
 845	8.3978e+01	3.1866	47.850151	0.000527	5.270375	0.892826	-0.000105
 846	8.4078e+01	3.1665	47.777483	0.000365	3.648721	0.618110	-0.000073
 847	8.4177e+01	3.1475	47.684629	0.000466	4.662255	0.789807	-0.000093
 848	8.4276e+01	3.1262	47.535255	0.000750	7.500150	1.270560	-0.000150
 849	8.4376e+01	3.1074	47.422215	0.000568	5.675789	0.961505	-0.000114
 850	8.4475e+01	3.0866	47.353584	0.000345	3.446015	0.583771	-0.000069
 851	8.4575e+01	3.0657	47.236507	0.000588	5.878496	0.995844	-0.000118
 852	8.4674e+01	3.0471	47.131541	0.000527	5.270375	0.892826	-0.000105
 853	8.4774e+01	3.0273	47.014464	0.000588	5.878496	0.995844	-0.000118
 854	8.4874e+01	3.0071	46.889313	0.000628	6.283909	1.064523	-0.000126
 855	8.4973e+01	2.9871	46.772236	0.000588	5.878496	0.995844	-0.000118
 856	8.5073e+01	2.9679	46.679382	0.000466	4.662255	0.789807	-0.000093
 857	8.5172e+01	2.9478	46.550194	0.000649	6.486616	1.098862	-0.000130
 858	8.5272e+01	2.9273	46.425042	0.000628	6.283909	1.064523	-0.000126
 859	8.5371e+01	2.9080	46.324114	0.000507	5.067669	0.858486	-0.000101
 860	8.5471e+01	2.8873	46.243371	0.000405	4.054135	0.686789	-0.000081
 861	8.5570e+01	2.8679	46.093997	0.000750	7.500150	1.270560	-0.000150
 862	8.5669e+01	2.8477	46.017292	0.000385	3.851428	0.652450	-0.000077
 863	8.5769e+01	2.8269	45.843695	0.000872	8.716390	1.476596	-0.000174
 864	8.5868e+01	2.8074	45.750841	0.000466	4.662255	0.789807	-0.000093
 865	8.5968e+01	2.7874	45.621652	0.000649	6.486616	1.098862	-0.000130
 866	8.6067e+01	2.7680	45.548984	0.000365	3.648721	0.618110	-0.000073
 867	8.6167e+01	2.7479	45.415758	0.000669	6.689323	1.133202	-0.000134
 868	8.6266e+01	2.7285	45.298682	0.000588	5.878496	0.995844	-0.000118
 869	8.6366e+01	2.7087	45.169493	0.000649	6.486616	1.098862	-0.000130
 870	8.6466e+01	2.6887	45.088750	0.000405	4.054135	0.686789	-0.000081
 871	8.6565e+01	2.6690	44.955525	0.000669	6.689323	1.133202	-0.000134
 872	8.6665e+01	2.6489	44.830374	0.000628	6.283909	1.064523	-0.000126
 873	8.6764e+01	2.6295	44.745594	0.000426	4.256842	0.721128	-0.000085
 874	8.6864e+01	2.6086	44.620443	0.000628	6.283909	1.064523	-0.000126
 875	8.6963e+01	2.5886	44.483180	0.000689	6.892029	1.167541	-0.000138
 876	8.7063e+01	2.5686	44.382252	0.000507	5.067669	0.858486	-0.000101
 877	8.7162e+01	2.5487	44.277286	0.000527	5.270375	0.892826	-0.000105
 878	8.7261e+01	2.5290	44.188469	0.000446	4.459548	0.755468	-0.000089
 879	8.7361e+01	2.5090	44.063318	0.000628	6.283909	1.064523	-0.000126
 880	8.7460e+01	2.4892	43.954315	0.000547	5.473082	0.927165	-0.000110
 881	8.7560e+01	2.4687	43.829164	0.000628	6.283909	1.064523	-0.000126
 882	8.7659e+01	2.4488	43.708050	0.000608	6.081202	1.030184	-0.000122
 883	8.7759e+01	2.4300	43.595010	0.000568	5.675789	0.961505	-0.000114
 884	8.7859e+01	2.4097	43.494082	0.000507	5.067669	0.858486	-0.000101
 885	8.7958e+01	2.3900	43.324522	0.000851	8.513683	1.442257	-0.000170
 886	8.8058e+01	2.3691	43.235705	0.000446	4.459548	0.755468	-0.000089
 887	8.8157e+01	2.3499	43.134777	0.000507	5.067669	0.858486	-0.000101
 888	8.8257e+01	2.3305	43.017700	0.000588	5.878496	0.995844	-0.000118
 889	8.8356e+01	2.3096	42.924846	0.000466	4.662255	0.789807	-0.000093
 890	8.8456e+01	2.2898	42.759323	0.000831	8.310976	1.407918	-0.000166
 891	8.8555e+01	2.2698	42.682618	0.000385	3.851428	0.652450	-0.000077
 892	8.8654e+01	2.2504	42.541318	0.000709	7.094736	1.201881	-0.000142
 893	8.8754e+01	2.2299	42.436352	0.000527	5.270375	0.892826	-0.000105
 894	8.8853e+01	2.2097	42.307164	0.000649	6.486616	1.098862	-0.000130
 895	8.8953e+01	2.1907	42.186050	0.000608	6.081202	1.030184	-0.000122
 896	8.9052e+01	2.1711	42.085122	0.000507	5.067669	0.858486	-0.000101
 897	8.9152e+01	2.1511	41.972082	0.000568	5.675789	0.961505	-0.000114
 898	8.9251e+01	2.1309	41.826745	0.000730	7.297443	1.236220	-0.000146
 899	8.9351e+01	2.1101	41.754076	0.000365	3.648721	0.618110	-0.000073
 900	8.9451e+01	2.0905	41.612777	0.000709	7.094736	1.201881	-0.000142
 901	8.9550e+01	2.0699	41.519922	0.000466	4.662255	0.789807	-0.000093
 902	8.9650e+01	2.0516	41.370548	0.000750	7.500150	1.270560	-0.000150
 903	8.9749e+01	2.0307	41.281731	0.000446	4.459548	0.755468	-0.000089
 904	8.9849e+01	2.0109	41.140432	0.000709	7.094736	1.201881	-0.000142
 905	8.9948e+01	1.9904	41.023355	0.000588	5.878496	0.995844	-0.000118
 906	9.0047e+01	1.9717	40.906278	0.000588	5.878496	0.995844	-0.000118
 907	9.0147e+01	1.9518	40.769015	0.000689	6.892029	1.167541	-0.000138
 908	9.0246e+01	1.9310	40.647901	0.000608	6.081202	1.030184	-0.000122
 909	9.0346e+01	1.9121	40.551010	0.000486	4.864962	0.824147	-0.000097
 910	9.0445e+01	1.8921	40.425859	0.000628	6.283909	1.064523	-0.000126
 911	9.0545e+01	1.8716	40.284559	0.000709	7.094736	1.201881	-0.000142
 912	9.0644e+01	1.8510	40.171519	0.000568	5.675789	0.961505	-0.000114
 913	9.0744e+01	1.8315	40.046368	0.000628	6.283909	1.064523	-0.000126
 914	9.0844e+01	1.8119	39.953514	0.000466	4.662255	0.789807	-0.000093
 915	9.0943e+01	1.7915	39.864697	0.000446	4.459548	0.755468	-0.000089
 916	9.1043e+01	1.7716	39.683026	0.000912	9.121803	1.545275	-0.000183
 917	9.1142e+01	1.7527	39.602283	0.000405	4.054135	0.686789	-0.000081
 918	9.1242e+01	1.7318	39.456946	0.000730	7.297443	1.236220	-0.000146
 919	9.1341e+01	1.7127	39.339869	0.000588	5.878496	0.995844	-0.000118
 920	9.1441e+01	1.6924	39.251052	0.000446	4.459548	0.755468	-0.000089
 921	9.1540e+01	1.6721	39.101678	0.000750	7.500150	1.270560	-0.000150
 922	9.1639e+01	1.6525	38.972490	0.000649	6.486616	1.098862	-0.000130
 923	9.1739e+01	1.6324	38.839264	0.000669	6.689323	1.133202	-0.000134
 924	9.1838e+01	1.6135	38.742373	0.000486	4.864962	0.824147	-0.000097
 925	9.1938e+01	1.5927	38.629333	0.000568	5.675789	0.961505	-0.000114
 926	9.2037e+01	1.5725	38.488034	0.000709	7.094736	1.201881	-0.000142
 927	9.2137e+01	1.5524	38.391142	0.000486	4.864962	0.824147	-0.000097
 928	9.2237e+01	1.5337	38.265991	0.000628	6.283909	1.064523	-0.000126
 929	9.2336e+01	1.5137	38.148914	0.000588	5.878496	0.995844	-0.000118
 930	9.2436e+01	1.4932	38.003577	0.000730	7.297443	1.236220	-0.000146
 931	9.2535e+01	1.4725	37.886500	0.000588	5.878496	0.995844	-0.000118
 932	9.2635e+01	1.4536	37.769423	0.000588	5.878496	0.995844	-0.000118
 933	9.2734e+01	1.4330	37.644272	0.000628	6.283909	1.064523	-0.000126
 934	9.2834e+01	1.4133	37.531232	0.000568	5.675789	0.961505	-0.000114
 935	9.2933e+01	1.3938	37.377821	0.000770	7.702856	1.304899	-0.000154
 936	9.3032e+01	1.3734	37.289004	0.000446	4.459548	0.755468	-0.000089
 937	9.3132e+01	1.3535	37.143667	0.000730	7.297443	1.236220	-0.000146
 938	9.3231e+01	1.3335	37.018516	0.000628	6.283909	1.064523	-0.000126
 939	9.3331e+01	1.3131	36.929699	0.000446	4.459548	0.755468	-0.000089
 940	9.3430e+01	1.2934	36.780325	0.000750	7.500150	1.270560	-0.000150
 941	9.3530e+01	1.2734	36.695545	0.000426	4.256842	0.721128	-0.000085
 942	9.3629e+01	1.2545	36.578468	0.000588	5.878496	0.995844	-0.000118
 943	9.3729e+01	1.2345	36.429094	0.000750	7.500150	1.270560	-0.000150
 944	9.3829e+01	1.2154	36.307980	0.000608	6.081202	1.030184	-0.000122
 945	9.3928e+01	1.1948	36.174755	0.000669	6.689323	1.133202	-0.000134
 946	9.4028e+01	1.1746	36.073826	0.000507	5.067669	0.858486	-0.000101
 947	9.4127e+01	1.1552	35.936564	0.000689	6.892029	1.167541	-0.000138
 948	9.4227e+01	1.1355	35.799301	0.000689	6.892029	1.167541	-0.000138
 949	9.4326e+01	1.1153	35.714521	0.000426	4.256842	0.721128	-0.000085
 950	9.4425e+01	1.0951	35.569184	0.000730	7.297443	1.236220	-0.000146
 951	9.4525e+01	1.0748	35.476330	0.000466	4.662255	0.789807	-0.000093
 952	9.4624e+01	1.0564	35.330993	0.000730	7.297443	1.236220	-0.000146
 953	9.4724e+01	1.0355	35.238139	0.000466	4.662255	0.789807	-0.000093
 954	9.4823e+01	1.0148	35.068580	0.000851	8.513683	1.442257	-0.000170
 955	9.4923e+01	0.9950	34.991874	0.000385	3.851428	0.652450	-0.000077
 956	9.5022e+01	0.9755	34.858649	0.000669	6.689323	1.133202	-0.000134
 957	9.5122e+01	0.9560	34.737534	0.000608	6.081202	1.030184	-0.000122
 958	9.5222e+01	0.9357	34.620458	0.000588	5.878496	0.995844	-0.000118
 959	9.5321e+01	0.9170	34.479158	0.000709	7.094736	1.201881	-0.000142
 960	9.5421e+01	0.8955	34.337858	0.000709	7.094736	1.201881	-0.000142
 961	9.5520e+01	0.8755	34.245004	0.000466	4.662255	0.789807	-0.000093
 962	9.5620e+01	0.8561	34.099667	0.000730	7.297443	1.236220	-0.000146
 963	9.5719e+01	0.8365	33.974516	0.000628	6.283909	1.064523	-0.000126
 964	9.5819e+01	0.8162	33.825142	0.000750	7.500150	1.270560	-0.000150
 965	9.5918e+01	0.7951	33.720176	0.000527	5.270375	0.892826	-0.000105
 966	9.6017e+01	0.7757	33.615211	0.000527	5.270375	0.892826	-0.000105
 967	9.6117e+01	0.7561	33.473911	0.000709	7.094736	1.201881	-0.000142
 968	9.6216e+01	0.7372	33.312426	0.000811	8.108270	1.373578	-0.000162
 969	9.6316e+01	0.7161	33.239757	0.000365	3.648721	0.618110	-0.000073
 970	9.6415e+01	0.6960	33.078272	0.000811	8.108270	1.373578	-0.000162
 971	9.6515e+01	0.6766	33.009640	0.000345	3.446015	0.583771	-0.000069
 972	9.6615e+01	0.6569	32.900638	0.000547	5.473082	0.927165	-0.000110
 973	9.6714e+01	0.6378	32.723004	0.000892	8.919097	1.510936	-0.000179
 974	9.6814e+01	0.6168	32.589778	0.000669	6.689323	1.133202	-0.000134
 975	9.6913e+01	0.5971	32.492887	0.000486	4.864962	0.824147	-0.000097
 976	9.7013e+01	0.5772	32.339476	0.000770	7.702856	1.304899	-0.000154
 977	9.7112e+01	0.5578	32.214325	0.000628	6.283909	1.064523	-0.000126
 978	9.7212e+01	0.5369	32.117433	0.000486	4.864962	0.824147	-0.000097
 979	9.7311e+01	0.5169	31.931725	0.000932	9.324510	1.579615	-0.000187
 980	9.7410e+01	0.4981	31.871168	0.000304	3.040601	0.515092	-0.000061
 981	9.7510e+01	0.4772	31.729868	0.000709	7.094736	1.201881	-0.000142
 982	9.7609e+01	0.4571	31.592606	0.000689	6.892029	1.167541	-0.000138
 983	9.7709e+01	0.4369	31.459380	0.000669	6.689323	1.133202	-0.000134
 984	9.7808e+01	0.4182	31.342303	0.000588	5.878496	0.995844	-0.000118
 985	9.7908e+01	0.3979	31.192929	0.000750	7.500150	1.270560	-0.000150
 986	9.8007e+01	0.3780	31.067778	0.000628	6.283909	1.064523	-0.000126
 987	9.8107e+01	0.3580	30.926478	0.000709	7.094736	1.201881	-0.000142
 988	9.8207e+01	0.3381	30.837661	0.000446	4.459548	0.755468	-0.000089
 989	9.8306e+01	0.3181	30.664064	0.000872	8.716390	1.476596	-0.000174
 990	9.8406e+01	0.2978	30.575248	0.000446	4.459548	0.755468	-0.000089
 991	9.8505e+01	0.2780	30.433948	0.000709	7.094736	1.201881	-0.000142
 992	9.8605e+01	0.2572	30.300722	0.000669	6.689323	1.133202	-0.000134
 993	9.8704e+01	0.2382	30.191720	0.000547	5.473082	0.927165	-0.000110
 994	9.8803e+01	0.2189	30.046383	0.000730	7.297443	1.236220	-0.000146
 995	9.8903e+01	0.1983	29.969677	0.000385	3.851428	0.652450	-0.000077
 996	9.9002e+01	0.1785	29.788006	0.000912	9.121803	1.545275	-0.000183
 997	9.9102e+01	0.1583	29.687078	0.000507	5.067669	0.858486	-0.000101
 998	9.9201e+01	0.1381	29.553852	0.000669	6.689323	1.133202	-0.000134
 999	9.9301e+01	0.1182	29.424664	0.000649	6.486616	1.098862	-0.000130
1000	9.9400e+01	0.0984	29.275290	0.000750	7.500150	1.270560	-0.000150
1001	9.9500e+01	0.0785	29.129953	0.000730	7.297443	1.236220	-0.000146
1002	9.9600e+01	0.0593	29.020950	0.000547	5.473082	0.927165	-0.000110
1003	9.9699e+01	0.0387	28.940208	0.000405	4.054135	0.686789	-0.000081
1004	9.9799e+01	0.0187	28.774685	0.000831	8.310976	1.407918	-0.000166
1005	9.9898e+01	-0.0002	28.637422	0.000689	6.892029	1.167541	-0.000138
1006	9.9998e+01	-0.0186	28.544568	0.000466	4.662255	0.789807	-0.000093
1007	1.0010e+02	-0.0391	28.383083	0.000811	8.108270	1.373578	-0.000162
1008	1.0020e+02	-0.0594	28.266006	0.000588	5.878496	0.995844	-0.000118
1009	1.0030e+02	-0.0784	28.148929	0.000588	5.878496	0.995844	-0.000118
1010	1.0040e+02	-0.0988	28.003592	0.000730	7.297443	1.236220	-0.000146
1011	1.0050e+02	-0.1186	27.850181	0.000770	7.702856	1.304899	-0.000154
1012	1.0059e+02	-0.1392	27.777512	0.000365	3.648721	0.618110	-0.000073
1013	1.0069e+02	-0.1589	27.595841	0.000912	9.121803	1.545275	-0.000183
1014	1.0079e+02	-0.1781	27.482802	0.000568	5.675789	0.961505	-0.000114
1015	1.0089e+02	-0.1985	27.406096	0.000385	3.851428	0.652450	-0.000077
1016	1.0099e+02	-0.2182	27.224425	0.000912	9.121803	1.545275	-0.000183
1017	1.0109e+02	-0.2447	27.087162	0.000689	6.892029	1.167541	-0.000138
1018	1.0119e+02	-0.2582	26.966048	0.000608	6.081202	1.030184	-0.000122
1019	1.0129e+02	-0.2779	26.824748	0.000709	7.094736	1.201881	-0.000142
1020	1.0139e+02	-0.2985	26.731894	0.000466	4.662255	0.789807	-0.000093
1021	1.0149e+02	-0.3179	26.574446	0.000791	7.905563	1.339239	-0.000158
1022	1.0159e+02	-0.3380	26.453332	0.000608	6.081202	1.030184	-0.000122
1023	1.0169e+02	-0.3571	26.287809	0.000831	8.310976	1.407918	-0.000166
1024	1.0179e+02	-0.3784	26.154584	0.000669	6.689323	1.133202	-0.000134
1025	1.0189e+02	-0.3975	26.049618	0.000527	5.270375	0.892826	-0.000105
1026	1.0199e+02	-0.4180	25.900244	0.000750	7.500150	1.270560	-0.000150
1027	1.0209e+02	-0.4375	25.754907	0.000730	7.297443	1.236220	-0.000146
1028	1.0219e+02	-0.4572	25.666090	0.000446	4.459548	0.755468	-0.000089
1029	1.0229e+02	-0.4773	25.500568	0.000831	8.310976	1.407918	-0.000166
1030	1.0239e+02	-0.4974	25.379454	0.000608	6.081202	1.030184	-0.000122
1031	1.0248e+02	-0.5168	25.238154	0.000709	7.094736	1.201881	-0.000142
1032	1.0258e+02	-0.5376	25.100891	0.000689	6.892029	1.167541	-0.000138
1033	1.0268e+02	-0.5569	24.935369	0.000831	8.310976	1.407918	-0.000166
1034	1.0278e+02	-0.5782	24.822329	0.000568	5.675789	0.961505	-0.000114
1035	1.0288e+02	-0.5971	24.709289	0.000568	5.675789	0.961505	-0.000114
1036	1.0298e+02	-0.6164	24.596249	0.000568	5.675789	0.961505	-0.000114
1037	1.0308e+02	-0.6371	24.422653	0.000872	8.716390	1.476596	-0.000174
1038	1.0318e+02	-0.6559	24.317687	0.000527	5.270375	0.892826	-0.000105
1039	1.0328e+02	-0.6771	24.164276	0.000770	7.702856	1.304899	-0.000154
1040	1.0338e+02	-0.6970	24.059310	0.000527	5.270375	0.892826	-0.000105
1041	1.0348e+02	-0.7172	23.922048	0.000689	6.892029	1.167541	-0.000138
1042	1.0358e+02	-0.7367	23.780748	0.000709	7.094736	1.201881	-0.000142
1043	1.0368e+02	-0.7557	23.635411	0.000730	7.297443	1.236220	-0.000146
1044	1.0378e+02	-0.7764	23.522371	0.000568	5.675789	0.961505	-0.000114
1045	1.0388e+02	-0.7965	23.381072	0.000709	7.094736	1.201881	-0.000142
1046	1.0398e+02	-0.8158	23.259958	0.000608	6.081202	1.030184	-0.000122
1047	1.0408e+02	-0.8366	23.126732	0.000669	6.689323	1.133202	-0.000134
1048	1.0418e+02	-0.8567	22.989469	0.000689	6.892029	1.167541	-0.000138
1049	1.0428e+02	-0.8755	22.852207	0.000689	6.892029	1.167541	-0.000138
1050	1.0438e+02	-0.8960	22.723019	0.000649	6.486616	1.098862	-0.000130
1051	1.0447e+02	-0.9155	22.573644	0.000750	7.500150	1.270560	-0.000150
1052	1.0457e+02	-0.9364	22.472716	0.000507	5.067669	0.858486	-0.000101
1053	1.0467e+02	-0.9555	22.311231	0.000811	8.108270	1.373578	-0.000162
1054	1.0477e+02	-0.9756	22.190117	0.000608	6.081202	1.030184	-0.000122
1055	1.0487e+02	-0.9951	22.056891	0.000669	6.689323	1.133202	-0.000134
1056	1.0497e+02	-1.0141	21.931740	0.000628	6.283909	1.064523	-0.000126
1057	1.0507e+02	-1.0357	21.770254	0.000811	8.108270	1.373578	-0.000162
1058	1.0517e+02	-1.0558	21.665289	0.000527	5.270375	0.892826	-0.000105
1059	1.0527e+02	-1.0756	21.544175	0.000608	6.081202	1.030184	-0.000122
1060	1.0537e+02	-1.0947	21.394801	0.000750	7.500150	1.270560	-0.000150
1061	1.0547e+02	-1.1144	21.205055	0.000953	9.527217	1.613954	-0.000191
1062	1.0557e+02	-1.1351	21.128350	0.000385	3.851428	0.652450	-0.000077
1063	1.0567e+02	-1.1545	21.007236	0.000608	6.081202	1.030184	-0.000122
1064	1.0577e+02	-1.1752	20.861899	0.000730	7.297443	1.236220	-0.000146
1065	1.0587e+02	-1.1952	20.728673	0.000669	6.689323	1.133202	-0.000134
1066	1.0597e+02	-1.2151	20.579299	0.000750	7.500150	1.270560	-0.000150
1067	1.0607e+02	-1.2345	20.466260	0.000568	5.675789	0.961505	-0.000114
1068	1.0617e+02	-1.2543	20.316886	0.000750	7.500150	1.270560	-0.000150
1069	1.0627e+02	-1.2740	20.179623	0.000689	6.892029	1.167541	-0.000138
1070	1.0637e+02	-1.2939	20.082732	0.000486	4.864962	0.824147	-0.000097
1071	1.0647e+02	-1.3141	19.929321	0.000770	7.702856	1.304899	-0.000154
1072	1.0656e+02	-1.3336	19.747649	0.000912	9.121803	1.545275	-0.000183
1073	1.0666e+02	-1.3538	19.654795	0.000466	4.662255	0.789807	-0.000093
1074	1.0676e+02	-1.3737	19.525607	0.000649	6.486616	1.098862	-0.000130
1075	1.0686e+02	-1.3931	19.408530	0.000588	5.878496	0.995844	-0.000118
1076	1.0696e+02	-1.4132	19.247045	0.000811	8.108270	1.373578	-0.000162
1077	1.0706e+02	-1.4339	19.125931	0.000608	6.081202	1.030184	-0.000122
1078	1.0716e+02	-1.4541	18.980594	0.000730	7.297443	1.236220	-0.000146
1079	1.0726e+02	-1.4733	18.891777	0.000446	4.459548	0.755468	-0.000089
1080	1.0736e+02	-1.4932	18.750477	0.000709	7.094736	1.201881	-0.000142
1081	1.0746e+02	-1.5142	18.621289	0.000649	6.486616	1.098862	-0.000130
1082	1.0756e+02	-1.5334	18.488063	0.000669	6.689323	1.133202	-0.000134
1083	1.0766e+02	-1.5530	18.338689	0.000750	7.500150	1.270560	-0.000150
1084	1.0776e+02	-1.5739	18.173167	0.000831	8.310976	1.407918	-0.000166
1085	1.0786e+02	-1.5932	18.043978	0.000649	6.486616	1.098862	-0.000130
1086	1.0796e+02	-1.6127	17.939013	0.000527	5.270375	0.892826	-0.000105
1087	1.0806e+02	-1.6328	17.785601	0.000770	7.702856	1.304899	-0.000154
1088	1.0816e+02	-1.6533	17.644302	0.000709	7.094736	1.201881	-0.000142
1089	1.0826e+02	-1.6724	17.507039	0.000689	6.892029	1.167541	-0.000138
1090	1.0836e+02	-1.6923	17.353628	0.000770	7.702856	1.304899	-0.000154
1091	1.0845e+02	-1.7126	17.260774	0.000466	4.662255	0.789807	-0.000093
1092	1.0855e+02	-1.7324	17.099288	0.000811	8.108270	1.373578	-0.000162
1093	1.0865e+02	-1.7538	16.957989	0.000709	7.094736	1.201881	-0.000142
1094	1.0875e+02	-1.7729	16.857060	0.000507	5.067669	0.858486	-0.000101
1095	1.0885e+02	-1.7920	16.711723	0.000730	7.297443	1.236220	-0.000146
1096	1.0895e+02	-1.8126	16.598684	0.000568	5.675789	0.961505	-0.000114
1097	1.0905e+02	-1.8318	16.425087	0.000872	8.716390	1.476596	-0.000174
1098	1.0915e+02	-1.8539	16.303973	0.000608	6.081202	1.030184	-0.000122
1099	1.0925e+02	-1.8722	16.146524	0.000791	7.905563	1.339239	-0.000158
1100	1.0935e+02	-1.8913	16.033485	0.000568	5.675789	0.961505	-0.000114
1101	1.0945e+02	-1.9122	15.936593	0.000486	4.864962	0.824147	-0.000097
1102	1.0955e+02	-1.9308	15.742811	0.000973	9.729924	1.648294	-0.000195
1103	1.0965e+02	-1.9510	15.613622	0.000649	6.486616	1.098862	-0.000130
1104	1.0975e+02	-1.9722	15.516731	0.000486	4.864962	0.824147	-0.000097
1105	1.0985e+02	-1.9908	15.387543	0.000649	6.486616	1.098862	-0.000130
1106	1.0995e+02	-2.0116	15.254317	0.000669	6.689323	1.133202	-0.000134
1107	1.1005e+02	-2.0306	15.125129	0.000649	6.486616	1.098862	-0.000130
1108	1.1015e+02	-2.0547	14.983829	0.000709	7.094736	1.201881	-0.000142
1109	1.1025e+02	-2.0712	14.878864	0.000527	5.270375	0.892826	-0.000105
1110	1.1035e+02	-2.0914	14.701230	0.000892	8.919097	1.510936	-0.000179
1111	1.1044e+02	-2.1120	14.572041	0.000649	6.486616	1.098862	-0.000130
1112	1.1054e+02	-2.1313	14.459002	0.000568	5.675789	0.961505	-0.000114
1113	1.1064e+02	-2.1503	14.325776	0.000669	6.689323	1.133202	-0.000134
1114	1.1074e+02	-2.1714	14.180439	0.000730	7.297443	1.236220	-0.000146
1115	1.1084e+02	-2.1913	14.083548	0.000486	4.864962	0.824147	-0.000097
1116	1.1094e+02	-2.2104	13.942248	0.000709	7.094736	1.201881	-0.000142
1117	1.1104e+02	-2.2307	13.792874	0.000750	7.500150	1.270560	-0.000150
1118	1.1114e+02	-2.2508	13.663686	0.000649	6.486616	1.098862	-0.000130
1119	1.1124e+02	-2.2707	13.542572	0.000608	6.081202	1.030184	-0.000122
1120	1.1134e+02	-2.2910	13.401272	0.000709	7.094736	1.201881	-0.000142
1121	1.1144e+02	-2.3103	13.255935	0.000730	7.297443	1.236220	-0.000146
1122	1.1154e+02	-2.3305	13.110598	0.000730	7.297443	1.236220	-0.000146
1123	1.1164e+02	-2.3502	13.001596	0.000547	5.473082	0.927165	-0.000110
1124	1.1174e+02	-2.3746	12.844147	0.000791	7.905563	1.339239	-0.000158
1125	1.1184e+02	-2.3898	12.759368	0.000426	4.256842	0.721128	-0.000085
1126	1.1194e+02	-2.4100	12.569622	0.000953	9.527217	1.613954	-0.000191
1127	1.1204e+02	-2.4300	12.452545	0.000588	5.878496	0.995844	-0.000118
1128	1.1214e+02	-2.4513	12.351617	0.000507	5.067669	0.858486	-0.000101
1129	1.1224e+02	-2.4696	12.198206	0.000770	7.702856	1.304899	-0.000154
1130	1.1234e+02	-2.4892	12.064980	0.000669	6.689323	1.133202	-0.000134
1131	1.1244e+02	-2.5097	11.947903	0.000588	5.878496	0.995844	-0.000118
1132	1.1253e+02	-2.5300	11.826789	0.000608	6.081202	1.030184	-0.000122
1133	1.1263e+02	-2.5491	11.673378	0.000770	7.702856	1.304899	-0.000154
1134	1.1273e+02	-2.5689	11.564375	0.000547	5.473082	0.927165	-0.000110
1135	1.1283e+02	-2.5893	11.419038	0.000730	7.297443	1.236220	-0.000146
1136	1.1293e+02	-2.6088	11.253516	0.000831	8.310976	1.407918	-0.000166
1137	1.1303e+02	-2.6291	11.160662	0.000466	4.662255	0.789807	-0.000093
1138	1.1313e+02	-2.6492	11.027436	0.000669	6.689323	1.133202	-0.000134
1139	1.1323e+02	-2.6691	10.926508	0.000507	5.067669	0.858486	-0.000101
1140	1.1333e+02	-2.6888	10.785208	0.000709	7.094736	1.201881	-0.000142
1141	1.1343e+02	-2.7084	10.623723	0.000811	8.108270	1.373578	-0.000162
1142	1.1353e+02	-2.7287	10.530869	0.000466	4.662255	0.789807	-0.000093
1143	1.1363e+02	-2.7483	10.361309	0.000851	8.513683	1.442257	-0.000170
1144	1.1373e+02	-2.7686	10.272492	0.000446	4.459548	0.755468	-0.000089
1145	1.1383e+02	-2.7883	10.090821	0.000912	9.121803	1.545275	-0.000183
1146	1.1393e+02	-2.8091	9.977781	0.000568	5.675789	0.961505	-0.000114
1147	1.1403e+02	-2.8277	9.848593	0.000649	6.486616	1.098862	-0.000130
1148	1.1413e+02	-2.8477	9.666922	0.000912	9.121803	1.545275	-0.000183
1149	1.1423e+02	-2.8677	9.553882	0.000568	5.675789	0.961505	-0.000114
1150	1.1433e+02	-2.8885	9.448916	0.000527	5.270375	0.892826	-0.000105
1151	1.1442e+02	-2.9076	9.327802	0.000608	6.081202	1.030184	-0.000122
1152	1.1452e+02	-2.9272	9.166317	0.000811	8.108270	1.373578	-0.000162
1153	1.1462e+02	-2.9470	9.020980	0.000730	7.297443	1.236220	-0.000146
1154	1.1472e+02	-2.9681	8.891791	0.000649	6.486616	1.098862	-0.000130
1155	1.1482e+02	-2.9866	8.790863	0.000507	5.067669	0.858486	-0.000101
1156	1.1492e+02	-3.0081	8.657638	0.000669	6.689323	1.133202	-0.000134
1157	1.1502e+02	-3.0272	8.500189	0.000791	7.905563	1.339239	-0.000158
1158	1.1512e+02	-3.0473	8.358890	0.000709	7.094736	1.201881	-0.000142
1159	1.1522e+02	-3.0667	8.213553	0.000730	7.297443	1.236220	-0.000146
1160	1.1532e+02	-3.0865	8.088401	0.000628	6.283909	1.064523	-0.000126
1161	1.1542e+02	-3.1071	7.987473	0.000507	5.067669	0.858486	-0.000101
1162	1.1552e+02	-3.1268	7.846173	0.000709	7.094736	1.201881	-0.000142
1163	1.1562e+02	-3.1467	7.725059	0.000608	6.081202	1.030184	-0.000122
1164	1.1572e+02	-3.1679	7.583759	0.000709	7.094736	1.201881	-0.000142
1165	1.1582e+02	-3.1859	7.446497	0.000689	6.892029	1.167541	-0.000138
1166	1.1592e+02	-3.2074	7.305197	0.000709	7.094736	1.201881	-0.000142
1167	1.1602e+02	-3.2269	7.184083	0.000608	6.081202	1.030184	-0.000122
1168	1.1612e+02	-3.2465	7.038746	0.000730	7.297443	1.236220	-0.000146
1169	1.1622e+02	-3.2654	6.925706	0.000568	5.675789	0.961505	-0.000114
1170	1.1632e+02	-3.2864	6.752110	0.000872	8.716390	1.476596	-0.000174
1171	1.1642e+02	-3.3060	6.618884	0.000669	6.689323	1.133202	-0.000134
1172	1.1651e+02	-3.3263	6.481621	0.000689	6.892029	1.167541	-0.000138
1173	1.1661e+02	-3.3458	6.388767	0.000466	4.662255	0.789807	-0.000093
1174	1.1671e+02	-3.3671	6.279765	0.000547	5.473082	0.927165	-0.000110
1175	1.1681e+02	-3.3865	6.106168	0.000872	8.716390	1.476596	-0.000174
1176	1.1691e+02	-3.4061	5.981017	0.000628	6.283909	1.064523	-0.000126
1177	1.1701e+02	-3.4258	5.859903	0.000608	6.081202	1.030184	-0.000122
1178	1.1711e+02	-3.4461	5.718603	0.000709	7.094736	1.201881	-0.000142
1179	1.1721e+02	-3.4653	5.597489	0.000608	6.081202	1.030184	-0.000122
1180	1.1731e+02	-3.4860	5.460226	0.000689	6.892029	1.167541	-0.000138
1181	1.1741e+02	-3.5063	5.306815	0.000770	7.702856	1.304899	-0.000154
1182	1.1751e+02	-3.5255	5.169552	0.000689	6.892029	1.167541	-0.000138
1183	1.1761e+02	-3.5457	5.068624	0.000507	5.067669	0.858486	-0.000101
1184	1.1771e+02	-3.5661	4.951547	0.000588	5.878496	0.995844	-0.000118
1185	1.1781e+02	-3.5854	4.741616	0.001054	10.540751	1.785652	-0.000211
1186	1.1791e+02	-3.6053	4.648762	0.000466	4.662255	0.789807	-0.000093
1187	1.1801e+02	-3.6255	4.499388	0.000750	7.500150	1.270560	-0.000150
1188	1.1811e+02	-3.6456	4.366162	0.000669	6.689323	1.133202	-0.000134
1189	1.1821e+02	-3.6652	4.241011	0.000628	6.283909	1.064523	-0.000126
1190	1.1831e+02	-3.6858	4.055303	0.000932	9.324510	1.579615	-0.000187
1191	1.1841e+02	-3.7048	3.950337	0.000527	5.270375	0.892826	-0.000105
1192	1.1850e+02	-3.7242	3.845372	0.000527	5.270375	0.892826	-0.000105
1193	1.1860e+02	-3.7441	3.671775	0.000872	8.716390	1.476596	-0.000174
1194	1.1870e+02	-3.7650	3.562772	0.000547	5.473082	0.927165	-0.000110
1195	1.1880e+02	-3.7848	3.449732	0.000568	5.675789	0.961505	-0.000114
1196	1.1890e+02	-3.8039	3.308433	0.000709	7.094736	1.201881	-0.000142
1197	1.1900e+02	-3.8235	3.138873	0.000851	8.513683	1.442257	-0.000170
1198	1.1910e+02	-3.8440	3.001610	0.000689	6.892029	1.167541	-0.000138
1199	1.1920e+02	-3.8637	2.864348	0.000689	6.892029	1.167541	-0.000138
1200	1.1930e+02	-3.8838	2.751308	0.000568	5.675789	0.961505	-0.000114
1201	1.1940e+02	-3.9044	2.589823	0.000811	8.108270	1.373578	-0.000162
1202	1.1950e+02	-3.9241	2.408151	0.000912	9.121803	1.545275	-0.000183
1203	1.1960e+02	-3.9437	2.295112	0.000568	5.675789	0.961505	-0.000114
1204	1.1970e+02	-3.9636	2.190146	0.000527	5.270375	0.892826	-0.000105
1205	1.1980e+02	-3.9848	2.032698	0.000791	7.905563	1.339239	-0.000158
1206	1.1990e+02	-4.0040	1.891398	0.000709	7.094736	1.201881	-0.000142
1207	1.2000e+02	-4.0238	1.798544	0.000466	4.662255	0.789807	-0.000093
1208	1.2010e+02	-4.0435	1.628984	0.000851	8.513683	1.442257	-0.000170
1209	1.2020e+02	-4.0630	1.483647	0.000730	7.297443	1.236220	-0.000146
1210	1.2030e+02	-4.0836	1.338310	0.000730	7.297443	1.236220	-0.000146
1211	1.2039e+02	-4.1025	1.168751	0.000851	8.513683	1.442257	-0.000170
1212	1.2049e+02	-4.1236	1.067822	0.000507	5.067669	0.858486	-0.000101
1213	1.2059e+02	-4.1436	0.930560	0.000689	6.892029	1.167541	-0.000138
1214	1.2069e+02	-4.1630	0.841743	0.000446	4.459548	0.755468	-0.000089
1215	1.2079e+02	-4.1820	0.668146	0.000872	8.716390	1.476596	-0.000174
1216	1.2089e+02	-4.2027	0.514735	0.000770	7.702856	1.304899	-0.000154
1217	1.2099e+02	-4.2223	0.373435	0.000709	7.094736	1.201881	-0.000142
1218	1.2109e+02	-4.2426	0.228098	0.000730	7.297443	1.236220	-0.000146
1219	1.2119e+02	-4.2633	0.098910	0.000649	6.486616	1.098862	-0.000130
1220	1.2129e+02	-4.2828	-0.046427	0.000730	7.297443	1.236220	-0.000146
1221	1.2139e+02	-4.3024	-0.175615	0.000649	6.486616	1.098862	-0.000130
1222	1.2149e+02	-4.3224	-0.308841	0.000669	6.689323	1.133202	-0.000134
1223	1.2159e+02	-4.3427	-0.466289	0.000791	7.905563	1.339239	-0.000158
1224	1.2169e+02	-4.3626	-0.607589	0.000709	7.094736	1.201881	-0.000142
1225	1.2179e+02	-4.3822	-0.740814	0.000669	6.689323	1.133202	-0.000134
1226	1.2189e+02	-4.4023	-0.849817	0.000547	5.473082	0.927165	-0.000110
1227	1.2199e+02	-4.4225	-1.003228	0.000770	7.702856	1.304899	-0.000154
1228	1.2209e+02	-4.4420	-1.128379	0.000628	6.283909	1.064523	-0.000126
1229	1.2219e+02	-4.4625	-1.289865	0.000811	8.108270	1.373578	-0.000162
1230	1.2229e+02	-4.4818	-1.419053	0.000649	6.486616	1.098862	-0.000130
1231	1.2239e+02	-4.5013	-1.572464	0.000770	7.702856	1.304899	-0.000154
1232	1.2248e+02	-4.5222	-1.693578	0.000608	6.081202	1.030184	-0.000122
1233	1.2258e+02	-4.5416	-1.830841	0.000689	6.892029	1.167541	-0.000138
1234	1.2268e+02	-4.5614	-2.000401	0.000851	8.513683	1.442257	-0.000170
1235	1.2278e+02	-4.5815	-2.117478	0.000588	5.878496	0.995844	-0.000118
1236	1.2288e+02	-4.6011	-2.303186	0.000932	9.324510	1.579615	-0.000187
1237	1.2298e+02	-4.6214	-2.412189	0.000547	5.473082	0.927165	-0.000110
1238	1.2308e+02	-4.6422	-2.537340	0.000628	6.283909	1.064523	-0.000126
1239	1.2318e+02	-4.6613	-2.702862	0.000831	8.310976	1.407918	-0.000166
1240	1.2328e+02	-4.6814	-2.840125	0.000689	6.892029	1.167541	-0.000138
1241	1.2338e+02	-4.7000	-2.993536	0.000770	7.702856	1.304899	-0.000154
1242	1.2348e+02	-4.7208	-3.114650	0.000608	6.081202	1.030184	-0.000122
1243	1.2358e+02	-4.7412	-3.235764	0.000608	6.081202	1.030184	-0.000122
1244	1.2368e+02	-4.7607	-3.377064	0.000709	7.094736	1.201881	-0.000142
1245	1.2378e+02	-4.7812	-3.534512	0.000791	7.905563	1.339239	-0.000158
1246	1.2388e+02	-4.8001	-3.679849	0.000730	7.297443	1.236220	-0.000146
1247	1.2398e+02	-4.8203	-3.825186	0.000730	7.297443	1.236220	-0.000146
1248	1.2408e+02	-4.8400	-3.994746	0.000851	8.513683	1.442257	-0.000170
1249	1.2418e+02	-4.8598	-4.152194	0.000791	7.905563	1.339239	-0.000158
1250	1.2428e+02	-4.8804	-4.253123	0.000507	5.067669	0.858486	-0.000101
1251	1.2438e+02	-4.9008	-4.434794	0.000912	9.121803	1.545275	-0.000183
1252	1.2447e+02	-4.9203	-4.568019	0.000669	6.689323	1.133202	-0.000134
1253	1.2457e+02	-4.9400	-4.685096	0.000588	5.878496	0.995844	-0.000118
1254	1.2467e+02	-4.9606	-4.858693	0.000872	8.716390	1.476596	-0.000174
1255	1.2477e+02	-4.9796	-5.008067	0.000750	7.500150	1.270560	-0.000150
1256	1.2487e+02	-5.0000	-5.129181	0.000608	6.081202	1.030184	-0.000122
1257	1.2497e+02	-5.0198	-5.262406	0.000669	6.689323	1.133202	-0.000134
1258	1.2507e+02	-5.0400	-5.403706	0.000709	7.094736	1.201881	-0.000142
1259	1.2517e+02	-5.0591	-5.577303	0.000872	8.716390	1.476596	-0.000174
1260	1.2527e+02	-5.0795	-5.738788	0.000811	8.108270	1.373578	-0.000162
1261	1.2537e+02	-5.0980	-5.904311	0.000831	8.310976	1.407918	-0.000166
1262	1.2547e+02	-5.1192	-6.041574	0.000689	6.892029	1.167541	-0.000138
1263	1.2557e+02	-5.1396	-6.190948	0.000750	7.500150	1.270560	-0.000150
1264	1.2567e+02	-5.1591	-6.352433	0.000811	8.108270	1.373578	-0.000162
1265	1.2577e+02	-5.1782	-6.461436	0.000547	5.473082	0.927165	-0.000110
1266	1.2587e+02	-5.1996	-6.655218	0.000973	9.729924	1.648294	-0.000195
1267	1.2597e+02	-5.2210	-6.776332	0.000608	6.081202	1.030184	-0.000122
1268	1.2607e+02	-5.2391	-6.937818	0.000811	8.108270	1.373578	-0.000162
1269	1.2617e+02	-5.2589	-7.123526	0.000932	9.324510	1.579615	-0.000187
1270	1.2627e+02	-5.2789	-7.252714	0.000649	6.486616	1.098862	-0.000130
1271	1.2636e+02	-5.2988	-7.418237	0.000831	8.310976	1.407918	-0.000166
1272	1.2646e+02	-5.3189	-7.551462	0.000669	6.689323	1.133202	-0.000134
1273	1.2656e+02	-5.3371	-7.680651	0.000649	6.486616	1.098862	-0.000130
1274	1.2666e+02	-5.3578	-7.854248	0.000872	8.716390	1.476596	-0.000174
1275	1.2676e+02	-5.3784	-7.995547	0.000709	7.094736	1.201881	-0.000142
1276	1.2686e+02	-5.3979	-8.128773	0.000669	6.689323	1.133202	-0.000134
1277	1.2696e+02	-5.4176	-8.310444	0.000912	9.121803	1.545275	-0.000183
1278	1.2706e+02	-5.4379	-8.451744	0.000709	7.094736	1.201881	-0.000142
1279	1.2716e+02	-5.4607	-8.641489	0.000953	9.527217	1.613954	-0.000191
1280	1.2726e+02	-5.4784	-8.758566	0.000588	5.878496	0.995844	-0.000118
1281	1.2736e+02	-5.4971	-8.911977	0.000770	7.702856	1.304899	-0.000154
1282	1.2746e+02	-5.5179	-9.057314	0.000730	7.297443	1.236220	-0.000146
1283	1.2756e+02	-5.5371	-9.198614	0.000709	7.094736	1.201881	-0.000142
1284	1.2766e+02	-5.5582	-9.372211	0.000872	8.716390	1.476596	-0.000174
1285	1.2776e+02	-5.5768	-9.529659	0.000791	7.905563	1.339239	-0.000158
1286	1.2786e+02	-5.5966	-9.687107	0.000791	7.905563	1.339239	-0.000158
1287	1.2796e+02	-5.6174	-9.880890	0.000973	9.729924	1.648294	-0.000195
1288	1.2806e+02	-5.6358	-10.038338	0.000791	7.905563	1.339239	-0.000158
1289	1.2816e+02	-5.6573	-10.187712	0.000750	7.500150	1.270560	-0.000150
1290	1.2826e+02	-5.6763	-10.377457	0.000953	9.527217	1.613954	-0.000191
1291	1.2835e+02	-5.6970	-10.506646	0.000649	6.486616	1.098862	-0.000130
1292	1.2845e+02	-5.7172	-10.684280	0.000892	8.919097	1.510936	-0.000179
1293	1.2855e+02	-5.7370	-10.837691	0.000770	7.702856	1.304899	-0.000154
1294	1.2865e+02	-5.7564	-10.966879	0.000649	6.486616	1.098862	-0.000130
1295	1.2875e+02	-5.7770	-11.104142	0.000689	6.892029	1.167541	-0.000138
1296	1.2885e+02	-5.7973	-11.342333	0.001196	11.959698	2.026028	-0.000239
1297	1.2895e+02	-5.8156	-11.463447	0.000608	6.081202	1.030184	-0.000122
1298	1.2905e+02	-5.8374	-11.624932	0.000811	8.108270	1.373578	-0.000162
1299	1.2915e+02	-5.8565	-11.818715	0.000973	9.729924	1.648294	-0.000195
1300	1.2925e+02	-5.8766	-12.016535	0.000993	9.932630	1.682633	-0.000199
1301	1.2935e+02	-5.8961	-12.145723	0.000649	6.486616	1.098862	-0.000130
1302	1.2945e+02	-5.9167	-12.335468	0.000953	9.527217	1.613954	-0.000191
1303	1.2955e+02	-5.9369	-12.500991	0.000831	8.310976	1.407918	-0.000166
1304	1.2965e+02	-5.9560	-12.634216	0.000669	6.689323	1.133202	-0.000134
1305	1.2975e+02	-5.9763	-12.791665	0.000791	7.905563	1.339239	-0.000158
1306	1.2985e+02	-5.9958	-12.973336	0.000912	9.121803	1.545275	-0.000183
1307	1.2995e+02	-6.0159	-13.187304	0.001074	10.743457	1.819991	-0.000215
1308	1.3005e+02	-6.0347	-13.373012	0.000932	9.324510	1.579615	-0.000187
1309	1.3015e+02	-6.0558	-13.514312	0.000709	7.094736	1.201881	-0.000142
1310	1.3025e+02	-6.0762	-13.700020	0.000932	9.324510	1.579615	-0.000187
1311	1.3034e+02	-6.0954	-13.825171	0.000628	6.283909	1.064523	-0.000126
1312	1.3044e+02	-6.1150	-14.027028	0.001014	10.135337	1.716973	-0.000203
1313	1.3054e+02	-6.1353	-14.200625	0.000872	8.716390	1.476596	-0.000174
1314	1.3064e+02	-6.1562	-14.394407	0.000973	9.729924	1.648294	-0.000195
1315	1.3074e+02	-6.1752	-14.559930	0.000831	8.310976	1.407918	-0.000166
1316	1.3084e+02	-6.1948	-14.729490	0.000851	8.513683	1.442257	-0.000170
1317	1.3094e+02	-6.2149	-14.911161	0.000912	9.121803	1.545275	-0.000183
1318	1.3104e+02	-6.2362	-15.084758	0.000872	8.716390	1.476596	-0.000174
1319	1.3114e+02	-6.2547	-15.254317	0.000851	8.513683	1.442257	-0.000170
1320	1.3124e+02	-6.2744	-15.444063	0.000953	9.527217	1.613954	-0.000191
1321	1.3134e+02	-6.2952	-15.645920	0.001014	10.135337	1.716973	-0.000203
1322	1.3144e+02	-6.3153	-15.835665	0.000953	9.527217	1.613954	-0.000191
1323	1.3154e+02	-6.3347	-15.985039	0.000750	7.500150	1.270560	-0.000150
1324	1.3164e+02	-6.3541	-16.162673	0.000892	8.919097	1.510936	-0.000179
1325	1.3174e+02	-6.3733	-16.312047	0.000750	7.500150	1.270560	-0.000150
1326	1.3184e+02	-6.3943	-16.554275	0.001216	12.162405	2.060367	-0.000243
1327	1.3194e+02	-6.4134	-16.715761	0.000811	8.108270	1.373578	-0.000162
1328	1.3204e+02	-6.4346	-16.929729	0.001074	10.743457	1.819991	-0.000215
1329	1.3214e+02	-6.4546	-17.087177	0.000791	7.905563	1.339239	-0.000158
1330	1.3224e+02	-6.4742	-17.313257	0.001135	11.351578	1.923009	-0.000227
1331	1.3234e+02	-6.4941	-17.458593	0.000730	7.297443	1.236220	-0.000146
1332	1.3243e+02	-6.5143	-17.696785	0.001196	11.959698	2.026028	-0.000239
1333	1.3253e+02	-6.5344	-17.834047	0.000689	6.892029	1.167541	-0.000138
1334	1.3263e+02	-6.5524	-18.048015	0.001074	10.743457	1.819991	-0.000215
1335	1.3273e+02	-6.5740	-18.241798	0.000973	9.729924	1.648294	-0.000195
1336	1.3283e+02	-6.5937	-18.423469	0.000912	9.121803	1.545275	-0.000183
1337	1.3293e+02	-6.6135	-18.568806	0.000730	7.297443	1.236220	-0.000146
1338	1.3303e+02	-6.6333	-18.794885	0.001135	11.351578	1.923009	-0.000227
1339	1.3313e+02	-6.6534	-18.992705	0.000993	9.932630	1.682633	-0.000199
1340	1.3323e+02	-6.6732	-19.198599	0.001034	10.338044	1.751312	-0.000207
1341	1.3333e+02	-6.6930	-19.384307	0.000932	9.324510	1.579615	-0.000187
1342	1.3343e+02	-6.7139	-19.610387	0.001135	11.351578	1.923009	-0.000227
1343	1.3353e+02	-6.7332	-19.783984	0.000872	8.716390	1.476596	-0.000174
1344	1.3363e+02	-6.7528	-19.941432	0.000791	7.905563	1.339239	-0.000158
1345	1.3373e+02	-6.7724	-20.207883	0.001338	13.378645	2.266404	-0.000268
1346	1.3383e+02	-6.7940	-20.393591	0.000932	9.324510	1.579615	-0.000187
1347	1.3393e+02	-6.8130	-20.559114	0.000831	8.310976	1.407918	-0.000166
1348	1.3403e+02	-6.8326	-20.777119	0.001095	10.946164	1.854330	-0.000219
1349	1.3413e+02	-6.8523	-20.926493	0.000750	7.500150	1.270560	-0.000150
1350	1.3423e+02	-6.8724	-21.209093	0.001419	14.189472	2.403762	-0.000284
1351	1.3432e+02	-6.8932	-21.386727	0.000892	8.919097	1.510936	-0.000179
1352	1.3442e+02	-6.9130	-21.592620	0.001034	10.338044	1.751312	-0.000207
1353	1.3452e+02	-6.9315	-21.770254	0.000892	8.919097	1.510936	-0.000179
1354	1.3462e+02	-6.9527	-22.040743	0.001358	13.581352	2.300743	-0.000272
1355	1.3472e+02	-6.9727	-22.214339	0.000872	8.716390	1.476596	-0.000174
1356	1.3482e+02	-6.9922	-22.408122	0.000973	9.729924	1.648294	-0.000195
1357	1.3492e+02	-7.0106	-22.662461	0.001277	12.770525	2.163385	-0.000256
1358	1.3502e+02	-7.0320	-22.840095	0.000892	8.919097	1.510936	-0.000179
1359	1.3512e+02	-7.0512	-23.074249	0.001176	11.756991	1.991688	-0.000235
1360	1.3522e+02	-7.0712	-23.276106	0.001014	10.135337	1.716973	-0.000203
1361	1.3532e+02	-7.0920	-23.522371	0.001237	12.365111	2.094707	-0.000248
1362	1.3542e+02	-7.1115	-23.704042	0.000912	9.121803	1.545275	-0.000183
1363	1.3552e+02	-7.1315	-23.913974	0.001054	10.540751	1.785652	-0.000211
1364	1.3562e+02	-7.1515	-24.168313	0.001277	12.770525	2.163385	-0.000256
1365	1.3572e+02	-7.1710	-24.418616	0.001257	12.567818	2.129046	-0.000252
1366	1.3582e+02	-7.1910	-24.584138	0.000831	8.310976	1.407918	-0.000166
1367	1.3592e+02	-7.2107	-24.838478	0.001277	12.770525	2.163385	-0.000256
1368	1.3602e+02	-7.2311	-25.056483	0.001095	10.946164	1.854330	-0.000219
1369	1.3612e+02	-7.2501	-25.290637	0.001176	11.756991	1.991688	-0.000235
1370	1.3622e+02	-7.2702	-25.496531	0.001034	10.338044	1.751312	-0.000207
1371	1.3631e+02	-7.2913	-25.726647	0.001155	11.554284	1.957349	-0.000231
1372	1.3641e+02	-7.3108	-25.912356	0.000932	9.324510	1.579615	-0.000187
1373	1.3651e+02	-7.3309	-26.158621	0.001237	12.365111	2.094707	-0.000248
1374	1.3661e+02	-7.3508	-26.416998	0.001297	12.973232	2.197725	-0.000260
1375	1.3671e+02	-7.3705	-26.630966	0.001074	10.743457	1.819991	-0.000215
1376	1.3681e+02	-7.3904	-26.840897	0.001054	10.540751	1.785652	-0.000211
1377	1.3691e+02	-7.4100	-27.115422	0.001378	13.784059	2.335083	-0.000276
1378	1.3701e+02	-7.4311	-27.333428	0.001095	10.946164	1.854330	-0.000219
1379	1.3711e+02	-7.4507	-27.527210	0.000973	9.729924	1.648294	-0.000195
1380	1.3721e+02	-7.4704	-27.761364	0.001176	11.756991	1.991688	-0.000235
1381	1.3731e+02	-7.4911	-28.003592	0.001216	12.162405	2.060367	-0.000243
1382	1.3741e+02	-7.5098	-28.253894	0.001257	12.567818	2.129046	-0.000252
1383	1.3751e+02	-7.5307	-28.492085	0.001196	11.959698	2.026028	-0.000239
1384	1.3761e+02	-7.5503	-28.697979	0.001034	10.338044	1.751312	-0.000207
1385	1.3771e+02	-7.5696	-28.972505	0.001378	13.784059	2.335083	-0.000276
1386	1.3781e+02	-7.5891	-29.182436	0.001054	10.540751	1.785652	-0.000211
1387	1.3791e+02	-7.6084	-29.404478	0.001115	11.148871	1.888670	-0.000223
1388	1.3801e+02	-7.6294	-29.711300	0.001541	15.405713	2.609798	-0.000308
1389	1.3811e+02	-7.6492	-29.945454	0.001176	11.756991	1.991688	-0.000235
1390	1.3821e+02	-7.6682	-30.175571	0.001155	11.554284	1.957349	-0.000231
1391	1.3831e+02	-7.6883	-30.397614	0.001115	11.148871	1.888670	-0.000223
1392	1.3840e+02	-7.7097	-30.676176	0.001399	13.986765	2.369422	-0.000280
1393	1.3850e+02	-7.7284	-30.898218	0.001115	11.148871	1.888670	-0.000223
1394	1.3860e+02	-7.7481	-31.140447	0.001216	12.162405	2.060367	-0.000243
1395	1.3870e+02	-7.7681	-31.390749	0.001257	12.567818	2.129046	-0.000252
1396	1.3880e+02	-7.7892	-31.669311	0.001399	13.986765	2.369422	-0.000280
1397	1.3890e+02	-7.8090	-31.927688	0.001297	12.973232	2.197725	-0.000260
1398	1.3900e+02	-7.8278	-32.145693	0.001095	10.946164	1.854330	-0.000219
1399	1.3910e+02	-7.8479	-32.404070	0.001297	12.973232	2.197725	-0.000260
1400	1.3920e+02	-7.8684	-32.654372	0.001257	12.567818	2.129046	-0.000252
1401	1.3930e+02	-7.8874	-32.969269	0.001581	15.811126	2.678477	-0.000316
1402	1.3940e+02	-7.9076	-33.187274	0.001095	10.946164	1.854330	-0.000219
1403	1.3950e+02	-7.9276	-33.461800	0.001378	13.784059	2.335083	-0.000276
1404	1.3960e+02	-7.9477	-33.736325	0.001378	13.784059	2.335083	-0.000276
1405	1.3970e+02	-7.9678	-33.966442	0.001155	11.554284	1.957349	-0.000231
1406	1.3980e+02	-7.9872	-34.212707	0.001237	12.365111	2.094707	-0.000248
1407	1.3990e+02	-8.0076	-34.495306	0.001419	14.189472	2.403762	-0.000284
1408	1.4000e+02	-8.0272	-34.757720	0.001318	13.175938	2.232064	-0.000264
1409	1.4010e+02	-8.0468	-35.012060	0.001277	12.770525	2.163385	-0.000256
1410	1.4020e+02	-8.0676	-35.282548	0.001358	13.581352	2.300743	-0.000272
1411	1.4029e+02	-8.0881	-35.565147	0.001419	14.189472	2.403762	-0.000284
1412	1.4039e+02	-8.1061	-35.819487	0.001277	12.770525	2.163385	-0.000256
1413	1.4049e+02	-8.1262	-36.106123	0.001439	14.392179	2.438101	-0.000288
1414	1.4059e+02	-8.1476	-36.340277	0.001176	11.756991	1.991688	-0.000235
1415	1.4069e+02	-8.1664	-36.651137	0.001561	15.608419	2.644138	-0.000312
1416	1.4079e+02	-8.1874	-36.929699	0.001399	13.986765	2.369422	-0.000280
1417	1.4089e+02	-8.2069	-37.212299	0.001419	14.189472	2.403762	-0.000284
1418	1.4099e+02	-8.2270	-37.490861	0.001399	13.986765	2.369422	-0.000280
1419	1.4109e+02	-8.2467	-37.785572	0.001480	14.797592	2.506780	-0.000296
1420	1.4119e+02	-8.2655	-38.047986	0.001318	13.175938	2.232064	-0.000264
1421	1.4129e+02	-8.2858	-38.298288	0.001257	12.567818	2.129046	-0.000252
1422	1.4139e+02	-8.3044	-38.609148	0.001561	15.608419	2.644138	-0.000312
1423	1.4149e+02	-8.3263	-38.907896	0.001500	15.000299	2.541119	-0.000300
1424	1.4159e+02	-8.3463	-39.190495	0.001419	14.189472	2.403762	-0.000284
1425	1.4169e+02	-8.3658	-39.465020	0.001378	13.784059	2.335083	-0.000276
1426	1.4179e+02	-8.3850	-39.763768	0.001500	15.000299	2.541119	-0.000300
1427	1.4189e+02	-8.4064	-40.106925	0.001723	17.230073	2.918853	-0.000345
1428	1.4199e+02	-8.4249	-40.409710	0.001520	15.203006	2.575459	-0.000304
1429	1.4209e+02	-8.4467	-40.664050	0.001277	12.770525	2.163385	-0.000256
1430	1.4219e+02	-8.4659	-40.974909	0.001561	15.608419	2.644138	-0.000312
1431	1.4228e+02	-8.4859	-41.241360	0.001338	13.378645	2.266404	-0.000268
1432	1.4238e+02	-8.5045	-41.572405	0.001662	16.621953	2.815835	-0.000333
1433	1.4248e+02	-8.5254	-41.838856	0.001338	13.378645	2.266404	-0.000268
1434	1.4258e+02	-8.5454	-42.202198	0.001824	18.243607	3.090551	-0.000365
1435	1.4268e+02	-8.5652	-42.500946	0.001500	15.000299	2.541119	-0.000300
1436	1.4278e+02	-8.5847	-42.811806	0.001561	15.608419	2.644138	-0.000312
1437	1.4288e+02	-8.6056	-43.049997	0.001196	11.959698	2.026028	-0.000239
1438	1.4298e+02	-8.6253	-43.389116	0.001703	17.027366	2.884514	-0.000341
1439	1.4308e+02	-8.6456	-43.699976	0.001561	15.608419	2.644138	-0.000312
1440	1.4318e+02	-8.6652	-44.026984	0.001642	16.419246	2.781496	-0.000329
1441	1.4328e+02	-8.6841	-44.281323	0.001277	12.770525	2.163385	-0.000256
1442	1.4338e+02	-8.7045	-44.636591	0.001784	17.838193	3.021872	-0.000357
1443	1.4348e+02	-8.7247	-44.959562	0.001622	16.216539	2.747156	-0.000325
1444	1.4358e+02	-8.7440	-45.238125	0.001399	13.986765	2.369422	-0.000280
1445	1.4368e+02	-8.7646	-45.585318	0.001743	17.432780	2.953193	-0.000349
1446	1.4378e+02	-8.7840	-45.920400	0.001682	16.824660	2.850175	-0.000337
1447	1.4388e+02	-8.8037	-46.239334	0.001601	16.013833	2.712817	-0.000321
1448	1.4398e+02	-8.8252	-46.578454	0.001703	17.027366	2.884514	-0.000341
1449	1.4408e+02	-8.8442	-46.905462	0.001642	16.419246	2.781496	-0.000329
1450	1.4418e+02	-8.8638	-47.212284	0.001541	15.405713	2.609798	-0.000308
1451	1.4428e+02	-8.8831	-47.543329	0.001662	16.621953	2.815835	-0.000333
1452	1.4437e+02	-8.9047	-47.829966	0.001439	14.392179	2.438101	-0.000288
1453	1.4447e+02	-8.9243	-48.193308	0.001824	18.243607	3.090551	-0.000365
1454	1.4457e+02	-8.9435	-48.528390	0.001682	16.824660	2.850175	-0.000337
1455	1.4467e+02	-8.9636	-48.883658	0.001784	17.838193	3.021872	-0.000357
1456	1.4477e+02	-8.9842	-49.190480	0.001541	15.405713	2.609798	-0.000308
1457	1.4487e+02	-9.0041	-49.537674	0.001743	17.432780	2.953193	-0.000349
1458	1.4497e+02	-9.0234	-49.872756	0.001682	16.824660	2.850175	-0.000337
1459	1.4507e+02	-9.0429	-50.236099	0.001824	18.243607	3.090551	-0.000365
1460	1.4517e+02	-9.0642	-50.583292	0.001743	17.432780	2.953193	-0.000349
1461	1.4527e+02	-9.0852	-50.974894	0.001966	19.662554	3.330927	-0.000394
1462	1.4537e+02	-9.1025	-51.277680	0.001520	15.203006	2.575459	-0.000304
1463	1.4547e+02	-9.1220	-51.649096	0.001865	18.649020	3.159230	-0.000373
1464	1.4557e+02	-9.1431	-52.000327	0.001764	17.635487	2.987532	-0.000353
1465	1.4567e+02	-9.1621	-52.379818	0.001905	19.054434	3.227908	-0.000381
1466	1.4577e+02	-9.1832	-52.735086	0.001784	17.838193	3.021872	-0.000357
1467	1.4587e+02	-9.2036	-53.094391	0.001804	18.040900	3.056211	-0.000361
1468	1.4597e+02	-9.2216	-53.441584	0.001743	17.432780	2.953193	-0.000349
1469	1.4607e+02	-9.2421	-53.829149	0.001946	19.459847	3.296587	-0.000390
1470	1.4617e+02	-9.2624	-54.212677	0.001926	19.257141	3.262248	-0.000385
1471	1.4626e+02	-9.2822	-54.567945	0.001784	17.838193	3.021872	-0.000357
1472	1.4636e+02	-9.3024	-54.951473	0.001926	19.257141	3.262248	-0.000385
1473	1.4646e+02	-9.3210	-55.302704	0.001764	17.635487	2.987532	-0.000353
1474	1.4656e+02	-9.3421	-55.734677	0.002169	21.689622	3.674321	-0.000434
1475	1.4666e+02	-9.3620	-56.093983	0.001804	18.040900	3.056211	-0.000361
1476	1.4676e+02	-9.3829	-56.461362	0.001845	18.446314	3.124890	-0.000369
1477	1.4686e+02	-9.4014	-56.865075	0.002027	20.270674	3.433945	-0.000406
1478	1.4696e+02	-9.4218	-57.224381	0.001804	18.040900	3.056211	-0.000361
1479	1.4706e+02	-9.4422	-57.620020	0.001987	19.865261	3.365266	-0.000398
1480	1.4716e+02	-9.4615	-58.003548	0.001926	19.257141	3.262248	-0.000385
1481	1.4726e+02	-9.4823	-58.407261	0.002027	20.270674	3.433945	-0.000406
1482	1.4736e+02	-9.5015	-58.839235	0.002169	21.689622	3.674321	-0.000434
1483	1.4746e+02	-9.5218	-59.234874	0.001987	19.865261	3.365266	-0.000398
1484	1.4756e+02	-9.5409	-59.650699	0.002088	20.878795	3.536964	-0.000418
1485	1.4766e+02	-9.5617	-60.042301	0.001966	19.662554	3.330927	-0.000394
1486	1.4776e+02	-9.5813	-60.433903	0.001966	19.662554	3.330927	-0.000394
1487	1.4786e+02	-9.6005	-60.898174	0.002331	23.311276	3.949037	-0.000467
1488	1.4796e+02	-9.6211	-61.265553	0.001845	18.446314	3.124890	-0.000369
1489	1.4806e+02	-9.6407	-61.709638	0.002230	22.297742	3.777340	-0.000446
1490	1.4816e+02	-9.6614	-62.137575	0.002149	21.486915	3.639982	-0.000430
1491	1.4825e+02	-9.6821	-62.545325	0.002047	20.473381	3.468285	-0.000410
1492	1.4835e+02	-9.7000	-63.001522	0.002291	22.905862	3.880358	-0.000458
1493	1.4845e+02	-9.7203	-63.425421	0.002128	21.284208	3.605642	-0.000426
1494	1.4855e+02	-9.7407	-63.841246	0.002088	20.878795	3.536964	-0.000418
1495	1.4865e+02	-9.7607	-64.289368	0.002250	22.500449	3.811679	-0.000450
1496	1.4875e+02	-9.7797	-64.737490	0.002250	22.500449	3.811679	-0.000450
1497	1.4885e+02	-9.8001	-65.165427	0.002149	21.486915	3.639982	-0.000430
1498	1.4895e+02	-9.8193	-65.629697	0.002331	23.311276	3.949037	-0.000467
1499	1.4905e+02	-9.8399	-66.106079	0.002392	23.919396	4.052055	-0.000479
1500	1.4915e+02	-9.8608	-66.493644	0.001946	19.459847	3.296587	-0.000390
1501	1.4925e+02	-9.8804	-67.002323	0.002554	25.541050	4.326771	-0.000511
1502	1.4935e+02	-9.8987	-67.430260	0.002149	21.486915	3.639982	-0.000430
1503	1.4945e+02	-9.9191	-67.918753	0.002453	24.527516	4.155074	-0.000491
1504	1.4955e+02	-9.9393	-68.366875	0.002250	22.500449	3.811679	-0.000450
1505	1.4965e+02	-9.9597	-68.847294	0.002412	24.122102	4.086395	-0.000483
1506	1.4975e+02	-9.9786	-69.323676	0.002392	23.919396	4.052055	-0.000479
1507	1.4985e+02	-9.9990	-69.771798	0.002250	22.500449	3.811679	-0.000450
1508	1.4995e+02	-9.9789	-70.114955	-0.001723	-17.230073	-2.918853	-0.000345
1509	1.5005e+02	-9.9596	-70.413703	-0.001500	-15.000299	-2.541119	-0.000300
1510	1.5015e+02	-9.9392	-70.692265	-0.001399	-13.986765	-2.369422	-0.000280
1511	1.5025e+02	-9.9196	-71.011199	-0.001601	-16.013833	-2.712817	-0.000321
1512	1.5034e+02	-9.8996	-71.233242	-0.001115	-11.148871	-1.888670	-0.000223
1513	1.5044e+02	-9.8799	-71.511804	-0.001399	-13.986765	-2.369422	-0.000280
1514	1.5054e+02	-9.8608	-71.721735	-0.001054	-10.540751	-1.785652	-0.000211
1515	1.5064e+02	-9.8401	-71.963963	-0.001216	-12.162405	-2.060367	-0.000243
1516	1.5074e+02	-9.8203	-72.169857	-0.001034	-10.338044	-1.751312	-0.000207
1517	1.5084e+02	-9.8003	-72.391899	-0.001115	-11.148871	-1.888670	-0.000223
1518	1.5094e+02	-9.7802	-72.605868	-0.001074	-10.743457	-1.819991	-0.000215
1519	1.5104e+02	-9.7609	-72.771390	-0.000831	-8.310976	-1.407918	-0.000166
1520	1.5114e+02	-9.7407	-72.969210	-0.000993	-9.932630	-1.682633	-0.000199
1521	1.5124e+02	-9.7198	-73.175104	-0.001034	-10.338044	-1.751312	-0.000207
1522	1.5134e+02	-9.7003	-73.393109	-0.001095	-10.946164	-1.854330	-0.000219
1523	1.5144e+02	-9.6808	-73.485963	-0.000466	-4.662255	-0.789807	-0.000093
1524	1.5154e+02	-9.6613	-73.695894	-0.001054	-10.540751	-1.785652	-0.000211
1525	1.5164e+02	-9.6397	-73.849305	-0.000770	-7.702856	-1.304899	-0.000154
1526	1.5174e+02	-9.6213	-73.998680	-0.000750	-7.500150	-1.270560	-0.000150
1527	1.5184e+02	-9.5999	-74.160165	-0.000811	-8.108270	-1.373578	-0.000162
1528	1.5194e+02	-9.5811	-74.325688	-0.000831	-8.310976	-1.407918	-0.000166
1529	1.5204e+02	-9.5604	-74.454876	-0.000649	-6.486616	-1.098862	-0.000130
1530	1.5214e+02	-9.5407	-74.644621	-0.000953	-9.527217	-1.613954	-0.000191
1531	1.5224e+02	-9.5217	-74.729401	-0.000426	-4.256842	-0.721128	-0.000085
1532	1.5233e+02	-9.5020	-74.850515	-0.000608	-6.081202	-1.030184	-0.000122
1533	1.5243e+02	-9.4812	-74.991815	-0.000709	-7.094736	-1.201881	-0.000142
1534	1.5253e+02	-9.4614	-75.108892	-0.000588	-5.878496	-0.995844	-0.000118
1535	1.5263e+02	-9.4418	-75.246154	-0.000689	-6.892029	-1.167541	-0.000138
1536	1.5273e+02	-9.4209	-75.326897	-0.000405	-4.054135	-0.686789	-0.000081
1537	1.5283e+02	-9.4009	-75.443974	-0.000588	-5.878496	-0.995844	-0.000118
1538	1.5293e+02	-9.3819	-75.544902	-0.000507	-5.067669	-0.858486	-0.000101
1539	1.5303e+02	-9.3615	-75.670054	-0.000628	-6.283909	-1.064523	-0.000126
1540	1.5313e+02	-9.3417	-75.738685	-0.000345	-3.446015	-0.583771	-0.000069
1541	1.5323e+02	-9.3218	-75.835576	-0.000486	-4.864962	-0.824147	-0.000097
1542	1.5333e+02	-9.3022	-75.892096	-0.000284	-2.837894	-0.480752	-0.000057
1543	1.5343e+02	-9.2825	-75.976876	-0.000426	-4.256842	-0.721128	-0.000085
1544	1.5353e+02	-9.2616	-76.089916	-0.000568	-5.675789	-0.961505	-0.000114
1545	1.5363e+02	-9.2422	-76.182770	-0.000466	-4.662255	-0.789807	-0.000093
1546	1.5373e+02	-9.2227	-76.239290	-0.000284	-2.837894	-0.480752	-0.000057
1547	1.5383e+02	-9.2026	-76.295810	-0.000284	-2.837894	-0.480752	-0.000057
1548	1.5393e+02	-9.1826	-76.392701	-0.000486	-4.864962	-0.824147	-0.000097
1549	1.5403e+02	-9.1640	-76.437109	-0.000223	-2.229774	-0.377734	-0.000045
1550	1.5413e+02	-9.1427	-76.493629	-0.000284	-2.837894	-0.480752	-0.000057
1551	1.5422e+02	-9.1235	-76.558224	-0.000324	-3.243308	-0.549431	-0.000065
1552	1.5432e+02	-9.1039	-76.610706	-0.000264	-2.635188	-0.446413	-0.000053
1553	1.5442e+02	-9.0820	-76.647041	-0.000182	-1.824361	-0.309055	-0.000037
1554	1.5452e+02	-9.0636	-76.739895	-0.000466	-4.662255	-0.789807	-0.000093
1555	1.5462e+02	-9.0436	-76.764117	-0.000122	-1.216240	-0.206037	-0.000024
1556	1.5472e+02	-9.0234	-76.820637	-0.000284	-2.837894	-0.480752	-0.000057
1557	1.5482e+02	-9.0034	-76.856972	-0.000182	-1.824361	-0.309055	-0.000037
1558	1.5492e+02	-8.9832	-76.937714	-0.000405	-4.054135	-0.686789	-0.000081
1559	1.5502e+02	-8.9633	-76.933677	0.000020	0.202707	0.034339	0.000004
1560	1.5512e+02	-8.9428	-76.945789	-0.000061	-0.608120	-0.103018	-0.000012
1561	1.5522e+02	-8.9236	-77.030568	-0.000426	-4.256842	-0.721128	-0.000085
1562	1.5532e+02	-8.9044	-77.022494	0.000041	0.405413	0.068679	0.000008
1563	1.5542e+02	-8.8838	-77.042680	-0.000101	-1.013534	-0.171697	-0.000020
1564	1.5552e+02	-8.8644	-77.111311	-0.000345	-3.446015	-0.583771	-0.000069
1565	1.5562e+02	-8.8434	-77.155720	-0.000223	-2.229774	-0.377734	-0.000045
1566	1.5572e+02	-8.8249	-77.163794	-0.000041	-0.405413	-0.068679	-0.000008
1567	1.5582e+02	-8.8049	-77.192054	-0.000142	-1.418947	-0.240376	-0.000028
1568	1.5592e+02	-8.7848	-77.159757	0.000162	1.621654	0.274716	0.000032
1569	1.5602e+02	-8.7645	-77.216277	-0.000284	-2.837894	-0.480752	-0.000057
1570	1.5612e+02	-8.7473	-77.220314	-0.000020	-0.202707	-0.034339	-0.000004
1571	1.5622e+02	-8.7242	-77.240500	-0.000101	-1.013534	-0.171697	-0.000020
1572	1.5631e+02	-8.7057	-77.232425	0.000041	0.405413	0.068679	0.000008
1573	1.5641e+02	-8.6850	-77.268759	-0.000182	-1.824361	-0.309055	-0.000037
1574	1.5651e+02	-8.6641	-77.252611	0.000081	0.810827	0.137358	0.000016
1575	1.5661e+02	-8.6453	-77.272797	-0.000101	-1.013534	-0.171697	-0.000020
1576	1.5671e+02	-8.6249	-77.317205	-0.000223	-2.229774	-0.377734	-0.000045
1577	1.5681e+02	-8.6049	-77.276834	0.000203	2.027067	0.343395	0.000041
1578	1.5691e+02	-8.5860	-77.272797	0.000020	0.202707	0.034339	0.000004
1579	1.5701e+02	-8.5653	-77.272797	0.000000	0.000000	0.000000	0.000000
1580	1.5711e+02	-8.5455	-77.260685	0.000061	0.608120	0.103018	0.000012
1581	1.5721e+02	-8.5258	-77.297019	-0.000182	-1.824361	-0.309055	-0.000037
1582	1.5731e+02	-8.5059	-77.276834	0.000101	1.013534	0.171697	0.000020
1583	1.5741e+02	-8.4848	-77.240500	0.000182	1.824361	0.309055	0.000037
1584	1.5751e+02	-8.4657	-77.248574	-0.000041	-0.405413	-0.068679	-0.000008
1585	1.5761e+02	-8.4453	-77.252611	-0.000020	-0.202707	-0.034339	-0.000004
1586	1.5771e+02	-8.4250	-77.204165	0.000243	2.432481	0.412073	0.000049
1587	1.5781e+02	-8.4052	-77.248574	-0.000223	-2.229774	-0.377734	-0.000045
1588	1.5791e+02	-8.3856	-77.236462	0.000061	0.608120	0.103018	0.000012
1589	1.5801e+02	-8.3664	-77.175905	0.000304	3.040601	0.515092	0.000061
1590	1.5811e+02	-8.3481	-77.159757	0.000081	0.810827	0.137358	0.000016
1591	1.5821e+02	-8.3266	-77.179942	-0.000101	-1.013534	-0.171697	-0.000020
1592	1.5830e+02	-8.3064	-77.127460	0.000264	2.635188	0.446413	0.000053
1593	1.5840e+02	-8.2863	-77.163794	-0.000182	-1.824361	-0.309055	-0.000037
1594	1.5850e+02	-8.2657	-77.115348	0.000243	2.432481	0.412073	0.000049
1595	1.5860e+02	-8.2457	-77.083051	0.000162	1.621654	0.274716	0.000032
1596	1.5870e+02	-8.2274	-77.074977	0.000041	0.405413	0.068679	0.000008
1597	1.5880e+02	-8.2065	-77.030568	0.000223	2.229774	0.377734	0.000045
1598	1.5890e+02	-8.1863	-77.026531	0.000020	0.202707	0.034339	0.000004
1599	1.5900e+02	-8.1677	-77.002308	0.000122	1.216240	0.206037	0.000024
1600	1.5910e+02	-8.1474	-76.961937	0.000203	2.027067	0.343395	0.000041
1601	1.5920e+02	-8.1271	-76.974049	-0.000061	-0.608120	-0.103018	-0.000012
1602	1.5930e+02	-8.1076	-76.901380	0.000365	3.648721	0.618110	0.000073
1603	1.5940e+02	-8.0869	-76.897343	0.000020	0.202707	0.034339	0.000004
1604	1.5950e+02	-8.0676	-76.905417	-0.000041	-0.405413	-0.068679	-0.000008
1605	1.5960e+02	-8.0479	-76.856972	0.000243	2.432481	0.412073	0.000049
1606	1.5970e+02	-8.0278	-76.796415	0.000304	3.040601	0.515092	0.000061
1607	1.5980e+02	-8.0075	-76.756043	0.000203	2.027067	0.343395	0.000041
1608	1.5990e+02	-7.9881	-76.691449	0.000324	3.243308	0.549431	0.000065
1609	1.6000e+02	-7.9677	-76.699523	-0.000041	-0.405413	-0.068679	-0.000008
1610	1.6010e+02	-7.9480	-76.659152	0.000203	2.027067	0.343395	0.000041
1611	1.6019e+02	-7.9279	-76.614743	0.000223	2.229774	0.377734	0.000045
1612	1.6029e+02	-7.9076	-76.546112	0.000345	3.446015	0.583771	0.000069
1613	1.6039e+02	-7.8876	-76.489592	0.000284	2.837894	0.480752	0.000057
1614	1.6049e+02	-7.8693	-76.461332	0.000142	1.418947	0.240376	0.000028
1615	1.6059e+02	-7.8474	-76.392701	0.000345	3.446015	0.583771	0.000069
1616	1.6069e+02	-7.8288	-76.408850	-0.000081	-0.810827	-0.137358	-0.000016
1617	1.6079e+02	-7.8078	-76.303884	0.000527	5.270375	0.892826	0.000105
1618	1.6089e+02	-7.7888	-76.271587	0.000162	1.621654	0.274716	0.000032
1619	1.6099e+02	-7.7695	-76.255438	0.000081	0.810827	0.137358	0.000016
1620	1.6109e+02	-7.7480	-76.190844	0.000324	3.243308	0.549431	0.000065
1621	1.6119e+02	-7.7283	-76.122213	0.000345	3.446015	0.583771	0.000069
1622	1.6129e+02	-7.7094	-76.085879	0.000182	1.824361	0.309055	0.000037
1623	1.6139e+02	-7.6889	-76.073767	0.000061	0.608120	0.103018	0.000012
1624	1.6149e+02	-7.6686	-75.968802	0.000527	5.270375	0.892826	0.000105
1625	1.6159e+02	-7.6489	-75.932468	0.000182	1.824361	0.309055	0.000037
1626	1.6169e+02	-7.6289	-75.932468	0.000000	0.000000	0.000000	0.000000
1627	1.6179e+02	-7.6077	-75.851725	0.000405	4.054135	0.686789	0.000081
1628	1.6189e+02	-7.5897	-75.811353	0.000203	2.027067	0.343395	0.000041
1629	1.6199e+02	-7.5684	-75.770982	0.000203	2.027067	0.343395	0.000041
1630	1.6209e+02	-7.5478	-75.714462	0.000284	2.837894	0.480752	0.000057
1631	1.6219e+02	-7.5296	-75.645831	0.000345	3.446015	0.583771	0.000069
1632	1.6228e+02	-7.5097	-75.593348	0.000264	2.635188	0.446413	0.000053
1633	1.6238e+02	-7.4905	-75.552977	0.000203	2.027067	0.343395	0.000041
1634	1.6248e+02	-7.4706	-75.460123	0.000466	4.662255	0.789807	0.000093
1635	1.6258e+02	-7.4507	-75.427826	0.000162	1.621654	0.274716	0.000032
1636	1.6268e+02	-7.4297	-75.351120	0.000385	3.851428	0.652450	0.000077
1637	1.6278e+02	-7.4112	-75.294600	0.000284	2.837894	0.480752	0.000057
1638	1.6288e+02	-7.3906	-75.250192	0.000223	2.229774	0.377734	0.000045
1639	1.6298e+02	-7.3709	-75.181560	0.000345	3.446015	0.583771	0.000069
1640	1.6308e+02	-7.3505	-75.169449	0.000061	0.608120	0.103018	0.000012
1641	1.6318e+02	-7.3306	-75.056409	0.000568	5.675789	0.961505	0.000114
1642	1.6328e+02	-7.3110	-74.999889	0.000284	2.837894	0.480752	0.000057
1643	1.6338e+02	-7.2902	-74.967592	0.000162	1.621654	0.274716	0.000032
1644	1.6348e+02	-7.2700	-74.874738	0.000466	4.662255	0.789807	0.000093
1645	1.6358e+02	-7.2513	-74.818218	0.000284	2.837894	0.480752	0.000057
1646	1.6368e+02	-7.2305	-74.733438	0.000426	4.256842	0.721128	0.000085
1647	1.6378e+02	-7.2114	-74.733438	0.000000	0.000000	0.000000	0.000000
1648	1.6388e+02	-7.1918	-74.632510	0.000507	5.067669	0.858486	0.000101
1649	1.6398e+02	-7.1709	-74.571953	0.000304	3.040601	0.515092	0.000061
1650	1.6408e+02	-7.1515	-74.511396	0.000304	3.040601	0.515092	0.000061
1651	1.6418e+02	-7.1320	-74.418542	0.000466	4.662255	0.789807	0.000093
1652	1.6427e+02	-7.1120	-74.398356	0.000101	1.013534	0.171697	0.000020
1653	1.6437e+02	-7.0918	-74.309539	0.000446	4.459548	0.755468	0.000089
1654	1.6447e+02	-7.0724	-74.273205	0.000182	1.824361	0.309055	0.000037
1655	1.6457e+02	-7.0525	-74.232833	0.000203	2.027067	0.343395	0.000041
1656	1.6467e+02	-7.0316	-74.127868	0.000527	5.270375	0.892826	0.000105
1657	1.6477e+02	-7.0123	-74.059237	0.000345	3.446015	0.583771	0.000069
1658	1.6487e+02	-6.9917	-73.990605	0.000345	3.446015	0.583771	0.000069
1659	1.6497e+02	-6.9722	-73.934085	0.000284	2.837894	0.480752	0.000057
1660	1.6507e+02	-6.9521	-73.861417	0.000365	3.648721	0.618110	0.000073
1661	1.6517e+02	-6.9322	-73.792786	0.000345	3.446015	0.583771	0.000069
1662	1.6527e+02	-6.9122	-73.736266	0.000284	2.837894	0.480752	0.000057
1663	1.6537e+02	-6.8921	-73.679746	0.000284	2.837894	0.480752	0.000057
1664	1.6547e+02	-6.8726	-73.546520	0.000669	6.689323	1.133202	0.000134
1665	1.6557e+02	-6.8517	-73.546520	0.000000	0.000000	0.000000	0.000000
1666	1.6567e+02	-6.8332	-73.481926	0.000324	3.243308	0.549431	0.000065
1667	1.6577e+02	-6.8129	-73.356775	0.000628	6.283909	1.064523	0.000126
1668	1.6587e+02	-6.7932	-73.296218	0.000304	3.040601	0.515092	0.000061
1669	1.6597e+02	-6.7729	-73.247772	0.000243	2.432481	0.412073	0.000049
1670	1.6607e+02	-6.7537	-73.171067	0.000385	3.851428	0.652450	0.000077
1671	1.6616e+02	-6.7337	-73.102435	0.000345	3.446015	0.583771	0.000069
1672	1.6626e+02	-6.7140	-73.025730	0.000385	3.851428	0.652450	0.000077
1673	1.6636e+02	-6.6940	-72.944987	0.000405	4.054135	0.686789	0.000081
1674	1.6646e+02	-6.6734	-72.888467	0.000284	2.837894	0.480752	0.000057
1675	1.6656e+02	-6.6534	-72.803687	0.000426	4.256842	0.721128	0.000085
1676	1.6666e+02	-6.6332	-72.722945	0.000405	4.054135	0.686789	0.000081
1677	1.6676e+02	-6.6130	-72.630090	0.000466	4.662255	0.789807	0.000093
1678	1.6686e+02	-6.5939	-72.573571	0.000284	2.837894	0.480752	0.000057
1679	1.6696e+02	-6.5737	-72.500902	0.000365	3.648721	0.618110	0.000073
1680	1.6706e+02	-6.5536	-72.412085	0.000446	4.459548	0.755468	0.000089
1681	1.6716e+02	-6.5331	-72.311157	0.000507	5.067669	0.858486	0.000101
1682	1.6726e+02	-6.5141	-72.246563	0.000324	3.243308	0.549431	0.000065
1683	1.6736e+02	-6.4947	-72.198117	0.000243	2.432481	0.412073	0.000049
1684	1.6746e+02	-6.4743	-72.129486	0.000345	3.446015	0.583771	0.000069
1685	1.6756e+02	-6.4546	-72.028557	0.000507	5.067669	0.858486	0.000101
1686	1.6766e+02	-6.4336	-71.988186	0.000203	2.027067	0.343395	0.000041
1687	1.6776e+02	-6.4136	-71.858998	0.000649	6.486616	1.098862	0.000130
1688	1.6786e+02	-6.3943	-71.770181	0.000446	4.459548	0.755468	0.000089
1689	1.6796e+02	-6.3739	-71.709624	0.000304	3.040601	0.515092	0.000061
1690	1.6806e+02	-6.3541	-71.632918	0.000385	3.851428	0.652450	0.000077
1691	1.6816e+02	-6.3339	-71.544101	0.000446	4.459548	0.755468	0.000089
1692	1.6825e+02	-6.3141	-71.523915	0.000101	1.013534	0.171697	0.000020
1693	1.6835e+02	-6.2947	-71.431061	0.000466	4.662255	0.789807	0.000093
1694	1.6845e+02	-6.2750	-71.338207	0.000466	4.662255	0.789807	0.000093
1695	1.6855e+02	-6.2549	-71.269576	0.000345	3.446015	0.583771	0.000069
1696	1.6865e+02	-6.2349	-71.156536	0.000568	5.675789	0.961505	0.000114
1697	1.6875e+02	-6.2137	-71.124239	0.000162	1.621654	0.274716	0.000032
1698	1.6885e+02	-6.1949	-71.043496	0.000405	4.054135	0.686789	0.000081
1699	1.6895e+02	-6.1749	-70.962753	0.000405	4.054135	0.686789	0.000081
1700	1.6905e+02	-6.1552	-70.877974	0.000426	4.256842	0.721128	0.000085
1701	1.6915e+02	-6.1368	-70.797231	0.000405	4.054135	0.686789	0.000081
1702	1.6925e+02	-6.1159	-70.700340	0.000486	4.864962	0.824147	0.000097
1703	1.6935e+02	-6.0964	-70.591337	0.000547	5.473082	0.927165	0.000110
1704	1.6945e+02	-6.0754	-70.563077	0.000142	1.418947	0.240376	0.000028
1705	1.6955e+02	-6.0567	-70.462149	0.000507	5.067669	0.858486	0.000101
1706	1.6965e+02	-6.0361	-70.409666	0.000264	2.635188	0.446413	0.000053
1707	1.6975e+02	-6.0162	-70.328923	0.000405	4.054135	0.686789	0.000081
1708	1.6985e+02	-5.9967	-70.195698	0.000669	6.689323	1.133202	0.000134
1709	1.6995e+02	-5.9764	-70.123029	0.000365	3.648721	0.618110	0.000073
1710	1.7005e+02	-5.9561	-70.046324	0.000385	3.851428	0.652450	0.000077
1711	1.7015e+02	-5.9358	-69.997878	0.000243	2.432481	0.412073	0.000049
1712	1.7024e+02	-5.9163	-69.917135	0.000405	4.054135	0.686789	0.000081
1713	1.7034e+02	-5.8968	-69.844467	0.000365	3.648721	0.618110	0.000073
1714	1.7044e+02	-5.8768	-69.707204	0.000689	6.892029	1.167541	0.000138
1715	1.7054e+02	-5.8572	-69.695093	0.000061	0.608120	0.103018	0.000012
1716	1.7064e+02	-5.8362	-69.565904	0.000649	6.486616	1.098862	0.000130
1717	1.7074e+02	-5.8160	-69.473050	0.000466	4.662255	0.789807	0.000093
1718	1.7084e+02	-5.7970	-69.420568	0.000264	2.635188	0.446413	0.000053
1719	1.7094e+02	-5.7767	-69.303491	0.000588	5.878496	0.995844	0.000118
1720	1.7104e+02	-5.7567	-69.194488	0.000547	5.473082	0.927165	0.000110
1721	1.7114e+02	-5.7368	-69.150079	0.000223	2.229774	0.377734	0.000045
1722	1.7124e+02	-5.7173	-69.045114	0.000527	5.270375	0.892826	0.000105
1723	1.7134e+02	-5.6963	-68.992631	0.000264	2.635188	0.446413	0.000053
1724	1.7144e+02	-5.6775	-68.891703	0.000507	5.067669	0.858486	0.000101
1725	1.7154e+02	-5.6573	-68.786737	0.000527	5.270375	0.892826	0.000105
1726	1.7164e+02	-5.6372	-68.730217	0.000284	2.837894	0.480752	0.000057
1727	1.7174e+02	-5.6174	-68.605066	0.000628	6.283909	1.064523	0.000126
1728	1.7184e+02	-5.5986	-68.532398	0.000365	3.648721	0.618110	0.000073
1729	1.7194e+02	-5.5772	-68.463766	0.000345	3.446015	0.583771	0.000069
1730	1.7204e+02	-5.5579	-68.354764	0.000547	5.473082	0.927165	0.000110
1731	1.7213e+02	-5.5379	-68.286132	0.000345	3.446015	0.583771	0.000069
1732	1.7223e+02	-5.5179	-68.160981	0.000628	6.283909	1.064523	0.000126
1733	1.7233e+02	-5.4969	-68.088313	0.000365	3.648721	0.618110	0.000073
1734	1.7243e+02	-5.4784	-67.979310	0.000547	5.473082	0.927165	0.000110
1735	1.7253e+02	-5.4578	-67.934902	0.000223	2.229774	0.377734	0.000045
1736	1.7263e+02	-5.4382	-67.789565	0.000730	7.297443	1.236220	0.000146
1737	1.7273e+02	-5.4175	-67.729008	0.000304	3.040601	0.515092	0.000061
1738	1.7283e+02	-5.3983	-67.644228	0.000426	4.256842	0.721128	0.000085
1739	1.7293e+02	-5.3777	-67.527151	0.000588	5.878496	0.995844	0.000118
1740	1.7303e+02	-5.3587	-67.462557	0.000324	3.243308	0.549431	0.000065
1741	1.7313e+02	-5.3391	-67.397963	0.000324	3.243308	0.549431	0.000065
1742	1.7323e+02	-5.3177	-67.321257	0.000385	3.851428	0.652450	0.000077
1743	1.7333e+02	-5.2991	-67.240514	0.000405	4.054135	0.686789	0.000081
1744	1.7343e+02	-5.2791	-67.079029	0.000811	8.108270	1.373578	0.000162
1745	1.7353e+02	-5.2591	-67.042695	0.000182	1.824361	0.309055	0.000037
1746	1.7363e+02	-5.2405	-66.929655	0.000568	5.675789	0.961505	0.000114
1747	1.7373e+02	-5.2194	-66.844875	0.000426	4.256842	0.721128	0.000085
1748	1.7383e+02	-5.1987	-66.760095	0.000426	4.256842	0.721128	0.000085
1749	1.7393e+02	-5.1788	-66.659167	0.000507	5.067669	0.858486	0.000101
1750	1.7403e+02	-5.1581	-66.550164	0.000547	5.473082	0.927165	0.000110
1751	1.7413e+02	-5.1390	-66.501718	0.000243	2.432481	0.412073	0.000049
1752	1.7422e+02	-5.1189	-66.356382	0.000730	7.297443	1.236220	0.000146
1753	1.7432e+02	-5.0989	-66.251416	0.000527	5.270375	0.892826	0.000105
1754	1.7442e+02	-5.0793	-66.182785	0.000345	3.446015	0.583771	0.000069
1755	1.7452e+02	-5.0594	-66.114153	0.000345	3.446015	0.583771	0.000069
1756	1.7462e+02	-5.0392	-66.037448	0.000385	3.851428	0.652450	0.000077
1757	1.7472e+02	-5.0199	-65.944594	0.000466	4.662255	0.789807	0.000093
1758	1.7482e+02	-5.0000	-65.815405	0.000649	6.486616	1.098862	0.000130
1759	1.7492e+02	-4.9808	-65.730626	0.000426	4.256842	0.721128	0.000085
1760	1.7502e+02	-4.9603	-65.649883	0.000405	4.054135	0.686789	0.000081
1761	1.7512e+02	-4.9413	-65.593363	0.000284	2.837894	0.480752	0.000057
1762	1.7522e+02	-4.9197	-65.476286	0.000588	5.878496	0.995844	0.000118
1763	1.7532e+02	-4.9006	-65.355172	0.000608	6.081202	1.030184	0.000122
1764	1.7542e+02	-4.8798	-65.270392	0.000426	4.256842	0.721128	0.000085
1765	1.7552e+02	-4.8601	-65.157352	0.000568	5.675789	0.961505	0.000114
1766	1.7562e+02	-4.8408	-65.060461	0.000486	4.864962	0.824147	0.000097
1767	1.7572e+02	-4.8199	-65.020090	0.000203	2.027067	0.343395	0.000041
1768	1.7582e+02	-4.8013	-64.886864	0.000669	6.689323	1.133202	0.000134
1769	1.7592e+02	-4.7809	-64.785936	0.000507	5.067669	0.858486	0.000101
1770	1.7602e+02	-4.7606	-64.701156	0.000426	4.256842	0.721128	0.000085
1771	1.7612e+02	-4.7412	-64.596190	0.000527	5.270375	0.892826	0.000105
1772	1.7621e+02	-4.7216	-64.515448	0.000405	4.054135	0.686789	0.000081
1773	1.7631e+02	-4.7003	-64.434705	0.000405	4.054135	0.686789	0.000081
1774	1.7641e+02	-4.6813	-64.337814	0.000486	4.864962	0.824147	0.000097
1775	1.7651e+02	-4.6613	-64.196514	0.000709	7.094736	1.201881	0.000142
1776	1.7661e+02	-4.6411	-64.119808	0.000385	3.851428	0.652450	0.000077
1777	1.7671e+02	-4.6210	-64.022917	0.000486	4.864962	0.824147	0.000097
1778	1.7681e+02	-4.6011	-63.958323	0.000324	3.243308	0.549431	0.000065
1779	1.7691e+02	-4.5815	-63.857395	0.000507	5.067669	0.858486	0.000101
1780	1.7701e+02	-4.5615	-63.720132	0.000689	6.892029	1.167541	0.000138
1781	1.7711e+02	-4.5418	-63.623241	0.000486	4.864962	0.824147	0.000097
1782	1.7721e+02	-4.5213	-63.554609	0.000345	3.446015	0.583771	0.000069
1783	1.7731e+02	-4.5018	-63.465792	0.000446	4.459548	0.755468	0.000089
1784	1.7741e+02	-4.4816	-63.320455	0.000730	7.297443	1.236220	0.000146
1785	1.7751e+02	-4.4614	-63.231638	0.000446	4.459548	0.755468	0.000089
1786	1.7761e+02	-4.4423	-63.126673	0.000527	5.270375	0.892826	0.000105
1787	1.7771e+02	-4.4219	-63.029782	0.000486	4.864962	0.824147	0.000097
1788	1.7781e+02	-4.4023	-62.912705	0.000588	5.878496	0.995844	0.000118
1789	1.7791e+02	-4.3817	-62.860222	0.000264	2.635188	0.446413	0.000053
1790	1.7801e+02	-4.3631	-62.726997	0.000669	6.689323	1.133202	0.000134
1791	1.7810e+02	-4.3428	-62.646254	0.000405	4.054135	0.686789	0.000081
1792	1.7820e+02	-4.3230	-62.508991	0.000689	6.892029	1.167541	0.000138
1793	1.7830e+02	-4.3016	-62.432286	0.000385	3.851428	0.652450	0.000077
1794	1.7840e+02	-4.2822	-62.303097	0.000649	6.486616	1.098862	0.000130
1795	1.7850e+02	-4.2633	-62.202169	0.000507	5.067669	0.858486	0.000101
1796	1.7860e+02	-4.2421	-62.113352	0.000446	4.459548	0.755468	0.000089
1797	1.7870e+02	-4.2227	-61.988201	0.000628	6.283909	1.064523	0.000126
1798	1.7880e+02	-4.2036	-61.915532	0.000365	3.648721	0.618110	0.000073
1799	1.7890e+02	-4.1832	-61.810567	0.000527	5.270375	0.892826	0.000105
1800	1.7900e+02	-4.1631	-61.733861	0.000385	3.851428	0.652450	0.000077
1801	1.7910e+02	-4.1434	-61.632933	0.000507	5.067669	0.858486	0.000101
1802	1.7920e+02	-4.1231	-61.491633	0.000709	7.094736	1.201881	0.000142
1803	1.7930e+02	-4.1030	-61.427039	0.000324	3.243308	0.549431	0.000065
1804	1.7940e+02	-4.0826	-61.297850	0.000649	6.486616	1.098862	0.000130
1805	1.7950e+02	-4.0637	-61.204996	0.000466	4.662255	0.789807	0.000093
1806	1.7960e+02	-4.0430	-61.116179	0.000446	4.459548	0.755468	0.000089
1807	1.7970e+02	-4.0237	-60.982954	0.000669	6.689323	1.133202	0.000134
1808	1.7980e+02	-4.0038	-60.906248	0.000385	3.851428	0.652450	0.000077
1809	1.7990e+02	-3.9835	-60.809357	0.000486	4.864962	0.824147	0.000097
1810	1.8000e+02	-3.9632	-60.680169	0.000649	6.486616	1.098862	0.000130
1811	1.8009e+02	-3.9437	-60.563092	0.000588	5.878496	0.995844	0.000118
1812	1.8019e+02	-3.9247	-60.534832	0.000142	1.418947	0.240376	0.000028
1813	1.8029e+02	-3.9043	-60.332975	0.001014	10.135337	1.716973	0.000203
1814	1.8039e+02	-3.8839	-60.300678	0.000162	1.621654	0.274716	0.000032
1815	1.8049e+02	-3.8632	-60.163415	0.000689	6.892029	1.167541	0.000138
1816	1.8059e+02	-3.8441	-60.066524	0.000486	4.864962	0.824147	0.000097
1817	1.8069e+02	-3.8240	-59.941373	0.000628	6.283909	1.064523	0.000126
1818	1.8079e+02	-3.8042	-59.856593	0.000426	4.256842	0.721128	0.000085
1819	1.8089e+02	-3.7837	-59.775850	0.000405	4.054135	0.686789	0.000081
1820	1.8099e+02	-3.7647	-59.638588	0.000689	6.892029	1.167541	0.000138
1821	1.8109e+02	-3.7446	-59.553808	0.000426	4.256842	0.721128	0.000085
1822	1.8119e+02	-3.7253	-59.456917	0.000486	4.864962	0.824147	0.000097
1823	1.8129e+02	-3.7037	-59.360025	0.000486	4.864962	0.824147	0.000097
1824	1.8139e+02	-3.6845	-59.271208	0.000446	4.459548	0.755468	0.000089
1825	1.8149e+02	-3.6646	-59.150094	0.000608	6.081202	1.030184	0.000122
1826	1.8159e+02	-3.6451	-59.037054	0.000568	5.675789	0.961505	0.000114
1827	1.8169e+02	-3.6253	-58.911903	0.000628	6.283909	1.064523	0.000126
1828	1.8179e+02	-3.6050	-58.843272	0.000345	3.446015	0.583771	0.000069
1829	1.8189e+02	-3.5851	-58.714084	0.000649	6.486616	1.098862	0.000130
1830	1.8199e+02	-3.5669	-58.609118	0.000527	5.270375	0.892826	0.000105
1831	1.8209e+02	-3.5457	-58.471855	0.000689	6.892029	1.167541	0.000138
1832	1.8218e+02	-3.5259	-58.407261	0.000324	3.243308	0.549431	0.000065
1833	1.8228e+02	-3.5057	-58.286147	0.000608	6.081202	1.030184	0.000122
1834	1.8238e+02	-3.4854	-58.181182	0.000527	5.270375	0.892826	0.000105
1835	1.8248e+02	-3.4660	-58.072179	0.000547	5.473082	0.927165	0.000110
1836	1.8258e+02	-3.4462	-57.975288	0.000486	4.864962	0.824147	0.000097
1837	1.8268e+02	-3.4259	-57.846099	0.000649	6.486616	1.098862	0.000130
1838	1.8278e+02	-3.4071	-57.765357	0.000405	4.054135	0.686789	0.000081
1839	1.8288e+02	-3.3864	-57.680577	0.000426	4.256842	0.721128	0.000085
1840	1.8298e+02	-3.3662	-57.511017	0.000851	8.513683	1.442257	0.000170
1841	1.8308e+02	-3.3461	-57.418163	0.000466	4.662255	0.789807	0.000093
1842	1.8318e+02	-3.3270	-57.293012	0.000628	6.283909	1.064523	0.000126
1843	1.8328e+02	-3.3064	-57.220343	0.000365	3.648721	0.618110	0.000073
1844	1.8338e+02	-3.2864	-57.075006	0.000730	7.297443	1.236220	0.000146
1845	1.8348e+02	-3.2667	-56.978115	0.000486	4.864962	0.824147	0.000097
1846	1.8358e+02	-3.2466	-56.873150	0.000527	5.270375	0.892826	0.000105
1847	1.8368e+02	-3.2274	-56.780296	0.000466	4.662255	0.789807	0.000093
1848	1.8378e+02	-3.2068	-56.651107	0.000649	6.486616	1.098862	0.000130
1849	1.8388e+02	-3.1866	-56.558253	0.000466	4.662255	0.789807	0.000093
1850	1.8398e+02	-3.1673	-56.416953	0.000709	7.094736	1.201881	0.000142
1851	1.8407e+02	-3.1473	-56.332174	0.000426	4.256842	0.721128	0.000085
1852	1.8417e+02	-3.1273	-56.223171	0.000547	5.473082	0.927165	0.000110
1853	1.8427e+02	-3.1068	-56.106094	0.000588	5.878496	0.995844	0.000118
1854	1.8437e+02	-3.0865	-55.960757	0.000730	7.297443	1.236220	0.000146
1855	1.8447e+02	-3.0682	-55.892126	0.000345	3.446015	0.583771	0.000069
1856	1.8457e+02	-3.0466	-55.819457	0.000365	3.648721	0.618110	0.000073
1857	1.8467e+02	-3.0273	-55.674120	0.000730	7.297443	1.236220	0.000146
1858	1.8477e+02	-3.0075	-55.561081	0.000568	5.675789	0.961505	0.000114
1859	1.8487e+02	-2.9868	-55.456115	0.000527	5.270375	0.892826	0.000105
1860	1.8497e+02	-2.9668	-55.367298	0.000446	4.459548	0.755468	0.000089
1861	1.8507e+02	-2.9473	-55.205813	0.000811	8.108270	1.373578	0.000162
1862	1.8517e+02	-2.9280	-55.149293	0.000284	2.837894	0.480752	0.000057
1863	1.8527e+02	-2.9074	-55.007993	0.000709	7.094736	1.201881	0.000142
1864	1.8537e+02	-2.8873	-54.894953	0.000568	5.675789	0.961505	0.000114
1865	1.8547e+02	-2.8690	-54.794025	0.000507	5.067669	0.858486	0.000101
1866	1.8557e+02	-2.8479	-54.689059	0.000527	5.270375	0.892826	0.000105
1867	1.8567e+02	-2.8278	-54.596205	0.000466	4.662255	0.789807	0.000093
1868	1.8577e+02	-2.8082	-54.450868	0.000730	7.297443	1.236220	0.000146
1869	1.8587e+02	-2.7889	-54.353977	0.000486	4.864962	0.824147	0.000097
1870	1.8597e+02	-2.7682	-54.269197	0.000426	4.256842	0.721128	0.000085
1871	1.8606e+02	-2.7485	-54.172306	0.000486	4.864962	0.824147	0.000097
1872	1.8616e+02	-2.7293	-54.055229	0.000588	5.878496	0.995844	0.000118
1873	1.8626e+02	-2.7092	-53.926041	0.000649	6.486616	1.098862	0.000130
1874	1.8636e+02	-2.6886	-53.821075	0.000527	5.270375	0.892826	0.000105
1875	1.8646e+02	-2.6682	-53.736295	0.000426	4.256842	0.721128	0.000085
1876	1.8656e+02	-2.6486	-53.586921	0.000750	7.500150	1.270560	0.000150
1877	1.8666e+02	-2.6286	-53.502141	0.000426	4.256842	0.721128	0.000085
1878	1.8676e+02	-2.6088	-53.348730	0.000770	7.702856	1.304899	0.000154
1879	1.8686e+02	-2.5888	-53.267987	0.000405	4.054135	0.686789	0.000081
1880	1.8696e+02	-2.5690	-53.106502	0.000811	8.108270	1.373578	0.000162
1881	1.8706e+02	-2.5495	-53.066131	0.000203	2.027067	0.343395	0.000041
1882	1.8716e+02	-2.5287	-52.973277	0.000466	4.662255	0.789807	0.000093
1883	1.8726e+02	-2.5093	-52.795643	0.000892	8.919097	1.510936	0.000179
1884	1.8736e+02	-2.4894	-52.698751	0.000486	4.864962	0.824147	0.000097
1885	1.8746e+02	-2.4702	-52.601860	0.000486	4.864962	0.824147	0.000097
1886	1.8756e+02	-2.4496	-52.472672	0.000649	6.486616	1.098862	0.000130
1887	1.8766e+02	-2.4300	-52.351558	0.000608	6.081202	1.030184	0.000122
1888	1.8776e+02	-2.4101	-52.246592	0.000527	5.270375	0.892826	0.000105
1889	1.8786e+02	-2.3902	-52.113367	0.000669	6.689323	1.133202	0.000134
1890	1.8796e+02	-2.3697	-52.028587	0.000426	4.256842	0.721128	0.000085
1891	1.8806e+02	-2.3500	-51.899398	0.000649	6.486616	1.098862	0.000130
1892	1.8815e+02	-2.3305	-51.778284	0.000608	6.081202	1.030184	0.000122
1893	1.8825e+02	-2.3096	-51.636985	0.000709	7.094736	1.201881	0.000142
1894	1.8835e+02	-2.2910	-51.572390	0.000324	3.243308	0.549431	0.000065
1895	1.8845e+02	-2.2713	-51.447239	0.000628	6.283909	1.064523	0.000126
1896	1.8855e+02	-2.2507	-51.318051	0.000649	6.486616	1.098862	0.000130
1897	1.8865e+02	-2.2308	-51.221160	0.000486	4.864962	0.824147	0.000097
1898	1.8875e+02	-2.2110	-51.156566	0.000324	3.243308	0.549431	0.000065
1899	1.8885e+02	-2.1916	-50.987006	0.000851	8.513683	1.442257	0.000170
1900	1.8895e+02	-2.1712	-50.857817	0.000649	6.486616	1.098862	0.000130
1901	1.8905e+02	-2.1512	-50.744778	0.000568	5.675789	0.961505	0.000114
1902	1.8915e+02	-2.1318	-50.603478	0.000709	7.094736	1.201881	0.000142
1903	1.8925e+02	-2.1109	-50.494475	0.000547	5.473082	0.927165	0.000110
1904	1.8935e+02	-2.0911	-50.425844	0.000345	3.446015	0.583771	0.000069
1905	1.8945e+02	-2.0705	-50.268396	0.000791	7.905563	1.339239	0.000158
1906	1.8955e+02	-2.0517	-50.163430	0.000527	5.270375	0.892826	0.000105
1907	1.8965e+02	-2.0323	-50.058465	0.000527	5.270375	0.892826	0.000105
1908	1.8975e+02	-2.0078	-49.913128	0.000730	7.297443	1.236220	0.000146
1909	1.8985e+02	-1.9912	-49.848534	0.000324	3.243308	0.549431	0.000065
1910	1.8995e+02	-1.9720	-49.719345	0.000649	6.486616	1.098862	0.000130
1911	1.9004e+02	-1.9525	-49.582083	0.000689	6.892029	1.167541	0.000138
1912	1.9014e+02	-1.9309	-49.481154	0.000507	5.067669	0.858486	0.000101
1913	1.9024e+02	-1.9116	-49.400411	0.000405	4.054135	0.686789	0.000081
1914	1.9034e+02	-1.8918	-49.242963	0.000791	7.905563	1.339239	0.000158
1915	1.9044e+02	-1.8723	-49.133960	0.000547	5.473082	0.927165	0.000110
1916	1.9054e+02	-1.8530	-49.000735	0.000669	6.689323	1.133202	0.000134
1917	1.9064e+02	-1.8324	-48.871547	0.000649	6.486616	1.098862	0.000130
1918	1.9074e+02	-1.8124	-48.794841	0.000385	3.851428	0.652450	0.000077
1919	1.9084e+02	-1.7931	-48.633356	0.000811	8.108270	1.373578	0.000162
1920	1.9094e+02	-1.7728	-48.568761	0.000324	3.243308	0.549431	0.000065
1921	1.9104e+02	-1.7522	-48.391128	0.000892	8.919097	1.510936	0.000179
1922	1.9114e+02	-1.7326	-48.270013	0.000608	6.081202	1.030184	0.000122
1923	1.9124e+02	-1.7130	-48.173122	0.000486	4.864962	0.824147	0.000097
1924	1.9134e+02	-1.6927	-48.019711	0.000770	7.702856	1.304899	0.000154
1925	1.9144e+02	-1.6720	-47.951080	0.000345	3.446015	0.583771	0.000069
1926	1.9154e+02	-1.6534	-47.829966	0.000608	6.081202	1.030184	0.000122
1927	1.9164e+02	-1.6321	-47.729037	0.000507	5.067669	0.858486	0.000101
1928	1.9174e+02	-1.6125	-47.611960	0.000588	5.878496	0.995844	0.000118
1929	1.9184e+02	-1.5934	-47.458549	0.000770	7.702856	1.304899	0.000154
1930	1.9194e+02	-1.5733	-47.321287	0.000689	6.892029	1.167541	0.000138
1931	1.9203e+02	-1.5536	-47.208247	0.000568	5.675789	0.961505	0.000114
1932	1.9213e+02	-1.5338	-47.111355	0.000486	4.864962	0.824147	0.000097
1933	1.9223e+02	-1.5139	-46.974093	0.000689	6.892029	1.167541	0.000138
1934	1.9233e+02	-1.4944	-46.889313	0.000426	4.256842	0.721128	0.000085
1935	1.9243e+02	-1.4741	-46.768199	0.000608	6.081202	1.030184	0.000122
1936	1.9253e+02	-1.4536	-46.634973	0.000669	6.689323	1.133202	0.000134
1937	1.9263e+02	-1.4323	-46.509822	0.000628	6.283909	1.064523	0.000126
1938	1.9273e+02	-1.4132	-46.425042	0.000426	4.256842	0.721128	0.000085
1939	1.9283e+02	-1.3934	-46.255483	0.000851	8.513683	1.442257	0.000170
1940	1.9293e+02	-1.3741	-46.162629	0.000466	4.662255	0.789807	0.000093
1941	1.9303e+02	-1.3534	-46.053626	0.000547	5.473082	0.927165	0.000110
1942	1.9313e+02	-1.3344	-45.924438	0.000649	6.486616	1.098862	0.000130
1943	1.9323e+02	-1.3133	-45.811398	0.000568	5.675789	0.961505	0.000114
1944	1.9333e+02	-1.2936	-45.662024	0.000750	7.500150	1.270560	0.000150
1945	1.9343e+02	-1.2741	-45.524761	0.000689	6.892029	1.167541	0.000138
1946	1.9353e+02	-1.2553	-45.415758	0.000547	5.473082	0.927165	0.000110
1947	1.9363e+02	-1.2347	-45.347127	0.000345	3.446015	0.583771	0.000069
1948	1.9373e+02	-1.2151	-45.185642	0.000811	8.108270	1.373578	0.000162
1949	1.9383e+02	-1.1938	-45.020119	0.000831	8.310976	1.407918	0.000166
1950	1.9393e+02	-1.1746	-44.947451	0.000365	3.648721	0.618110	0.000073
1951	1.9403e+02	-1.1539	-44.794040	0.000770	7.702856	1.304899	0.000154
1952	1.9412e+02	-1.1357	-44.676963	0.000588	5.878496	0.995844	0.000118
1953	1.9422e+02	-1.1148	-44.563923	0.000568	5.675789	0.961505	0.000114
1954	1.9432e+02	-1.0950	-44.438772	0.000628	6.283909	1.064523	0.000126
1955	1.9442e+02	-1.0752	-44.317658	0.000608	6.081202	1.030184	0.000122
1956	1.9452e+02	-1.0552	-44.168284	0.000750	7.500150	1.270560	0.000150
1957	1.9462e+02	-1.0352	-44.091578	0.000385	3.851428	0.652450	0.000077
1958	1.9472e+02	-1.0155	-43.938167	0.000770	7.702856	1.304899	0.000154
1959	1.9482e+02	-0.9961	-43.784756	0.000770	7.702856	1.304899	0.000154
1960	1.9492e+02	-0.9756	-43.667679	0.000588	5.878496	0.995844	0.000118
1961	1.9502e+02	-0.9557	-43.574825	0.000466	4.662255	0.789807	0.000093
1962	1.9512e+02	-0.9365	-43.441599	0.000669	6.689323	1.133202	0.000134
1963	1.9522e+02	-0.9153	-43.344708	0.000486	4.864962	0.824147	0.000097
1964	1.9532e+02	-0.8959	-43.199371	0.000730	7.297443	1.236220	0.000146
1965	1.9542e+02	-0.8755	-43.086331	0.000568	5.675789	0.961505	0.000114
1966	1.9552e+02	-0.8582	-42.973291	0.000568	5.675789	0.961505	0.000114
1967	1.9562e+02	-0.8360	-42.852177	0.000608	6.081202	1.030184	0.000122
1968	1.9572e+02	-0.8165	-42.666469	0.000932	9.324510	1.579615	0.000187
1969	1.9582e+02	-0.7964	-42.609949	0.000284	2.837894	0.480752	0.000057
1970	1.9592e+02	-0.7767	-42.436352	0.000872	8.716390	1.476596	0.000174
1971	1.9601e+02	-0.7562	-42.355610	0.000405	4.054135	0.686789	0.000081
1972	1.9611e+02	-0.7356	-42.214310	0.000709	7.094736	1.201881	0.000142
1973	1.9621e+02	-0.7166	-42.125493	0.000446	4.459548	0.755468	0.000089
1974	1.9631e+02	-0.6958	-41.972082	0.000770	7.702856	1.304899	0.000154
1975	1.9641e+02	-0.6775	-41.850968	0.000608	6.081202	1.030184	0.000122
1976	1.9651e+02	-0.6570	-41.725816	0.000628	6.283909	1.064523	0.000126
1977	1.9661e+02	-0.6369	-41.596628	0.000649	6.486616	1.098862	0.000130
1978	1.9671e+02	-0.6171	-41.463403	0.000669	6.689323	1.133202	0.000134
1979	1.9681e+02	-0.5964	-41.342289	0.000608	6.081202	1.030184	0.000122
1980	1.9691e+02	-0.5779	-41.184840	0.000791	7.905563	1.339239	0.000158
1981	1.9701e+02	-0.5573	-41.120246	0.000324	3.243308	0.549431	0.000065
1982	1.9711e+02	-0.5370	-40.946649	0.000872	8.716390	1.476596	0.000174
1983	1.9721e+02	-0.5171	-40.890129	0.000284	2.837894	0.480752	0.000057
1984	1.9731e+02	-0.4978	-40.724607	0.000831	8.310976	1.407918	0.000166
1985	1.9741e+02	-0.4773	-40.635790	0.000446	4.459548	0.755468	0.000089
1986	1.9751e+02	-0.4594	-40.498527	0.000689	6.892029	1.167541	0.000138
1987	1.9761e+02	-0.4378	-40.381450	0.000588	5.878496	0.995844	0.000118
1988	1.9771e+02	-0.4171	-40.211891	0.000851	8.513683	1.442257	0.000170
1989	1.9781e+02	-0.3980	-40.082702	0.000649	6.486616	1.098862	0.000130
1990	1.9791e+02	-0.3777	-39.965625	0.000588	5.878496	0.995844	0.000118
1991	1.9800e+02	-0.3580	-39.832400	0.000669	6.689323	1.133202	0.000134
1992	1.9810e+02	-0.3383	-39.715323	0.000588	5.878496	0.995844	0.000118
1993	1.9820e+02	-0.3180	-39.561912	0.000770	7.702856	1.304899	0.000154
1994	1.9830e+02	-0.2977	-39.497317	0.000324	3.243308	0.549431	0.000065
1995	1.9840e+02	-0.2785	-39.351981	0.000730	7.297443	1.236220	0.000146
1996	1.9850e+02	-0.2579	-39.182421	0.000851	8.513683	1.442257	0.000170
1997	1.9860e+02	-0.2390	-39.077455	0.000527	5.270375	0.892826	0.000105
1998	1.9870e+02	-0.2185	-39.004787	0.000365	3.648721	0.618110	0.000073
1999	1.9880e+02	-0.1997	-38.819079	0.000932	9.324510	1.579615	0.000187
2000	1.9890e+02	-0.1788	-38.685853	0.000669	6.689323	1.133202	0.000134
2001	1.9900e+02	-0.1591	-38.588962	0.000486	4.864962	0.824147	0.000097
2002	1.9910e+02	-0.1386	-38.479959	0.000547	5.473082	0.927165	0.000110
2003	1.9920e+02	-0.1183	-38.374994	0.000527	5.270375	0.892826	0.000105
2004	1.9930e+02	-0.0991	-38.233694	0.000709	7.094736	1.201881	0.000142
2005	1.9940e+02	-0.0799	-38.104506	0.000649	6.486616	1.098862	0.000130
2006	1.9950e+02	-0.0587	-37.971280	0.000669	6.689323	1.133202	0.000134
2007	1.9960e+02	-0.0391	-37.821906	0.000750	7.500150	1.270560	0.000150
2008	1.9970e+02	-0.0195	-37.733089	0.000446	4.459548	0.755468	0.000089
2009	1.9980e+02	-0.0013	-37.603901	0.000446	4.459548	0.755468	0.000130

PMax (uC/cm2):	5.32e+01
Pr (uC/cm2):	4.54e+00
-Pr (uC/cm2):	-6.17e+01
PLoss (uC/cm2):	-6.17e+01
-Vc:	-6.89e-01
C (Max-Eff) (nF):	5.32e-01
K (Eff):	9.02e+02
Vert. (+/-Pr) Shift (uC/cm2):	-2.86e+01
Offset (uC/cm2):	-2.41e+01

A (Loop Area - uC/cm2·Volts):	-3.90e-01



Hysteresis Version: 5.48.1 - Radiant Technologies, Inc., 1999 - 9/12/24

