»»»»»»»»»»»»»»»»»»»»»»»»»»»»»»»»»»»» Hysteresis ««««««««««««««««««««««««««««««««««««
»»»  Executed Version:	5.48.1
»»»  Vision Version:	5.48.4 (R)
»»»  Vision Compiled:	9/18/24
»»»  Driver Version:	5.47.0
»»»  Windows Version:	Windows 8 or 8.1
»»»  Processor Information:	x86 (AMD or Intel) - 32 Processors
»»»  Tester Name:	PMF21124-494 (100V)
»»»  Tester S/N:	PMF21124-494
»»»  Internal Amp Type:	100V RevK 270k
»»»  Internal Amp S/N:	iAB2-596/K     
»»»  Execution Count:	1
»»»»»»»»»»»»»»»»»»»»»»»»»»»»»»»»»»»»»»»»»»««««««««««««««««««««««««««««««««««««««««««

Stored:	7/1/2025 - 15:21:54
Configured:	07/01/25 10:49:51 AM
Executed:	07/01/25 03:21:19 PM

»»»»»»»»»»»»»»»»»»»»»»»»»»»»»»»»»»» Sample Info ««««««««««««««««««««««««««««««««««««
Sample Name:	
Lot Name:	
Wafer Name:	
Die Row/Column:	0/0
Capacitor Number:	0
Sample Area (cm2):	1.00e-04
Sample Thickness (microns):	1.50e-01

Amplifier:	Internal

»»»»»»»»»»»»»»»»»»»»»»»»»»»»»»»»»»» Tester Info «««««««««««««««««««««««««««««««««««
Tester Name:	PMF21124-494 (100V)
Tester Serial Number:	PMF21124-494
Return Signal Amp. Level:	0.19 [Index: 3]

»»»»»»»»»»»»»»»»»»»»»»»»»»»»»»»» Hysteresis Info ««««««««««««««««««««««««««««««««««
Task Name:	Hyst-22
Volts:	10.00
Field:	666.67 (kV/cm)
DCBias:	0.00
DCField:	0.00 (kV/cm)
Hysteresis Period (ms):	2.00e+02
Preset:	Enabled
Preset Delay (ms):	1.00e+03
Profile:	Standard Bipolar

»»»»»»»»»»»»»»»»»»»»»»»»»»»»»»»»»»»»»» Data «««««««««««««««««««««««««««««««««««««««
Points:	2009

Valid Data

Point	Time (ms)	Drive Voltage	Measured Polarization (uC/cm2)	Capacitance (uF)	Normalized Capacitance (uF/cm2)	Dielectric Constant	Instantaneous Current (mA)
   1	0.0000e+00	0.0000	9.598290	0.000953	9.526490	1.613831	0.000191
   2	9.9500e-02	0.0198	9.788036	0.000953	9.526490	1.613831	0.000191
   3	1.9900e-01	0.0390	9.921261	0.000669	6.688812	1.133115	0.000134
   4	2.9850e-01	0.0593	10.115044	0.000973	9.729181	1.648168	0.000195
   5	3.9800e-01	0.0787	10.296715	0.000912	9.121107	1.545157	0.000183
   6	4.9750e-01	0.0987	10.450126	0.000770	7.702268	1.304800	0.000154
   7	5.9700e-01	0.1185	10.643908	0.000973	9.729181	1.648168	0.000195
   8	6.9650e-01	0.1381	10.869988	0.001135	11.350711	1.922863	0.000227
   9	7.9600e-01	0.1592	11.007251	0.000689	6.891503	1.167452	0.000138
  10	8.9550e-01	0.1780	11.184885	0.000892	8.918416	1.510821	0.000179
  11	9.9500e-01	0.1984	11.410964	0.001135	11.350711	1.922863	0.000227
  12	1.0945e+00	0.2180	11.544190	0.000669	6.688812	1.133115	0.000134
  13	1.1940e+00	0.2380	11.729898	0.000932	9.323799	1.579494	0.000187
  14	1.2935e+00	0.2586	11.903495	0.000872	8.715725	1.476484	0.000174
  15	1.3930e+00	0.2777	12.109389	0.001034	10.337255	1.751178	0.000207
  16	1.4925e+00	0.2972	12.270874	0.000811	8.107651	1.373473	0.000162
  17	1.5920e+00	0.3186	12.480805	0.001054	10.539946	1.785515	0.000211
  18	1.6915e+00	0.3378	12.658439	0.000892	8.918416	1.510821	0.000179
  19	1.7910e+00	0.3574	12.811850	0.000770	7.702268	1.304800	0.000154
  20	1.8905e+00	0.3771	13.025818	0.001074	10.742638	1.819852	0.000215
  21	1.9900e+00	0.3972	13.207490	0.000912	9.121107	1.545157	0.000183
  22	2.0895e+00	0.4169	13.401272	0.000973	9.729181	1.648168	0.000195
  23	2.1890e+00	0.4374	13.578906	0.000892	8.918416	1.510821	0.000179
  24	2.2885e+00	0.4574	13.772689	0.000973	9.729181	1.648168	0.000195
  25	2.3880e+00	0.4778	13.942248	0.000851	8.513034	1.442147	0.000170
  26	2.4875e+00	0.4980	14.188514	0.001236	12.364168	2.094547	0.000248
  27	2.5870e+00	0.5168	14.358073	0.000851	8.513034	1.442147	0.000170
  28	2.6865e+00	0.5377	14.519559	0.000811	8.107651	1.373473	0.000162
  29	2.7860e+00	0.5576	14.693156	0.000872	8.715725	1.476484	0.000174
  30	2.8855e+00	0.5775	14.915198	0.001115	11.148020	1.888526	0.000223
  31	2.9850e+00	0.5965	15.100906	0.000932	9.323799	1.579494	0.000187
  32	3.0845e+00	0.6168	15.254317	0.000770	7.702268	1.304800	0.000154
  33	3.1840e+00	0.6373	15.496546	0.001216	12.161477	2.060210	0.000243
  34	3.2835e+00	0.6555	15.670142	0.000872	8.715725	1.476484	0.000174
  35	3.3830e+00	0.6767	15.855851	0.000932	9.323799	1.579494	0.000187
  36	3.4825e+00	0.6958	16.073856	0.001095	10.945329	1.854189	0.000219
  37	3.5820e+00	0.7162	16.211119	0.000689	6.891503	1.167452	0.000138
  38	3.6815e+00	0.7363	16.453347	0.001216	12.161477	2.060210	0.000243
  39	3.7810e+00	0.7559	16.614832	0.000811	8.107651	1.373473	0.000162
  40	3.8805e+00	0.7763	16.792466	0.000892	8.918416	1.510821	0.000179
  41	3.9800e+00	0.7976	16.974137	0.000912	9.121107	1.545157	0.000183
  42	4.0795e+00	0.8160	17.167920	0.000973	9.729181	1.648168	0.000195
  43	4.1790e+00	0.8367	17.353628	0.000932	9.323799	1.579494	0.000187
  44	4.2785e+00	0.8554	17.583745	0.001155	11.553403	1.957199	0.000231
  45	4.3780e+00	0.8762	17.741193	0.000790	7.904960	1.339136	0.000158
  46	4.4775e+00	0.8949	17.943050	0.001013	10.134564	1.716842	0.000203
  47	4.5770e+00	0.9159	18.148944	0.001034	10.337255	1.751178	0.000207
  48	4.6765e+00	0.9355	18.354838	0.001034	10.337255	1.751178	0.000207
  49	4.7760e+00	0.9554	18.520360	0.000831	8.310342	1.407810	0.000166
  50	4.8755e+00	0.9762	18.714143	0.000973	9.729181	1.648168	0.000195
  51	4.9750e+00	0.9951	18.879665	0.000831	8.310342	1.407810	0.000166
  52	5.0745e+00	1.0159	19.150153	0.001358	13.580316	2.300568	0.000272
  53	5.1740e+00	1.0352	19.303565	0.000770	7.702268	1.304800	0.000154
  54	5.2735e+00	1.0550	19.513496	0.001054	10.539946	1.785515	0.000211
  55	5.3730e+00	1.0754	19.703241	0.000953	9.526490	1.613831	0.000191
  56	5.4725e+00	1.0952	19.888949	0.000932	9.323799	1.579494	0.000187
  57	5.5720e+00	1.1153	20.098880	0.001054	10.539946	1.785515	0.000211
  58	5.6715e+00	1.1351	20.316886	0.001095	10.945329	1.854189	0.000219
  59	5.7710e+00	1.1555	20.462222	0.000730	7.296886	1.236126	0.000146
  60	5.8705e+00	1.1750	20.660042	0.000993	9.931873	1.682505	0.000199
  61	5.9700e+00	1.1950	20.861899	0.001013	10.134564	1.716842	0.000203
  62	6.0695e+00	1.2139	21.055681	0.000973	9.729181	1.648168	0.000195
  63	6.1690e+00	1.2339	21.269650	0.001074	10.742638	1.819852	0.000215
  64	6.2685e+00	1.2540	21.475544	0.001034	10.337255	1.751178	0.000207
  65	6.3680e+00	1.2743	21.681437	0.001034	10.337255	1.751178	0.000207
  66	6.4675e+00	1.2947	21.842923	0.000811	8.107651	1.373473	0.000162
  67	6.5670e+00	1.3139	22.077077	0.001176	11.756094	1.991536	0.000235
  68	6.6665e+00	1.3338	22.299119	0.001115	11.148020	1.888526	0.000223
  69	6.7660e+00	1.3535	22.444456	0.000730	7.296886	1.236126	0.000146
  70	6.8655e+00	1.3731	22.666499	0.001115	11.148020	1.888526	0.000223
  71	6.9650e+00	1.3931	22.892578	0.001135	11.350711	1.922863	0.000227
  72	7.0645e+00	1.4135	23.078286	0.000932	9.323799	1.579494	0.000187
  73	7.1640e+00	1.4339	23.284180	0.001034	10.337255	1.751178	0.000207
  74	7.2635e+00	1.4530	23.502186	0.001095	10.945329	1.854189	0.000219
  75	7.3630e+00	1.4729	23.700005	0.000993	9.931873	1.682505	0.000199
  76	7.4625e+00	1.4922	23.889751	0.000953	9.526490	1.613831	0.000191
  77	7.5620e+00	1.5128	24.107756	0.001095	10.945329	1.854189	0.000219
  78	7.6615e+00	1.5321	24.313650	0.001034	10.337255	1.751178	0.000207
  79	7.7610e+00	1.5527	24.503395	0.000953	9.526490	1.613831	0.000191
  80	7.8605e+00	1.5736	24.717364	0.001074	10.742638	1.819852	0.000215
  81	7.9600e+00	1.5928	24.927295	0.001054	10.539946	1.785515	0.000211
  82	8.0595e+00	1.6123	25.121077	0.000973	9.729181	1.648168	0.000195
  83	8.1590e+00	1.6326	25.335045	0.001074	10.742638	1.819852	0.000215
  84	8.2585e+00	1.6528	25.540939	0.001034	10.337255	1.751178	0.000207
  85	8.3580e+00	1.6724	25.734722	0.000973	9.729181	1.648168	0.000195
  86	8.4575e+00	1.6924	25.944653	0.001054	10.539946	1.785515	0.000211
  87	8.5570e+00	1.7122	26.142472	0.000993	9.931873	1.682505	0.000199
  88	8.6565e+00	1.7319	26.336255	0.000973	9.729181	1.648168	0.000195
  89	8.7560e+00	1.7524	26.550223	0.001074	10.742638	1.819852	0.000215
  90	8.8555e+00	1.7718	26.772266	0.001115	11.148020	1.888526	0.000223
  91	8.9550e+00	1.7924	26.982197	0.001054	10.539946	1.785515	0.000211
  92	9.0545e+00	1.8127	27.188091	0.001034	10.337255	1.751178	0.000207
  93	9.1540e+00	1.8325	27.361687	0.000872	8.715725	1.476484	0.000174
  94	9.2535e+00	1.8517	27.575656	0.001074	10.742638	1.819852	0.000215
  95	9.3530e+00	1.8711	27.789624	0.001074	10.742638	1.819852	0.000215
  96	9.4525e+00	1.8916	28.039926	0.001257	12.566859	2.128884	0.000252
  97	9.5520e+00	1.9120	28.181226	0.000709	7.094195	1.201789	0.000142
  98	9.6515e+00	1.9313	28.407306	0.001135	11.350711	1.922863	0.000227
  99	9.7510e+00	1.9514	28.613200	0.001034	10.337255	1.751178	0.000207
 100	9.8505e+00	1.9716	28.786796	0.000872	8.715725	1.476484	0.000174
 101	9.9500e+00	1.9910	28.984616	0.000993	9.931873	1.682505	0.000199
 102	1.0050e+01	2.0103	29.218770	0.001176	11.756094	1.991536	0.000235
 103	1.0149e+01	2.0309	29.408515	0.000953	9.526490	1.613831	0.000191
 104	1.0248e+01	2.0495	29.598261	0.000953	9.526490	1.613831	0.000191
 105	1.0348e+01	2.0704	29.824340	0.001135	11.350711	1.922863	0.000227
 106	1.0447e+01	2.0910	30.014086	0.000953	9.526490	1.613831	0.000191
 107	1.0547e+01	2.1112	30.240165	0.001135	11.350711	1.922863	0.000227
 108	1.0646e+01	2.1312	30.429911	0.000953	9.526490	1.613831	0.000191
 109	1.0746e+01	2.1509	30.615619	0.000932	9.323799	1.579494	0.000187
 110	1.0845e+01	2.1715	30.849773	0.001176	11.756094	1.991536	0.000235
 111	1.0945e+01	2.1917	31.035481	0.000932	9.323799	1.579494	0.000187
 112	1.1044e+01	2.2108	31.221189	0.000932	9.323799	1.579494	0.000187
 113	1.1144e+01	2.2305	31.459380	0.001196	11.958785	2.025873	0.000239
 114	1.1243e+01	2.2504	31.637014	0.000892	8.918416	1.510821	0.000179
 115	1.1343e+01	2.2699	31.846945	0.001054	10.539946	1.785515	0.000211
 116	1.1443e+01	2.2898	32.052839	0.001034	10.337255	1.751178	0.000207
 117	1.1542e+01	2.3101	32.258733	0.001034	10.337255	1.751178	0.000207
 118	1.1642e+01	2.3291	32.444441	0.000932	9.323799	1.579494	0.000187
 119	1.1741e+01	2.3496	32.638224	0.000973	9.729181	1.648168	0.000195
 120	1.1841e+01	2.3699	32.896601	0.001297	12.972242	2.197557	0.000260
 121	1.1940e+01	2.3895	33.041937	0.000730	7.296886	1.236126	0.000146
 122	1.2040e+01	2.4109	33.280128	0.001196	11.958785	2.025873	0.000239
 123	1.2139e+01	2.4286	33.473911	0.000973	9.729181	1.648168	0.000195
 124	1.2239e+01	2.4497	33.691916	0.001095	10.945329	1.854189	0.000219
 125	1.2338e+01	2.4697	33.889736	0.000993	9.931873	1.682505	0.000199
 126	1.2438e+01	2.4905	34.123890	0.001176	11.756094	1.991536	0.000235
 127	1.2537e+01	2.5088	34.321709	0.000993	9.931873	1.682505	0.000199
 128	1.2636e+01	2.5297	34.531641	0.001054	10.539946	1.785515	0.000211
 129	1.2736e+01	2.5488	34.697163	0.000831	8.310342	1.407810	0.000166
 130	1.2835e+01	2.5690	34.915168	0.001095	10.945329	1.854189	0.000219
 131	1.2935e+01	2.5885	35.117025	0.001013	10.134564	1.716842	0.000203
 132	1.3034e+01	2.6080	35.314845	0.000993	9.931873	1.682505	0.000199
 133	1.3134e+01	2.6292	35.524776	0.001054	10.539946	1.785515	0.000211
 134	1.3233e+01	2.6495	35.722596	0.000993	9.931873	1.682505	0.000199
 135	1.3333e+01	2.6678	35.964824	0.001216	12.161477	2.060210	0.000243
 136	1.3432e+01	2.6880	36.130346	0.000831	8.310342	1.407810	0.000166
 137	1.3532e+01	2.7088	36.360463	0.001155	11.553403	1.957199	0.000231
 138	1.3632e+01	2.7287	36.542134	0.000912	9.121107	1.545157	0.000183
 139	1.3731e+01	2.7484	36.772251	0.001155	11.553403	1.957199	0.000231
 140	1.3831e+01	2.7688	36.961996	0.000953	9.526490	1.613831	0.000191
 141	1.3930e+01	2.7883	37.151742	0.000953	9.526490	1.613831	0.000191
 142	1.4030e+01	2.8075	37.385896	0.001176	11.756094	1.991536	0.000235
 143	1.4129e+01	2.8273	37.575641	0.000953	9.526490	1.613831	0.000191
 144	1.4229e+01	2.8471	37.801720	0.001135	11.350711	1.922863	0.000227
 145	1.4328e+01	2.8683	37.979354	0.000892	8.918416	1.510821	0.000179
 146	1.4428e+01	2.8884	38.185248	0.001034	10.337255	1.751178	0.000207
 147	1.4527e+01	2.9072	38.395179	0.001054	10.539946	1.785515	0.000211
 148	1.4627e+01	2.9269	38.597036	0.001013	10.134564	1.716842	0.000203
 149	1.4726e+01	2.9482	38.770633	0.000872	8.715725	1.476484	0.000174
 150	1.4825e+01	2.9675	39.008824	0.001196	11.958785	2.025873	0.000239
 151	1.4925e+01	2.9880	39.178384	0.000851	8.513034	1.442147	0.000170
 152	1.5024e+01	3.0077	39.372166	0.000973	9.729181	1.648168	0.000195
 153	1.5124e+01	3.0270	39.590172	0.001095	10.945329	1.854189	0.000219
 154	1.5223e+01	3.0472	39.812214	0.001115	11.148020	1.888526	0.000223
 155	1.5323e+01	3.0674	40.018108	0.001034	10.337255	1.751178	0.000207
 156	1.5422e+01	3.0875	40.207853	0.000953	9.526490	1.613831	0.000191
 157	1.5522e+01	3.1073	40.369339	0.000811	8.107651	1.373473	0.000162
 158	1.5621e+01	3.1264	40.587344	0.001095	10.945329	1.854189	0.000219
 159	1.5721e+01	3.1468	40.773052	0.000932	9.323799	1.579494	0.000187
 160	1.5820e+01	3.1660	40.974909	0.001013	10.134564	1.716842	0.000203
 161	1.5920e+01	3.1865	41.192915	0.001095	10.945329	1.854189	0.000219
 162	1.6020e+01	3.2069	41.378623	0.000932	9.323799	1.579494	0.000187
 163	1.6119e+01	3.2259	41.560294	0.000912	9.121107	1.545157	0.000183
 164	1.6218e+01	3.2471	41.774262	0.001074	10.742638	1.819852	0.000215
 165	1.6318e+01	3.2651	41.976119	0.001013	10.134564	1.716842	0.000203
 166	1.6418e+01	3.2872	42.149716	0.000872	8.715725	1.476484	0.000174
 167	1.6517e+01	3.3059	42.395981	0.001236	12.364168	2.094547	0.000248
 168	1.6616e+01	3.3273	42.589763	0.000973	9.729181	1.648168	0.000195
 169	1.6716e+01	3.3457	42.714915	0.000628	6.283430	1.064442	0.000126
 170	1.6816e+01	3.3671	42.989440	0.001378	13.783007	2.334905	0.000276
 171	1.6915e+01	3.3857	43.150925	0.000811	8.107651	1.373473	0.000162
 172	1.7015e+01	3.4051	43.344708	0.000973	9.729181	1.648168	0.000195
 173	1.7114e+01	3.4252	43.526379	0.000912	9.121107	1.545157	0.000183
 174	1.7213e+01	3.4454	43.744384	0.001095	10.945329	1.854189	0.000219
 175	1.7313e+01	3.4655	43.938167	0.000973	9.729181	1.648168	0.000195
 176	1.7413e+01	3.4852	44.127912	0.000953	9.526490	1.613831	0.000191
 177	1.7512e+01	3.5049	44.329769	0.001013	10.134564	1.716842	0.000203
 178	1.7611e+01	3.5257	44.487217	0.000790	7.904960	1.339136	0.000158
 179	1.7711e+01	3.5452	44.721371	0.001176	11.756094	1.991536	0.000235
 180	1.7811e+01	3.5653	44.882857	0.000811	8.107651	1.373473	0.000162
 181	1.7910e+01	3.5844	45.076639	0.000973	9.729181	1.648168	0.000195
 182	1.8009e+01	3.6050	45.286570	0.001054	10.539946	1.785515	0.000211
 183	1.8109e+01	3.6252	45.460167	0.000872	8.715725	1.476484	0.000174
 184	1.8209e+01	3.6443	45.674135	0.001074	10.742638	1.819852	0.000215
 185	1.8308e+01	3.6646	45.843695	0.000851	8.513034	1.442147	0.000170
 186	1.8407e+01	3.6848	46.077849	0.001176	11.756094	1.991536	0.000235
 187	1.8507e+01	3.7041	46.247408	0.000851	8.513034	1.442147	0.000170
 188	1.8607e+01	3.7244	46.437154	0.000953	9.526490	1.613831	0.000191
 189	1.8706e+01	3.7442	46.639011	0.001013	10.134564	1.716842	0.000203
 190	1.8805e+01	3.7649	46.840867	0.001013	10.134564	1.716842	0.000203
 191	1.8905e+01	3.7839	47.042724	0.001013	10.134564	1.716842	0.000203
 192	1.9005e+01	3.8038	47.216321	0.000872	8.715725	1.476484	0.000174
 193	1.9104e+01	3.8244	47.426252	0.001054	10.539946	1.785515	0.000211
 194	1.9203e+01	3.8435	47.599849	0.000872	8.715725	1.476484	0.000174
 195	1.9303e+01	3.8638	47.801706	0.001013	10.134564	1.716842	0.000203
 196	1.9402e+01	3.8832	47.991451	0.000953	9.526490	1.613831	0.000191
 197	1.9502e+01	3.9039	48.144862	0.000770	7.702268	1.304800	0.000154
 198	1.9602e+01	3.9225	48.358830	0.001074	10.742638	1.819852	0.000215
 199	1.9701e+01	3.9430	48.536464	0.000892	8.918416	1.510821	0.000179
 200	1.9800e+01	3.9626	48.762544	0.001135	11.350711	1.922863	0.000227
 201	1.9900e+01	3.9835	48.928067	0.000831	8.310342	1.407810	0.000166
 202	2.0000e+01	4.0040	49.089552	0.000811	8.107651	1.373473	0.000162
 203	2.0099e+01	4.0236	49.319669	0.001155	11.553403	1.957199	0.000231
 204	2.0198e+01	4.0430	49.473080	0.000770	7.702268	1.304800	0.000154
 205	2.0298e+01	4.0627	49.678974	0.001034	10.337255	1.751178	0.000207
 206	2.0398e+01	4.0823	49.860645	0.000912	9.121107	1.545157	0.000183
 207	2.0497e+01	4.1024	50.030205	0.000851	8.513034	1.442147	0.000170
 208	2.0596e+01	4.1220	50.215913	0.000932	9.323799	1.579494	0.000187
 209	2.0696e+01	4.1424	50.413733	0.000993	9.931873	1.682505	0.000199
 210	2.0796e+01	4.1621	50.599441	0.000932	9.323799	1.579494	0.000187
 211	2.0895e+01	4.1823	50.797260	0.000993	9.931873	1.682505	0.000199
 212	2.0994e+01	4.2020	50.974894	0.000892	8.918416	1.510821	0.000179
 213	2.1094e+01	4.2224	51.164640	0.000953	9.526490	1.613831	0.000191
 214	2.1194e+01	4.2419	51.330162	0.000831	8.310342	1.407810	0.000166
 215	2.1293e+01	4.2625	51.499722	0.000851	8.513034	1.442147	0.000170
 216	2.1392e+01	4.2826	51.693505	0.000973	9.729181	1.648168	0.000195
 217	2.1492e+01	4.3029	51.854990	0.000811	8.107651	1.373473	0.000162
 218	2.1591e+01	4.3214	52.040698	0.000932	9.323799	1.579494	0.000187
 219	2.1691e+01	4.3419	52.234481	0.000973	9.729181	1.648168	0.000195
 220	2.1791e+01	4.3607	52.408078	0.000872	8.715725	1.476484	0.000174
 221	2.1890e+01	4.3829	52.597823	0.000953	9.526490	1.613831	0.000191
 222	2.1989e+01	4.4013	52.783531	0.000932	9.323799	1.579494	0.000187
 223	2.2089e+01	4.4217	52.936942	0.000770	7.702268	1.304800	0.000154
 224	2.2189e+01	4.4416	53.134762	0.000993	9.931873	1.682505	0.000199
 225	2.2288e+01	4.4634	53.300285	0.000831	8.310342	1.407810	0.000166
 226	2.2387e+01	4.4817	53.469844	0.000851	8.513034	1.442147	0.000170
 227	2.2487e+01	4.5011	53.639404	0.000851	8.513034	1.442147	0.000170
 228	2.2587e+01	4.5204	53.833186	0.000973	9.729181	1.648168	0.000195
 229	2.2686e+01	4.5403	54.031006	0.000993	9.931873	1.682505	0.000199
 230	2.2785e+01	4.5612	54.184417	0.000770	7.702268	1.304800	0.000154
 231	2.2885e+01	4.5813	54.390311	0.001034	10.337255	1.751178	0.000207
 232	2.2985e+01	4.6003	54.567945	0.000892	8.918416	1.510821	0.000179
 233	2.3084e+01	4.6212	54.745579	0.000892	8.918416	1.510821	0.000179
 234	2.3183e+01	4.6405	54.919176	0.000872	8.715725	1.476484	0.000174
 235	2.3283e+01	4.6606	55.088736	0.000851	8.513034	1.442147	0.000170
 236	2.3383e+01	4.6808	55.262333	0.000872	8.715725	1.476484	0.000174
 237	2.3482e+01	4.7009	55.448041	0.000932	9.323799	1.579494	0.000187
 238	2.3581e+01	4.7213	55.613563	0.000831	8.310342	1.407810	0.000166
 239	2.3681e+01	4.7407	55.827532	0.001074	10.742638	1.819852	0.000215
 240	2.3780e+01	4.7606	55.968831	0.000709	7.094195	1.201789	0.000142
 241	2.3880e+01	4.7807	56.138391	0.000851	8.513034	1.442147	0.000170
 242	2.3980e+01	4.7994	56.303914	0.000831	8.310342	1.407810	0.000166
 243	2.4079e+01	4.8203	56.493659	0.000953	9.526490	1.613831	0.000191
 244	2.4178e+01	4.8397	56.703590	0.001054	10.539946	1.785515	0.000211
 245	2.4278e+01	4.8602	56.857001	0.000770	7.702268	1.304800	0.000154
 246	2.4378e+01	4.8793	57.046747	0.000953	9.526490	1.613831	0.000191
 247	2.4477e+01	4.9002	57.208232	0.000811	8.107651	1.373473	0.000162
 248	2.4576e+01	4.9193	57.381829	0.000872	8.715725	1.476484	0.000174
 249	2.4676e+01	4.9397	57.599834	0.001095	10.945329	1.854189	0.000219
 250	2.4776e+01	4.9592	57.720948	0.000608	6.080738	1.030105	0.000122
 251	2.4875e+01	4.9807	57.882434	0.000811	8.107651	1.373473	0.000162
 252	2.4974e+01	4.9991	58.056030	0.000872	8.715725	1.476484	0.000174
 253	2.5074e+01	5.0195	58.269999	0.001074	10.742638	1.819852	0.000215
 254	2.5174e+01	5.0391	58.439558	0.000851	8.513034	1.442147	0.000170
 255	2.5273e+01	5.0591	58.617192	0.000892	8.918416	1.510821	0.000179
 256	2.5372e+01	5.0789	58.778678	0.000811	8.107651	1.373473	0.000162
 257	2.5472e+01	5.0992	58.952275	0.000872	8.715725	1.476484	0.000174
 258	2.5572e+01	5.1188	59.166243	0.001074	10.742638	1.819852	0.000215
 259	2.5671e+01	5.1389	59.319654	0.000770	7.702268	1.304800	0.000154
 260	2.5770e+01	5.1585	59.460954	0.000709	7.094195	1.201789	0.000142
 261	2.5870e+01	5.1781	59.638588	0.000892	8.918416	1.510821	0.000179
 262	2.5970e+01	5.1984	59.832370	0.000973	9.729181	1.648168	0.000195
 263	2.6069e+01	5.2178	59.973670	0.000709	7.094195	1.201789	0.000142
 264	2.6169e+01	5.2387	60.139193	0.000831	8.310342	1.407810	0.000166
 265	2.6268e+01	5.2583	60.349124	0.001054	10.539946	1.785515	0.000211
 266	2.6367e+01	5.2779	60.482349	0.000669	6.688812	1.133115	0.000134
 267	2.6467e+01	5.2975	60.651909	0.000851	8.513034	1.442147	0.000170
 268	2.6567e+01	5.3172	60.857803	0.001034	10.337255	1.751178	0.000207
 269	2.6666e+01	5.3367	60.978917	0.000608	6.080738	1.030105	0.000122
 270	2.6765e+01	5.3578	61.152514	0.000872	8.715725	1.476484	0.000174
 271	2.6865e+01	5.3778	61.346296	0.000973	9.729181	1.648168	0.000195
 272	2.6965e+01	5.3974	61.527967	0.000912	9.121107	1.545157	0.000183
 273	2.7064e+01	5.4174	61.665230	0.000689	6.891503	1.167452	0.000138
 274	2.7163e+01	5.4375	61.854975	0.000953	9.526490	1.613831	0.000191
 275	2.7263e+01	5.4575	62.028572	0.000872	8.715725	1.476484	0.000174
 276	2.7363e+01	5.4769	62.177946	0.000750	7.499577	1.270463	0.000150
 277	2.7462e+01	5.4970	62.347506	0.000851	8.513034	1.442147	0.000170
 278	2.7561e+01	5.5166	62.537251	0.000953	9.526490	1.613831	0.000191
 279	2.7661e+01	5.5372	62.698737	0.000811	8.107651	1.373473	0.000162
 280	2.7761e+01	5.5570	62.840036	0.000709	7.094195	1.201789	0.000142
 281	2.7860e+01	5.5791	62.997485	0.000790	7.904960	1.339136	0.000158
 282	2.7959e+01	5.5959	63.183193	0.000932	9.323799	1.579494	0.000187
 283	2.8059e+01	5.6179	63.348715	0.000831	8.310342	1.407810	0.000166
 284	2.8159e+01	5.6370	63.502127	0.000770	7.702268	1.304800	0.000154
 285	2.8258e+01	5.6551	63.708021	0.001034	10.337255	1.751178	0.000207
 286	2.8358e+01	5.6763	63.861432	0.000770	7.702268	1.304800	0.000154
 287	2.8457e+01	5.6962	64.010806	0.000750	7.499577	1.270463	0.000150
 288	2.8556e+01	5.7157	64.176328	0.000831	8.310342	1.407810	0.000166
 289	2.8656e+01	5.7375	64.317628	0.000709	7.094195	1.201789	0.000142
 290	2.8756e+01	5.7568	64.511411	0.000973	9.729181	1.648168	0.000195
 291	2.8855e+01	5.7761	64.693082	0.000912	9.121107	1.545157	0.000183
 292	2.8954e+01	5.7963	64.842456	0.000750	7.499577	1.270463	0.000150
 293	2.9054e+01	5.8157	65.003941	0.000811	8.107651	1.373473	0.000162
 294	2.9154e+01	5.8352	65.165427	0.000811	8.107651	1.373473	0.000162
 295	2.9253e+01	5.8566	65.371320	0.001034	10.337255	1.751178	0.000207
 296	2.9352e+01	5.8761	65.500509	0.000649	6.486121	1.098779	0.000130
 297	2.9452e+01	5.8959	65.714477	0.001074	10.742638	1.819852	0.000215
 298	2.9552e+01	5.9167	65.839628	0.000628	6.283430	1.064442	0.000126
 299	2.9651e+01	5.9362	66.037448	0.000993	9.931873	1.682505	0.000199
 300	2.9750e+01	5.9557	66.174710	0.000689	6.891503	1.167452	0.000138
 301	2.9850e+01	5.9747	66.380604	0.001034	10.337255	1.751178	0.000207
 302	2.9950e+01	5.9953	66.517867	0.000689	6.891503	1.167452	0.000138
 303	3.0049e+01	6.0159	66.659167	0.000709	7.094195	1.201789	0.000142
 304	3.0148e+01	6.0352	66.844875	0.000932	9.323799	1.579494	0.000187
 305	3.0248e+01	6.0554	67.030583	0.000932	9.323799	1.579494	0.000187
 306	3.0348e+01	6.0749	67.159772	0.000649	6.486121	1.098779	0.000130
 307	3.0447e+01	6.0944	67.341443	0.000912	9.121107	1.545157	0.000183
 308	3.0547e+01	6.1147	67.511002	0.000851	8.513034	1.442147	0.000170
 309	3.0646e+01	6.1346	67.636154	0.000628	6.283430	1.064442	0.000126
 310	3.0745e+01	6.1544	67.838010	0.001013	10.134564	1.716842	0.000203
 311	3.0845e+01	6.1743	68.011607	0.000872	8.715725	1.476484	0.000174
 312	3.0945e+01	6.1942	68.193278	0.000912	9.121107	1.545157	0.000183
 313	3.1044e+01	6.2146	68.342652	0.000750	7.499577	1.270463	0.000150
 314	3.1143e+01	6.2349	68.508175	0.000831	8.310342	1.407810	0.000166
 315	3.1243e+01	6.2540	68.657549	0.000750	7.499577	1.270463	0.000150
 316	3.1343e+01	6.2733	68.819034	0.000811	8.107651	1.373473	0.000162
 317	3.1442e+01	6.2939	68.988594	0.000851	8.513034	1.442147	0.000170
 318	3.1541e+01	6.3137	69.125857	0.000689	6.891503	1.167452	0.000138
 319	3.1641e+01	6.3332	69.303491	0.000892	8.918416	1.510821	0.000179
 320	3.1741e+01	6.3531	69.440753	0.000689	6.891503	1.167452	0.000138
 321	3.1840e+01	6.3734	69.618387	0.000892	8.918416	1.510821	0.000179
 322	3.1939e+01	6.3941	69.771798	0.000770	7.702268	1.304800	0.000154
 323	3.2039e+01	6.4130	69.969618	0.000993	9.931873	1.682505	0.000199
 324	3.2139e+01	6.4336	70.143215	0.000872	8.715725	1.476484	0.000174
 325	3.2238e+01	6.4524	70.308737	0.000831	8.310342	1.407810	0.000166
 326	3.2337e+01	6.4724	70.437926	0.000649	6.486121	1.098779	0.000130
 327	3.2437e+01	6.4926	70.571151	0.000669	6.688812	1.133115	0.000134
 328	3.2536e+01	6.5125	70.760897	0.000953	9.526490	1.613831	0.000191
 329	3.2636e+01	6.5332	70.898159	0.000689	6.891503	1.167452	0.000138
 330	3.2736e+01	6.5527	71.047533	0.000750	7.499577	1.270463	0.000150
 331	3.2835e+01	6.5725	71.213056	0.000831	8.310342	1.407810	0.000166
 332	3.2934e+01	6.5926	71.378578	0.000831	8.310342	1.407810	0.000166
 333	3.3034e+01	6.6125	71.548138	0.000851	8.513034	1.442147	0.000170
 334	3.3133e+01	6.6329	71.693475	0.000730	7.296886	1.236126	0.000146
 335	3.3233e+01	6.6517	71.830738	0.000689	6.891503	1.167452	0.000138
 336	3.3333e+01	6.6721	72.052780	0.001115	11.148020	1.888526	0.000223
 337	3.3432e+01	6.6920	72.129486	0.000385	3.851134	0.652400	0.000077
 338	3.3532e+01	6.7115	72.359602	0.001155	11.553403	1.957199	0.000231
 339	3.3631e+01	6.7310	72.504939	0.000730	7.296886	1.236126	0.000146
 340	3.3730e+01	6.7512	72.650276	0.000730	7.296886	1.236126	0.000146
 341	3.3830e+01	6.7718	72.815799	0.000831	8.310342	1.407810	0.000166
 342	3.3929e+01	6.7913	72.936913	0.000608	6.080738	1.030105	0.000122
 343	3.4029e+01	6.8119	73.102435	0.000831	8.310342	1.407810	0.000166
 344	3.4129e+01	6.8320	73.255847	0.000770	7.702268	1.304800	0.000154
 345	3.4228e+01	6.8520	73.437518	0.000912	9.121107	1.545157	0.000183
 346	3.4328e+01	6.8707	73.590929	0.000770	7.702268	1.304800	0.000154
 347	3.4427e+01	6.8916	73.756451	0.000831	8.310342	1.407810	0.000166
 348	3.4526e+01	6.9109	73.921974	0.000831	8.310342	1.407810	0.000166
 349	3.4626e+01	6.9320	74.039051	0.000588	5.878047	0.995768	0.000118
 350	3.4725e+01	6.9511	74.200536	0.000811	8.107651	1.373473	0.000162
 351	3.4825e+01	6.9704	74.353947	0.000770	7.702268	1.304800	0.000154
 352	3.4925e+01	6.9903	74.539656	0.000932	9.323799	1.579494	0.000187
 353	3.5024e+01	7.0110	74.648658	0.000547	5.472664	0.927094	0.000110
 354	3.5123e+01	7.0303	74.818218	0.000851	8.513034	1.442147	0.000170
 355	3.5223e+01	7.0502	74.979703	0.000811	8.107651	1.373473	0.000162
 356	3.5322e+01	7.0705	75.100818	0.000608	6.080738	1.030105	0.000122
 357	3.5422e+01	7.0904	75.302674	0.001013	10.134564	1.716842	0.000203
 358	3.5522e+01	7.1104	75.468197	0.000831	8.310342	1.407810	0.000166
 359	3.5621e+01	7.1307	75.609497	0.000709	7.094195	1.201789	0.000142
 360	3.5721e+01	7.1496	75.775019	0.000831	8.310342	1.407810	0.000166
 361	3.5820e+01	7.1706	75.948616	0.000872	8.715725	1.476484	0.000174
 362	3.5919e+01	7.1896	76.085879	0.000689	6.891503	1.167452	0.000138
 363	3.6019e+01	7.2097	76.243327	0.000790	7.904960	1.339136	0.000158
 364	3.6118e+01	7.2303	76.388664	0.000730	7.296886	1.236126	0.000146
 365	3.6218e+01	7.2504	76.529964	0.000709	7.094195	1.201789	0.000142
 366	3.6318e+01	7.2694	76.707598	0.000892	8.918416	1.510821	0.000179
 367	3.6417e+01	7.2900	76.820637	0.000568	5.675356	0.961431	0.000114
 368	3.6517e+01	7.3103	76.990197	0.000851	8.513034	1.442147	0.000170
 369	3.6616e+01	7.3295	77.131497	0.000709	7.094195	1.201789	0.000142
 370	3.6715e+01	7.3489	77.301057	0.000851	8.513034	1.442147	0.000170
 371	3.6815e+01	7.3693	77.422171	0.000608	6.080738	1.030105	0.000122
 372	3.6914e+01	7.3894	77.611916	0.000953	9.526490	1.613831	0.000191
 373	3.7014e+01	7.4094	77.728993	0.000588	5.878047	0.995768	0.000118
 374	3.7114e+01	7.4285	77.902590	0.000872	8.715725	1.476484	0.000174
 375	3.7213e+01	7.4496	78.039852	0.000689	6.891503	1.167452	0.000138
 376	3.7313e+01	7.4682	78.185189	0.000730	7.296886	1.236126	0.000146
 377	3.7412e+01	7.4894	78.326489	0.000709	7.094195	1.201789	0.000142
 378	3.7511e+01	7.5079	78.492012	0.000831	8.310342	1.407810	0.000166
 379	3.7611e+01	7.5295	78.629274	0.000689	6.891503	1.167452	0.000138
 380	3.7711e+01	7.5488	78.786722	0.000790	7.904960	1.339136	0.000158
 381	3.7810e+01	7.5684	78.919948	0.000669	6.688812	1.133115	0.000134
 382	3.7910e+01	7.5888	79.032988	0.000568	5.675356	0.961431	0.000114
 383	3.8009e+01	7.6080	79.202547	0.000851	8.513034	1.442147	0.000170
 384	3.8108e+01	7.6279	79.359996	0.000790	7.904960	1.339136	0.000158
 385	3.8208e+01	7.6484	79.505333	0.000730	7.296886	1.236126	0.000146
 386	3.8307e+01	7.6696	79.634521	0.000649	6.486121	1.098779	0.000130
 387	3.8407e+01	7.6874	79.796006	0.000811	8.107651	1.373473	0.000162
 388	3.8507e+01	7.7060	79.913083	0.000588	5.878047	0.995768	0.000118
 389	3.8606e+01	7.7283	80.066495	0.000770	7.702268	1.304800	0.000154
 390	3.8706e+01	7.7477	80.215869	0.000750	7.499577	1.270463	0.000150
 391	3.8805e+01	7.7682	80.341020	0.000628	6.283430	1.064442	0.000126
 392	3.8904e+01	7.7885	80.506542	0.000831	8.310342	1.407810	0.000166
 393	3.9004e+01	7.8074	80.668028	0.000811	8.107651	1.373473	0.000162
 394	3.9103e+01	7.8280	80.809328	0.000709	7.094195	1.201789	0.000142
 395	3.9203e+01	7.8474	80.962739	0.000770	7.702268	1.304800	0.000154
 396	3.9303e+01	7.8674	81.095964	0.000669	6.688812	1.133115	0.000134
 397	3.9402e+01	7.8876	81.257450	0.000811	8.107651	1.373473	0.000162
 398	3.9502e+01	7.9073	81.358378	0.000507	5.067282	0.858421	0.000101
 399	3.9601e+01	7.9275	81.523901	0.000831	8.310342	1.407810	0.000166
 400	3.9700e+01	7.9469	81.669237	0.000730	7.296886	1.236126	0.000146
 401	3.9800e+01	7.9670	81.810537	0.000709	7.094195	1.201789	0.000142
 402	3.9900e+01	7.9871	81.980097	0.000851	8.513034	1.442147	0.000170
 403	3.9999e+01	8.0069	82.109285	0.000649	6.486121	1.098779	0.000130
 404	4.0099e+01	8.0263	82.262696	0.000770	7.702268	1.304800	0.000154
 405	4.0198e+01	8.0499	82.387848	0.000628	6.283430	1.064442	0.000126
 406	4.0297e+01	8.0664	82.512999	0.000628	6.283430	1.064442	0.000126
 407	4.0397e+01	8.0869	82.686596	0.000872	8.715725	1.476484	0.000174
 408	4.0496e+01	8.1070	82.823858	0.000689	6.891503	1.167452	0.000138
 409	4.0596e+01	8.1266	82.973232	0.000750	7.499577	1.270463	0.000150
 410	4.0696e+01	8.1464	83.110495	0.000689	6.891503	1.167452	0.000138
 411	4.0795e+01	8.1651	83.271980	0.000811	8.107651	1.373473	0.000162
 412	4.0895e+01	8.1860	83.393094	0.000608	6.080738	1.030105	0.000122
 413	4.0994e+01	8.2063	83.542468	0.000750	7.499577	1.270463	0.000150
 414	4.1093e+01	8.2257	83.647434	0.000527	5.269973	0.892758	0.000105
 415	4.1193e+01	8.2462	83.853328	0.001034	10.337255	1.751178	0.000207
 416	4.1292e+01	8.2651	83.998665	0.000730	7.296886	1.236126	0.000146
 417	4.1392e+01	8.2861	84.119779	0.000608	6.080738	1.030105	0.000122
 418	4.1492e+01	8.3057	84.248967	0.000649	6.486121	1.098779	0.000130
 419	4.1591e+01	8.3255	84.402378	0.000770	7.702268	1.304800	0.000154
 420	4.1691e+01	8.3455	84.559827	0.000790	7.904960	1.339136	0.000158
 421	4.1790e+01	8.3649	84.689015	0.000649	6.486121	1.098779	0.000130
 422	4.1889e+01	8.3848	84.838389	0.000750	7.499577	1.270463	0.000150
 423	4.1989e+01	8.4052	84.955466	0.000588	5.878047	0.995768	0.000118
 424	4.2089e+01	8.4248	85.100803	0.000730	7.296886	1.236126	0.000146
 425	4.2188e+01	8.4460	85.246140	0.000730	7.296886	1.236126	0.000146
 426	4.2288e+01	8.4656	85.403588	0.000790	7.904960	1.339136	0.000158
 427	4.2387e+01	8.4843	85.516628	0.000568	5.675356	0.961431	0.000114
 428	4.2486e+01	8.5038	85.686187	0.000851	8.513034	1.442147	0.000170
 429	4.2586e+01	8.5249	85.762893	0.000385	3.851134	0.652400	0.000077
 430	4.2685e+01	8.5449	85.948601	0.000932	9.323799	1.579494	0.000187
 431	4.2785e+01	8.5650	86.085864	0.000689	6.891503	1.167452	0.000138
 432	4.2885e+01	8.5843	86.251386	0.000831	8.310342	1.407810	0.000166
 433	4.2984e+01	8.6045	86.429020	0.000892	8.918416	1.510821	0.000179
 434	4.3084e+01	8.6237	86.521875	0.000466	4.661899	0.789747	0.000093
 435	4.3183e+01	8.6445	86.679323	0.000790	7.904960	1.339136	0.000158
 436	4.3282e+01	8.6635	86.800437	0.000608	6.080738	1.030105	0.000122
 437	4.3382e+01	8.6841	86.941737	0.000709	7.094195	1.201789	0.000142
 438	4.3481e+01	8.7035	87.083036	0.000709	7.094195	1.201789	0.000142
 439	4.3581e+01	8.7236	87.224336	0.000709	7.094195	1.201789	0.000142
 440	4.3681e+01	8.7435	87.357562	0.000669	6.688812	1.133115	0.000134
 441	4.3780e+01	8.7637	87.478676	0.000608	6.080738	1.030105	0.000122
 442	4.3880e+01	8.7845	87.591716	0.000568	5.675356	0.961431	0.000114
 443	4.3979e+01	8.8020	87.757238	0.000831	8.310342	1.407810	0.000166
 444	4.4078e+01	8.8232	87.906612	0.000750	7.499577	1.270463	0.000150
 445	4.4178e+01	8.8419	88.068098	0.000811	8.107651	1.373473	0.000162
 446	4.4278e+01	8.8624	88.169026	0.000507	5.067282	0.858421	0.000101
 447	4.4377e+01	8.8824	88.322437	0.000770	7.702268	1.304800	0.000154
 448	4.4477e+01	8.9021	88.427403	0.000527	5.269973	0.892758	0.000105
 449	4.4576e+01	8.9225	88.609074	0.000912	9.121107	1.545157	0.000183
 450	4.4675e+01	8.9419	88.738262	0.000649	6.486121	1.098779	0.000130
 451	4.4775e+01	8.9628	88.887636	0.000750	7.499577	1.270463	0.000150
 452	4.4874e+01	8.9822	89.057196	0.000851	8.513034	1.442147	0.000170
 453	4.4974e+01	9.0022	89.162161	0.000527	5.269973	0.892758	0.000105
 454	4.5074e+01	9.0219	89.311535	0.000750	7.499577	1.270463	0.000150
 455	4.5173e+01	9.0417	89.408427	0.000486	4.864591	0.824084	0.000097
 456	4.5273e+01	9.0621	89.598172	0.000953	9.526490	1.613831	0.000191
 457	4.5372e+01	9.0812	89.755620	0.000790	7.904960	1.339136	0.000158
 458	4.5471e+01	9.1007	89.868660	0.000568	5.675356	0.961431	0.000114
 459	4.5571e+01	9.1201	89.989774	0.000608	6.080738	1.030105	0.000122
 460	4.5670e+01	9.1419	90.151260	0.000811	8.107651	1.373473	0.000162
 461	4.5770e+01	9.1604	90.280448	0.000649	6.486121	1.098779	0.000130
 462	4.5870e+01	9.1817	90.429822	0.000750	7.499577	1.270463	0.000150
 463	4.5969e+01	9.2011	90.575159	0.000730	7.296886	1.236126	0.000146
 464	4.6069e+01	9.2214	90.716459	0.000709	7.094195	1.201789	0.000142
 465	4.6168e+01	9.2410	90.865833	0.000750	7.499577	1.270463	0.000150
 466	4.6267e+01	9.2603	90.999058	0.000669	6.688812	1.133115	0.000134
 467	4.6367e+01	9.2814	91.140358	0.000709	7.094195	1.201789	0.000142
 468	4.6467e+01	9.3031	91.269546	0.000649	6.486121	1.098779	0.000130
 469	4.6566e+01	9.3213	91.418920	0.000750	7.499577	1.270463	0.000150
 470	4.6666e+01	9.3414	91.560220	0.000709	7.094195	1.201789	0.000142
 471	4.6765e+01	9.3604	91.725743	0.000831	8.310342	1.407810	0.000166
 472	4.6864e+01	9.3804	91.858968	0.000669	6.688812	1.133115	0.000134
 473	4.6964e+01	9.4035	91.976045	0.000588	5.878047	0.995768	0.000118
 474	4.7063e+01	9.4214	92.137530	0.000811	8.107651	1.373473	0.000162
 475	4.7163e+01	9.4402	92.274793	0.000689	6.891503	1.167452	0.000138
 476	4.7263e+01	9.4601	92.440316	0.000831	8.310342	1.407810	0.000166
 477	4.7362e+01	9.4803	92.573541	0.000669	6.688812	1.133115	0.000134
 478	4.7462e+01	9.4996	92.702729	0.000649	6.486121	1.098779	0.000130
 479	4.7561e+01	9.5194	92.860178	0.000790	7.904960	1.339136	0.000158
 480	4.7660e+01	9.5386	93.009552	0.000750	7.499577	1.270463	0.000150
 481	4.7760e+01	9.5599	93.142777	0.000669	6.688812	1.133115	0.000134
 482	4.7859e+01	9.5794	93.280040	0.000689	6.891503	1.167452	0.000138
 483	4.7959e+01	9.5996	93.437488	0.000790	7.904960	1.339136	0.000158
 484	4.8059e+01	9.6202	93.594936	0.000790	7.904960	1.339136	0.000158
 485	4.8158e+01	9.6397	93.695865	0.000507	5.067282	0.858421	0.000101
 486	4.8258e+01	9.6591	93.849276	0.000770	7.702268	1.304800	0.000154
 487	4.8357e+01	9.6790	93.954241	0.000527	5.269973	0.892758	0.000105
 488	4.8456e+01	9.6983	94.139950	0.000932	9.323799	1.579494	0.000187
 489	4.8556e+01	9.7193	94.273175	0.000669	6.688812	1.133115	0.000134
 490	4.8656e+01	9.7394	94.422549	0.000750	7.499577	1.270463	0.000150
 491	4.8755e+01	9.7583	94.559812	0.000689	6.891503	1.167452	0.000138
 492	4.8855e+01	9.7778	94.701112	0.000709	7.094195	1.201789	0.000142
 493	4.8954e+01	9.7989	94.822226	0.000608	6.080738	1.030105	0.000122
 494	4.9053e+01	9.8181	94.959488	0.000689	6.891503	1.167452	0.000138
 495	4.9153e+01	9.8389	95.108862	0.000750	7.499577	1.270463	0.000150
 496	4.9252e+01	9.8576	95.282459	0.000872	8.715725	1.476484	0.000174
 497	4.9352e+01	9.8788	95.427796	0.000730	7.296886	1.236126	0.000146
 498	4.9452e+01	9.8985	95.552947	0.000628	6.283430	1.064442	0.000126
 499	4.9551e+01	9.9188	95.698284	0.000730	7.296886	1.236126	0.000146
 500	4.9651e+01	9.9374	95.843621	0.000730	7.296886	1.236126	0.000146
 501	4.9750e+01	9.9576	95.968772	0.000628	6.283430	1.064442	0.000126
 502	4.9849e+01	9.9765	96.097961	0.000649	6.486121	1.098779	0.000130
 503	4.9949e+01	9.9976	96.227149	0.000649	6.486121	1.098779	0.000130
 504	5.0048e+01	9.9774	96.198889	0.000142	1.418839	0.240358	-0.000028
 505	5.0148e+01	9.9585	96.110072	0.000446	4.459208	0.755410	-0.000089
 506	5.0248e+01	9.9371	96.069701	0.000203	2.026913	0.343368	-0.000041
 507	5.0347e+01	9.9187	95.976846	0.000466	4.661899	0.789747	-0.000093
 508	5.0447e+01	9.8980	95.916289	0.000304	3.040369	0.515052	-0.000061
 509	5.0546e+01	9.8792	95.847658	0.000345	3.445752	0.583726	-0.000069
 510	5.0645e+01	9.8584	95.722507	0.000628	6.283430	1.064442	-0.000126
 511	5.0745e+01	9.8370	95.694247	0.000142	1.418839	0.240358	-0.000028
 512	5.0844e+01	9.8181	95.593319	0.000507	5.067282	0.858421	-0.000101
 513	5.0944e+01	9.7998	95.532762	0.000304	3.040369	0.515052	-0.000061
 514	5.1044e+01	9.7791	95.452019	0.000405	4.053826	0.686737	-0.000081
 515	5.1143e+01	9.7595	95.371276	0.000405	4.053826	0.686737	-0.000081
 516	5.1242e+01	9.7397	95.282459	0.000446	4.459208	0.755410	-0.000089
 517	5.1342e+01	9.7187	95.197679	0.000426	4.256517	0.721073	-0.000085
 518	5.1441e+01	9.6986	95.116937	0.000405	4.053826	0.686737	-0.000081
 519	5.1541e+01	9.6781	95.028120	0.000446	4.459208	0.755410	-0.000089
 520	5.1641e+01	9.6600	94.939303	0.000446	4.459208	0.755410	-0.000089
 521	5.1740e+01	9.6396	94.858560	0.000405	4.053826	0.686737	-0.000081
 522	5.1840e+01	9.6204	94.757631	0.000507	5.067282	0.858421	-0.000101
 523	5.1939e+01	9.5990	94.705149	0.000263	2.634987	0.446379	-0.000053
 524	5.2038e+01	9.5801	94.575960	0.000649	6.486121	1.098779	-0.000130
 525	5.2138e+01	9.5594	94.535589	0.000203	2.026913	0.343368	-0.000041
 526	5.2237e+01	9.5394	94.458883	0.000385	3.851134	0.652400	-0.000077
 527	5.2337e+01	9.5195	94.353918	0.000527	5.269973	0.892758	-0.000105
 528	5.2437e+01	9.5001	94.273175	0.000405	4.053826	0.686737	-0.000081
 529	5.2536e+01	9.4801	94.135913	0.000689	6.891503	1.167452	-0.000138
 530	5.2636e+01	9.4590	94.059207	0.000385	3.851134	0.652400	-0.000077
 531	5.2735e+01	9.4398	93.974427	0.000426	4.256517	0.721073	-0.000085
 532	5.2834e+01	9.4202	93.897722	0.000385	3.851134	0.652400	-0.000077
 533	5.2934e+01	9.4001	93.788719	0.000547	5.472664	0.927094	-0.000110
 534	5.3033e+01	9.3802	93.703939	0.000426	4.256517	0.721073	-0.000085
 535	5.3133e+01	9.3610	93.635308	0.000345	3.445752	0.583726	-0.000069
 536	5.3233e+01	9.3409	93.477859	0.000790	7.904960	1.339136	-0.000158
 537	5.3332e+01	9.3213	93.401154	0.000385	3.851134	0.652400	-0.000077
 538	5.3431e+01	9.3010	93.320411	0.000405	4.053826	0.686737	-0.000081
 539	5.3531e+01	9.2822	93.231594	0.000446	4.459208	0.755410	-0.000089
 540	5.3630e+01	9.2611	93.142777	0.000446	4.459208	0.755410	-0.000089
 541	5.3730e+01	9.2414	93.021663	0.000608	6.080738	1.030105	-0.000122
 542	5.3830e+01	9.2207	92.916698	0.000527	5.269973	0.892758	-0.000105
 543	5.3929e+01	9.2017	92.856141	0.000304	3.040369	0.515052	-0.000061
 544	5.4029e+01	9.1805	92.710804	0.000730	7.296886	1.236126	-0.000146
 545	5.4128e+01	9.1618	92.621987	0.000446	4.459208	0.755410	-0.000089
 546	5.4227e+01	9.1421	92.557392	0.000324	3.243060	0.549389	-0.000065
 547	5.4327e+01	9.1213	92.416093	0.000709	7.094195	1.201789	-0.000142
 548	5.4426e+01	9.1024	92.327276	0.000446	4.459208	0.755410	-0.000089
 549	5.4526e+01	9.0820	92.222310	0.000527	5.269973	0.892758	-0.000105
 550	5.4626e+01	9.0614	92.153679	0.000345	3.445752	0.583726	-0.000069
 551	5.4725e+01	9.0421	92.000268	0.000770	7.702268	1.304800	-0.000154
 552	5.4825e+01	9.0220	91.883191	0.000588	5.878047	0.995768	-0.000118
 553	5.4924e+01	9.0033	91.834745	0.000243	2.432295	0.412042	-0.000049
 554	5.5023e+01	8.9819	91.709594	0.000628	6.283430	1.064442	-0.000126
 555	5.5123e+01	8.9619	91.624814	0.000426	4.256517	0.721073	-0.000085
 556	5.5222e+01	8.9417	91.463329	0.000811	8.107651	1.373473	-0.000162
 557	5.5322e+01	8.9217	91.394697	0.000345	3.445752	0.583726	-0.000069
 558	5.5422e+01	8.9022	91.322029	0.000365	3.648443	0.618063	-0.000073
 559	5.5521e+01	8.8818	91.213026	0.000547	5.472664	0.927094	-0.000110
 560	5.5620e+01	8.8623	91.116135	0.000486	4.864591	0.824084	-0.000097
 561	5.5720e+01	8.8416	91.007132	0.000547	5.472664	0.927094	-0.000110
 562	5.5819e+01	8.8241	90.881981	0.000628	6.283430	1.064442	-0.000126
 563	5.5919e+01	8.8037	90.752793	0.000649	6.486121	1.098779	-0.000130
 564	5.6019e+01	8.7839	90.672050	0.000405	4.053826	0.686737	-0.000081
 565	5.6118e+01	8.7633	90.595345	0.000385	3.851134	0.652400	-0.000077
 566	5.6218e+01	8.7432	90.425785	0.000851	8.513034	1.442147	-0.000170
 567	5.6317e+01	8.7234	90.345042	0.000405	4.053826	0.686737	-0.000081
 568	5.6416e+01	8.7037	90.248151	0.000486	4.864591	0.824084	-0.000097
 569	5.6516e+01	8.6841	90.135111	0.000568	5.675356	0.961431	-0.000114
 570	5.6615e+01	8.6624	90.034183	0.000507	5.067282	0.858421	-0.000101
 571	5.6715e+01	8.6436	89.888846	0.000730	7.296886	1.236126	-0.000146
 572	5.6815e+01	8.6246	89.800029	0.000446	4.459208	0.755410	-0.000089
 573	5.6914e+01	8.6045	89.735435	0.000324	3.243060	0.549389	-0.000065
 574	5.7014e+01	8.5844	89.594135	0.000709	7.094195	1.201789	-0.000142
 575	5.7113e+01	8.5640	89.473021	0.000608	6.080738	1.030105	-0.000122
 576	5.7212e+01	8.5449	89.364018	0.000547	5.472664	0.927094	-0.000110
 577	5.7312e+01	8.5247	89.250978	0.000568	5.675356	0.961431	-0.000114
 578	5.7411e+01	8.5052	89.166198	0.000426	4.256517	0.721073	-0.000085
 579	5.7511e+01	8.4850	89.073344	0.000466	4.661899	0.789747	-0.000093
 580	5.7611e+01	8.4641	88.972416	0.000507	5.067282	0.858421	-0.000101
 581	5.7710e+01	8.4451	88.827079	0.000730	7.296886	1.236126	-0.000146
 582	5.7809e+01	8.4254	88.710002	0.000588	5.878047	0.995768	-0.000118
 583	5.7909e+01	8.4045	88.637334	0.000365	3.648443	0.618063	-0.000073
 584	5.8008e+01	8.3855	88.467774	0.000851	8.513034	1.442147	-0.000170
 585	5.8108e+01	8.3647	88.391068	0.000385	3.851134	0.652400	-0.000077
 586	5.8208e+01	8.3453	88.286103	0.000527	5.269973	0.892758	-0.000105
 587	5.8307e+01	8.3260	88.164989	0.000608	6.080738	1.030105	-0.000122
 588	5.8407e+01	8.3051	88.051949	0.000568	5.675356	0.961431	-0.000114
 589	5.8506e+01	8.2853	87.918724	0.000669	6.688812	1.133115	-0.000134
 590	5.8605e+01	8.2645	87.854129	0.000324	3.243060	0.549389	-0.000065
 591	5.8705e+01	8.2462	87.745127	0.000547	5.472664	0.927094	-0.000110
 592	5.8804e+01	8.2248	87.611901	0.000669	6.688812	1.133115	-0.000134
 593	5.8904e+01	8.2062	87.510973	0.000507	5.067282	0.858421	-0.000101
 594	5.9004e+01	8.1861	87.377747	0.000669	6.688812	1.133115	-0.000134
 595	5.9103e+01	8.1654	87.244522	0.000669	6.688812	1.133115	-0.000134
 596	5.9203e+01	8.1468	87.159742	0.000426	4.256517	0.721073	-0.000085
 597	5.9302e+01	8.1262	87.038628	0.000608	6.080738	1.030105	-0.000122
 598	5.9401e+01	8.1062	86.933662	0.000527	5.269973	0.892758	-0.000105
 599	5.9501e+01	8.0859	86.784288	0.000750	7.499577	1.270463	-0.000150
 600	5.9600e+01	8.0667	86.679323	0.000527	5.269973	0.892758	-0.000105
 601	5.9700e+01	8.0469	86.610692	0.000345	3.445752	0.583726	-0.000069
 602	5.9800e+01	8.0265	86.473429	0.000689	6.891503	1.167452	-0.000138
 603	5.9899e+01	8.0064	86.348278	0.000628	6.283430	1.064442	-0.000126
 604	5.9998e+01	7.9868	86.231201	0.000588	5.878047	0.995768	-0.000118
 605	6.0098e+01	7.9664	86.102012	0.000649	6.486121	1.098779	-0.000130
 606	6.0197e+01	7.9465	86.001084	0.000507	5.067282	0.858421	-0.000101
 607	6.0297e+01	7.9276	85.879970	0.000608	6.080738	1.030105	-0.000122
 608	6.0397e+01	7.9060	85.783079	0.000486	4.864591	0.824084	-0.000097
 609	6.0496e+01	7.8879	85.674076	0.000547	5.472664	0.927094	-0.000110
 610	6.0596e+01	7.8674	85.532776	0.000709	7.094195	1.201789	-0.000142
 611	6.0695e+01	7.8458	85.435885	0.000486	4.864591	0.824084	-0.000097
 612	6.0794e+01	7.8277	85.274400	0.000811	8.107651	1.373473	-0.000162
 613	6.0894e+01	7.8072	85.189620	0.000426	4.256517	0.721073	-0.000085
 614	6.0993e+01	7.7874	85.072543	0.000588	5.878047	0.995768	-0.000118
 615	6.1093e+01	7.7686	84.947392	0.000628	6.283430	1.064442	-0.000126
 616	6.1193e+01	7.7475	84.802055	0.000730	7.296886	1.236126	-0.000146
 617	6.1292e+01	7.7273	84.689015	0.000568	5.675356	0.961431	-0.000114
 618	6.1392e+01	7.7089	84.604235	0.000426	4.256517	0.721073	-0.000085
 619	6.1491e+01	7.6882	84.462935	0.000709	7.094195	1.201789	-0.000142
 620	6.1590e+01	7.6675	84.333747	0.000649	6.486121	1.098779	-0.000130
 621	6.1690e+01	7.6482	84.248967	0.000426	4.256517	0.721073	-0.000085
 622	6.1789e+01	7.6285	84.148039	0.000507	5.067282	0.858421	-0.000101
 623	6.1889e+01	7.6077	83.994628	0.000770	7.702268	1.304800	-0.000154
 624	6.1989e+01	7.5875	83.877551	0.000588	5.878047	0.995768	-0.000118
 625	6.2088e+01	7.5691	83.788734	0.000446	4.459208	0.755410	-0.000089
 626	6.2188e+01	7.5471	83.647434	0.000709	7.094195	1.201789	-0.000142
 627	6.2287e+01	7.5289	83.538431	0.000547	5.472664	0.927094	-0.000110
 628	6.2386e+01	7.5095	83.380983	0.000790	7.904960	1.339136	-0.000158
 629	6.2486e+01	7.4899	83.308315	0.000365	3.648443	0.618063	-0.000073
 630	6.2586e+01	7.4694	83.158940	0.000750	7.499577	1.270463	-0.000150
 631	6.2685e+01	7.4490	83.049938	0.000547	5.472664	0.927094	-0.000110
 632	6.2785e+01	7.4289	82.953047	0.000486	4.864591	0.824084	-0.000097
 633	6.2884e+01	7.4093	82.827895	0.000628	6.283430	1.064442	-0.000126
 634	6.2983e+01	7.3895	82.731004	0.000486	4.864591	0.824084	-0.000097
 635	6.3083e+01	7.3682	82.593741	0.000689	6.891503	1.167452	-0.000138
 636	6.3182e+01	7.3492	82.464553	0.000649	6.486121	1.098779	-0.000130
 637	6.3282e+01	7.3302	82.327291	0.000689	6.891503	1.167452	-0.000138
 638	6.3382e+01	7.3100	82.214251	0.000568	5.675356	0.961431	-0.000114
 639	6.3481e+01	7.2900	82.097174	0.000588	5.878047	0.995768	-0.000118
 640	6.3581e+01	7.2705	81.963948	0.000669	6.688812	1.133115	-0.000134
 641	6.3680e+01	7.2500	81.891280	0.000365	3.648443	0.618063	-0.000073
 642	6.3779e+01	7.2292	81.766129	0.000628	6.283430	1.064442	-0.000126
 643	6.3879e+01	7.2100	81.653089	0.000568	5.675356	0.961431	-0.000114
 644	6.3978e+01	7.1901	81.495641	0.000790	7.904960	1.339136	-0.000158
 645	6.4078e+01	7.1688	81.394712	0.000507	5.067282	0.858421	-0.000101
 646	6.4177e+01	7.1499	81.293784	0.000507	5.067282	0.858421	-0.000101
 647	6.4277e+01	7.1310	81.108076	0.000932	9.323799	1.579494	-0.000187
 648	6.4376e+01	7.1096	81.075778	0.000162	1.621530	0.274695	-0.000032
 649	6.4476e+01	7.0905	80.890070	0.000932	9.323799	1.579494	-0.000187
 650	6.4576e+01	7.0699	80.764919	0.000628	6.283430	1.064442	-0.000126
 651	6.4675e+01	7.0509	80.668028	0.000486	4.864591	0.824084	-0.000097
 652	6.4775e+01	7.0309	80.534802	0.000669	6.688812	1.133115	-0.000134
 653	6.4874e+01	7.0103	80.409651	0.000628	6.283430	1.064442	-0.000126
 654	6.4974e+01	6.9903	80.304686	0.000527	5.269973	0.892758	-0.000105
 655	6.5073e+01	6.9717	80.187609	0.000588	5.878047	0.995768	-0.000118
 656	6.5172e+01	6.9503	80.066495	0.000608	6.080738	1.030105	-0.000122
 657	6.5272e+01	6.9319	79.909046	0.000790	7.904960	1.339136	-0.000158
 658	6.5371e+01	6.9099	79.796006	0.000568	5.675356	0.961431	-0.000114
 659	6.5471e+01	6.8916	79.682967	0.000568	5.675356	0.961431	-0.000114
 660	6.5570e+01	6.8707	79.497258	0.000932	9.323799	1.579494	-0.000187
 661	6.5670e+01	6.8523	79.372107	0.000628	6.283430	1.064442	-0.000126
 662	6.5769e+01	6.8322	79.291364	0.000405	4.053826	0.686737	-0.000081
 663	6.5869e+01	6.8115	79.146028	0.000730	7.296886	1.236126	-0.000146
 664	6.5969e+01	6.7913	79.057211	0.000446	4.459208	0.755410	-0.000089
 665	6.6068e+01	6.7719	78.899762	0.000790	7.904960	1.339136	-0.000158
 666	6.6168e+01	6.7518	78.770574	0.000649	6.486121	1.098779	-0.000130
 667	6.6267e+01	6.7311	78.661571	0.000547	5.472664	0.927094	-0.000110
 668	6.6367e+01	6.7113	78.540457	0.000608	6.080738	1.030105	-0.000122
 669	6.6466e+01	6.6912	78.439529	0.000507	5.067282	0.858421	-0.000101
 670	6.6566e+01	6.6724	78.241709	0.000993	9.931873	1.682505	-0.000199
 671	6.6665e+01	6.6521	78.120595	0.000608	6.080738	1.030105	-0.000122
 672	6.6764e+01	6.6315	77.995444	0.000628	6.283430	1.064442	-0.000126
 673	6.6864e+01	6.6129	77.854144	0.000709	7.094195	1.201789	-0.000142
 674	6.6963e+01	6.5919	77.817810	0.000182	1.824221	0.309031	-0.000037
 675	6.7063e+01	6.5723	77.644213	0.000872	8.715725	1.476484	-0.000174
 676	6.7162e+01	6.5524	77.506950	0.000689	6.891503	1.167452	-0.000138
 677	6.7262e+01	6.5328	77.397948	0.000547	5.472664	0.927094	-0.000110
 678	6.7362e+01	6.5127	77.252611	0.000730	7.296886	1.236126	-0.000146
 679	6.7461e+01	6.4921	77.091125	0.000811	8.107651	1.373473	-0.000162
 680	6.7561e+01	6.4735	77.010383	0.000405	4.053826	0.686737	-0.000081
 681	6.7660e+01	6.4527	76.852934	0.000790	7.904960	1.339136	-0.000158
 682	6.7760e+01	6.4329	76.735858	0.000588	5.878047	0.995768	-0.000118
 683	6.7859e+01	6.4123	76.574372	0.000811	8.107651	1.373473	-0.000162
 684	6.7959e+01	6.3929	76.441147	0.000669	6.688812	1.133115	-0.000134
 685	6.8058e+01	6.3727	76.328107	0.000568	5.675356	0.961431	-0.000114
 686	6.8157e+01	6.3535	76.198918	0.000649	6.486121	1.098779	-0.000130
 687	6.8257e+01	6.3323	76.097990	0.000507	5.067282	0.858421	-0.000101
 688	6.8356e+01	6.3135	75.948616	0.000750	7.499577	1.270463	-0.000150
 689	6.8456e+01	6.2946	75.811353	0.000689	6.891503	1.167452	-0.000138
 690	6.8555e+01	6.2733	75.657942	0.000770	7.702268	1.304800	-0.000154
 691	6.8655e+01	6.2538	75.552977	0.000527	5.269973	0.892758	-0.000105
 692	6.8754e+01	6.2347	75.415714	0.000689	6.891503	1.167452	-0.000138
 693	6.8854e+01	6.2151	75.270377	0.000730	7.296886	1.236126	-0.000146
 694	6.8954e+01	6.1953	75.173486	0.000486	4.864591	0.824084	-0.000097
 695	6.9053e+01	6.1744	75.044298	0.000649	6.486121	1.098779	-0.000130
 696	6.9153e+01	6.1551	74.878775	0.000831	8.310342	1.407810	-0.000166
 697	6.9252e+01	6.1352	74.709215	0.000851	8.513034	1.442147	-0.000170
 698	6.9352e+01	6.1143	74.648658	0.000304	3.040369	0.515052	-0.000061
 699	6.9451e+01	6.0946	74.499284	0.000750	7.499577	1.270463	-0.000150
 700	6.9550e+01	6.0744	74.370096	0.000649	6.486121	1.098779	-0.000130
 701	6.9650e+01	6.0551	74.228796	0.000709	7.094195	1.201789	-0.000142
 702	6.9749e+01	6.0342	74.111719	0.000588	5.878047	0.995768	-0.000118
 703	6.9849e+01	6.0148	73.934085	0.000892	8.918416	1.510821	-0.000179
 704	6.9948e+01	5.9954	73.800860	0.000669	6.688812	1.133115	-0.000134
 705	7.0048e+01	5.9751	73.683783	0.000588	5.878047	0.995768	-0.000118
 706	7.0147e+01	5.9557	73.534409	0.000750	7.499577	1.270463	-0.000150
 707	7.0247e+01	5.9354	73.405221	0.000649	6.486121	1.098779	-0.000130
 708	7.0347e+01	5.9176	73.243735	0.000811	8.107651	1.373473	-0.000162
 709	7.0446e+01	5.8953	73.114547	0.000649	6.486121	1.098779	-0.000130
 710	7.0546e+01	5.8762	72.985358	0.000649	6.486121	1.098779	-0.000130
 711	7.0645e+01	5.8562	72.823873	0.000811	8.107651	1.373473	-0.000162
 712	7.0745e+01	5.8377	72.698722	0.000628	6.283430	1.064442	-0.000126
 713	7.0844e+01	5.8159	72.565496	0.000669	6.688812	1.133115	-0.000134
 714	7.0944e+01	5.7955	72.420159	0.000730	7.296886	1.236126	-0.000146
 715	7.1043e+01	5.7763	72.299045	0.000608	6.080738	1.030105	-0.000122
 716	7.1142e+01	5.7560	72.141597	0.000790	7.904960	1.339136	-0.000158
 717	7.1242e+01	5.7368	72.048743	0.000466	4.661899	0.789747	-0.000093
 718	7.1341e+01	5.7164	71.863035	0.000932	9.323799	1.579494	-0.000187
 719	7.1441e+01	5.6960	71.729809	0.000669	6.688812	1.133115	-0.000134
 720	7.1540e+01	5.6770	71.584472	0.000730	7.296886	1.236126	-0.000146
 721	7.1640e+01	5.6568	71.451247	0.000669	6.688812	1.133115	-0.000134
 722	7.1740e+01	5.6371	71.305910	0.000730	7.296886	1.236126	-0.000146
 723	7.1839e+01	5.6173	71.128276	0.000892	8.918416	1.510821	-0.000179
 724	7.1939e+01	5.5972	71.007162	0.000608	6.080738	1.030105	-0.000122
 725	7.2038e+01	5.5772	70.857788	0.000750	7.499577	1.270463	-0.000150
 726	7.2138e+01	5.5555	70.704377	0.000770	7.702268	1.304800	-0.000154
 727	7.2237e+01	5.5378	70.567114	0.000689	6.891503	1.167452	-0.000138
 728	7.2337e+01	5.5173	70.417740	0.000750	7.499577	1.270463	-0.000150
 729	7.2436e+01	5.4976	70.292589	0.000628	6.283430	1.064442	-0.000126
 730	7.2535e+01	5.4769	70.163401	0.000649	6.486121	1.098779	-0.000130
 731	7.2635e+01	5.4574	70.001915	0.000811	8.107651	1.373473	-0.000162
 732	7.2734e+01	5.4372	69.820244	0.000912	9.121107	1.545157	-0.000183
 733	7.2834e+01	5.4176	69.719316	0.000507	5.067282	0.858421	-0.000101
 734	7.2933e+01	5.3970	69.590127	0.000649	6.486121	1.098779	-0.000130
 735	7.3033e+01	5.3765	69.392308	0.000993	9.931873	1.682505	-0.000199
 736	7.3132e+01	5.3565	69.263119	0.000649	6.486121	1.098779	-0.000130
 737	7.3232e+01	5.3381	69.142005	0.000608	6.080738	1.030105	-0.000122
 738	7.3332e+01	5.3174	69.000705	0.000709	7.094195	1.201789	-0.000142
 739	7.3431e+01	5.2974	68.835183	0.000831	8.310342	1.407810	-0.000166
 740	7.3531e+01	5.2770	68.697920	0.000689	6.891503	1.167452	-0.000138
 741	7.3630e+01	5.2581	68.552583	0.000730	7.296886	1.236126	-0.000146
 742	7.3730e+01	5.2377	68.419358	0.000669	6.688812	1.133115	-0.000134
 743	7.3829e+01	5.2184	68.302281	0.000588	5.878047	0.995768	-0.000118
 744	7.3928e+01	5.1989	68.112536	0.000953	9.526490	1.613831	-0.000191
 745	7.4028e+01	5.1785	67.991422	0.000608	6.080738	1.030105	-0.000122
 746	7.4127e+01	5.1587	67.833973	0.000790	7.904960	1.339136	-0.000158
 747	7.4227e+01	5.1394	67.676525	0.000790	7.904960	1.339136	-0.000158
 748	7.4326e+01	5.1186	67.515040	0.000811	8.107651	1.373473	-0.000162
 749	7.4426e+01	5.0985	67.402000	0.000568	5.675356	0.961431	-0.000114
 750	7.4525e+01	5.0786	67.252626	0.000750	7.499577	1.270463	-0.000150
 751	7.4625e+01	5.0576	67.074992	0.000892	8.918416	1.510821	-0.000179
 752	7.4725e+01	5.0390	66.982138	0.000466	4.661899	0.789747	-0.000093
 753	7.4824e+01	5.0201	66.780281	0.001013	10.134564	1.716842	-0.000203
 754	7.4924e+01	4.9990	66.663204	0.000588	5.878047	0.995768	-0.000118
 755	7.5023e+01	4.9801	66.461347	0.001013	10.134564	1.716842	-0.000203
 756	7.5123e+01	4.9599	66.320047	0.000709	7.094195	1.201789	-0.000142
 757	7.5222e+01	4.9397	66.166636	0.000770	7.702268	1.304800	-0.000154
 758	7.5322e+01	4.9195	66.049559	0.000588	5.878047	0.995768	-0.000118
 759	7.5421e+01	4.9000	65.900185	0.000750	7.499577	1.270463	-0.000150
 760	7.5520e+01	4.8798	65.766960	0.000669	6.688812	1.133115	-0.000134
 761	7.5620e+01	4.8602	65.617586	0.000750	7.499577	1.270463	-0.000150
 762	7.5719e+01	4.8402	65.427840	0.000953	9.526490	1.613831	-0.000191
 763	7.5819e+01	4.8205	65.326912	0.000507	5.067282	0.858421	-0.000101
 764	7.5918e+01	4.7999	65.177538	0.000750	7.499577	1.270463	-0.000150
 765	7.6018e+01	4.7807	64.987793	0.000953	9.526490	1.613831	-0.000191
 766	7.6118e+01	4.7603	64.854567	0.000669	6.688812	1.133115	-0.000134
 767	7.6217e+01	4.7396	64.713267	0.000709	7.094195	1.201789	-0.000142
 768	7.6317e+01	4.7198	64.567930	0.000730	7.296886	1.236126	-0.000146
 769	7.6416e+01	4.7025	64.406445	0.000811	8.107651	1.373473	-0.000162
 770	7.6516e+01	4.6807	64.224774	0.000912	9.121107	1.545157	-0.000183
 771	7.6615e+01	4.6600	64.087511	0.000689	6.891503	1.167452	-0.000138
 772	7.6715e+01	4.6413	63.934100	0.000770	7.702268	1.304800	-0.000154
 773	7.6814e+01	4.6208	63.788763	0.000730	7.296886	1.236126	-0.000146
 774	7.6913e+01	4.6008	63.627278	0.000811	8.107651	1.373473	-0.000162
 775	7.7013e+01	4.5815	63.469830	0.000790	7.904960	1.339136	-0.000158
 776	7.7112e+01	4.5614	63.288158	0.000912	9.121107	1.545157	-0.000183
 777	7.7212e+01	4.5405	63.175119	0.000568	5.675356	0.961431	-0.000114
 778	7.7311e+01	4.5219	63.009596	0.000831	8.310342	1.407810	-0.000166
 779	7.7411e+01	4.5004	62.827925	0.000912	9.121107	1.545157	-0.000183
 780	7.7510e+01	4.4817	62.710848	0.000588	5.878047	0.995768	-0.000118
 781	7.7610e+01	4.4621	62.517065	0.000973	9.729181	1.648168	-0.000195
 782	7.7710e+01	4.4415	62.379803	0.000689	6.891503	1.167452	-0.000138
 783	7.7809e+01	4.4213	62.214280	0.000831	8.310342	1.407810	-0.000166
 784	7.7909e+01	4.4016	62.064906	0.000750	7.499577	1.270463	-0.000150
 785	7.8008e+01	4.3816	61.907458	0.000790	7.904960	1.339136	-0.000158
 786	7.8108e+01	4.3616	61.741935	0.000831	8.310342	1.407810	-0.000166
 787	7.8207e+01	4.3420	61.592561	0.000750	7.499577	1.270463	-0.000150
 788	7.8306e+01	4.3223	61.459336	0.000669	6.688812	1.133115	-0.000134
 789	7.8406e+01	4.3025	61.318036	0.000709	7.094195	1.201789	-0.000142
 790	7.8505e+01	4.2876	61.176736	0.000709	7.094195	1.201789	-0.000142
 791	7.8605e+01	4.2623	61.003140	0.000872	8.715725	1.476484	-0.000174
 792	7.8704e+01	4.2419	60.837617	0.000831	8.310342	1.407810	-0.000166
 793	7.8804e+01	4.2220	60.664020	0.000872	8.715725	1.476484	-0.000174
 794	7.8903e+01	4.2022	60.526758	0.000689	6.891503	1.167452	-0.000138
 795	7.9003e+01	4.1825	60.337012	0.000953	9.526490	1.613831	-0.000191
 796	7.9103e+01	4.1624	60.203787	0.000669	6.688812	1.133115	-0.000134
 797	7.9202e+01	4.1434	60.038264	0.000831	8.310342	1.407810	-0.000166
 798	7.9302e+01	4.1225	59.884853	0.000770	7.702268	1.304800	-0.000154
 799	7.9401e+01	4.1029	59.715293	0.000851	8.513034	1.442147	-0.000170
 800	7.9501e+01	4.0816	59.590142	0.000628	6.283430	1.064442	-0.000126
 801	7.9600e+01	4.0633	59.424619	0.000831	8.310342	1.407810	-0.000166
 802	7.9700e+01	4.0430	59.263134	0.000811	8.107651	1.373473	-0.000162
 803	7.9799e+01	4.0228	59.109723	0.000770	7.702268	1.304800	-0.000154
 804	7.9898e+01	4.0025	58.956312	0.000770	7.702268	1.304800	-0.000154
 805	7.9998e+01	3.9834	58.810975	0.000730	7.296886	1.236126	-0.000146
 806	8.0097e+01	3.9636	58.661601	0.000750	7.499577	1.270463	-0.000150
 807	8.0197e+01	3.9429	58.483967	0.000892	8.918416	1.510821	-0.000179
 808	8.0296e+01	3.9238	58.366890	0.000588	5.878047	0.995768	-0.000118
 809	8.0396e+01	3.9037	58.136773	0.001155	11.553403	1.957199	-0.000231
 810	8.0496e+01	3.8831	58.011622	0.000628	6.283430	1.064442	-0.000126
 811	8.0595e+01	3.8635	57.805728	0.001034	10.337255	1.751178	-0.000207
 812	8.0695e+01	3.8428	57.692688	0.000568	5.675356	0.961431	-0.000114
 813	8.0794e+01	3.8238	57.543314	0.000750	7.499577	1.270463	-0.000150
 814	8.0894e+01	3.8033	57.393940	0.000750	7.499577	1.270463	-0.000150
 815	8.0993e+01	3.7843	57.236492	0.000790	7.904960	1.339136	-0.000158
 816	8.1093e+01	3.7641	57.079044	0.000790	7.904960	1.339136	-0.000158
 817	8.1192e+01	3.7449	56.889298	0.000953	9.526490	1.613831	-0.000191
 818	8.1291e+01	3.7247	56.727813	0.000811	8.107651	1.373473	-0.000162
 819	8.1391e+01	3.7048	56.578439	0.000750	7.499577	1.270463	-0.000150
 820	8.1490e+01	3.6852	56.416953	0.000811	8.107651	1.373473	-0.000162
 821	8.1590e+01	3.6651	56.223171	0.000973	9.729181	1.648168	-0.000195
 822	8.1689e+01	3.6446	56.049574	0.000872	8.715725	1.476484	-0.000174
 823	8.1789e+01	3.6249	55.944608	0.000527	5.269973	0.892758	-0.000105
 824	8.1888e+01	3.6054	55.762937	0.000912	9.121107	1.545157	-0.000183
 825	8.1988e+01	3.5849	55.597415	0.000831	8.310342	1.407810	-0.000166
 826	8.2088e+01	3.5647	55.419781	0.000892	8.918416	1.510821	-0.000179
 827	8.2187e+01	3.5456	55.262333	0.000790	7.904960	1.339136	-0.000158
 828	8.2287e+01	3.5255	55.112959	0.000750	7.499577	1.270463	-0.000150
 829	8.2386e+01	3.5047	54.935325	0.000892	8.918416	1.510821	-0.000179
 830	8.2486e+01	3.4852	54.765765	0.000851	8.513034	1.442147	-0.000170
 831	8.2585e+01	3.4652	54.596205	0.000851	8.513034	1.442147	-0.000170
 832	8.2684e+01	3.4447	54.422608	0.000872	8.715725	1.476484	-0.000174
 833	8.2784e+01	3.4267	54.273234	0.000750	7.499577	1.270463	-0.000150
 834	8.2883e+01	3.4054	54.095600	0.000892	8.918416	1.510821	-0.000179
 835	8.2983e+01	3.3858	53.930078	0.000831	8.310342	1.407810	-0.000166
 836	8.3082e+01	3.3667	53.744370	0.000932	9.323799	1.579494	-0.000187
 837	8.3182e+01	3.3467	53.603070	0.000709	7.094195	1.201789	-0.000142
 838	8.3281e+01	3.3262	53.445621	0.000790	7.904960	1.339136	-0.000158
 839	8.3381e+01	3.3070	53.263950	0.000912	9.121107	1.545157	-0.000183
 840	8.3481e+01	3.2859	53.078242	0.000932	9.323799	1.579494	-0.000187
 841	8.3580e+01	3.2658	52.924831	0.000770	7.702268	1.304800	-0.000154
 842	8.3680e+01	3.2465	52.739123	0.000932	9.323799	1.579494	-0.000187
 843	8.3779e+01	3.2265	52.577637	0.000811	8.107651	1.373473	-0.000162
 844	8.3879e+01	3.2061	52.420189	0.000790	7.904960	1.339136	-0.000158
 845	8.3978e+01	3.1866	52.242555	0.000892	8.918416	1.510821	-0.000179
 846	8.4078e+01	3.1673	52.085107	0.000790	7.904960	1.339136	-0.000158
 847	8.4177e+01	3.1466	51.891324	0.000973	9.729181	1.648168	-0.000195
 848	8.4276e+01	3.1271	51.762136	0.000649	6.486121	1.098779	-0.000130
 849	8.4376e+01	3.1077	51.592576	0.000851	8.513034	1.442147	-0.000170
 850	8.4475e+01	3.0889	51.398794	0.000973	9.729181	1.648168	-0.000195
 851	8.4575e+01	3.0679	51.233271	0.000831	8.310342	1.407810	-0.000166
 852	8.4674e+01	3.0470	51.083897	0.000750	7.499577	1.270463	-0.000150
 853	8.4774e+01	3.0264	50.906263	0.000892	8.918416	1.510821	-0.000179
 854	8.4874e+01	3.0080	50.748815	0.000790	7.904960	1.339136	-0.000158
 855	8.4973e+01	2.9873	50.559069	0.000953	9.526490	1.613831	-0.000191
 856	8.5073e+01	2.9675	50.385473	0.000872	8.715725	1.476484	-0.000174
 857	8.5172e+01	2.9478	50.191690	0.000973	9.729181	1.648168	-0.000195
 858	8.5272e+01	2.9277	50.026167	0.000831	8.310342	1.407810	-0.000166
 859	8.5371e+01	2.9085	49.872756	0.000770	7.702268	1.304800	-0.000154
 860	8.5471e+01	2.8869	49.727419	0.000730	7.296886	1.236126	-0.000146
 861	8.5570e+01	2.8688	49.505377	0.001115	11.148020	1.888526	-0.000223
 862	8.5669e+01	2.8484	49.343892	0.000811	8.107651	1.373473	-0.000162
 863	8.5769e+01	2.8278	49.133960	0.001054	10.539946	1.785515	-0.000211
 864	8.5868e+01	2.8082	48.980549	0.000770	7.702268	1.304800	-0.000154
 865	8.5968e+01	2.7886	48.871547	0.000547	5.472664	0.927094	-0.000110
 866	8.6067e+01	2.7687	48.649504	0.001115	11.148020	1.888526	-0.000223
 867	8.6167e+01	2.7484	48.463796	0.000932	9.323799	1.579494	-0.000187
 868	8.6266e+01	2.7280	48.326533	0.000689	6.891503	1.167452	-0.000138
 869	8.6366e+01	2.7084	48.128714	0.000993	9.931873	1.682505	-0.000199
 870	8.6466e+01	2.6885	47.943005	0.000932	9.323799	1.579494	-0.000187
 871	8.6565e+01	2.6679	47.793631	0.000750	7.499577	1.270463	-0.000150
 872	8.6665e+01	2.6485	47.591775	0.001013	10.134564	1.716842	-0.000203
 873	8.6764e+01	2.6286	47.438363	0.000770	7.702268	1.304800	-0.000154
 874	8.6864e+01	2.6084	47.301101	0.000689	6.891503	1.167452	-0.000138
 875	8.6963e+01	2.5890	47.075021	0.001135	11.350711	1.922863	-0.000227
 876	8.7063e+01	2.5695	46.921610	0.000770	7.702268	1.304800	-0.000154
 877	8.7162e+01	2.5494	46.731865	0.000953	9.526490	1.613831	-0.000191
 878	8.7261e+01	2.5292	46.562305	0.000851	8.513034	1.442147	-0.000170
 879	8.7361e+01	2.5100	46.384671	0.000892	8.918416	1.510821	-0.000179
 880	8.7460e+01	2.4891	46.178777	0.001034	10.337255	1.751178	-0.000207
 881	8.7560e+01	2.4702	46.001143	0.000892	8.918416	1.510821	-0.000179
 882	8.7659e+01	2.4502	45.831583	0.000851	8.513034	1.442147	-0.000170
 883	8.7759e+01	2.4300	45.674135	0.000790	7.904960	1.339136	-0.000158
 884	8.7859e+01	2.4099	45.431907	0.001216	12.161477	2.060210	-0.000243
 885	8.7958e+01	2.3903	45.290607	0.000709	7.094195	1.201789	-0.000142
 886	8.8058e+01	2.3702	45.080676	0.001054	10.539946	1.785515	-0.000211
 887	8.8157e+01	2.3498	44.899005	0.000912	9.121107	1.545157	-0.000183
 888	8.8257e+01	2.3299	44.713297	0.000932	9.323799	1.579494	-0.000187
 889	8.8356e+01	2.3100	44.584109	0.000649	6.486121	1.098779	-0.000130
 890	8.8456e+01	2.2896	44.374177	0.001054	10.539946	1.785515	-0.000211
 891	8.8555e+01	2.2694	44.204618	0.000851	8.513034	1.442147	-0.000170
 892	8.8654e+01	2.2505	43.958352	0.001236	12.364168	2.094547	-0.000248
 893	8.8754e+01	2.2294	43.813016	0.000730	7.296886	1.236126	-0.000146
 894	8.8853e+01	2.2101	43.627307	0.000932	9.323799	1.579494	-0.000187
 895	8.8953e+01	2.1906	43.437562	0.000953	9.526490	1.613831	-0.000191
 896	8.9052e+01	2.1703	43.280114	0.000790	7.904960	1.339136	-0.000158
 897	8.9152e+01	2.1519	43.025774	0.001277	12.769550	2.163220	-0.000256
 898	8.9251e+01	2.1305	42.860252	0.000831	8.310342	1.407810	-0.000166
 899	8.9351e+01	2.1105	42.670506	0.000953	9.526490	1.613831	-0.000191
 900	8.9451e+01	2.0895	42.545355	0.000628	6.283430	1.064442	-0.000126
 901	8.9550e+01	2.0705	42.319275	0.001135	11.350711	1.922863	-0.000227
 902	8.9650e+01	2.0511	42.165864	0.000770	7.702268	1.304800	-0.000154
 903	8.9749e+01	2.0311	42.000342	0.000831	8.310342	1.407810	-0.000166
 904	8.9849e+01	2.0109	41.794448	0.001034	10.337255	1.751178	-0.000207
 905	8.9948e+01	1.9915	41.572405	0.001115	11.148020	1.888526	-0.000223
 906	9.0047e+01	1.9711	41.431106	0.000709	7.094195	1.201789	-0.000142
 907	9.0147e+01	1.9518	41.269620	0.000811	8.107651	1.373473	-0.000162
 908	9.0246e+01	1.9318	41.043540	0.001135	11.350711	1.922863	-0.000227
 909	9.0346e+01	1.9118	40.841684	0.001013	10.134564	1.716842	-0.000203
 910	9.0445e+01	1.8916	40.668087	0.000872	8.715725	1.476484	-0.000174
 911	9.0545e+01	1.8722	40.490453	0.000892	8.918416	1.510821	-0.000179
 912	9.0644e+01	1.8508	40.308782	0.000912	9.121107	1.545157	-0.000183
 913	9.0744e+01	1.8324	40.106925	0.001013	10.134564	1.716842	-0.000203
 914	9.0844e+01	1.8115	39.917180	0.000953	9.526490	1.613831	-0.000191
 915	9.0943e+01	1.7924	39.747620	0.000851	8.513034	1.442147	-0.000170
 916	9.1043e+01	1.7721	39.553837	0.000973	9.729181	1.648168	-0.000195
 917	9.1142e+01	1.7519	39.356018	0.000993	9.931873	1.682505	-0.000199
 918	9.1242e+01	1.7323	39.125901	0.001155	11.553403	1.957199	-0.000231
 919	9.1341e+01	1.7120	38.972490	0.000770	7.702268	1.304800	-0.000154
 920	9.1441e+01	1.6925	38.782744	0.000953	9.526490	1.613831	-0.000191
 921	9.1540e+01	1.6725	38.580888	0.001013	10.134564	1.716842	-0.000203
 922	9.1639e+01	1.6529	38.443625	0.000689	6.891503	1.167452	-0.000138
 923	9.1739e+01	1.6328	38.241768	0.001013	10.134564	1.716842	-0.000203
 924	9.1838e+01	1.6122	38.047986	0.000973	9.729181	1.648168	-0.000195
 925	9.1938e+01	1.5928	37.829980	0.001095	10.945329	1.854189	-0.000219
 926	9.2037e+01	1.5737	37.700792	0.000649	6.486121	1.098779	-0.000130
 927	9.2137e+01	1.5579	37.454527	0.001236	12.364168	2.094547	-0.000248
 928	9.2237e+01	1.5336	37.280930	0.000872	8.715725	1.476484	-0.000174
 929	9.2336e+01	1.5132	37.079073	0.001013	10.134564	1.716842	-0.000203
 930	9.2436e+01	1.4927	36.881254	0.000993	9.931873	1.682505	-0.000199
 931	9.2535e+01	1.4729	36.707657	0.000872	8.715725	1.476484	-0.000174
 932	9.2635e+01	1.4535	36.538097	0.000851	8.513034	1.442147	-0.000170
 933	9.2734e+01	1.4333	36.324129	0.001074	10.742638	1.819852	-0.000215
 934	9.2834e+01	1.4132	36.122272	0.001013	10.134564	1.716842	-0.000203
 935	9.2933e+01	1.3929	35.956749	0.000831	8.310342	1.407810	-0.000166
 936	9.3032e+01	1.3727	35.767004	0.000953	9.526490	1.613831	-0.000191
 937	9.3132e+01	1.3539	35.581296	0.000932	9.323799	1.579494	-0.000187
 938	9.3231e+01	1.3340	35.379439	0.001013	10.134564	1.716842	-0.000203
 939	9.3331e+01	1.3134	35.169508	0.001054	10.539946	1.785515	-0.000211
 940	9.3430e+01	1.2949	34.999948	0.000851	8.513034	1.442147	-0.000170
 941	9.3530e+01	1.2731	34.769832	0.001155	11.553403	1.957199	-0.000231
 942	9.3629e+01	1.2547	34.616420	0.000770	7.702268	1.304800	-0.000154
 943	9.3729e+01	1.2343	34.398415	0.001095	10.945329	1.854189	-0.000219
 944	9.3829e+01	1.2146	34.176373	0.001115	11.148020	1.888526	-0.000223
 945	9.3928e+01	1.1953	34.014887	0.000811	8.107651	1.373473	-0.000162
 946	9.4028e+01	1.1742	33.800919	0.001074	10.742638	1.819852	-0.000215
 947	9.4127e+01	1.1551	33.607136	0.000973	9.729181	1.648168	-0.000195
 948	9.4227e+01	1.1340	33.449688	0.000790	7.904960	1.339136	-0.000158
 949	9.4326e+01	1.1155	33.243794	0.001034	10.337255	1.751178	-0.000207
 950	9.4425e+01	1.0950	33.066160	0.000892	8.918416	1.510821	-0.000179
 951	9.4525e+01	1.0750	32.844118	0.001115	11.148020	1.888526	-0.000223
 952	9.4624e+01	1.0555	32.622075	0.001115	11.148020	1.888526	-0.000223
 953	9.4724e+01	1.0349	32.452516	0.000851	8.513034	1.442147	-0.000170
 954	9.4823e+01	1.0152	32.242585	0.001054	10.539946	1.785515	-0.000211
 955	9.4923e+01	0.9955	32.020542	0.001115	11.148020	1.888526	-0.000223
 956	9.5022e+01	0.9752	31.883279	0.000689	6.891503	1.167452	-0.000138
 957	9.5122e+01	0.9558	31.693534	0.000953	9.526490	1.613831	-0.000191
 958	9.5222e+01	0.9352	31.471492	0.001115	11.148020	1.888526	-0.000223
 959	9.5321e+01	0.9153	31.285783	0.000932	9.323799	1.579494	-0.000187
 960	9.5421e+01	0.8955	31.083927	0.001013	10.134564	1.716842	-0.000203
 961	9.5520e+01	0.8772	30.857847	0.001135	11.350711	1.922863	-0.000227
 962	9.5620e+01	0.8566	30.692324	0.000831	8.310342	1.407810	-0.000166
 963	9.5719e+01	0.8359	30.518728	0.000872	8.715725	1.476484	-0.000174
 964	9.5819e+01	0.8154	30.288611	0.001155	11.553403	1.957199	-0.000231
 965	9.5918e+01	0.7961	30.123088	0.000831	8.310342	1.407810	-0.000166
 966	9.6017e+01	0.7761	29.925269	0.000993	9.931873	1.682505	-0.000199
 967	9.6117e+01	0.7568	29.711300	0.001074	10.742638	1.819852	-0.000215
 968	9.6216e+01	0.7365	29.513481	0.000993	9.931873	1.682505	-0.000199
 969	9.6316e+01	0.7165	29.331810	0.000912	9.121107	1.545157	-0.000183
 970	9.6415e+01	0.6959	29.158213	0.000872	8.715725	1.476484	-0.000174
 971	9.6515e+01	0.6771	28.936170	0.001115	11.148020	1.888526	-0.000223
 972	9.6615e+01	0.6564	28.754499	0.000912	9.121107	1.545157	-0.000183
 973	9.6714e+01	0.6380	28.524383	0.001155	11.553403	1.957199	-0.000231
 974	9.6814e+01	0.6166	28.342711	0.000912	9.121107	1.545157	-0.000183
 975	9.6913e+01	0.5972	28.120669	0.001115	11.148020	1.888526	-0.000223
 976	9.7013e+01	0.5769	27.951109	0.000851	8.513034	1.442147	-0.000170
 977	9.7112e+01	0.5573	27.797698	0.000770	7.702268	1.304800	-0.000154
 978	9.7212e+01	0.5378	27.571619	0.001135	11.350711	1.922863	-0.000227
 979	9.7311e+01	0.5173	27.357650	0.001074	10.742638	1.819852	-0.000215
 980	9.7410e+01	0.4970	27.151756	0.001034	10.337255	1.751178	-0.000207
 981	9.7510e+01	0.4768	26.970085	0.000912	9.121107	1.545157	-0.000183
 982	9.7609e+01	0.4568	26.772266	0.000993	9.931873	1.682505	-0.000199
 983	9.7709e+01	0.4376	26.558297	0.001074	10.742638	1.819852	-0.000215
 984	9.7808e+01	0.4173	26.384701	0.000872	8.715725	1.476484	-0.000174
 985	9.7908e+01	0.3979	26.198992	0.000932	9.323799	1.579494	-0.000187
 986	9.8007e+01	0.3783	25.989061	0.001054	10.539946	1.785515	-0.000211
 987	9.8107e+01	0.3576	25.807390	0.000912	9.121107	1.545157	-0.000183
 988	9.8207e+01	0.3370	25.569199	0.001196	11.958785	2.025873	-0.000239
 989	9.8306e+01	0.3178	25.399639	0.000851	8.513034	1.442147	-0.000170
 990	9.8406e+01	0.2974	25.201820	0.000993	9.931873	1.682505	-0.000199
 991	9.8505e+01	0.2785	24.967666	0.001176	11.756094	1.991536	-0.000235
 992	9.8605e+01	0.2581	24.745624	0.001115	11.148020	1.888526	-0.000223
 993	9.8704e+01	0.2380	24.592212	0.000770	7.702268	1.304800	-0.000154
 994	9.8803e+01	0.2182	24.374207	0.001095	10.945329	1.854189	-0.000219
 995	9.8903e+01	0.1987	24.200610	0.000872	8.715725	1.476484	-0.000174
 996	9.9002e+01	0.1791	23.978568	0.001115	11.148020	1.888526	-0.000223
 997	9.9102e+01	0.1589	23.788822	0.000953	9.526490	1.613831	-0.000191
 998	9.9201e+01	0.1381	23.574854	0.001074	10.742638	1.819852	-0.000215
 999	9.9301e+01	0.1183	23.389146	0.000932	9.323799	1.579494	-0.000187
1000	9.9400e+01	0.0988	23.150955	0.001196	11.958785	2.025873	-0.000239
1001	9.9500e+01	0.0790	22.961210	0.000953	9.526490	1.613831	-0.000191
1002	9.9600e+01	0.0584	22.759353	0.001013	10.134564	1.716842	-0.000203
1003	9.9699e+01	0.0385	22.561533	0.000993	9.931873	1.682505	-0.000199
1004	9.9799e+01	0.0195	22.351602	0.001054	10.539946	1.785515	-0.000211
1005	9.9898e+01	0.0002	22.141671	0.001054	10.539946	1.785515	-0.000211
1006	9.9998e+01	-0.0195	21.976148	0.000831	8.310342	1.407810	-0.000166
1007	1.0010e+02	-0.0385	21.778329	0.000993	9.931873	1.682505	-0.000199
1008	1.0020e+02	-0.0598	21.564361	0.001074	10.742638	1.819852	-0.000215
1009	1.0030e+02	-0.0784	21.366541	0.000993	9.931873	1.682505	-0.000199
1010	1.0040e+02	-0.0988	21.152573	0.001074	10.742638	1.819852	-0.000215
1011	1.0050e+02	-0.1192	20.966864	0.000932	9.323799	1.579494	-0.000187
1012	1.0059e+02	-0.1386	20.732711	0.001176	11.756094	1.991536	-0.000235
1013	1.0069e+02	-0.1594	20.567188	0.000831	8.310342	1.407810	-0.000166
1014	1.0079e+02	-0.1785	20.333034	0.001176	11.756094	1.991536	-0.000235
1015	1.0089e+02	-0.1978	20.143289	0.000953	9.526490	1.613831	-0.000191
1016	1.0099e+02	-0.2178	19.941432	0.001013	10.134564	1.716842	-0.000203
1017	1.0109e+02	-0.2390	19.755724	0.000932	9.323799	1.579494	-0.000187
1018	1.0119e+02	-0.2586	19.529644	0.001135	11.350711	1.922863	-0.000227
1019	1.0129e+02	-0.2777	19.331824	0.000993	9.931873	1.682505	-0.000199
1020	1.0139e+02	-0.2986	19.146116	0.000932	9.323799	1.579494	-0.000187
1021	1.0149e+02	-0.3180	18.928111	0.001095	10.945329	1.854189	-0.000219
1022	1.0159e+02	-0.3384	18.702031	0.001135	11.350711	1.922863	-0.000227
1023	1.0169e+02	-0.3584	18.496137	0.001034	10.337255	1.751178	-0.000207
1024	1.0179e+02	-0.3783	18.318503	0.000892	8.918416	1.510821	-0.000179
1025	1.0189e+02	-0.3967	18.092424	0.001135	11.350711	1.922863	-0.000227
1026	1.0199e+02	-0.4182	17.882493	0.001054	10.539946	1.785515	-0.000211
1027	1.0209e+02	-0.4372	17.692747	0.000953	9.526490	1.613831	-0.000191
1028	1.0219e+02	-0.4573	17.470705	0.001115	11.148020	1.888526	-0.000223
1029	1.0229e+02	-0.4773	17.272885	0.000993	9.931873	1.682505	-0.000199
1030	1.0239e+02	-0.4964	17.058917	0.001074	10.742638	1.819852	-0.000215
1031	1.0248e+02	-0.5176	16.869172	0.000953	9.526490	1.613831	-0.000191
1032	1.0258e+02	-0.5373	16.655203	0.001074	10.742638	1.819852	-0.000215
1033	1.0268e+02	-0.5582	16.453347	0.001013	10.134564	1.716842	-0.000203
1034	1.0278e+02	-0.5779	16.251490	0.001013	10.134564	1.716842	-0.000203
1035	1.0288e+02	-0.5967	16.077893	0.000872	8.715725	1.476484	-0.000174
1036	1.0298e+02	-0.6177	15.823554	0.001277	12.769550	2.163220	-0.000256
1037	1.0308e+02	-0.6369	15.633808	0.000953	9.526490	1.613831	-0.000191
1038	1.0318e+02	-0.6564	15.407729	0.001135	11.350711	1.922863	-0.000227
1039	1.0328e+02	-0.6770	15.205872	0.001013	10.134564	1.716842	-0.000203
1040	1.0338e+02	-0.6964	15.028238	0.000892	8.918416	1.510821	-0.000179
1041	1.0348e+02	-0.7168	14.810232	0.001095	10.945329	1.854189	-0.000219
1042	1.0358e+02	-0.7358	14.588190	0.001115	11.148020	1.888526	-0.000223
1043	1.0368e+02	-0.7559	14.390370	0.000993	9.931873	1.682505	-0.000199
1044	1.0378e+02	-0.7755	14.160254	0.001155	11.553403	1.957199	-0.000231
1045	1.0388e+02	-0.7959	13.954360	0.001034	10.337255	1.751178	-0.000207
1046	1.0398e+02	-0.8161	13.740391	0.001074	10.742638	1.819852	-0.000215
1047	1.0408e+02	-0.8356	13.550646	0.000953	9.526490	1.613831	-0.000191
1048	1.0418e+02	-0.8565	13.352826	0.000993	9.931873	1.682505	-0.000199
1049	1.0428e+02	-0.8760	13.118673	0.001176	11.756094	1.991536	-0.000235
1050	1.0438e+02	-0.8952	12.876444	0.001216	12.161477	2.060210	-0.000243
1051	1.0447e+02	-0.9156	12.690736	0.000932	9.323799	1.579494	-0.000187
1052	1.0457e+02	-0.9358	12.476768	0.001074	10.742638	1.819852	-0.000215
1053	1.0467e+02	-0.9568	12.295097	0.000912	9.121107	1.545157	-0.000183
1054	1.0477e+02	-0.9763	12.089203	0.001034	10.337255	1.751178	-0.000207
1055	1.0487e+02	-0.9949	11.863123	0.001135	11.350711	1.922863	-0.000227
1056	1.0497e+02	-1.0149	11.612821	0.001257	12.566859	2.128884	-0.000252
1057	1.0507e+02	-1.0350	11.419038	0.000973	9.729181	1.648168	-0.000195
1058	1.0517e+02	-1.0561	11.217182	0.001013	10.134564	1.716842	-0.000203
1059	1.0527e+02	-1.0754	11.023399	0.000973	9.729181	1.648168	-0.000195
1060	1.0537e+02	-1.0955	10.833654	0.000953	9.526490	1.613831	-0.000191
1061	1.0547e+02	-1.1160	10.542980	0.001459	14.593772	2.472252	-0.000292
1062	1.0557e+02	-1.1356	10.316900	0.001135	11.350711	1.922863	-0.000227
1063	1.0567e+02	-1.1556	10.143304	0.000872	8.715725	1.476484	-0.000174
1064	1.0577e+02	-1.1741	9.921261	0.001115	11.148020	1.888526	-0.000223
1065	1.0587e+02	-1.1945	9.747664	0.000872	8.715725	1.476484	-0.000174
1066	1.0597e+02	-1.2148	9.513510	0.001176	11.756094	1.991536	-0.000235
1067	1.0607e+02	-1.2360	9.303579	0.001054	10.539946	1.785515	-0.000211
1068	1.0617e+02	-1.2550	9.073463	0.001155	11.553403	1.957199	-0.000231
1069	1.0627e+02	-1.2737	8.883717	0.000953	9.526490	1.613831	-0.000191
1070	1.0637e+02	-1.2935	8.653600	0.001155	11.553403	1.957199	-0.000231
1071	1.0647e+02	-1.3139	8.431558	0.001115	11.148020	1.888526	-0.000223
1072	1.0656e+02	-1.3335	8.278147	0.000770	7.702268	1.304800	-0.000154
1073	1.0666e+02	-1.3545	8.007659	0.001358	13.580316	2.300568	-0.000272
1074	1.0676e+02	-1.3738	7.842136	0.000831	8.310342	1.407810	-0.000166
1075	1.0686e+02	-1.3938	7.632205	0.001054	10.539946	1.785515	-0.000211
1076	1.0696e+02	-1.4128	7.430348	0.001013	10.134564	1.716842	-0.000203
1077	1.0706e+02	-1.4334	7.212343	0.001095	10.945329	1.854189	-0.000219
1078	1.0716e+02	-1.4535	6.978189	0.001176	11.756094	1.991536	-0.000235
1079	1.0726e+02	-1.4725	6.764221	0.001074	10.742638	1.819852	-0.000215
1080	1.0736e+02	-1.4894	6.562364	0.001013	10.134564	1.716842	-0.000203
1081	1.0746e+02	-1.5132	6.356470	0.001034	10.337255	1.751178	-0.000207
1082	1.0756e+02	-1.5339	6.134428	0.001115	11.148020	1.888526	-0.000223
1083	1.0766e+02	-1.5533	5.964868	0.000851	8.513034	1.442147	-0.000170
1084	1.0776e+02	-1.5731	5.742826	0.001115	11.148020	1.888526	-0.000223
1085	1.0786e+02	-1.5931	5.536932	0.001034	10.337255	1.751178	-0.000207
1086	1.0796e+02	-1.6128	5.318926	0.001095	10.945329	1.854189	-0.000219
1087	1.0806e+02	-1.6330	5.100921	0.001095	10.945329	1.854189	-0.000219
1088	1.0816e+02	-1.6524	4.886953	0.001074	10.742638	1.819852	-0.000215
1089	1.0826e+02	-1.6718	4.685096	0.001013	10.134564	1.716842	-0.000203
1090	1.0836e+02	-1.6927	4.507462	0.000892	8.918416	1.510821	-0.000179
1091	1.0845e+02	-1.7131	4.208714	0.001500	14.999154	2.540926	-0.000300
1092	1.0855e+02	-1.7326	4.051266	0.000790	7.904960	1.339136	-0.000158
1093	1.0865e+02	-1.7529	3.833260	0.001095	10.945329	1.854189	-0.000219
1094	1.0875e+02	-1.7719	3.619292	0.001074	10.742638	1.819852	-0.000215
1095	1.0885e+02	-1.7918	3.381101	0.001196	11.958785	2.025873	-0.000239
1096	1.0895e+02	-1.8125	3.203467	0.000892	8.918416	1.510821	-0.000179
1097	1.0905e+02	-1.8327	3.013722	0.000953	9.526490	1.613831	-0.000191
1098	1.0915e+02	-1.8517	2.791679	0.001115	11.148020	1.888526	-0.000223
1099	1.0925e+02	-1.8718	2.557525	0.001176	11.756094	1.991536	-0.000235
1100	1.0935e+02	-1.8921	2.363743	0.000973	9.729181	1.648168	-0.000195
1101	1.0945e+02	-1.9120	2.165923	0.000993	9.931873	1.682505	-0.000199
1102	1.0955e+02	-1.9315	1.935807	0.001155	11.553403	1.957199	-0.000231
1103	1.0965e+02	-1.9511	1.750098	0.000932	9.323799	1.579494	-0.000187
1104	1.0975e+02	-1.9714	1.540167	0.001054	10.539946	1.785515	-0.000211
1105	1.0985e+02	-1.9919	1.314088	0.001135	11.350711	1.922863	-0.000227
1106	1.0995e+02	-2.0119	1.092045	0.001115	11.148020	1.888526	-0.000223
1107	1.1005e+02	-2.0317	0.890188	0.001013	10.134564	1.716842	-0.000203
1108	1.1015e+02	-2.0520	0.676220	0.001074	10.742638	1.819852	-0.000215
1109	1.1025e+02	-2.0724	0.466289	0.001054	10.539946	1.785515	-0.000211
1110	1.1035e+02	-2.0905	0.260395	0.001034	10.337255	1.751178	-0.000207
1111	1.1044e+02	-2.1114	0.010093	0.001257	12.566859	2.128884	-0.000252
1112	1.1054e+02	-2.1312	-0.147355	0.000790	7.904960	1.339136	-0.000158
1113	1.1064e+02	-2.1511	-0.341138	0.000973	9.729181	1.648168	-0.000195
1114	1.1074e+02	-2.1712	-0.583366	0.001216	12.161477	2.060210	-0.000243
1115	1.1084e+02	-2.1915	-0.793297	0.001054	10.539946	1.785515	-0.000211
1116	1.1094e+02	-2.2117	-0.991117	0.000993	9.931873	1.682505	-0.000199
1117	1.1104e+02	-2.2309	-1.213159	0.001115	11.148020	1.888526	-0.000223
1118	1.1114e+02	-2.2510	-1.435202	0.001115	11.148020	1.888526	-0.000223
1119	1.1124e+02	-2.2702	-1.596687	0.000811	8.107651	1.373473	-0.000162
1120	1.1134e+02	-2.2897	-1.834878	0.001196	11.958785	2.025873	-0.000239
1121	1.1144e+02	-2.3092	-2.028661	0.000973	9.729181	1.648168	-0.000195
1122	1.1154e+02	-2.3306	-2.246666	0.001095	10.945329	1.854189	-0.000219
1123	1.1164e+02	-2.3501	-2.452560	0.001034	10.337255	1.751178	-0.000207
1124	1.1174e+02	-2.3701	-2.666528	0.001074	10.742638	1.819852	-0.000215
1125	1.1184e+02	-2.3901	-2.896645	0.001155	11.553403	1.957199	-0.000231
1126	1.1194e+02	-2.4106	-3.090427	0.000973	9.729181	1.648168	-0.000195
1127	1.1204e+02	-2.4301	-3.288247	0.000993	9.931873	1.682505	-0.000199
1128	1.1214e+02	-2.4497	-3.498178	0.001054	10.539946	1.785515	-0.000211
1129	1.1224e+02	-2.4704	-3.724258	0.001135	11.350711	1.922863	-0.000227
1130	1.1234e+02	-2.4902	-3.909966	0.000932	9.323799	1.579494	-0.000187
1131	1.1244e+02	-2.5095	-4.095674	0.000932	9.323799	1.579494	-0.000187
1132	1.1253e+02	-2.5291	-4.329828	0.001176	11.756094	1.991536	-0.000235
1133	1.1263e+02	-2.5490	-4.527648	0.000993	9.931873	1.682505	-0.000199
1134	1.1273e+02	-2.5694	-4.741616	0.001074	10.742638	1.819852	-0.000215
1135	1.1283e+02	-2.5890	-4.931361	0.000953	9.526490	1.613831	-0.000191
1136	1.1293e+02	-2.6083	-5.141292	0.001054	10.539946	1.785515	-0.000211
1137	1.1303e+02	-2.6285	-5.335075	0.000973	9.729181	1.648168	-0.000195
1138	1.1313e+02	-2.6469	-5.553080	0.001095	10.945329	1.854189	-0.000219
1139	1.1323e+02	-2.6685	-5.750900	0.000993	9.931873	1.682505	-0.000199
1140	1.1333e+02	-2.6879	-5.952757	0.001013	10.134564	1.716842	-0.000203
1141	1.1343e+02	-2.7086	-6.122316	0.000851	8.513034	1.442147	-0.000170
1142	1.1353e+02	-2.7285	-6.356470	0.001176	11.756094	1.991536	-0.000235
1143	1.1363e+02	-2.7475	-6.578513	0.001115	11.148020	1.888526	-0.000223
1144	1.1373e+02	-2.7686	-6.748072	0.000851	8.513034	1.442147	-0.000170
1145	1.1383e+02	-2.7880	-6.933781	0.000932	9.323799	1.579494	-0.000187
1146	1.1393e+02	-2.8087	-7.139675	0.001034	10.337255	1.751178	-0.000207
1147	1.1403e+02	-2.8288	-7.361717	0.001115	11.148020	1.888526	-0.000223
1148	1.1413e+02	-2.8478	-7.547425	0.000932	9.323799	1.579494	-0.000187
1149	1.1423e+02	-2.8677	-7.741208	0.000973	9.729181	1.648168	-0.000195
1150	1.1433e+02	-2.8878	-7.979399	0.001196	11.958785	2.025873	-0.000239
1151	1.1442e+02	-2.9073	-8.177218	0.000993	9.931873	1.682505	-0.000199
1152	1.1452e+02	-2.9288	-8.338704	0.000811	8.107651	1.373473	-0.000162
1153	1.1462e+02	-2.9464	-8.556709	0.001095	10.945329	1.854189	-0.000219
1154	1.1472e+02	-2.9678	-8.786826	0.001155	11.553403	1.957199	-0.000231
1155	1.1482e+02	-2.9871	-8.972534	0.000932	9.323799	1.579494	-0.000187
1156	1.1492e+02	-3.0072	-9.142094	0.000851	8.513034	1.442147	-0.000170
1157	1.1502e+02	-3.0285	-9.376248	0.001176	11.756094	1.991536	-0.000235
1158	1.1512e+02	-3.0466	-9.541770	0.000831	8.310342	1.407810	-0.000166
1159	1.1522e+02	-3.0672	-9.763813	0.001115	11.148020	1.888526	-0.000223
1160	1.1532e+02	-3.0875	-9.977781	0.001074	10.742638	1.819852	-0.000215
1161	1.1542e+02	-3.1069	-10.183675	0.001034	10.337255	1.751178	-0.000207
1162	1.1552e+02	-3.1277	-10.357272	0.000872	8.715725	1.476484	-0.000174
1163	1.1562e+02	-3.1479	-10.559129	0.001013	10.134564	1.716842	-0.000203
1164	1.1572e+02	-3.1665	-10.744837	0.000932	9.323799	1.579494	-0.000187
1165	1.1582e+02	-3.1864	-10.946694	0.001013	10.134564	1.716842	-0.000203
1166	1.1592e+02	-3.2068	-11.184885	0.001196	11.958785	2.025873	-0.000239
1167	1.1602e+02	-3.2265	-11.358481	0.000872	8.715725	1.476484	-0.000174
1168	1.1612e+02	-3.2476	-11.564375	0.001034	10.337255	1.751178	-0.000207
1169	1.1622e+02	-3.2665	-11.770269	0.001034	10.337255	1.751178	-0.000207
1170	1.1632e+02	-3.2859	-11.980200	0.001054	10.539946	1.785515	-0.000211
1171	1.1642e+02	-3.3062	-12.157834	0.000892	8.918416	1.510821	-0.000179
1172	1.1651e+02	-3.3258	-12.359691	0.001013	10.134564	1.716842	-0.000203
1173	1.1661e+02	-3.3458	-12.533288	0.000872	8.715725	1.476484	-0.000174
1174	1.1671e+02	-3.3657	-12.767442	0.001176	11.756094	1.991536	-0.000235
1175	1.1681e+02	-3.3858	-12.949113	0.000912	9.121107	1.545157	-0.000183
1176	1.1691e+02	-3.4060	-13.106561	0.000790	7.904960	1.339136	-0.000158
1177	1.1701e+02	-3.4250	-13.332641	0.001135	11.350711	1.922863	-0.000227
1178	1.1711e+02	-3.4467	-13.538535	0.001034	10.337255	1.751178	-0.000207
1179	1.1721e+02	-3.4658	-13.740391	0.001013	10.134564	1.716842	-0.000203
1180	1.1731e+02	-3.4858	-13.982620	0.001216	12.161477	2.060210	-0.000243
1181	1.1741e+02	-3.5056	-14.176402	0.000973	9.729181	1.648168	-0.000195
1182	1.1751e+02	-3.5254	-14.333850	0.000790	7.904960	1.339136	-0.000158
1183	1.1761e+02	-3.5463	-14.555893	0.001115	11.148020	1.888526	-0.000223
1184	1.1771e+02	-3.5649	-14.745638	0.000953	9.526490	1.613831	-0.000191
1185	1.1781e+02	-3.5853	-14.931347	0.000932	9.323799	1.579494	-0.000187
1186	1.1791e+02	-3.6055	-15.108980	0.000892	8.918416	1.510821	-0.000179
1187	1.1801e+02	-3.6263	-15.343134	0.001176	11.756094	1.991536	-0.000235
1188	1.1811e+02	-3.6449	-15.520768	0.000892	8.918416	1.510821	-0.000179
1189	1.1821e+02	-3.6664	-15.722625	0.001013	10.134564	1.716842	-0.000203
1190	1.1831e+02	-3.6853	-15.880073	0.000790	7.904960	1.339136	-0.000158
1191	1.1841e+02	-3.7051	-16.106153	0.001135	11.350711	1.922863	-0.000227
1192	1.1850e+02	-3.7239	-16.324158	0.001095	10.945329	1.854189	-0.000219
1193	1.1860e+02	-3.7443	-16.509867	0.000932	9.323799	1.579494	-0.000187
1194	1.1870e+02	-3.7650	-16.651166	0.000709	7.094195	1.201789	-0.000142
1195	1.1880e+02	-3.7851	-16.881283	0.001155	11.553403	1.957199	-0.000231
1196	1.1890e+02	-3.8036	-17.071028	0.000953	9.526490	1.613831	-0.000191
1197	1.1900e+02	-3.8253	-17.260774	0.000953	9.526490	1.613831	-0.000191
1198	1.1910e+02	-3.8445	-17.466668	0.001034	10.337255	1.751178	-0.000207
1199	1.1920e+02	-3.8645	-17.607968	0.000709	7.094195	1.201789	-0.000142
1200	1.1930e+02	-3.8834	-17.817899	0.001054	10.539946	1.785515	-0.000211
1201	1.1940e+02	-3.9047	-17.999570	0.000912	9.121107	1.545157	-0.000183
1202	1.1950e+02	-3.9233	-18.201426	0.001013	10.134564	1.716842	-0.000203
1203	1.1960e+02	-3.9435	-18.403283	0.001013	10.134564	1.716842	-0.000203
1204	1.1970e+02	-3.9645	-18.576880	0.000872	8.715725	1.476484	-0.000174
1205	1.1980e+02	-3.9835	-18.778737	0.001013	10.134564	1.716842	-0.000203
1206	1.1990e+02	-4.0036	-18.948297	0.000851	8.513034	1.442147	-0.000170
1207	1.2000e+02	-4.0236	-19.182450	0.001176	11.756094	1.991536	-0.000235
1208	1.2010e+02	-4.0440	-19.372196	0.000953	9.526490	1.613831	-0.000191
1209	1.2020e+02	-4.0630	-19.570015	0.000993	9.931873	1.682505	-0.000199
1210	1.2030e+02	-4.0826	-19.755724	0.000932	9.323799	1.579494	-0.000187
1211	1.2039e+02	-4.1028	-19.953543	0.000993	9.931873	1.682505	-0.000199
1212	1.2049e+02	-4.1235	-20.167512	0.001074	10.742638	1.819852	-0.000215
1213	1.2059e+02	-4.1428	-20.341108	0.000872	8.715725	1.476484	-0.000174
1214	1.2069e+02	-4.1629	-20.547002	0.001034	10.337255	1.751178	-0.000207
1215	1.2079e+02	-4.1827	-20.712525	0.000831	8.310342	1.407810	-0.000166
1216	1.2089e+02	-4.2029	-20.914382	0.001013	10.134564	1.716842	-0.000203
1217	1.2099e+02	-4.2223	-21.140461	0.001135	11.350711	1.922863	-0.000227
1218	1.2109e+02	-4.2427	-21.297910	0.000790	7.904960	1.339136	-0.000158
1219	1.2119e+02	-4.2632	-21.491692	0.000973	9.729181	1.648168	-0.000195
1220	1.2129e+02	-4.2831	-21.713735	0.001115	11.148020	1.888526	-0.000223
1221	1.2139e+02	-4.3027	-21.911554	0.000993	9.931873	1.682505	-0.000199
1222	1.2149e+02	-4.3222	-22.105337	0.000973	9.729181	1.648168	-0.000195
1223	1.2159e+02	-4.3420	-22.274896	0.000851	8.513034	1.442147	-0.000170
1224	1.2169e+02	-4.3621	-22.444456	0.000851	8.513034	1.442147	-0.000170
1225	1.2179e+02	-4.3817	-22.666499	0.001115	11.148020	1.888526	-0.000223
1226	1.2189e+02	-4.4026	-22.827984	0.000811	8.107651	1.373473	-0.000162
1227	1.2199e+02	-4.4215	-23.025804	0.000993	9.931873	1.682505	-0.000199
1228	1.2209e+02	-4.4421	-23.207475	0.000912	9.121107	1.545157	-0.000183
1229	1.2219e+02	-4.4617	-23.445666	0.001196	11.958785	2.025873	-0.000239
1230	1.2229e+02	-4.4815	-23.619263	0.000872	8.715725	1.476484	-0.000174
1231	1.2239e+02	-4.5019	-23.817082	0.000993	9.931873	1.682505	-0.000199
1232	1.2248e+02	-4.5218	-24.014902	0.000993	9.931873	1.682505	-0.000199
1233	1.2258e+02	-4.5412	-24.172350	0.000790	7.904960	1.339136	-0.000158
1234	1.2268e+02	-4.5613	-24.374207	0.001013	10.134564	1.716842	-0.000203
1235	1.2278e+02	-4.5812	-24.580101	0.001034	10.337255	1.751178	-0.000207
1236	1.2288e+02	-4.6014	-24.781958	0.001013	10.134564	1.716842	-0.000203
1237	1.2298e+02	-4.6204	-24.955555	0.000872	8.715725	1.476484	-0.000174
1238	1.2308e+02	-4.6408	-25.133189	0.000892	8.918416	1.510821	-0.000179
1239	1.2318e+02	-4.6606	-25.331008	0.000993	9.931873	1.682505	-0.000199
1240	1.2328e+02	-4.6809	-25.536902	0.001034	10.337255	1.751178	-0.000207
1241	1.2338e+02	-4.7009	-25.722610	0.000932	9.323799	1.579494	-0.000187
1242	1.2348e+02	-4.7209	-25.896207	0.000872	8.715725	1.476484	-0.000174
1243	1.2358e+02	-4.7411	-26.098064	0.001013	10.134564	1.716842	-0.000203
1244	1.2368e+02	-4.7614	-26.275698	0.000892	8.918416	1.510821	-0.000179
1245	1.2378e+02	-4.7813	-26.521963	0.001236	12.364168	2.094547	-0.000248
1246	1.2388e+02	-4.8006	-26.659226	0.000689	6.891503	1.167452	-0.000138
1247	1.2398e+02	-4.8210	-26.848971	0.000953	9.526490	1.613831	-0.000191
1248	1.2408e+02	-4.8395	-27.022568	0.000872	8.715725	1.476484	-0.000174
1249	1.2418e+02	-4.8605	-27.248648	0.001135	11.350711	1.922863	-0.000227
1250	1.2428e+02	-4.8815	-27.422245	0.000872	8.715725	1.476484	-0.000174
1251	1.2438e+02	-4.9005	-27.611990	0.000953	9.526490	1.613831	-0.000191
1252	1.2447e+02	-4.9204	-27.834032	0.001115	11.148020	1.888526	-0.000223
1253	1.2457e+02	-4.9398	-28.019741	0.000932	9.323799	1.579494	-0.000187
1254	1.2467e+02	-4.9609	-28.209486	0.000953	9.526490	1.613831	-0.000191
1255	1.2477e+02	-4.9802	-28.391157	0.000912	9.121107	1.545157	-0.000183
1256	1.2487e+02	-5.0000	-28.544568	0.000770	7.702268	1.304800	-0.000154
1257	1.2497e+02	-5.0194	-28.734314	0.000953	9.526490	1.613831	-0.000191
1258	1.2507e+02	-5.0395	-28.956356	0.001115	11.148020	1.888526	-0.000223
1259	1.2517e+02	-5.0583	-29.146101	0.000953	9.526490	1.613831	-0.000191
1260	1.2527e+02	-5.0797	-29.331810	0.000932	9.323799	1.579494	-0.000187
1261	1.2537e+02	-5.0999	-29.529629	0.000993	9.931873	1.682505	-0.000199
1262	1.2547e+02	-5.1187	-29.687078	0.000790	7.904960	1.339136	-0.000158
1263	1.2557e+02	-5.1396	-29.860674	0.000872	8.715725	1.476484	-0.000174
1264	1.2567e+02	-5.1608	-30.054457	0.000973	9.729181	1.648168	-0.000195
1265	1.2577e+02	-5.1785	-30.268425	0.001074	10.742638	1.819852	-0.000215
1266	1.2587e+02	-5.1982	-30.405688	0.000689	6.891503	1.167452	-0.000138
1267	1.2597e+02	-5.2200	-30.635805	0.001155	11.553403	1.957199	-0.000231
1268	1.2607e+02	-5.2391	-30.821513	0.000932	9.323799	1.579494	-0.000187
1269	1.2617e+02	-5.2588	-31.015295	0.000973	9.729181	1.648168	-0.000195
1270	1.2627e+02	-5.2785	-31.201004	0.000932	9.323799	1.579494	-0.000187
1271	1.2636e+02	-5.2982	-31.410935	0.001054	10.539946	1.785515	-0.000211
1272	1.2646e+02	-5.3188	-31.580494	0.000851	8.513034	1.442147	-0.000170
1273	1.2656e+02	-5.3380	-31.798500	0.001095	10.945329	1.854189	-0.000219
1274	1.2666e+02	-5.3584	-31.968059	0.000851	8.513034	1.442147	-0.000170
1275	1.2676e+02	-5.3778	-32.137619	0.000851	8.513034	1.442147	-0.000170
1276	1.2686e+02	-5.3983	-32.299104	0.000811	8.107651	1.373473	-0.000162
1277	1.2696e+02	-5.4178	-32.529221	0.001155	11.553403	1.957199	-0.000231
1278	1.2706e+02	-5.4379	-32.686670	0.000790	7.904960	1.339136	-0.000158
1279	1.2716e+02	-5.4572	-32.941009	0.001277	12.769550	2.163220	-0.000256
1280	1.2726e+02	-5.4771	-33.118643	0.000892	8.918416	1.510821	-0.000179
1281	1.2736e+02	-5.4980	-33.219571	0.000507	5.067282	0.858421	-0.000101
1282	1.2746e+02	-5.5181	-33.510245	0.001459	14.593772	2.472252	-0.000292
1283	1.2756e+02	-5.5370	-33.704028	0.000973	9.729181	1.648168	-0.000195
1284	1.2766e+02	-5.5528	-33.881662	0.000892	8.918416	1.510821	-0.000179
1285	1.2776e+02	-5.5779	-34.063333	0.000912	9.121107	1.545157	-0.000183
1286	1.2786e+02	-5.5966	-34.281338	0.001095	10.945329	1.854189	-0.000219
1287	1.2796e+02	-5.6180	-34.410526	0.000649	6.486121	1.098779	-0.000130
1288	1.2806e+02	-5.6377	-34.600272	0.000953	9.526490	1.613831	-0.000191
1289	1.2816e+02	-5.6567	-34.802129	0.001013	10.134564	1.716842	-0.000203
1290	1.2826e+02	-5.6778	-34.959577	0.000790	7.904960	1.339136	-0.000158
1291	1.2835e+02	-5.6969	-35.173545	0.001074	10.742638	1.819852	-0.000215
1292	1.2845e+02	-5.7181	-35.375402	0.001013	10.134564	1.716842	-0.000203
1293	1.2855e+02	-5.7362	-35.540924	0.000831	8.310342	1.407810	-0.000166
1294	1.2865e+02	-5.7568	-35.746818	0.001034	10.337255	1.751178	-0.000207
1295	1.2875e+02	-5.7764	-35.944638	0.000993	9.931873	1.682505	-0.000199
1296	1.2885e+02	-5.7970	-36.158606	0.001074	10.742638	1.819852	-0.000215
1297	1.2895e+02	-5.8160	-36.316055	0.000790	7.904960	1.339136	-0.000158
1298	1.2905e+02	-5.8369	-36.485614	0.000851	8.513034	1.442147	-0.000170
1299	1.2915e+02	-5.8569	-36.683434	0.000993	9.931873	1.682505	-0.000199
1300	1.2925e+02	-5.8754	-36.913551	0.001155	11.553403	1.957199	-0.000231
1301	1.2935e+02	-5.8963	-37.087147	0.000872	8.715725	1.476484	-0.000174
1302	1.2945e+02	-5.9163	-37.284967	0.000993	9.931873	1.682505	-0.000199
1303	1.2955e+02	-5.9360	-37.446453	0.000811	8.107651	1.373473	-0.000162
1304	1.2965e+02	-5.9563	-37.616012	0.000851	8.513034	1.442147	-0.000170
1305	1.2975e+02	-5.9761	-37.862278	0.001236	12.364168	2.094547	-0.000248
1306	1.2985e+02	-5.9958	-38.056060	0.000973	9.729181	1.648168	-0.000195
1307	1.2995e+02	-6.0159	-38.217545	0.000811	8.107651	1.373473	-0.000162
1308	1.3005e+02	-6.0354	-38.395179	0.000892	8.918416	1.510821	-0.000179
1309	1.3015e+02	-6.0547	-38.605110	0.001054	10.539946	1.785515	-0.000211
1310	1.3025e+02	-6.0757	-38.766596	0.000811	8.107651	1.373473	-0.000162
1311	1.3034e+02	-6.0950	-38.968453	0.001013	10.134564	1.716842	-0.000203
1312	1.3044e+02	-6.1156	-39.166272	0.000993	9.931873	1.682505	-0.000199
1313	1.3054e+02	-6.1353	-39.339869	0.000872	8.715725	1.476484	-0.000174
1314	1.3064e+02	-6.1557	-39.521540	0.000912	9.121107	1.545157	-0.000183
1315	1.3074e+02	-6.1754	-39.751657	0.001155	11.553403	1.957199	-0.000231
1316	1.3084e+02	-6.1954	-39.909105	0.000790	7.904960	1.339136	-0.000158
1317	1.3094e+02	-6.2157	-40.127111	0.001095	10.945329	1.854189	-0.000219
1318	1.3104e+02	-6.2352	-40.353190	0.001135	11.350711	1.922863	-0.000227
1319	1.3114e+02	-6.2550	-40.478341	0.000628	6.283430	1.064442	-0.000126
1320	1.3124e+02	-6.2743	-40.704421	0.001135	11.350711	1.922863	-0.000227
1321	1.3134e+02	-6.2952	-40.861869	0.000790	7.904960	1.339136	-0.000158
1322	1.3144e+02	-6.3148	-41.063726	0.001013	10.134564	1.716842	-0.000203
1323	1.3154e+02	-6.3341	-41.253472	0.000953	9.526490	1.613831	-0.000191
1324	1.3164e+02	-6.3544	-41.495700	0.001216	12.161477	2.060210	-0.000243
1325	1.3174e+02	-6.3733	-41.628925	0.000669	6.688812	1.133115	-0.000134
1326	1.3184e+02	-6.3950	-41.875190	0.001236	12.364168	2.094547	-0.000248
1327	1.3194e+02	-6.4145	-42.056862	0.000912	9.121107	1.545157	-0.000183
1328	1.3204e+02	-6.4337	-42.270830	0.001074	10.742638	1.819852	-0.000215
1329	1.3214e+02	-6.4539	-42.424241	0.000770	7.702268	1.304800	-0.000154
1330	1.3224e+02	-6.4741	-42.674543	0.001257	12.566859	2.128884	-0.000252
1331	1.3234e+02	-6.4946	-42.815843	0.000709	7.094195	1.201789	-0.000142
1332	1.3243e+02	-6.5140	-43.021737	0.001034	10.337255	1.751178	-0.000207
1333	1.3253e+02	-6.5335	-43.227631	0.001034	10.337255	1.751178	-0.000207
1334	1.3263e+02	-6.5533	-43.449673	0.001115	11.148020	1.888526	-0.000223
1335	1.3273e+02	-6.5741	-43.607122	0.000790	7.904960	1.339136	-0.000158
1336	1.3283e+02	-6.5929	-43.796867	0.000953	9.526490	1.613831	-0.000191
1337	1.3293e+02	-6.6137	-43.998724	0.001013	10.134564	1.716842	-0.000203
1338	1.3303e+02	-6.6333	-44.192506	0.000973	9.729181	1.648168	-0.000195
1339	1.3313e+02	-6.6531	-44.426660	0.001176	11.756094	1.991536	-0.000235
1340	1.3323e+02	-6.6736	-44.648703	0.001115	11.148020	1.888526	-0.000223
1341	1.3333e+02	-6.6927	-44.814225	0.000831	8.310342	1.407810	-0.000166
1342	1.3343e+02	-6.7130	-45.012045	0.000993	9.931873	1.682505	-0.000199
1343	1.3353e+02	-6.7331	-45.226013	0.001074	10.742638	1.819852	-0.000215
1344	1.3363e+02	-6.7529	-45.415758	0.000953	9.526490	1.613831	-0.000191
1345	1.3373e+02	-6.7725	-45.649912	0.001176	11.756094	1.991536	-0.000235
1346	1.3383e+02	-6.7926	-45.851769	0.001013	10.134564	1.716842	-0.000203
1347	1.3393e+02	-6.8134	-46.049589	0.000993	9.931873	1.682505	-0.000199
1348	1.3403e+02	-6.8329	-46.271631	0.001115	11.148020	1.888526	-0.000223
1349	1.3413e+02	-6.8527	-46.421005	0.000750	7.499577	1.270463	-0.000150
1350	1.3423e+02	-6.8724	-46.634973	0.001074	10.742638	1.819852	-0.000215
1351	1.3432e+02	-6.8916	-46.865090	0.001155	11.553403	1.957199	-0.000231
1352	1.3442e+02	-6.9136	-47.022539	0.000790	7.904960	1.339136	-0.000158
1353	1.3452e+02	-6.9318	-47.244581	0.001115	11.148020	1.888526	-0.000223
1354	1.3462e+02	-6.9530	-47.446438	0.001013	10.134564	1.716842	-0.000203
1355	1.3472e+02	-6.9717	-47.688666	0.001216	12.161477	2.060210	-0.000243
1356	1.3482e+02	-6.9922	-47.898597	0.001054	10.539946	1.785515	-0.000211
1357	1.3492e+02	-7.0119	-48.060082	0.000811	8.107651	1.373473	-0.000162
1358	1.3502e+02	-7.0319	-48.286162	0.001135	11.350711	1.922863	-0.000227
1359	1.3512e+02	-7.0508	-48.496093	0.001054	10.539946	1.785515	-0.000211
1360	1.3522e+02	-7.0712	-48.677764	0.000912	9.121107	1.545157	-0.000183
1361	1.3532e+02	-7.0914	-48.924029	0.001236	12.364168	2.094547	-0.000248
1362	1.3542e+02	-7.1117	-49.117812	0.000973	9.729181	1.648168	-0.000195
1363	1.3552e+02	-7.1313	-49.343892	0.001135	11.350711	1.922863	-0.000227
1364	1.3562e+02	-7.1518	-49.553823	0.001054	10.539946	1.785515	-0.000211
1365	1.3572e+02	-7.1714	-49.755679	0.001013	10.134564	1.716842	-0.000203
1366	1.3582e+02	-7.1915	-49.941388	0.000932	9.323799	1.579494	-0.000187
1367	1.3592e+02	-7.2122	-50.147282	0.001034	10.337255	1.751178	-0.000207
1368	1.3602e+02	-7.2311	-50.369324	0.001115	11.148020	1.888526	-0.000223
1369	1.3612e+02	-7.2507	-50.615589	0.001236	12.364168	2.094547	-0.000248
1370	1.3622e+02	-7.2713	-50.833595	0.001095	10.945329	1.854189	-0.000219
1371	1.3631e+02	-7.2906	-51.043526	0.001054	10.539946	1.785515	-0.000211
1372	1.3641e+02	-7.3106	-51.237308	0.000973	9.729181	1.648168	-0.000195
1373	1.3651e+02	-7.3312	-51.487611	0.001257	12.566859	2.128884	-0.000252
1374	1.3661e+02	-7.3508	-51.645059	0.000790	7.904960	1.339136	-0.000158
1375	1.3671e+02	-7.3711	-51.863064	0.001095	10.945329	1.854189	-0.000219
1376	1.3681e+02	-7.3901	-52.137589	0.001378	13.783007	2.334905	-0.000276
1377	1.3691e+02	-7.4109	-52.315223	0.000892	8.918416	1.510821	-0.000179
1378	1.3701e+02	-7.4319	-52.541303	0.001135	11.350711	1.922863	-0.000227
1379	1.3711e+02	-7.4500	-52.759308	0.001095	10.945329	1.854189	-0.000219
1380	1.3721e+02	-7.4704	-52.989425	0.001155	11.553403	1.957199	-0.000231
1381	1.3731e+02	-7.4899	-53.231653	0.001216	12.161477	2.060210	-0.000243
1382	1.3741e+02	-7.5098	-53.397176	0.000831	8.310342	1.407810	-0.000166
1383	1.3751e+02	-7.5296	-53.663627	0.001338	13.377624	2.266231	-0.000268
1384	1.3761e+02	-7.5500	-53.873558	0.001054	10.539946	1.785515	-0.000211
1385	1.3771e+02	-7.5688	-54.095600	0.001115	11.148020	1.888526	-0.000223
1386	1.3781e+02	-7.5882	-54.337828	0.001216	12.161477	2.060210	-0.000243
1387	1.3791e+02	-7.6091	-54.559871	0.001115	11.148020	1.888526	-0.000223
1388	1.3801e+02	-7.6288	-54.806136	0.001236	12.364168	2.094547	-0.000248
1389	1.3811e+02	-7.6489	-54.991844	0.000932	9.323799	1.579494	-0.000187
1390	1.3821e+02	-7.6686	-55.262333	0.001358	13.580316	2.300568	-0.000272
1391	1.3831e+02	-7.6892	-55.492449	0.001155	11.553403	1.957199	-0.000231
1392	1.3840e+02	-7.7090	-55.722566	0.001155	11.553403	1.957199	-0.000231
1393	1.3850e+02	-7.7290	-55.936534	0.001074	10.742638	1.819852	-0.000215
1394	1.3860e+02	-7.7485	-56.178762	0.001216	12.161477	2.060210	-0.000243
1395	1.3870e+02	-7.7681	-56.412916	0.001176	11.756094	1.991536	-0.000235
1396	1.3880e+02	-7.7885	-56.643033	0.001155	11.553403	1.957199	-0.000231
1397	1.3890e+02	-7.8085	-56.844890	0.001013	10.134564	1.716842	-0.000203
1398	1.3900e+02	-7.8284	-57.111341	0.001338	13.377624	2.266231	-0.000268
1399	1.3910e+02	-7.8479	-57.381829	0.001358	13.580316	2.300568	-0.000272
1400	1.3920e+02	-7.8680	-57.595797	0.001074	10.742638	1.819852	-0.000215
1401	1.3930e+02	-7.8879	-57.874359	0.001399	13.985698	2.369241	-0.000280
1402	1.3940e+02	-7.9077	-58.084290	0.001054	10.539946	1.785515	-0.000211
1403	1.3950e+02	-7.9286	-58.354779	0.001358	13.580316	2.300568	-0.000272
1404	1.3960e+02	-7.9487	-58.592970	0.001196	11.958785	2.025873	-0.000239
1405	1.3970e+02	-7.9680	-58.819049	0.001135	11.350711	1.922863	-0.000227
1406	1.3980e+02	-7.9879	-59.024943	0.001034	10.337255	1.751178	-0.000207
1407	1.3990e+02	-8.0074	-59.295431	0.001358	13.580316	2.300568	-0.000272
1408	1.4000e+02	-8.0281	-59.537659	0.001216	12.161477	2.060210	-0.000243
1409	1.4010e+02	-8.0453	-59.739516	0.001013	10.134564	1.716842	-0.000203
1410	1.4020e+02	-8.0681	-59.985781	0.001236	12.364168	2.094547	-0.000248
1411	1.4029e+02	-8.0865	-60.248195	0.001317	13.174933	2.231894	-0.000264
1412	1.4039e+02	-8.1065	-60.502535	0.001277	12.769550	2.163220	-0.000256
1413	1.4049e+02	-8.1271	-60.760911	0.001297	12.972242	2.197557	-0.000260
1414	1.4059e+02	-8.1465	-61.027362	0.001338	13.377624	2.266231	-0.000268
1415	1.4069e+02	-8.1668	-61.273628	0.001236	12.364168	2.094547	-0.000248
1416	1.4079e+02	-8.1866	-61.515856	0.001216	12.161477	2.060210	-0.000243
1417	1.4089e+02	-8.2059	-61.770195	0.001277	12.769550	2.163220	-0.000256
1418	1.4099e+02	-8.2262	-62.024535	0.001277	12.769550	2.163220	-0.000256
1419	1.4109e+02	-8.2465	-62.278874	0.001277	12.769550	2.163220	-0.000256
1420	1.4119e+02	-8.2661	-62.549363	0.001358	13.580316	2.300568	-0.000272
1421	1.4129e+02	-8.2861	-62.811776	0.001317	13.174933	2.231894	-0.000264
1422	1.4139e+02	-8.3063	-63.062079	0.001257	12.566859	2.128884	-0.000252
1423	1.4149e+02	-8.3257	-63.332567	0.001358	13.580316	2.300568	-0.000272
1424	1.4159e+02	-8.3444	-63.566721	0.001176	11.756094	1.991536	-0.000235
1425	1.4169e+02	-8.3659	-63.849320	0.001419	14.188389	2.403578	-0.000284
1426	1.4179e+02	-8.3861	-64.127883	0.001399	13.985698	2.369241	-0.000280
1427	1.4189e+02	-8.4068	-64.390296	0.001317	13.174933	2.231894	-0.000264
1428	1.4199e+02	-8.4262	-64.628487	0.001196	11.958785	2.025873	-0.000239
1429	1.4209e+02	-8.4460	-64.927236	0.001500	14.999154	2.540926	-0.000300
1430	1.4219e+02	-8.4665	-65.197724	0.001358	13.580316	2.300568	-0.000272
1431	1.4228e+02	-8.4858	-65.464175	0.001338	13.377624	2.266231	-0.000268
1432	1.4238e+02	-8.5057	-65.722551	0.001297	12.972242	2.197557	-0.000260
1433	1.4248e+02	-8.5262	-66.013225	0.001459	14.593772	2.472252	-0.000292
1434	1.4258e+02	-8.5457	-66.259490	0.001236	12.364168	2.094547	-0.000248
1435	1.4268e+02	-8.5654	-66.554201	0.001480	14.796463	2.506589	-0.000296
1436	1.4278e+02	-8.5851	-66.869098	0.001581	15.809920	2.678273	-0.000316
1437	1.4288e+02	-8.6047	-67.070955	0.001013	10.134564	1.716842	-0.000203
1438	1.4298e+02	-8.6244	-67.422185	0.001763	17.634141	2.987304	-0.000353
1439	1.4308e+02	-8.6446	-67.644228	0.001115	11.148020	1.888526	-0.000223
1440	1.4318e+02	-8.6642	-67.914716	0.001358	13.580316	2.300568	-0.000272
1441	1.4328e+02	-8.6848	-68.233650	0.001601	16.012611	2.712610	-0.000321
1442	1.4338e+02	-8.7048	-68.536435	0.001520	15.201846	2.575262	-0.000304
1443	1.4348e+02	-8.7254	-68.839220	0.001520	15.201846	2.575262	-0.000304
1444	1.4358e+02	-8.7446	-69.121820	0.001419	14.188389	2.403578	-0.000284
1445	1.4368e+02	-8.7648	-69.420568	0.001500	14.999154	2.540926	-0.000300
1446	1.4378e+02	-8.7853	-69.715278	0.001480	14.796463	2.506589	-0.000296
1447	1.4388e+02	-8.8046	-69.993841	0.001399	13.985698	2.369241	-0.000280
1448	1.4398e+02	-8.8255	-70.324886	0.001662	16.620685	2.815620	-0.000333
1449	1.4408e+02	-8.8432	-70.603448	0.001399	13.985698	2.369241	-0.000280
1450	1.4418e+02	-8.8643	-70.898159	0.001480	14.796463	2.506589	-0.000296
1451	1.4428e+02	-8.8838	-71.192870	0.001480	14.796463	2.506589	-0.000296
1452	1.4437e+02	-8.9034	-71.523915	0.001662	16.620685	2.815620	-0.000333
1453	1.4447e+02	-8.9232	-71.846886	0.001622	16.215302	2.746947	-0.000325
1454	1.4457e+02	-8.9435	-72.093151	0.001236	12.364168	2.094547	-0.000248
1455	1.4467e+02	-8.9635	-72.440345	0.001743	17.431450	2.952968	-0.000349
1456	1.4477e+02	-8.9839	-72.706796	0.001338	13.377624	2.266231	-0.000268
1457	1.4487e+02	-9.0041	-73.058027	0.001763	17.634141	2.987304	-0.000353
1458	1.4497e+02	-9.0229	-73.344664	0.001439	14.391081	2.437915	-0.000288
1459	1.4507e+02	-9.0434	-73.703969	0.001804	18.039524	3.055978	-0.000361
1460	1.4517e+02	-9.0628	-74.006754	0.001520	15.201846	2.575262	-0.000304
1461	1.4527e+02	-9.0826	-74.341836	0.001682	16.823376	2.849957	-0.000337
1462	1.4537e+02	-9.1035	-74.648658	0.001540	15.404537	2.609599	-0.000308
1463	1.4547e+02	-9.1237	-74.971629	0.001622	16.215302	2.746947	-0.000325
1464	1.4557e+02	-9.1426	-75.270377	0.001500	14.999154	2.540926	-0.000300
1465	1.4567e+02	-9.1626	-75.633719	0.001824	18.242215	3.090315	-0.000365
1466	1.4577e+02	-9.1815	-75.988987	0.001784	17.836832	3.021641	-0.000357
1467	1.4587e+02	-9.2017	-76.267550	0.001399	13.985698	2.369241	-0.000280
1468	1.4597e+02	-9.2223	-76.622818	0.001784	17.836832	3.021641	-0.000357
1469	1.4607e+02	-9.2411	-76.990197	0.001844	18.444906	3.124652	-0.000369
1470	1.4617e+02	-9.2616	-77.280871	0.001459	14.593772	2.472252	-0.000292
1471	1.4626e+02	-9.2817	-77.644213	0.001824	18.242215	3.090315	-0.000365
1472	1.4636e+02	-9.3018	-77.934887	0.001459	14.593772	2.472252	-0.000292
1473	1.4646e+02	-9.3213	-78.294192	0.001804	18.039524	3.055978	-0.000361
1474	1.4656e+02	-9.3423	-78.710017	0.002088	20.877201	3.536694	-0.000418
1475	1.4666e+02	-9.3615	-78.972431	0.001317	13.174933	2.231894	-0.000264
1476	1.4676e+02	-9.3817	-79.392293	0.002108	21.079893	3.571030	-0.000422
1477	1.4686e+02	-9.4020	-79.727375	0.001682	16.823376	2.849957	-0.000337
1478	1.4696e+02	-9.4217	-80.106866	0.001905	19.052980	3.227662	-0.000381
1479	1.4706e+02	-9.4418	-80.470208	0.001824	18.242215	3.090315	-0.000365
1480	1.4716e+02	-9.4624	-80.809328	0.001703	17.026067	2.884294	-0.000341
1481	1.4726e+02	-9.4823	-81.196893	0.001946	19.458363	3.296336	-0.000390
1482	1.4736e+02	-9.5020	-81.544086	0.001743	17.431450	2.952968	-0.000349
1483	1.4746e+02	-9.5210	-81.919540	0.001885	18.850289	3.193325	-0.000377
1484	1.4756e+02	-9.5410	-82.290956	0.001865	18.647597	3.158989	-0.000373
1485	1.4766e+02	-9.5605	-82.682558	0.001966	19.661054	3.330673	-0.000394
1486	1.4776e+02	-9.5811	-83.041864	0.001804	18.039524	3.055978	-0.000361
1487	1.4786e+02	-9.6004	-83.409243	0.001844	18.444906	3.124652	-0.000369
1488	1.4796e+02	-9.6210	-83.837179	0.002149	21.485275	3.639704	-0.000430
1489	1.4806e+02	-9.6399	-84.236856	0.002007	20.066436	3.399346	-0.000402
1490	1.4816e+02	-9.6600	-84.612309	0.001885	18.850289	3.193325	-0.000377
1491	1.4825e+02	-9.6805	-85.036209	0.002128	21.282584	3.605367	-0.000426
1492	1.4835e+02	-9.7003	-85.391477	0.001784	17.836832	3.021641	-0.000357
1493	1.4845e+02	-9.7192	-85.815376	0.002128	21.282584	3.605367	-0.000426
1494	1.4855e+02	-9.7400	-86.215052	0.002007	20.066436	3.399346	-0.000402
1495	1.4865e+02	-9.7595	-86.594543	0.001905	19.052980	3.227662	-0.000381
1496	1.4875e+02	-9.7803	-87.038628	0.002230	22.296040	3.777051	-0.000446
1497	1.4885e+02	-9.7986	-87.482713	0.002230	22.296040	3.777051	-0.000446
1498	1.4895e+02	-9.8188	-87.858166	0.001885	18.850289	3.193325	-0.000377
1499	1.4905e+02	-9.8398	-88.273991	0.002088	20.877201	3.536694	-0.000418
1500	1.4915e+02	-9.8593	-88.726151	0.002270	22.701423	3.845725	-0.000454
1501	1.4925e+02	-9.8790	-89.162161	0.002189	21.890658	3.708378	-0.000438
1502	1.4935e+02	-9.9002	-89.573949	0.002067	20.674510	3.502357	-0.000414
1503	1.4945e+02	-9.9191	-90.042257	0.002351	23.512188	3.983072	-0.000471
1504	1.4955e+02	-9.9399	-90.458082	0.002088	20.877201	3.536694	-0.000418
1505	1.4965e+02	-9.9595	-90.914278	0.002290	22.904114	3.880062	-0.000458
1506	1.4975e+02	-9.9794	-91.342215	0.002149	21.485275	3.639704	-0.000430
1507	1.4985e+02	-9.9998	-91.863005	0.002615	26.147175	4.429451	-0.000523
1508	1.4995e+02	-9.9789	-92.068899	-0.001034	-10.337255	-1.751178	-0.000207
1509	1.5005e+02	-9.9604	-92.262682	-0.000973	-9.729181	-1.648168	-0.000195
1510	1.5015e+02	-9.9390	-92.468576	-0.001034	-10.337255	-1.751178	-0.000207
1511	1.5025e+02	-9.9197	-92.735026	-0.001338	-13.377624	-2.266231	-0.000268
1512	1.5034e+02	-9.9002	-92.908623	-0.000872	-8.715725	-1.476484	-0.000174
1513	1.5044e+02	-9.8808	-93.070109	-0.000811	-8.107651	-1.373473	-0.000162
1514	1.5054e+02	-9.8595	-93.263891	-0.000973	-9.729181	-1.648168	-0.000195
1515	1.5064e+02	-9.8399	-93.437488	-0.000872	-8.715725	-1.476484	-0.000174
1516	1.5074e+02	-9.8206	-93.598974	-0.000811	-8.107651	-1.373473	-0.000162
1517	1.5084e+02	-9.7998	-93.744310	-0.000730	-7.296886	-1.236126	-0.000146
1518	1.5094e+02	-9.7806	-93.921944	-0.000892	-8.918416	-1.510821	-0.000179
1519	1.5104e+02	-9.7598	-94.055170	-0.000669	-6.688812	-1.133115	-0.000134
1520	1.5114e+02	-9.7407	-94.135913	-0.000405	-4.053826	-0.686737	-0.000081
1521	1.5124e+02	-9.7205	-94.277212	-0.000709	-7.094195	-1.201789	-0.000142
1522	1.5134e+02	-9.7003	-94.410438	-0.000669	-6.688812	-1.133115	-0.000134
1523	1.5144e+02	-9.6809	-94.499255	-0.000446	-4.459208	-0.755410	-0.000089
1524	1.5154e+02	-9.6609	-94.632480	-0.000669	-6.688812	-1.133115	-0.000134
1525	1.5164e+02	-9.6410	-94.753594	-0.000608	-6.080738	-1.030105	-0.000122
1526	1.5174e+02	-9.6211	-94.842411	-0.000446	-4.459208	-0.755410	-0.000089
1527	1.5184e+02	-9.6013	-94.919117	-0.000385	-3.851134	-0.652400	-0.000077
1528	1.5194e+02	-9.5807	-95.032157	-0.000568	-5.675356	-0.961431	-0.000114
1529	1.5204e+02	-9.5596	-95.145197	-0.000568	-5.675356	-0.961431	-0.000114
1530	1.5214e+02	-9.5418	-95.193642	-0.000243	-2.432295	-0.412042	-0.000049
1531	1.5224e+02	-9.5212	-95.286496	-0.000466	-4.661899	-0.789747	-0.000093
1532	1.5233e+02	-9.5014	-95.359165	-0.000365	-3.648443	-0.618063	-0.000073
1533	1.5243e+02	-9.4809	-95.407610	-0.000243	-2.432295	-0.412042	-0.000049
1534	1.5253e+02	-9.4609	-95.500464	-0.000466	-4.661899	-0.789747	-0.000093
1535	1.5263e+02	-9.4415	-95.569096	-0.000345	-3.445752	-0.583726	-0.000069
1536	1.5273e+02	-9.4211	-95.605430	-0.000182	-1.824221	-0.309031	-0.000037
1537	1.5283e+02	-9.4006	-95.653876	-0.000243	-2.432295	-0.412042	-0.000049
1538	1.5293e+02	-9.3819	-95.730581	-0.000385	-3.851134	-0.652400	-0.000077
1539	1.5303e+02	-9.3616	-95.774990	-0.000223	-2.229604	-0.377705	-0.000045
1540	1.5313e+02	-9.3418	-95.831510	-0.000284	-2.837678	-0.480716	-0.000057
1541	1.5323e+02	-9.3217	-95.843621	-0.000061	-0.608074	-0.103010	-0.000012
1542	1.5333e+02	-9.3016	-95.924364	-0.000405	-4.053826	-0.686737	-0.000081
1543	1.5343e+02	-9.2821	-95.940512	-0.000081	-0.810765	-0.137347	-0.000016
1544	1.5353e+02	-9.2615	-95.952624	-0.000061	-0.608074	-0.103010	-0.000012
1545	1.5363e+02	-9.2439	-96.013181	-0.000304	-3.040369	-0.515052	-0.000061
1546	1.5373e+02	-9.2231	-96.053552	-0.000203	-2.026913	-0.343368	-0.000041
1547	1.5383e+02	-9.2036	-96.077775	-0.000122	-1.216148	-0.206021	-0.000024
1548	1.5393e+02	-9.1818	-96.057589	0.000101	1.013456	0.171684	0.000020
1549	1.5403e+02	-9.1621	-96.077775	-0.000101	-1.013456	-0.171684	-0.000020
1550	1.5413e+02	-9.1431	-96.097961	-0.000101	-1.013456	-0.171684	-0.000020
1551	1.5422e+02	-9.1235	-96.122183	-0.000122	-1.216148	-0.206021	-0.000024
1552	1.5432e+02	-9.1032	-96.166592	-0.000223	-2.229604	-0.377705	-0.000045
1553	1.5442e+02	-9.0833	-96.186778	-0.000101	-1.013456	-0.171684	-0.000020
1554	1.5452e+02	-9.0637	-96.202926	-0.000081	-0.810765	-0.137347	-0.000016
1555	1.5462e+02	-9.0433	-96.211000	-0.000041	-0.405383	-0.068674	-0.000008
1556	1.5472e+02	-9.0238	-96.194852	0.000081	0.810765	0.137347	0.000016
1557	1.5482e+02	-9.0034	-96.174666	0.000101	1.013456	0.171684	0.000020
1558	1.5492e+02	-8.9845	-96.202926	-0.000142	-1.418839	-0.240358	-0.000028
1559	1.5502e+02	-8.9629	-96.219075	-0.000081	-0.810765	-0.137347	-0.000016
1560	1.5512e+02	-8.9436	-96.186778	0.000162	1.621530	0.274695	0.000032
1561	1.5522e+02	-8.9233	-96.227149	-0.000203	-2.026913	-0.343368	-0.000041
1562	1.5532e+02	-8.9040	-96.166592	0.000304	3.040369	0.515052	0.000061
1563	1.5542e+02	-8.8831	-96.186778	-0.000101	-1.013456	-0.171684	-0.000020
1564	1.5552e+02	-8.8638	-96.114109	0.000365	3.648443	0.618063	0.000073
1565	1.5562e+02	-8.8435	-96.166592	-0.000263	-2.634987	-0.446379	-0.000053
1566	1.5572e+02	-8.8234	-96.150443	0.000081	0.810765	0.137347	0.000016
1567	1.5582e+02	-8.8040	-96.122183	0.000142	1.418839	0.240358	0.000028
1568	1.5592e+02	-8.7840	-96.118146	0.000020	0.202691	0.034337	0.000004
1569	1.5602e+02	-8.7646	-96.045478	0.000365	3.648443	0.618063	0.000073
1570	1.5612e+02	-8.7451	-96.021255	0.000122	1.216148	0.206021	0.000024
1571	1.5622e+02	-8.7245	-96.033366	-0.000061	-0.608074	-0.103010	-0.000012
1572	1.5631e+02	-8.7055	-95.956661	0.000385	3.851134	0.652400	0.000077
1573	1.5641e+02	-8.6853	-95.964735	-0.000041	-0.405383	-0.068674	-0.000008
1574	1.5651e+02	-8.6647	-95.944549	0.000101	1.013456	0.171684	0.000020
1575	1.5661e+02	-8.6438	-95.932438	0.000061	0.608074	0.103010	0.000012
1576	1.5671e+02	-8.6250	-95.879955	0.000263	2.634987	0.446379	0.000053
1577	1.5681e+02	-8.6052	-95.851695	0.000142	1.418839	0.240358	0.000028
1578	1.5691e+02	-8.5843	-95.807287	0.000223	2.229604	0.377705	0.000045
1579	1.5701e+02	-8.5641	-95.795175	0.000061	0.608074	0.103010	0.000012
1580	1.5711e+02	-8.5454	-95.738655	0.000284	2.837678	0.480716	0.000057
1581	1.5721e+02	-8.5263	-95.722507	0.000081	0.810765	0.137347	0.000016
1582	1.5731e+02	-8.5057	-95.682136	0.000203	2.026913	0.343368	0.000041
1583	1.5741e+02	-8.4859	-95.637727	0.000223	2.229604	0.377705	0.000045
1584	1.5751e+02	-8.4650	-95.548910	0.000446	4.459208	0.755410	0.000089
1585	1.5761e+02	-8.4457	-95.500464	0.000243	2.432295	0.412042	0.000049
1586	1.5771e+02	-8.4259	-95.496427	0.000020	0.202691	0.034337	0.000004
1587	1.5781e+02	-8.4053	-95.423759	0.000365	3.648443	0.618063	0.000073
1588	1.5791e+02	-8.3849	-95.347053	0.000385	3.851134	0.652400	0.000077
1589	1.5801e+02	-8.3652	-95.318793	0.000142	1.418839	0.240358	0.000028
1590	1.5811e+02	-8.3463	-95.246125	0.000365	3.648443	0.618063	0.000073
1591	1.5821e+02	-8.3257	-95.238051	0.000041	0.405383	0.068674	0.000008
1592	1.5830e+02	-8.3069	-95.173456	0.000324	3.243060	0.549389	0.000065
1593	1.5840e+02	-8.2867	-95.137122	0.000182	1.824221	0.309031	0.000037
1594	1.5850e+02	-8.2661	-95.032157	0.000527	5.269973	0.892758	0.000105
1595	1.5860e+02	-8.2462	-94.983711	0.000243	2.432295	0.412042	0.000049
1596	1.5870e+02	-8.2272	-94.939303	0.000223	2.229604	0.377705	0.000045
1597	1.5880e+02	-8.2060	-94.854523	0.000426	4.256517	0.721073	0.000085
1598	1.5890e+02	-8.1873	-94.806077	0.000243	2.432295	0.412042	0.000049
1599	1.5900e+02	-8.1664	-94.777817	0.000142	1.418839	0.240358	0.000028
1600	1.5910e+02	-8.1471	-94.652666	0.000628	6.283430	1.064442	0.000126
1601	1.5920e+02	-8.1267	-94.612295	0.000203	2.026913	0.343368	0.000041
1602	1.5930e+02	-8.1071	-94.563849	0.000243	2.432295	0.412042	0.000049
1603	1.5940e+02	-8.0867	-94.483106	0.000405	4.053826	0.686737	0.000081
1604	1.5950e+02	-8.0671	-94.410438	0.000365	3.648443	0.618063	0.000073
1605	1.5960e+02	-8.0475	-94.329695	0.000405	4.053826	0.686737	0.000081
1606	1.5970e+02	-8.0273	-94.305472	0.000122	1.216148	0.206021	0.000024
1607	1.5980e+02	-8.0081	-94.216655	0.000446	4.459208	0.755410	0.000089
1608	1.5990e+02	-7.9876	-94.119764	0.000486	4.864591	0.824084	0.000097
1609	1.6000e+02	-7.9685	-94.055170	0.000324	3.243060	0.549389	0.000065
1610	1.6010e+02	-7.9482	-93.962316	0.000466	4.661899	0.789747	0.000093
1611	1.6019e+02	-7.9272	-93.913870	0.000243	2.432295	0.412042	0.000049
1612	1.6029e+02	-7.9074	-93.849276	0.000324	3.243060	0.549389	0.000065
1613	1.6039e+02	-7.8882	-93.760459	0.000446	4.459208	0.755410	0.000089
1614	1.6049e+02	-7.8683	-93.647419	0.000568	5.675356	0.961431	0.000114
1615	1.6059e+02	-7.8476	-93.590899	0.000284	2.837678	0.480716	0.000057
1616	1.6069e+02	-7.8284	-93.522268	0.000345	3.445752	0.583726	0.000069
1617	1.6079e+02	-7.8082	-93.465748	0.000284	2.837678	0.480716	0.000057
1618	1.6089e+02	-7.7885	-93.380968	0.000426	4.256517	0.721073	0.000085
1619	1.6099e+02	-7.7681	-93.280040	0.000507	5.067282	0.858421	0.000101
1620	1.6109e+02	-7.7480	-93.219483	0.000304	3.040369	0.515052	0.000061
1621	1.6119e+02	-7.7283	-93.175074	0.000223	2.229604	0.377705	0.000045
1622	1.6129e+02	-7.7094	-93.033775	0.000709	7.094195	1.201789	0.000142
1623	1.6139e+02	-7.6872	-92.965143	0.000345	3.445752	0.583726	0.000069
1624	1.6149e+02	-7.6680	-92.896512	0.000345	3.445752	0.583726	0.000069
1625	1.6159e+02	-7.6492	-92.811732	0.000426	4.256517	0.721073	0.000085
1626	1.6169e+02	-7.6285	-92.726952	0.000426	4.256517	0.721073	0.000085
1627	1.6179e+02	-7.6089	-92.642172	0.000426	4.256517	0.721073	0.000085
1628	1.6189e+02	-7.5875	-92.569504	0.000365	3.648443	0.618063	0.000073
1629	1.6199e+02	-7.5674	-92.428204	0.000709	7.094195	1.201789	0.000142
1630	1.6209e+02	-7.5493	-92.367647	0.000304	3.040369	0.515052	0.000061
1631	1.6219e+02	-7.5299	-92.294979	0.000365	3.648443	0.618063	0.000073
1632	1.6228e+02	-7.5094	-92.149642	0.000730	7.296886	1.236126	0.000146
1633	1.6238e+02	-7.4902	-92.125419	0.000122	1.216148	0.206021	0.000024
1634	1.6248e+02	-7.4698	-92.024491	0.000507	5.067282	0.858421	0.000101
1635	1.6258e+02	-7.4507	-91.935674	0.000446	4.459208	0.755410	0.000089
1636	1.6268e+02	-7.4310	-91.794374	0.000709	7.094195	1.201789	0.000142
1637	1.6278e+02	-7.4100	-91.749965	0.000223	2.229604	0.377705	0.000045
1638	1.6288e+02	-7.3901	-91.600591	0.000750	7.499577	1.270463	0.000150
1639	1.6298e+02	-7.3706	-91.475440	0.000628	6.283430	1.064442	0.000126
1640	1.6308e+02	-7.3505	-91.439106	0.000182	1.824221	0.309031	0.000037
1641	1.6318e+02	-7.3300	-91.322029	0.000588	5.878047	0.995768	0.000118
1642	1.6328e+02	-7.3106	-91.237249	0.000426	4.256517	0.721073	0.000085
1643	1.6338e+02	-7.2905	-91.112098	0.000628	6.283430	1.064442	0.000126
1644	1.6348e+02	-7.2694	-91.043467	0.000345	3.445752	0.583726	0.000069
1645	1.6358e+02	-7.2507	-90.974835	0.000345	3.445752	0.583726	0.000069
1646	1.6368e+02	-7.2311	-90.821424	0.000770	7.702268	1.304800	0.000154
1647	1.6378e+02	-7.2114	-90.740681	0.000405	4.053826	0.686737	0.000081
1648	1.6388e+02	-7.1912	-90.663976	0.000385	3.851134	0.652400	0.000077
1649	1.6398e+02	-7.1719	-90.510565	0.000770	7.702268	1.304800	0.000154
1650	1.6408e+02	-7.1506	-90.433859	0.000385	3.851134	0.652400	0.000077
1651	1.6418e+02	-7.1317	-90.284485	0.000750	7.499577	1.270463	0.000150
1652	1.6427e+02	-7.1124	-90.219891	0.000324	3.243060	0.549389	0.000065
1653	1.6437e+02	-7.0920	-90.106851	0.000568	5.675356	0.961431	0.000114
1654	1.6447e+02	-7.0711	-90.022071	0.000426	4.256517	0.721073	0.000085
1655	1.6457e+02	-7.0522	-89.921143	0.000507	5.067282	0.858421	0.000101
1656	1.6467e+02	-7.0316	-89.820214	0.000507	5.067282	0.858421	0.000101
1657	1.6477e+02	-7.0113	-89.703138	0.000588	5.878047	0.995768	0.000118
1658	1.6487e+02	-6.9918	-89.606246	0.000486	4.864591	0.824084	0.000097
1659	1.6497e+02	-6.9717	-89.541652	0.000324	3.243060	0.549389	0.000065
1660	1.6507e+02	-6.9528	-89.396315	0.000730	7.296886	1.236126	0.000146
1661	1.6517e+02	-6.9328	-89.287313	0.000547	5.472664	0.927094	0.000110
1662	1.6527e+02	-6.9131	-89.174273	0.000568	5.675356	0.961431	0.000114
1663	1.6537e+02	-6.8927	-89.057196	0.000588	5.878047	0.995768	0.000118
1664	1.6547e+02	-6.8723	-88.960305	0.000486	4.864591	0.824084	0.000097
1665	1.6557e+02	-6.8517	-88.835153	0.000628	6.283430	1.064442	0.000126
1666	1.6567e+02	-6.8332	-88.750373	0.000426	4.256517	0.721073	0.000085
1667	1.6577e+02	-6.8130	-88.649445	0.000507	5.067282	0.858421	0.000101
1668	1.6587e+02	-6.7931	-88.528331	0.000608	6.080738	1.030105	0.000122
1669	1.6597e+02	-6.7722	-88.419328	0.000547	5.472664	0.927094	0.000110
1670	1.6607e+02	-6.7532	-88.346660	0.000365	3.648443	0.618063	0.000073
1671	1.6616e+02	-6.7326	-88.193249	0.000770	7.702268	1.304800	0.000154
1672	1.6626e+02	-6.7138	-88.092320	0.000507	5.067282	0.858421	0.000101
1673	1.6636e+02	-6.6927	-87.971206	0.000608	6.080738	1.030105	0.000122
1674	1.6646e+02	-6.6743	-87.870278	0.000507	5.067282	0.858421	0.000101
1675	1.6656e+02	-6.6533	-87.720904	0.000750	7.499577	1.270463	0.000150
1676	1.6666e+02	-6.6328	-87.668421	0.000263	2.634987	0.446379	0.000053
1677	1.6676e+02	-6.6125	-87.551344	0.000588	5.878047	0.995768	0.000118
1678	1.6686e+02	-6.5933	-87.418119	0.000669	6.688812	1.133115	0.000134
1679	1.6696e+02	-6.5736	-87.353525	0.000324	3.243060	0.549389	0.000065
1680	1.6706e+02	-6.5541	-87.171853	0.000912	9.121107	1.545157	0.000183
1681	1.6716e+02	-6.5347	-87.066888	0.000527	5.269973	0.892758	0.000105
1682	1.6726e+02	-6.5134	-86.978071	0.000446	4.459208	0.755410	0.000089
1683	1.6736e+02	-6.4946	-86.869068	0.000547	5.472664	0.927094	0.000110
1684	1.6746e+02	-6.4737	-86.739880	0.000649	6.486121	1.098779	0.000130
1685	1.6756e+02	-6.4532	-86.655100	0.000426	4.256517	0.721073	0.000085
1686	1.6766e+02	-6.4340	-86.533986	0.000608	6.080738	1.030105	0.000122
1687	1.6776e+02	-6.4144	-86.368463	0.000831	8.310342	1.407810	0.000166
1688	1.6786e+02	-6.3943	-86.259461	0.000547	5.472664	0.927094	0.000110
1689	1.6796e+02	-6.3745	-86.150458	0.000547	5.472664	0.927094	0.000110
1690	1.6806e+02	-6.3544	-86.037418	0.000568	5.675356	0.961431	0.000114
1691	1.6816e+02	-6.3342	-85.936490	0.000507	5.067282	0.858421	0.000101
1692	1.6825e+02	-6.3141	-85.807302	0.000649	6.486121	1.098779	0.000130
1693	1.6835e+02	-6.2948	-85.666002	0.000709	7.094195	1.201789	0.000142
1694	1.6845e+02	-6.2747	-85.556999	0.000547	5.472664	0.927094	0.000110
1695	1.6855e+02	-6.2552	-85.464145	0.000466	4.661899	0.789747	0.000093
1696	1.6865e+02	-6.2344	-85.322845	0.000709	7.094195	1.201789	0.000142
1697	1.6875e+02	-6.2155	-85.197694	0.000628	6.283430	1.064442	0.000126
1698	1.6885e+02	-6.1963	-85.064469	0.000669	6.688812	1.133115	0.000134
1699	1.6895e+02	-6.1745	-84.959503	0.000527	5.269973	0.892758	0.000105
1700	1.6905e+02	-6.1557	-84.858575	0.000507	5.067282	0.858421	0.000101
1701	1.6915e+02	-6.1358	-84.729386	0.000649	6.486121	1.098779	0.000130
1702	1.6925e+02	-6.1154	-84.596161	0.000669	6.688812	1.133115	0.000134
1703	1.6935e+02	-6.0963	-84.499270	0.000486	4.864591	0.824084	0.000097
1704	1.6945e+02	-6.0754	-84.366044	0.000669	6.688812	1.133115	0.000134
1705	1.6955e+02	-6.0550	-84.240893	0.000628	6.283430	1.064442	0.000126
1706	1.6965e+02	-6.0358	-84.139964	0.000507	5.067282	0.858421	0.000101
1707	1.6975e+02	-6.0152	-84.006739	0.000669	6.688812	1.133115	0.000134
1708	1.6985e+02	-5.9958	-83.889662	0.000588	5.878047	0.995768	0.000118
1709	1.6995e+02	-5.9753	-83.691842	0.000993	9.931873	1.682505	0.000199
1710	1.7005e+02	-5.9569	-83.603025	0.000446	4.459208	0.755410	0.000089
1711	1.7015e+02	-5.9358	-83.489986	0.000568	5.675356	0.961431	0.000114
1712	1.7024e+02	-5.9161	-83.405206	0.000426	4.256517	0.721073	0.000085
1713	1.7034e+02	-5.8961	-83.247757	0.000790	7.904960	1.339136	0.000158
1714	1.7044e+02	-5.8758	-83.122606	0.000628	6.283430	1.064442	0.000126
1715	1.7054e+02	-5.8557	-82.993418	0.000649	6.486121	1.098779	0.000130
1716	1.7064e+02	-5.8357	-82.896527	0.000486	4.864591	0.824084	0.000097
1717	1.7074e+02	-5.8162	-82.714856	0.000912	9.121107	1.545157	0.000183
1718	1.7084e+02	-5.7973	-82.609890	0.000527	5.269973	0.892758	0.000105
1719	1.7094e+02	-5.7771	-82.512999	0.000486	4.864591	0.824084	0.000097
1720	1.7104e+02	-5.7568	-82.399959	0.000568	5.675356	0.961431	0.000114
1721	1.7114e+02	-5.7361	-82.254622	0.000730	7.296886	1.236126	0.000146
1722	1.7124e+02	-5.7176	-82.141582	0.000568	5.675356	0.961431	0.000114
1723	1.7134e+02	-5.6964	-82.008357	0.000669	6.688812	1.133115	0.000134
1724	1.7144e+02	-5.6778	-81.903391	0.000527	5.269973	0.892758	0.000105
1725	1.7154e+02	-5.6566	-81.802463	0.000507	5.067282	0.858421	0.000101
1726	1.7164e+02	-5.6364	-81.632903	0.000851	8.513034	1.442147	0.000170
1727	1.7174e+02	-5.6177	-81.515826	0.000588	5.878047	0.995768	0.000118
1728	1.7184e+02	-5.5972	-81.354341	0.000811	8.107651	1.373473	0.000162
1729	1.7194e+02	-5.5766	-81.265524	0.000446	4.459208	0.755410	0.000089
1730	1.7204e+02	-5.5574	-81.148447	0.000588	5.878047	0.995768	0.000118
1731	1.7213e+02	-5.5379	-80.999073	0.000750	7.499577	1.270463	0.000150
1732	1.7223e+02	-5.5183	-80.829513	0.000851	8.513034	1.442147	0.000170
1733	1.7233e+02	-5.4982	-80.748770	0.000405	4.053826	0.686737	0.000081
1734	1.7243e+02	-5.4781	-80.631694	0.000588	5.878047	0.995768	0.000118
1735	1.7253e+02	-5.4572	-80.526728	0.000527	5.269973	0.892758	0.000105
1736	1.7263e+02	-5.4379	-80.357168	0.000851	8.513034	1.442147	0.000170
1737	1.7273e+02	-5.4178	-80.244128	0.000568	5.675356	0.961431	0.000114
1738	1.7283e+02	-5.3983	-80.098792	0.000730	7.296886	1.236126	0.000146
1739	1.7293e+02	-5.3784	-79.969603	0.000649	6.486121	1.098779	0.000130
1740	1.7303e+02	-5.3584	-79.844452	0.000628	6.283430	1.064442	0.000126
1741	1.7313e+02	-5.3378	-79.670855	0.000872	8.715725	1.476484	0.000174
1742	1.7323e+02	-5.3185	-79.565890	0.000527	5.269973	0.892758	0.000105
1743	1.7333e+02	-5.2986	-79.412479	0.000770	7.702268	1.304800	0.000154
1744	1.7343e+02	-5.2788	-79.307513	0.000527	5.269973	0.892758	0.000105
1745	1.7353e+02	-5.2590	-79.210622	0.000486	4.864591	0.824084	0.000097
1746	1.7363e+02	-5.2385	-78.992616	0.001095	10.945329	1.854189	0.000219
1747	1.7373e+02	-5.2181	-78.903799	0.000446	4.459208	0.755410	0.000089
1748	1.7383e+02	-5.1987	-78.790760	0.000568	5.675356	0.961431	0.000114
1749	1.7393e+02	-5.1794	-78.617163	0.000872	8.715725	1.476484	0.000174
1750	1.7403e+02	-5.1585	-78.520272	0.000486	4.864591	0.824084	0.000097
1751	1.7413e+02	-5.1393	-78.374935	0.000730	7.296886	1.236126	0.000146
1752	1.7422e+02	-5.1189	-78.209412	0.000831	8.310342	1.407810	0.000166
1753	1.7432e+02	-5.1004	-78.092335	0.000588	5.878047	0.995768	0.000118
1754	1.7442e+02	-5.0786	-77.967184	0.000628	6.283430	1.064442	0.000126
1755	1.7452e+02	-5.0597	-77.821847	0.000730	7.296886	1.236126	0.000146
1756	1.7462e+02	-5.0393	-77.688622	0.000669	6.688812	1.133115	0.000134
1757	1.7472e+02	-5.0205	-77.531173	0.000790	7.904960	1.339136	0.000158
1758	1.7482e+02	-4.9995	-77.381799	0.000750	7.499577	1.270463	0.000150
1759	1.7492e+02	-4.9802	-77.260685	0.000608	6.080738	1.030105	0.000122
1760	1.7502e+02	-4.9604	-77.127460	0.000669	6.688812	1.133115	0.000134
1761	1.7512e+02	-4.9400	-77.006346	0.000608	6.080738	1.030105	0.000122
1762	1.7522e+02	-4.9200	-76.885232	0.000608	6.080738	1.030105	0.000122
1763	1.7532e+02	-4.8995	-76.687412	0.000993	9.931873	1.682505	0.000199
1764	1.7542e+02	-4.8808	-76.582446	0.000527	5.269973	0.892758	0.000105
1765	1.7552e+02	-4.8606	-76.424998	0.000790	7.904960	1.339136	0.000158
1766	1.7562e+02	-4.8410	-76.295810	0.000649	6.486121	1.098779	0.000130
1767	1.7572e+02	-4.8206	-76.190844	0.000527	5.269973	0.892758	0.000105
1768	1.7582e+02	-4.8008	-75.944579	0.001236	12.364168	2.094547	0.000248
1769	1.7592e+02	-4.7805	-75.867873	0.000385	3.851134	0.652400	0.000077
1770	1.7602e+02	-4.7608	-75.722536	0.000730	7.296886	1.236126	0.000146
1771	1.7612e+02	-4.7401	-75.593348	0.000649	6.486121	1.098779	0.000130
1772	1.7621e+02	-4.7218	-75.403603	0.000953	9.526490	1.613831	0.000191
1773	1.7631e+02	-4.7007	-75.290563	0.000568	5.675356	0.961431	0.000114
1774	1.7641e+02	-4.6816	-75.161375	0.000649	6.486121	1.098779	0.000130
1775	1.7651e+02	-4.6608	-75.052372	0.000547	5.472664	0.927094	0.000110
1776	1.7661e+02	-4.6416	-74.890887	0.000811	8.107651	1.373473	0.000162
1777	1.7671e+02	-4.6214	-74.733438	0.000790	7.904960	1.339136	0.000158
1778	1.7681e+02	-4.6008	-74.628473	0.000527	5.269973	0.892758	0.000105
1779	1.7691e+02	-4.5819	-74.446802	0.000912	9.121107	1.545157	0.000183
1780	1.7701e+02	-4.5620	-74.285316	0.000811	8.107651	1.373473	0.000162
1781	1.7711e+02	-4.5410	-74.144016	0.000709	7.094195	1.201789	0.000142
1782	1.7721e+02	-4.5213	-74.030977	0.000568	5.675356	0.961431	0.000114
1783	1.7731e+02	-4.5016	-73.885640	0.000730	7.296886	1.236126	0.000146
1784	1.7741e+02	-4.4818	-73.724154	0.000811	8.107651	1.373473	0.000162
1785	1.7751e+02	-4.4621	-73.554595	0.000851	8.513034	1.442147	0.000170
1786	1.7761e+02	-4.4415	-73.417332	0.000689	6.891503	1.167452	0.000138
1787	1.7771e+02	-4.4214	-73.336589	0.000405	4.053826	0.686737	0.000081
1788	1.7781e+02	-4.4019	-73.138770	0.000993	9.931873	1.682505	0.000199
1789	1.7791e+02	-4.3821	-72.957098	0.000912	9.121107	1.545157	0.000183
1790	1.7801e+02	-4.3613	-72.856170	0.000507	5.067282	0.858421	0.000101
1791	1.7810e+02	-4.3422	-72.686610	0.000851	8.513034	1.442147	0.000170
1792	1.7820e+02	-4.3224	-72.581645	0.000527	5.269973	0.892758	0.000105
1793	1.7830e+02	-4.3025	-72.371714	0.001054	10.539946	1.785515	0.000211
1794	1.7840e+02	-4.2825	-72.234451	0.000689	6.891503	1.167452	0.000138
1795	1.7850e+02	-4.2622	-72.089114	0.000730	7.296886	1.236126	0.000146
1796	1.7860e+02	-4.2422	-71.919555	0.000851	8.513034	1.442147	0.000170
1797	1.7870e+02	-4.2226	-71.762106	0.000790	7.904960	1.339136	0.000158
1798	1.7880e+02	-4.1998	-71.600621	0.000811	8.107651	1.373473	0.000162
1799	1.7890e+02	-4.1821	-71.483544	0.000588	5.878047	0.995768	0.000118
1800	1.7900e+02	-4.1634	-71.305910	0.000892	8.918416	1.510821	0.000179
1801	1.7910e+02	-4.1424	-71.172684	0.000669	6.688812	1.133115	0.000134
1802	1.7920e+02	-4.1228	-71.031385	0.000709	7.094195	1.201789	0.000142
1803	1.7930e+02	-4.1032	-70.861825	0.000851	8.513034	1.442147	0.000170
1804	1.7940e+02	-4.0836	-70.708414	0.000770	7.702268	1.304800	0.000154
1805	1.7950e+02	-4.0637	-70.546928	0.000811	8.107651	1.373473	0.000162
1806	1.7960e+02	-4.0437	-70.385443	0.000811	8.107651	1.373473	0.000162
1807	1.7970e+02	-4.0237	-70.195698	0.000953	9.526490	1.613831	0.000191
1808	1.7980e+02	-4.0034	-70.118992	0.000385	3.851134	0.652400	0.000077
1809	1.7990e+02	-3.9835	-69.876764	0.001216	12.161477	2.060210	0.000243
1810	1.8000e+02	-3.9636	-69.735464	0.000709	7.094195	1.201789	0.000142
1811	1.8009e+02	-3.9413	-69.578016	0.000790	7.904960	1.339136	0.000158
1812	1.8019e+02	-3.9236	-69.460939	0.000588	5.878047	0.995768	0.000118
1813	1.8029e+02	-3.9038	-69.275231	0.000932	9.323799	1.579494	0.000187
1814	1.8039e+02	-3.8840	-69.109708	0.000831	8.310342	1.407810	0.000166
1815	1.8049e+02	-3.8636	-68.964371	0.000730	7.296886	1.236126	0.000146
1816	1.8059e+02	-3.8438	-68.823071	0.000709	7.094195	1.201789	0.000142
1817	1.8069e+02	-3.8231	-68.637363	0.000932	9.323799	1.579494	0.000187
1818	1.8079e+02	-3.8046	-68.467804	0.000851	8.513034	1.442147	0.000170
1819	1.8089e+02	-3.7841	-68.302281	0.000831	8.310342	1.407810	0.000166
1820	1.8099e+02	-3.7646	-68.181167	0.000608	6.080738	1.030105	0.000122
1821	1.8109e+02	-3.7446	-67.999496	0.000912	9.121107	1.545157	0.000183
1822	1.8119e+02	-3.7248	-67.821862	0.000892	8.918416	1.510821	0.000179
1823	1.8129e+02	-3.7045	-67.708822	0.000568	5.675356	0.961431	0.000114
1824	1.8139e+02	-3.6851	-67.523114	0.000932	9.323799	1.579494	0.000187
1825	1.8149e+02	-3.6652	-67.329331	0.000973	9.729181	1.648168	0.000195
1826	1.8159e+02	-3.6446	-67.183994	0.000730	7.296886	1.236126	0.000146
1827	1.8169e+02	-3.6259	-67.042695	0.000709	7.094195	1.201789	0.000142
1828	1.8179e+02	-3.6053	-66.869098	0.000872	8.715725	1.476484	0.000174
1829	1.8189e+02	-3.5846	-66.695501	0.000872	8.715725	1.476484	0.000174
1830	1.8199e+02	-3.5649	-66.497681	0.000993	9.931873	1.682505	0.000199
1831	1.8209e+02	-3.5455	-66.368493	0.000649	6.486121	1.098779	0.000130
1832	1.8218e+02	-3.5248	-66.211045	0.000790	7.904960	1.339136	0.000158
1833	1.8228e+02	-3.5048	-66.021299	0.000953	9.526490	1.613831	0.000191
1834	1.8238e+02	-3.4860	-65.875962	0.000730	7.296886	1.236126	0.000146
1835	1.8248e+02	-3.4650	-65.706403	0.000851	8.513034	1.442147	0.000170
1836	1.8258e+02	-3.4454	-65.532806	0.000872	8.715725	1.476484	0.000174
1837	1.8268e+02	-3.4252	-65.359209	0.000872	8.715725	1.476484	0.000174
1838	1.8278e+02	-3.4061	-65.234058	0.000628	6.283430	1.064442	0.000126
1839	1.8288e+02	-3.3862	-65.056424	0.000892	8.918416	1.510821	0.000179
1840	1.8298e+02	-3.3661	-64.850530	0.001034	10.337255	1.751178	0.000207
1841	1.8308e+02	-3.3460	-64.713267	0.000689	6.891503	1.167452	0.000138
1842	1.8318e+02	-3.3267	-64.535633	0.000892	8.918416	1.510821	0.000179
1843	1.8328e+02	-3.3061	-64.378185	0.000790	7.904960	1.339136	0.000158
1844	1.8338e+02	-3.2864	-64.208625	0.000851	8.513034	1.442147	0.000170
1845	1.8348e+02	-3.2663	-64.067326	0.000709	7.094195	1.201789	0.000142
1846	1.8358e+02	-3.2464	-63.861432	0.001034	10.337255	1.751178	0.000207
1847	1.8368e+02	-3.2259	-63.708021	0.000770	7.702268	1.304800	0.000154
1848	1.8378e+02	-3.2066	-63.502127	0.001034	10.337255	1.751178	0.000207
1849	1.8388e+02	-3.1866	-63.336604	0.000831	8.310342	1.407810	0.000166
1850	1.8398e+02	-3.1701	-63.187230	0.000750	7.499577	1.270463	0.000150
1851	1.8407e+02	-3.1470	-63.033819	0.000770	7.702268	1.304800	0.000154
1852	1.8417e+02	-3.1269	-62.840036	0.000973	9.729181	1.648168	0.000195
1853	1.8427e+02	-3.1073	-62.642217	0.000993	9.931873	1.682505	0.000199
1854	1.8437e+02	-3.0867	-62.504954	0.000689	6.891503	1.167452	0.000138
1855	1.8447e+02	-3.0676	-62.359617	0.000730	7.296886	1.236126	0.000146
1856	1.8457e+02	-3.0468	-62.153723	0.001034	10.337255	1.751178	0.000207
1857	1.8467e+02	-3.0276	-61.980126	0.000872	8.715725	1.476484	0.000174
1858	1.8477e+02	-3.0080	-61.802492	0.000892	8.918416	1.510821	0.000179
1859	1.8487e+02	-2.9865	-61.641007	0.000811	8.107651	1.373473	0.000162
1860	1.8497e+02	-2.9680	-61.455299	0.000932	9.323799	1.579494	0.000187
1861	1.8507e+02	-2.9475	-61.313999	0.000709	7.094195	1.201789	0.000142
1862	1.8517e+02	-2.9281	-61.083882	0.001155	11.553403	1.957199	0.000231
1863	1.8527e+02	-2.9080	-60.934508	0.000750	7.499577	1.270463	0.000150
1864	1.8537e+02	-2.8878	-60.740726	0.000973	9.729181	1.648168	0.000195
1865	1.8547e+02	-2.8671	-60.583277	0.000790	7.904960	1.339136	0.000158
1866	1.8557e+02	-2.8482	-60.450052	0.000669	6.688812	1.133115	0.000134
1867	1.8567e+02	-2.8278	-60.195712	0.001277	12.769550	2.163220	0.000256
1868	1.8577e+02	-2.8088	-60.026153	0.000851	8.513034	1.442147	0.000170
1869	1.8587e+02	-2.7885	-59.848519	0.000892	8.918416	1.510821	0.000179
1870	1.8597e+02	-2.7691	-59.691070	0.000790	7.904960	1.339136	0.000158
1871	1.8606e+02	-2.7481	-59.497288	0.000973	9.729181	1.648168	0.000195
1872	1.8616e+02	-2.7290	-59.315617	0.000912	9.121107	1.545157	0.000183
1873	1.8626e+02	-2.7089	-59.125871	0.000953	9.526490	1.613831	0.000191
1874	1.8636e+02	-2.6894	-58.984572	0.000709	7.094195	1.201789	0.000142
1875	1.8646e+02	-2.6689	-58.835198	0.000750	7.499577	1.270463	0.000150
1876	1.8656e+02	-2.6488	-58.613155	0.001115	11.148020	1.888526	0.000223
1877	1.8666e+02	-2.6289	-58.451670	0.000811	8.107651	1.373473	0.000162
1878	1.8676e+02	-2.6084	-58.314407	0.000689	6.891503	1.167452	0.000138
1879	1.8686e+02	-2.5891	-58.092365	0.001115	11.148020	1.888526	0.000223
1880	1.8696e+02	-2.5692	-57.914731	0.000892	8.918416	1.510821	0.000179
1881	1.8706e+02	-2.5486	-57.724985	0.000953	9.526490	1.613831	0.000191
1882	1.8716e+02	-2.5298	-57.567537	0.000790	7.904960	1.339136	0.000158
1883	1.8726e+02	-2.5096	-57.402014	0.000831	8.310342	1.407810	0.000166
1884	1.8736e+02	-2.4892	-57.232455	0.000851	8.513034	1.442147	0.000170
1885	1.8746e+02	-2.4703	-57.062895	0.000851	8.513034	1.442147	0.000170
1886	1.8756e+02	-2.4498	-56.857001	0.001034	10.337255	1.751178	0.000207
1887	1.8766e+02	-2.4297	-56.630922	0.001135	11.350711	1.922863	0.000227
1888	1.8776e+02	-2.4097	-56.517882	0.000568	5.675356	0.961431	0.000114
1889	1.8786e+02	-2.3898	-56.324099	0.000973	9.729181	1.648168	0.000195
1890	1.8796e+02	-2.3702	-56.130317	0.000973	9.729181	1.648168	0.000195
1891	1.8806e+02	-2.3496	-55.944608	0.000932	9.323799	1.579494	0.000187
1892	1.8815e+02	-2.3310	-55.771012	0.000872	8.715725	1.476484	0.000174
1893	1.8825e+02	-2.3100	-55.601452	0.000851	8.513034	1.442147	0.000170
1894	1.8835e+02	-2.2906	-55.423818	0.000892	8.918416	1.510821	0.000179
1895	1.8845e+02	-2.2705	-55.209850	0.001074	10.742638	1.819852	0.000215
1896	1.8855e+02	-2.2505	-55.044327	0.000831	8.310342	1.407810	0.000166
1897	1.8865e+02	-2.2305	-54.898990	0.000730	7.296886	1.236126	0.000146
1898	1.8875e+02	-2.2107	-54.680985	0.001095	10.945329	1.854189	0.000219
1899	1.8885e+02	-2.1911	-54.507388	0.000872	8.715725	1.476484	0.000174
1900	1.8895e+02	-2.1706	-54.321680	0.000932	9.323799	1.579494	0.000187
1901	1.8905e+02	-2.1509	-54.127897	0.000973	9.729181	1.648168	0.000195
1902	1.8915e+02	-2.1326	-53.970449	0.000790	7.904960	1.339136	0.000158
1903	1.8925e+02	-2.1118	-53.764555	0.001034	10.337255	1.751178	0.000207
1904	1.8935e+02	-2.0907	-53.562698	0.001013	10.134564	1.716842	0.000203
1905	1.8945e+02	-2.0725	-53.401213	0.000811	8.107651	1.373473	0.000162
1906	1.8955e+02	-2.0517	-53.203393	0.000993	9.931873	1.682505	0.000199
1907	1.8965e+02	-2.0314	-53.025759	0.000892	8.918416	1.510821	0.000179
1908	1.8975e+02	-2.0114	-52.791605	0.001176	11.756094	1.991536	0.000235
1909	1.8985e+02	-1.9913	-52.642231	0.000750	7.499577	1.270463	0.000150
1910	1.8995e+02	-1.9713	-52.472672	0.000851	8.513034	1.442147	0.000170
1911	1.9004e+02	-1.9517	-52.286964	0.000932	9.323799	1.579494	0.000187
1912	1.9014e+02	-1.9314	-52.117404	0.000851	8.513034	1.442147	0.000170
1913	1.9024e+02	-1.9119	-51.867101	0.001257	12.566859	2.128884	0.000252
1914	1.9034e+02	-1.8914	-51.697542	0.000851	8.513034	1.442147	0.000170
1915	1.9044e+02	-1.8726	-51.503759	0.000973	9.729181	1.648168	0.000195
1916	1.9054e+02	-1.8517	-51.309977	0.000973	9.729181	1.648168	0.000195
1917	1.9064e+02	-1.8322	-51.132343	0.000892	8.918416	1.510821	0.000179
1918	1.9074e+02	-1.8124	-50.942597	0.000953	9.526490	1.613831	0.000191
1919	1.9084e+02	-1.7920	-50.756889	0.000932	9.323799	1.579494	0.000187
1920	1.9094e+02	-1.7732	-50.555032	0.001013	10.134564	1.716842	0.000203
1921	1.9104e+02	-1.7517	-50.373361	0.000912	9.121107	1.545157	0.000183
1922	1.9114e+02	-1.7329	-50.191690	0.000912	9.121107	1.545157	0.000183
1923	1.9124e+02	-1.7133	-49.985796	0.001034	10.337255	1.751178	0.000207
1924	1.9134e+02	-1.6924	-49.787976	0.000993	9.931873	1.682505	0.000199
1925	1.9144e+02	-1.6730	-49.586120	0.001013	10.134564	1.716842	0.000203
1926	1.9154e+02	-1.6528	-49.400411	0.000932	9.323799	1.579494	0.000187
1927	1.9164e+02	-1.6335	-49.206629	0.000973	9.729181	1.648168	0.000195
1928	1.9174e+02	-1.6131	-49.020921	0.000932	9.323799	1.579494	0.000187
1929	1.9184e+02	-1.5919	-48.794841	0.001135	11.350711	1.922863	0.000227
1930	1.9194e+02	-1.5734	-48.617207	0.000892	8.918416	1.510821	0.000179
1931	1.9203e+02	-1.5525	-48.431499	0.000932	9.323799	1.579494	0.000187
1932	1.9213e+02	-1.5339	-48.233679	0.000993	9.931873	1.682505	0.000199
1933	1.9223e+02	-1.5132	-48.052008	0.000912	9.121107	1.545157	0.000183
1934	1.9233e+02	-1.4930	-47.838040	0.001074	10.742638	1.819852	0.000215
1935	1.9243e+02	-1.4731	-47.672517	0.000831	8.310342	1.407810	0.000166
1936	1.9253e+02	-1.4529	-47.430289	0.001216	12.161477	2.060210	0.000243
1937	1.9263e+02	-1.4332	-47.220358	0.001054	10.539946	1.785515	0.000211
1938	1.9273e+02	-1.4137	-47.075021	0.000730	7.296886	1.236126	0.000146
1939	1.9283e+02	-1.3931	-46.885276	0.000953	9.526490	1.613831	0.000191
1940	1.9293e+02	-1.3735	-46.675345	0.001054	10.539946	1.785515	0.000211
1941	1.9303e+02	-1.3547	-46.473488	0.001013	10.134564	1.716842	0.000203
1942	1.9313e+02	-1.3345	-46.251446	0.001115	11.148020	1.888526	0.000223
1943	1.9323e+02	-1.3145	-46.065737	0.000932	9.323799	1.579494	0.000187
1944	1.9333e+02	-1.2942	-45.912326	0.000770	7.702268	1.304800	0.000154
1945	1.9343e+02	-1.2734	-45.686247	0.001135	11.350711	1.922863	0.000227
1946	1.9353e+02	-1.2515	-45.496501	0.000953	9.526490	1.613831	0.000191
1947	1.9363e+02	-1.2346	-45.294644	0.001013	10.134564	1.716842	0.000203
1948	1.9373e+02	-1.2152	-45.100862	0.000973	9.729181	1.648168	0.000195
1949	1.9383e+02	-1.1948	-44.850559	0.001257	12.566859	2.128884	0.000252
1950	1.9393e+02	-1.1749	-44.685037	0.000831	8.310342	1.407810	0.000166
1951	1.9403e+02	-1.1552	-44.475106	0.001054	10.539946	1.785515	0.000211
1952	1.9412e+02	-1.1362	-44.305546	0.000851	8.513034	1.442147	0.000170
1953	1.9422e+02	-1.1151	-44.051207	0.001277	12.769550	2.163220	0.000256
1954	1.9432e+02	-1.0954	-43.849350	0.001013	10.134564	1.716842	0.000203
1955	1.9442e+02	-1.0757	-43.647493	0.001013	10.134564	1.716842	0.000203
1956	1.9452e+02	-1.0556	-43.469859	0.000892	8.918416	1.510821	0.000179
1957	1.9462e+02	-1.0349	-43.280114	0.000953	9.526490	1.613831	0.000191
1958	1.9472e+02	-1.0151	-43.058071	0.001115	11.148020	1.888526	0.000223
1959	1.9482e+02	-0.9954	-42.836029	0.001115	11.148020	1.888526	0.000223
1960	1.9492e+02	-0.9750	-42.622061	0.001074	10.742638	1.819852	0.000215
1961	1.9502e+02	-0.9564	-42.436352	0.000932	9.323799	1.579494	0.000187
1962	1.9512e+02	-0.9354	-42.234496	0.001013	10.134564	1.716842	0.000203
1963	1.9522e+02	-0.9164	-42.040713	0.000973	9.729181	1.648168	0.000195
1964	1.9532e+02	-0.8954	-41.822708	0.001095	10.945329	1.854189	0.000219
1965	1.9542e+02	-0.8759	-41.616814	0.001034	10.337255	1.751178	0.000207
1966	1.9552e+02	-0.8562	-41.475514	0.000709	7.094195	1.201789	0.000142
1967	1.9562e+02	-0.8375	-41.209063	0.001338	13.377624	2.266231	0.000268
1968	1.9572e+02	-0.8157	-40.999132	0.001054	10.539946	1.785515	0.000211
1969	1.9582e+02	-0.7966	-40.805349	0.000973	9.729181	1.648168	0.000195
1970	1.9592e+02	-0.7770	-40.603493	0.001013	10.134564	1.716842	0.000203
1971	1.9601e+02	-0.7573	-40.389524	0.001074	10.742638	1.819852	0.000215
1972	1.9611e+02	-0.7362	-40.183631	0.001034	10.337255	1.751178	0.000207
1973	1.9621e+02	-0.7161	-39.973700	0.001054	10.539946	1.785515	0.000211
1974	1.9631e+02	-0.6973	-39.739546	0.001176	11.756094	1.991536	0.000235
1975	1.9641e+02	-0.6770	-39.602283	0.000689	6.891503	1.167452	0.000138
1976	1.9651e+02	-0.6555	-39.331795	0.001358	13.580316	2.300568	0.000272
1977	1.9661e+02	-0.6373	-39.129938	0.001013	10.134564	1.716842	0.000203
1978	1.9671e+02	-0.6171	-38.891747	0.001196	11.958785	2.025873	0.000239
1979	1.9681e+02	-0.5971	-38.726225	0.000831	8.310342	1.407810	0.000166
1980	1.9691e+02	-0.5766	-38.475922	0.001257	12.566859	2.128884	0.000252
1981	1.9701e+02	-0.5568	-38.282140	0.000973	9.729181	1.648168	0.000195
1982	1.9711e+02	-0.5373	-38.052023	0.001155	11.553403	1.957199	0.000231
1983	1.9721e+02	-0.5174	-37.858240	0.000973	9.729181	1.648168	0.000195
1984	1.9731e+02	-0.4978	-37.632161	0.001135	11.350711	1.922863	0.000227
1985	1.9741e+02	-0.4773	-37.422230	0.001054	10.539946	1.785515	0.000211
1986	1.9751e+02	-0.4581	-37.236521	0.000932	9.323799	1.579494	0.000187
1987	1.9761e+02	-0.4375	-36.998330	0.001196	11.958785	2.025873	0.000239
1988	1.9771e+02	-0.4182	-36.752065	0.001236	12.364168	2.094547	0.000248
1989	1.9781e+02	-0.3975	-36.562320	0.000953	9.526490	1.613831	0.000191
1990	1.9791e+02	-0.3791	-36.372574	0.000953	9.526490	1.613831	0.000191
1991	1.9800e+02	-0.3580	-36.138421	0.001176	11.756094	1.991536	0.000235
1992	1.9810e+02	-0.3382	-35.989047	0.000750	7.499577	1.270463	0.000150
1993	1.9820e+02	-0.3180	-35.726633	0.001317	13.174933	2.231894	0.000264
1994	1.9830e+02	-0.2989	-35.540924	0.000932	9.323799	1.579494	0.000187
1995	1.9840e+02	-0.2783	-35.322919	0.001095	10.945329	1.854189	0.000219
1996	1.9850e+02	-0.2590	-35.100877	0.001115	11.148020	1.888526	0.000223
1997	1.9860e+02	-0.2391	-34.878834	0.001115	11.148020	1.888526	0.000223
1998	1.9870e+02	-0.2188	-34.664866	0.001074	10.742638	1.819852	0.000215
1999	1.9880e+02	-0.1989	-34.467046	0.000993	9.931873	1.682505	0.000199
2000	1.9890e+02	-0.1789	-34.269227	0.000993	9.931873	1.682505	0.000199
2001	1.9900e+02	-0.1587	-34.018924	0.001257	12.566859	2.128884	0.000252
2002	1.9910e+02	-0.1391	-33.808993	0.001054	10.539946	1.785515	0.000211
2003	1.9920e+02	-0.1190	-33.627322	0.000912	9.121107	1.545157	0.000183
2004	1.9930e+02	-0.0986	-33.377020	0.001257	12.566859	2.128884	0.000252
2005	1.9940e+02	-0.0789	-33.159014	0.001095	10.945329	1.854189	0.000219
2006	1.9950e+02	-0.0586	-33.005603	0.000770	7.702268	1.304800	0.000154
2007	1.9960e+02	-0.0391	-32.727041	0.001399	13.985698	2.369241	0.000280
2008	1.9970e+02	-0.0187	-32.537295	0.000953	9.526490	1.613831	0.000191
2009	1.9980e+02	-0.0002	-32.331402	0.000953	9.526490	1.613831	0.000207

PMax (uC/cm2):	8.66e+01
Pr (uC/cm2):	1.25e+01
-Pr (uC/cm2):	-4.19e+01
PLoss (uC/cm2):	-4.19e+01
-Vc:	-1.21e+00
C (Max-Eff) (nF):	8.67e-01
K (Eff):	1.47e+03
Vert. (+/-Pr) Shift (uC/cm2):	-1.47e+01
Offset (uC/cm2):	-9.59e+00

A (Loop Area - uC/cm2·Volts):	-1.81e-01



Hysteresis Version: 5.48.1 - Radiant Technologies, Inc., 1999 - 9/12/24

