»»»»»»»»»»»»»»»»»»»»»»»»»»»»»»»»»»»» Hysteresis ««««««««««««««««««««««««««««««««««««
»»»  Executed Version:	5.48.1
»»»  Vision Version:	5.48.4 (R)
»»»  Vision Compiled:	9/18/24
»»»  Driver Version:	5.47.0
»»»  Windows Version:	Windows 8 or 8.1
»»»  Processor Information:	x86 (AMD or Intel) - 32 Processors
»»»  Tester Name:	PMF21124-494 (100V)
»»»  Tester S/N:	PMF21124-494
»»»  Internal Amp Type:	100V RevK 270k
»»»  Internal Amp S/N:	iAB2-596/K     
»»»  Execution Count:	1
»»»»»»»»»»»»»»»»»»»»»»»»»»»»»»»»»»»»»»»»»»««««««««««««««««««««««««««««««««««««««««««

Stored:	7/1/2025 - 15:13:1
Configured:	07/01/25 10:49:51 AM
Executed:	07/01/25 03:12:29 PM

»»»»»»»»»»»»»»»»»»»»»»»»»»»»»»»»»»» Sample Info ««««««««««««««««««««««««««««««««««««
Sample Name:	
Lot Name:	
Wafer Name:	
Die Row/Column:	0/0
Capacitor Number:	0
Sample Area (cm2):	1.00e-04
Sample Thickness (microns):	1.50e-01

Amplifier:	Internal

»»»»»»»»»»»»»»»»»»»»»»»»»»»»»»»»»»» Tester Info «««««««««««««««««««««««««««««««««««
Tester Name:	PMF21124-494 (100V)
Tester Serial Number:	PMF21124-494
Return Signal Amp. Level:	0.19 [Index: 3]

»»»»»»»»»»»»»»»»»»»»»»»»»»»»»»»» Hysteresis Info ««««««««««««««««««««««««««««««««««
Task Name:	Hyst-22
Volts:	10.00
Field:	666.67 (kV/cm)
DCBias:	0.00
DCField:	0.00 (kV/cm)
Hysteresis Period (ms):	2.00e+02
Preset:	Enabled
Preset Delay (ms):	1.00e+03
Profile:	Standard Bipolar

»»»»»»»»»»»»»»»»»»»»»»»»»»»»»»»»»»»»»» Data «««««««««««««««««««««««««««««««««««««««
Points:	2009

Valid Data

Point	Time (ms)	Drive Voltage	Measured Polarization (uC/cm2)	Capacitance (uF)	Normalized Capacitance (uF/cm2)	Dielectric Constant	Instantaneous Current (mA)
   1	0.0000e+00	-0.0011	19.656814	0.000790	7.904749	1.339101	0.000158
   2	9.9500e-02	0.0169	19.814262	0.000790	7.904749	1.339101	0.000158
   3	1.9900e-01	0.0390	19.951525	0.000689	6.891319	1.167421	0.000138
   4	2.9850e-01	0.0575	20.100899	0.000750	7.499377	1.270429	0.000150
   5	3.9800e-01	0.0780	20.242199	0.000709	7.094005	1.201757	0.000142
   6	4.9750e-01	0.0988	20.444055	0.001013	10.134293	1.716796	0.000203
   7	5.9700e-01	0.1192	20.589392	0.000730	7.296691	1.236093	0.000146
   8	6.9650e-01	0.1379	20.702432	0.000568	5.675204	0.961406	0.000114
   9	7.9600e-01	0.1607	20.884103	0.000912	9.120864	1.545116	0.000183
  10	8.9550e-01	0.1787	21.009254	0.000628	6.283262	1.064413	0.000126
  11	9.9500e-01	0.1981	21.186888	0.000892	8.918178	1.510780	0.000179
  12	1.0945e+00	0.2182	21.336262	0.000750	7.499377	1.270429	0.000150
  13	1.1940e+00	0.2385	21.473525	0.000689	6.891319	1.167421	0.000138
  14	1.2935e+00	0.2589	21.618862	0.000730	7.296691	1.236093	0.000146
  15	1.3930e+00	0.2772	21.808607	0.000953	9.526236	1.613788	0.000191
  16	1.4925e+00	0.2979	21.937796	0.000649	6.485948	1.098749	0.000130
  17	1.5920e+00	0.3185	22.095244	0.000790	7.904749	1.339101	0.000158
  18	1.6915e+00	0.3378	22.272878	0.000892	8.918178	1.510780	0.000179
  19	1.7910e+00	0.3576	22.442438	0.000851	8.512806	1.442108	0.000170
  20	1.8905e+00	0.3788	22.543366	0.000507	5.067147	0.858398	0.000101
  21	1.9900e+00	0.3979	22.704851	0.000811	8.107435	1.373437	0.000162
  22	2.0895e+00	0.4175	22.854225	0.000750	7.499377	1.270429	0.000150
  23	2.1890e+00	0.4372	23.052045	0.000993	9.931607	1.682460	0.000199
  24	2.2885e+00	0.4573	23.189308	0.000689	6.891319	1.167421	0.000138
  25	2.3880e+00	0.4774	23.338682	0.000750	7.499377	1.270429	0.000150
  26	2.4875e+00	0.4968	23.500167	0.000811	8.107435	1.373437	0.000162
  27	2.5870e+00	0.5163	23.657615	0.000790	7.904749	1.339101	0.000158
  28	2.6865e+00	0.5369	23.798915	0.000709	7.094005	1.201757	0.000142
  29	2.7860e+00	0.5570	23.968475	0.000851	8.512806	1.442108	0.000170
  30	2.8855e+00	0.5769	24.105737	0.000689	6.891319	1.167421	0.000138
  31	2.9850e+00	0.5980	24.291446	0.000932	9.323550	1.579452	0.000187
  32	3.0845e+00	0.6170	24.481191	0.000953	9.526236	1.613788	0.000191
  33	3.1840e+00	0.6374	24.618454	0.000689	6.891319	1.167421	0.000138
  34	3.2835e+00	0.6570	24.767828	0.000750	7.499377	1.270429	0.000150
  35	3.3830e+00	0.6765	24.925276	0.000790	7.904749	1.339101	0.000158
  36	3.4825e+00	0.6960	25.066576	0.000709	7.094005	1.201757	0.000142
  37	3.5820e+00	0.7166	25.260358	0.000973	9.728921	1.648124	0.000195
  38	3.6815e+00	0.7363	25.454141	0.000973	9.728921	1.648124	0.000195
  39	3.7810e+00	0.7554	25.583329	0.000649	6.485948	1.098749	0.000130
  40	3.8805e+00	0.7756	25.728666	0.000730	7.296691	1.236093	0.000146
  41	3.9800e+00	0.7964	25.894189	0.000831	8.310120	1.407773	0.000166
  42	4.0795e+00	0.8163	26.051637	0.000790	7.904749	1.339101	0.000158
  43	4.1790e+00	0.8356	26.225234	0.000872	8.715492	1.476444	0.000174
  44	4.2785e+00	0.8558	26.374608	0.000750	7.499377	1.270429	0.000150
  45	4.3780e+00	0.8758	26.556279	0.000912	9.120864	1.545116	0.000183
  46	4.4775e+00	0.8961	26.709690	0.000770	7.702063	1.304765	0.000154
  47	4.5770e+00	0.9156	26.859064	0.000750	7.499377	1.270429	0.000150
  48	4.6765e+00	0.9341	27.016512	0.000790	7.904749	1.339101	0.000158
  49	4.7760e+00	0.9558	27.169924	0.000770	7.702063	1.304765	0.000154
  50	4.8755e+00	0.9760	27.371780	0.001013	10.134293	1.716796	0.000203
  51	4.9750e+00	0.9952	27.513080	0.000709	7.094005	1.201757	0.000142
  52	5.0745e+00	1.0152	27.605934	0.000466	4.661775	0.789726	0.000093
  53	5.1740e+00	1.0353	27.848162	0.001216	12.161152	2.060155	0.000243
  54	5.2735e+00	1.0558	28.017722	0.000851	8.512806	1.442108	0.000170
  55	5.3730e+00	1.0754	28.175170	0.000790	7.904749	1.339101	0.000158
  56	5.4725e+00	1.0956	28.304359	0.000649	6.485948	1.098749	0.000130
  57	5.5720e+00	1.1153	28.506215	0.001013	10.134293	1.716796	0.000203
  58	5.6715e+00	1.1353	28.675775	0.000851	8.512806	1.442108	0.000170
  59	5.7710e+00	1.1555	28.813038	0.000689	6.891319	1.167421	0.000138
  60	5.8705e+00	1.1749	28.990672	0.000892	8.918178	1.510780	0.000179
  61	5.9700e+00	1.1956	29.192529	0.001013	10.134293	1.716796	0.000203
  62	6.0695e+00	1.2144	29.333828	0.000709	7.094005	1.201757	0.000142
  63	6.1690e+00	1.2347	29.479165	0.000730	7.296691	1.236093	0.000146
  64	6.2685e+00	1.2544	29.660836	0.000912	9.120864	1.545116	0.000183
  65	6.3680e+00	1.2743	29.790025	0.000649	6.485948	1.098749	0.000130
  66	6.4675e+00	1.2939	29.991881	0.001013	10.134293	1.716796	0.000203
  67	6.5670e+00	1.3131	30.137218	0.000730	7.296691	1.236093	0.000146
  68	6.6665e+00	1.3332	30.347149	0.001054	10.539665	1.785468	0.000211
  69	6.7660e+00	1.3548	30.516709	0.000851	8.512806	1.442108	0.000170
  70	6.8655e+00	1.3731	30.662046	0.000730	7.296691	1.236093	0.000146
  71	6.9650e+00	1.3923	30.827568	0.000831	8.310120	1.407773	0.000166
  72	7.0645e+00	1.4128	30.993091	0.000831	8.310120	1.407773	0.000166
  73	7.1640e+00	1.4339	31.178799	0.000932	9.323550	1.579452	0.000187
  74	7.2635e+00	1.4524	31.303951	0.000628	6.283262	1.064413	0.000126
  75	7.3630e+00	1.4729	31.445250	0.000709	7.094005	1.201757	0.000142
  76	7.4625e+00	1.4931	31.643070	0.000993	9.931607	1.682460	0.000199
  77	7.5620e+00	1.5129	31.824741	0.000912	9.120864	1.545116	0.000183
  78	7.6615e+00	1.5327	31.982189	0.000790	7.904749	1.339101	0.000158
  79	7.7610e+00	1.5530	32.155786	0.000872	8.715492	1.476444	0.000174
  80	7.8605e+00	1.5734	32.321309	0.000831	8.310120	1.407773	0.000166
  81	7.9600e+00	1.5923	32.470683	0.000750	7.499377	1.270429	0.000150
  82	8.0595e+00	1.6125	32.595834	0.000628	6.283262	1.064413	0.000126
  83	8.1590e+00	1.6328	32.785579	0.000953	9.526236	1.613788	0.000191
  84	8.2585e+00	1.6527	32.991473	0.001034	10.336979	1.751132	0.000207
  85	8.3580e+00	1.6724	33.116624	0.000628	6.283262	1.064413	0.000126
  86	8.4575e+00	1.6917	33.265998	0.000750	7.499377	1.270429	0.000150
  87	8.5570e+00	1.7124	33.475930	0.001054	10.539665	1.785468	0.000211
  88	8.6565e+00	1.7322	33.641452	0.000831	8.310120	1.407773	0.000166
  89	8.7560e+00	1.7524	33.835235	0.000973	9.728921	1.648124	0.000195
  90	8.8555e+00	1.7723	33.996720	0.000811	8.107435	1.373437	0.000162
  91	8.9550e+00	1.7913	34.154168	0.000790	7.904749	1.339101	0.000158
  92	9.0545e+00	1.8118	34.315654	0.000811	8.107435	1.373437	0.000162
  93	9.1540e+00	1.8324	34.485213	0.000851	8.512806	1.442108	0.000170
  94	9.2535e+00	1.8520	34.638625	0.000770	7.702063	1.304765	0.000154
  95	9.3530e+00	1.8715	34.840481	0.001013	10.134293	1.716796	0.000203
  96	9.4525e+00	1.8916	34.981781	0.000709	7.094005	1.201757	0.000142
  97	9.5520e+00	1.9120	35.155378	0.000872	8.715492	1.476444	0.000174
  98	9.6515e+00	1.9311	35.345123	0.000953	9.526236	1.613788	0.000191
  99	9.7510e+00	1.9505	35.506609	0.000811	8.107435	1.373437	0.000162
 100	9.8505e+00	1.9711	35.696354	0.000953	9.526236	1.613788	0.000191
 101	9.9500e+00	1.9919	35.849765	0.000770	7.702063	1.304765	0.000154
 102	1.0050e+01	2.0107	36.031436	0.000912	9.120864	1.545116	0.000183
 103	1.0149e+01	2.0313	36.200996	0.000851	8.512806	1.442108	0.000170
 104	1.0248e+01	2.0511	36.358444	0.000790	7.904749	1.339101	0.000158
 105	1.0348e+01	2.0708	36.556264	0.000993	9.931607	1.682460	0.000199
 106	1.0447e+01	2.0911	36.733898	0.000892	8.918178	1.510780	0.000179
 107	1.0547e+01	2.1114	36.895384	0.000811	8.107435	1.373437	0.000162
 108	1.0646e+01	2.1312	37.056869	0.000811	8.107435	1.373437	0.000162
 109	1.0746e+01	2.1508	37.242577	0.000932	9.323550	1.579452	0.000187
 110	1.0845e+01	2.1706	37.416174	0.000872	8.715492	1.476444	0.000174
 111	1.0945e+01	2.1911	37.581697	0.000831	8.310120	1.407773	0.000166
 112	1.1044e+01	2.2103	37.714922	0.000669	6.688633	1.133085	0.000134
 113	1.1144e+01	2.2313	37.920816	0.001034	10.336979	1.751132	0.000207
 114	1.1243e+01	2.2505	38.066153	0.000730	7.296691	1.236093	0.000146
 115	1.1343e+01	2.2691	38.251861	0.000932	9.323550	1.579452	0.000187
 116	1.1443e+01	2.2902	38.417384	0.000831	8.310120	1.407773	0.000166
 117	1.1542e+01	2.3100	38.578869	0.000811	8.107435	1.373437	0.000162
 118	1.1642e+01	2.3293	38.804949	0.001135	11.350408	1.922811	0.000227
 119	1.1741e+01	2.3503	38.954323	0.000750	7.499377	1.270429	0.000150
 120	1.1841e+01	2.3692	39.135994	0.000912	9.120864	1.545116	0.000183
 121	1.1940e+01	2.3904	39.281331	0.000730	7.296691	1.236093	0.000146
 122	1.2040e+01	2.4096	39.475113	0.000973	9.728921	1.648124	0.000195
 123	1.2139e+01	2.4289	39.664859	0.000953	9.526236	1.613788	0.000191
 124	1.2239e+01	2.4496	39.826344	0.000811	8.107435	1.373437	0.000162
 125	1.2338e+01	2.4693	39.983792	0.000790	7.904749	1.339101	0.000158
 126	1.2438e+01	2.4894	40.201798	0.001095	10.945037	1.854139	0.000219
 127	1.2537e+01	2.5085	40.322912	0.000608	6.080576	1.030077	0.000122
 128	1.2636e+01	2.5277	40.492471	0.000851	8.512806	1.442108	0.000170
 129	1.2736e+01	2.5494	40.649920	0.000790	7.904749	1.339101	0.000158
 130	1.2835e+01	2.5687	40.871962	0.001115	11.147722	1.888475	0.000223
 131	1.2935e+01	2.5881	41.005188	0.000669	6.688633	1.133085	0.000134
 132	1.3034e+01	2.6086	41.182822	0.000892	8.918178	1.510780	0.000179
 133	1.3134e+01	2.6287	41.376604	0.000973	9.728921	1.648124	0.000195
 134	1.3233e+01	2.6483	41.517904	0.000709	7.094005	1.201757	0.000142
 135	1.3333e+01	2.6682	41.695538	0.000892	8.918178	1.510780	0.000179
 136	1.3432e+01	2.6887	41.885283	0.000953	9.526236	1.613788	0.000191
 137	1.3532e+01	2.7090	42.038694	0.000770	7.702063	1.304765	0.000154
 138	1.3632e+01	2.7276	42.200180	0.000811	8.107435	1.373437	0.000162
 139	1.3731e+01	2.7483	42.385888	0.000932	9.323550	1.579452	0.000187
 140	1.3831e+01	2.7687	42.591782	0.001034	10.336979	1.751132	0.000207
 141	1.3930e+01	2.7881	42.745193	0.000770	7.702063	1.304765	0.000154
 142	1.4030e+01	2.8082	42.902641	0.000790	7.904749	1.339101	0.000158
 143	1.4129e+01	2.8274	43.104498	0.001013	10.134293	1.716796	0.000203
 144	1.4229e+01	2.8481	43.241761	0.000689	6.891319	1.167421	0.000138
 145	1.4328e+01	2.8671	43.407283	0.000831	8.310120	1.407773	0.000166
 146	1.4428e+01	2.8875	43.601066	0.000973	9.728921	1.648124	0.000195
 147	1.4527e+01	2.9082	43.758514	0.000790	7.904749	1.339101	0.000158
 148	1.4627e+01	2.9276	43.891740	0.000669	6.688633	1.133085	0.000134
 149	1.4726e+01	2.9477	44.089559	0.000993	9.931607	1.682460	0.000199
 150	1.4825e+01	2.9675	44.267193	0.000892	8.918178	1.510780	0.000179
 151	1.4925e+01	2.9871	44.432716	0.000831	8.310120	1.407773	0.000166
 152	1.5024e+01	3.0074	44.598238	0.000831	8.310120	1.407773	0.000166
 153	1.5124e+01	3.0270	44.763761	0.000831	8.310120	1.407773	0.000166
 154	1.5223e+01	3.0473	44.945432	0.000912	9.120864	1.545116	0.000183
 155	1.5323e+01	3.0672	45.106918	0.000811	8.107435	1.373437	0.000162
 156	1.5422e+01	3.0871	45.244180	0.000689	6.891319	1.167421	0.000138
 157	1.5522e+01	3.1069	45.413740	0.000851	8.512806	1.442108	0.000170
 158	1.5621e+01	3.1271	45.623671	0.001054	10.539665	1.785468	0.000211
 159	1.5721e+01	3.1475	45.805342	0.000912	9.120864	1.545116	0.000183
 160	1.5820e+01	3.1663	45.958753	0.000770	7.702063	1.304765	0.000154
 161	1.5920e+01	3.1863	46.136387	0.000892	8.918178	1.510780	0.000179
 162	1.6020e+01	3.2058	46.350355	0.001074	10.742351	1.819803	0.000215
 163	1.6119e+01	3.2265	46.499729	0.000750	7.499377	1.270429	0.000150
 164	1.6218e+01	3.2468	46.673326	0.000872	8.715492	1.476444	0.000174
 165	1.6318e+01	3.2668	46.830775	0.000790	7.904749	1.339101	0.000158
 166	1.6418e+01	3.2862	47.012446	0.000912	9.120864	1.545116	0.000183
 167	1.6517e+01	3.3054	47.177968	0.000831	8.310120	1.407773	0.000166
 168	1.6616e+01	3.3264	47.343491	0.000831	8.310120	1.407773	0.000166
 169	1.6716e+01	3.3450	47.504976	0.000811	8.107435	1.373437	0.000162
 170	1.6816e+01	3.3656	47.658387	0.000770	7.702063	1.304765	0.000154
 171	1.6915e+01	3.3866	47.868318	0.001054	10.539665	1.785468	0.000211
 172	1.7015e+01	3.4061	48.029804	0.000811	8.107435	1.373437	0.000162
 173	1.7114e+01	3.4258	48.191289	0.000811	8.107435	1.373437	0.000162
 174	1.7213e+01	3.4459	48.364886	0.000872	8.715492	1.476444	0.000174
 175	1.7313e+01	3.4646	48.506186	0.000709	7.094005	1.201757	0.000142
 176	1.7413e+01	3.4850	48.671708	0.000831	8.310120	1.407773	0.000166
 177	1.7512e+01	3.5059	48.861454	0.000953	9.526236	1.613788	0.000191
 178	1.7611e+01	3.5250	48.982568	0.000608	6.080576	1.030077	0.000122
 179	1.7711e+01	3.5452	49.196536	0.001074	10.742351	1.819803	0.000215
 180	1.7811e+01	3.5644	49.337836	0.000709	7.094005	1.201757	0.000142
 181	1.7910e+01	3.5854	49.515470	0.000892	8.918178	1.510780	0.000179
 182	1.8009e+01	3.6050	49.672918	0.000790	7.904749	1.339101	0.000158
 183	1.8109e+01	3.6248	49.806144	0.000669	6.688633	1.133085	0.000134
 184	1.8209e+01	3.6446	49.971666	0.000831	8.310120	1.407773	0.000166
 185	1.8308e+01	3.6654	50.149300	0.000892	8.918178	1.510780	0.000179
 186	1.8407e+01	3.6843	50.310786	0.000811	8.107435	1.373437	0.000162
 187	1.8507e+01	3.7045	50.480345	0.000851	8.512806	1.442108	0.000170
 188	1.8607e+01	3.7240	50.621645	0.000709	7.094005	1.201757	0.000142
 189	1.8706e+01	3.7449	50.783130	0.000811	8.107435	1.373437	0.000162
 190	1.8805e+01	3.7652	50.952690	0.000851	8.512806	1.442108	0.000170
 191	1.8905e+01	3.7840	51.110138	0.000790	7.904749	1.339101	0.000158
 192	1.9005e+01	3.8036	51.279698	0.000851	8.512806	1.442108	0.000170
 193	1.9104e+01	3.8250	51.433109	0.000770	7.702063	1.304765	0.000154
 194	1.9203e+01	3.8444	51.582483	0.000750	7.499377	1.270429	0.000150
 195	1.9303e+01	3.8642	51.764154	0.000912	9.120864	1.545116	0.000183
 196	1.9402e+01	3.8866	51.925640	0.000811	8.107435	1.373437	0.000162
 197	1.9502e+01	3.9043	52.054828	0.000649	6.485948	1.098749	0.000130
 198	1.9602e+01	3.9231	52.228425	0.000872	8.715492	1.476444	0.000174
 199	1.9701e+01	3.9433	52.377799	0.000750	7.499377	1.270429	0.000150
 200	1.9800e+01	3.9631	52.555433	0.000892	8.918178	1.510780	0.000179
 201	1.9900e+01	3.9838	52.708844	0.000770	7.702063	1.304765	0.000154
 202	2.0000e+01	4.0038	52.846107	0.000689	6.891319	1.167421	0.000138
 203	2.0099e+01	4.0235	53.035852	0.000953	9.526236	1.613788	0.000191
 204	2.0198e+01	4.0432	53.193300	0.000790	7.904749	1.339101	0.000158
 205	2.0298e+01	4.0630	53.362860	0.000851	8.512806	1.442108	0.000170
 206	2.0398e+01	4.0834	53.471863	0.000547	5.472518	0.927070	0.000110
 207	2.0497e+01	4.1025	53.661608	0.000953	9.526236	1.613788	0.000191
 208	2.0596e+01	4.1232	53.819057	0.000790	7.904749	1.339101	0.000158
 209	2.0696e+01	4.1431	53.948245	0.000649	6.485948	1.098749	0.000130
 210	2.0796e+01	4.1624	54.158176	0.001054	10.539665	1.785468	0.000211
 211	2.0895e+01	4.1824	54.291401	0.000669	6.688633	1.133085	0.000134
 212	2.0994e+01	4.2020	54.444813	0.000770	7.702063	1.304765	0.000154
 213	2.1094e+01	4.2230	54.602261	0.000790	7.904749	1.339101	0.000158
 214	2.1194e+01	4.2422	54.727412	0.000628	6.283262	1.064413	0.000126
 215	2.1293e+01	4.2625	54.905046	0.000892	8.918178	1.510780	0.000179
 216	2.1392e+01	4.2826	55.054420	0.000750	7.499377	1.270429	0.000150
 217	2.1492e+01	4.3023	55.232054	0.000892	8.918178	1.510780	0.000179
 218	2.1591e+01	4.3212	55.345094	0.000568	5.675204	0.961406	0.000114
 219	2.1691e+01	4.3422	55.550988	0.001034	10.336979	1.751132	0.000207
 220	2.1791e+01	4.3616	55.655953	0.000527	5.269832	0.892734	0.000105
 221	2.1890e+01	4.3826	55.817439	0.000811	8.107435	1.373437	0.000162
 222	2.1989e+01	4.4019	55.966813	0.000750	7.499377	1.270429	0.000150
 223	2.2089e+01	4.4222	56.128298	0.000811	8.107435	1.373437	0.000162
 224	2.2189e+01	4.4413	56.269598	0.000709	7.094005	1.201757	0.000142
 225	2.2288e+01	4.4619	56.431083	0.000811	8.107435	1.373437	0.000162
 226	2.2387e+01	4.4820	56.560272	0.000649	6.485948	1.098749	0.000130
 227	2.2487e+01	4.5014	56.737906	0.000892	8.918178	1.510780	0.000179
 228	2.2587e+01	4.5212	56.879205	0.000709	7.094005	1.201757	0.000142
 229	2.2686e+01	4.5400	57.024542	0.000730	7.296691	1.236093	0.000146
 230	2.2785e+01	4.5611	57.165842	0.000709	7.094005	1.201757	0.000142
 231	2.2885e+01	4.5815	57.355587	0.000953	9.526236	1.613788	0.000191
 232	2.2985e+01	4.6006	57.488813	0.000669	6.688633	1.133085	0.000134
 233	2.3084e+01	4.6217	57.638187	0.000750	7.499377	1.270429	0.000150
 234	2.3183e+01	4.6406	57.791598	0.000770	7.702063	1.304765	0.000154
 235	2.3283e+01	4.6606	57.953084	0.000811	8.107435	1.373437	0.000162
 236	2.3383e+01	4.6812	58.082272	0.000649	6.485948	1.098749	0.000130
 237	2.3482e+01	4.7013	58.227609	0.000730	7.296691	1.236093	0.000146
 238	2.3581e+01	4.7201	58.389094	0.000811	8.107435	1.373437	0.000162
 239	2.3681e+01	4.7401	58.526357	0.000689	6.891319	1.167421	0.000138
 240	2.3780e+01	4.7607	58.699954	0.000872	8.715492	1.476444	0.000174
 241	2.3880e+01	4.7805	58.812993	0.000568	5.675204	0.961406	0.000114
 242	2.3980e+01	4.8013	58.954293	0.000709	7.094005	1.201757	0.000142
 243	2.4079e+01	4.8205	59.111741	0.000790	7.904749	1.339101	0.000158
 244	2.4178e+01	4.8391	59.253041	0.000709	7.094005	1.201757	0.000142
 245	2.4278e+01	4.8605	59.402415	0.000750	7.499377	1.270429	0.000150
 246	2.4378e+01	4.8782	59.511418	0.000547	5.472518	0.927070	0.000110
 247	2.4477e+01	4.8997	59.652718	0.000709	7.094005	1.201757	0.000142
 248	2.4576e+01	4.9194	59.846500	0.000973	9.728921	1.648124	0.000195
 249	2.4676e+01	4.9401	59.999911	0.000770	7.702063	1.304765	0.000154
 250	2.4776e+01	4.9599	60.133137	0.000669	6.688633	1.133085	0.000134
 251	2.4875e+01	4.9789	60.298659	0.000831	8.310120	1.407773	0.000166
 252	2.4974e+01	5.0000	60.435922	0.000689	6.891319	1.167421	0.000138
 253	2.5074e+01	5.0198	60.569147	0.000669	6.688633	1.133085	0.000134
 254	2.5174e+01	5.0385	60.694299	0.000628	6.283262	1.064413	0.000126
 255	2.5273e+01	5.0590	60.839636	0.000730	7.296691	1.236093	0.000146
 256	2.5372e+01	5.0792	61.017270	0.000892	8.918178	1.510780	0.000179
 257	2.5472e+01	5.0999	61.102049	0.000426	4.256403	0.721054	0.000085
 258	2.5572e+01	5.1180	61.275646	0.000872	8.715492	1.476444	0.000174
 259	2.5671e+01	5.1382	61.429057	0.000770	7.702063	1.304765	0.000154
 260	2.5770e+01	5.1580	61.550171	0.000608	6.080576	1.030077	0.000122
 261	2.5870e+01	5.1775	61.715694	0.000831	8.310120	1.407773	0.000166
 262	2.5970e+01	5.1977	61.873142	0.000790	7.904749	1.339101	0.000158
 263	2.6069e+01	5.2182	61.974071	0.000507	5.067147	0.858398	0.000101
 264	2.6169e+01	5.2381	62.131519	0.000790	7.904749	1.339101	0.000158
 265	2.6268e+01	5.2578	62.313190	0.000912	9.120864	1.545116	0.000183
 266	2.6367e+01	5.2769	62.410081	0.000486	4.864461	0.824062	0.000097
 267	2.6467e+01	5.2985	62.579641	0.000851	8.512806	1.442108	0.000170
 268	2.6567e+01	5.3179	62.712867	0.000669	6.688633	1.133085	0.000134
 269	2.6666e+01	5.3374	62.866278	0.000770	7.702063	1.304765	0.000154
 270	2.6765e+01	5.3582	63.023726	0.000790	7.904749	1.339101	0.000158
 271	2.6865e+01	5.3779	63.197323	0.000872	8.715492	1.476444	0.000174
 272	2.6965e+01	5.3975	63.274028	0.000385	3.851031	0.652382	0.000077
 273	2.7064e+01	5.4168	63.459737	0.000932	9.323550	1.579452	0.000187
 274	2.7163e+01	5.4371	63.572776	0.000568	5.675204	0.961406	0.000114
 275	2.7263e+01	5.4572	63.718113	0.000730	7.296691	1.236093	0.000146
 276	2.7363e+01	5.4781	63.903822	0.000932	9.323550	1.579452	0.000187
 277	2.7462e+01	5.4964	64.037047	0.000669	6.688633	1.133085	0.000134
 278	2.7561e+01	5.5170	64.170273	0.000669	6.688633	1.133085	0.000134
 279	2.7661e+01	5.5380	64.327721	0.000790	7.904749	1.339101	0.000158
 280	2.7761e+01	5.5566	64.444798	0.000588	5.877890	0.995742	0.000118
 281	2.7860e+01	5.5773	64.614357	0.000851	8.512806	1.442108	0.000170
 282	2.7959e+01	5.5968	64.735472	0.000608	6.080576	1.030077	0.000122
 283	2.8059e+01	5.6161	64.876771	0.000709	7.094005	1.201757	0.000142
 284	2.8159e+01	5.6359	65.022108	0.000730	7.296691	1.236093	0.000146
 285	2.8258e+01	5.6559	65.183594	0.000811	8.107435	1.373437	0.000162
 286	2.8358e+01	5.6762	65.276448	0.000466	4.661775	0.789726	0.000093
 287	2.8457e+01	5.6963	65.417747	0.000709	7.094005	1.201757	0.000142
 288	2.8556e+01	5.7166	65.587307	0.000851	8.512806	1.442108	0.000170
 289	2.8656e+01	5.7368	65.740718	0.000770	7.702063	1.304765	0.000154
 290	2.8756e+01	5.7555	65.886055	0.000730	7.296691	1.236093	0.000146
 291	2.8855e+01	5.7766	65.991021	0.000527	5.269832	0.892734	0.000105
 292	2.8954e+01	5.7957	66.156543	0.000831	8.310120	1.407773	0.000166
 293	2.9054e+01	5.8161	66.322066	0.000831	8.310120	1.407773	0.000166
 294	2.9154e+01	5.8358	66.467403	0.000730	7.296691	1.236093	0.000146
 295	2.9253e+01	5.8531	66.604665	0.000689	6.891319	1.167421	0.000138
 296	2.9352e+01	5.8747	66.766151	0.000811	8.107435	1.373437	0.000162
 297	2.9452e+01	5.8953	66.850931	0.000426	4.256403	0.721054	0.000085
 298	2.9552e+01	5.9164	67.012416	0.000811	8.107435	1.373437	0.000162
 299	2.9651e+01	5.9350	67.153716	0.000709	7.094005	1.201757	0.000142
 300	2.9750e+01	5.9553	67.282904	0.000649	6.485948	1.098749	0.000130
 301	2.9850e+01	5.9754	67.448427	0.000831	8.310120	1.407773	0.000166
 302	2.9950e+01	5.9954	67.561467	0.000568	5.675204	0.961406	0.000114
 303	3.0049e+01	6.0152	67.722952	0.000811	8.107435	1.373437	0.000162
 304	3.0148e+01	6.0352	67.831955	0.000547	5.472518	0.927070	0.000110
 305	3.0248e+01	6.0552	67.973254	0.000709	7.094005	1.201757	0.000142
 306	3.0348e+01	6.0754	68.126666	0.000770	7.702063	1.304765	0.000154
 307	3.0447e+01	6.0945	68.247780	0.000608	6.080576	1.030077	0.000122
 308	3.0547e+01	6.1151	68.405228	0.000790	7.904749	1.339101	0.000158
 309	3.0646e+01	6.1350	68.546528	0.000709	7.094005	1.201757	0.000142
 310	3.0745e+01	6.1549	68.683790	0.000689	6.891319	1.167421	0.000138
 311	3.0845e+01	6.1742	68.857387	0.000872	8.715492	1.476444	0.000174
 312	3.0945e+01	6.1939	68.970427	0.000568	5.675204	0.961406	0.000114
 313	3.1044e+01	6.2145	69.087504	0.000588	5.877890	0.995742	0.000118
 314	3.1143e+01	6.2350	69.228804	0.000709	7.094005	1.201757	0.000142
 315	3.1243e+01	6.2545	69.414512	0.000932	9.323550	1.579452	0.000187
 316	3.1343e+01	6.2738	69.499292	0.000426	4.256403	0.721054	0.000085
 317	3.1442e+01	6.2940	69.664814	0.000831	8.310120	1.407773	0.000166
 318	3.1541e+01	6.3135	69.810151	0.000730	7.296691	1.236093	0.000146
 319	3.1641e+01	6.3332	69.903005	0.000466	4.661775	0.789726	0.000093
 320	3.1741e+01	6.3528	70.048342	0.000730	7.296691	1.236093	0.000146
 321	3.1840e+01	6.3735	70.213865	0.000831	8.310120	1.407773	0.000166
 322	3.1939e+01	6.3937	70.306719	0.000466	4.661775	0.789726	0.000093
 323	3.2039e+01	6.4129	70.464167	0.000790	7.904749	1.339101	0.000158
 324	3.2139e+01	6.4328	70.609504	0.000730	7.296691	1.236093	0.000146
 325	3.2238e+01	6.4526	70.754841	0.000730	7.296691	1.236093	0.000146
 326	3.2337e+01	6.4727	70.884029	0.000649	6.485948	1.098749	0.000130
 327	3.2437e+01	6.4928	71.013218	0.000649	6.485948	1.098749	0.000130
 328	3.2536e+01	6.5118	71.194889	0.000912	9.120864	1.545116	0.000183
 329	3.2636e+01	6.5334	71.311966	0.000588	5.877890	0.995742	0.000118
 330	3.2736e+01	6.5528	71.485563	0.000872	8.715492	1.476444	0.000174
 331	3.2835e+01	6.5739	71.582454	0.000486	4.864461	0.824062	0.000097
 332	3.2934e+01	6.5929	71.752013	0.000851	8.512806	1.442108	0.000170
 333	3.3034e+01	6.6122	71.848905	0.000486	4.864461	0.824062	0.000097
 334	3.3133e+01	6.6326	72.018464	0.000851	8.512806	1.442108	0.000170
 335	3.3233e+01	6.6516	72.123430	0.000527	5.269832	0.892734	0.000105
 336	3.3333e+01	6.6724	72.252618	0.000649	6.485948	1.098749	0.000130
 337	3.3432e+01	6.6918	72.422178	0.000851	8.512806	1.442108	0.000170
 338	3.3532e+01	6.7121	72.535218	0.000568	5.675204	0.961406	0.000114
 339	3.3631e+01	6.7326	72.704778	0.000851	8.512806	1.442108	0.000170
 340	3.3730e+01	6.7520	72.858189	0.000770	7.702063	1.304765	0.000154
 341	3.3830e+01	6.7722	72.963154	0.000527	5.269832	0.892734	0.000105
 342	3.3929e+01	6.7912	73.084268	0.000608	6.080576	1.030077	0.000122
 343	3.4029e+01	6.8105	73.241717	0.000790	7.904749	1.339101	0.000158
 344	3.4129e+01	6.8318	73.362831	0.000608	6.080576	1.030077	0.000122
 345	3.4228e+01	6.8524	73.479908	0.000588	5.877890	0.995742	0.000118
 346	3.4328e+01	6.8710	73.641393	0.000811	8.107435	1.373437	0.000162
 347	3.4427e+01	6.8919	73.758470	0.000588	5.877890	0.995742	0.000118
 348	3.4526e+01	6.9118	73.887658	0.000649	6.485948	1.098749	0.000130
 349	3.4626e+01	6.9312	74.053181	0.000831	8.310120	1.407773	0.000166
 350	3.4725e+01	6.9510	74.190443	0.000689	6.891319	1.167421	0.000138
 351	3.4825e+01	6.9704	74.291372	0.000507	5.067147	0.858398	0.000101
 352	3.4925e+01	6.9913	74.404412	0.000568	5.675204	0.961406	0.000114
 353	3.5024e+01	7.0113	74.569934	0.000831	8.310120	1.407773	0.000166
 354	3.5123e+01	7.0309	74.703160	0.000669	6.688633	1.133085	0.000134
 355	3.5223e+01	7.0513	74.832348	0.000649	6.485948	1.098749	0.000130
 356	3.5322e+01	7.0703	74.949425	0.000588	5.877890	0.995742	0.000118
 357	3.5422e+01	7.0902	75.066502	0.000588	5.877890	0.995742	0.000118
 358	3.5522e+01	7.1098	75.211839	0.000730	7.296691	1.236093	0.000146
 359	3.5621e+01	7.1305	75.345064	0.000669	6.688633	1.133085	0.000134
 360	3.5721e+01	7.1497	75.462141	0.000588	5.877890	0.995742	0.000118
 361	3.5820e+01	7.1697	75.591330	0.000649	6.485948	1.098749	0.000130
 362	3.5919e+01	7.1906	75.708406	0.000588	5.877890	0.995742	0.000118
 363	3.6019e+01	7.2102	75.857781	0.000750	7.499377	1.270429	0.000150
 364	3.6118e+01	7.2295	75.970820	0.000568	5.675204	0.961406	0.000114
 365	3.6218e+01	7.2499	76.071749	0.000507	5.067147	0.858398	0.000101
 366	3.6318e+01	7.2691	76.241308	0.000851	8.512806	1.442108	0.000170
 367	3.6417e+01	7.2897	76.378571	0.000689	6.891319	1.167421	0.000138
 368	3.6517e+01	7.3098	76.495648	0.000588	5.877890	0.995742	0.000118
 369	3.6616e+01	7.3300	76.612725	0.000588	5.877890	0.995742	0.000118
 370	3.6715e+01	7.3498	76.745950	0.000669	6.688633	1.133085	0.000134
 371	3.6815e+01	7.3683	76.875139	0.000649	6.485948	1.098749	0.000130
 372	3.6914e+01	7.3880	76.988179	0.000568	5.675204	0.961406	0.000114
 373	3.7014e+01	7.4094	77.125441	0.000689	6.891319	1.167421	0.000138
 374	3.7114e+01	7.4293	77.258667	0.000669	6.688633	1.133085	0.000134
 375	3.7213e+01	7.4494	77.363632	0.000527	5.269832	0.892734	0.000105
 376	3.7313e+01	7.4687	77.484746	0.000608	6.080576	1.030077	0.000122
 377	3.7412e+01	7.4902	77.630083	0.000730	7.296691	1.236093	0.000146
 378	3.7511e+01	7.5098	77.751197	0.000608	6.080576	1.030077	0.000122
 379	3.7611e+01	7.5282	77.896534	0.000730	7.296691	1.236093	0.000146
 380	3.7711e+01	7.5488	78.013611	0.000588	5.877890	0.995742	0.000118
 381	3.7810e+01	7.5684	78.110502	0.000486	4.864461	0.824062	0.000097
 382	3.7910e+01	7.5871	78.223542	0.000568	5.675204	0.961406	0.000114
 383	3.8009e+01	7.6077	78.401176	0.000892	8.918178	1.510780	0.000179
 384	3.8108e+01	7.6279	78.473844	0.000365	3.648346	0.618046	0.000073
 385	3.8208e+01	7.6485	78.603033	0.000649	6.485948	1.098749	0.000130
 386	3.8307e+01	7.6682	78.748370	0.000730	7.296691	1.236093	0.000146
 387	3.8407e+01	7.6885	78.849298	0.000507	5.067147	0.858398	0.000101
 388	3.8507e+01	7.7087	78.970412	0.000608	6.080576	1.030077	0.000122
 389	3.8606e+01	7.7283	79.123823	0.000770	7.702063	1.304765	0.000154
 390	3.8706e+01	7.7464	79.228789	0.000527	5.269832	0.892734	0.000105
 391	3.8805e+01	7.7668	79.345866	0.000588	5.877890	0.995742	0.000118
 392	3.8904e+01	7.7884	79.450831	0.000527	5.269832	0.892734	0.000105
 393	3.9004e+01	7.8069	79.584057	0.000669	6.688633	1.133085	0.000134
 394	3.9103e+01	7.8285	79.725357	0.000709	7.094005	1.201757	0.000142
 395	3.9203e+01	7.8475	79.814174	0.000446	4.459089	0.755390	0.000089
 396	3.9303e+01	7.8673	79.999882	0.000932	9.323550	1.579452	0.000187
 397	3.9402e+01	7.8870	80.068513	0.000345	3.445660	0.583711	0.000069
 398	3.9502e+01	7.9066	80.205776	0.000689	6.891319	1.167421	0.000138
 399	3.9601e+01	7.9272	80.314778	0.000547	5.472518	0.927070	0.000110
 400	3.9700e+01	7.9472	80.443967	0.000649	6.485948	1.098749	0.000130
 401	3.9800e+01	7.9667	80.577192	0.000669	6.688633	1.133085	0.000134
 402	3.9900e+01	7.9865	80.666009	0.000446	4.459089	0.755390	0.000089
 403	3.9999e+01	8.0073	80.811346	0.000730	7.296691	1.236093	0.000146
 404	4.0099e+01	8.0265	80.956683	0.000730	7.296691	1.236093	0.000146
 405	4.0198e+01	8.0478	81.069723	0.000568	5.675204	0.961406	0.000114
 406	4.0297e+01	8.0668	81.178725	0.000547	5.472518	0.927070	0.000110
 407	4.0397e+01	8.0859	81.283691	0.000527	5.269832	0.892734	0.000105
 408	4.0496e+01	8.1059	81.420954	0.000689	6.891319	1.167421	0.000138
 409	4.0596e+01	8.1261	81.521882	0.000507	5.067147	0.858398	0.000101
 410	4.0696e+01	8.1458	81.659145	0.000689	6.891319	1.167421	0.000138
 411	4.0795e+01	8.1668	81.743924	0.000426	4.256403	0.721054	0.000085
 412	4.0895e+01	8.1853	81.865038	0.000608	6.080576	1.030077	0.000122
 413	4.0994e+01	8.2058	82.010375	0.000730	7.296691	1.236093	0.000146
 414	4.1093e+01	8.2254	82.087081	0.000385	3.851031	0.652382	0.000077
 415	4.1193e+01	8.2458	82.204158	0.000588	5.877890	0.995742	0.000118
 416	4.1292e+01	8.2658	82.325272	0.000608	6.080576	1.030077	0.000122
 417	4.1392e+01	8.2863	82.438312	0.000568	5.675204	0.961406	0.000114
 418	4.1492e+01	8.3045	82.551352	0.000568	5.675204	0.961406	0.000114
 419	4.1591e+01	8.3253	82.672466	0.000608	6.080576	1.030077	0.000122
 420	4.1691e+01	8.3447	82.805691	0.000669	6.688633	1.133085	0.000134
 421	4.1790e+01	8.3643	82.914694	0.000547	5.472518	0.927070	0.000110
 422	4.1889e+01	8.3851	83.019659	0.000527	5.269832	0.892734	0.000105
 423	4.1989e+01	8.4055	83.124625	0.000527	5.269832	0.892734	0.000105
 424	4.2089e+01	8.4243	83.265925	0.000709	7.094005	1.201757	0.000142
 425	4.2188e+01	8.4448	83.407224	0.000709	7.094005	1.201757	0.000142
 426	4.2288e+01	8.4653	83.479893	0.000365	3.648346	0.618046	0.000073
 427	4.2387e+01	8.4849	83.613118	0.000669	6.688633	1.133085	0.000134
 428	4.2486e+01	8.5038	83.774604	0.000811	8.107435	1.373437	0.000162
 429	4.2586e+01	8.5254	83.855346	0.000405	4.053717	0.686718	0.000081
 430	4.2685e+01	8.5449	83.952238	0.000486	4.864461	0.824062	0.000097
 431	4.2785e+01	8.5645	84.089500	0.000689	6.891319	1.167421	0.000138
 432	4.2885e+01	8.5840	84.214651	0.000628	6.283262	1.064413	0.000126
 433	4.2984e+01	8.6044	84.339803	0.000628	6.283262	1.064413	0.000126
 434	4.3084e+01	8.6236	84.452843	0.000568	5.675204	0.961406	0.000114
 435	4.3183e+01	8.6416	84.577994	0.000628	6.283262	1.064413	0.000126
 436	4.3282e+01	8.6646	84.695071	0.000588	5.877890	0.995742	0.000118
 437	4.3382e+01	8.6842	84.804073	0.000547	5.472518	0.927070	0.000110
 438	4.3481e+01	8.7039	84.925187	0.000608	6.080576	1.030077	0.000122
 439	4.3581e+01	8.7237	85.038227	0.000568	5.675204	0.961406	0.000114
 440	4.3681e+01	8.7433	85.147230	0.000547	5.472518	0.927070	0.000110
 441	4.3780e+01	8.7640	85.316790	0.000851	8.512806	1.442108	0.000170
 442	4.3880e+01	8.7833	85.405607	0.000446	4.459089	0.755390	0.000089
 443	4.3979e+01	8.8058	85.506535	0.000507	5.067147	0.858398	0.000101
 444	4.4078e+01	8.8232	85.651872	0.000730	7.296691	1.236093	0.000146
 445	4.4178e+01	8.8413	85.736652	0.000426	4.256403	0.721054	0.000085
 446	4.4278e+01	8.8623	85.853729	0.000588	5.877890	0.995742	0.000118
 447	4.4377e+01	8.8813	85.990991	0.000689	6.891319	1.167421	0.000138
 448	4.4477e+01	8.9023	86.104031	0.000568	5.675204	0.961406	0.000114
 449	4.4576e+01	8.9221	86.241294	0.000689	6.891319	1.167421	0.000138
 450	4.4675e+01	8.9413	86.370482	0.000649	6.485948	1.098749	0.000130
 451	4.4775e+01	8.9624	86.455262	0.000426	4.256403	0.721054	0.000085
 452	4.4874e+01	8.9828	86.612710	0.000790	7.904749	1.339101	0.000158
 453	4.4974e+01	9.0015	86.685379	0.000365	3.648346	0.618046	0.000073
 454	4.5074e+01	9.0213	86.818604	0.000669	6.688633	1.133085	0.000134
 455	4.5173e+01	9.0420	86.947792	0.000649	6.485948	1.098749	0.000130
 456	4.5273e+01	9.0625	87.060832	0.000568	5.675204	0.961406	0.000114
 457	4.5372e+01	9.0820	87.173872	0.000568	5.675204	0.961406	0.000114
 458	4.5471e+01	9.1018	87.250578	0.000385	3.851031	0.652382	0.000077
 459	4.5571e+01	9.1224	87.359580	0.000547	5.472518	0.927070	0.000110
 460	4.5670e+01	9.1421	87.512991	0.000770	7.702063	1.304765	0.000154
 461	4.5770e+01	9.1616	87.642180	0.000649	6.485948	1.098749	0.000130
 462	4.5870e+01	9.1818	87.747145	0.000527	5.269832	0.892734	0.000105
 463	4.5969e+01	9.2020	87.892482	0.000730	7.296691	1.236093	0.000146
 464	4.6069e+01	9.2200	87.997448	0.000527	5.269832	0.892734	0.000105
 465	4.6168e+01	9.2408	88.102413	0.000527	5.269832	0.892734	0.000105
 466	4.6267e+01	9.2600	88.235639	0.000669	6.688633	1.133085	0.000134
 467	4.6367e+01	9.2800	88.324456	0.000446	4.459089	0.755390	0.000089
 468	4.6467e+01	9.3001	88.461718	0.000689	6.891319	1.167421	0.000138
 469	4.6566e+01	9.3207	88.586869	0.000628	6.283262	1.064413	0.000126
 470	4.6666e+01	9.3408	88.671649	0.000426	4.256403	0.721054	0.000085
 471	4.6765e+01	9.3610	88.808912	0.000689	6.891319	1.167421	0.000138
 472	4.6864e+01	9.3818	88.901766	0.000466	4.661775	0.789726	0.000093
 473	4.6964e+01	9.4010	89.067289	0.000831	8.310120	1.407773	0.000166
 474	4.7063e+01	9.4211	89.164180	0.000486	4.864461	0.824062	0.000097
 475	4.7163e+01	9.4396	89.301443	0.000689	6.891319	1.167421	0.000138
 476	4.7263e+01	9.4595	89.414482	0.000568	5.675204	0.961406	0.000114
 477	4.7362e+01	9.4803	89.523485	0.000547	5.472518	0.927070	0.000110
 478	4.7462e+01	9.5000	89.616339	0.000466	4.661775	0.789726	0.000093
 479	4.7561e+01	9.5202	89.733416	0.000588	5.877890	0.995742	0.000118
 480	4.7660e+01	9.5390	89.870679	0.000689	6.891319	1.167421	0.000138
 481	4.7760e+01	9.5596	89.967570	0.000486	4.864461	0.824062	0.000097
 482	4.7859e+01	9.5794	90.096758	0.000649	6.485948	1.098749	0.000130
 483	4.7959e+01	9.5996	90.221909	0.000628	6.283262	1.064413	0.000126
 484	4.8059e+01	9.6191	90.343024	0.000608	6.080576	1.030077	0.000122
 485	4.8158e+01	9.6391	90.468175	0.000628	6.283262	1.064413	0.000126
 486	4.8258e+01	9.6597	90.569103	0.000507	5.067147	0.858398	0.000101
 487	4.8357e+01	9.6790	90.678106	0.000547	5.472518	0.927070	0.000110
 488	4.8456e+01	9.6988	90.823443	0.000730	7.296691	1.236093	0.000146
 489	4.8556e+01	9.7179	90.920334	0.000486	4.864461	0.824062	0.000097
 490	4.8656e+01	9.7388	91.049522	0.000649	6.485948	1.098749	0.000130
 491	4.8755e+01	9.7592	91.166599	0.000588	5.877890	0.995742	0.000118
 492	4.8855e+01	9.7793	91.279639	0.000568	5.675204	0.961406	0.000114
 493	4.8954e+01	9.7986	91.408827	0.000649	6.485948	1.098749	0.000130
 494	4.9053e+01	9.8181	91.513793	0.000527	5.269832	0.892734	0.000105
 495	4.9153e+01	9.8375	91.659130	0.000730	7.296691	1.236093	0.000146
 496	4.9252e+01	9.8584	91.792355	0.000669	6.688633	1.133085	0.000134
 497	4.9352e+01	9.8785	91.909432	0.000588	5.877890	0.995742	0.000118
 498	4.9452e+01	9.8969	92.014398	0.000527	5.269832	0.892734	0.000105
 499	4.9551e+01	9.9180	92.135512	0.000608	6.080576	1.030077	0.000122
 500	4.9651e+01	9.9374	92.244514	0.000547	5.472518	0.927070	0.000110
 501	4.9750e+01	9.9585	92.349480	0.000527	5.269832	0.892734	0.000105
 502	4.9849e+01	9.9774	92.490780	0.000709	7.094005	1.201757	0.000142
 503	4.9949e+01	9.9978	92.603820	0.000568	5.675204	0.961406	0.000114
 504	5.0048e+01	9.9772	92.563448	0.000203	2.026859	0.343359	-0.000041
 505	5.0148e+01	9.9586	92.490780	0.000365	3.648346	0.618046	-0.000073
 506	5.0248e+01	9.9381	92.410037	0.000405	4.053717	0.686718	-0.000081
 507	5.0347e+01	9.9174	92.345443	0.000324	3.242974	0.549375	-0.000065
 508	5.0447e+01	9.8981	92.288923	0.000284	2.837602	0.480703	-0.000057
 509	5.0546e+01	9.8779	92.204143	0.000426	4.256403	0.721054	-0.000085
 510	5.0645e+01	9.8574	92.115326	0.000446	4.459089	0.755390	-0.000089
 511	5.0745e+01	9.8391	92.058806	0.000284	2.837602	0.480703	-0.000057
 512	5.0844e+01	9.8181	91.949804	0.000547	5.472518	0.927070	-0.000110
 513	5.0944e+01	9.7999	91.909432	0.000203	2.026859	0.343359	-0.000041
 514	5.1044e+01	9.7781	91.808504	0.000507	5.067147	0.858398	-0.000101
 515	5.1143e+01	9.7601	91.735835	0.000365	3.648346	0.618046	-0.000073
 516	5.1242e+01	9.7388	91.614721	0.000608	6.080576	1.030077	-0.000122
 517	5.1342e+01	9.7196	91.566276	0.000243	2.432230	0.412031	-0.000049
 518	5.1441e+01	9.6985	91.513793	0.000263	2.634916	0.446367	-0.000053
 519	5.1541e+01	9.6792	91.449199	0.000324	3.242974	0.549375	-0.000065
 520	5.1641e+01	9.6586	91.356345	0.000466	4.661775	0.789726	-0.000093
 521	5.1740e+01	9.6394	91.239268	0.000588	5.877890	0.995742	-0.000118
 522	5.1840e+01	9.6199	91.186785	0.000263	2.634916	0.446367	-0.000053
 523	5.1939e+01	9.5987	91.093931	0.000466	4.661775	0.789726	-0.000093
 524	5.2038e+01	9.5801	91.005114	0.000446	4.459089	0.755390	-0.000089
 525	5.2138e+01	9.5587	90.940520	0.000324	3.242974	0.549375	-0.000065
 526	5.2237e+01	9.5398	90.835554	0.000527	5.269832	0.892734	-0.000105
 527	5.2337e+01	9.5203	90.754811	0.000405	4.053717	0.686718	-0.000081
 528	5.2437e+01	9.5006	90.682143	0.000365	3.648346	0.618046	-0.000073
 529	5.2536e+01	9.4806	90.597363	0.000426	4.256403	0.721054	-0.000085
 530	5.2636e+01	9.4608	90.468175	0.000649	6.485948	1.098749	-0.000130
 531	5.2735e+01	9.4409	90.407618	0.000304	3.040288	0.515039	-0.000061
 532	5.2834e+01	9.4205	90.326875	0.000405	4.053717	0.686718	-0.000081
 533	5.2934e+01	9.4008	90.225947	0.000507	5.067147	0.858398	-0.000101
 534	5.3033e+01	9.3802	90.141167	0.000426	4.256403	0.721054	-0.000085
 535	5.3133e+01	9.3607	90.048313	0.000466	4.661775	0.789726	-0.000093
 536	5.3233e+01	9.3408	89.975644	0.000365	3.648346	0.618046	-0.000073
 537	5.3332e+01	9.3213	89.834344	0.000709	7.094005	1.201757	-0.000142
 538	5.3431e+01	9.3028	89.814159	0.000101	1.013429	0.171680	-0.000020
 539	5.3531e+01	9.2809	89.693045	0.000608	6.080576	1.030077	-0.000122
 540	5.3630e+01	9.2605	89.616339	0.000385	3.851031	0.652382	-0.000077
 541	5.3730e+01	9.2410	89.531559	0.000426	4.256403	0.721054	-0.000085
 542	5.3830e+01	9.2205	89.462928	0.000345	3.445660	0.583711	-0.000069
 543	5.3929e+01	9.2010	89.349888	0.000568	5.675204	0.961406	-0.000114
 544	5.4029e+01	9.1809	89.248960	0.000507	5.067147	0.858398	-0.000101
 545	5.4128e+01	9.1620	89.123809	0.000628	6.283262	1.064413	-0.000126
 546	5.4227e+01	9.1425	89.091511	0.000162	1.621487	0.274687	-0.000032
 547	5.4327e+01	9.1225	88.970397	0.000608	6.080576	1.030077	-0.000122
 548	5.4426e+01	9.1019	88.909840	0.000304	3.040288	0.515039	-0.000061
 549	5.4526e+01	9.0825	88.752392	0.000790	7.904749	1.339101	-0.000158
 550	5.4626e+01	9.0619	88.695872	0.000284	2.837602	0.480703	-0.000057
 551	5.4725e+01	9.0417	88.615129	0.000405	4.053717	0.686718	-0.000081
 552	5.4825e+01	9.0226	88.546498	0.000345	3.445660	0.583711	-0.000069
 553	5.4924e+01	9.0023	88.401161	0.000730	7.296691	1.236093	-0.000146
 554	5.5023e+01	8.9819	88.300233	0.000507	5.067147	0.858398	-0.000101
 555	5.5123e+01	8.9621	88.203342	0.000486	4.864461	0.824062	-0.000097
 556	5.5222e+01	8.9426	88.142785	0.000304	3.040288	0.515039	-0.000061
 557	5.5322e+01	8.9231	88.049930	0.000466	4.661775	0.789726	-0.000093
 558	5.5422e+01	8.9025	87.949002	0.000507	5.067147	0.858398	-0.000101
 559	5.5521e+01	8.8818	87.835962	0.000568	5.675204	0.961406	-0.000114
 560	5.5620e+01	8.8629	87.779442	0.000284	2.837602	0.480703	-0.000057
 561	5.5720e+01	8.8428	87.674477	0.000527	5.269832	0.892734	-0.000105
 562	5.5819e+01	8.8232	87.565474	0.000547	5.472518	0.927070	-0.000110
 563	5.5919e+01	8.8043	87.464546	0.000507	5.067147	0.858398	-0.000101
 564	5.6019e+01	8.7833	87.399952	0.000324	3.242974	0.549375	-0.000065
 565	5.6118e+01	8.7640	87.246540	0.000770	7.702063	1.304765	-0.000154
 566	5.6218e+01	8.7432	87.161761	0.000426	4.256403	0.721054	-0.000085
 567	5.6317e+01	8.7234	87.125426	0.000182	1.824173	0.309023	-0.000037
 568	5.6416e+01	8.7044	86.976052	0.000750	7.499377	1.270429	-0.000150
 569	5.6516e+01	8.6846	86.895310	0.000405	4.053717	0.686718	-0.000081
 570	5.6615e+01	8.6637	86.758047	0.000689	6.891319	1.167421	-0.000138
 571	5.6715e+01	8.6441	86.673267	0.000426	4.256403	0.721054	-0.000085
 572	5.6815e+01	8.6240	86.624822	0.000243	2.432230	0.412031	-0.000049
 573	5.6914e+01	8.6036	86.495633	0.000649	6.485948	1.098749	-0.000130
 574	5.7014e+01	8.5847	86.374519	0.000608	6.080576	1.030077	-0.000122
 575	5.7113e+01	8.5651	86.293776	0.000405	4.053717	0.686718	-0.000081
 576	5.7212e+01	8.5438	86.213034	0.000405	4.053717	0.686718	-0.000081
 577	5.7312e+01	8.5243	86.063660	0.000750	7.499377	1.270429	-0.000150
 578	5.7411e+01	8.5047	85.978880	0.000426	4.256403	0.721054	-0.000085
 579	5.7511e+01	8.4841	85.890063	0.000446	4.459089	0.755390	-0.000089
 580	5.7611e+01	8.4652	85.809320	0.000405	4.053717	0.686718	-0.000081
 581	5.7710e+01	8.4448	85.696280	0.000568	5.675204	0.961406	-0.000114
 582	5.7809e+01	8.4253	85.542869	0.000770	7.702063	1.304765	-0.000154
 583	5.7909e+01	8.4049	85.482312	0.000304	3.040288	0.515039	-0.000061
 584	5.8008e+01	8.3856	85.381384	0.000507	5.067147	0.858398	-0.000101
 585	5.8108e+01	8.3648	85.296604	0.000426	4.256403	0.721054	-0.000085
 586	5.8208e+01	8.3462	85.167416	0.000649	6.485948	1.098749	-0.000130
 587	5.8307e+01	8.3259	85.078599	0.000446	4.459089	0.755390	-0.000089
 588	5.8407e+01	8.3045	84.965559	0.000568	5.675204	0.961406	-0.000114
 589	5.8506e+01	8.2849	84.844445	0.000608	6.080576	1.030077	-0.000122
 590	5.8605e+01	8.2648	84.735442	0.000547	5.472518	0.927070	-0.000110
 591	5.8705e+01	8.2465	84.614328	0.000608	6.080576	1.030077	-0.000122
 592	5.8804e+01	8.2250	84.549734	0.000324	3.242974	0.549375	-0.000065
 593	5.8904e+01	8.2059	84.412471	0.000689	6.891319	1.167421	-0.000138
 594	5.9004e+01	8.1854	84.331728	0.000405	4.053717	0.686718	-0.000081
 595	5.9103e+01	8.1660	84.230800	0.000507	5.067147	0.858398	-0.000101
 596	5.9203e+01	8.1461	84.117760	0.000568	5.675204	0.961406	-0.000114
 597	5.9302e+01	8.1264	84.032980	0.000426	4.256403	0.721054	-0.000085
 598	5.9401e+01	8.1065	83.940126	0.000466	4.661775	0.789726	-0.000093
 599	5.9501e+01	8.0865	83.843235	0.000486	4.864461	0.824062	-0.000097
 600	5.9600e+01	8.0682	83.754418	0.000446	4.459089	0.755390	-0.000089
 601	5.9700e+01	8.0474	83.621193	0.000669	6.688633	1.133085	-0.000134
 602	5.9800e+01	8.0268	83.492004	0.000649	6.485948	1.098749	-0.000130
 603	5.9899e+01	8.0079	83.435484	0.000284	2.837602	0.480703	-0.000057
 604	5.9998e+01	7.9864	83.298222	0.000689	6.891319	1.167421	-0.000138
 605	6.0098e+01	7.9669	83.197293	0.000507	5.067147	0.858398	-0.000101
 606	6.0197e+01	7.9468	83.140773	0.000284	2.837602	0.480703	-0.000057
 607	6.0297e+01	7.9276	83.023696	0.000588	5.877890	0.995742	-0.000118
 608	6.0397e+01	7.9057	82.926805	0.000486	4.864461	0.824062	-0.000097
 609	6.0496e+01	7.8882	82.801654	0.000628	6.283262	1.064413	-0.000126
 610	6.0596e+01	7.8674	82.728986	0.000365	3.648346	0.618046	-0.000073
 611	6.0695e+01	7.8468	82.579612	0.000750	7.499377	1.270429	-0.000150
 612	6.0794e+01	7.8281	82.527129	0.000263	2.634916	0.446367	-0.000053
 613	6.0894e+01	7.8070	82.397940	0.000649	6.485948	1.098749	-0.000130
 614	6.0993e+01	7.7881	82.292975	0.000527	5.269832	0.892734	-0.000105
 615	6.1093e+01	7.7673	82.183972	0.000547	5.472518	0.927070	-0.000110
 616	6.1193e+01	7.7474	82.083044	0.000507	5.067147	0.858398	-0.000101
 617	6.1292e+01	7.7280	81.965967	0.000588	5.877890	0.995742	-0.000118
 618	6.1392e+01	7.7081	81.909447	0.000284	2.837602	0.480703	-0.000057
 619	6.1491e+01	7.6880	81.768147	0.000709	7.094005	1.201757	-0.000142
 620	6.1590e+01	7.6678	81.675293	0.000466	4.661775	0.789726	-0.000093
 621	6.1690e+01	7.6482	81.538031	0.000689	6.891319	1.167421	-0.000138
 622	6.1789e+01	7.6278	81.457288	0.000405	4.053717	0.686718	-0.000081
 623	6.1889e+01	7.6075	81.364434	0.000466	4.661775	0.789726	-0.000093
 624	6.1989e+01	7.5886	81.243320	0.000608	6.080576	1.030077	-0.000122
 625	6.2088e+01	7.5692	81.170651	0.000365	3.648346	0.618046	-0.000073
 626	6.2188e+01	7.5488	81.041463	0.000649	6.485948	1.098749	-0.000130
 627	6.2287e+01	7.5288	80.940534	0.000507	5.067147	0.858398	-0.000101
 628	6.2386e+01	7.5092	80.851717	0.000446	4.459089	0.755390	-0.000089
 629	6.2486e+01	7.4886	80.718492	0.000669	6.688633	1.133085	-0.000134
 630	6.2586e+01	7.4686	80.637749	0.000405	4.053717	0.686718	-0.000081
 631	6.2685e+01	7.4494	80.532784	0.000527	5.269832	0.892734	-0.000105
 632	6.2785e+01	7.4294	80.419744	0.000568	5.675204	0.961406	-0.000114
 633	6.2884e+01	7.4084	80.318816	0.000507	5.067147	0.858398	-0.000101
 634	6.2983e+01	7.3897	80.209813	0.000547	5.472518	0.927070	-0.000110
 635	6.3083e+01	7.3692	80.096773	0.000568	5.675204	0.961406	-0.000114
 636	6.3182e+01	7.3498	80.028142	0.000345	3.445660	0.583711	-0.000069
 637	6.3282e+01	7.3302	79.886842	0.000709	7.094005	1.201757	-0.000142
 638	6.3382e+01	7.3103	79.818211	0.000345	3.445660	0.583711	-0.000069
 639	6.3481e+01	7.2897	79.684985	0.000669	6.688633	1.133085	-0.000134
 640	6.3581e+01	7.2688	79.600205	0.000426	4.256403	0.721054	-0.000085
 641	6.3680e+01	7.2502	79.491203	0.000547	5.472518	0.927070	-0.000110
 642	6.3779e+01	7.2298	79.357977	0.000669	6.688633	1.133085	-0.000134
 643	6.3879e+01	7.2098	79.277234	0.000405	4.053717	0.686718	-0.000081
 644	6.3978e+01	7.1911	79.160158	0.000588	5.877890	0.995742	-0.000118
 645	6.4078e+01	7.1696	79.043081	0.000588	5.877890	0.995742	-0.000118
 646	6.4177e+01	7.1496	78.921967	0.000608	6.080576	1.030077	-0.000122
 647	6.4277e+01	7.1307	78.817001	0.000527	5.269832	0.892734	-0.000105
 648	6.4376e+01	7.1105	78.728184	0.000446	4.459089	0.755390	-0.000089
 649	6.4476e+01	7.0913	78.639367	0.000446	4.459089	0.755390	-0.000089
 650	6.4576e+01	7.0699	78.510179	0.000649	6.485948	1.098749	-0.000130
 651	6.4675e+01	7.0508	78.376953	0.000669	6.688633	1.133085	-0.000134
 652	6.4775e+01	7.0301	78.280062	0.000486	4.864461	0.824062	-0.000097
 653	6.4874e+01	7.0100	78.187208	0.000466	4.661775	0.789726	-0.000093
 654	6.4974e+01	6.9903	78.041871	0.000730	7.296691	1.236093	-0.000146
 655	6.5073e+01	6.9710	77.977277	0.000324	3.242974	0.549375	-0.000065
 656	6.5172e+01	6.9506	77.872311	0.000527	5.269832	0.892734	-0.000105
 657	6.5272e+01	6.9314	77.755234	0.000588	5.877890	0.995742	-0.000118
 658	6.5371e+01	6.9115	77.622009	0.000669	6.688633	1.133085	-0.000134
 659	6.5471e+01	6.8913	77.541266	0.000405	4.053717	0.686718	-0.000081
 660	6.5570e+01	6.8726	77.444375	0.000486	4.864461	0.824062	-0.000097
 661	6.5670e+01	6.8519	77.311149	0.000669	6.688633	1.133085	-0.000134
 662	6.5769e+01	6.8319	77.222332	0.000446	4.459089	0.755390	-0.000089
 663	6.5869e+01	6.8111	77.113330	0.000547	5.472518	0.927070	-0.000110
 664	6.5969e+01	6.7910	77.008364	0.000527	5.269832	0.892734	-0.000105
 665	6.6068e+01	6.7717	76.915510	0.000466	4.661775	0.789726	-0.000093
 666	6.6168e+01	6.7512	76.794396	0.000608	6.080576	1.030077	-0.000122
 667	6.6267e+01	6.7323	76.701542	0.000466	4.661775	0.789726	-0.000093
 668	6.6367e+01	6.7120	76.592539	0.000547	5.472518	0.927070	-0.000110
 669	6.6466e+01	6.6911	76.475462	0.000588	5.877890	0.995742	-0.000118
 670	6.6566e+01	6.6718	76.378571	0.000486	4.864461	0.824062	-0.000097
 671	6.6665e+01	6.6528	76.269568	0.000547	5.472518	0.927070	-0.000110
 672	6.6764e+01	6.6323	76.132306	0.000689	6.891319	1.167421	-0.000138
 673	6.6864e+01	6.6122	76.079823	0.000263	2.634916	0.446367	-0.000053
 674	6.6963e+01	6.5918	75.934486	0.000730	7.296691	1.236093	-0.000146
 675	6.7063e+01	6.5736	75.809335	0.000628	6.283262	1.064413	-0.000126
 676	6.7162e+01	6.5530	75.724555	0.000426	4.256403	0.721054	-0.000085
 677	6.7262e+01	6.5328	75.627664	0.000486	4.864461	0.824062	-0.000097
 678	6.7362e+01	6.5137	75.486364	0.000709	7.094005	1.201757	-0.000142
 679	6.7461e+01	6.4931	75.405621	0.000405	4.053717	0.686718	-0.000081
 680	6.7561e+01	6.4729	75.248173	0.000790	7.904749	1.339101	-0.000158
 681	6.7660e+01	6.4526	75.127059	0.000608	6.080576	1.030077	-0.000122
 682	6.7760e+01	6.4327	75.050353	0.000385	3.851031	0.652382	-0.000077
 683	6.7859e+01	6.4126	74.913091	0.000689	6.891319	1.167421	-0.000138
 684	6.7959e+01	6.3931	74.787940	0.000628	6.283262	1.064413	-0.000126
 685	6.8058e+01	6.3726	74.711234	0.000385	3.851031	0.652382	-0.000077
 686	6.8157e+01	6.3537	74.569934	0.000709	7.094005	1.201757	-0.000142
 687	6.8257e+01	6.3335	74.452857	0.000588	5.877890	0.995742	-0.000118
 688	6.8356e+01	6.3135	74.343855	0.000547	5.472518	0.927070	-0.000110
 689	6.8456e+01	6.2948	74.246963	0.000486	4.864461	0.824062	-0.000097
 690	6.8555e+01	6.2737	74.105664	0.000709	7.094005	1.201757	-0.000142
 691	6.8655e+01	6.2549	73.992624	0.000568	5.675204	0.961406	-0.000114
 692	6.8754e+01	6.2344	73.875547	0.000588	5.877890	0.995742	-0.000118
 693	6.8854e+01	6.2138	73.794804	0.000405	4.053717	0.686718	-0.000081
 694	6.8954e+01	6.1942	73.665616	0.000649	6.485948	1.098749	-0.000130
 695	6.9053e+01	6.1742	73.524316	0.000709	7.094005	1.201757	-0.000142
 696	6.9153e+01	6.1549	73.427425	0.000486	4.864461	0.824062	-0.000097
 697	6.9252e+01	6.1355	73.302274	0.000628	6.283262	1.064413	-0.000126
 698	6.9352e+01	6.1156	73.213457	0.000446	4.459089	0.755390	-0.000089
 699	6.9451e+01	6.0948	73.088305	0.000628	6.283262	1.064413	-0.000126
 700	6.9550e+01	6.0760	72.938931	0.000750	7.499377	1.270429	-0.000150
 701	6.9650e+01	6.0551	72.838003	0.000507	5.067147	0.858398	-0.000101
 702	6.9749e+01	6.0351	72.700740	0.000689	6.891319	1.167421	-0.000138
 703	6.9849e+01	6.0148	72.628072	0.000365	3.648346	0.618046	-0.000073
 704	6.9948e+01	5.9962	72.462549	0.000831	8.310120	1.407773	-0.000166
 705	7.0048e+01	5.9768	72.353547	0.000547	5.472518	0.927070	-0.000110
 706	7.0147e+01	5.9559	72.272804	0.000405	4.053717	0.686718	-0.000081
 707	7.0247e+01	5.9354	72.131504	0.000709	7.094005	1.201757	-0.000142
 708	7.0347e+01	5.9158	72.002316	0.000649	6.485948	1.098749	-0.000130
 709	7.0446e+01	5.8958	71.889276	0.000568	5.675204	0.961406	-0.000114
 710	7.0546e+01	5.8761	71.723754	0.000831	8.310120	1.407773	-0.000166
 711	7.0645e+01	5.8552	71.643011	0.000405	4.053717	0.686718	-0.000081
 712	7.0745e+01	5.8361	71.513822	0.000649	6.485948	1.098749	-0.000130
 713	7.0844e+01	5.8170	71.380597	0.000669	6.688633	1.133085	-0.000134
 714	7.0944e+01	5.7954	71.259483	0.000608	6.080576	1.030077	-0.000122
 715	7.1043e+01	5.7758	71.174703	0.000426	4.256403	0.721054	-0.000085
 716	7.1142e+01	5.7558	71.001106	0.000872	8.715492	1.476444	-0.000174
 717	7.1242e+01	5.7360	70.871918	0.000649	6.485948	1.098749	-0.000130
 718	7.1341e+01	5.7166	70.746767	0.000628	6.283262	1.064413	-0.000126
 719	7.1441e+01	5.6974	70.653913	0.000466	4.661775	0.789726	-0.000093
 720	7.1540e+01	5.6765	70.504539	0.000750	7.499377	1.270429	-0.000150
 721	7.1640e+01	5.6568	70.395536	0.000547	5.472518	0.927070	-0.000110
 722	7.1740e+01	5.6370	70.262310	0.000669	6.688633	1.133085	-0.000134
 723	7.1839e+01	5.6171	70.145233	0.000588	5.877890	0.995742	-0.000118
 724	7.1939e+01	5.5957	70.016045	0.000649	6.485948	1.098749	-0.000130
 725	7.2038e+01	5.5773	69.894931	0.000608	6.080576	1.030077	-0.000122
 726	7.2138e+01	5.5560	69.765743	0.000649	6.485948	1.098749	-0.000130
 727	7.2237e+01	5.5379	69.672889	0.000466	4.661775	0.789726	-0.000093
 728	7.2337e+01	5.5177	69.523515	0.000750	7.499377	1.270429	-0.000150
 729	7.2436e+01	5.4972	69.382215	0.000709	7.094005	1.201757	-0.000142
 730	7.2535e+01	5.4771	69.253026	0.000649	6.485948	1.098749	-0.000130
 731	7.2635e+01	5.4571	69.135950	0.000588	5.877890	0.995742	-0.000118
 732	7.2734e+01	5.4366	69.022910	0.000568	5.675204	0.961406	-0.000114
 733	7.2834e+01	5.4181	68.889684	0.000669	6.688633	1.133085	-0.000134
 734	7.2933e+01	5.3979	68.744347	0.000730	7.296691	1.236093	-0.000146
 735	7.3033e+01	5.3771	68.643419	0.000507	5.067147	0.858398	-0.000101
 736	7.3132e+01	5.3573	68.526342	0.000588	5.877890	0.995742	-0.000118
 737	7.3232e+01	5.3374	68.385042	0.000709	7.094005	1.201757	-0.000142
 738	7.3332e+01	5.3175	68.263928	0.000608	6.080576	1.030077	-0.000122
 739	7.3431e+01	5.2969	68.146851	0.000588	5.877890	0.995742	-0.000118
 740	7.3531e+01	5.2776	68.009589	0.000689	6.891319	1.167421	-0.000138
 741	7.3630e+01	5.2584	67.888475	0.000608	6.080576	1.030077	-0.000122
 742	7.3730e+01	5.2387	67.755249	0.000669	6.688633	1.133085	-0.000134
 743	7.3829e+01	5.2190	67.585689	0.000851	8.512806	1.442108	-0.000170
 744	7.3928e+01	5.1992	67.480724	0.000527	5.269832	0.892734	-0.000105
 745	7.4028e+01	5.1781	67.363647	0.000588	5.877890	0.995742	-0.000118
 746	7.4127e+01	5.1582	67.234459	0.000649	6.485948	1.098749	-0.000130
 747	7.4227e+01	5.1380	67.093159	0.000709	7.094005	1.201757	-0.000142
 748	7.4326e+01	5.1191	66.951859	0.000709	7.094005	1.201757	-0.000142
 749	7.4426e+01	5.0988	66.794411	0.000790	7.904749	1.339101	-0.000158
 750	7.4525e+01	5.0782	66.641000	0.000770	7.702063	1.304765	-0.000154
 751	7.4625e+01	5.0587	66.544108	0.000486	4.864461	0.824062	-0.000097
 752	7.4725e+01	5.0391	66.410883	0.000669	6.688633	1.133085	-0.000134
 753	7.4824e+01	5.0191	66.293806	0.000588	5.877890	0.995742	-0.000118
 754	7.4924e+01	4.9994	66.136358	0.000790	7.904749	1.339101	-0.000158
 755	7.5023e+01	4.9801	66.027355	0.000547	5.472518	0.927070	-0.000110
 756	7.5123e+01	4.9592	65.869907	0.000790	7.904749	1.339101	-0.000158
 757	7.5222e+01	4.9397	65.736681	0.000669	6.688633	1.133085	-0.000134
 758	7.5322e+01	4.9200	65.595381	0.000709	7.094005	1.201757	-0.000142
 759	7.5421e+01	4.9002	65.478305	0.000588	5.877890	0.995742	-0.000118
 760	7.5520e+01	4.8797	65.361228	0.000588	5.877890	0.995742	-0.000118
 761	7.5620e+01	4.8597	65.223965	0.000689	6.891319	1.167421	-0.000138
 762	7.5719e+01	4.8408	65.094777	0.000649	6.485948	1.098749	-0.000130
 763	7.5819e+01	4.8201	64.953477	0.000709	7.094005	1.201757	-0.000142
 764	7.5918e+01	4.8003	64.800066	0.000770	7.702063	1.304765	-0.000154
 765	7.6018e+01	4.7806	64.703174	0.000486	4.864461	0.824062	-0.000097
 766	7.6118e+01	4.7611	64.565912	0.000689	6.891319	1.167421	-0.000138
 767	7.6217e+01	4.7405	64.416538	0.000750	7.499377	1.270429	-0.000150
 768	7.6317e+01	4.7210	64.291387	0.000628	6.283262	1.064413	-0.000126
 769	7.6416e+01	4.7007	64.154124	0.000689	6.891319	1.167421	-0.000138
 770	7.6516e+01	4.6806	64.028973	0.000628	6.283262	1.064413	-0.000126
 771	7.6615e+01	4.6597	63.915933	0.000568	5.675204	0.961406	-0.000114
 772	7.6715e+01	4.6404	63.782708	0.000669	6.688633	1.133085	-0.000134
 773	7.6814e+01	4.6211	63.649482	0.000669	6.688633	1.133085	-0.000134
 774	7.6913e+01	4.6008	63.504145	0.000730	7.296691	1.236093	-0.000146
 775	7.7013e+01	4.5811	63.358808	0.000730	7.296691	1.236093	-0.000146
 776	7.7112e+01	4.5615	63.241731	0.000588	5.877890	0.995742	-0.000118
 777	7.7212e+01	4.5415	63.076209	0.000831	8.310120	1.407773	-0.000166
 778	7.7311e+01	4.5217	62.979318	0.000486	4.864461	0.824062	-0.000097
 779	7.7411e+01	4.5011	62.838018	0.000709	7.094005	1.201757	-0.000142
 780	7.7510e+01	4.4813	62.688644	0.000750	7.499377	1.270429	-0.000150
 781	7.7610e+01	4.4613	62.591752	0.000486	4.864461	0.824062	-0.000097
 782	7.7710e+01	4.4411	62.446416	0.000730	7.296691	1.236093	-0.000146
 783	7.7809e+01	4.4209	62.301079	0.000730	7.296691	1.236093	-0.000146
 784	7.7909e+01	4.4019	62.171890	0.000649	6.485948	1.098749	-0.000130
 785	7.8008e+01	4.3818	62.022516	0.000750	7.499377	1.270429	-0.000150
 786	7.8108e+01	4.3613	61.921588	0.000507	5.067147	0.858398	-0.000101
 787	7.8207e+01	4.3420	61.816622	0.000527	5.269832	0.892734	-0.000105
 788	7.8306e+01	4.3221	61.626877	0.000953	9.526236	1.613788	-0.000191
 789	7.8406e+01	4.3024	61.489614	0.000689	6.891319	1.167421	-0.000138
 790	7.8505e+01	4.2825	61.344278	0.000730	7.296691	1.236093	-0.000146
 791	7.8605e+01	4.2611	61.243349	0.000507	5.067147	0.858398	-0.000101
 792	7.8704e+01	4.2422	61.077827	0.000831	8.310120	1.407773	-0.000166
 793	7.8804e+01	4.2217	60.976898	0.000507	5.067147	0.858398	-0.000101
 794	7.8903e+01	4.2025	60.799264	0.000892	8.918178	1.510780	-0.000179
 795	7.9003e+01	4.1817	60.662002	0.000689	6.891319	1.167421	-0.000138
 796	7.9103e+01	4.1626	60.573185	0.000446	4.459089	0.755390	-0.000089
 797	7.9202e+01	4.1444	60.435922	0.000689	6.891319	1.167421	-0.000138
 798	7.9302e+01	4.1222	60.298659	0.000689	6.891319	1.167421	-0.000138
 799	7.9401e+01	4.1027	60.177545	0.000608	6.080576	1.030077	-0.000122
 800	7.9501e+01	4.0830	60.016060	0.000811	8.107435	1.373437	-0.000162
 801	7.9600e+01	4.0636	59.886872	0.000649	6.485948	1.098749	-0.000130
 802	7.9700e+01	4.0417	59.729423	0.000790	7.904749	1.339101	-0.000158
 803	7.9799e+01	4.0227	59.620421	0.000547	5.472518	0.927070	-0.000110
 804	7.9898e+01	4.0034	59.491232	0.000649	6.485948	1.098749	-0.000130
 805	7.9998e+01	3.9828	59.325710	0.000831	8.310120	1.407773	-0.000166
 806	8.0097e+01	3.9645	59.156150	0.000851	8.512806	1.442108	-0.000170
 807	8.0197e+01	3.9434	59.051184	0.000527	5.269832	0.892734	-0.000105
 808	8.0296e+01	3.9233	58.889699	0.000811	8.107435	1.373437	-0.000162
 809	8.0396e+01	3.9043	58.772622	0.000588	5.877890	0.995742	-0.000118
 810	8.0496e+01	3.8831	58.647471	0.000628	6.283262	1.064413	-0.000126
 811	8.0595e+01	3.8641	58.485985	0.000811	8.107435	1.373437	-0.000162
 812	8.0695e+01	3.8437	58.368909	0.000588	5.877890	0.995742	-0.000118
 813	8.0794e+01	3.8241	58.227609	0.000709	7.094005	1.201757	-0.000142
 814	8.0894e+01	3.8038	58.074198	0.000770	7.702063	1.304765	-0.000154
 815	8.0993e+01	3.7839	57.936935	0.000689	6.891319	1.167421	-0.000138
 816	8.1093e+01	3.7648	57.779487	0.000790	7.904749	1.339101	-0.000158
 817	8.1192e+01	3.7450	57.646261	0.000669	6.688633	1.133085	-0.000134
 818	8.1291e+01	3.7247	57.484776	0.000811	8.107435	1.373437	-0.000162
 819	8.1391e+01	3.7052	57.347513	0.000689	6.891319	1.167421	-0.000138
 820	8.1490e+01	3.6850	57.214288	0.000669	6.688633	1.133085	-0.000134
 821	8.1590e+01	3.6648	57.089136	0.000628	6.283262	1.064413	-0.000126
 822	8.1689e+01	3.6448	56.963985	0.000628	6.283262	1.064413	-0.000126
 823	8.1789e+01	3.6248	56.830760	0.000669	6.688633	1.133085	-0.000134
 824	8.1888e+01	3.6044	56.665237	0.000831	8.310120	1.407773	-0.000166
 825	8.1988e+01	3.5858	56.548160	0.000588	5.877890	0.995742	-0.000118
 826	8.2088e+01	3.5651	56.390712	0.000790	7.904749	1.339101	-0.000158
 827	8.2187e+01	3.5454	56.241338	0.000750	7.499377	1.270429	-0.000150
 828	8.2287e+01	3.5258	56.132335	0.000547	5.472518	0.927070	-0.000110
 829	8.2386e+01	3.5061	55.982961	0.000750	7.499377	1.270429	-0.000150
 830	8.2486e+01	3.4859	55.833587	0.000750	7.499377	1.270429	-0.000150
 831	8.2585e+01	3.4660	55.700362	0.000669	6.688633	1.133085	-0.000134
 832	8.2684e+01	3.4463	55.579248	0.000608	6.080576	1.030077	-0.000122
 833	8.2784e+01	3.4265	55.409688	0.000851	8.512806	1.442108	-0.000170
 834	8.2883e+01	3.4055	55.272425	0.000689	6.891319	1.167421	-0.000138
 835	8.2983e+01	3.3860	55.135163	0.000689	6.891319	1.167421	-0.000138
 836	8.3082e+01	3.3676	55.005974	0.000649	6.485948	1.098749	-0.000130
 837	8.3182e+01	3.3457	54.852563	0.000770	7.702063	1.304765	-0.000154
 838	8.3281e+01	3.3263	54.719338	0.000669	6.688633	1.133085	-0.000134
 839	8.3381e+01	3.3061	54.574001	0.000730	7.296691	1.236093	-0.000146
 840	8.3481e+01	3.2864	54.452887	0.000608	6.080576	1.030077	-0.000122
 841	8.3580e+01	3.2671	54.291401	0.000811	8.107435	1.373437	-0.000162
 842	8.3680e+01	3.2471	54.154139	0.000689	6.891319	1.167421	-0.000138
 843	8.3779e+01	3.2258	54.000728	0.000770	7.702063	1.304765	-0.000154
 844	8.3879e+01	3.2056	53.936133	0.000324	3.242974	0.549375	-0.000065
 845	8.3978e+01	3.1869	53.718128	0.001095	10.945037	1.854139	-0.000219
 846	8.4078e+01	3.1660	53.576828	0.000709	7.094005	1.201757	-0.000142
 847	8.4177e+01	3.1473	53.443603	0.000669	6.688633	1.133085	-0.000134
 848	8.4276e+01	3.1263	53.249820	0.000973	9.728921	1.648124	-0.000195
 849	8.4376e+01	3.1073	53.124669	0.000628	6.283262	1.064413	-0.000126
 850	8.4475e+01	3.0875	52.975295	0.000750	7.499377	1.270429	-0.000150
 851	8.4575e+01	3.0673	52.821884	0.000770	7.702063	1.304765	-0.000154
 852	8.4674e+01	3.0470	52.692696	0.000649	6.485948	1.098749	-0.000130
 853	8.4774e+01	3.0270	52.555433	0.000689	6.891319	1.167421	-0.000138
 854	8.4874e+01	3.0077	52.422208	0.000669	6.688633	1.133085	-0.000134
 855	8.4973e+01	2.9874	52.252648	0.000851	8.512806	1.442108	-0.000170
 856	8.5073e+01	2.9673	52.103274	0.000750	7.499377	1.270429	-0.000150
 857	8.5172e+01	2.9473	51.933714	0.000851	8.512806	1.442108	-0.000170
 858	8.5272e+01	2.9274	51.776266	0.000790	7.904749	1.339101	-0.000158
 859	8.5371e+01	2.9087	51.667263	0.000547	5.472518	0.927070	-0.000110
 860	8.5471e+01	2.8876	51.493666	0.000872	8.715492	1.476444	-0.000174
 861	8.5570e+01	2.8677	51.376589	0.000588	5.877890	0.995742	-0.000118
 862	8.5669e+01	2.8477	51.227215	0.000750	7.499377	1.270429	-0.000150
 863	8.5769e+01	2.8277	51.041507	0.000932	9.323550	1.579452	-0.000187
 864	8.5868e+01	2.8083	50.880022	0.000811	8.107435	1.373437	-0.000162
 865	8.5968e+01	2.7885	50.734685	0.000730	7.296691	1.236093	-0.000146
 866	8.6067e+01	2.7682	50.581274	0.000770	7.702063	1.304765	-0.000154
 867	8.6167e+01	2.7479	50.415751	0.000831	8.310120	1.407773	-0.000166
 868	8.6266e+01	2.7286	50.298674	0.000588	5.877890	0.995742	-0.000118
 869	8.6366e+01	2.7086	50.121040	0.000892	8.918178	1.510780	-0.000179
 870	8.6466e+01	2.6879	49.943406	0.000892	8.918178	1.510780	-0.000179
 871	8.6565e+01	2.6685	49.830366	0.000568	5.675204	0.961406	-0.000114
 872	8.6665e+01	2.6482	49.660807	0.000851	8.512806	1.442108	-0.000170
 873	8.6764e+01	2.6287	49.531618	0.000649	6.485948	1.098749	-0.000130
 874	8.6864e+01	2.6087	49.317650	0.001074	10.742351	1.819803	-0.000215
 875	8.6963e+01	2.5892	49.220759	0.000486	4.864461	0.824062	-0.000097
 876	8.7063e+01	2.5694	49.039088	0.000912	9.120864	1.545116	-0.000183
 877	8.7162e+01	2.5491	48.905862	0.000669	6.688633	1.133085	-0.000134
 878	8.7261e+01	2.5293	48.776674	0.000649	6.485948	1.098749	-0.000130
 879	8.7361e+01	2.5087	48.586929	0.000953	9.526236	1.613788	-0.000191
 880	8.7460e+01	2.4896	48.453703	0.000669	6.688633	1.133085	-0.000134
 881	8.7560e+01	2.4702	48.284143	0.000851	8.512806	1.442108	-0.000170
 882	8.7659e+01	2.4505	48.171104	0.000568	5.675204	0.961406	-0.000114
 883	8.7759e+01	2.4302	47.985395	0.000932	9.323550	1.579452	-0.000187
 884	8.7859e+01	2.4096	47.844096	0.000709	7.094005	1.201757	-0.000142
 885	8.7958e+01	2.3895	47.642239	0.001013	10.134293	1.716796	-0.000203
 886	8.8058e+01	2.3695	47.480753	0.000811	8.107435	1.373437	-0.000162
 887	8.8157e+01	2.3496	47.375788	0.000527	5.269832	0.892734	-0.000105
 888	8.8257e+01	2.3302	47.173931	0.001013	10.134293	1.716796	-0.000203
 889	8.8356e+01	2.3096	47.004371	0.000851	8.512806	1.442108	-0.000170
 890	8.8456e+01	2.2909	46.867109	0.000689	6.891319	1.167421	-0.000138
 891	8.8555e+01	2.2699	46.713698	0.000770	7.702063	1.304765	-0.000154
 892	8.8654e+01	2.2502	46.544138	0.000851	8.512806	1.442108	-0.000170
 893	8.8754e+01	2.2310	46.394764	0.000750	7.499377	1.270429	-0.000150
 894	8.8853e+01	2.2108	46.245390	0.000750	7.499377	1.270429	-0.000150
 895	8.8953e+01	2.1908	46.087942	0.000790	7.904749	1.339101	-0.000158
 896	8.9052e+01	2.1715	45.922419	0.000831	8.310120	1.407773	-0.000166
 897	8.9152e+01	2.1508	45.769008	0.000770	7.702063	1.304765	-0.000154
 898	8.9251e+01	2.1304	45.615597	0.000770	7.702063	1.304765	-0.000154
 899	8.9351e+01	2.1106	45.454111	0.000811	8.107435	1.373437	-0.000162
 900	8.9451e+01	2.0899	45.264366	0.000953	9.526236	1.613788	-0.000191
 901	8.9550e+01	2.0705	45.094806	0.000851	8.512806	1.442108	-0.000170
 902	8.9650e+01	2.0502	44.953506	0.000709	7.094005	1.201757	-0.000142
 903	8.9749e+01	2.0310	44.820281	0.000669	6.688633	1.133085	-0.000134
 904	8.9849e+01	2.0113	44.618424	0.001013	10.134293	1.716796	-0.000203
 905	8.9948e+01	1.9917	44.436753	0.000912	9.120864	1.545116	-0.000183
 906	9.0047e+01	1.9714	44.311602	0.000628	6.283262	1.064413	-0.000126
 907	9.0147e+01	1.9515	44.113782	0.000993	9.931607	1.682460	-0.000199
 908	9.0246e+01	1.9308	43.980557	0.000669	6.688633	1.133085	-0.000134
 909	9.0346e+01	1.9120	43.815034	0.000831	8.310120	1.407773	-0.000166
 910	9.0445e+01	1.8908	43.625289	0.000953	9.526236	1.613788	-0.000191
 911	9.0545e+01	1.8719	43.488026	0.000689	6.891319	1.167421	-0.000138
 912	9.0644e+01	1.8516	43.322504	0.000831	8.310120	1.407773	-0.000166
 913	9.0744e+01	1.8318	43.128721	0.000973	9.728921	1.648124	-0.000195
 914	9.0844e+01	1.8124	42.979347	0.000750	7.499377	1.270429	-0.000150
 915	9.0943e+01	1.7915	42.817862	0.000811	8.107435	1.373437	-0.000162
 916	9.1043e+01	1.7723	42.676562	0.000709	7.094005	1.201757	-0.000142
 917	9.1142e+01	1.7525	42.519114	0.000790	7.904749	1.339101	-0.000158
 918	9.1242e+01	1.7319	42.305145	0.001074	10.742351	1.819803	-0.000215
 919	9.1341e+01	1.7121	42.175957	0.000649	6.485948	1.098749	-0.000130
 920	9.1441e+01	1.6918	41.990249	0.000932	9.323550	1.579452	-0.000187
 921	9.1540e+01	1.6727	41.832801	0.000790	7.904749	1.339101	-0.000158
 922	9.1639e+01	1.6529	41.667278	0.000831	8.310120	1.407773	-0.000166
 923	9.1739e+01	1.6322	41.501755	0.000831	8.310120	1.407773	-0.000166
 924	9.1838e+01	1.6126	41.320084	0.000912	9.120864	1.545116	-0.000183
 925	9.1938e+01	1.5926	41.134376	0.000932	9.323550	1.579452	-0.000187
 926	9.2037e+01	1.5730	40.993076	0.000709	7.094005	1.201757	-0.000142
 927	9.2137e+01	1.5526	40.799294	0.000973	9.728921	1.648124	-0.000195
 928	9.2237e+01	1.5331	40.633771	0.000831	8.310120	1.407773	-0.000166
 929	9.2336e+01	1.5140	40.484397	0.000750	7.499377	1.270429	-0.000150
 930	9.2436e+01	1.4932	40.294652	0.000953	9.526236	1.613788	-0.000191
 931	9.2535e+01	1.4743	40.145278	0.000750	7.499377	1.270429	-0.000150
 932	9.2635e+01	1.4535	39.963607	0.000912	9.120864	1.545116	-0.000183
 933	9.2734e+01	1.4336	39.794047	0.000851	8.512806	1.442108	-0.000170
 934	9.2834e+01	1.4126	39.685044	0.000547	5.472518	0.927070	-0.000110
 935	9.2933e+01	1.3934	39.475113	0.001054	10.539665	1.785468	-0.000211
 936	9.3032e+01	1.3735	39.353999	0.000608	6.080576	1.030077	-0.000122
 937	9.3132e+01	1.3526	39.131957	0.001115	11.147722	1.888475	-0.000223
 938	9.3231e+01	1.3332	39.014880	0.000588	5.877890	0.995742	-0.000118
 939	9.3331e+01	1.3139	38.768614	0.001236	12.363838	2.094491	-0.000248
 940	9.3430e+01	1.2931	38.651538	0.000588	5.877890	0.995742	-0.000118
 941	9.3530e+01	1.2737	38.518312	0.000669	6.688633	1.133085	-0.000134
 942	9.3629e+01	1.2546	38.332604	0.000932	9.323550	1.579452	-0.000187
 943	9.3729e+01	1.2348	38.171118	0.000811	8.107435	1.373437	-0.000162
 944	9.3829e+01	1.2146	37.989447	0.000912	9.120864	1.545116	-0.000183
 945	9.3928e+01	1.1957	37.860259	0.000649	6.485948	1.098749	-0.000130
 946	9.4028e+01	1.1742	37.666476	0.000973	9.728921	1.648124	-0.000195
 947	9.4127e+01	1.1548	37.488842	0.000892	8.918178	1.510780	-0.000179
 948	9.4227e+01	1.1353	37.295060	0.000973	9.728921	1.648124	-0.000195
 949	9.4326e+01	1.1149	37.202206	0.000466	4.661775	0.789726	-0.000093
 950	9.4425e+01	1.0961	37.020535	0.000912	9.120864	1.545116	-0.000183
 951	9.4525e+01	1.0759	36.834826	0.000932	9.323550	1.579452	-0.000187
 952	9.4624e+01	1.0552	36.697564	0.000689	6.891319	1.167421	-0.000138
 953	9.4724e+01	1.0335	36.491670	0.001034	10.336979	1.751132	-0.000207
 954	9.4823e+01	1.0149	36.338259	0.000770	7.702063	1.304765	-0.000154
 955	9.4923e+01	0.9955	36.156588	0.000912	9.120864	1.545116	-0.000183
 956	9.5022e+01	0.9756	36.023362	0.000669	6.688633	1.133085	-0.000134
 957	9.5122e+01	0.9551	35.797283	0.001135	11.350408	1.922811	-0.000227
 958	9.5222e+01	0.9354	35.660020	0.000689	6.891319	1.167421	-0.000138
 959	9.5321e+01	0.9166	35.474312	0.000932	9.323550	1.579452	-0.000187
 960	9.5421e+01	0.8958	35.324938	0.000750	7.499377	1.270429	-0.000150
 961	9.5520e+01	0.8761	35.203824	0.000608	6.080576	1.030077	-0.000122
 962	9.5620e+01	0.8564	34.997930	0.001034	10.336979	1.751132	-0.000207
 963	9.5719e+01	0.8357	34.824333	0.000872	8.715492	1.476444	-0.000174
 964	9.5819e+01	0.8168	34.691107	0.000669	6.688633	1.133085	-0.000134
 965	9.5918e+01	0.7967	34.469065	0.001115	11.147722	1.888475	-0.000223
 966	9.6017e+01	0.7758	34.295468	0.000872	8.715492	1.476444	-0.000174
 967	9.6117e+01	0.7562	34.162243	0.000669	6.688633	1.133085	-0.000134
 968	9.6216e+01	0.7363	33.968460	0.000973	9.728921	1.648124	-0.000195
 969	9.6316e+01	0.7169	33.782752	0.000932	9.323550	1.579452	-0.000187
 970	9.6415e+01	0.6969	33.649526	0.000669	6.688633	1.133085	-0.000134
 971	9.6515e+01	0.6770	33.455744	0.000973	9.728921	1.648124	-0.000195
 972	9.6615e+01	0.6567	33.326556	0.000649	6.485948	1.098749	-0.000130
 973	9.6714e+01	0.6362	33.181219	0.000730	7.296691	1.236093	-0.000146
 974	9.6814e+01	0.6165	32.947065	0.001176	11.755780	1.991483	-0.000235
 975	9.6913e+01	0.5965	32.801728	0.000730	7.296691	1.236093	-0.000146
 976	9.7013e+01	0.5775	32.660428	0.000709	7.094005	1.201757	-0.000142
 977	9.7112e+01	0.5582	32.462608	0.000993	9.931607	1.682460	-0.000199
 978	9.7212e+01	0.5374	32.276900	0.000932	9.323550	1.579452	-0.000187
 979	9.7311e+01	0.5178	32.135600	0.000709	7.094005	1.201757	-0.000142
 980	9.7410e+01	0.4974	31.978152	0.000790	7.904749	1.339101	-0.000158
 981	9.7510e+01	0.4780	31.792444	0.000932	9.323550	1.579452	-0.000187
 982	9.7609e+01	0.4572	31.614810	0.000892	8.918178	1.510780	-0.000179
 983	9.7709e+01	0.4377	31.461399	0.000770	7.702063	1.304765	-0.000154
 984	9.7808e+01	0.4167	31.291839	0.000851	8.512806	1.442108	-0.000170
 985	9.7908e+01	0.3979	31.146502	0.000730	7.296691	1.236093	-0.000146
 986	9.8007e+01	0.3779	30.912348	0.001176	11.755780	1.991483	-0.000235
 987	9.8107e+01	0.3574	30.791234	0.000608	6.080576	1.030077	-0.000122
 988	9.8207e+01	0.3376	30.605526	0.000932	9.323550	1.579452	-0.000187
 989	9.8306e+01	0.3184	30.431929	0.000872	8.715492	1.476444	-0.000174
 990	9.8406e+01	0.2969	30.234110	0.000993	9.931607	1.682460	-0.000199
 991	9.8505e+01	0.2785	30.064550	0.000851	8.512806	1.442108	-0.000170
 992	9.8605e+01	0.2585	29.882879	0.000912	9.120864	1.545116	-0.000183
 993	9.8704e+01	0.2380	29.737542	0.000730	7.296691	1.236093	-0.000146
 994	9.8803e+01	0.2177	29.535685	0.001013	10.134293	1.716796	-0.000203
 995	9.8903e+01	0.1989	29.426682	0.000547	5.472518	0.927070	-0.000110
 996	9.9002e+01	0.1784	29.228863	0.000993	9.931607	1.682460	-0.000199
 997	9.9102e+01	0.1591	29.083526	0.000730	7.296691	1.236093	-0.000146
 998	9.9201e+01	0.1374	28.873595	0.001054	10.539665	1.785468	-0.000211
 999	9.9301e+01	0.1183	28.740369	0.000669	6.688633	1.133085	-0.000134
1000	9.9400e+01	0.0983	28.522364	0.001095	10.945037	1.854139	-0.000219
1001	9.9500e+01	0.0785	28.405287	0.000588	5.877890	0.995742	-0.000118
1002	9.9600e+01	0.0587	28.235727	0.000851	8.512806	1.442108	-0.000170
1003	9.9699e+01	0.0378	28.054056	0.000912	9.120864	1.545116	-0.000183
1004	9.9799e+01	0.0188	27.884497	0.000851	8.512806	1.442108	-0.000170
1005	9.9898e+01	-0.0005	27.727048	0.000790	7.904749	1.339101	-0.000158
1006	9.9998e+01	-0.0186	27.569600	0.000790	7.904749	1.339101	-0.000158
1007	1.0010e+02	-0.0378	27.383892	0.000932	9.323550	1.579452	-0.000187
1008	1.0020e+02	-0.0591	27.198183	0.000932	9.323550	1.579452	-0.000187
1009	1.0030e+02	-0.0787	27.060921	0.000689	6.891319	1.167421	-0.000138
1010	1.0040e+02	-0.0988	26.859064	0.001013	10.134293	1.716796	-0.000203
1011	1.0050e+02	-0.1186	26.685467	0.000872	8.715492	1.476444	-0.000174
1012	1.0059e+02	-0.1379	26.532056	0.000770	7.702063	1.304765	-0.000154
1013	1.0069e+02	-0.1588	26.342311	0.000953	9.526236	1.613788	-0.000191
1014	1.0079e+02	-0.1788	26.172751	0.000851	8.512806	1.442108	-0.000170
1015	1.0089e+02	-0.1983	25.999154	0.000872	8.715492	1.476444	-0.000174
1016	1.0099e+02	-0.2182	25.853817	0.000730	7.296691	1.236093	-0.000146
1017	1.0109e+02	-0.2383	25.660035	0.000973	9.728921	1.648124	-0.000195
1018	1.0119e+02	-0.2579	25.486438	0.000872	8.715492	1.476444	-0.000174
1019	1.0129e+02	-0.2772	25.296693	0.000953	9.526236	1.613788	-0.000191
1020	1.0139e+02	-0.2986	25.143281	0.000770	7.702063	1.304765	-0.000154
1021	1.0149e+02	-0.3178	24.953536	0.000953	9.526236	1.613788	-0.000191
1022	1.0159e+02	-0.3378	24.775902	0.000892	8.918178	1.510780	-0.000179
1023	1.0169e+02	-0.3583	24.602305	0.000872	8.715492	1.476444	-0.000174
1024	1.0179e+02	-0.3772	24.412560	0.000953	9.526236	1.613788	-0.000191
1025	1.0189e+02	-0.3975	24.243000	0.000851	8.512806	1.442108	-0.000170
1026	1.0199e+02	-0.4178	24.073440	0.000851	8.512806	1.442108	-0.000170
1027	1.0209e+02	-0.4373	23.871584	0.001013	10.134293	1.716796	-0.000203
1028	1.0219e+02	-0.4572	23.738358	0.000669	6.688633	1.133085	-0.000134
1029	1.0229e+02	-0.4768	23.524390	0.001074	10.742351	1.819803	-0.000215
1030	1.0239e+02	-0.4971	23.350793	0.000872	8.715492	1.476444	-0.000174
1031	1.0248e+02	-0.5177	23.185271	0.000831	8.310120	1.407773	-0.000166
1032	1.0258e+02	-0.5376	22.995525	0.000953	9.526236	1.613788	-0.000191
1033	1.0268e+02	-0.5573	22.834040	0.000811	8.107435	1.373437	-0.000162
1034	1.0278e+02	-0.5769	22.644294	0.000953	9.526236	1.613788	-0.000191
1035	1.0288e+02	-0.5968	22.474735	0.000851	8.512806	1.442108	-0.000170
1036	1.0298e+02	-0.6171	22.293064	0.000912	9.120864	1.545116	-0.000183
1037	1.0308e+02	-0.6371	22.119467	0.000872	8.715492	1.476444	-0.000174
1038	1.0318e+02	-0.6566	21.941833	0.000892	8.918178	1.510780	-0.000179
1039	1.0328e+02	-0.6767	21.744013	0.000993	9.931607	1.682460	-0.000199
1040	1.0338e+02	-0.6966	21.562342	0.000912	9.120864	1.545116	-0.000183
1041	1.0348e+02	-0.7167	21.376634	0.000932	9.323550	1.579452	-0.000187
1042	1.0358e+02	-0.7359	21.239371	0.000689	6.891319	1.167421	-0.000138
1043	1.0368e+02	-0.7566	21.029440	0.001054	10.539665	1.785468	-0.000211
1044	1.0378e+02	-0.7761	20.876029	0.000770	7.702063	1.304765	-0.000154
1045	1.0388e+02	-0.7964	20.698395	0.000892	8.918178	1.510780	-0.000179
1046	1.0398e+02	-0.8167	20.536909	0.000811	8.107435	1.373437	-0.000162
1047	1.0408e+02	-0.8361	20.314867	0.001115	11.147722	1.888475	-0.000223
1048	1.0418e+02	-0.8559	20.145307	0.000851	8.512806	1.442108	-0.000170
1049	1.0428e+02	-0.8763	19.959599	0.000932	9.323550	1.579452	-0.000187
1050	1.0438e+02	-0.8958	19.790039	0.000851	8.512806	1.442108	-0.000170
1051	1.0447e+02	-0.9167	19.580108	0.001054	10.539665	1.785468	-0.000211
1052	1.0457e+02	-0.9357	19.426697	0.000770	7.702063	1.304765	-0.000154
1053	1.0467e+02	-0.9567	19.208692	0.001095	10.945037	1.854139	-0.000219
1054	1.0477e+02	-0.9760	19.014909	0.000973	9.728921	1.648124	-0.000195
1055	1.0487e+02	-0.9954	18.869572	0.000730	7.296691	1.236093	-0.000146
1056	1.0497e+02	-1.0156	18.683864	0.000932	9.323550	1.579452	-0.000187
1057	1.0507e+02	-1.0349	18.518342	0.000831	8.310120	1.407773	-0.000166
1058	1.0517e+02	-1.0555	18.332633	0.000932	9.323550	1.579452	-0.000187
1059	1.0527e+02	-1.0751	18.130777	0.001013	10.134293	1.716796	-0.000203
1060	1.0537e+02	-1.0960	17.969291	0.000811	8.107435	1.373437	-0.000162
1061	1.0547e+02	-1.1150	17.775509	0.000973	9.728921	1.648124	-0.000195
1062	1.0557e+02	-1.1356	17.622097	0.000770	7.702063	1.304765	-0.000154
1063	1.0567e+02	-1.1555	17.480798	0.000709	7.094005	1.201757	-0.000142
1064	1.0577e+02	-1.1757	17.230495	0.001257	12.566524	2.128827	-0.000252
1065	1.0587e+02	-1.1946	17.056898	0.000872	8.715492	1.476444	-0.000174
1066	1.0597e+02	-1.2144	16.842930	0.001074	10.742351	1.819803	-0.000215
1067	1.0607e+02	-1.2344	16.717779	0.000628	6.283262	1.064413	-0.000126
1068	1.0617e+02	-1.2545	16.536108	0.000912	9.120864	1.545116	-0.000183
1069	1.0627e+02	-1.2737	16.366548	0.000851	8.512806	1.442108	-0.000170
1070	1.0637e+02	-1.2936	16.172766	0.000973	9.728921	1.648124	-0.000195
1071	1.0647e+02	-1.3133	15.991095	0.000912	9.120864	1.545116	-0.000183
1072	1.0656e+02	-1.3333	15.809424	0.000912	9.120864	1.545116	-0.000183
1073	1.0666e+02	-1.3537	15.635827	0.000872	8.715492	1.476444	-0.000174
1074	1.0676e+02	-1.3734	15.490490	0.000730	7.296691	1.236093	-0.000146
1075	1.0686e+02	-1.3947	15.244225	0.001236	12.363838	2.094491	-0.000248
1076	1.0696e+02	-1.4145	15.082739	0.000811	8.107435	1.373437	-0.000162
1077	1.0706e+02	-1.4337	14.925291	0.000790	7.904749	1.339101	-0.000158
1078	1.0716e+02	-1.4533	14.715360	0.001054	10.539665	1.785468	-0.000211
1079	1.0726e+02	-1.4713	14.525614	0.000953	9.526236	1.613788	-0.000191
1080	1.0736e+02	-1.4936	14.335869	0.000953	9.526236	1.613788	-0.000191
1081	1.0746e+02	-1.5141	14.186495	0.000750	7.499377	1.270429	-0.000150
1082	1.0756e+02	-1.5327	14.000787	0.000932	9.323550	1.579452	-0.000187
1083	1.0766e+02	-1.5526	13.815078	0.000932	9.323550	1.579452	-0.000187
1084	1.0776e+02	-1.5725	13.621296	0.000973	9.728921	1.648124	-0.000195
1085	1.0786e+02	-1.5929	13.399254	0.001115	11.147722	1.888475	-0.000223
1086	1.0796e+02	-1.6130	13.245842	0.000770	7.702063	1.304765	-0.000154
1087	1.0806e+02	-1.6329	13.064171	0.000912	9.120864	1.545116	-0.000183
1088	1.0816e+02	-1.6531	12.910760	0.000770	7.702063	1.304765	-0.000154
1089	1.0826e+02	-1.6718	12.668532	0.001216	12.161152	2.060155	-0.000243
1090	1.0836e+02	-1.6924	12.519158	0.000750	7.499377	1.270429	-0.000150
1091	1.0845e+02	-1.7126	12.341524	0.000892	8.918178	1.510780	-0.000179
1092	1.0855e+02	-1.7328	12.115444	0.001135	11.350408	1.922811	-0.000227
1093	1.0865e+02	-1.7525	11.962033	0.000770	7.702063	1.304765	-0.000154
1094	1.0875e+02	-1.7725	11.776325	0.000932	9.323550	1.579452	-0.000187
1095	1.0885e+02	-1.7928	11.606765	0.000851	8.512806	1.442108	-0.000170
1096	1.0895e+02	-1.8120	11.368574	0.001196	11.958466	2.025819	-0.000239
1097	1.0905e+02	-1.8310	11.199015	0.000851	8.512806	1.442108	-0.000170
1098	1.0915e+02	-1.8522	11.045603	0.000770	7.702063	1.304765	-0.000154
1099	1.0925e+02	-1.8723	10.851821	0.000973	9.728921	1.648124	-0.000195
1100	1.0935e+02	-1.8916	10.710521	0.000709	7.094005	1.201757	-0.000142
1101	1.0945e+02	-1.9122	10.484442	0.001135	11.350408	1.922811	-0.000227
1102	1.0955e+02	-1.9314	10.326993	0.000790	7.904749	1.339101	-0.000158
1103	1.0965e+02	-1.9513	10.153396	0.000872	8.715492	1.476444	-0.000174
1104	1.0975e+02	-1.9717	9.975762	0.000892	8.918178	1.510780	-0.000179
1105	1.0985e+02	-1.9910	9.790054	0.000932	9.323550	1.579452	-0.000187
1106	1.0995e+02	-2.0117	9.604346	0.000932	9.323550	1.579452	-0.000187
1107	1.1005e+02	-2.0313	9.430749	0.000872	8.715492	1.476444	-0.000174
1108	1.1015e+02	-2.0514	9.265227	0.000831	8.310120	1.407773	-0.000166
1109	1.1025e+02	-2.0709	9.095667	0.000851	8.512806	1.442108	-0.000170
1110	1.1035e+02	-2.0911	8.905921	0.000953	9.526236	1.613788	-0.000191
1111	1.1044e+02	-2.1114	8.720213	0.000932	9.323550	1.579452	-0.000187
1112	1.1054e+02	-2.1303	8.562765	0.000790	7.904749	1.339101	-0.000158
1113	1.1064e+02	-2.1508	8.373020	0.000953	9.526236	1.613788	-0.000191
1114	1.1074e+02	-2.1704	8.191348	0.000912	9.120864	1.545116	-0.000183
1115	1.1084e+02	-2.1902	7.997566	0.000973	9.728921	1.648124	-0.000195
1116	1.1094e+02	-2.2113	7.840118	0.000790	7.904749	1.339101	-0.000158
1117	1.1104e+02	-2.2304	7.658446	0.000912	9.120864	1.545116	-0.000183
1118	1.1114e+02	-2.2508	7.476775	0.000912	9.120864	1.545116	-0.000183
1119	1.1124e+02	-2.2713	7.303179	0.000872	8.715492	1.476444	-0.000174
1120	1.1134e+02	-2.2911	7.129582	0.000872	8.715492	1.476444	-0.000174
1121	1.1144e+02	-2.3105	6.964059	0.000831	8.310120	1.407773	-0.000166
1122	1.1154e+02	-2.3308	6.770277	0.000973	9.728921	1.648124	-0.000195
1123	1.1164e+02	-2.3504	6.592643	0.000892	8.918178	1.510780	-0.000179
1124	1.1174e+02	-2.3705	6.427120	0.000831	8.310120	1.407773	-0.000166
1125	1.1184e+02	-2.3904	6.237375	0.000953	9.526236	1.613788	-0.000191
1126	1.1194e+02	-2.4104	6.088001	0.000750	7.499377	1.270429	-0.000150
1127	1.1204e+02	-2.4302	5.910367	0.000892	8.918178	1.510780	-0.000179
1128	1.1214e+02	-2.4509	5.748881	0.000811	8.107435	1.373437	-0.000162
1129	1.1224e+02	-2.4699	5.542987	0.001034	10.336979	1.751132	-0.000207
1130	1.1234e+02	-2.4899	5.373428	0.000851	8.512806	1.442108	-0.000170
1131	1.1244e+02	-2.5093	5.155422	0.001095	10.945037	1.854139	-0.000219
1132	1.1253e+02	-2.5288	5.030271	0.000628	6.283262	1.064413	-0.000126
1133	1.1263e+02	-2.5497	4.836489	0.000973	9.728921	1.648124	-0.000195
1134	1.1273e+02	-2.5684	4.687115	0.000750	7.499377	1.270429	-0.000150
1135	1.1283e+02	-2.5877	4.497369	0.000953	9.526236	1.613788	-0.000191
1136	1.1293e+02	-2.6082	4.315698	0.000912	9.120864	1.545116	-0.000183
1137	1.1303e+02	-2.6288	4.146138	0.000851	8.512806	1.442108	-0.000170
1138	1.1313e+02	-2.6495	3.976579	0.000851	8.512806	1.442108	-0.000170
1139	1.1323e+02	-2.6694	3.835279	0.000709	7.094005	1.201757	-0.000142
1140	1.1333e+02	-2.6890	3.605162	0.001155	11.553094	1.957147	-0.000231
1141	1.1343e+02	-2.7081	3.480011	0.000628	6.283262	1.064413	-0.000126
1142	1.1353e+02	-2.7287	3.294303	0.000932	9.323550	1.579452	-0.000187
1143	1.1363e+02	-2.7488	3.120706	0.000872	8.715492	1.476444	-0.000174
1144	1.1373e+02	-2.7678	2.922886	0.000993	9.931607	1.682460	-0.000199
1145	1.1383e+02	-2.7882	2.773512	0.000750	7.499377	1.270429	-0.000150
1146	1.1393e+02	-2.8084	2.591841	0.000912	9.120864	1.545116	-0.000183
1147	1.1403e+02	-2.8280	2.442467	0.000750	7.499377	1.270429	-0.000150
1148	1.1413e+02	-2.8476	2.248685	0.000973	9.728921	1.648124	-0.000195
1149	1.1423e+02	-2.8681	2.071051	0.000892	8.918178	1.510780	-0.000179
1150	1.1433e+02	-2.8880	1.893417	0.000892	8.918178	1.510780	-0.000179
1151	1.1442e+02	-2.9085	1.715783	0.000892	8.918178	1.510780	-0.000179
1152	1.1452e+02	-2.9279	1.550260	0.000831	8.310120	1.407773	-0.000166
1153	1.1462e+02	-2.9474	1.417035	0.000669	6.688633	1.133085	-0.000134
1154	1.1472e+02	-2.9670	1.178844	0.001196	11.958466	2.025819	-0.000239
1155	1.1482e+02	-2.9874	1.025432	0.000770	7.702063	1.304765	-0.000154
1156	1.1492e+02	-3.0084	0.851836	0.000872	8.715492	1.476444	-0.000174
1157	1.1502e+02	-3.0269	0.698424	0.000770	7.702063	1.304765	-0.000154
1158	1.1512e+02	-3.0484	0.528865	0.000851	8.512806	1.442108	-0.000170
1159	1.1522e+02	-3.0669	0.347194	0.000912	9.120864	1.545116	-0.000183
1160	1.1532e+02	-3.0869	0.177634	0.000851	8.512806	1.442108	-0.000170
1161	1.1542e+02	-3.1067	-0.020186	0.000993	9.931607	1.682460	-0.000199
1162	1.1552e+02	-3.1273	-0.193783	0.000872	8.715492	1.476444	-0.000174
1163	1.1562e+02	-3.1476	-0.306822	0.000568	5.675204	0.961406	-0.000114
1164	1.1572e+02	-3.1662	-0.524828	0.001095	10.945037	1.854139	-0.000219
1165	1.1582e+02	-3.1870	-0.674202	0.000750	7.499377	1.270429	-0.000150
1166	1.1592e+02	-3.2071	-0.823576	0.000750	7.499377	1.270429	-0.000150
1167	1.1602e+02	-3.2260	-1.009284	0.000932	9.323550	1.579452	-0.000187
1168	1.1612e+02	-3.2466	-1.158658	0.000750	7.499377	1.270429	-0.000150
1169	1.1622e+02	-3.2670	-1.320143	0.000811	8.107435	1.373437	-0.000162
1170	1.1632e+02	-3.2860	-1.485666	0.000831	8.310120	1.407773	-0.000166
1171	1.1642e+02	-3.3065	-1.667337	0.000912	9.120864	1.545116	-0.000183
1172	1.1651e+02	-3.3260	-1.824785	0.000790	7.904749	1.339101	-0.000158
1173	1.1661e+02	-3.3455	-1.998382	0.000872	8.715492	1.476444	-0.000174
1174	1.1671e+02	-3.3659	-2.188128	0.000953	9.526236	1.613788	-0.000191
1175	1.1681e+02	-3.3856	-2.357687	0.000851	8.512806	1.442108	-0.000170
1176	1.1691e+02	-3.4058	-2.539358	0.000912	9.120864	1.545116	-0.000183
1177	1.1701e+02	-3.4264	-2.660472	0.000608	6.080576	1.030077	-0.000122
1178	1.1711e+02	-3.4457	-2.870404	0.001054	10.539665	1.785468	-0.000211
1179	1.1721e+02	-3.4654	-3.031889	0.000811	8.107435	1.373437	-0.000162
1180	1.1731e+02	-3.4854	-3.173189	0.000709	7.094005	1.201757	-0.000142
1181	1.1741e+02	-3.5065	-3.326600	0.000770	7.702063	1.304765	-0.000154
1182	1.1751e+02	-3.5254	-3.504234	0.000892	8.918178	1.510780	-0.000179
1183	1.1761e+02	-3.5446	-3.706091	0.001013	10.134293	1.716796	-0.000203
1184	1.1771e+02	-3.5646	-3.855465	0.000750	7.499377	1.270429	-0.000150
1185	1.1781e+02	-3.5854	-4.020987	0.000831	8.310120	1.407773	-0.000166
1186	1.1791e+02	-3.6058	-4.238993	0.001095	10.945037	1.854139	-0.000219
1187	1.1801e+02	-3.6246	-4.380292	0.000709	7.094005	1.201757	-0.000142
1188	1.1811e+02	-3.6453	-4.582149	0.001013	10.134293	1.716796	-0.000203
1189	1.1821e+02	-3.6662	-4.723449	0.000709	7.094005	1.201757	-0.000142
1190	1.1831e+02	-3.6855	-4.897046	0.000872	8.715492	1.476444	-0.000174
1191	1.1841e+02	-3.7045	-5.086791	0.000953	9.526236	1.613788	-0.000191
1192	1.1850e+02	-3.7253	-5.232128	0.000730	7.296691	1.236093	-0.000146
1193	1.1860e+02	-3.7450	-5.405725	0.000872	8.715492	1.476444	-0.000174
1194	1.1870e+02	-3.7650	-5.591433	0.000932	9.323550	1.579452	-0.000187
1195	1.1880e+02	-3.7846	-5.748881	0.000790	7.904749	1.339101	-0.000158
1196	1.1890e+02	-3.8041	-5.922478	0.000872	8.715492	1.476444	-0.000174
1197	1.1900e+02	-3.8245	-6.100112	0.000892	8.918178	1.510780	-0.000179
1198	1.1910e+02	-3.8439	-6.225263	0.000628	6.283262	1.064413	-0.000126
1199	1.1920e+02	-3.8651	-6.439232	0.001074	10.742351	1.819803	-0.000215
1200	1.1930e+02	-3.8841	-6.604754	0.000831	8.310120	1.407773	-0.000166
1201	1.1940e+02	-3.9049	-6.762202	0.000790	7.904749	1.339101	-0.000158
1202	1.1950e+02	-3.9233	-6.955985	0.000973	9.728921	1.648124	-0.000195
1203	1.1960e+02	-3.9424	-7.125545	0.000851	8.512806	1.442108	-0.000170
1204	1.1970e+02	-3.9637	-7.295104	0.000851	8.512806	1.442108	-0.000170
1205	1.1980e+02	-3.9828	-7.456590	0.000811	8.107435	1.373437	-0.000162
1206	1.1990e+02	-4.0036	-7.638261	0.000912	9.120864	1.545116	-0.000183
1207	1.2000e+02	-4.0236	-7.823969	0.000932	9.323550	1.579452	-0.000187
1208	1.2010e+02	-4.0426	-8.005640	0.000912	9.120864	1.545116	-0.000183
1209	1.2020e+02	-4.0629	-8.179237	0.000872	8.715492	1.476444	-0.000174
1210	1.2030e+02	-4.0826	-8.364945	0.000932	9.323550	1.579452	-0.000187
1211	1.2039e+02	-4.1034	-8.461837	0.000486	4.864461	0.824062	-0.000097
1212	1.2049e+02	-4.1231	-8.687916	0.001135	11.350408	1.922811	-0.000227
1213	1.2059e+02	-4.1437	-8.804993	0.000588	5.877890	0.995742	-0.000118
1214	1.2069e+02	-4.1628	-8.962441	0.000790	7.904749	1.339101	-0.000158
1215	1.2079e+02	-4.1828	-9.200632	0.001196	11.958466	2.025819	-0.000239
1216	1.2089e+02	-4.2026	-9.321746	0.000608	6.080576	1.030077	-0.000122
1217	1.2099e+02	-4.2223	-9.527640	0.001034	10.336979	1.751132	-0.000207
1218	1.2109e+02	-4.2416	-9.737571	0.001054	10.539665	1.785468	-0.000211
1219	1.2119e+02	-4.2622	-9.890983	0.000770	7.702063	1.304765	-0.000154
1220	1.2129e+02	-4.2831	-10.024208	0.000669	6.688633	1.133085	-0.000134
1221	1.2139e+02	-4.3021	-10.217991	0.000973	9.728921	1.648124	-0.000195
1222	1.2149e+02	-4.3212	-10.399662	0.000912	9.120864	1.545116	-0.000183
1223	1.2159e+02	-4.3430	-10.557110	0.000790	7.904749	1.339101	-0.000158
1224	1.2169e+02	-4.3614	-10.746855	0.000953	9.526236	1.613788	-0.000191
1225	1.2179e+02	-4.3826	-10.920452	0.000872	8.715492	1.476444	-0.000174
1226	1.2189e+02	-4.4020	-11.098086	0.000892	8.918178	1.510780	-0.000179
1227	1.2199e+02	-4.4214	-11.279757	0.000912	9.120864	1.545116	-0.000183
1228	1.2209e+02	-4.4414	-11.412983	0.000669	6.688633	1.133085	-0.000134
1229	1.2219e+02	-4.4611	-11.610802	0.000993	9.931607	1.682460	-0.000199
1230	1.2229e+02	-4.4816	-11.784399	0.000872	8.715492	1.476444	-0.000174
1231	1.2239e+02	-4.5015	-11.986256	0.001013	10.134293	1.716796	-0.000203
1232	1.2248e+02	-4.5213	-12.155816	0.000851	8.512806	1.442108	-0.000170
1233	1.2258e+02	-4.5421	-12.297115	0.000709	7.094005	1.201757	-0.000142
1234	1.2268e+02	-4.5613	-12.474749	0.000892	8.918178	1.510780	-0.000179
1235	1.2278e+02	-4.5802	-12.660458	0.000932	9.323550	1.579452	-0.000187
1236	1.2288e+02	-4.6014	-12.797720	0.000689	6.891319	1.167421	-0.000138
1237	1.2298e+02	-4.6207	-13.003614	0.001034	10.336979	1.751132	-0.000207
1238	1.2308e+02	-4.6408	-13.189322	0.000932	9.323550	1.579452	-0.000187
1239	1.2318e+02	-4.6606	-13.354845	0.000831	8.310120	1.407773	-0.000166
1240	1.2328e+02	-4.6806	-13.528442	0.000872	8.715492	1.476444	-0.000174
1241	1.2338e+02	-4.7009	-13.706076	0.000892	8.918178	1.510780	-0.000179
1242	1.2348e+02	-4.7205	-13.871598	0.000831	8.310120	1.407773	-0.000166
1243	1.2358e+02	-4.7404	-14.053270	0.000912	9.120864	1.545116	-0.000183
1244	1.2368e+02	-4.7605	-14.275312	0.001115	11.147722	1.888475	-0.000223
1245	1.2378e+02	-4.7816	-14.416612	0.000709	7.094005	1.201757	-0.000142
1246	1.2388e+02	-4.8004	-14.557911	0.000709	7.094005	1.201757	-0.000142
1247	1.2398e+02	-4.8208	-14.755731	0.000993	9.931607	1.682460	-0.000199
1248	1.2408e+02	-4.8404	-14.925291	0.000851	8.512806	1.442108	-0.000170
1249	1.2418e+02	-4.8600	-15.147333	0.001115	11.147722	1.888475	-0.000223
1250	1.2428e+02	-4.8801	-15.337079	0.000953	9.526236	1.613788	-0.000191
1251	1.2438e+02	-4.9003	-15.486453	0.000750	7.499377	1.270429	-0.000150
1252	1.2447e+02	-4.9196	-15.664087	0.000892	8.918178	1.510780	-0.000179
1253	1.2457e+02	-4.9403	-15.857869	0.000973	9.728921	1.648124	-0.000195
1254	1.2467e+02	-4.9602	-16.051652	0.000973	9.728921	1.648124	-0.000195
1255	1.2477e+02	-4.9801	-16.196989	0.000730	7.296691	1.236093	-0.000146
1256	1.2487e+02	-4.9996	-16.378660	0.000912	9.120864	1.545116	-0.000183
1257	1.2497e+02	-5.0197	-16.568405	0.000953	9.526236	1.613788	-0.000191
1258	1.2507e+02	-5.0397	-16.766225	0.000993	9.931607	1.682460	-0.000199
1259	1.2517e+02	-5.0581	-16.923673	0.000790	7.904749	1.339101	-0.000158
1260	1.2527e+02	-5.0787	-17.113418	0.000953	9.526236	1.613788	-0.000191
1261	1.2537e+02	-5.0986	-17.307201	0.000973	9.728921	1.648124	-0.000195
1262	1.2547e+02	-5.1187	-17.468686	0.000811	8.107435	1.373437	-0.000162
1263	1.2557e+02	-5.1389	-17.690729	0.001115	11.147722	1.888475	-0.000223
1264	1.2567e+02	-5.1584	-17.844140	0.000770	7.702063	1.304765	-0.000154
1265	1.2577e+02	-5.1794	-18.045997	0.001013	10.134293	1.716796	-0.000203
1266	1.2587e+02	-5.1999	-18.179222	0.000669	6.688633	1.133085	-0.000134
1267	1.2597e+02	-5.2193	-18.393190	0.001074	10.742351	1.819803	-0.000215
1268	1.2607e+02	-5.2390	-18.550639	0.000790	7.904749	1.339101	-0.000158
1269	1.2617e+02	-5.2586	-18.732310	0.000912	9.120864	1.545116	-0.000183
1270	1.2627e+02	-5.2792	-18.893795	0.000811	8.107435	1.373437	-0.000162
1271	1.2636e+02	-5.2985	-19.071429	0.000892	8.918178	1.510780	-0.000179
1272	1.2646e+02	-5.3181	-19.325769	0.001277	12.769209	2.163163	-0.000256
1273	1.2656e+02	-5.3385	-19.463031	0.000689	6.891319	1.167421	-0.000138
1274	1.2666e+02	-5.3578	-19.628554	0.000831	8.310120	1.407773	-0.000166
1275	1.2676e+02	-5.3783	-19.814262	0.000932	9.323550	1.579452	-0.000187
1276	1.2686e+02	-5.3992	-19.987859	0.000872	8.715492	1.476444	-0.000174
1277	1.2696e+02	-5.4185	-20.169530	0.000912	9.120864	1.545116	-0.000183
1278	1.2706e+02	-5.4386	-20.347164	0.000892	8.918178	1.510780	-0.000179
1279	1.2716e+02	-5.4575	-20.549021	0.001013	10.134293	1.716796	-0.000203
1280	1.2726e+02	-5.4782	-20.714543	0.000831	8.310120	1.407773	-0.000166
1281	1.2736e+02	-5.4977	-20.904289	0.000953	9.526236	1.613788	-0.000191
1282	1.2746e+02	-5.5175	-21.089997	0.000932	9.323550	1.579452	-0.000187
1283	1.2756e+02	-5.5373	-21.340300	0.001257	12.566524	2.128827	-0.000252
1284	1.2766e+02	-5.5578	-21.453339	0.000568	5.675204	0.961406	-0.000114
1285	1.2776e+02	-5.5777	-21.626936	0.000872	8.715492	1.476444	-0.000174
1286	1.2786e+02	-5.5978	-21.861090	0.001176	11.755780	1.991483	-0.000235
1287	1.2796e+02	-5.6178	-22.006427	0.000730	7.296691	1.236093	-0.000146
1288	1.2806e+02	-5.6374	-22.159838	0.000770	7.702063	1.304765	-0.000154
1289	1.2816e+02	-5.6563	-22.333435	0.000872	8.715492	1.476444	-0.000174
1290	1.2826e+02	-5.6775	-22.567589	0.001176	11.755780	1.991483	-0.000235
1291	1.2835e+02	-5.6975	-22.769446	0.001013	10.134293	1.716796	-0.000203
1292	1.2845e+02	-5.7161	-22.930931	0.000811	8.107435	1.373437	-0.000162
1293	1.2855e+02	-5.7379	-23.096454	0.000831	8.310120	1.407773	-0.000166
1294	1.2865e+02	-5.7567	-23.302347	0.001034	10.336979	1.751132	-0.000207
1295	1.2875e+02	-5.7768	-23.504204	0.001013	10.134293	1.716796	-0.000203
1296	1.2885e+02	-5.7962	-23.702024	0.000993	9.931607	1.682460	-0.000199
1297	1.2895e+02	-5.8156	-23.867546	0.000831	8.310120	1.407773	-0.000166
1298	1.2905e+02	-5.8365	-24.085552	0.001095	10.945037	1.854139	-0.000219
1299	1.2915e+02	-5.8566	-24.218777	0.000669	6.688633	1.133085	-0.000134
1300	1.2925e+02	-5.8759	-24.396411	0.000892	8.918178	1.510780	-0.000179
1301	1.2935e+02	-5.8963	-24.557897	0.000811	8.107435	1.373437	-0.000162
1302	1.2945e+02	-5.9167	-24.783976	0.001135	11.350408	1.922811	-0.000227
1303	1.2955e+02	-5.9360	-24.965647	0.000912	9.120864	1.545116	-0.000183
1304	1.2965e+02	-5.9562	-25.159430	0.000973	9.728921	1.648124	-0.000195
1305	1.2975e+02	-5.9760	-25.369361	0.001054	10.539665	1.785468	-0.000211
1306	1.2985e+02	-5.9968	-25.551032	0.000912	9.120864	1.545116	-0.000183
1307	1.2995e+02	-6.0159	-25.777112	0.001135	11.350408	1.922811	-0.000227
1308	1.3005e+02	-6.0363	-25.946671	0.000851	8.512806	1.442108	-0.000170
1309	1.3015e+02	-6.0561	-26.112194	0.000831	8.310120	1.407773	-0.000166
1310	1.3025e+02	-6.0748	-26.301939	0.000953	9.526236	1.613788	-0.000191
1311	1.3034e+02	-6.0951	-26.491685	0.000953	9.526236	1.613788	-0.000191
1312	1.3044e+02	-6.1156	-26.729876	0.001196	11.958466	2.025819	-0.000239
1313	1.3054e+02	-6.1352	-26.879250	0.000750	7.499377	1.270429	-0.000150
1314	1.3064e+02	-6.1551	-27.085144	0.001034	10.336979	1.751132	-0.000207
1315	1.3074e+02	-6.1758	-27.230481	0.000730	7.296691	1.236093	-0.000146
1316	1.3084e+02	-6.1952	-27.480783	0.001257	12.566524	2.128827	-0.000252
1317	1.3094e+02	-6.2154	-27.626120	0.000730	7.296691	1.236093	-0.000146
1318	1.3104e+02	-6.2360	-27.896608	0.001358	13.579953	2.300506	-0.000272
1319	1.3114e+02	-6.2544	-28.062131	0.000831	8.310120	1.407773	-0.000166
1320	1.3124e+02	-6.2747	-28.239764	0.000892	8.918178	1.510780	-0.000179
1321	1.3134e+02	-6.2958	-28.453733	0.001074	10.742351	1.819803	-0.000215
1322	1.3144e+02	-6.3140	-28.655589	0.001013	10.134293	1.716796	-0.000203
1323	1.3154e+02	-6.3342	-28.825149	0.000851	8.512806	1.442108	-0.000170
1324	1.3164e+02	-6.3547	-29.059303	0.001176	11.755780	1.991483	-0.000235
1325	1.3174e+02	-6.3745	-29.228863	0.000851	8.512806	1.442108	-0.000170
1326	1.3184e+02	-6.3940	-29.446868	0.001095	10.945037	1.854139	-0.000219
1327	1.3194e+02	-6.4143	-29.628539	0.000912	9.120864	1.545116	-0.000183
1328	1.3204e+02	-6.4346	-29.866730	0.001196	11.958466	2.025819	-0.000239
1329	1.3214e+02	-6.4528	-30.036290	0.000851	8.512806	1.442108	-0.000170
1330	1.3224e+02	-6.4743	-30.230072	0.000973	9.728921	1.648124	-0.000195
1331	1.3234e+02	-6.4962	-30.440003	0.001054	10.539665	1.785468	-0.000211
1332	1.3243e+02	-6.5137	-30.609563	0.000851	8.512806	1.442108	-0.000170
1333	1.3253e+02	-6.5334	-30.819494	0.001054	10.539665	1.785468	-0.000211
1334	1.3263e+02	-6.5536	-31.057685	0.001196	11.958466	2.025819	-0.000239
1335	1.3273e+02	-6.5736	-31.239356	0.000912	9.120864	1.545116	-0.000183
1336	1.3283e+02	-6.5936	-31.473510	0.001176	11.755780	1.991483	-0.000235
1337	1.3293e+02	-6.6133	-31.647107	0.000872	8.715492	1.476444	-0.000174
1338	1.3303e+02	-6.6328	-31.840890	0.000973	9.728921	1.648124	-0.000195
1339	1.3313e+02	-6.6539	-32.066969	0.001135	11.350408	1.922811	-0.000227
1340	1.3323e+02	-6.6736	-32.317272	0.001257	12.566524	2.128827	-0.000252
1341	1.3333e+02	-6.6939	-32.454534	0.000689	6.891319	1.167421	-0.000138
1342	1.3343e+02	-6.7130	-32.660428	0.001034	10.336979	1.751132	-0.000207
1343	1.3353e+02	-6.7336	-32.898619	0.001196	11.958466	2.025819	-0.000239
1344	1.3363e+02	-6.7525	-33.052030	0.000770	7.702063	1.304765	-0.000154
1345	1.3373e+02	-6.7726	-33.282147	0.001155	11.553094	1.957147	-0.000231
1346	1.3383e+02	-6.7934	-33.479967	0.000993	9.931607	1.682460	-0.000199
1347	1.3393e+02	-6.8127	-33.685861	0.001034	10.336979	1.751132	-0.000207
1348	1.3403e+02	-6.8323	-33.891755	0.001034	10.336979	1.751132	-0.000207
1349	1.3413e+02	-6.8529	-34.129946	0.001196	11.958466	2.025819	-0.000239
1350	1.3423e+02	-6.8716	-34.331802	0.001013	10.134293	1.716796	-0.000203
1351	1.3432e+02	-6.8940	-34.569993	0.001196	11.958466	2.025819	-0.000239
1352	1.3442e+02	-6.9121	-34.775887	0.001034	10.336979	1.751132	-0.000207
1353	1.3452e+02	-6.9318	-35.006004	0.001155	11.553094	1.957147	-0.000231
1354	1.3462e+02	-6.9518	-35.224009	0.001095	10.945037	1.854139	-0.000219
1355	1.3472e+02	-6.9723	-35.458163	0.001176	11.755780	1.991483	-0.000235
1356	1.3482e+02	-6.9917	-35.660020	0.001013	10.134293	1.716796	-0.000203
1357	1.3492e+02	-7.0117	-35.898211	0.001196	11.958466	2.025819	-0.000239
1358	1.3502e+02	-7.0317	-36.096031	0.000993	9.931607	1.682460	-0.000199
1359	1.3512e+02	-7.0522	-36.297887	0.001013	10.134293	1.716796	-0.000203
1360	1.3522e+02	-7.0718	-36.560301	0.001317	13.174581	2.231834	-0.000264
1361	1.3532e+02	-7.0914	-36.806567	0.001236	12.363838	2.094491	-0.000248
1362	1.3542e+02	-7.1119	-37.004386	0.000993	9.931607	1.682460	-0.000199
1363	1.3552e+02	-7.1319	-37.242577	0.001196	11.958466	2.025819	-0.000239
1364	1.3562e+02	-7.1512	-37.428285	0.000932	9.323550	1.579452	-0.000187
1365	1.3572e+02	-7.1701	-37.698774	0.001358	13.579953	2.300506	-0.000272
1366	1.3582e+02	-7.1916	-37.916779	0.001095	10.945037	1.854139	-0.000219
1367	1.3592e+02	-7.2105	-38.110561	0.000973	9.728921	1.648124	-0.000195
1368	1.3602e+02	-7.2310	-38.340678	0.001155	11.553094	1.957147	-0.000231
1369	1.3612e+02	-7.2510	-38.611166	0.001358	13.579953	2.300506	-0.000272
1370	1.3622e+02	-7.2702	-38.825134	0.001074	10.742351	1.819803	-0.000215
1371	1.3631e+02	-7.2899	-39.055251	0.001155	11.553094	1.957147	-0.000231
1372	1.3641e+02	-7.3094	-39.289405	0.001176	11.755780	1.991483	-0.000235
1373	1.3651e+02	-7.3311	-39.559893	0.001358	13.579953	2.300506	-0.000272
1374	1.3661e+02	-7.3517	-39.769824	0.001054	10.539665	1.785468	-0.000211
1375	1.3671e+02	-7.3698	-39.983792	0.001074	10.742351	1.819803	-0.000215
1376	1.3681e+02	-7.3907	-40.234095	0.001257	12.566524	2.128827	-0.000252
1377	1.3691e+02	-7.4103	-40.500546	0.001338	13.377267	2.266170	-0.000268
1378	1.3701e+02	-7.4306	-40.694328	0.000973	9.728921	1.648124	-0.000195
1379	1.3711e+02	-7.4503	-40.972891	0.001399	13.985325	2.369178	-0.000280
1380	1.3721e+02	-7.4700	-41.227230	0.001277	12.769209	2.163163	-0.000256
1381	1.3731e+02	-7.4901	-41.465421	0.001196	11.958466	2.025819	-0.000239
1382	1.3741e+02	-7.5102	-41.683426	0.001095	10.945037	1.854139	-0.000219
1383	1.3751e+02	-7.5300	-41.945840	0.001317	13.174581	2.231834	-0.000264
1384	1.3761e+02	-7.5499	-42.179994	0.001176	11.755780	1.991483	-0.000235
1385	1.3771e+02	-7.5690	-42.438371	0.001297	12.971895	2.197499	-0.000260
1386	1.3781e+02	-7.5884	-42.676562	0.001196	11.958466	2.025819	-0.000239
1387	1.3791e+02	-7.6093	-42.926864	0.001257	12.566524	2.128827	-0.000252
1388	1.3801e+02	-7.6284	-43.181204	0.001277	12.769209	2.163163	-0.000256
1389	1.3811e+02	-7.6485	-43.407283	0.001135	11.350408	1.922811	-0.000227
1390	1.3821e+02	-7.6691	-43.661623	0.001277	12.769209	2.163163	-0.000256
1391	1.3831e+02	-7.6884	-43.952297	0.001459	14.593382	2.472186	-0.000292
1392	1.3840e+02	-7.7087	-44.202599	0.001257	12.566524	2.128827	-0.000252
1393	1.3850e+02	-7.7280	-44.444827	0.001216	12.161152	2.060155	-0.000243
1394	1.3860e+02	-7.7481	-44.678981	0.001176	11.755780	1.991483	-0.000235
1395	1.3870e+02	-7.7672	-44.961581	0.001419	14.188010	2.403514	-0.000284
1396	1.3880e+02	-7.7887	-45.228032	0.001338	13.377267	2.266170	-0.000268
1397	1.3890e+02	-7.8085	-45.518705	0.001459	14.593382	2.472186	-0.000292
1398	1.3900e+02	-7.8278	-45.724599	0.001034	10.336979	1.751132	-0.000207
1399	1.3910e+02	-7.8473	-45.987013	0.001317	13.174581	2.231834	-0.000264
1400	1.3920e+02	-7.8679	-46.273650	0.001439	14.390696	2.437850	-0.000288
1401	1.3930e+02	-7.8879	-46.507804	0.001176	11.755780	1.991483	-0.000235
1402	1.3940e+02	-7.9079	-46.838849	0.001662	16.620241	2.815545	-0.000333
1403	1.3950e+02	-7.9279	-47.077040	0.001196	11.958466	2.025819	-0.000239
1404	1.3960e+02	-7.9487	-47.347528	0.001358	13.579953	2.300506	-0.000272
1405	1.3970e+02	-7.9674	-47.622053	0.001378	13.782639	2.334842	-0.000276
1406	1.3980e+02	-7.9861	-47.876393	0.001277	12.769209	2.163163	-0.000256
1407	1.3990e+02	-8.0077	-48.154955	0.001399	13.985325	2.369178	-0.000280
1408	1.4000e+02	-8.0268	-48.405257	0.001257	12.566524	2.128827	-0.000252
1409	1.4010e+02	-8.0464	-48.736303	0.001662	16.620241	2.815545	-0.000333
1410	1.4020e+02	-8.0669	-48.970457	0.001176	11.755780	1.991483	-0.000235
1411	1.4029e+02	-8.0869	-49.257093	0.001439	14.390696	2.437850	-0.000288
1412	1.4039e+02	-8.1082	-49.547767	0.001459	14.593382	2.472186	-0.000292
1413	1.4049e+02	-8.1266	-49.846515	0.001500	14.998754	2.540858	-0.000300
1414	1.4059e+02	-8.1464	-50.117003	0.001358	13.579953	2.300506	-0.000272
1415	1.4069e+02	-8.1670	-50.403640	0.001439	14.390696	2.437850	-0.000288
1416	1.4079e+02	-8.1865	-50.702388	0.001500	14.998754	2.540858	-0.000300
1417	1.4089e+02	-8.2056	-50.972876	0.001358	13.579953	2.300506	-0.000272
1418	1.4099e+02	-8.2268	-51.279698	0.001540	15.404126	2.609530	-0.000308
1419	1.4109e+02	-8.2465	-51.562298	0.001419	14.188010	2.403514	-0.000284
1420	1.4119e+02	-8.2663	-51.828749	0.001338	13.377267	2.266170	-0.000268
1421	1.4129e+02	-8.2857	-52.139608	0.001561	15.606811	2.643865	-0.000312
1422	1.4139e+02	-8.3064	-52.462579	0.001621	16.214869	2.746873	-0.000325
1423	1.4149e+02	-8.3258	-52.729030	0.001338	13.377267	2.266170	-0.000268
1424	1.4159e+02	-8.3454	-53.015667	0.001439	14.390696	2.437850	-0.000288
1425	1.4169e+02	-8.3657	-53.354786	0.001703	17.025613	2.884217	-0.000341
1426	1.4179e+02	-8.3858	-53.665645	0.001561	15.606811	2.643865	-0.000312
1427	1.4189e+02	-8.4067	-53.960356	0.001480	14.796068	2.506522	-0.000296
1428	1.4199e+02	-8.4264	-54.263141	0.001520	15.201440	2.575194	-0.000304
1429	1.4209e+02	-8.4459	-54.533630	0.001358	13.579953	2.300506	-0.000272
1430	1.4219e+02	-8.4663	-54.832378	0.001500	14.998754	2.540858	-0.000300
1431	1.4228e+02	-8.4863	-55.167460	0.001682	16.822927	2.849881	-0.000337
1432	1.4238e+02	-8.5062	-55.506579	0.001703	17.025613	2.884217	-0.000341
1433	1.4248e+02	-8.5258	-55.833587	0.001642	16.417555	2.781209	-0.000329
1434	1.4258e+02	-8.5458	-56.128298	0.001480	14.796068	2.506522	-0.000296
1435	1.4268e+02	-8.5659	-56.414935	0.001439	14.390696	2.437850	-0.000288
1436	1.4278e+02	-8.5844	-56.717720	0.001520	15.201440	2.575194	-0.000304
1437	1.4288e+02	-8.6050	-57.056839	0.001703	17.025613	2.884217	-0.000341
1438	1.4298e+02	-8.6246	-57.371736	0.001581	15.809497	2.678201	-0.000316
1439	1.4308e+02	-8.6446	-57.690670	0.001601	16.012183	2.712537	-0.000321
1440	1.4318e+02	-8.6649	-58.066123	0.001885	18.849785	3.193240	-0.000377
1441	1.4328e+02	-8.6847	-58.336611	0.001358	13.579953	2.300506	-0.000272
1442	1.4338e+02	-8.7042	-58.675731	0.001703	17.025613	2.884217	-0.000341
1443	1.4348e+02	-8.7251	-58.990627	0.001581	15.809497	2.678201	-0.000316
1444	1.4358e+02	-8.7446	-59.313598	0.001621	16.214869	2.746873	-0.000325
1445	1.4368e+02	-8.7646	-59.680978	0.001844	18.444414	3.124568	-0.000369
1446	1.4378e+02	-8.7848	-59.995874	0.001581	15.809497	2.678201	-0.000316
1447	1.4388e+02	-8.8039	-60.355179	0.001804	18.039042	3.055896	-0.000361
1448	1.4398e+02	-8.8251	-60.690262	0.001682	16.822927	2.849881	-0.000337
1449	1.4408e+02	-8.8438	-60.972861	0.001419	14.188010	2.403514	-0.000284
1450	1.4418e+02	-8.8641	-61.364463	0.001966	19.660529	3.330584	-0.000394
1451	1.4428e+02	-8.8837	-61.715694	0.001763	17.633670	2.987225	-0.000353
1452	1.4437e+02	-8.9043	-62.022516	0.001540	15.404126	2.609530	-0.000308
1453	1.4447e+02	-8.9241	-62.434304	0.002067	20.673958	3.502263	-0.000414
1454	1.4457e+02	-8.9436	-62.737089	0.001520	15.201440	2.575194	-0.000304
1455	1.4467e+02	-8.9643	-63.092357	0.001784	17.836356	3.021560	-0.000357
1456	1.4477e+02	-8.9838	-63.455700	0.001824	18.241728	3.090232	-0.000365
1457	1.4487e+02	-9.0028	-63.802893	0.001743	17.430984	2.952889	-0.000349
1458	1.4497e+02	-9.0233	-64.174310	0.001865	18.647099	3.158904	-0.000373
1459	1.4507e+02	-9.0429	-64.541689	0.001844	18.444414	3.124568	-0.000369
1460	1.4517e+02	-9.0630	-64.941365	0.002007	20.065900	3.399256	-0.000402
1461	1.4527e+02	-9.0826	-65.268373	0.001642	16.417555	2.781209	-0.000329
1462	1.4537e+02	-9.1029	-65.647864	0.001905	19.052471	3.227576	-0.000381
1463	1.4547e+02	-9.1234	-66.019281	0.001865	18.647099	3.158904	-0.000373
1464	1.4557e+02	-9.1428	-66.378586	0.001804	18.039042	3.055896	-0.000361
1465	1.4567e+02	-9.1629	-66.766151	0.001946	19.457843	3.296248	-0.000390
1466	1.4577e+02	-9.1827	-67.157753	0.001966	19.660529	3.330584	-0.000394
1467	1.4587e+02	-9.2030	-67.533207	0.001885	18.849785	3.193240	-0.000377
1468	1.4597e+02	-9.2221	-67.908660	0.001885	18.849785	3.193240	-0.000377
1469	1.4607e+02	-9.2426	-68.332560	0.002128	21.282016	3.605271	-0.000426
1470	1.4617e+02	-9.2630	-68.663605	0.001662	16.620241	2.815545	-0.000333
1471	1.4626e+02	-9.2825	-69.055207	0.001966	19.660529	3.330584	-0.000394
1472	1.4636e+02	-9.3022	-69.479106	0.002128	21.282016	3.605271	-0.000426
1473	1.4646e+02	-9.3209	-69.878782	0.002007	20.065900	3.399256	-0.000402
1474	1.4656e+02	-9.3423	-70.266348	0.001946	19.457843	3.296248	-0.000390
1475	1.4666e+02	-9.3618	-70.653913	0.001946	19.457843	3.296248	-0.000390
1476	1.4676e+02	-9.3828	-71.085886	0.002169	21.687387	3.673943	-0.000434
1477	1.4686e+02	-9.4020	-71.493637	0.002047	20.471272	3.467927	-0.000410
1478	1.4696e+02	-9.4228	-71.909462	0.002088	20.876644	3.536599	-0.000418
1479	1.4706e+02	-9.4417	-72.321250	0.002067	20.673958	3.502263	-0.000414
1480	1.4716e+02	-9.4624	-72.733037	0.002067	20.673958	3.502263	-0.000414
1481	1.4726e+02	-9.4807	-73.189234	0.002290	22.903503	3.879958	-0.000458
1482	1.4736e+02	-9.5020	-73.584873	0.001986	19.863215	3.364920	-0.000398
1483	1.4746e+02	-9.5218	-74.016847	0.002169	21.687387	3.673943	-0.000434
1484	1.4756e+02	-9.5412	-74.436709	0.002108	21.079330	3.570935	-0.000422
1485	1.4766e+02	-9.5609	-74.868682	0.002169	21.687387	3.673943	-0.000434
1486	1.4776e+02	-9.5818	-75.324879	0.002290	22.903503	3.879958	-0.000458
1487	1.4786e+02	-9.6008	-75.744741	0.002108	21.079330	3.570935	-0.000422
1488	1.4796e+02	-9.6202	-76.225160	0.002412	24.119618	4.085974	-0.000483
1489	1.4806e+02	-9.6413	-76.673282	0.002250	22.498131	3.811287	-0.000450
1490	1.4816e+02	-9.6602	-77.105255	0.002169	21.687387	3.673943	-0.000434
1491	1.4825e+02	-9.6831	-77.573563	0.002351	23.511560	3.982966	-0.000471
1492	1.4835e+02	-9.7006	-77.993425	0.002108	21.079330	3.570935	-0.000422
1493	1.4845e+02	-9.7200	-78.481919	0.002452	24.524989	4.154646	-0.000491
1494	1.4855e+02	-9.7394	-79.002709	0.002615	26.146476	4.429333	-0.000523
1495	1.4865e+02	-9.7602	-79.454868	0.002270	22.700817	3.845622	-0.000454
1496	1.4875e+02	-9.7794	-79.927213	0.002371	23.714246	4.017302	-0.000475
1497	1.4885e+02	-9.7998	-80.371298	0.002230	22.295445	3.776951	-0.000446
1498	1.4895e+02	-9.8196	-80.884015	0.002574	25.741105	4.360661	-0.000515
1499	1.4905e+02	-9.8399	-81.352322	0.002351	23.511560	3.982966	-0.000471
1500	1.4915e+02	-9.8595	-81.804481	0.002270	22.700817	3.845622	-0.000454
1501	1.4925e+02	-9.8804	-82.301049	0.002493	24.930361	4.223318	-0.000499
1502	1.4935e+02	-9.8999	-82.850100	0.002757	27.565277	4.669684	-0.000552
1503	1.4945e+02	-9.9194	-83.362816	0.002574	25.741105	4.360661	-0.000515
1504	1.4955e+02	-9.9385	-83.867458	0.002534	25.335733	4.291989	-0.000507
1505	1.4965e+02	-9.9604	-84.347877	0.002412	24.119618	4.085974	-0.000483
1506	1.4975e+02	-9.9796	-84.832333	0.002432	24.322304	4.120310	-0.000487
1507	1.4985e+02	-9.9996	-85.385421	0.002777	27.767963	4.704020	-0.000556
1508	1.4995e+02	-9.9789	-85.728577	-0.001723	-17.228298	-2.918553	-0.000345
1509	1.5005e+02	-9.9600	-86.003103	-0.001378	-13.782639	-2.334842	-0.000276
1510	1.5015e+02	-9.9390	-86.273591	-0.001358	-13.579953	-2.300506	-0.000272
1511	1.5025e+02	-9.9189	-86.592524	-0.001601	-16.012183	-2.712537	-0.000321
1512	1.5034e+02	-9.8996	-86.863013	-0.001358	-13.579953	-2.300506	-0.000272
1513	1.5044e+02	-9.8798	-87.076981	-0.001074	-10.742351	-1.819803	-0.000215
1514	1.5054e+02	-9.8608	-87.323246	-0.001236	-12.363838	-2.094491	-0.000248
1515	1.5064e+02	-9.8408	-87.569511	-0.001236	-12.363838	-2.094491	-0.000248
1516	1.5074e+02	-9.8196	-87.751182	-0.000912	-9.120864	-1.545116	-0.000183
1517	1.5084e+02	-9.8004	-88.017633	-0.001338	-13.377267	-2.266170	-0.000268
1518	1.5094e+02	-9.7779	-88.267936	-0.001257	-12.566524	-2.128827	-0.000252
1519	1.5104e+02	-9.7607	-88.477867	-0.001054	-10.539665	-1.785468	-0.000211
1520	1.5114e+02	-9.7401	-88.675686	-0.000993	-9.931607	-1.682460	-0.000199
1521	1.5124e+02	-9.7200	-88.821023	-0.000730	-7.296691	-1.236093	-0.000146
1522	1.5134e+02	-9.6997	-89.010769	-0.000953	-9.526236	-1.613788	-0.000191
1523	1.5144e+02	-9.6803	-89.172254	-0.000811	-8.107435	-1.373437	-0.000162
1524	1.5154e+02	-9.6607	-89.410445	-0.001196	-11.958466	-2.025819	-0.000239
1525	1.5164e+02	-9.6407	-89.507336	-0.000486	-4.864461	-0.824062	-0.000097
1526	1.5174e+02	-9.6214	-89.689008	-0.000912	-9.120864	-1.545116	-0.000183
1527	1.5184e+02	-9.6008	-89.830307	-0.000709	-7.094005	-1.201757	-0.000142
1528	1.5194e+02	-9.5810	-89.959496	-0.000649	-6.485948	-1.098749	-0.000130
1529	1.5204e+02	-9.5595	-90.125018	-0.000831	-8.310120	-1.407773	-0.000166
1530	1.5214e+02	-9.5412	-90.225947	-0.000507	-5.067147	-0.858398	-0.000101
1531	1.5224e+02	-9.5210	-90.379358	-0.000770	-7.702063	-1.304765	-0.000154
1532	1.5233e+02	-9.5021	-90.476249	-0.000486	-4.864461	-0.824062	-0.000097
1533	1.5243e+02	-9.4815	-90.605437	-0.000649	-6.485948	-1.098749	-0.000130
1534	1.5253e+02	-9.4614	-90.726551	-0.000608	-6.080576	-1.030077	-0.000122
1535	1.5263e+02	-9.4414	-90.839591	-0.000568	-5.675204	-0.961406	-0.000114
1536	1.5273e+02	-9.4218	-90.960705	-0.000608	-6.080576	-1.030077	-0.000122
1537	1.5283e+02	-9.4009	-91.065671	-0.000527	-5.269832	-0.892734	-0.000105
1538	1.5293e+02	-9.3820	-91.150451	-0.000426	-4.256403	-0.721054	-0.000085
1539	1.5303e+02	-9.3620	-91.239268	-0.000446	-4.459089	-0.755390	-0.000089
1540	1.5313e+02	-9.3414	-91.344233	-0.000527	-5.269832	-0.892734	-0.000105
1541	1.5323e+02	-9.3225	-91.392679	-0.000243	-2.432230	-0.412031	-0.000049
1542	1.5333e+02	-9.3015	-91.542053	-0.000750	-7.499377	-1.270429	-0.000150
1543	1.5343e+02	-9.2822	-91.582424	-0.000203	-2.026859	-0.343359	-0.000041
1544	1.5353e+02	-9.2625	-91.642981	-0.000304	-3.040288	-0.515039	-0.000061
1545	1.5363e+02	-9.2419	-91.751984	-0.000547	-5.472518	-0.927070	-0.000110
1546	1.5373e+02	-9.2220	-91.820615	-0.000345	-3.445660	-0.583711	-0.000069
1547	1.5383e+02	-9.2030	-91.860987	-0.000203	-2.026859	-0.343359	-0.000041
1548	1.5393e+02	-9.1833	-91.913469	-0.000263	-2.634916	-0.446367	-0.000053
1549	1.5403e+02	-9.1629	-91.994212	-0.000405	-4.053717	-0.686718	-0.000081
1550	1.5413e+02	-9.1429	-92.026509	-0.000162	-1.621487	-0.274687	-0.000032
1551	1.5422e+02	-9.1230	-92.083029	-0.000284	-2.837602	-0.480703	-0.000057
1552	1.5432e+02	-9.1025	-92.147623	-0.000324	-3.242974	-0.549375	-0.000065
1553	1.5442e+02	-9.0822	-92.232403	-0.000426	-4.256403	-0.721054	-0.000085
1554	1.5452e+02	-9.0621	-92.248552	-0.000081	-0.810743	-0.137344	-0.000016
1555	1.5462e+02	-9.0426	-92.288923	-0.000203	-2.026859	-0.343359	-0.000041
1556	1.5472e+02	-9.0231	-92.309109	-0.000101	-1.013429	-0.171680	-0.000020
1557	1.5482e+02	-9.0039	-92.349480	-0.000203	-2.026859	-0.343359	-0.000041
1558	1.5492e+02	-8.9838	-92.397926	-0.000243	-2.432230	-0.412031	-0.000049
1559	1.5502e+02	-8.9639	-92.385814	0.000061	0.608058	0.103008	0.000012
1560	1.5512e+02	-8.9427	-92.474631	-0.000446	-4.459089	-0.755390	-0.000089
1561	1.5522e+02	-8.9242	-92.442334	0.000162	1.621487	0.274687	0.000032
1562	1.5532e+02	-8.9036	-92.474631	-0.000162	-1.621487	-0.274687	-0.000032
1563	1.5542e+02	-8.8823	-92.515003	-0.000203	-2.026859	-0.343359	-0.000041
1564	1.5552e+02	-8.8638	-92.506928	0.000041	0.405372	0.068672	0.000008
1565	1.5562e+02	-8.8432	-92.559411	-0.000263	-2.634916	-0.446367	-0.000053
1566	1.5572e+02	-8.8242	-92.523077	0.000182	1.824173	0.309023	0.000037
1567	1.5582e+02	-8.8040	-92.571522	-0.000243	-2.432230	-0.412031	-0.000049
1568	1.5592e+02	-8.7846	-92.591708	-0.000101	-1.013429	-0.171680	-0.000020
1569	1.5602e+02	-8.7644	-92.599782	-0.000041	-0.405372	-0.068672	-0.000008
1570	1.5612e+02	-8.7431	-92.603820	-0.000020	-0.202686	-0.034336	-0.000004
1571	1.5622e+02	-8.7245	-92.571522	0.000162	1.621487	0.274687	0.000032
1572	1.5631e+02	-8.7045	-92.599782	-0.000142	-1.418801	-0.240351	-0.000028
1573	1.5641e+02	-8.6845	-92.579597	0.000101	1.013429	0.171680	0.000020
1574	1.5651e+02	-8.6647	-92.547300	0.000162	1.621487	0.274687	0.000032
1575	1.5661e+02	-8.6450	-92.587671	-0.000203	-2.026859	-0.343359	-0.000041
1576	1.5671e+02	-8.6244	-92.539225	0.000243	2.432230	0.412031	0.000049
1577	1.5681e+02	-8.6047	-92.551337	-0.000061	-0.608058	-0.103008	-0.000012
1578	1.5691e+02	-8.5854	-92.502891	0.000243	2.432230	0.412031	0.000049
1579	1.5701e+02	-8.5651	-92.502891	0.000000	0.000000	0.000000	0.000000
1580	1.5711e+02	-8.5452	-92.510965	-0.000041	-0.405372	-0.068672	-0.000008
1581	1.5721e+02	-8.5249	-92.498854	0.000061	0.608058	0.103008	0.000012
1582	1.5731e+02	-8.5053	-92.502891	-0.000020	-0.202686	-0.034336	-0.000004
1583	1.5741e+02	-8.4861	-92.490780	0.000061	0.608058	0.103008	0.000012
1584	1.5751e+02	-8.4653	-92.446371	0.000223	2.229544	0.377695	0.000045
1585	1.5761e+02	-8.4456	-92.446371	0.000000	0.000000	0.000000	0.000000
1586	1.5771e+02	-8.4260	-92.418111	0.000142	1.418801	0.240351	0.000028
1587	1.5781e+02	-8.4056	-92.393889	0.000122	1.216115	0.206015	0.000024
1588	1.5791e+02	-8.3857	-92.369666	0.000122	1.216115	0.206015	0.000024
1589	1.5801e+02	-8.3667	-92.341406	0.000142	1.418801	0.240351	0.000028
1590	1.5811e+02	-8.3458	-92.337369	0.000020	0.202686	0.034336	0.000004
1591	1.5821e+02	-8.3263	-92.288923	0.000243	2.432230	0.412031	0.000049
1592	1.5830e+02	-8.3069	-92.268737	0.000101	1.013429	0.171680	0.000020
1593	1.5840e+02	-8.2861	-92.216255	0.000263	2.634916	0.446367	0.000053
1594	1.5850e+02	-8.2661	-92.220292	-0.000020	-0.202686	-0.034336	-0.000004
1595	1.5860e+02	-8.2466	-92.196069	0.000122	1.216115	0.206015	0.000024
1596	1.5870e+02	-8.2263	-92.151660	0.000223	2.229544	0.377695	0.000045
1597	1.5880e+02	-8.2065	-92.127438	0.000122	1.216115	0.206015	0.000024
1598	1.5890e+02	-8.1885	-92.074955	0.000263	2.634916	0.446367	0.000053
1599	1.5900e+02	-8.1668	-92.046695	0.000142	1.418801	0.240351	0.000028
1600	1.5910e+02	-8.1470	-91.990175	0.000284	2.837602	0.480703	0.000057
1601	1.5920e+02	-8.1259	-91.957878	0.000162	1.621487	0.274687	0.000032
1602	1.5930e+02	-8.1075	-91.905395	0.000263	2.634916	0.446367	0.000053
1603	1.5940e+02	-8.0870	-91.808504	0.000486	4.864461	0.824062	0.000097
1604	1.5950e+02	-8.0679	-91.772170	0.000182	1.824173	0.309023	0.000037
1605	1.5960e+02	-8.0479	-91.723724	0.000243	2.432230	0.412031	0.000049
1606	1.5970e+02	-8.0271	-91.651056	0.000365	3.648346	0.618046	0.000073
1607	1.5980e+02	-8.0078	-91.675278	-0.000122	-1.216115	-0.206015	-0.000024
1608	1.5990e+02	-7.9874	-91.590498	0.000426	4.256403	0.721054	0.000085
1609	1.6000e+02	-7.9665	-91.533979	0.000284	2.837602	0.480703	0.000057
1610	1.6010e+02	-7.9488	-91.465347	0.000345	3.445660	0.583711	0.000069
1611	1.6019e+02	-7.9276	-91.396716	0.000345	3.445660	0.583711	0.000069
1612	1.6029e+02	-7.9077	-91.380567	0.000081	0.810743	0.137344	0.000016
1613	1.6039e+02	-7.8880	-91.332122	0.000243	2.432230	0.412031	0.000049
1614	1.6049e+02	-7.8680	-91.263490	0.000345	3.445660	0.583711	0.000069
1615	1.6059e+02	-7.8479	-91.235231	0.000142	1.418801	0.240351	0.000028
1616	1.6069e+02	-7.8285	-91.154488	0.000405	4.053717	0.686718	0.000081
1617	1.6079e+02	-7.8088	-91.073745	0.000405	4.053717	0.686718	0.000081
1618	1.6089e+02	-7.7881	-91.025299	0.000243	2.432230	0.412031	0.000049
1619	1.6099e+02	-7.7692	-90.920334	0.000527	5.269832	0.892734	0.000105
1620	1.6109e+02	-7.7485	-90.884000	0.000182	1.824173	0.309023	0.000037
1621	1.6119e+02	-7.7284	-90.811331	0.000365	3.648346	0.618046	0.000073
1622	1.6129e+02	-7.7086	-90.738663	0.000365	3.648346	0.618046	0.000073
1623	1.6139e+02	-7.6888	-90.661957	0.000385	3.851031	0.652382	0.000077
1624	1.6149e+02	-7.6688	-90.621586	0.000203	2.026859	0.343359	0.000041
1625	1.6159e+02	-7.6488	-90.504509	0.000588	5.877890	0.995742	0.000118
1626	1.6169e+02	-7.6292	-90.492398	0.000061	0.608058	0.103008	0.000012
1627	1.6179e+02	-7.6077	-90.403581	0.000446	4.459089	0.755390	0.000089
1628	1.6189e+02	-7.5883	-90.359172	0.000223	2.229544	0.377695	0.000045
1629	1.6199e+02	-7.5684	-90.298615	0.000304	3.040288	0.515039	0.000061
1630	1.6209e+02	-7.5493	-90.197687	0.000507	5.067147	0.858398	0.000101
1631	1.6219e+02	-7.5290	-90.112907	0.000426	4.256403	0.721054	0.000085
1632	1.6228e+02	-7.5093	-90.032164	0.000405	4.053717	0.686718	0.000081
1633	1.6238e+02	-7.4901	-89.991793	0.000203	2.026859	0.343359	0.000041
1634	1.6248e+02	-7.4696	-89.902976	0.000446	4.459089	0.755390	0.000089
1635	1.6258e+02	-7.4506	-89.785899	0.000588	5.877890	0.995742	0.000118
1636	1.6268e+02	-7.4309	-89.729379	0.000284	2.837602	0.480703	0.000057
1637	1.6278e+02	-7.4106	-89.656710	0.000365	3.648346	0.618046	0.000073
1638	1.6288e+02	-7.3911	-89.559819	0.000486	4.864461	0.824062	0.000097
1639	1.6298e+02	-7.3698	-89.503299	0.000284	2.837602	0.480703	0.000057
1640	1.6308e+02	-7.3503	-89.398334	0.000527	5.269832	0.892734	0.000105
1641	1.6318e+02	-7.3303	-89.329702	0.000345	3.445660	0.583711	0.000069
1642	1.6328e+02	-7.3109	-89.252997	0.000385	3.851031	0.652382	0.000077
1643	1.6338e+02	-7.2913	-89.184366	0.000345	3.445660	0.583711	0.000069
1644	1.6348e+02	-7.2711	-89.099586	0.000426	4.256403	0.721054	0.000085
1645	1.6358e+02	-7.2516	-89.043066	0.000284	2.837602	0.480703	0.000057
1646	1.6368e+02	-7.2311	-88.950212	0.000466	4.661775	0.789726	0.000093
1647	1.6378e+02	-7.2114	-88.857358	0.000466	4.661775	0.789726	0.000093
1648	1.6388e+02	-7.1913	-88.800838	0.000284	2.837602	0.480703	0.000057
1649	1.6398e+02	-7.1719	-88.699909	0.000507	5.067147	0.858398	0.000101
1650	1.6408e+02	-7.1512	-88.554572	0.000730	7.296691	1.236093	0.000146
1651	1.6418e+02	-7.1297	-88.502090	0.000263	2.634916	0.446367	0.000053
1652	1.6427e+02	-7.1118	-88.417310	0.000426	4.256403	0.721054	0.000085
1653	1.6437e+02	-7.0908	-88.332530	0.000426	4.256403	0.721054	0.000085
1654	1.6447e+02	-7.0712	-88.276010	0.000284	2.837602	0.480703	0.000057
1655	1.6457e+02	-7.0522	-88.142785	0.000669	6.688633	1.133085	0.000134
1656	1.6467e+02	-7.0319	-88.074153	0.000345	3.445660	0.583711	0.000069
1657	1.6477e+02	-7.0117	-87.989373	0.000426	4.256403	0.721054	0.000085
1658	1.6487e+02	-6.9913	-87.904594	0.000426	4.256403	0.721054	0.000085
1659	1.6497e+02	-6.9719	-87.779442	0.000628	6.283262	1.064413	0.000126
1660	1.6507e+02	-6.9522	-87.726960	0.000263	2.634916	0.446367	0.000053
1661	1.6517e+02	-6.9318	-87.617957	0.000547	5.472518	0.927070	0.000110
1662	1.6527e+02	-6.9121	-87.529140	0.000446	4.459089	0.755390	0.000089
1663	1.6537e+02	-6.8927	-87.448397	0.000405	4.053717	0.686718	0.000081
1664	1.6547e+02	-6.8721	-87.327283	0.000608	6.080576	1.030077	0.000122
1665	1.6557e+02	-6.8519	-87.210206	0.000588	5.877890	0.995742	0.000118
1666	1.6567e+02	-6.8318	-87.133501	0.000385	3.851031	0.652382	0.000077
1667	1.6577e+02	-6.8114	-87.044684	0.000446	4.459089	0.755390	0.000089
1668	1.6587e+02	-6.7915	-86.951830	0.000466	4.661775	0.789726	0.000093
1669	1.6597e+02	-6.7733	-86.871087	0.000405	4.053717	0.686718	0.000081
1670	1.6607e+02	-6.7538	-86.778233	0.000466	4.661775	0.789726	0.000093
1671	1.6616e+02	-6.7330	-86.665193	0.000568	5.675204	0.961406	0.000114
1672	1.6626e+02	-6.7126	-86.544079	0.000608	6.080576	1.030077	0.000122
1673	1.6636e+02	-6.6884	-86.459299	0.000426	4.256403	0.721054	0.000085
1674	1.6646e+02	-6.6728	-86.370482	0.000446	4.459089	0.755390	0.000089
1675	1.6656e+02	-6.6531	-86.245331	0.000628	6.283262	1.064413	0.000126
1676	1.6666e+02	-6.6333	-86.136328	0.000547	5.472518	0.927070	0.000110
1677	1.6676e+02	-6.6125	-86.067697	0.000345	3.445660	0.583711	0.000069
1678	1.6686e+02	-6.5936	-85.970806	0.000486	4.864461	0.824062	0.000097
1679	1.6696e+02	-6.5742	-85.877951	0.000466	4.661775	0.789726	0.000093
1680	1.6706e+02	-6.5536	-85.756837	0.000608	6.080576	1.030077	0.000122
1681	1.6716e+02	-6.5337	-85.619575	0.000689	6.891319	1.167421	0.000138
1682	1.6726e+02	-6.5126	-85.534795	0.000426	4.256403	0.721054	0.000085
1683	1.6736e+02	-6.4937	-85.441941	0.000466	4.661775	0.789726	0.000093
1684	1.6746e+02	-6.4737	-85.405607	0.000182	1.824173	0.309023	0.000037
1685	1.6756e+02	-6.4543	-85.248158	0.000790	7.904749	1.339101	0.000158
1686	1.6766e+02	-6.4351	-85.159341	0.000446	4.459089	0.755390	0.000089
1687	1.6776e+02	-6.4141	-85.030153	0.000649	6.485948	1.098749	0.000130
1688	1.6786e+02	-6.3943	-84.933262	0.000486	4.864461	0.824062	0.000097
1689	1.6796e+02	-6.3741	-84.860593	0.000365	3.648346	0.618046	0.000073
1690	1.6806e+02	-6.3539	-84.771776	0.000446	4.459089	0.755390	0.000089
1691	1.6816e+02	-6.3345	-84.650662	0.000608	6.080576	1.030077	0.000122
1692	1.6825e+02	-6.3133	-84.553771	0.000486	4.864461	0.824062	0.000097
1693	1.6835e+02	-6.2951	-84.420545	0.000669	6.688633	1.133085	0.000134
1694	1.6845e+02	-6.2749	-84.343840	0.000385	3.851031	0.652382	0.000077
1695	1.6855e+02	-6.2547	-84.250986	0.000466	4.661775	0.789726	0.000093
1696	1.6865e+02	-6.2350	-84.105649	0.000730	7.296691	1.236093	0.000146
1697	1.6875e+02	-6.2153	-84.077389	0.000142	1.418801	0.240351	0.000028
1698	1.6885e+02	-6.1952	-83.903792	0.000872	8.715492	1.476444	0.000174
1699	1.6895e+02	-6.1758	-83.843235	0.000304	3.040288	0.515039	0.000061
1700	1.6905e+02	-6.1557	-83.697898	0.000730	7.296691	1.236093	0.000146
1701	1.6915e+02	-6.1352	-83.649452	0.000243	2.432230	0.412031	0.000049
1702	1.6925e+02	-6.1154	-83.500078	0.000750	7.499377	1.270429	0.000150
1703	1.6935e+02	-6.0955	-83.411261	0.000446	4.459089	0.755390	0.000089
1704	1.6945e+02	-6.0754	-83.306296	0.000527	5.269832	0.892734	0.000105
1705	1.6955e+02	-6.0551	-83.193256	0.000568	5.675204	0.961406	0.000114
1706	1.6965e+02	-6.0355	-83.092328	0.000507	5.067147	0.858398	0.000101
1707	1.6975e+02	-6.0161	-82.983325	0.000547	5.472518	0.927070	0.000110
1708	1.6985e+02	-5.9964	-82.890471	0.000466	4.661775	0.789726	0.000093
1709	1.6995e+02	-5.9756	-82.805691	0.000426	4.256403	0.721054	0.000085
1710	1.7005e+02	-5.9564	-82.672466	0.000669	6.688633	1.133085	0.000134
1711	1.7015e+02	-5.9357	-82.571537	0.000507	5.067147	0.858398	0.000101
1712	1.7024e+02	-5.9160	-82.478683	0.000466	4.661775	0.789726	0.000093
1713	1.7034e+02	-5.8955	-82.325272	0.000770	7.702063	1.304765	0.000154
1714	1.7044e+02	-5.8763	-82.232418	0.000466	4.661775	0.789726	0.000093
1715	1.7054e+02	-5.8559	-82.175898	0.000284	2.837602	0.480703	0.000057
1716	1.7064e+02	-5.8363	-82.042672	0.000669	6.688633	1.133085	0.000134
1717	1.7074e+02	-5.8167	-81.925596	0.000588	5.877890	0.995742	0.000118
1718	1.7084e+02	-5.7961	-81.869076	0.000284	2.837602	0.480703	0.000057
1719	1.7094e+02	-5.7771	-81.671256	0.000993	9.931607	1.682460	0.000199
1720	1.7104e+02	-5.7571	-81.558216	0.000568	5.675204	0.961406	0.000114
1721	1.7114e+02	-5.7364	-81.489585	0.000345	3.445660	0.583711	0.000069
1722	1.7124e+02	-5.7168	-81.392694	0.000486	4.864461	0.824062	0.000097
1723	1.7134e+02	-5.6973	-81.287728	0.000527	5.269832	0.892734	0.000105
1724	1.7144e+02	-5.6770	-81.170651	0.000588	5.877890	0.995742	0.000118
1725	1.7154e+02	-5.6575	-81.069723	0.000507	5.067147	0.858398	0.000101
1726	1.7164e+02	-5.6371	-80.932460	0.000689	6.891319	1.167421	0.000138
1727	1.7174e+02	-5.6172	-80.819420	0.000568	5.675204	0.961406	0.000114
1728	1.7184e+02	-5.5975	-80.714455	0.000527	5.269832	0.892734	0.000105
1729	1.7194e+02	-5.5778	-80.629675	0.000426	4.256403	0.721054	0.000085
1730	1.7204e+02	-5.5569	-80.524709	0.000527	5.269832	0.892734	0.000105
1731	1.7213e+02	-5.5369	-80.399558	0.000628	6.283262	1.064413	0.000126
1732	1.7223e+02	-5.5175	-80.294593	0.000527	5.269832	0.892734	0.000105
1733	1.7233e+02	-5.4979	-80.149256	0.000730	7.296691	1.236093	0.000146
1734	1.7243e+02	-5.4775	-80.068513	0.000405	4.053717	0.686718	0.000081
1735	1.7253e+02	-5.4577	-79.959510	0.000547	5.472518	0.927070	0.000110
1736	1.7263e+02	-5.4375	-79.838396	0.000608	6.080576	1.030077	0.000122
1737	1.7273e+02	-5.4179	-79.717282	0.000608	6.080576	1.030077	0.000122
1738	1.7283e+02	-5.3979	-79.616354	0.000507	5.067147	0.858398	0.000101
1739	1.7293e+02	-5.3781	-79.503314	0.000568	5.675204	0.961406	0.000114
1740	1.7303e+02	-5.3574	-79.382200	0.000608	6.080576	1.030077	0.000122
1741	1.7313e+02	-5.3379	-79.253012	0.000649	6.485948	1.098749	0.000130
1742	1.7323e+02	-5.3178	-79.115749	0.000689	6.891319	1.167421	0.000138
1743	1.7333e+02	-5.2992	-79.043081	0.000365	3.648346	0.618046	0.000073
1744	1.7343e+02	-5.2792	-78.897744	0.000730	7.296691	1.236093	0.000146
1745	1.7353e+02	-5.2586	-78.812964	0.000426	4.256403	0.721054	0.000085
1746	1.7363e+02	-5.2393	-78.675701	0.000689	6.891319	1.167421	0.000138
1747	1.7373e+02	-5.2188	-78.590921	0.000426	4.256403	0.721054	0.000085
1748	1.7383e+02	-5.1988	-78.461733	0.000649	6.485948	1.098749	0.000130
1749	1.7393e+02	-5.1794	-78.332545	0.000649	6.485948	1.098749	0.000130
1750	1.7403e+02	-5.1591	-78.231616	0.000507	5.067147	0.858398	0.000101
1751	1.7413e+02	-5.1371	-78.130688	0.000507	5.067147	0.858398	0.000101
1752	1.7422e+02	-5.1189	-78.037834	0.000466	4.661775	0.789726	0.000093
1753	1.7432e+02	-5.0989	-77.912683	0.000628	6.283262	1.064413	0.000126
1754	1.7442e+02	-5.0792	-77.755234	0.000790	7.904749	1.339101	0.000158
1755	1.7452e+02	-5.0591	-77.686603	0.000345	3.445660	0.583711	0.000069
1756	1.7462e+02	-5.0387	-77.557415	0.000649	6.485948	1.098749	0.000130
1757	1.7472e+02	-5.0204	-77.436301	0.000608	6.080576	1.030077	0.000122
1758	1.7482e+02	-5.0023	-77.323261	0.000568	5.675204	0.961406	0.000114
1759	1.7492e+02	-4.9799	-77.185998	0.000689	6.891319	1.167421	0.000138
1760	1.7502e+02	-4.9602	-77.072958	0.000568	5.675204	0.961406	0.000114
1761	1.7512e+02	-4.9403	-76.939733	0.000669	6.688633	1.133085	0.000134
1762	1.7522e+02	-4.9202	-76.826693	0.000568	5.675204	0.961406	0.000114
1763	1.7532e+02	-4.8998	-76.758062	0.000345	3.445660	0.583711	0.000069
1764	1.7542e+02	-4.8799	-76.665208	0.000466	4.661775	0.789726	0.000093
1765	1.7552e+02	-4.8599	-76.499685	0.000831	8.310120	1.407773	0.000166
1766	1.7562e+02	-4.8398	-76.378571	0.000608	6.080576	1.030077	0.000122
1767	1.7572e+02	-4.8207	-76.221123	0.000790	7.904749	1.339101	0.000158
1768	1.7582e+02	-4.8004	-76.120194	0.000507	5.067147	0.858398	0.000101
1769	1.7592e+02	-4.7810	-76.007155	0.000568	5.675204	0.961406	0.000114
1770	1.7602e+02	-4.7606	-75.890078	0.000588	5.877890	0.995742	0.000118
1771	1.7612e+02	-4.7410	-75.760889	0.000649	6.485948	1.098749	0.000130
1772	1.7621e+02	-4.7211	-75.651887	0.000547	5.472518	0.927070	0.000110
1773	1.7631e+02	-4.7003	-75.518661	0.000669	6.688633	1.133085	0.000134
1774	1.7641e+02	-4.6811	-75.381399	0.000689	6.891319	1.167421	0.000138
1775	1.7651e+02	-4.6606	-75.223950	0.000790	7.904749	1.339101	0.000158
1776	1.7661e+02	-4.6419	-75.159356	0.000324	3.242974	0.549375	0.000065
1777	1.7671e+02	-4.6209	-74.997871	0.000811	8.107435	1.373437	0.000162
1778	1.7681e+02	-4.6013	-74.909054	0.000446	4.459089	0.755390	0.000089
1779	1.7691e+02	-4.5819	-74.771791	0.000689	6.891319	1.167421	0.000138
1780	1.7701e+02	-4.5615	-74.634528	0.000689	6.891319	1.167421	0.000138
1781	1.7711e+02	-4.5412	-74.501303	0.000669	6.688633	1.133085	0.000134
1782	1.7721e+02	-4.5210	-74.343855	0.000790	7.904749	1.339101	0.000158
1783	1.7731e+02	-4.5020	-74.295409	0.000243	2.432230	0.412031	0.000049
1784	1.7741e+02	-4.4814	-74.125849	0.000851	8.512806	1.442108	0.000170
1785	1.7751e+02	-4.4607	-73.996661	0.000649	6.485948	1.098749	0.000130
1786	1.7761e+02	-4.4420	-73.895733	0.000507	5.067147	0.858398	0.000101
1787	1.7771e+02	-4.4211	-73.758470	0.000689	6.891319	1.167421	0.000138
1788	1.7781e+02	-4.4026	-73.605059	0.000770	7.702063	1.304765	0.000154
1789	1.7791e+02	-4.3822	-73.492019	0.000568	5.675204	0.961406	0.000114
1790	1.7801e+02	-4.3619	-73.370905	0.000608	6.080576	1.030077	0.000122
1791	1.7810e+02	-4.3418	-73.249791	0.000608	6.080576	1.030077	0.000122
1792	1.7820e+02	-4.3219	-73.080231	0.000851	8.512806	1.442108	0.000170
1793	1.7830e+02	-4.3021	-72.991414	0.000446	4.459089	0.755390	0.000089
1794	1.7840e+02	-4.2827	-72.854152	0.000689	6.891319	1.167421	0.000138
1795	1.7850e+02	-4.2625	-72.688629	0.000831	8.310120	1.407773	0.000166
1796	1.7860e+02	-4.2430	-72.575589	0.000568	5.675204	0.961406	0.000114
1797	1.7870e+02	-4.2224	-72.422178	0.000770	7.702063	1.304765	0.000154
1798	1.7880e+02	-4.2026	-72.309138	0.000568	5.675204	0.961406	0.000114
1799	1.7890e+02	-4.1829	-72.171876	0.000689	6.891319	1.167421	0.000138
1800	1.7900e+02	-4.1632	-71.998279	0.000872	8.715492	1.476444	0.000174
1801	1.7910e+02	-4.1437	-71.905425	0.000466	4.661775	0.789726	0.000093
1802	1.7920e+02	-4.1226	-71.756051	0.000750	7.499377	1.270429	0.000150
1803	1.7930e+02	-4.1023	-71.655122	0.000507	5.067147	0.858398	0.000101
1804	1.7940e+02	-4.0855	-71.489600	0.000831	8.310120	1.407773	0.000166
1805	1.7950e+02	-4.0633	-71.360411	0.000649	6.485948	1.098749	0.000130
1806	1.7960e+02	-4.0429	-71.239297	0.000608	6.080576	1.030077	0.000122
1807	1.7970e+02	-4.0230	-71.097997	0.000709	7.094005	1.201757	0.000142
1808	1.7980e+02	-4.0038	-70.964772	0.000669	6.688633	1.133085	0.000134
1809	1.7990e+02	-3.9828	-70.851732	0.000568	5.675204	0.961406	0.000114
1810	1.8000e+02	-3.9636	-70.686210	0.000831	8.310120	1.407773	0.000166
1811	1.8009e+02	-3.9434	-70.557021	0.000649	6.485948	1.098749	0.000130
1812	1.8019e+02	-3.9244	-70.399573	0.000790	7.904749	1.339101	0.000158
1813	1.8029e+02	-3.9044	-70.262310	0.000689	6.891319	1.167421	0.000138
1814	1.8039e+02	-3.8847	-70.145233	0.000588	5.877890	0.995742	0.000118
1815	1.8049e+02	-3.8647	-69.987785	0.000790	7.904749	1.339101	0.000158
1816	1.8059e+02	-3.8443	-69.866671	0.000608	6.080576	1.030077	0.000122
1817	1.8069e+02	-3.8240	-69.725371	0.000709	7.094005	1.201757	0.000142
1818	1.8079e+02	-3.8043	-69.592146	0.000669	6.688633	1.133085	0.000134
1819	1.8089e+02	-3.7840	-69.462958	0.000649	6.485948	1.098749	0.000130
1820	1.8099e+02	-3.7659	-69.313583	0.000750	7.499377	1.270429	0.000150
1821	1.8109e+02	-3.7444	-69.208618	0.000527	5.269832	0.892734	0.000105
1822	1.8119e+02	-3.7248	-69.026947	0.000912	9.120864	1.545116	0.000183
1823	1.8129e+02	-3.7048	-68.893721	0.000669	6.688633	1.133085	0.000134
1824	1.8139e+02	-3.6848	-68.724162	0.000851	8.512806	1.442108	0.000170
1825	1.8149e+02	-3.6650	-68.655530	0.000345	3.445660	0.583711	0.000069
1826	1.8159e+02	-3.6447	-68.441562	0.001074	10.742351	1.819803	0.000215
1827	1.8169e+02	-3.6252	-68.304300	0.000689	6.891319	1.167421	0.000138
1828	1.8179e+02	-3.6050	-68.195297	0.000547	5.472518	0.927070	0.000110
1829	1.8189e+02	-3.5843	-68.037849	0.000790	7.904749	1.339101	0.000158
1830	1.8199e+02	-3.5647	-67.916735	0.000608	6.080576	1.030077	0.000122
1831	1.8209e+02	-3.5458	-67.775435	0.000709	7.094005	1.201757	0.000142
1832	1.8218e+02	-3.5259	-67.638172	0.000689	6.891319	1.167421	0.000138
1833	1.8228e+02	-3.5046	-67.472650	0.000831	8.310120	1.407773	0.000166
1834	1.8238e+02	-3.4859	-67.331350	0.000709	7.094005	1.201757	0.000142
1835	1.8248e+02	-3.4648	-67.186013	0.000730	7.296691	1.236093	0.000146
1836	1.8258e+02	-3.4467	-67.032602	0.000770	7.702063	1.304765	0.000154
1837	1.8268e+02	-3.4256	-66.891302	0.000709	7.094005	1.201757	0.000142
1838	1.8278e+02	-3.4061	-66.741928	0.000750	7.499377	1.270429	0.000150
1839	1.8288e+02	-3.3859	-66.596591	0.000730	7.296691	1.236093	0.000146
1840	1.8298e+02	-3.3663	-66.479514	0.000588	5.877890	0.995742	0.000118
1841	1.8308e+02	-3.3457	-66.289769	0.000953	9.526236	1.613788	0.000191
1842	1.8318e+02	-3.3258	-66.132321	0.000790	7.904749	1.339101	0.000158
1843	1.8328e+02	-3.3060	-65.995058	0.000689	6.891319	1.167421	0.000138
1844	1.8338e+02	-3.2858	-65.849721	0.000730	7.296691	1.236093	0.000146
1845	1.8348e+02	-3.2656	-65.692273	0.000790	7.904749	1.339101	0.000158
1846	1.8358e+02	-3.2464	-65.567122	0.000628	6.283262	1.064413	0.000126
1847	1.8368e+02	-3.2262	-65.405636	0.000811	8.107435	1.373437	0.000162
1848	1.8378e+02	-3.2072	-65.236076	0.000851	8.512806	1.442108	0.000170
1849	1.8388e+02	-3.1860	-65.110925	0.000628	6.283262	1.064413	0.000126
1850	1.8398e+02	-3.1659	-64.965588	0.000730	7.296691	1.236093	0.000146
1851	1.8407e+02	-3.1471	-64.828326	0.000689	6.891319	1.167421	0.000138
1852	1.8417e+02	-3.1268	-64.687026	0.000709	7.094005	1.201757	0.000142
1853	1.8427e+02	-3.1075	-64.485169	0.001013	10.134293	1.716796	0.000203
1854	1.8437e+02	-3.0899	-64.376166	0.000547	5.472518	0.927070	0.000110
1855	1.8447e+02	-3.0676	-64.230830	0.000730	7.296691	1.236093	0.000146
1856	1.8457e+02	-3.0475	-64.093567	0.000689	6.891319	1.167421	0.000138
1857	1.8467e+02	-3.0238	-63.952267	0.000709	7.094005	1.201757	0.000142
1858	1.8477e+02	-3.0078	-63.798856	0.000770	7.702063	1.304765	0.000154
1859	1.8487e+02	-2.9871	-63.633334	0.000831	8.310120	1.407773	0.000166
1860	1.8497e+02	-2.9677	-63.475885	0.000790	7.904749	1.339101	0.000158
1861	1.8507e+02	-2.9470	-63.358808	0.000588	5.877890	0.995742	0.000118
1862	1.8517e+02	-2.9282	-63.165026	0.000973	9.728921	1.648124	0.000195
1863	1.8527e+02	-2.9079	-63.060060	0.000527	5.269832	0.892734	0.000105
1864	1.8537e+02	-2.8870	-62.894538	0.000831	8.310120	1.407773	0.000166
1865	1.8547e+02	-2.8678	-62.753238	0.000709	7.094005	1.201757	0.000142
1866	1.8557e+02	-2.8485	-62.607901	0.000730	7.296691	1.236093	0.000146
1867	1.8567e+02	-2.8283	-62.466601	0.000709	7.094005	1.201757	0.000142
1868	1.8577e+02	-2.8083	-62.301079	0.000831	8.310120	1.407773	0.000166
1869	1.8587e+02	-2.7880	-62.111333	0.000953	9.526236	1.613788	0.000191
1870	1.8597e+02	-2.7685	-62.014442	0.000486	4.864461	0.824062	0.000097
1871	1.8606e+02	-2.7478	-61.897365	0.000588	5.877890	0.995742	0.000118
1872	1.8616e+02	-2.7282	-61.723768	0.000872	8.715492	1.476444	0.000174
1873	1.8626e+02	-2.7083	-61.574394	0.000750	7.499377	1.270429	0.000150
1874	1.8636e+02	-2.6875	-61.404835	0.000851	8.512806	1.442108	0.000170
1875	1.8646e+02	-2.6685	-61.223163	0.000912	9.120864	1.545116	0.000183
1876	1.8656e+02	-2.6491	-61.150495	0.000365	3.648346	0.618046	0.000073
1877	1.8666e+02	-2.6290	-60.936527	0.001074	10.742351	1.819803	0.000215
1878	1.8676e+02	-2.6088	-60.783116	0.000770	7.702063	1.304765	0.000154
1879	1.8686e+02	-2.5885	-60.666039	0.000588	5.877890	0.995742	0.000118
1880	1.8696e+02	-2.5685	-60.488405	0.000892	8.918178	1.510780	0.000179
1881	1.8706e+02	-2.5494	-60.347105	0.000709	7.094005	1.201757	0.000142
1882	1.8716e+02	-2.5298	-60.225991	0.000608	6.080576	1.030077	0.000122
1883	1.8726e+02	-2.5095	-60.052394	0.000872	8.715492	1.476444	0.000174
1884	1.8736e+02	-2.4896	-59.915131	0.000689	6.891319	1.167421	0.000138
1885	1.8746e+02	-2.4701	-59.769795	0.000730	7.296691	1.236093	0.000146
1886	1.8756e+02	-2.4500	-59.592161	0.000892	8.918178	1.510780	0.000179
1887	1.8766e+02	-2.4292	-59.458935	0.000669	6.688633	1.133085	0.000134
1888	1.8776e+02	-2.4100	-59.297450	0.000811	8.107435	1.373437	0.000162
1889	1.8786e+02	-2.3899	-59.140001	0.000790	7.904749	1.339101	0.000158
1890	1.8796e+02	-2.3708	-58.982553	0.000790	7.904749	1.339101	0.000158
1891	1.8806e+02	-2.3499	-58.845291	0.000689	6.891319	1.167421	0.000138
1892	1.8815e+02	-2.3309	-58.687842	0.000790	7.904749	1.339101	0.000158
1893	1.8825e+02	-2.3106	-58.546542	0.000709	7.094005	1.201757	0.000142
1894	1.8835e+02	-2.2903	-58.401206	0.000730	7.296691	1.236093	0.000146
1895	1.8845e+02	-2.2710	-58.171089	0.001155	11.553094	1.957147	0.000231
1896	1.8855e+02	-2.2510	-58.078235	0.000466	4.661775	0.789726	0.000093
1897	1.8865e+02	-2.2302	-57.949046	0.000649	6.485948	1.098749	0.000130
1898	1.8875e+02	-2.2103	-57.759301	0.000953	9.526236	1.613788	0.000191
1899	1.8885e+02	-2.1916	-57.626076	0.000669	6.688633	1.133085	0.000134
1900	1.8895e+02	-2.1706	-57.476702	0.000750	7.499377	1.270429	0.000150
1901	1.8905e+02	-2.1508	-57.262733	0.001074	10.742351	1.819803	0.000215
1902	1.8915e+02	-2.1308	-57.133545	0.000649	6.485948	1.098749	0.000130
1903	1.8925e+02	-2.1113	-56.980134	0.000770	7.702063	1.304765	0.000154
1904	1.8935e+02	-2.0913	-56.814611	0.000831	8.310120	1.407773	0.000166
1905	1.8945e+02	-2.0713	-56.657163	0.000790	7.904749	1.339101	0.000158
1906	1.8955e+02	-2.0518	-56.552197	0.000527	5.269832	0.892734	0.000105
1907	1.8965e+02	-2.0324	-56.362452	0.000953	9.526236	1.613788	0.000191
1908	1.8975e+02	-2.0111	-56.196929	0.000831	8.310120	1.407773	0.000166
1909	1.8985e+02	-1.9912	-56.027370	0.000851	8.512806	1.442108	0.000170
1910	1.8995e+02	-1.9723	-55.869921	0.000790	7.904749	1.339101	0.000158
1911	1.9004e+02	-1.9523	-55.748807	0.000608	6.080576	1.030077	0.000122
1912	1.9014e+02	-1.9315	-55.579248	0.000851	8.512806	1.442108	0.000170
1913	1.9024e+02	-1.9122	-55.425837	0.000770	7.702063	1.304765	0.000154
1914	1.9034e+02	-1.8925	-55.308760	0.000588	5.877890	0.995742	0.000118
1915	1.9044e+02	-1.8726	-55.090754	0.001095	10.945037	1.854139	0.000219
1916	1.9054e+02	-1.8518	-54.965603	0.000628	6.283262	1.064413	0.000126
1917	1.9064e+02	-1.8328	-54.800081	0.000831	8.310120	1.407773	0.000166
1918	1.9074e+02	-1.8120	-54.638595	0.000811	8.107435	1.373437	0.000162
1919	1.9084e+02	-1.7918	-54.501332	0.000689	6.891319	1.167421	0.000138
1920	1.9094e+02	-1.7717	-54.364070	0.000689	6.891319	1.167421	0.000138
1921	1.9104e+02	-1.7515	-54.190473	0.000872	8.715492	1.476444	0.000174
1922	1.9114e+02	-1.7328	-54.008802	0.000912	9.120864	1.545116	0.000183
1923	1.9124e+02	-1.7121	-53.883651	0.000628	6.283262	1.064413	0.000126
1924	1.9134e+02	-1.6929	-53.714091	0.000851	8.512806	1.442108	0.000170
1925	1.9144e+02	-1.6730	-53.544531	0.000851	8.512806	1.442108	0.000170
1926	1.9154e+02	-1.6525	-53.387083	0.000790	7.904749	1.339101	0.000158
1927	1.9164e+02	-1.6328	-53.209449	0.000892	8.918178	1.510780	0.000179
1928	1.9174e+02	-1.6118	-53.064112	0.000730	7.296691	1.236093	0.000146
1929	1.9184e+02	-1.5929	-52.906664	0.000790	7.904749	1.339101	0.000158
1930	1.9194e+02	-1.5735	-52.809773	0.000486	4.864461	0.824062	0.000097
1931	1.9203e+02	-1.5518	-52.595804	0.001074	10.742351	1.819803	0.000215
1932	1.9213e+02	-1.5334	-52.462579	0.000669	6.688633	1.133085	0.000134
1933	1.9223e+02	-1.5134	-52.293019	0.000851	8.512806	1.442108	0.000170
1934	1.9233e+02	-1.4925	-52.115385	0.000892	8.918178	1.510780	0.000179
1935	1.9243e+02	-1.4734	-51.970048	0.000730	7.296691	1.236093	0.000146
1936	1.9253e+02	-1.4538	-51.804526	0.000831	8.310120	1.407773	0.000166
1937	1.9263e+02	-1.4339	-51.626892	0.000892	8.918178	1.510780	0.000179
1938	1.9273e+02	-1.4124	-51.449258	0.000892	8.918178	1.510780	0.000179
1939	1.9283e+02	-1.3939	-51.287772	0.000811	8.107435	1.373437	0.000162
1940	1.9293e+02	-1.3743	-51.158584	0.000649	6.485948	1.098749	0.000130
1941	1.9303e+02	-1.3544	-51.013247	0.000730	7.296691	1.236093	0.000146
1942	1.9313e+02	-1.3338	-50.795242	0.001095	10.945037	1.854139	0.000219
1943	1.9323e+02	-1.3135	-50.653942	0.000709	7.094005	1.201757	0.000142
1944	1.9333e+02	-1.2912	-50.472271	0.000912	9.120864	1.545116	0.000183
1945	1.9343e+02	-1.2737	-50.351157	0.000608	6.080576	1.030077	0.000122
1946	1.9353e+02	-1.2550	-50.133152	0.001095	10.945037	1.854139	0.000219
1947	1.9363e+02	-1.2343	-49.995889	0.000689	6.891319	1.167421	0.000138
1948	1.9373e+02	-1.2135	-49.794032	0.001013	10.134293	1.716796	0.000203
1949	1.9383e+02	-1.1952	-49.632547	0.000811	8.107435	1.373437	0.000162
1950	1.9393e+02	-1.1751	-49.491247	0.000709	7.094005	1.201757	0.000142
1951	1.9403e+02	-1.1548	-49.309576	0.000912	9.120864	1.545116	0.000183
1952	1.9412e+02	-1.1349	-49.156165	0.000770	7.702063	1.304765	0.000154
1953	1.9422e+02	-1.1146	-48.974494	0.000912	9.120864	1.545116	0.000183
1954	1.9432e+02	-1.0951	-48.817045	0.000790	7.904749	1.339101	0.000158
1955	1.9442e+02	-1.0756	-48.627300	0.000953	9.526236	1.613788	0.000191
1956	1.9452e+02	-1.0554	-48.477926	0.000750	7.499377	1.270429	0.000150
1957	1.9462e+02	-1.0358	-48.296255	0.000912	9.120864	1.545116	0.000183
1958	1.9472e+02	-1.0164	-48.150918	0.000730	7.296691	1.236093	0.000146
1959	1.9482e+02	-0.9960	-47.985395	0.000831	8.310120	1.407773	0.000166
1960	1.9492e+02	-0.9757	-47.827947	0.000790	7.904749	1.339101	0.000158
1961	1.9502e+02	-0.9551	-47.634165	0.000973	9.728921	1.648124	0.000195
1962	1.9512e+02	-0.9361	-47.436345	0.000993	9.931607	1.682460	0.000199
1963	1.9522e+02	-0.9156	-47.319268	0.000588	5.877890	0.995742	0.000118
1964	1.9532e+02	-0.8963	-47.113374	0.001034	10.336979	1.751132	0.000207
1965	1.9542e+02	-0.8757	-46.939777	0.000872	8.715492	1.476444	0.000174
1966	1.9552e+02	-0.8560	-46.806552	0.000669	6.688633	1.133085	0.000134
1967	1.9562e+02	-0.8365	-46.600658	0.001034	10.336979	1.751132	0.000207
1968	1.9572e+02	-0.8173	-46.443210	0.000790	7.904749	1.339101	0.000158
1969	1.9582e+02	-0.7959	-46.257501	0.000932	9.323550	1.579452	0.000187
1970	1.9592e+02	-0.7764	-46.059682	0.000993	9.931607	1.682460	0.000199
1971	1.9601e+02	-0.7557	-45.910308	0.000750	7.499377	1.270429	0.000150
1972	1.9611e+02	-0.7362	-45.752859	0.000790	7.904749	1.339101	0.000158
1973	1.9621e+02	-0.7165	-45.559077	0.000973	9.728921	1.648124	0.000195
1974	1.9631e+02	-0.6959	-45.365294	0.000973	9.728921	1.648124	0.000195
1975	1.9641e+02	-0.6771	-45.219957	0.000730	7.296691	1.236093	0.000146
1976	1.9651e+02	-0.6561	-45.038286	0.000912	9.120864	1.545116	0.000183
1977	1.9661e+02	-0.6365	-44.852578	0.000932	9.323550	1.579452	0.000187
1978	1.9671e+02	-0.6171	-44.687055	0.000831	8.310120	1.407773	0.000166
1979	1.9681e+02	-0.5967	-44.537681	0.000750	7.499377	1.270429	0.000150
1980	1.9691e+02	-0.5769	-44.364085	0.000872	8.715492	1.476444	0.000174
1981	1.9701e+02	-0.5563	-44.166265	0.000993	9.931607	1.682460	0.000199
1982	1.9711e+02	-0.5378	-44.016891	0.000750	7.499377	1.270429	0.000150
1983	1.9721e+02	-0.5170	-43.859443	0.000790	7.904749	1.339101	0.000158
1984	1.9731e+02	-0.4970	-43.653549	0.001034	10.336979	1.751132	0.000207
1985	1.9741e+02	-0.4768	-43.479952	0.000872	8.715492	1.476444	0.000174
1986	1.9751e+02	-0.4572	-43.278095	0.001013	10.134293	1.716796	0.000203
1987	1.9761e+02	-0.4371	-43.116610	0.000811	8.107435	1.373437	0.000162
1988	1.9771e+02	-0.4177	-42.938976	0.000892	8.918178	1.510780	0.000179
1989	1.9781e+02	-0.3978	-42.785565	0.000770	7.702063	1.304765	0.000154
1990	1.9791e+02	-0.3770	-42.620042	0.000831	8.310120	1.407773	0.000166
1991	1.9800e+02	-0.3584	-42.406074	0.001074	10.742351	1.819803	0.000215
1992	1.9810e+02	-0.3390	-42.252663	0.000770	7.702063	1.304765	0.000154
1993	1.9820e+02	-0.3177	-42.099251	0.000770	7.702063	1.304765	0.000154
1994	1.9830e+02	-0.2982	-41.905469	0.000973	9.728921	1.648124	0.000195
1995	1.9840e+02	-0.2782	-41.699575	0.001034	10.336979	1.751132	0.000207
1996	1.9850e+02	-0.2586	-41.542127	0.000790	7.904749	1.339101	0.000158
1997	1.9860e+02	-0.2382	-41.388716	0.000770	7.702063	1.304765	0.000154
1998	1.9870e+02	-0.2182	-41.203007	0.000932	9.323550	1.579452	0.000187
1999	1.9880e+02	-0.1986	-40.993076	0.001054	10.539665	1.785468	0.000211
2000	1.9890e+02	-0.1779	-40.855814	0.000689	6.891319	1.167421	0.000138
2001	1.9900e+02	-0.1587	-40.641845	0.001074	10.742351	1.819803	0.000215
2002	1.9910e+02	-0.1379	-40.448063	0.000973	9.728921	1.648124	0.000195
2003	1.9920e+02	-0.1186	-40.282540	0.000831	8.310120	1.407773	0.000166
2004	1.9930e+02	-0.0986	-40.104906	0.000892	8.918178	1.510780	0.000179
2005	1.9940e+02	-0.0780	-39.963607	0.000709	7.094005	1.201757	0.000142
2006	1.9950e+02	-0.0589	-39.721379	0.001216	12.161152	2.060155	0.000243
2007	1.9960e+02	-0.0391	-39.563930	0.000790	7.904749	1.339101	0.000158
2008	1.9970e+02	-0.0195	-39.410519	0.000770	7.702063	1.304765	0.000154
2009	1.9980e+02	-0.0002	-39.236922	0.000770	7.702063	1.304765	0.000174

PMax (uC/cm2):	7.30e+01
Pr (uC/cm2):	8.12e+00
-Pr (uC/cm2):	-5.88e+01
PLoss (uC/cm2):	-5.89e+01
-Vc:	-9.14e-01
C (Max-Eff) (nF):	7.30e-01
K (Eff):	1.24e+03
Vert. (+/-Pr) Shift (uC/cm2):	-2.54e+01
Offset (uC/cm2):	-1.96e+01

A (Loop Area - uC/cm2·Volts):	-1.33e-01



Hysteresis Version: 5.48.1 - Radiant Technologies, Inc., 1999 - 9/12/24

