»»»»»»»»»»»»»»»»»»»»»»»»»»»»»»»»»»»» Hysteresis ««««««««««««««««««««««««««««««««««««
»»»  Executed Version:	5.48.1
»»»  Vision Version:	5.48.4 (R)
»»»  Vision Compiled:	9/18/24
»»»  Driver Version:	5.47.0
»»»  Windows Version:	Windows 8 or 8.1
»»»  Processor Information:	x86 (AMD or Intel) - 32 Processors
»»»  Tester Name:	PMF21124-494 (100V)
»»»  Tester S/N:	PMF21124-494
»»»  Internal Amp Type:	100V RevK 270k
»»»  Internal Amp S/N:	iAB2-596/K     
»»»  Execution Count:	1
»»»»»»»»»»»»»»»»»»»»»»»»»»»»»»»»»»»»»»»»»»««««««««««««««««««««««««««««««««««««««««««

Stored:	7/1/2025 - 15:42:43
Configured:	07/01/25 10:49:51 AM
Executed:	07/01/25 03:42:16 PM

»»»»»»»»»»»»»»»»»»»»»»»»»»»»»»»»»»» Sample Info ««««««««««««««««««««««««««««««««««««
Sample Name:	
Lot Name:	
Wafer Name:	
Die Row/Column:	0/0
Capacitor Number:	0
Sample Area (cm2):	1.00e-04
Sample Thickness (microns):	1.50e-01

Amplifier:	Internal

»»»»»»»»»»»»»»»»»»»»»»»»»»»»»»»»»»» Tester Info «««««««««««««««««««««««««««««««««««
Tester Name:	PMF21124-494 (100V)
Tester Serial Number:	PMF21124-494
Return Signal Amp. Level:	0.19 [Index: 3]

»»»»»»»»»»»»»»»»»»»»»»»»»»»»»»»» Hysteresis Info ««««««««««««««««««««««««««««««««««
Task Name:	Hyst-22
Volts:	10.00
Field:	666.67 (kV/cm)
DCBias:	0.00
DCField:	0.00 (kV/cm)
Hysteresis Period (ms):	2.00e+02
Preset:	Enabled
Preset Delay (ms):	1.00e+03
Profile:	Standard Bipolar

»»»»»»»»»»»»»»»»»»»»»»»»»»»»»»»»»»»»»» Data «««««««««««««««««««««««««««««««««««««««
Points:	2009

Valid Data

Point	Time (ms)	Drive Voltage	Measured Polarization (uC/cm2)	Capacitance (uF)	Normalized Capacitance (uF/cm2)	Dielectric Constant	Instantaneous Current (mA)
   1	0.0000e+00	-0.0003	17.620079	0.000628	6.283681	1.064484	0.000126
   2	9.9500e-02	0.0183	17.745230	0.000628	6.283681	1.064484	0.000126
   3	1.9900e-01	0.0394	17.866344	0.000608	6.080982	1.030146	0.000122
   4	2.9850e-01	0.0577	18.027830	0.000811	8.107976	1.373528	0.000162
   5	3.9800e-01	0.0797	18.100498	0.000365	3.648589	0.618088	0.000073
   6	4.9750e-01	0.0986	18.229686	0.000649	6.486381	1.098823	0.000130
   7	5.9700e-01	0.1183	18.362912	0.000669	6.689080	1.133161	0.000134
   8	6.9650e-01	0.1380	18.467877	0.000527	5.270184	0.892793	0.000105
   9	7.9600e-01	0.1589	18.597066	0.000649	6.486381	1.098823	0.000130
  10	8.9550e-01	0.1784	18.726254	0.000649	6.486381	1.098823	0.000130
  11	9.9500e-01	0.1983	18.839294	0.000568	5.675583	0.961470	0.000114
  12	1.0945e+00	0.2180	18.964445	0.000628	6.283681	1.064484	0.000126
  13	1.1940e+00	0.2393	19.053262	0.000446	4.459387	0.755441	0.000089
  14	1.2935e+00	0.2585	19.202636	0.000750	7.499878	1.270514	0.000150
  15	1.3930e+00	0.2782	19.356047	0.000770	7.702577	1.304852	0.000154
  16	1.4925e+00	0.2984	19.456976	0.000507	5.067485	0.858455	0.000101
  17	1.5920e+00	0.3178	19.586164	0.000649	6.486381	1.098823	0.000130
  18	1.6915e+00	0.3378	19.703241	0.000588	5.878282	0.995808	0.000118
  19	1.7910e+00	0.3582	19.836466	0.000669	6.689080	1.133161	0.000134
  20	1.8905e+00	0.3765	19.913172	0.000385	3.851289	0.652426	0.000077
  21	1.9900e+00	0.3978	20.094843	0.000912	9.121473	1.545219	0.000183
  22	2.0895e+00	0.4174	20.183660	0.000446	4.459387	0.755441	0.000089
  23	2.1890e+00	0.4379	20.324960	0.000709	7.094479	1.201837	0.000142
  24	2.2885e+00	0.4580	20.442037	0.000588	5.878282	0.995808	0.000118
  25	2.3880e+00	0.4778	20.575262	0.000669	6.689080	1.133161	0.000134
  26	2.4875e+00	0.4972	20.664079	0.000446	4.459387	0.755441	0.000089
  27	2.5870e+00	0.5171	20.789230	0.000628	6.283681	1.064484	0.000126
  28	2.6865e+00	0.5367	20.954753	0.000831	8.310675	1.407866	0.000166
  29	2.7860e+00	0.5576	21.079904	0.000628	6.283681	1.064484	0.000126
  30	2.8855e+00	0.5780	21.172758	0.000466	4.662086	0.789779	0.000093
  31	2.9850e+00	0.5957	21.301947	0.000649	6.486381	1.098823	0.000130
  32	3.0845e+00	0.6166	21.467469	0.000831	8.310675	1.407866	0.000166
  33	3.1840e+00	0.6370	21.604732	0.000689	6.891779	1.167499	0.000138
  34	3.2835e+00	0.6567	21.709697	0.000527	5.270184	0.892793	0.000105
  35	3.3830e+00	0.6773	21.846960	0.000689	6.891779	1.167499	0.000138
  36	3.4825e+00	0.6961	22.036705	0.000953	9.526872	1.613896	0.000191
  37	3.5820e+00	0.7162	22.097262	0.000304	3.040491	0.515073	0.000061
  38	3.6815e+00	0.7358	22.238562	0.000709	7.094479	1.201837	0.000142
  39	3.7810e+00	0.7568	22.375825	0.000689	6.891779	1.167499	0.000138
  40	3.8805e+00	0.7757	22.509050	0.000669	6.689080	1.133161	0.000134
  41	3.9800e+00	0.7961	22.642276	0.000669	6.689080	1.133161	0.000134
  42	4.0795e+00	0.8160	22.779538	0.000689	6.891779	1.167499	0.000138
  43	4.1790e+00	0.8366	22.932950	0.000770	7.702577	1.304852	0.000154
  44	4.2785e+00	0.8566	23.033878	0.000507	5.067485	0.858455	0.000101
  45	4.3780e+00	0.8761	23.167103	0.000669	6.689080	1.133161	0.000134
  46	4.4775e+00	0.8957	23.320515	0.000770	7.702577	1.304852	0.000154
  47	4.5770e+00	0.9158	23.397220	0.000385	3.851289	0.652426	0.000077
  48	4.6765e+00	0.9352	23.586966	0.000953	9.526872	1.613896	0.000191
  49	4.7760e+00	0.9564	23.704042	0.000588	5.878282	0.995808	0.000118
  50	4.8755e+00	0.9755	23.817082	0.000568	5.675583	0.961470	0.000114
  51	4.9750e+00	0.9951	23.982605	0.000831	8.310675	1.407866	0.000166
  52	5.0745e+00	1.0147	24.103719	0.000608	6.080982	1.030146	0.000122
  53	5.1740e+00	1.0354	24.273279	0.000851	8.513375	1.442205	0.000170
  54	5.2735e+00	1.0537	24.406504	0.000669	6.689080	1.133161	0.000134
  55	5.3730e+00	1.0752	24.503395	0.000486	4.864786	0.824117	0.000097
  56	5.4725e+00	1.0950	24.652769	0.000750	7.499878	1.270514	0.000150
  57	5.5720e+00	1.1157	24.790032	0.000689	6.891779	1.167499	0.000138
  58	5.6715e+00	1.1349	24.943443	0.000770	7.702577	1.304852	0.000154
  59	5.7710e+00	1.1548	25.072632	0.000649	6.486381	1.098823	0.000130
  60	5.8705e+00	1.1749	25.197783	0.000628	6.283681	1.064484	0.000126
  61	5.9700e+00	1.1955	25.363305	0.000831	8.310675	1.407866	0.000166
  62	6.0695e+00	1.2152	25.508642	0.000730	7.297178	1.236175	0.000146
  63	6.1690e+00	1.2344	25.658016	0.000750	7.499878	1.270514	0.000150
  64	6.2685e+00	1.2547	25.742796	0.000426	4.256687	0.721102	0.000085
  65	6.3680e+00	1.2743	25.867947	0.000628	6.283681	1.064484	0.000126
  66	6.4675e+00	1.2936	26.029433	0.000811	8.107976	1.373528	0.000162
  67	6.5670e+00	1.3140	26.154584	0.000628	6.283681	1.064484	0.000126
  68	6.6665e+00	1.3330	26.247438	0.000466	4.662086	0.789779	0.000093
  69	6.7660e+00	1.3535	26.421035	0.000872	8.716074	1.476543	0.000174
  70	6.8655e+00	1.3731	26.546186	0.000628	6.283681	1.064484	0.000126
  71	6.9650e+00	1.3938	26.687486	0.000709	7.094479	1.201837	0.000142
  72	7.0645e+00	1.4127	26.820711	0.000669	6.689080	1.133161	0.000134
  73	7.1640e+00	1.4338	27.002382	0.000912	9.121473	1.545219	0.000183
  74	7.2635e+00	1.4526	27.143682	0.000709	7.094479	1.201837	0.000142
  75	7.3630e+00	1.4736	27.268833	0.000628	6.283681	1.064484	0.000126
  76	7.4625e+00	1.4924	27.393985	0.000628	6.283681	1.064484	0.000126
  77	7.5620e+00	1.5124	27.567581	0.000872	8.716074	1.476543	0.000174
  78	7.6615e+00	1.5331	27.668510	0.000507	5.067485	0.858455	0.000101
  79	7.7610e+00	1.5522	27.825958	0.000791	7.905276	1.339190	0.000158
  80	7.8605e+00	1.5725	27.947072	0.000608	6.080982	1.030146	0.000122
  81	7.9600e+00	1.5926	28.100483	0.000770	7.702577	1.304852	0.000154
  82	8.0595e+00	1.6116	28.229672	0.000649	6.486381	1.098823	0.000130
  83	8.1590e+00	1.6328	28.375009	0.000730	7.297178	1.236175	0.000146
  84	8.2585e+00	1.6522	28.536494	0.000811	8.107976	1.373528	0.000162
  85	8.3580e+00	1.6724	28.645497	0.000547	5.472884	0.927132	0.000110
  86	8.4575e+00	1.6926	28.778722	0.000669	6.689080	1.133161	0.000134
  87	8.5570e+00	1.7123	28.932133	0.000770	7.702577	1.304852	0.000154
  88	8.6565e+00	1.7321	29.105730	0.000872	8.716074	1.476543	0.000174
  89	8.7560e+00	1.7520	29.202621	0.000486	4.864786	0.824117	0.000097
  90	8.8555e+00	1.7720	29.327773	0.000628	6.283681	1.064484	0.000126
  91	8.9550e+00	1.7910	29.501369	0.000872	8.716074	1.476543	0.000174
  92	9.0545e+00	1.8124	29.662855	0.000811	8.107976	1.373528	0.000162
  93	9.1540e+00	1.8321	29.788006	0.000628	6.283681	1.064484	0.000126
  94	9.2535e+00	1.8517	29.941417	0.000770	7.702577	1.304852	0.000154
  95	9.3530e+00	1.8719	30.058494	0.000588	5.878282	0.995808	0.000118
  96	9.4525e+00	1.8909	30.236128	0.000892	8.918773	1.510881	0.000179
  97	9.5520e+00	1.9116	30.337057	0.000507	5.067485	0.858455	0.000101
  98	9.6515e+00	1.9315	30.494505	0.000791	7.905276	1.339190	0.000158
  99	9.7510e+00	1.9512	30.603507	0.000547	5.472884	0.927132	0.000110
 100	9.8505e+00	1.9705	30.777104	0.000872	8.716074	1.476543	0.000174
 101	9.9500e+00	1.9922	30.950701	0.000872	8.716074	1.476543	0.000174
 102	1.0050e+01	2.0110	31.051630	0.000507	5.067485	0.858455	0.000101
 103	1.0149e+01	2.0317	31.213115	0.000811	8.107976	1.373528	0.000162
 104	1.0248e+01	2.0509	31.346340	0.000669	6.689080	1.133161	0.000134
 105	1.0348e+01	2.0711	31.483603	0.000689	6.891779	1.167499	0.000138
 106	1.0447e+01	2.0911	31.620866	0.000689	6.891779	1.167499	0.000138
 107	1.0547e+01	2.1101	31.762165	0.000709	7.094479	1.201837	0.000142
 108	1.0646e+01	2.1307	31.931725	0.000851	8.513375	1.442205	0.000170
 109	1.0746e+01	2.1503	32.085136	0.000770	7.702577	1.304852	0.000154
 110	1.0845e+01	2.1704	32.214325	0.000649	6.486381	1.098823	0.000130
 111	1.0945e+01	2.1906	32.343513	0.000649	6.486381	1.098823	0.000130
 112	1.1044e+01	2.2105	32.452516	0.000547	5.472884	0.927132	0.000110
 113	1.1144e+01	2.2308	32.626112	0.000872	8.716074	1.476543	0.000174
 114	1.1243e+01	2.2500	32.807784	0.000912	9.121473	1.545219	0.000183
 115	1.1343e+01	2.2701	32.928898	0.000608	6.080982	1.030146	0.000122
 116	1.1443e+01	2.2905	33.070197	0.000709	7.094479	1.201837	0.000142
 117	1.1542e+01	2.3113	33.199386	0.000649	6.486381	1.098823	0.000130
 118	1.1642e+01	2.3295	33.352797	0.000770	7.702577	1.304852	0.000154
 119	1.1741e+01	2.3483	33.473911	0.000608	6.080982	1.030146	0.000122
 120	1.1841e+01	2.3696	33.607136	0.000669	6.689080	1.133161	0.000134
 121	1.1940e+01	2.3899	33.752473	0.000730	7.297178	1.236175	0.000146
 122	1.2040e+01	2.4099	33.922033	0.000851	8.513375	1.442205	0.000170
 123	1.2139e+01	2.4293	34.026999	0.000527	5.270184	0.892793	0.000105
 124	1.2239e+01	2.4500	34.168298	0.000709	7.094479	1.201837	0.000142
 125	1.2338e+01	2.4692	34.313635	0.000730	7.297178	1.236175	0.000146
 126	1.2438e+01	2.4899	34.442824	0.000649	6.486381	1.098823	0.000130
 127	1.2537e+01	2.5097	34.592198	0.000750	7.499878	1.270514	0.000150
 128	1.2636e+01	2.5294	34.725423	0.000669	6.689080	1.133161	0.000134
 129	1.2736e+01	2.5499	34.882871	0.000791	7.905276	1.339190	0.000158
 130	1.2835e+01	2.5692	34.991874	0.000547	5.472884	0.927132	0.000110
 131	1.2935e+01	2.5883	35.149322	0.000791	7.905276	1.339190	0.000158
 132	1.3034e+01	2.6080	35.266399	0.000588	5.878282	0.995808	0.000118
 133	1.3134e+01	2.6283	35.403662	0.000689	6.891779	1.167499	0.000138
 134	1.3233e+01	2.6482	35.553036	0.000750	7.499878	1.270514	0.000150
 135	1.3333e+01	2.6689	35.678187	0.000628	6.283681	1.064484	0.000126
 136	1.3432e+01	2.6885	35.855821	0.000892	8.918773	1.510881	0.000179
 137	1.3532e+01	2.7082	35.960787	0.000527	5.270184	0.892793	0.000105
 138	1.3632e+01	2.7282	36.118235	0.000791	7.905276	1.339190	0.000158
 139	1.3731e+01	2.7468	36.235312	0.000588	5.878282	0.995808	0.000118
 140	1.3831e+01	2.7679	36.408909	0.000872	8.716074	1.476543	0.000174
 141	1.3930e+01	2.7880	36.550208	0.000709	7.094479	1.201837	0.000142
 142	1.4030e+01	2.8089	36.679397	0.000649	6.486381	1.098823	0.000130
 143	1.4129e+01	2.8281	36.832808	0.000770	7.702577	1.304852	0.000154
 144	1.4229e+01	2.8487	36.982182	0.000750	7.499878	1.270514	0.000150
 145	1.4328e+01	2.8679	37.107333	0.000628	6.283681	1.064484	0.000126
 146	1.4428e+01	2.8875	37.228447	0.000608	6.080982	1.030146	0.000122
 147	1.4527e+01	2.9078	37.353598	0.000628	6.283681	1.064484	0.000126
 148	1.4627e+01	2.9270	37.551418	0.000993	9.932270	1.682572	0.000199
 149	1.4726e+01	2.9479	37.656384	0.000527	5.270184	0.892793	0.000105
 150	1.4825e+01	2.9671	37.797683	0.000709	7.094479	1.201837	0.000142
 151	1.4925e+01	2.9865	37.910723	0.000568	5.675583	0.961470	0.000114
 152	1.5024e+01	3.0079	38.092394	0.000912	9.121473	1.545219	0.000183
 153	1.5124e+01	3.0262	38.189286	0.000486	4.864786	0.824117	0.000097
 154	1.5223e+01	3.0468	38.387105	0.000993	9.932270	1.682572	0.000199
 155	1.5323e+01	3.0664	38.496108	0.000547	5.472884	0.927132	0.000110
 156	1.5422e+01	3.0872	38.641445	0.000730	7.297178	1.236175	0.000146
 157	1.5522e+01	3.1071	38.758522	0.000588	5.878282	0.995808	0.000118
 158	1.5621e+01	3.1271	38.903859	0.000730	7.297178	1.236175	0.000146
 159	1.5721e+01	3.1472	39.041121	0.000689	6.891779	1.167499	0.000138
 160	1.5820e+01	3.1670	39.170309	0.000649	6.486381	1.098823	0.000130
 161	1.5920e+01	3.1869	39.279312	0.000547	5.472884	0.927132	0.000110
 162	1.6020e+01	3.2066	39.452909	0.000872	8.716074	1.476543	0.000174
 163	1.6119e+01	3.2266	39.582097	0.000649	6.486381	1.098823	0.000130
 164	1.6218e+01	3.2456	39.723397	0.000709	7.094479	1.201837	0.000142
 165	1.6318e+01	3.2656	39.844511	0.000608	6.080982	1.030146	0.000122
 166	1.6418e+01	3.2856	39.997922	0.000770	7.702577	1.304852	0.000154
 167	1.6517e+01	3.3064	40.143259	0.000730	7.297178	1.236175	0.000146
 168	1.6616e+01	3.3266	40.268410	0.000628	6.283681	1.064484	0.000126
 169	1.6716e+01	3.3455	40.377413	0.000547	5.472884	0.927132	0.000110
 170	1.6816e+01	3.3661	40.534861	0.000791	7.905276	1.339190	0.000158
 171	1.6915e+01	3.3860	40.696347	0.000811	8.107976	1.373528	0.000162
 172	1.7015e+01	3.4062	40.813424	0.000588	5.878282	0.995808	0.000118
 173	1.7114e+01	3.4257	40.966835	0.000770	7.702577	1.304852	0.000154
 174	1.7213e+01	3.4455	41.071800	0.000527	5.270184	0.892793	0.000105
 175	1.7313e+01	3.4658	41.249434	0.000892	8.918773	1.510881	0.000179
 176	1.7413e+01	3.4849	41.370548	0.000608	6.080982	1.030146	0.000122
 177	1.7512e+01	3.5055	41.507811	0.000689	6.891779	1.167499	0.000138
 178	1.7611e+01	3.5260	41.661222	0.000770	7.702577	1.304852	0.000154
 179	1.7711e+01	3.5453	41.782336	0.000608	6.080982	1.030146	0.000122
 180	1.7811e+01	3.5646	41.911525	0.000649	6.486381	1.098823	0.000130
 181	1.7910e+01	3.5848	42.044750	0.000669	6.689080	1.133161	0.000134
 182	1.8009e+01	3.6040	42.173938	0.000649	6.486381	1.098823	0.000130
 183	1.8109e+01	3.6257	42.319275	0.000730	7.297178	1.236175	0.000146
 184	1.8209e+01	3.6449	42.444427	0.000628	6.283681	1.064484	0.000126
 185	1.8308e+01	3.6655	42.593801	0.000750	7.499878	1.270514	0.000150
 186	1.8407e+01	3.6850	42.735100	0.000709	7.094479	1.201837	0.000142
 187	1.8507e+01	3.7045	42.872363	0.000689	6.891779	1.167499	0.000138
 188	1.8607e+01	3.7246	43.001551	0.000649	6.486381	1.098823	0.000130
 189	1.8706e+01	3.7444	43.142851	0.000709	7.094479	1.201837	0.000142
 190	1.8805e+01	3.7652	43.239742	0.000486	4.864786	0.824117	0.000097
 191	1.8905e+01	3.7841	43.385079	0.000730	7.297178	1.236175	0.000146
 192	1.9005e+01	3.8041	43.473896	0.000446	4.459387	0.755441	0.000089
 193	1.9104e+01	3.8250	43.687864	0.001074	10.743068	1.819925	0.000215
 194	1.9203e+01	3.8433	43.808978	0.000608	6.080982	1.030146	0.000122
 195	1.9303e+01	3.8636	43.950278	0.000709	7.094479	1.201837	0.000142
 196	1.9402e+01	3.8834	44.031021	0.000405	4.053988	0.686764	0.000081
 197	1.9502e+01	3.9037	44.172321	0.000709	7.094479	1.201837	0.000142
 198	1.9602e+01	3.9234	44.309583	0.000689	6.891779	1.167499	0.000138
 199	1.9701e+01	3.9436	44.434735	0.000628	6.283681	1.064484	0.000126
 200	1.9800e+01	3.9631	44.580071	0.000730	7.297178	1.236175	0.000146
 201	1.9900e+01	3.9827	44.757705	0.000892	8.918773	1.510881	0.000179
 202	2.0000e+01	4.0032	44.862671	0.000527	5.270184	0.892793	0.000105
 203	2.0099e+01	4.0234	44.979748	0.000588	5.878282	0.995808	0.000118
 204	2.0198e+01	4.0427	45.133159	0.000770	7.702577	1.304852	0.000154
 205	2.0298e+01	4.0646	45.278496	0.000730	7.297178	1.236175	0.000146
 206	2.0398e+01	4.0833	45.379424	0.000507	5.067485	0.858455	0.000101
 207	2.0497e+01	4.1029	45.520724	0.000709	7.094479	1.201837	0.000142
 208	2.0596e+01	4.1222	45.657987	0.000689	6.891779	1.167499	0.000138
 209	2.0696e+01	4.1434	45.783138	0.000628	6.283681	1.064484	0.000126
 210	2.0796e+01	4.1627	45.936549	0.000770	7.702577	1.304852	0.000154
 211	2.0895e+01	4.1814	46.037477	0.000507	5.067485	0.858455	0.000101
 212	2.0994e+01	4.2032	46.194926	0.000791	7.905276	1.339190	0.000158
 213	2.1094e+01	4.2220	46.332188	0.000689	6.891779	1.167499	0.000138
 214	2.1194e+01	4.2426	46.485599	0.000770	7.702577	1.304852	0.000154
 215	2.1293e+01	4.2622	46.578454	0.000466	4.662086	0.789779	0.000093
 216	2.1392e+01	4.2822	46.703605	0.000628	6.283681	1.064484	0.000126
 217	2.1492e+01	4.3028	46.889313	0.000932	9.324172	1.579558	0.000187
 218	2.1591e+01	4.3218	46.978130	0.000446	4.459387	0.755441	0.000089
 219	2.1691e+01	4.3426	47.103281	0.000628	6.283681	1.064484	0.000126
 220	2.1791e+01	4.3613	47.236507	0.000669	6.689080	1.133161	0.000134
 221	2.1890e+01	4.3819	47.381844	0.000730	7.297178	1.236175	0.000146
 222	2.1989e+01	4.4018	47.519106	0.000689	6.891779	1.167499	0.000138
 223	2.2089e+01	4.4207	47.648295	0.000649	6.486381	1.098823	0.000130
 224	2.2189e+01	4.4418	47.757297	0.000547	5.472884	0.927132	0.000110
 225	2.2288e+01	4.4610	47.898597	0.000709	7.094479	1.201837	0.000142
 226	2.2387e+01	4.4814	48.019711	0.000608	6.080982	1.030146	0.000122
 227	2.2487e+01	4.5013	48.148899	0.000649	6.486381	1.098823	0.000130
 228	2.2587e+01	4.5205	48.282125	0.000669	6.689080	1.133161	0.000134
 229	2.2686e+01	4.5408	48.459759	0.000892	8.918773	1.510881	0.000179
 230	2.2785e+01	4.5616	48.576836	0.000588	5.878282	0.995808	0.000118
 231	2.2885e+01	4.5809	48.710061	0.000669	6.689080	1.133161	0.000134
 232	2.2985e+01	4.6004	48.831175	0.000608	6.080982	1.030146	0.000122
 233	2.3084e+01	4.6209	48.928067	0.000486	4.864786	0.824117	0.000097
 234	2.3183e+01	4.6412	49.053218	0.000628	6.283681	1.064484	0.000126
 235	2.3283e+01	4.6607	49.214703	0.000811	8.107976	1.373528	0.000162
 236	2.3383e+01	4.6807	49.323706	0.000547	5.472884	0.927132	0.000110
 237	2.3482e+01	4.6998	49.436746	0.000568	5.675583	0.961470	0.000114
 238	2.3581e+01	4.7210	49.590157	0.000770	7.702577	1.304852	0.000154
 239	2.3681e+01	4.7413	49.646677	0.000284	2.837792	0.480735	0.000057
 240	2.3780e+01	4.7604	49.840459	0.000973	9.729571	1.648234	0.000195
 241	2.3880e+01	4.7810	49.969648	0.000649	6.486381	1.098823	0.000130
 242	2.3980e+01	4.7994	50.066539	0.000486	4.864786	0.824117	0.000097
 243	2.4079e+01	4.8194	50.232061	0.000831	8.310675	1.407866	0.000166
 244	2.4178e+01	4.8402	50.337027	0.000527	5.270184	0.892793	0.000105
 245	2.4278e+01	4.8595	50.462178	0.000628	6.283681	1.064484	0.000126
 246	2.4378e+01	4.8808	50.583292	0.000608	6.080982	1.030146	0.000122
 247	2.4477e+01	4.8992	50.760926	0.000892	8.918773	1.510881	0.000179
 248	2.4576e+01	4.9191	50.817446	0.000284	2.837792	0.480735	0.000057
 249	2.4676e+01	4.9398	50.970857	0.000770	7.702577	1.304852	0.000154
 250	2.4776e+01	4.9599	51.087934	0.000588	5.878282	0.995808	0.000118
 251	2.4875e+01	4.9792	51.217123	0.000649	6.486381	1.098823	0.000130
 252	2.4974e+01	5.0001	51.318051	0.000507	5.067485	0.858455	0.000101
 253	2.5074e+01	5.0194	51.491648	0.000872	8.716074	1.476543	0.000174
 254	2.5174e+01	5.0387	51.544131	0.000264	2.635092	0.446397	0.000053
 255	2.5273e+01	5.0595	51.685430	0.000709	7.094479	1.201837	0.000142
 256	2.5372e+01	5.0781	51.822693	0.000689	6.891779	1.167499	0.000138
 257	2.5472e+01	5.0988	51.968030	0.000730	7.297178	1.236175	0.000146
 258	2.5572e+01	5.1183	52.068958	0.000507	5.067485	0.858455	0.000101
 259	2.5671e+01	5.1383	52.226406	0.000791	7.905276	1.339190	0.000158
 260	2.5770e+01	5.1580	52.319261	0.000466	4.662086	0.789779	0.000093
 261	2.5870e+01	5.1787	52.444412	0.000628	6.283681	1.064484	0.000126
 262	2.5970e+01	5.1983	52.553414	0.000547	5.472884	0.927132	0.000110
 263	2.6069e+01	5.2177	52.714900	0.000811	8.107976	1.373528	0.000162
 264	2.6169e+01	5.2393	52.844088	0.000649	6.486381	1.098823	0.000130
 265	2.6268e+01	5.2586	52.936942	0.000466	4.662086	0.789779	0.000093
 266	2.6367e+01	5.2783	53.054019	0.000588	5.878282	0.995808	0.000118
 267	2.6467e+01	5.2972	53.187245	0.000669	6.689080	1.133161	0.000134
 268	2.6567e+01	5.3176	53.320470	0.000669	6.689080	1.133161	0.000134
 269	2.6666e+01	5.3384	53.437547	0.000588	5.878282	0.995808	0.000118
 270	2.6765e+01	5.3579	53.578847	0.000709	7.094479	1.201837	0.000142
 271	2.6865e+01	5.3774	53.712072	0.000669	6.689080	1.133161	0.000134
 272	2.6965e+01	5.3979	53.821075	0.000547	5.472884	0.927132	0.000110
 273	2.7064e+01	5.4174	53.950263	0.000649	6.486381	1.098823	0.000130
 274	2.7163e+01	5.4372	54.067340	0.000588	5.878282	0.995808	0.000118
 275	2.7263e+01	5.4566	54.192492	0.000628	6.283681	1.064484	0.000126
 276	2.7363e+01	5.4775	54.265160	0.000365	3.648589	0.618088	0.000073
 277	2.7462e+01	5.4964	54.446831	0.000912	9.121473	1.545219	0.000183
 278	2.7561e+01	5.5170	54.547760	0.000507	5.067485	0.858455	0.000101
 279	2.7661e+01	5.5372	54.644651	0.000486	4.864786	0.824117	0.000097
 280	2.7761e+01	5.5573	54.789988	0.000730	7.297178	1.236175	0.000146
 281	2.7860e+01	5.5773	54.919176	0.000649	6.486381	1.098823	0.000130
 282	2.7959e+01	5.5965	55.007993	0.000446	4.459387	0.755441	0.000089
 283	2.8059e+01	5.6176	55.157367	0.000750	7.499878	1.270514	0.000150
 284	2.8159e+01	5.6370	55.242147	0.000426	4.256687	0.721102	0.000085
 285	2.8258e+01	5.6568	55.363261	0.000608	6.080982	1.030146	0.000122
 286	2.8358e+01	5.6765	55.504561	0.000709	7.094479	1.201837	0.000142
 287	2.8457e+01	5.6972	55.649898	0.000730	7.297178	1.236175	0.000146
 288	2.8556e+01	5.7164	55.742752	0.000466	4.662086	0.789779	0.000093
 289	2.8656e+01	5.7369	55.831569	0.000446	4.459387	0.755441	0.000089
 290	2.8756e+01	5.7555	55.964794	0.000669	6.689080	1.133161	0.000134
 291	2.8855e+01	5.7761	56.098020	0.000669	6.689080	1.133161	0.000134
 292	2.8954e+01	5.7961	56.198948	0.000507	5.067485	0.858455	0.000101
 293	2.9054e+01	5.8160	56.348322	0.000750	7.499878	1.270514	0.000150
 294	2.9154e+01	5.8355	56.412916	0.000324	3.243190	0.549411	0.000065
 295	2.9253e+01	5.8558	56.546142	0.000669	6.689080	1.133161	0.000134
 296	2.9352e+01	5.8755	56.630922	0.000426	4.256687	0.721102	0.000085
 297	2.9452e+01	5.8955	56.784333	0.000770	7.702577	1.304852	0.000154
 298	2.9552e+01	5.9157	56.945818	0.000811	8.107976	1.373528	0.000162
 299	2.9651e+01	5.9353	57.042709	0.000486	4.864786	0.824117	0.000097
 300	2.9750e+01	5.9556	57.143638	0.000507	5.067485	0.858455	0.000101
 301	2.9850e+01	5.9754	57.224381	0.000405	4.053988	0.686764	0.000081
 302	2.9950e+01	5.9948	57.357606	0.000669	6.689080	1.133161	0.000134
 303	3.0049e+01	6.0156	57.494869	0.000689	6.891779	1.167499	0.000138
 304	3.0148e+01	6.0346	57.587723	0.000466	4.662086	0.789779	0.000093
 305	3.0248e+01	6.0557	57.720948	0.000669	6.689080	1.133161	0.000134
 306	3.0348e+01	6.0744	57.825914	0.000527	5.270184	0.892793	0.000105
 307	3.0447e+01	6.0958	57.942991	0.000588	5.878282	0.995808	0.000118
 308	3.0547e+01	6.1158	58.096402	0.000770	7.702577	1.304852	0.000154
 309	3.0646e+01	6.1355	58.189256	0.000466	4.662086	0.789779	0.000093
 310	3.0745e+01	6.1556	58.314407	0.000628	6.283681	1.064484	0.000126
 311	3.0845e+01	6.1744	58.379001	0.000324	3.243190	0.549411	0.000065
 312	3.0945e+01	6.1947	58.532412	0.000770	7.702577	1.304852	0.000154
 313	3.1044e+01	6.2160	58.637378	0.000527	5.270184	0.892793	0.000105
 314	3.1143e+01	6.2350	58.758492	0.000608	6.080982	1.030146	0.000122
 315	3.1243e+01	6.2550	58.859420	0.000507	5.067485	0.858455	0.000101
 316	3.1343e+01	6.2740	58.976497	0.000588	5.878282	0.995808	0.000118
 317	3.1442e+01	6.2943	59.081463	0.000527	5.270184	0.892793	0.000105
 318	3.1541e+01	6.3140	59.202577	0.000608	6.080982	1.030146	0.000122
 319	3.1641e+01	6.3335	59.360025	0.000791	7.905276	1.339190	0.000158
 320	3.1741e+01	6.3531	59.448842	0.000446	4.459387	0.755441	0.000089
 321	3.1840e+01	6.3734	59.541696	0.000466	4.662086	0.789779	0.000093
 322	3.1939e+01	6.3924	59.654736	0.000568	5.675583	0.961470	0.000114
 323	3.2039e+01	6.4132	59.800073	0.000730	7.297178	1.236175	0.000146
 324	3.2139e+01	6.4338	59.872742	0.000365	3.648589	0.618088	0.000073
 325	3.2238e+01	6.4528	59.989818	0.000588	5.878282	0.995808	0.000118
 326	3.2337e+01	6.4730	60.102858	0.000568	5.675583	0.961470	0.000114
 327	3.2437e+01	6.4930	60.236084	0.000669	6.689080	1.133161	0.000134
 328	3.2536e+01	6.5137	60.369309	0.000669	6.689080	1.133161	0.000134
 329	3.2636e+01	6.5334	60.421792	0.000264	2.635092	0.446397	0.000053
 330	3.2736e+01	6.5517	60.555018	0.000669	6.689080	1.133161	0.000134
 331	3.2835e+01	6.5730	60.664020	0.000547	5.472884	0.927132	0.000110
 332	3.2934e+01	6.5925	60.801283	0.000689	6.891779	1.167499	0.000138
 333	3.3034e+01	6.6116	60.865877	0.000324	3.243190	0.549411	0.000065
 334	3.3133e+01	6.6320	61.051585	0.000932	9.324172	1.579558	0.000187
 335	3.3233e+01	6.6520	61.104068	0.000264	2.635092	0.446397	0.000053
 336	3.3333e+01	6.6715	61.221145	0.000588	5.878282	0.995808	0.000118
 337	3.3432e+01	6.6921	61.358408	0.000689	6.891779	1.167499	0.000138
 338	3.3532e+01	6.7126	61.447225	0.000446	4.459387	0.755441	0.000089
 339	3.3631e+01	6.7326	61.596599	0.000750	7.499878	1.270514	0.000150
 340	3.3730e+01	6.7510	61.677341	0.000405	4.053988	0.686764	0.000081
 341	3.3830e+01	6.7719	61.802492	0.000628	6.283681	1.064484	0.000126
 342	3.3929e+01	6.7919	61.899384	0.000486	4.864786	0.824117	0.000097
 343	3.4029e+01	6.8124	62.032609	0.000669	6.689080	1.133161	0.000134
 344	3.4129e+01	6.8311	62.125463	0.000466	4.662086	0.789779	0.000093
 345	3.4228e+01	6.8516	62.218317	0.000466	4.662086	0.789779	0.000093
 346	3.4328e+01	6.8719	62.343469	0.000628	6.283681	1.064484	0.000126
 347	3.4427e+01	6.8920	62.412100	0.000345	3.445890	0.583750	0.000069
 348	3.4526e+01	6.9112	62.561474	0.000750	7.499878	1.270514	0.000150
 349	3.4626e+01	6.9313	62.646254	0.000426	4.256687	0.721102	0.000085
 350	3.4725e+01	6.9501	62.751219	0.000527	5.270184	0.892793	0.000105
 351	3.4825e+01	6.9718	62.888482	0.000689	6.891779	1.167499	0.000138
 352	3.4925e+01	6.9907	62.997485	0.000547	5.472884	0.927132	0.000110
 353	3.5024e+01	7.0110	63.126673	0.000649	6.486381	1.098823	0.000130
 354	3.5123e+01	7.0301	63.227601	0.000507	5.067485	0.858455	0.000101
 355	3.5223e+01	7.0502	63.288158	0.000304	3.040491	0.515073	0.000061
 356	3.5322e+01	7.0693	63.417347	0.000649	6.486381	1.098823	0.000130
 357	3.5422e+01	7.0914	63.554609	0.000689	6.891779	1.167499	0.000138
 358	3.5522e+01	7.1118	63.643426	0.000446	4.459387	0.755441	0.000089
 359	3.5621e+01	7.1301	63.760503	0.000588	5.878282	0.995808	0.000118
 360	3.5721e+01	7.1507	63.845283	0.000426	4.256687	0.721102	0.000085
 361	3.5820e+01	7.1703	63.962360	0.000588	5.878282	0.995808	0.000118
 362	3.5919e+01	7.1902	64.018880	0.000284	2.837792	0.480735	0.000057
 363	3.6019e+01	7.2100	64.184403	0.000831	8.310675	1.407866	0.000166
 364	3.6118e+01	7.2283	64.273220	0.000446	4.459387	0.755441	0.000089
 365	3.6218e+01	7.2499	64.406445	0.000669	6.689080	1.133161	0.000134
 366	3.6318e+01	7.2689	64.511411	0.000527	5.270184	0.892793	0.000105
 367	3.6417e+01	7.2894	64.620413	0.000547	5.472884	0.927132	0.000110
 368	3.6517e+01	7.3098	64.737490	0.000588	5.878282	0.995808	0.000118
 369	3.6616e+01	7.3302	64.846493	0.000547	5.472884	0.927132	0.000110
 370	3.6715e+01	7.3501	64.923198	0.000385	3.851289	0.652426	0.000077
 371	3.6815e+01	7.3695	65.056424	0.000669	6.689080	1.133161	0.000134
 372	3.6914e+01	7.3890	65.141204	0.000426	4.256687	0.721102	0.000085
 373	3.7014e+01	7.4080	65.221946	0.000405	4.053988	0.686764	0.000081
 374	3.7114e+01	7.4293	65.355172	0.000669	6.689080	1.133161	0.000134
 375	3.7213e+01	7.4498	65.500509	0.000730	7.297178	1.236175	0.000146
 376	3.7313e+01	7.4685	65.593363	0.000466	4.662086	0.789779	0.000093
 377	3.7412e+01	7.4892	65.674106	0.000405	4.053988	0.686764	0.000081
 378	3.7511e+01	7.5088	65.819443	0.000730	7.297178	1.236175	0.000146
 379	3.7611e+01	7.5289	65.924408	0.000527	5.270184	0.892793	0.000105
 380	3.7711e+01	7.5488	66.017262	0.000466	4.662086	0.789779	0.000093
 381	3.7810e+01	7.5686	66.106079	0.000446	4.459387	0.755441	0.000089
 382	3.7910e+01	7.5884	66.239305	0.000669	6.689080	1.133161	0.000134
 383	3.8009e+01	7.6080	66.344270	0.000527	5.270184	0.892793	0.000105
 384	3.8108e+01	7.6278	66.445199	0.000507	5.067485	0.858455	0.000101
 385	3.8208e+01	7.6477	66.542090	0.000486	4.864786	0.824117	0.000097
 386	3.8307e+01	7.6681	66.675315	0.000669	6.689080	1.133161	0.000134
 387	3.8407e+01	7.6891	66.760095	0.000426	4.256687	0.721102	0.000085
 388	3.8507e+01	7.7073	66.889283	0.000649	6.486381	1.098823	0.000130
 389	3.8606e+01	7.7273	66.998286	0.000547	5.472884	0.927132	0.000110
 390	3.8706e+01	7.7474	67.123437	0.000628	6.283681	1.064484	0.000126
 391	3.8805e+01	7.7670	67.216291	0.000466	4.662086	0.789779	0.000093
 392	3.8904e+01	7.7874	67.292997	0.000385	3.851289	0.652426	0.000077
 393	3.9004e+01	7.8078	67.418148	0.000628	6.283681	1.064484	0.000126
 394	3.9103e+01	7.8278	67.531188	0.000568	5.675583	0.961470	0.000114
 395	3.9203e+01	7.8471	67.624042	0.000466	4.662086	0.789779	0.000093
 396	3.9303e+01	7.8673	67.757268	0.000669	6.689080	1.133161	0.000134
 397	3.9402e+01	7.8875	67.817825	0.000304	3.040491	0.515073	0.000061
 398	3.9502e+01	7.9075	67.906642	0.000446	4.459387	0.755441	0.000089
 399	3.9601e+01	7.9273	68.027756	0.000608	6.080982	1.030146	0.000122
 400	3.9700e+01	7.9469	68.156944	0.000649	6.486381	1.098823	0.000130
 401	3.9800e+01	7.9679	68.245761	0.000446	4.459387	0.755441	0.000089
 402	3.9900e+01	7.9876	68.310355	0.000324	3.243190	0.549411	0.000065
 403	3.9999e+01	8.0062	68.451655	0.000709	7.094479	1.201837	0.000142
 404	4.0099e+01	8.0267	68.560658	0.000547	5.472884	0.927132	0.000110
 405	4.0198e+01	8.0474	68.653512	0.000466	4.662086	0.789779	0.000093
 406	4.0297e+01	8.0664	68.750403	0.000486	4.864786	0.824117	0.000097
 407	4.0397e+01	8.0870	68.847294	0.000486	4.864786	0.824117	0.000097
 408	4.0496e+01	8.1059	68.968408	0.000608	6.080982	1.030146	0.000122
 409	4.0596e+01	8.1262	69.061263	0.000466	4.662086	0.789779	0.000093
 410	4.0696e+01	8.1468	69.178339	0.000588	5.878282	0.995808	0.000118
 411	4.0795e+01	8.1665	69.267156	0.000446	4.459387	0.755441	0.000089
 412	4.0895e+01	8.1858	69.360011	0.000466	4.662086	0.789779	0.000093
 413	4.0994e+01	8.2053	69.501310	0.000709	7.094479	1.201837	0.000142
 414	4.1093e+01	8.2252	69.586090	0.000426	4.256687	0.721102	0.000085
 415	4.1193e+01	8.2447	69.666833	0.000405	4.053988	0.686764	0.000081
 416	4.1292e+01	8.2652	69.783910	0.000588	5.878282	0.995808	0.000118
 417	4.1392e+01	8.2864	69.900987	0.000588	5.878282	0.995808	0.000118
 418	4.1492e+01	8.3051	69.985767	0.000426	4.256687	0.721102	0.000085
 419	4.1591e+01	8.3260	70.106881	0.000608	6.080982	1.030146	0.000122
 420	4.1691e+01	8.3449	70.175512	0.000345	3.445890	0.583750	0.000069
 421	4.1790e+01	8.3639	70.304700	0.000649	6.486381	1.098823	0.000130
 422	4.1889e+01	8.3855	70.373332	0.000345	3.445890	0.583750	0.000069
 423	4.1989e+01	8.4052	70.522706	0.000750	7.499878	1.270514	0.000150
 424	4.2089e+01	8.4256	70.603448	0.000405	4.053988	0.686764	0.000081
 425	4.2188e+01	8.4449	70.740711	0.000689	6.891779	1.167499	0.000138
 426	4.2288e+01	8.4648	70.829528	0.000446	4.459387	0.755441	0.000089
 427	4.2387e+01	8.4853	70.914308	0.000426	4.256687	0.721102	0.000085
 428	4.2486e+01	8.5040	71.015236	0.000507	5.067485	0.858455	0.000101
 429	4.2586e+01	8.5245	71.104053	0.000446	4.459387	0.755441	0.000089
 430	4.2685e+01	8.5445	71.217093	0.000568	5.675583	0.961470	0.000114
 431	4.2785e+01	8.5641	71.334170	0.000588	5.878282	0.995808	0.000118
 432	4.2885e+01	8.5841	71.406838	0.000365	3.648589	0.618088	0.000073
 433	4.2984e+01	8.6040	71.503730	0.000486	4.864786	0.824117	0.000097
 434	4.3084e+01	8.6245	71.616769	0.000568	5.675583	0.961470	0.000114
 435	4.3183e+01	8.6448	71.725772	0.000547	5.472884	0.927132	0.000110
 436	4.3282e+01	8.6630	71.830738	0.000527	5.270184	0.892793	0.000105
 437	4.3382e+01	8.6843	71.968000	0.000689	6.891779	1.167499	0.000138
 438	4.3481e+01	8.7038	72.040669	0.000365	3.648589	0.618088	0.000073
 439	4.3581e+01	8.7231	72.137560	0.000486	4.864786	0.824117	0.000097
 440	4.3681e+01	8.7436	72.238488	0.000507	5.067485	0.858455	0.000101
 441	4.3780e+01	8.7638	72.371714	0.000669	6.689080	1.133161	0.000134
 442	4.3880e+01	8.7827	72.440345	0.000345	3.445890	0.583750	0.000069
 443	4.3979e+01	8.8039	72.537236	0.000486	4.864786	0.824117	0.000097
 444	4.4078e+01	8.8229	72.678536	0.000709	7.094479	1.201837	0.000142
 445	4.4178e+01	8.8422	72.759279	0.000405	4.053988	0.686764	0.000081
 446	4.4278e+01	8.8628	72.835984	0.000385	3.851289	0.652426	0.000077
 447	4.4377e+01	8.8821	72.944987	0.000547	5.472884	0.927132	0.000110
 448	4.4477e+01	8.9019	73.029767	0.000426	4.256687	0.721102	0.000085
 449	4.4576e+01	8.9227	73.110510	0.000405	4.053988	0.686764	0.000081
 450	4.4675e+01	8.9420	73.231624	0.000608	6.080982	1.030146	0.000122
 451	4.4775e+01	8.9618	73.328515	0.000486	4.864786	0.824117	0.000097
 452	4.4874e+01	8.9822	73.421369	0.000466	4.662086	0.789779	0.000093
 453	4.4974e+01	9.0028	73.514223	0.000466	4.662086	0.789779	0.000093
 454	4.5074e+01	9.0214	73.615152	0.000507	5.067485	0.858455	0.000101
 455	4.5173e+01	9.0417	73.740303	0.000628	6.283681	1.064484	0.000126
 456	4.5273e+01	9.0617	73.841231	0.000507	5.067485	0.858455	0.000101
 457	4.5372e+01	9.0820	73.885640	0.000223	2.229693	0.377720	0.000045
 458	4.5471e+01	9.1019	73.978494	0.000466	4.662086	0.789779	0.000093
 459	4.5571e+01	9.1216	74.099608	0.000608	6.080982	1.030146	0.000122
 460	4.5670e+01	9.1417	74.200536	0.000507	5.067485	0.858455	0.000101
 461	4.5770e+01	9.1608	74.297428	0.000486	4.864786	0.824117	0.000097
 462	4.5870e+01	9.1808	74.357985	0.000304	3.040491	0.515073	0.000061
 463	4.5969e+01	9.2009	74.491210	0.000669	6.689080	1.133161	0.000134
 464	4.6069e+01	9.2207	74.624436	0.000669	6.689080	1.133161	0.000134
 465	4.6168e+01	9.2402	74.701141	0.000385	3.851289	0.652426	0.000077
 466	4.6267e+01	9.2606	74.785921	0.000426	4.256687	0.721102	0.000085
 467	4.6367e+01	9.2804	74.878775	0.000466	4.662086	0.789779	0.000093
 468	4.6467e+01	9.3011	74.971629	0.000466	4.662086	0.789779	0.000093
 469	4.6566e+01	9.3201	75.084669	0.000568	5.675583	0.961470	0.000114
 470	4.6666e+01	9.3408	75.165412	0.000405	4.053988	0.686764	0.000081
 471	4.6765e+01	9.3606	75.290563	0.000628	6.283681	1.064484	0.000126
 472	4.6864e+01	9.3803	75.339009	0.000243	2.432393	0.412058	0.000049
 473	4.6964e+01	9.4010	75.484345	0.000730	7.297178	1.236175	0.000146
 474	4.7063e+01	9.4210	75.569125	0.000426	4.256687	0.721102	0.000085
 475	4.7163e+01	9.4409	75.674091	0.000527	5.270184	0.892793	0.000105
 476	4.7263e+01	9.4601	75.734648	0.000304	3.040491	0.515073	0.000061
 477	4.7362e+01	9.4801	75.787131	0.000264	2.635092	0.446397	0.000053
 478	4.7462e+01	9.5002	75.960727	0.000872	8.716074	1.476543	0.000174
 479	4.7561e+01	9.5193	76.049544	0.000446	4.459387	0.755441	0.000089
 480	4.7660e+01	9.5404	76.126250	0.000385	3.851289	0.652426	0.000077
 481	4.7760e+01	9.5605	76.198918	0.000365	3.648589	0.618088	0.000073
 482	4.7859e+01	9.5802	76.311958	0.000568	5.675583	0.961470	0.000114
 483	4.7959e+01	9.5985	76.441147	0.000649	6.486381	1.098823	0.000130
 484	4.8059e+01	9.6198	76.477481	0.000182	1.824295	0.309044	0.000037
 485	4.8158e+01	9.6388	76.598595	0.000608	6.080982	1.030146	0.000122
 486	4.8258e+01	9.6578	76.719709	0.000608	6.080982	1.030146	0.000122
 487	4.8357e+01	9.6799	76.800452	0.000405	4.053988	0.686764	0.000081
 488	4.8456e+01	9.6985	76.889269	0.000446	4.459387	0.755441	0.000089
 489	4.8556e+01	9.7196	77.010383	0.000608	6.080982	1.030146	0.000122
 490	4.8656e+01	9.7382	77.046717	0.000182	1.824295	0.309044	0.000037
 491	4.8755e+01	9.7586	77.155720	0.000547	5.472884	0.927132	0.000110
 492	4.8855e+01	9.7779	77.297019	0.000709	7.094479	1.201837	0.000142
 493	4.8954e+01	9.7986	77.361614	0.000324	3.243190	0.549411	0.000065
 494	4.9053e+01	9.8186	77.478691	0.000588	5.878282	0.995808	0.000118
 495	4.9153e+01	9.8392	77.567508	0.000446	4.459387	0.755441	0.000089
 496	4.9252e+01	9.8584	77.672473	0.000527	5.270184	0.892793	0.000105
 497	4.9352e+01	9.8795	77.733030	0.000304	3.040491	0.515073	0.000061
 498	4.9452e+01	9.8981	77.842033	0.000547	5.472884	0.927132	0.000110
 499	4.9551e+01	9.9178	77.918738	0.000385	3.851289	0.652426	0.000077
 500	4.9651e+01	9.9372	78.039852	0.000608	6.080982	1.030146	0.000122
 501	4.9750e+01	9.9573	78.124632	0.000426	4.256687	0.721102	0.000085
 502	4.9849e+01	9.9768	78.241709	0.000588	5.878282	0.995808	0.000118
 503	4.9949e+01	9.9976	78.342638	0.000507	5.067485	0.858455	0.000101
 504	5.0048e+01	9.9780	78.274006	0.000345	3.445890	0.583750	-0.000069
 505	5.0148e+01	9.9585	78.229598	0.000223	2.229693	0.377720	-0.000045
 506	5.0248e+01	9.9378	78.189226	0.000203	2.026994	0.343382	-0.000041
 507	5.0347e+01	9.9177	78.100409	0.000446	4.459387	0.755441	-0.000089
 508	5.0447e+01	9.8984	78.072149	0.000142	1.418896	0.240367	-0.000028
 509	5.0546e+01	9.8785	77.979295	0.000466	4.662086	0.789779	-0.000093
 510	5.0645e+01	9.8590	77.882404	0.000486	4.864786	0.824117	-0.000097
 511	5.0745e+01	9.8389	77.846070	0.000182	1.824295	0.309044	-0.000037
 512	5.0844e+01	9.8175	77.757253	0.000446	4.459387	0.755441	-0.000089
 513	5.0944e+01	9.7992	77.708807	0.000243	2.432393	0.412058	-0.000049
 514	5.1044e+01	9.7781	77.624027	0.000426	4.256687	0.721102	-0.000085
 515	5.1143e+01	9.7587	77.567508	0.000284	2.837792	0.480735	-0.000057
 516	5.1242e+01	9.7388	77.486765	0.000405	4.053988	0.686764	-0.000081
 517	5.1342e+01	9.7192	77.446393	0.000203	2.026994	0.343382	-0.000041
 518	5.1441e+01	9.6984	77.373725	0.000365	3.648589	0.618088	-0.000073
 519	5.1541e+01	9.6790	77.305094	0.000345	3.445890	0.583750	-0.000069
 520	5.1641e+01	9.6594	77.228388	0.000385	3.851289	0.652426	-0.000077
 521	5.1740e+01	9.6393	77.147645	0.000405	4.053988	0.686764	-0.000081
 522	5.1840e+01	9.6192	77.083051	0.000324	3.243190	0.549411	-0.000065
 523	5.1939e+01	9.5988	77.018457	0.000324	3.243190	0.549411	-0.000065
 524	5.2038e+01	9.5771	76.937714	0.000405	4.053988	0.686764	-0.000081
 525	5.2138e+01	9.5590	76.832749	0.000527	5.270184	0.892793	-0.000105
 526	5.2237e+01	9.5399	76.752006	0.000405	4.053988	0.686764	-0.000081
 527	5.2337e+01	9.5204	76.699523	0.000264	2.635092	0.446397	-0.000053
 528	5.2437e+01	9.5004	76.618781	0.000405	4.053988	0.686764	-0.000081
 529	5.2536e+01	9.4796	76.586484	0.000162	1.621595	0.274706	-0.000032
 530	5.2636e+01	9.4604	76.493629	0.000466	4.662086	0.789779	-0.000093
 531	5.2735e+01	9.4406	76.388664	0.000527	5.270184	0.892793	-0.000105
 532	5.2834e+01	9.4208	76.336181	0.000264	2.635092	0.446397	-0.000053
 533	5.2934e+01	9.4002	76.255438	0.000405	4.053988	0.686764	-0.000081
 534	5.3033e+01	9.3803	76.178733	0.000385	3.851289	0.652426	-0.000077
 535	5.3133e+01	9.3607	76.154510	0.000122	1.216196	0.206029	-0.000024
 536	5.3233e+01	9.3410	76.049544	0.000527	5.270184	0.892793	-0.000105
 537	5.3332e+01	9.3206	75.960727	0.000446	4.459387	0.755441	-0.000089
 538	5.3431e+01	9.3008	75.879985	0.000405	4.053988	0.686764	-0.000081
 539	5.3531e+01	9.2811	75.831539	0.000243	2.432393	0.412058	-0.000049
 540	5.3630e+01	9.2603	75.762908	0.000345	3.445890	0.583750	-0.000069
 541	5.3730e+01	9.2408	75.686202	0.000385	3.851289	0.652426	-0.000077
 542	5.3830e+01	9.2206	75.601422	0.000426	4.256687	0.721102	-0.000085
 543	5.3929e+01	9.2010	75.524717	0.000385	3.851289	0.652426	-0.000077
 544	5.4029e+01	9.1812	75.448011	0.000385	3.851289	0.652426	-0.000077
 545	5.4128e+01	9.1613	75.375343	0.000365	3.648589	0.618088	-0.000073
 546	5.4227e+01	9.1414	75.306711	0.000345	3.445890	0.583750	-0.000069
 547	5.4327e+01	9.1217	75.238080	0.000345	3.445890	0.583750	-0.000069
 548	5.4426e+01	9.1011	75.145226	0.000466	4.662086	0.789779	-0.000093
 549	5.4526e+01	9.0826	75.040261	0.000527	5.270184	0.892793	-0.000105
 550	5.4626e+01	9.0617	75.016038	0.000122	1.216196	0.206029	-0.000024
 551	5.4725e+01	9.0421	74.931258	0.000426	4.256687	0.721102	-0.000085
 552	5.4825e+01	9.0222	74.838404	0.000466	4.662086	0.789779	-0.000093
 553	5.4924e+01	9.0032	74.753624	0.000426	4.256687	0.721102	-0.000085
 554	5.5023e+01	8.9822	74.676918	0.000385	3.851289	0.652426	-0.000077
 555	5.5123e+01	8.9619	74.612324	0.000324	3.243190	0.549411	-0.000065
 556	5.5222e+01	8.9413	74.527544	0.000426	4.256687	0.721102	-0.000085
 557	5.5322e+01	8.9222	74.422579	0.000527	5.270184	0.892793	-0.000105
 558	5.5422e+01	8.9036	74.370096	0.000264	2.635092	0.446397	-0.000053
 559	5.5521e+01	8.8828	74.285316	0.000426	4.256687	0.721102	-0.000085
 560	5.5620e+01	8.8628	74.208611	0.000385	3.851289	0.652426	-0.000077
 561	5.5720e+01	8.8437	74.111719	0.000486	4.864786	0.824117	-0.000097
 562	5.5819e+01	8.8236	74.063274	0.000243	2.432393	0.412058	-0.000049
 563	5.5919e+01	8.8035	73.994642	0.000345	3.445890	0.583750	-0.000069
 564	5.6019e+01	8.7836	73.909863	0.000426	4.256687	0.721102	-0.000085
 565	5.6118e+01	8.7635	73.800860	0.000547	5.472884	0.927132	-0.000110
 566	5.6218e+01	8.7429	73.695894	0.000527	5.270184	0.892793	-0.000105
 567	5.6317e+01	8.7237	73.635337	0.000304	3.040491	0.515073	-0.000061
 568	5.6416e+01	8.7041	73.562669	0.000365	3.648589	0.618088	-0.000073
 569	5.6516e+01	8.6835	73.461740	0.000507	5.067485	0.858455	-0.000101
 570	5.6615e+01	8.6646	73.409258	0.000264	2.635092	0.446397	-0.000053
 571	5.6715e+01	8.6433	73.308329	0.000507	5.067485	0.858455	-0.000101
 572	5.6815e+01	8.6234	73.239698	0.000345	3.445890	0.583750	-0.000069
 573	5.6914e+01	8.6046	73.158955	0.000405	4.053988	0.686764	-0.000081
 574	5.7014e+01	8.5840	73.082250	0.000385	3.851289	0.652426	-0.000077
 575	5.7113e+01	8.5639	73.001507	0.000405	4.053988	0.686764	-0.000081
 576	5.7212e+01	8.5445	72.916727	0.000426	4.256687	0.721102	-0.000085
 577	5.7312e+01	8.5248	72.860207	0.000284	2.837792	0.480735	-0.000057
 578	5.7411e+01	8.5052	72.731019	0.000649	6.486381	1.098823	-0.000130
 579	5.7511e+01	8.4847	72.686610	0.000223	2.229693	0.377720	-0.000045
 580	5.7611e+01	8.4653	72.601831	0.000426	4.256687	0.721102	-0.000085
 581	5.7710e+01	8.4442	72.496865	0.000527	5.270184	0.892793	-0.000105
 582	5.7809e+01	8.4251	72.424197	0.000365	3.648589	0.618088	-0.000073
 583	5.7909e+01	8.4052	72.331342	0.000466	4.662086	0.789779	-0.000093
 584	5.8008e+01	8.3854	72.266748	0.000324	3.243190	0.549411	-0.000065
 585	5.8108e+01	8.3655	72.194080	0.000365	3.648589	0.618088	-0.000073
 586	5.8208e+01	8.3447	72.085077	0.000547	5.472884	0.927132	-0.000110
 587	5.8307e+01	8.3252	71.988186	0.000486	4.864786	0.824117	-0.000097
 588	5.8407e+01	8.3057	71.915517	0.000365	3.648589	0.618088	-0.000073
 589	5.8506e+01	8.2861	71.858998	0.000284	2.837792	0.480735	-0.000057
 590	5.8605e+01	8.2659	71.741921	0.000588	5.878282	0.995808	-0.000118
 591	5.8705e+01	8.2453	71.685401	0.000284	2.837792	0.480735	-0.000057
 592	5.8804e+01	8.2269	71.584472	0.000507	5.067485	0.858455	-0.000101
 593	5.8904e+01	8.2064	71.511804	0.000365	3.648589	0.618088	-0.000073
 594	5.9004e+01	8.1857	71.427024	0.000426	4.256687	0.721102	-0.000085
 595	5.9103e+01	8.1658	71.342244	0.000426	4.256687	0.721102	-0.000085
 596	5.9203e+01	8.1461	71.253427	0.000446	4.459387	0.755441	-0.000089
 597	5.9302e+01	8.1268	71.168647	0.000426	4.256687	0.721102	-0.000085
 598	5.9401e+01	8.1055	71.075793	0.000466	4.662086	0.789779	-0.000093
 599	5.9501e+01	8.0859	70.958716	0.000588	5.878282	0.995808	-0.000118
 600	5.9600e+01	8.0671	70.910271	0.000243	2.432393	0.412058	-0.000049
 601	5.9700e+01	8.0459	70.825491	0.000426	4.256687	0.721102	-0.000085
 602	5.9800e+01	8.0263	70.736674	0.000446	4.459387	0.755441	-0.000089
 603	5.9899e+01	8.0070	70.680154	0.000284	2.837792	0.480735	-0.000057
 604	5.9998e+01	7.9873	70.587300	0.000466	4.662086	0.789779	-0.000093
 605	6.0098e+01	7.9669	70.446000	0.000709	7.094479	1.201837	-0.000142
 606	6.0197e+01	7.9476	70.389480	0.000284	2.837792	0.480735	-0.000057
 607	6.0297e+01	7.9270	70.308737	0.000405	4.053988	0.686764	-0.000081
 608	6.0397e+01	7.9064	70.240106	0.000345	3.445890	0.583750	-0.000069
 609	6.0496e+01	7.8873	70.135141	0.000527	5.270184	0.892793	-0.000105
 610	6.0596e+01	7.8663	70.066509	0.000345	3.445890	0.583750	-0.000069
 611	6.0695e+01	7.8467	69.993841	0.000365	3.648589	0.618088	-0.000073
 612	6.0794e+01	7.8266	69.864653	0.000649	6.486381	1.098823	-0.000130
 613	6.0894e+01	7.8069	69.771798	0.000466	4.662086	0.789779	-0.000093
 614	6.0993e+01	7.7884	69.691056	0.000405	4.053988	0.686764	-0.000081
 615	6.1093e+01	7.7678	69.614350	0.000385	3.851289	0.652426	-0.000077
 616	6.1193e+01	7.7477	69.529570	0.000426	4.256687	0.721102	-0.000085
 617	6.1292e+01	7.7296	69.444790	0.000426	4.256687	0.721102	-0.000085
 618	6.1392e+01	7.7077	69.311565	0.000669	6.689080	1.133161	-0.000134
 619	6.1491e+01	7.6874	69.275231	0.000182	1.824295	0.309044	-0.000037
 620	6.1590e+01	7.6675	69.198525	0.000385	3.851289	0.652426	-0.000077
 621	6.1690e+01	7.6477	69.085485	0.000568	5.675583	0.961470	-0.000114
 622	6.1789e+01	7.6283	69.008780	0.000385	3.851289	0.652426	-0.000077
 623	6.1889e+01	7.6080	68.903814	0.000527	5.270184	0.892793	-0.000105
 624	6.1989e+01	7.5874	68.835183	0.000345	3.445890	0.583750	-0.000069
 625	6.2088e+01	7.5685	68.722143	0.000568	5.675583	0.961470	-0.000114
 626	6.2188e+01	7.5488	68.621215	0.000507	5.067485	0.858455	-0.000101
 627	6.2287e+01	7.5290	68.528361	0.000466	4.662086	0.789779	-0.000093
 628	6.2386e+01	7.5088	68.451655	0.000385	3.851289	0.652426	-0.000077
 629	6.2486e+01	7.4892	68.354764	0.000486	4.864786	0.824117	-0.000097
 630	6.2586e+01	7.4693	68.269984	0.000426	4.256687	0.721102	-0.000085
 631	6.2685e+01	7.4493	68.169056	0.000507	5.067485	0.858455	-0.000101
 632	6.2785e+01	7.4293	68.088313	0.000405	4.053988	0.686764	-0.000081
 633	6.2884e+01	7.4098	67.991422	0.000486	4.864786	0.824117	-0.000097
 634	6.2983e+01	7.3885	67.914716	0.000385	3.851289	0.652426	-0.000077
 635	6.3083e+01	7.3705	67.793602	0.000608	6.080982	1.030146	-0.000122
 636	6.3182e+01	7.3495	67.712859	0.000405	4.053988	0.686764	-0.000081
 637	6.3282e+01	7.3296	67.624042	0.000446	4.459387	0.755441	-0.000089
 638	6.3382e+01	7.3090	67.523114	0.000507	5.067485	0.858455	-0.000101
 639	6.3481e+01	7.2890	67.434297	0.000446	4.459387	0.755441	-0.000089
 640	6.3581e+01	7.2685	67.349517	0.000426	4.256687	0.721102	-0.000085
 641	6.3680e+01	7.2500	67.256663	0.000466	4.662086	0.789779	-0.000093
 642	6.3779e+01	7.2295	67.155734	0.000507	5.067485	0.858455	-0.000101
 643	6.3879e+01	7.2102	67.083066	0.000365	3.648589	0.618088	-0.000073
 644	6.3978e+01	7.1899	66.994249	0.000446	4.459387	0.755441	-0.000089
 645	6.4078e+01	7.1703	66.897358	0.000486	4.864786	0.824117	-0.000097
 646	6.4177e+01	7.1503	66.792392	0.000527	5.270184	0.892793	-0.000105
 647	6.4277e+01	7.1305	66.727798	0.000324	3.243190	0.549411	-0.000065
 648	6.4376e+01	7.1107	66.610721	0.000588	5.878282	0.995808	-0.000118
 649	6.4476e+01	7.0907	66.497681	0.000568	5.675583	0.961470	-0.000114
 650	6.4576e+01	7.0704	66.420976	0.000385	3.851289	0.652426	-0.000077
 651	6.4675e+01	7.0509	66.344270	0.000385	3.851289	0.652426	-0.000077
 652	6.4775e+01	7.0309	66.267565	0.000385	3.851289	0.652426	-0.000077
 653	6.4874e+01	7.0110	66.130302	0.000689	6.891779	1.167499	-0.000138
 654	6.4974e+01	6.9903	66.069745	0.000304	3.040491	0.515073	-0.000061
 655	6.5073e+01	6.9702	65.948631	0.000608	6.080982	1.030146	-0.000122
 656	6.5172e+01	6.9506	65.875962	0.000365	3.648589	0.618088	-0.000073
 657	6.5272e+01	6.9317	65.770997	0.000527	5.270184	0.892793	-0.000105
 658	6.5371e+01	6.9112	65.666031	0.000527	5.270184	0.892793	-0.000105
 659	6.5471e+01	6.8917	65.573177	0.000466	4.662086	0.789779	-0.000093
 660	6.5570e+01	6.8713	65.484360	0.000446	4.459387	0.755441	-0.000089
 661	6.5670e+01	6.8530	65.407655	0.000385	3.851289	0.652426	-0.000077
 662	6.5769e+01	6.8316	65.282503	0.000628	6.283681	1.064484	-0.000126
 663	6.5869e+01	6.8122	65.177538	0.000527	5.270184	0.892793	-0.000105
 664	6.5969e+01	6.7920	65.096795	0.000405	4.053988	0.686764	-0.000081
 665	6.6068e+01	6.7716	64.995867	0.000507	5.067485	0.858455	-0.000101
 666	6.6168e+01	6.7518	64.894938	0.000507	5.067485	0.858455	-0.000101
 667	6.6267e+01	6.7323	64.785936	0.000547	5.472884	0.927132	-0.000110
 668	6.6367e+01	6.7125	64.689044	0.000486	4.864786	0.824117	-0.000097
 669	6.6466e+01	6.6914	64.644636	0.000223	2.229693	0.377720	-0.000045
 670	6.6566e+01	6.6720	64.543708	0.000507	5.067485	0.858455	-0.000101
 671	6.6665e+01	6.6509	64.426631	0.000588	5.878282	0.995808	-0.000118
 672	6.6764e+01	6.6320	64.357999	0.000345	3.445890	0.583750	-0.000069
 673	6.6864e+01	6.6123	64.240922	0.000588	5.878282	0.995808	-0.000118
 674	6.6963e+01	6.5925	64.135957	0.000527	5.270184	0.892793	-0.000105
 675	6.7063e+01	6.5726	64.039066	0.000486	4.864786	0.824117	-0.000097
 676	6.7162e+01	6.5533	63.938137	0.000507	5.067485	0.858455	-0.000101
 677	6.7262e+01	6.5328	63.853357	0.000426	4.256687	0.721102	-0.000085
 678	6.7362e+01	6.5142	63.788763	0.000324	3.243190	0.549411	-0.000065
 679	6.7461e+01	6.4931	63.667649	0.000608	6.080982	1.030146	-0.000122
 680	6.7561e+01	6.4721	63.590944	0.000385	3.851289	0.652426	-0.000077
 681	6.7660e+01	6.4529	63.453681	0.000689	6.891779	1.167499	-0.000138
 682	6.7760e+01	6.4333	63.352753	0.000507	5.067485	0.858455	-0.000101
 683	6.7859e+01	6.4129	63.267973	0.000426	4.256687	0.721102	-0.000085
 684	6.7959e+01	6.3931	63.154933	0.000568	5.675583	0.961470	-0.000114
 685	6.8058e+01	6.3734	63.086302	0.000345	3.445890	0.583750	-0.000069
 686	6.8157e+01	6.3536	62.981336	0.000527	5.270184	0.892793	-0.000105
 687	6.8257e+01	6.3338	62.876371	0.000527	5.270184	0.892793	-0.000105
 688	6.8356e+01	6.3125	62.735071	0.000709	7.094479	1.201837	-0.000142
 689	6.8456e+01	6.2945	62.710848	0.000122	1.216196	0.206029	-0.000024
 690	6.8555e+01	6.2746	62.589734	0.000608	6.080982	1.030146	-0.000122
 691	6.8655e+01	6.2545	62.492843	0.000486	4.864786	0.824117	-0.000097
 692	6.8754e+01	6.2342	62.375766	0.000588	5.878282	0.995808	-0.000118
 693	6.8854e+01	6.2154	62.315209	0.000304	3.040491	0.515073	-0.000061
 694	6.8954e+01	6.1944	62.181983	0.000669	6.689080	1.133161	-0.000134
 695	6.9053e+01	6.1747	62.056832	0.000628	6.283681	1.064484	-0.000126
 696	6.9153e+01	6.1552	61.963978	0.000466	4.662086	0.789779	-0.000093
 697	6.9252e+01	6.1352	61.899384	0.000324	3.243190	0.549411	-0.000065
 698	6.9352e+01	6.1144	61.786344	0.000568	5.675583	0.961470	-0.000114
 699	6.9451e+01	6.0947	61.685416	0.000507	5.067485	0.858455	-0.000101
 700	6.9550e+01	6.0754	61.548153	0.000689	6.891779	1.167499	-0.000138
 701	6.9650e+01	6.0555	61.495670	0.000264	2.635092	0.446397	-0.000053
 702	6.9749e+01	6.0354	61.362445	0.000669	6.689080	1.133161	-0.000134
 703	6.9849e+01	6.0157	61.289776	0.000365	3.648589	0.618088	-0.000073
 704	6.9948e+01	5.9953	61.140402	0.000750	7.499878	1.270514	-0.000150
 705	7.0048e+01	5.9756	61.075808	0.000324	3.243190	0.549411	-0.000065
 706	7.0147e+01	5.9560	60.982954	0.000466	4.662086	0.789779	-0.000093
 707	7.0247e+01	5.9356	60.890100	0.000466	4.662086	0.789779	-0.000093
 708	7.0347e+01	5.9158	60.805320	0.000426	4.256687	0.721102	-0.000085
 709	7.0446e+01	5.8962	60.688243	0.000588	5.878282	0.995808	-0.000118
 710	7.0546e+01	5.8753	60.595389	0.000466	4.662086	0.789779	-0.000093
 711	7.0645e+01	5.8558	60.482349	0.000568	5.675583	0.961470	-0.000114
 712	7.0745e+01	5.8361	60.357198	0.000628	6.283681	1.064484	-0.000126
 713	7.0844e+01	5.8160	60.268381	0.000446	4.459387	0.755441	-0.000089
 714	7.0944e+01	5.7961	60.215898	0.000264	2.635092	0.446397	-0.000053
 715	7.1043e+01	5.7764	60.106895	0.000547	5.472884	0.927132	-0.000110
 716	7.1142e+01	5.7551	59.981744	0.000628	6.283681	1.064484	-0.000126
 717	7.1242e+01	5.7366	59.909076	0.000365	3.648589	0.618088	-0.000073
 718	7.1341e+01	5.7162	59.779887	0.000649	6.486381	1.098823	-0.000130
 719	7.1441e+01	5.6969	59.666848	0.000568	5.675583	0.961470	-0.000114
 720	7.1540e+01	5.6771	59.578031	0.000446	4.459387	0.755441	-0.000089
 721	7.1640e+01	5.6568	59.481139	0.000486	4.864786	0.824117	-0.000097
 722	7.1740e+01	5.6360	59.384248	0.000486	4.864786	0.824117	-0.000097
 723	7.1839e+01	5.6164	59.283320	0.000507	5.067485	0.858455	-0.000101
 724	7.1939e+01	5.5965	59.158169	0.000628	6.283681	1.064484	-0.000126
 725	7.2038e+01	5.5776	59.081463	0.000385	3.851289	0.652426	-0.000077
 726	7.2138e+01	5.5573	58.960349	0.000608	6.080982	1.030146	-0.000122
 727	7.2237e+01	5.5373	58.871532	0.000446	4.459387	0.755441	-0.000089
 728	7.2337e+01	5.5170	58.726195	0.000730	7.297178	1.236175	-0.000146
 729	7.2436e+01	5.4976	58.645452	0.000405	4.053988	0.686764	-0.000081
 730	7.2535e+01	5.4777	58.556635	0.000446	4.459387	0.755441	-0.000089
 731	7.2635e+01	5.4572	58.439558	0.000588	5.878282	0.995808	-0.000118
 732	7.2734e+01	5.4372	58.346704	0.000466	4.662086	0.789779	-0.000093
 733	7.2834e+01	5.4180	58.249813	0.000486	4.864786	0.824117	-0.000097
 734	7.2933e+01	5.3976	58.096402	0.000770	7.702577	1.304852	-0.000154
 735	7.3033e+01	5.3774	58.015659	0.000405	4.053988	0.686764	-0.000081
 736	7.3132e+01	5.3565	57.910694	0.000527	5.270184	0.892793	-0.000105
 737	7.3232e+01	5.3384	57.809765	0.000507	5.067485	0.858455	-0.000101
 738	7.3332e+01	5.3178	57.680577	0.000649	6.486381	1.098823	-0.000130
 739	7.3431e+01	5.2978	57.595797	0.000426	4.256687	0.721102	-0.000085
 740	7.3531e+01	5.2781	57.494869	0.000507	5.067485	0.858455	-0.000101
 741	7.3630e+01	5.2586	57.406052	0.000446	4.459387	0.755441	-0.000089
 742	7.3730e+01	5.2387	57.293012	0.000568	5.675583	0.961470	-0.000114
 743	7.3829e+01	5.2169	57.184009	0.000547	5.472884	0.927132	-0.000110
 744	7.3928e+01	5.1992	57.095192	0.000446	4.459387	0.755441	-0.000089
 745	7.4028e+01	5.1786	57.002338	0.000466	4.662086	0.789779	-0.000093
 746	7.4127e+01	5.1583	56.844890	0.000791	7.905276	1.339190	-0.000158
 747	7.4227e+01	5.1388	56.768184	0.000385	3.851289	0.652426	-0.000077
 748	7.4326e+01	5.1189	56.667256	0.000507	5.067485	0.858455	-0.000101
 749	7.4426e+01	5.0991	56.586513	0.000405	4.053988	0.686764	-0.000081
 750	7.4525e+01	5.0785	56.437139	0.000750	7.499878	1.270514	-0.000150
 751	7.4625e+01	5.0597	56.332174	0.000527	5.270184	0.892793	-0.000105
 752	7.4725e+01	5.0388	56.259505	0.000365	3.648589	0.618088	-0.000073
 753	7.4824e+01	5.0198	56.110131	0.000750	7.499878	1.270514	-0.000150
 754	7.4924e+01	4.9989	56.017277	0.000466	4.662086	0.789779	-0.000093
 755	7.5023e+01	4.9798	55.855792	0.000811	8.107976	1.373528	-0.000162
 756	7.5123e+01	4.9596	55.787160	0.000345	3.445890	0.583750	-0.000069
 757	7.5222e+01	4.9397	55.710455	0.000385	3.851289	0.652426	-0.000077
 758	7.5322e+01	4.9210	55.585303	0.000628	6.283681	1.064484	-0.000126
 759	7.5421e+01	4.8996	55.456115	0.000649	6.486381	1.098823	-0.000130
 760	7.5520e+01	4.8798	55.347112	0.000547	5.472884	0.927132	-0.000110
 761	7.5620e+01	4.8592	55.230035	0.000588	5.878282	0.995808	-0.000118
 762	7.5719e+01	4.8400	55.104884	0.000628	6.283681	1.064484	-0.000126
 763	7.5819e+01	4.8209	55.036253	0.000345	3.445890	0.583750	-0.000069
 764	7.5918e+01	4.8009	54.907065	0.000649	6.486381	1.098823	-0.000130
 765	7.6018e+01	4.7803	54.798062	0.000547	5.472884	0.927132	-0.000110
 766	7.6118e+01	4.7606	54.737505	0.000304	3.040491	0.515073	-0.000061
 767	7.6217e+01	4.7410	54.580057	0.000791	7.905276	1.339190	-0.000158
 768	7.6317e+01	4.7210	54.467017	0.000568	5.675583	0.961470	-0.000114
 769	7.6416e+01	4.7008	54.394348	0.000365	3.648589	0.618088	-0.000073
 770	7.6516e+01	4.6804	54.249011	0.000730	7.297178	1.236175	-0.000146
 771	7.6615e+01	4.6606	54.156157	0.000466	4.662086	0.789779	-0.000093
 772	7.6715e+01	4.6423	54.010820	0.000730	7.297178	1.236175	-0.000146
 773	7.6814e+01	4.6206	53.966412	0.000223	2.229693	0.377720	-0.000045
 774	7.6913e+01	4.6014	53.829149	0.000689	6.891779	1.167499	-0.000138
 775	7.7013e+01	4.5819	53.740332	0.000446	4.459387	0.755441	-0.000089
 776	7.7112e+01	4.5608	53.607107	0.000669	6.689080	1.133161	-0.000134
 777	7.7212e+01	4.5415	53.510216	0.000486	4.864786	0.824117	-0.000097
 778	7.7311e+01	4.5216	53.385064	0.000628	6.283681	1.064484	-0.000126
 779	7.7411e+01	4.5010	53.284136	0.000507	5.067485	0.858455	-0.000101
 780	7.7510e+01	4.4821	53.146873	0.000689	6.891779	1.167499	-0.000138
 781	7.7610e+01	4.4615	53.045945	0.000507	5.067485	0.858455	-0.000101
 782	7.7710e+01	4.4418	52.924831	0.000608	6.080982	1.030146	-0.000122
 783	7.7809e+01	4.4220	52.779494	0.000730	7.297178	1.236175	-0.000146
 784	7.7909e+01	4.4022	52.674529	0.000527	5.270184	0.892793	-0.000105
 785	7.8008e+01	4.3820	52.589749	0.000426	4.256687	0.721102	-0.000085
 786	7.8108e+01	4.3624	52.488820	0.000507	5.067485	0.858455	-0.000101
 787	7.8207e+01	4.3417	52.387892	0.000507	5.067485	0.858455	-0.000101
 788	7.8306e+01	4.3223	52.254666	0.000669	6.689080	1.133161	-0.000134
 789	7.8406e+01	4.3023	52.129515	0.000628	6.283681	1.064484	-0.000126
 790	7.8505e+01	4.2817	52.040698	0.000446	4.459387	0.755441	-0.000089
 791	7.8605e+01	4.2622	51.903436	0.000689	6.891779	1.167499	-0.000138
 792	7.8704e+01	4.2420	51.770210	0.000669	6.689080	1.133161	-0.000134
 793	7.8804e+01	4.2215	51.677356	0.000466	4.662086	0.789779	-0.000093
 794	7.8903e+01	4.2023	51.527982	0.000750	7.499878	1.270514	-0.000150
 795	7.9003e+01	4.1827	51.410905	0.000588	5.878282	0.995808	-0.000118
 796	7.9103e+01	4.1628	51.297865	0.000568	5.675583	0.961470	-0.000114
 797	7.9202e+01	4.1425	51.205011	0.000466	4.662086	0.789779	-0.000093
 798	7.9302e+01	4.1225	51.091971	0.000568	5.675583	0.961470	-0.000114
 799	7.9401e+01	4.1028	50.958746	0.000669	6.689080	1.133161	-0.000134
 800	7.9501e+01	4.0827	50.837632	0.000608	6.080982	1.030146	-0.000122
 801	7.9600e+01	4.0634	50.720555	0.000588	5.878282	0.995808	-0.000118
 802	7.9700e+01	4.0423	50.603478	0.000588	5.878282	0.995808	-0.000118
 803	7.9799e+01	4.0231	50.514661	0.000446	4.459387	0.755441	-0.000089
 804	7.9898e+01	4.0035	50.377398	0.000689	6.891779	1.167499	-0.000138
 805	7.9998e+01	3.9829	50.272433	0.000527	5.270184	0.892793	-0.000105
 806	8.0097e+01	3.9635	50.143244	0.000649	6.486381	1.098823	-0.000130
 807	8.0197e+01	3.9431	49.985796	0.000791	7.905276	1.339190	-0.000158
 808	8.0296e+01	3.9232	49.913128	0.000365	3.648589	0.618088	-0.000073
 809	8.0396e+01	3.9034	49.820274	0.000466	4.662086	0.789779	-0.000093
 810	8.0496e+01	3.8840	49.674937	0.000730	7.297178	1.236175	-0.000146
 811	8.0595e+01	3.8633	49.529600	0.000730	7.297178	1.236175	-0.000146
 812	8.0695e+01	3.8430	49.424634	0.000527	5.270184	0.892793	-0.000105
 813	8.0794e+01	3.8232	49.287372	0.000689	6.891779	1.167499	-0.000138
 814	8.0894e+01	3.8036	49.226815	0.000304	3.040491	0.515073	-0.000061
 815	8.0993e+01	3.7842	49.081478	0.000730	7.297178	1.236175	-0.000146
 816	8.1093e+01	3.7643	48.976512	0.000527	5.270184	0.892793	-0.000105
 817	8.1192e+01	3.7447	48.867510	0.000547	5.472884	0.927132	-0.000110
 818	8.1291e+01	3.7247	48.726210	0.000709	7.094479	1.201837	-0.000142
 819	8.1391e+01	3.7046	48.597021	0.000649	6.486381	1.098823	-0.000130
 820	8.1490e+01	3.6846	48.479945	0.000588	5.878282	0.995808	-0.000118
 821	8.1590e+01	3.6654	48.374979	0.000527	5.270184	0.892793	-0.000105
 822	8.1689e+01	3.6445	48.253865	0.000608	6.080982	1.030146	-0.000122
 823	8.1789e+01	3.6246	48.120639	0.000669	6.689080	1.133161	-0.000134
 824	8.1888e+01	3.6050	48.019711	0.000507	5.067485	0.858455	-0.000101
 825	8.1988e+01	3.5831	47.890523	0.000649	6.486381	1.098823	-0.000130
 826	8.2088e+01	3.5650	47.749223	0.000709	7.094479	1.201837	-0.000142
 827	8.2187e+01	3.5455	47.615997	0.000669	6.689080	1.133161	-0.000134
 828	8.2287e+01	3.5253	47.498921	0.000588	5.878282	0.995808	-0.000118
 829	8.2386e+01	3.5049	47.406066	0.000466	4.662086	0.789779	-0.000093
 830	8.2486e+01	3.4853	47.280915	0.000628	6.283681	1.064484	-0.000126
 831	8.2585e+01	3.4664	47.131541	0.000750	7.499878	1.270514	-0.000150
 832	8.2684e+01	3.4463	47.018501	0.000568	5.675583	0.961470	-0.000114
 833	8.2784e+01	3.4258	46.893350	0.000628	6.283681	1.064484	-0.000126
 834	8.2883e+01	3.4058	46.776273	0.000588	5.878282	0.995808	-0.000118
 835	8.2983e+01	3.3862	46.643048	0.000669	6.689080	1.133161	-0.000134
 836	8.3082e+01	3.3653	46.546156	0.000486	4.864786	0.824117	-0.000097
 837	8.3182e+01	3.3452	46.421005	0.000628	6.283681	1.064484	-0.000126
 838	8.3281e+01	3.3267	46.295854	0.000628	6.283681	1.064484	-0.000126
 839	8.3381e+01	3.3057	46.186851	0.000547	5.472884	0.927132	-0.000110
 840	8.3481e+01	3.2854	46.049589	0.000689	6.891779	1.167499	-0.000138
 841	8.3580e+01	3.2659	45.932512	0.000588	5.878282	0.995808	-0.000118
 842	8.3680e+01	3.2463	45.807361	0.000628	6.283681	1.064484	-0.000126
 843	8.3779e+01	3.2264	45.698358	0.000547	5.472884	0.927132	-0.000110
 844	8.3879e+01	3.2066	45.557058	0.000709	7.094479	1.201837	-0.000142
 845	8.3978e+01	3.1867	45.423833	0.000669	6.689080	1.133161	-0.000134
 846	8.4078e+01	3.1673	45.314830	0.000547	5.472884	0.927132	-0.000110
 847	8.4177e+01	3.1470	45.213902	0.000507	5.067485	0.858455	-0.000101
 848	8.4276e+01	3.1267	45.028193	0.000932	9.324172	1.579558	-0.000187
 849	8.4376e+01	3.1069	44.915154	0.000568	5.675583	0.961470	-0.000114
 850	8.4475e+01	3.0866	44.822300	0.000466	4.662086	0.789779	-0.000093
 851	8.4575e+01	3.0672	44.685037	0.000689	6.891779	1.167499	-0.000138
 852	8.4674e+01	3.0473	44.576034	0.000547	5.472884	0.927132	-0.000110
 853	8.4774e+01	3.0274	44.398400	0.000892	8.918773	1.510881	-0.000179
 854	8.4874e+01	3.0077	44.297472	0.000507	5.067485	0.858455	-0.000101
 855	8.4973e+01	2.9871	44.148098	0.000750	7.499878	1.270514	-0.000150
 856	8.5073e+01	2.9674	44.063318	0.000426	4.256687	0.721102	-0.000085
 857	8.5172e+01	2.9476	43.930093	0.000669	6.689080	1.133161	-0.000134
 858	8.5272e+01	2.9277	43.808978	0.000608	6.080982	1.030146	-0.000122
 859	8.5371e+01	2.9074	43.631344	0.000892	8.918773	1.510881	-0.000179
 860	8.5471e+01	2.8873	43.526379	0.000527	5.270184	0.892793	-0.000105
 861	8.5570e+01	2.8674	43.417376	0.000547	5.472884	0.927132	-0.000110
 862	8.5669e+01	2.8487	43.268002	0.000750	7.499878	1.270514	-0.000150
 863	8.5769e+01	2.8277	43.146888	0.000608	6.080982	1.030146	-0.000122
 864	8.5868e+01	2.8085	42.973291	0.000872	8.716074	1.476543	-0.000174
 865	8.5968e+01	2.7882	42.872363	0.000507	5.067485	0.858455	-0.000101
 866	8.6067e+01	2.7687	42.775472	0.000486	4.864786	0.824117	-0.000097
 867	8.6167e+01	2.7480	42.642246	0.000669	6.689080	1.133161	-0.000134
 868	8.6266e+01	2.7290	42.509021	0.000669	6.689080	1.133161	-0.000134
 869	8.6366e+01	2.7085	42.400018	0.000547	5.472884	0.927132	-0.000110
 870	8.6466e+01	2.6881	42.295053	0.000527	5.270184	0.892793	-0.000105
 871	8.6565e+01	2.6673	42.157790	0.000689	6.891779	1.167499	-0.000138
 872	8.6665e+01	2.6492	42.000342	0.000791	7.905276	1.339190	-0.000158
 873	8.6764e+01	2.6293	41.838856	0.000811	8.107976	1.373528	-0.000162
 874	8.6864e+01	2.6089	41.782336	0.000284	2.837792	0.480735	-0.000057
 875	8.6963e+01	2.5890	41.624888	0.000791	7.905276	1.339190	-0.000158
 876	8.7063e+01	2.5687	41.487625	0.000689	6.891779	1.167499	-0.000138
 877	8.7162e+01	2.5491	41.382660	0.000527	5.270184	0.892793	-0.000105
 878	8.7261e+01	2.5291	41.261546	0.000608	6.080982	1.030146	-0.000122
 879	8.7361e+01	2.5086	41.128320	0.000669	6.689080	1.133161	-0.000134
 880	8.7460e+01	2.4893	40.970872	0.000791	7.905276	1.339190	-0.000158
 881	8.7560e+01	2.4697	40.886092	0.000426	4.256687	0.721102	-0.000085
 882	8.7659e+01	2.4491	40.744792	0.000709	7.094479	1.201837	-0.000142
 883	8.7759e+01	2.4297	40.603493	0.000709	7.094479	1.201837	-0.000142
 884	8.7859e+01	2.4103	40.474304	0.000649	6.486381	1.098823	-0.000130
 885	8.7958e+01	2.3900	40.385487	0.000446	4.459387	0.755441	-0.000089
 886	8.8058e+01	2.3691	40.211891	0.000872	8.716074	1.476543	-0.000174
 887	8.8157e+01	2.3497	40.094814	0.000588	5.878282	0.995808	-0.000118
 888	8.8257e+01	2.3295	39.981774	0.000568	5.675583	0.961470	-0.000114
 889	8.8356e+01	2.3108	39.844511	0.000689	6.891779	1.167499	-0.000138
 890	8.8456e+01	2.2897	39.715323	0.000649	6.486381	1.098823	-0.000130
 891	8.8555e+01	2.2700	39.582097	0.000669	6.689080	1.133161	-0.000134
 892	8.8654e+01	2.2506	39.432723	0.000750	7.499878	1.270514	-0.000150
 893	8.8754e+01	2.2298	39.303535	0.000649	6.486381	1.098823	-0.000130
 894	8.8853e+01	2.2099	39.186458	0.000588	5.878282	0.995808	-0.000118
 895	8.8953e+01	2.1909	39.045158	0.000709	7.094479	1.201837	-0.000142
 896	8.9052e+01	2.1706	38.924044	0.000608	6.080982	1.030146	-0.000122
 897	8.9152e+01	2.1507	38.782744	0.000709	7.094479	1.201837	-0.000142
 898	8.9251e+01	2.1307	38.649519	0.000669	6.689080	1.133161	-0.000134
 899	8.9351e+01	2.1101	38.528405	0.000608	6.080982	1.030146	-0.000122
 900	8.9451e+01	2.0909	38.399217	0.000649	6.486381	1.098823	-0.000130
 901	8.9550e+01	2.0708	38.253880	0.000730	7.297178	1.236175	-0.000146
 902	8.9650e+01	2.0515	38.120654	0.000669	6.689080	1.133161	-0.000134
 903	8.9749e+01	2.0303	38.023763	0.000486	4.864786	0.824117	-0.000097
 904	8.9849e+01	2.0107	37.878426	0.000730	7.297178	1.236175	-0.000146
 905	8.9948e+01	1.9918	37.733089	0.000730	7.297178	1.236175	-0.000146
 906	9.0047e+01	1.9704	37.579678	0.000770	7.702577	1.304852	-0.000154
 907	9.0147e+01	1.9512	37.474712	0.000527	5.270184	0.892793	-0.000105
 908	9.0246e+01	1.9311	37.329376	0.000730	7.297178	1.236175	-0.000146
 909	9.0346e+01	1.9112	37.188076	0.000709	7.094479	1.201837	-0.000142
 910	9.0445e+01	1.8916	37.034665	0.000770	7.702577	1.304852	-0.000154
 911	9.0545e+01	1.8719	36.917588	0.000588	5.878282	0.995808	-0.000118
 912	9.0644e+01	1.8511	36.788399	0.000649	6.486381	1.098823	-0.000130
 913	9.0744e+01	1.8315	36.655174	0.000669	6.689080	1.133161	-0.000134
 914	9.0844e+01	1.8126	36.509837	0.000730	7.297178	1.236175	-0.000146
 915	9.0943e+01	1.7921	36.412946	0.000486	4.864786	0.824117	-0.000097
 916	9.1043e+01	1.7722	36.279720	0.000669	6.689080	1.133161	-0.000134
 917	9.1142e+01	1.7520	36.098049	0.000912	9.121473	1.545219	-0.000183
 918	9.1242e+01	1.7324	35.989047	0.000547	5.472884	0.927132	-0.000110
 919	9.1341e+01	1.7130	35.823524	0.000831	8.310675	1.407866	-0.000166
 920	9.1441e+01	1.6922	35.662039	0.000811	8.107976	1.373528	-0.000162
 921	9.1540e+01	1.6727	35.585333	0.000385	3.851289	0.652426	-0.000077
 922	9.1639e+01	1.6528	35.403662	0.000912	9.121473	1.545219	-0.000183
 923	9.1739e+01	1.6331	35.290622	0.000568	5.675583	0.961470	-0.000114
 924	9.1838e+01	1.6124	35.157397	0.000669	6.689080	1.133161	-0.000134
 925	9.1938e+01	1.5926	35.008023	0.000750	7.499878	1.270514	-0.000150
 926	9.2037e+01	1.5722	34.907094	0.000507	5.067485	0.858455	-0.000101
 927	9.2137e+01	1.5521	34.745609	0.000811	8.107976	1.373528	-0.000162
 928	9.2237e+01	1.5335	34.620458	0.000628	6.283681	1.064484	-0.000126
 929	9.2336e+01	1.5136	34.454935	0.000831	8.310675	1.407866	-0.000166
 930	9.2436e+01	1.4927	34.341895	0.000568	5.675583	0.961470	-0.000114
 931	9.2535e+01	1.4733	34.224818	0.000588	5.878282	0.995808	-0.000118
 932	9.2635e+01	1.4542	34.039110	0.000932	9.324172	1.579558	-0.000187
 933	9.2734e+01	1.4333	33.930107	0.000547	5.472884	0.927132	-0.000110
 934	9.2834e+01	1.4123	33.772659	0.000791	7.905276	1.339190	-0.000158
 935	9.2933e+01	1.3931	33.683842	0.000446	4.459387	0.755441	-0.000089
 936	9.3032e+01	1.3734	33.494097	0.000953	9.526872	1.613896	-0.000191
 937	9.3132e+01	1.3537	33.352797	0.000709	7.094479	1.201837	-0.000142
 938	9.3231e+01	1.3323	33.215534	0.000689	6.891779	1.167499	-0.000138
 939	9.3331e+01	1.3133	33.110569	0.000527	5.270184	0.892793	-0.000105
 940	9.3430e+01	1.2945	32.924861	0.000932	9.324172	1.579558	-0.000187
 941	9.3530e+01	1.2740	32.840081	0.000426	4.256687	0.721102	-0.000085
 942	9.3629e+01	1.2545	32.662447	0.000892	8.918773	1.510881	-0.000179
 943	9.3729e+01	1.2341	32.533258	0.000649	6.486381	1.098823	-0.000130
 944	9.3829e+01	1.2147	32.424256	0.000547	5.472884	0.927132	-0.000110
 945	9.3928e+01	1.1953	32.266807	0.000791	7.905276	1.339190	-0.000158
 946	9.4028e+01	1.1741	32.133582	0.000669	6.689080	1.133161	-0.000134
 947	9.4127e+01	1.1543	32.024579	0.000547	5.472884	0.927132	-0.000110
 948	9.4227e+01	1.1347	31.855020	0.000851	8.513375	1.442205	-0.000170
 949	9.4326e+01	1.1151	31.713720	0.000709	7.094479	1.201837	-0.000142
 950	9.4425e+01	1.0950	31.584531	0.000649	6.486381	1.098823	-0.000130
 951	9.4525e+01	1.0751	31.471492	0.000568	5.675583	0.961470	-0.000114
 952	9.4624e+01	1.0554	31.281746	0.000953	9.526872	1.613896	-0.000191
 953	9.4724e+01	1.0346	31.164669	0.000588	5.878282	0.995808	-0.000118
 954	9.4823e+01	1.0160	30.999147	0.000831	8.310675	1.407866	-0.000166
 955	9.4923e+01	0.9943	30.869958	0.000649	6.486381	1.098823	-0.000130
 956	9.5022e+01	0.9763	30.720584	0.000750	7.499878	1.270514	-0.000150
 957	9.5122e+01	0.9560	30.583322	0.000689	6.891779	1.167499	-0.000138
 958	9.5222e+01	0.9352	30.474319	0.000547	5.472884	0.927132	-0.000110
 959	9.5321e+01	0.9169	30.312834	0.000811	8.107976	1.373528	-0.000162
 960	9.5421e+01	0.8963	30.123088	0.000953	9.526872	1.613896	-0.000191
 961	9.5520e+01	0.8762	30.010049	0.000568	5.675583	0.961470	-0.000114
 962	9.5620e+01	0.8559	29.852600	0.000791	7.905276	1.339190	-0.000158
 963	9.5719e+01	0.8367	29.727449	0.000628	6.283681	1.064484	-0.000126
 964	9.5819e+01	0.8163	29.586149	0.000709	7.094479	1.201837	-0.000142
 965	9.5918e+01	0.7966	29.432738	0.000770	7.702577	1.304852	-0.000154
 966	9.6017e+01	0.7763	29.263178	0.000851	8.513375	1.442205	-0.000170
 967	9.6117e+01	0.7569	29.133990	0.000649	6.486381	1.098823	-0.000130
 968	9.6216e+01	0.7366	28.960393	0.000872	8.716074	1.476543	-0.000174
 969	9.6316e+01	0.7167	28.798908	0.000811	8.107976	1.373528	-0.000162
 970	9.6415e+01	0.6966	28.689905	0.000547	5.472884	0.927132	-0.000110
 971	9.6515e+01	0.6767	28.564754	0.000628	6.283681	1.064484	-0.000126
 972	9.6615e+01	0.6561	28.435566	0.000649	6.486381	1.098823	-0.000130
 973	9.6714e+01	0.6371	28.249857	0.000932	9.324172	1.579558	-0.000187
 974	9.6814e+01	0.6172	28.148929	0.000507	5.067485	0.858455	-0.000101
 975	9.6913e+01	0.5975	27.971295	0.000892	8.918773	1.510881	-0.000179
 976	9.7013e+01	0.5772	27.874404	0.000486	4.864786	0.824117	-0.000097
 977	9.7112e+01	0.5571	27.708881	0.000831	8.310675	1.407866	-0.000166
 978	9.7212e+01	0.5379	27.599878	0.000547	5.472884	0.927132	-0.000110
 979	9.7311e+01	0.5172	27.426282	0.000872	8.716074	1.476543	-0.000174
 980	9.7410e+01	0.4969	27.293056	0.000669	6.689080	1.133161	-0.000134
 981	9.7510e+01	0.4776	27.127534	0.000831	8.310675	1.407866	-0.000166
 982	9.7609e+01	0.4568	27.006420	0.000608	6.080982	1.030146	-0.000122
 983	9.7709e+01	0.4374	26.824748	0.000912	9.121473	1.545219	-0.000183
 984	9.7808e+01	0.4166	26.699597	0.000628	6.283681	1.064484	-0.000126
 985	9.7908e+01	0.3978	26.509852	0.000953	9.526872	1.613896	-0.000191
 986	9.8007e+01	0.3776	26.408923	0.000507	5.067485	0.858455	-0.000101
 987	9.8107e+01	0.3583	26.287809	0.000608	6.080982	1.030146	-0.000122
 988	9.8207e+01	0.3385	26.094027	0.000973	9.729571	1.648234	-0.000195
 989	9.8306e+01	0.3181	25.972913	0.000608	6.080982	1.030146	-0.000122
 990	9.8406e+01	0.2982	25.803353	0.000851	8.513375	1.442205	-0.000170
 991	9.8505e+01	0.2772	25.670128	0.000669	6.689080	1.133161	-0.000134
 992	9.8605e+01	0.2583	25.512679	0.000791	7.905276	1.339190	-0.000158
 993	9.8704e+01	0.2386	25.379454	0.000669	6.689080	1.133161	-0.000134
 994	9.8803e+01	0.2175	25.209894	0.000851	8.513375	1.442205	-0.000170
 995	9.8903e+01	0.1979	25.076669	0.000669	6.689080	1.133161	-0.000134
 996	9.9002e+01	0.1779	24.971703	0.000527	5.270184	0.892793	-0.000105
 997	9.9102e+01	0.1583	24.798106	0.000872	8.716074	1.476543	-0.000174
 998	9.9201e+01	0.1380	24.656807	0.000709	7.094479	1.201837	-0.000142
 999	9.9301e+01	0.1187	24.511470	0.000730	7.297178	1.236175	-0.000146
1000	9.9400e+01	0.0991	24.370170	0.000709	7.094479	1.201837	-0.000142
1001	9.9500e+01	0.0784	24.176387	0.000973	9.729571	1.648234	-0.000195
1002	9.9600e+01	0.0588	24.051236	0.000628	6.283681	1.064484	-0.000126
1003	9.9699e+01	0.0384	23.926085	0.000628	6.283681	1.064484	-0.000126
1004	9.9799e+01	0.0193	23.788822	0.000689	6.891779	1.167499	-0.000138
1005	9.9898e+01	-0.0009	23.615225	0.000872	8.716074	1.476543	-0.000174
1006	9.9998e+01	-0.0188	23.494111	0.000608	6.080982	1.030146	-0.000122
1007	1.0010e+02	-0.0389	23.352812	0.000709	7.094479	1.201837	-0.000142
1008	1.0020e+02	-0.0587	23.187289	0.000831	8.310675	1.407866	-0.000166
1009	1.0030e+02	-0.0787	23.074249	0.000568	5.675583	0.961470	-0.000114
1010	1.0040e+02	-0.0995	22.904690	0.000851	8.513375	1.442205	-0.000170
1011	1.0050e+02	-0.1186	22.767427	0.000689	6.891779	1.167499	-0.000138
1012	1.0059e+02	-0.1379	22.634202	0.000669	6.689080	1.133161	-0.000134
1013	1.0069e+02	-0.1588	22.472716	0.000811	8.107976	1.373528	-0.000162
1014	1.0079e+02	-0.1791	22.347565	0.000628	6.283681	1.064484	-0.000126
1015	1.0089e+02	-0.1989	22.186079	0.000811	8.107976	1.373528	-0.000162
1016	1.0099e+02	-0.2187	22.024594	0.000811	8.107976	1.373528	-0.000162
1017	1.0109e+02	-0.2398	21.903480	0.000608	6.080982	1.030146	-0.000122
1018	1.0119e+02	-0.2585	21.733920	0.000851	8.513375	1.442205	-0.000170
1019	1.0129e+02	-0.2782	21.588583	0.000730	7.297178	1.236175	-0.000146
1020	1.0139e+02	-0.2989	21.410949	0.000892	8.918773	1.510881	-0.000179
1021	1.0149e+02	-0.3185	21.273687	0.000689	6.891779	1.167499	-0.000138
1022	1.0159e+02	-0.3376	21.124313	0.000750	7.499878	1.270514	-0.000150
1023	1.0169e+02	-0.3582	21.007236	0.000588	5.878282	0.995808	-0.000118
1024	1.0179e+02	-0.3777	20.865936	0.000709	7.094479	1.201837	-0.000142
1025	1.0189e+02	-0.3970	20.696376	0.000851	8.513375	1.442205	-0.000170
1026	1.0199e+02	-0.4173	20.559114	0.000689	6.891779	1.167499	-0.000138
1027	1.0209e+02	-0.4379	20.397628	0.000811	8.107976	1.373528	-0.000162
1028	1.0219e+02	-0.4568	20.240180	0.000791	7.905276	1.339190	-0.000158
1029	1.0229e+02	-0.4779	20.050435	0.000953	9.526872	1.613896	-0.000191
1030	1.0239e+02	-0.4971	19.925283	0.000628	6.283681	1.064484	-0.000126
1031	1.0248e+02	-0.5174	19.767835	0.000791	7.905276	1.339190	-0.000158
1032	1.0258e+02	-0.5375	19.642684	0.000628	6.283681	1.064484	-0.000126
1033	1.0268e+02	-0.5577	19.493310	0.000750	7.499878	1.270514	-0.000150
1034	1.0278e+02	-0.5782	19.343936	0.000750	7.499878	1.270514	-0.000150
1035	1.0288e+02	-0.5966	19.194562	0.000750	7.499878	1.270514	-0.000150
1036	1.0298e+02	-0.6176	19.012891	0.000912	9.121473	1.545219	-0.000183
1037	1.0308e+02	-0.6375	18.891777	0.000608	6.080982	1.030146	-0.000122
1038	1.0318e+02	-0.6573	18.742403	0.000750	7.499878	1.270514	-0.000150
1039	1.0328e+02	-0.6770	18.580917	0.000811	8.107976	1.373528	-0.000162
1040	1.0338e+02	-0.6965	18.467877	0.000568	5.675583	0.961470	-0.000114
1041	1.0348e+02	-0.7156	18.298318	0.000851	8.513375	1.442205	-0.000170
1042	1.0358e+02	-0.7365	18.177204	0.000608	6.080982	1.030146	-0.000122
1043	1.0368e+02	-0.7545	18.011681	0.000831	8.310675	1.407866	-0.000166
1044	1.0378e+02	-0.7765	17.862307	0.000750	7.499878	1.270514	-0.000150
1045	1.0388e+02	-0.7968	17.692747	0.000851	8.513375	1.442205	-0.000170
1046	1.0398e+02	-0.8160	17.539336	0.000770	7.702577	1.304852	-0.000154
1047	1.0408e+02	-0.8355	17.402074	0.000689	6.891779	1.167499	-0.000138
1048	1.0418e+02	-0.8561	17.272885	0.000649	6.486381	1.098823	-0.000130
1049	1.0428e+02	-0.8752	17.135623	0.000689	6.891779	1.167499	-0.000138
1050	1.0438e+02	-0.8959	16.982211	0.000770	7.702577	1.304852	-0.000154
1051	1.0447e+02	-0.9152	16.828800	0.000770	7.702577	1.304852	-0.000154
1052	1.0457e+02	-0.9359	16.711723	0.000588	5.878282	0.995808	-0.000118
1053	1.0467e+02	-0.9558	16.497755	0.001074	10.743068	1.819925	-0.000215
1054	1.0477e+02	-0.9760	16.396827	0.000507	5.067485	0.858455	-0.000101
1055	1.0487e+02	-0.9956	16.203044	0.000973	9.729571	1.648234	-0.000195
1056	1.0497e+02	-1.0160	16.094042	0.000547	5.472884	0.927132	-0.000110
1057	1.0507e+02	-1.0345	15.920445	0.000872	8.716074	1.476543	-0.000174
1058	1.0517e+02	-1.0558	15.787219	0.000669	6.689080	1.133161	-0.000134
1059	1.0527e+02	-1.0754	15.637845	0.000750	7.499878	1.270514	-0.000150
1060	1.0537e+02	-1.0958	15.500583	0.000689	6.891779	1.167499	-0.000138
1061	1.0547e+02	-1.1159	15.355246	0.000730	7.297178	1.236175	-0.000146
1062	1.0557e+02	-1.1351	15.205872	0.000750	7.499878	1.270514	-0.000150
1063	1.0567e+02	-1.1551	15.048423	0.000791	7.905276	1.339190	-0.000158
1064	1.0577e+02	-1.1755	14.903087	0.000730	7.297178	1.236175	-0.000146
1065	1.0587e+02	-1.1945	14.733527	0.000851	8.513375	1.442205	-0.000170
1066	1.0597e+02	-1.2140	14.604339	0.000649	6.486381	1.098823	-0.000130
1067	1.0607e+02	-1.2350	14.442853	0.000811	8.107976	1.373528	-0.000162
1068	1.0617e+02	-1.2537	14.293479	0.000750	7.499878	1.270514	-0.000150
1069	1.0627e+02	-1.2735	14.172365	0.000608	6.080982	1.030146	-0.000122
1070	1.0637e+02	-1.2936	13.982620	0.000953	9.526872	1.613896	-0.000191
1071	1.0647e+02	-1.3136	13.829208	0.000770	7.702577	1.304852	-0.000154
1072	1.0656e+02	-1.3342	13.704057	0.000628	6.283681	1.064484	-0.000126
1073	1.0666e+02	-1.3531	13.578906	0.000628	6.283681	1.064484	-0.000126
1074	1.0676e+02	-1.3733	13.385124	0.000973	9.729571	1.648234	-0.000195
1075	1.0686e+02	-1.3934	13.239787	0.000730	7.297178	1.236175	-0.000146
1076	1.0696e+02	-1.4139	13.110598	0.000649	6.486381	1.098823	-0.000130
1077	1.0706e+02	-1.4339	12.941039	0.000851	8.513375	1.442205	-0.000170
1078	1.0716e+02	-1.4537	12.827999	0.000568	5.675583	0.961470	-0.000114
1079	1.0726e+02	-1.4729	12.662476	0.000831	8.310675	1.407866	-0.000166
1080	1.0736e+02	-1.4926	12.480805	0.000912	9.121473	1.545219	-0.000183
1081	1.0746e+02	-1.5137	12.371802	0.000547	5.472884	0.927132	-0.000110
1082	1.0756e+02	-1.5335	12.198206	0.000872	8.716074	1.476543	-0.000174
1083	1.0766e+02	-1.5540	12.044794	0.000770	7.702577	1.304852	-0.000154
1084	1.0776e+02	-1.5736	11.891383	0.000770	7.702577	1.304852	-0.000154
1085	1.0786e+02	-1.5932	11.721824	0.000851	8.513375	1.442205	-0.000170
1086	1.0796e+02	-1.6133	11.637044	0.000426	4.256687	0.721102	-0.000085
1087	1.0806e+02	-1.6321	11.455373	0.000912	9.121473	1.545219	-0.000183
1088	1.0816e+02	-1.6534	11.297924	0.000791	7.905276	1.339190	-0.000158
1089	1.0826e+02	-1.6727	11.168736	0.000649	6.486381	1.098823	-0.000130
1090	1.0836e+02	-1.6930	11.023399	0.000730	7.297178	1.236175	-0.000146
1091	1.0845e+02	-1.7128	10.837691	0.000932	9.324172	1.579558	-0.000187
1092	1.0855e+02	-1.7323	10.680243	0.000791	7.905276	1.339190	-0.000158
1093	1.0865e+02	-1.7521	10.551054	0.000649	6.486381	1.098823	-0.000130
1094	1.0875e+02	-1.7725	10.389569	0.000811	8.107976	1.373528	-0.000162
1095	1.0885e+02	-1.7921	10.260380	0.000649	6.486381	1.098823	-0.000130
1096	1.0895e+02	-1.8125	10.094858	0.000831	8.310675	1.407866	-0.000166
1097	1.0905e+02	-1.8321	9.941447	0.000770	7.702577	1.304852	-0.000154
1098	1.0915e+02	-1.8516	9.788036	0.000770	7.702577	1.304852	-0.000154
1099	1.0925e+02	-1.8719	9.638662	0.000750	7.499878	1.270514	-0.000150
1100	1.0935e+02	-1.8925	9.469102	0.000851	8.513375	1.442205	-0.000170
1101	1.0945e+02	-1.9118	9.352025	0.000588	5.878282	0.995808	-0.000118
1102	1.0955e+02	-1.9320	9.194577	0.000791	7.905276	1.339190	-0.000158
1103	1.0965e+02	-1.9501	9.057314	0.000689	6.891779	1.167499	-0.000138
1104	1.0975e+02	-1.9713	8.948311	0.000547	5.472884	0.927132	-0.000110
1105	1.0985e+02	-1.9905	8.758566	0.000953	9.526872	1.613896	-0.000191
1106	1.0995e+02	-2.0122	8.605155	0.000770	7.702577	1.304852	-0.000154
1107	1.1005e+02	-2.0309	8.467892	0.000689	6.891779	1.167499	-0.000138
1108	1.1015e+02	-2.0522	8.310444	0.000791	7.905276	1.339190	-0.000158
1109	1.1025e+02	-2.0712	8.124736	0.000932	9.324172	1.579558	-0.000187
1110	1.1035e+02	-2.0909	8.043993	0.000405	4.053988	0.686764	-0.000081
1111	1.1044e+02	-2.1104	7.846173	0.000993	9.932270	1.682572	-0.000199
1112	1.1054e+02	-2.1310	7.753319	0.000466	4.662086	0.789779	-0.000093
1113	1.1064e+02	-2.1503	7.603945	0.000750	7.499878	1.270514	-0.000150
1114	1.1074e+02	-2.1715	7.426311	0.000892	8.918773	1.510881	-0.000179
1115	1.1084e+02	-2.1915	7.248677	0.000892	8.918773	1.510881	-0.000179
1116	1.1094e+02	-2.2103	7.103340	0.000730	7.297178	1.236175	-0.000146
1117	1.1104e+02	-2.2307	6.966078	0.000689	6.891779	1.167499	-0.000138
1118	1.1114e+02	-2.2511	6.861112	0.000527	5.270184	0.892793	-0.000105
1119	1.1124e+02	-2.2695	6.671367	0.000953	9.526872	1.613896	-0.000191
1120	1.1134e+02	-2.2906	6.542178	0.000649	6.486381	1.098823	-0.000130
1121	1.1144e+02	-2.3105	6.380693	0.000811	8.107976	1.373528	-0.000162
1122	1.1154e+02	-2.3305	6.219208	0.000811	8.107976	1.373528	-0.000162
1123	1.1164e+02	-2.3511	6.081945	0.000689	6.891779	1.167499	-0.000138
1124	1.1174e+02	-2.3697	5.916422	0.000831	8.310675	1.407866	-0.000166
1125	1.1184e+02	-2.3900	5.783197	0.000669	6.689080	1.133161	-0.000134
1126	1.1194e+02	-2.4100	5.629786	0.000770	7.702577	1.304852	-0.000154
1127	1.1204e+02	-2.4301	5.440040	0.000953	9.526872	1.613896	-0.000191
1128	1.1214e+02	-2.4496	5.335075	0.000527	5.270184	0.892793	-0.000105
1129	1.1224e+02	-2.4695	5.165515	0.000851	8.513375	1.442205	-0.000170
1130	1.1234e+02	-2.4892	5.028253	0.000689	6.891779	1.167499	-0.000138
1131	1.1244e+02	-2.5095	4.858693	0.000851	8.513375	1.442205	-0.000170
1132	1.1253e+02	-2.5285	4.741616	0.000588	5.878282	0.995808	-0.000118
1133	1.1263e+02	-2.5491	4.592242	0.000750	7.499878	1.270514	-0.000150
1134	1.1273e+02	-2.5696	4.418645	0.000872	8.716074	1.476543	-0.000174
1135	1.1283e+02	-2.5888	4.285420	0.000669	6.689080	1.133161	-0.000134
1136	1.1293e+02	-2.6083	4.111823	0.000872	8.716074	1.476543	-0.000174
1137	1.1303e+02	-2.6284	3.986672	0.000628	6.283681	1.064484	-0.000126
1138	1.1313e+02	-2.6486	3.813075	0.000872	8.716074	1.476543	-0.000174
1139	1.1323e+02	-2.6696	3.663701	0.000750	7.499878	1.270514	-0.000150
1140	1.1333e+02	-2.6888	3.502215	0.000811	8.107976	1.373528	-0.000162
1141	1.1343e+02	-2.7088	3.373027	0.000649	6.486381	1.098823	-0.000130
1142	1.1353e+02	-2.7277	3.247876	0.000628	6.283681	1.064484	-0.000126
1143	1.1363e+02	-2.7477	3.098502	0.000750	7.499878	1.270514	-0.000150
1144	1.1373e+02	-2.7686	2.932979	0.000831	8.310675	1.407866	-0.000166
1145	1.1383e+02	-2.7874	2.803791	0.000649	6.486381	1.098823	-0.000130
1146	1.1393e+02	-2.8088	2.662491	0.000709	7.094479	1.201837	-0.000142
1147	1.1403e+02	-2.8286	2.501006	0.000811	8.107976	1.373528	-0.000162
1148	1.1413e+02	-2.8487	2.359706	0.000709	7.094479	1.201837	-0.000142
1149	1.1423e+02	-2.8683	2.226480	0.000669	6.689080	1.133161	-0.000134
1150	1.1433e+02	-2.8880	2.044809	0.000912	9.121473	1.545219	-0.000183
1151	1.1442e+02	-2.9074	1.903510	0.000709	7.094479	1.201837	-0.000142
1152	1.1452e+02	-2.9282	1.758173	0.000730	7.297178	1.236175	-0.000146
1153	1.1462e+02	-2.9464	1.604761	0.000770	7.702577	1.304852	-0.000154
1154	1.1472e+02	-2.9679	1.471536	0.000669	6.689080	1.133161	-0.000134
1155	1.1482e+02	-2.9871	1.334273	0.000689	6.891779	1.167499	-0.000138
1156	1.1492e+02	-3.0077	1.164714	0.000851	8.513375	1.442205	-0.000170
1157	1.1502e+02	-3.0272	0.999191	0.000831	8.310675	1.407866	-0.000166
1158	1.1512e+02	-3.0477	0.922486	0.000385	3.851289	0.652426	-0.000077
1159	1.1522e+02	-3.0674	0.720629	0.001013	10.134970	1.716910	-0.000203
1160	1.1532e+02	-3.0878	0.595478	0.000628	6.283681	1.064484	-0.000126
1161	1.1542e+02	-3.1068	0.421881	0.000872	8.716074	1.476543	-0.000174
1162	1.1552e+02	-3.1274	0.304804	0.000588	5.878282	0.995808	-0.000118
1163	1.1562e+02	-3.1473	0.115058	0.000953	9.526872	1.613896	-0.000191
1164	1.1572e+02	-3.1667	-0.026241	0.000709	7.094479	1.201837	-0.000142
1165	1.1582e+02	-3.1868	-0.179653	0.000770	7.702577	1.304852	-0.000154
1166	1.1592e+02	-3.2062	-0.329027	0.000750	7.499878	1.270514	-0.000150
1167	1.1602e+02	-3.2258	-0.429955	0.000507	5.067485	0.858455	-0.000101
1168	1.1612e+02	-3.2467	-0.587403	0.000791	7.905276	1.339190	-0.000158
1169	1.1622e+02	-3.2664	-0.756963	0.000851	8.513375	1.442205	-0.000170
1170	1.1632e+02	-3.2860	-0.882114	0.000628	6.283681	1.064484	-0.000126
1171	1.1642e+02	-3.3062	-1.027451	0.000730	7.297178	1.236175	-0.000146
1172	1.1651e+02	-3.3269	-1.184899	0.000791	7.905276	1.339190	-0.000158
1173	1.1661e+02	-3.3459	-1.297939	0.000568	5.675583	0.961470	-0.000114
1174	1.1671e+02	-3.3661	-1.447313	0.000750	7.499878	1.270514	-0.000150
1175	1.1681e+02	-3.3852	-1.624947	0.000892	8.918773	1.510881	-0.000179
1176	1.1691e+02	-3.4055	-1.774321	0.000750	7.499878	1.270514	-0.000150
1177	1.1701e+02	-3.4258	-1.899472	0.000628	6.283681	1.064484	-0.000126
1178	1.1711e+02	-3.4476	-2.081143	0.000912	9.121473	1.545219	-0.000183
1179	1.1721e+02	-3.4660	-2.178035	0.000486	4.864786	0.824117	-0.000097
1180	1.1731e+02	-3.4851	-2.339520	0.000811	8.107976	1.373528	-0.000162
1181	1.1741e+02	-3.5031	-2.509080	0.000851	8.513375	1.442205	-0.000170
1182	1.1751e+02	-3.5260	-2.658454	0.000750	7.499878	1.270514	-0.000150
1183	1.1761e+02	-3.5455	-2.771494	0.000568	5.675583	0.961470	-0.000114
1184	1.1771e+02	-3.5651	-2.916831	0.000730	7.297178	1.236175	-0.000146
1185	1.1781e+02	-3.5845	-3.122724	0.001034	10.337669	1.751249	-0.000207
1186	1.1791e+02	-3.6044	-3.231727	0.000547	5.472884	0.927132	-0.000110
1187	1.1801e+02	-3.6253	-3.377064	0.000730	7.297178	1.236175	-0.000146
1188	1.1811e+02	-3.6456	-3.522401	0.000730	7.297178	1.236175	-0.000146
1189	1.1821e+02	-3.6652	-3.659664	0.000689	6.891779	1.167499	-0.000138
1190	1.1831e+02	-3.6850	-3.837298	0.000892	8.918773	1.510881	-0.000179
1191	1.1841e+02	-3.7041	-3.958412	0.000608	6.080982	1.030146	-0.000122
1192	1.1850e+02	-3.7241	-4.111823	0.000770	7.702577	1.304852	-0.000154
1193	1.1860e+02	-3.7445	-4.293494	0.000912	9.121473	1.545219	-0.000183
1194	1.1870e+02	-3.7655	-4.382311	0.000446	4.459387	0.755441	-0.000089
1195	1.1880e+02	-3.7840	-4.572056	0.000953	9.526872	1.613896	-0.000191
1196	1.1890e+02	-3.8037	-4.705282	0.000669	6.689080	1.133161	-0.000134
1197	1.1900e+02	-3.8246	-4.838507	0.000669	6.689080	1.133161	-0.000134
1198	1.1910e+02	-3.8447	-5.016141	0.000892	8.918773	1.510881	-0.000179
1199	1.1920e+02	-3.8634	-5.121107	0.000527	5.270184	0.892793	-0.000105
1200	1.1930e+02	-3.8837	-5.278555	0.000791	7.905276	1.339190	-0.000158
1201	1.1940e+02	-3.9031	-5.415818	0.000689	6.891779	1.167499	-0.000138
1202	1.1950e+02	-3.9236	-5.577303	0.000811	8.107976	1.373528	-0.000162
1203	1.1960e+02	-3.9435	-5.714566	0.000689	6.891779	1.167499	-0.000138
1204	1.1970e+02	-3.9635	-5.867977	0.000770	7.702577	1.304852	-0.000154
1205	1.1980e+02	-3.9833	-5.976979	0.000547	5.472884	0.927132	-0.000110
1206	1.1990e+02	-4.0033	-6.146539	0.000851	8.513375	1.442205	-0.000170
1207	1.2000e+02	-4.0233	-6.263616	0.000588	5.878282	0.995808	-0.000118
1208	1.2010e+02	-4.0429	-6.429139	0.000831	8.310675	1.407866	-0.000166
1209	1.2020e+02	-4.0639	-6.562364	0.000669	6.689080	1.133161	-0.000134
1210	1.2030e+02	-4.0828	-6.691552	0.000649	6.486381	1.098823	-0.000130
1211	1.2039e+02	-4.1036	-6.832852	0.000709	7.094479	1.201837	-0.000142
1212	1.2049e+02	-4.1238	-6.998375	0.000831	8.310675	1.407866	-0.000166
1213	1.2059e+02	-4.1434	-7.163897	0.000831	8.310675	1.407866	-0.000166
1214	1.2069e+02	-4.1632	-7.305197	0.000709	7.094479	1.201837	-0.000142
1215	1.2079e+02	-4.1833	-7.462645	0.000791	7.905276	1.339190	-0.000158
1216	1.2089e+02	-4.2015	-7.591834	0.000649	6.486381	1.098823	-0.000130
1217	1.2099e+02	-4.2227	-7.716985	0.000628	6.283681	1.064484	-0.000126
1218	1.2109e+02	-4.2430	-7.858285	0.000709	7.094479	1.201837	-0.000142
1219	1.2119e+02	-4.2638	-8.019770	0.000811	8.107976	1.373528	-0.000162
1220	1.2129e+02	-4.2828	-8.116661	0.000486	4.864786	0.824117	-0.000097
1221	1.2139e+02	-4.3028	-8.278147	0.000811	8.107976	1.373528	-0.000162
1222	1.2149e+02	-4.3225	-8.455781	0.000892	8.918773	1.510881	-0.000179
1223	1.2159e+02	-4.3430	-8.637452	0.000912	9.121473	1.545219	-0.000183
1224	1.2169e+02	-4.3619	-8.734343	0.000486	4.864786	0.824117	-0.000097
1225	1.2179e+02	-4.3822	-8.875643	0.000709	7.094479	1.201837	-0.000142
1226	1.2189e+02	-4.4019	-9.008868	0.000669	6.689080	1.133161	-0.000134
1227	1.2199e+02	-4.4216	-9.162280	0.000770	7.702577	1.304852	-0.000154
1228	1.2209e+02	-4.4424	-9.327802	0.000831	8.310675	1.407866	-0.000166
1229	1.2219e+02	-4.4605	-9.477176	0.000750	7.499878	1.270514	-0.000150
1230	1.2229e+02	-4.4810	-9.565993	0.000446	4.459387	0.755441	-0.000089
1231	1.2239e+02	-4.5023	-9.731516	0.000831	8.310675	1.407866	-0.000166
1232	1.2248e+02	-4.5219	-9.917224	0.000932	9.324172	1.579558	-0.000187
1233	1.2258e+02	-4.5422	-10.038338	0.000608	6.080982	1.030146	-0.000122
1234	1.2268e+02	-4.5615	-10.224046	0.000932	9.324172	1.579558	-0.000187
1235	1.2278e+02	-4.5821	-10.337086	0.000568	5.675583	0.961470	-0.000114
1236	1.2288e+02	-4.6016	-10.502609	0.000831	8.310675	1.407866	-0.000166
1237	1.2298e+02	-4.6208	-10.615648	0.000568	5.675583	0.961470	-0.000114
1238	1.2308e+02	-4.6410	-10.785208	0.000851	8.513375	1.442205	-0.000170
1239	1.2318e+02	-4.6609	-10.934582	0.000750	7.499878	1.270514	-0.000150
1240	1.2328e+02	-4.6812	-11.027436	0.000466	4.662086	0.789779	-0.000093
1241	1.2338e+02	-4.7005	-11.249479	0.001115	11.148467	1.888601	-0.000223
1242	1.2348e+02	-4.7215	-11.330221	0.000405	4.053988	0.686764	-0.000081
1243	1.2358e+02	-4.7406	-11.511893	0.000912	9.121473	1.545219	-0.000183
1244	1.2368e+02	-4.7604	-11.685489	0.000872	8.716074	1.476543	-0.000174
1245	1.2378e+02	-4.7809	-11.818715	0.000669	6.689080	1.133161	-0.000134
1246	1.2388e+02	-4.8004	-11.947903	0.000649	6.486381	1.098823	-0.000130
1247	1.2398e+02	-4.8198	-12.101314	0.000770	7.702577	1.304852	-0.000154
1248	1.2408e+02	-4.8405	-12.210317	0.000547	5.472884	0.927132	-0.000110
1249	1.2418e+02	-4.8607	-12.396025	0.000932	9.324172	1.579558	-0.000187
1250	1.2428e+02	-4.8790	-12.513102	0.000588	5.878282	0.995808	-0.000118
1251	1.2438e+02	-4.9007	-12.682662	0.000851	8.513375	1.442205	-0.000170
1252	1.2447e+02	-4.9203	-12.832036	0.000750	7.499878	1.270514	-0.000150
1253	1.2457e+02	-4.9400	-12.997559	0.000831	8.310675	1.407866	-0.000166
1254	1.2467e+02	-4.9602	-13.138858	0.000709	7.094479	1.201837	-0.000142
1255	1.2477e+02	-4.9799	-13.251898	0.000568	5.675583	0.961470	-0.000114
1256	1.2487e+02	-5.0008	-13.453755	0.001013	10.134970	1.716910	-0.000203
1257	1.2497e+02	-5.0201	-13.582943	0.000649	6.486381	1.098823	-0.000130
1258	1.2507e+02	-5.0395	-13.756540	0.000872	8.716074	1.476543	-0.000174
1259	1.2517e+02	-5.0587	-13.905914	0.000750	7.499878	1.270514	-0.000150
1260	1.2527e+02	-5.0784	-14.014917	0.000547	5.472884	0.927132	-0.000110
1261	1.2537e+02	-5.0994	-14.184476	0.000851	8.513375	1.442205	-0.000170
1262	1.2547e+02	-5.1192	-14.333850	0.000750	7.499878	1.270514	-0.000150
1263	1.2557e+02	-5.1392	-14.450927	0.000588	5.878282	0.995808	-0.000118
1264	1.2567e+02	-5.1588	-14.689118	0.001196	11.959264	2.025954	-0.000239
1265	1.2577e+02	-5.1791	-14.781973	0.000466	4.662086	0.789779	-0.000093
1266	1.2587e+02	-5.1990	-14.923272	0.000709	7.094479	1.201837	-0.000142
1267	1.2597e+02	-5.2190	-15.096869	0.000872	8.716074	1.476543	-0.000174
1268	1.2607e+02	-5.2386	-15.230095	0.000669	6.689080	1.133161	-0.000134
1269	1.2617e+02	-5.2577	-15.419840	0.000953	9.526872	1.613896	-0.000191
1270	1.2627e+02	-5.2779	-15.540954	0.000608	6.080982	1.030146	-0.000122
1271	1.2636e+02	-5.2982	-15.730699	0.000953	9.526872	1.613896	-0.000191
1272	1.2646e+02	-5.3180	-15.851813	0.000608	6.080982	1.030146	-0.000122
1273	1.2656e+02	-5.3392	-15.976965	0.000628	6.283681	1.064484	-0.000126
1274	1.2666e+02	-5.3574	-16.186896	0.001054	10.540369	1.785587	-0.000211
1275	1.2676e+02	-5.3782	-16.336270	0.000750	7.499878	1.270514	-0.000150
1276	1.2686e+02	-5.3978	-16.485644	0.000750	7.499878	1.270514	-0.000150
1277	1.2696e+02	-5.4176	-16.635018	0.000750	7.499878	1.270514	-0.000150
1278	1.2706e+02	-5.4381	-16.764206	0.000649	6.486381	1.098823	-0.000130
1279	1.2716e+02	-5.4585	-16.937803	0.000872	8.716074	1.476543	-0.000174
1280	1.2726e+02	-5.4787	-17.062954	0.000628	6.283681	1.064484	-0.000126
1281	1.2736e+02	-5.4978	-17.260774	0.000993	9.932270	1.682572	-0.000199
1282	1.2746e+02	-5.5188	-17.381888	0.000608	6.080982	1.030146	-0.000122
1283	1.2756e+02	-5.5377	-17.527225	0.000730	7.297178	1.236175	-0.000146
1284	1.2766e+02	-5.5568	-17.696785	0.000851	8.513375	1.442205	-0.000170
1285	1.2776e+02	-5.5769	-17.902678	0.001034	10.337669	1.751249	-0.000207
1286	1.2786e+02	-5.5981	-18.007644	0.000527	5.270184	0.892793	-0.000105
1287	1.2796e+02	-5.6183	-18.205464	0.000993	9.932270	1.682572	-0.000199
1288	1.2806e+02	-5.6369	-18.350800	0.000730	7.297178	1.236175	-0.000146
1289	1.2816e+02	-5.6560	-18.512286	0.000811	8.107976	1.373528	-0.000162
1290	1.2826e+02	-5.6775	-18.673771	0.000811	8.107976	1.373528	-0.000162
1291	1.2835e+02	-5.6973	-18.815071	0.000709	7.094479	1.201837	-0.000142
1292	1.2845e+02	-5.7168	-18.992705	0.000892	8.918773	1.510881	-0.000179
1293	1.2855e+02	-5.7375	-19.170339	0.000892	8.918773	1.510881	-0.000179
1294	1.2865e+02	-5.7570	-19.315676	0.000730	7.297178	1.236175	-0.000146
1295	1.2875e+02	-5.7767	-19.452939	0.000689	6.891779	1.167499	-0.000138
1296	1.2885e+02	-5.7974	-19.654795	0.001013	10.134970	1.716910	-0.000203
1297	1.2895e+02	-5.8165	-19.796095	0.000709	7.094479	1.201837	-0.000142
1298	1.2905e+02	-5.8365	-19.965655	0.000851	8.513375	1.442205	-0.000170
1299	1.2915e+02	-5.8566	-20.127140	0.000811	8.107976	1.373528	-0.000162
1300	1.2925e+02	-5.8758	-20.296700	0.000851	8.513375	1.442205	-0.000170
1301	1.2935e+02	-5.8965	-20.478371	0.000912	9.121473	1.545219	-0.000183
1302	1.2945e+02	-5.9157	-20.643894	0.000831	8.310675	1.407866	-0.000166
1303	1.2955e+02	-5.9363	-20.777119	0.000669	6.689080	1.133161	-0.000134
1304	1.2965e+02	-5.9561	-20.978976	0.001013	10.134970	1.716910	-0.000203
1305	1.2975e+02	-5.9761	-21.116238	0.000689	6.891779	1.167499	-0.000138
1306	1.2985e+02	-5.9968	-21.314058	0.000993	9.932270	1.682572	-0.000199
1307	1.2995e+02	-6.0159	-21.443246	0.000649	6.486381	1.098823	-0.000130
1308	1.3005e+02	-6.0355	-21.624918	0.000912	9.121473	1.545219	-0.000183
1309	1.3015e+02	-6.0553	-21.770254	0.000730	7.297178	1.236175	-0.000146
1310	1.3025e+02	-6.0751	-21.951926	0.000912	9.121473	1.545219	-0.000183
1311	1.3034e+02	-6.0959	-22.137634	0.000932	9.324172	1.579558	-0.000187
1312	1.3044e+02	-6.1153	-22.303156	0.000831	8.310675	1.407866	-0.000166
1313	1.3054e+02	-6.1353	-22.472716	0.000851	8.513375	1.442205	-0.000170
1314	1.3064e+02	-6.1548	-22.642276	0.000851	8.513375	1.442205	-0.000170
1315	1.3074e+02	-6.1758	-22.807798	0.000831	8.310675	1.407866	-0.000166
1316	1.3084e+02	-6.1951	-22.993507	0.000932	9.324172	1.579558	-0.000187
1317	1.3094e+02	-6.2158	-23.183252	0.000953	9.526872	1.613896	-0.000191
1318	1.3104e+02	-6.2347	-23.312440	0.000649	6.486381	1.098823	-0.000130
1319	1.3114e+02	-6.2549	-23.482000	0.000851	8.513375	1.442205	-0.000170
1320	1.3124e+02	-6.2742	-23.695968	0.001074	10.743068	1.819925	-0.000215
1321	1.3134e+02	-6.2952	-23.845342	0.000750	7.499878	1.270514	-0.000150
1322	1.3144e+02	-6.3145	-23.994716	0.000750	7.499878	1.270514	-0.000150
1323	1.3154e+02	-6.3346	-24.216759	0.001115	11.148467	1.888601	-0.000223
1324	1.3164e+02	-6.3536	-24.366133	0.000750	7.499878	1.270514	-0.000150
1325	1.3174e+02	-6.3745	-24.551841	0.000932	9.324172	1.579558	-0.000187
1326	1.3184e+02	-6.3945	-24.713326	0.000811	8.107976	1.373528	-0.000162
1327	1.3194e+02	-6.4136	-24.894998	0.000912	9.121473	1.545219	-0.000183
1328	1.3204e+02	-6.4345	-25.064557	0.000851	8.513375	1.442205	-0.000170
1329	1.3214e+02	-6.4536	-25.234117	0.000851	8.513375	1.442205	-0.000170
1330	1.3224e+02	-6.4740	-25.435974	0.001013	10.134970	1.716910	-0.000203
1331	1.3234e+02	-6.4945	-25.549014	0.000568	5.675583	0.961470	-0.000114
1332	1.3243e+02	-6.5141	-25.807390	0.001297	12.972761	2.197645	-0.000260
1333	1.3253e+02	-6.5335	-25.940616	0.000669	6.689080	1.133161	-0.000134
1334	1.3263e+02	-6.5536	-26.182844	0.001216	12.161964	2.060292	-0.000243
1335	1.3273e+02	-6.5735	-26.312032	0.000649	6.486381	1.098823	-0.000130
1336	1.3283e+02	-6.5947	-26.542149	0.001155	11.553866	1.957278	-0.000231
1337	1.3293e+02	-6.6133	-26.643077	0.000507	5.067485	0.858455	-0.000101
1338	1.3303e+02	-6.6330	-26.869157	0.001135	11.351166	1.922940	-0.000227
1339	1.3313e+02	-6.6531	-27.062939	0.000973	9.729571	1.648234	-0.000195
1340	1.3323e+02	-6.6743	-27.252685	0.000953	9.526872	1.613896	-0.000191
1341	1.3333e+02	-6.6932	-27.410133	0.000791	7.905276	1.339190	-0.000158
1342	1.3343e+02	-6.7123	-27.567581	0.000791	7.905276	1.339190	-0.000158
1343	1.3353e+02	-6.7331	-27.769438	0.001013	10.134970	1.716910	-0.000203
1344	1.3363e+02	-6.7524	-27.995518	0.001135	11.351166	1.922940	-0.000227
1345	1.3373e+02	-6.7728	-28.120669	0.000628	6.283681	1.064484	-0.000126
1346	1.3383e+02	-6.7928	-28.370971	0.001257	12.567363	2.128969	-0.000252
1347	1.3393e+02	-6.8140	-28.504197	0.000669	6.689080	1.133161	-0.000134
1348	1.3403e+02	-6.8327	-28.722202	0.001095	10.945767	1.854263	-0.000219
1349	1.3413e+02	-6.8520	-28.891762	0.000851	8.513375	1.442205	-0.000170
1350	1.3423e+02	-6.8724	-29.093619	0.001013	10.134970	1.716910	-0.000203
1351	1.3432e+02	-6.8921	-29.291438	0.000993	9.932270	1.682572	-0.000199
1352	1.3442e+02	-6.9122	-29.469072	0.000892	8.918773	1.510881	-0.000179
1353	1.3452e+02	-6.9320	-29.695152	0.001135	11.351166	1.922940	-0.000227
1354	1.3462e+02	-6.9516	-29.852600	0.000791	7.905276	1.339190	-0.000158
1355	1.3472e+02	-6.9716	-30.082717	0.001155	11.553866	1.957278	-0.000231
1356	1.3482e+02	-6.9921	-30.256314	0.000872	8.716074	1.476543	-0.000174
1357	1.3492e+02	-7.0123	-30.446059	0.000953	9.526872	1.613896	-0.000191
1358	1.3502e+02	-7.0325	-30.660027	0.001074	10.743068	1.819925	-0.000215
1359	1.3512e+02	-7.0526	-30.825550	0.000831	8.310675	1.407866	-0.000166
1360	1.3522e+02	-7.0720	-31.063741	0.001196	11.959264	2.025954	-0.000239
1361	1.3532e+02	-7.0920	-31.261561	0.000993	9.932270	1.682572	-0.000199
1362	1.3542e+02	-7.1117	-31.459380	0.000993	9.932270	1.682572	-0.000199
1363	1.3552e+02	-7.1306	-31.657200	0.000993	9.932270	1.682572	-0.000199
1364	1.3562e+02	-7.1515	-31.855020	0.000993	9.932270	1.682572	-0.000199
1365	1.3572e+02	-7.1710	-32.032654	0.000892	8.918773	1.510881	-0.000179
1366	1.3582e+02	-7.1919	-32.246622	0.001074	10.743068	1.819925	-0.000215
1367	1.3592e+02	-7.2108	-32.432330	0.000932	9.324172	1.579558	-0.000187
1368	1.3602e+02	-7.2310	-32.630150	0.000993	9.932270	1.682572	-0.000199
1369	1.3612e+02	-7.2507	-32.864303	0.001176	11.756565	1.991616	-0.000235
1370	1.3622e+02	-7.2716	-33.033863	0.000851	8.513375	1.442205	-0.000170
1371	1.3631e+02	-7.2914	-33.276091	0.001216	12.161964	2.060292	-0.000243
1372	1.3641e+02	-7.3108	-33.453725	0.000892	8.918773	1.510881	-0.000179
1373	1.3651e+02	-7.3318	-33.712102	0.001297	12.972761	2.197645	-0.000260
1374	1.3661e+02	-7.3506	-33.869550	0.000791	7.905276	1.339190	-0.000158
1375	1.3671e+02	-7.3709	-34.087556	0.001095	10.945767	1.854263	-0.000219
1376	1.3681e+02	-7.3895	-34.293450	0.001034	10.337669	1.751249	-0.000207
1377	1.3691e+02	-7.4103	-34.503381	0.001054	10.540369	1.785587	-0.000211
1378	1.3701e+02	-7.4306	-34.709275	0.001034	10.337669	1.751249	-0.000207
1379	1.3711e+02	-7.4495	-34.899020	0.000953	9.526872	1.613896	-0.000191
1380	1.3721e+02	-7.4704	-35.088765	0.000953	9.526872	1.613896	-0.000191
1381	1.3731e+02	-7.4898	-35.314845	0.001135	11.351166	1.922940	-0.000227
1382	1.3741e+02	-7.5101	-35.553036	0.001196	11.959264	2.025954	-0.000239
1383	1.3751e+02	-7.5290	-35.787190	0.001176	11.756565	1.991616	-0.000235
1384	1.3761e+02	-7.5497	-35.956749	0.000851	8.513375	1.442205	-0.000170
1385	1.3771e+02	-7.5688	-36.190903	0.001176	11.756565	1.991616	-0.000235
1386	1.3781e+02	-7.5896	-36.404872	0.001074	10.743068	1.819925	-0.000215
1387	1.3791e+02	-7.6089	-36.598654	0.000973	9.729571	1.648234	-0.000195
1388	1.3801e+02	-7.6292	-36.832808	0.001176	11.756565	1.991616	-0.000235
1389	1.3811e+02	-7.6494	-37.034665	0.001013	10.134970	1.716910	-0.000203
1390	1.3821e+02	-7.6691	-37.268819	0.001176	11.756565	1.991616	-0.000235
1391	1.3831e+02	-7.6894	-37.458564	0.000953	9.526872	1.613896	-0.000191
1392	1.3840e+02	-7.7094	-37.668495	0.001054	10.540369	1.785587	-0.000211
1393	1.3850e+02	-7.7283	-37.943020	0.001378	13.783559	2.334998	-0.000276
1394	1.3860e+02	-7.7485	-38.100469	0.000791	7.905276	1.339190	-0.000158
1395	1.3870e+02	-7.7686	-38.358845	0.001297	12.972761	2.197645	-0.000260
1396	1.3880e+02	-7.7876	-38.576851	0.001095	10.945767	1.854263	-0.000219
1397	1.3890e+02	-7.8081	-38.811004	0.001176	11.756565	1.991616	-0.000235
1398	1.3900e+02	-7.8284	-39.061307	0.001257	12.567363	2.128969	-0.000252
1399	1.3910e+02	-7.8473	-39.247015	0.000932	9.324172	1.579558	-0.000187
1400	1.3920e+02	-7.8680	-39.460983	0.001074	10.743068	1.819925	-0.000215
1401	1.3930e+02	-7.8874	-39.719360	0.001297	12.972761	2.197645	-0.000260
1402	1.3940e+02	-7.9072	-39.961588	0.001216	12.161964	2.060292	-0.000243
1403	1.3950e+02	-7.9276	-40.167482	0.001034	10.337669	1.751249	-0.000207
1404	1.3960e+02	-7.9483	-40.458156	0.001459	14.594357	2.472351	-0.000292
1405	1.3970e+02	-7.9682	-40.680198	0.001115	11.148467	1.888601	-0.000223
1406	1.3980e+02	-7.9867	-40.902241	0.001115	11.148467	1.888601	-0.000223
1407	1.3990e+02	-8.0068	-41.075838	0.000872	8.716074	1.476543	-0.000174
1408	1.4000e+02	-8.0282	-41.366511	0.001459	14.594357	2.472351	-0.000292
1409	1.4010e+02	-8.0471	-41.580480	0.001074	10.743068	1.819925	-0.000215
1410	1.4020e+02	-8.0670	-41.838856	0.001297	12.972761	2.197645	-0.000260
1411	1.4029e+02	-8.0869	-42.101270	0.001318	13.175461	2.231983	-0.000264
1412	1.4039e+02	-8.1073	-42.339461	0.001196	11.959264	2.025954	-0.000239
1413	1.4049e+02	-8.1274	-42.549392	0.001054	10.540369	1.785587	-0.000211
1414	1.4059e+02	-8.1470	-42.795657	0.001236	12.364663	2.094631	-0.000248
1415	1.4069e+02	-8.1668	-43.045960	0.001257	12.567363	2.128969	-0.000252
1416	1.4079e+02	-8.1875	-43.312411	0.001338	13.378160	2.266322	-0.000268
1417	1.4089e+02	-8.2061	-43.538490	0.001135	11.351166	1.922940	-0.000227
1418	1.4099e+02	-8.2263	-43.776681	0.001196	11.959264	2.025954	-0.000239
1419	1.4109e+02	-8.2458	-44.006798	0.001155	11.553866	1.957278	-0.000231
1420	1.4119e+02	-8.2666	-44.265175	0.001297	12.972761	2.197645	-0.000260
1421	1.4129e+02	-8.2860	-44.523551	0.001297	12.972761	2.197645	-0.000260
1422	1.4139e+02	-8.3051	-44.773854	0.001257	12.567363	2.128969	-0.000252
1423	1.4149e+02	-8.3260	-45.020119	0.001236	12.364663	2.094631	-0.000248
1424	1.4159e+02	-8.3453	-45.302719	0.001419	14.188958	2.403675	-0.000284
1425	1.4169e+02	-8.3662	-45.540910	0.001196	11.959264	2.025954	-0.000239
1426	1.4179e+02	-8.3859	-45.791212	0.001257	12.567363	2.128969	-0.000252
1427	1.4189e+02	-8.4048	-46.081886	0.001459	14.594357	2.472351	-0.000292
1428	1.4199e+02	-8.4267	-46.340263	0.001297	12.972761	2.197645	-0.000260
1429	1.4209e+02	-8.4454	-46.582491	0.001216	12.161964	2.060292	-0.000243
1430	1.4219e+02	-8.4656	-46.869127	0.001439	14.391657	2.438013	-0.000288
1431	1.4228e+02	-8.4858	-47.111355	0.001216	12.161964	2.060292	-0.000243
1432	1.4238e+02	-8.5057	-47.393955	0.001419	14.188958	2.403675	-0.000284
1433	1.4248e+02	-8.5258	-47.644257	0.001257	12.567363	2.128969	-0.000252
1434	1.4258e+02	-8.5457	-47.971265	0.001642	16.418651	2.781395	-0.000329
1435	1.4268e+02	-8.5648	-48.173122	0.001013	10.134970	1.716910	-0.000203
1436	1.4278e+02	-8.5855	-48.459759	0.001439	14.391657	2.438013	-0.000288
1437	1.4288e+02	-8.6053	-48.742358	0.001419	14.188958	2.403675	-0.000284
1438	1.4298e+02	-8.6243	-49.033032	0.001459	14.594357	2.472351	-0.000292
1439	1.4308e+02	-8.6444	-49.295446	0.001318	13.175461	2.231983	-0.000264
1440	1.4318e+02	-8.6649	-49.582083	0.001439	14.391657	2.438013	-0.000288
1441	1.4328e+02	-8.6853	-49.892942	0.001561	15.607854	2.644042	-0.000312
1442	1.4338e+02	-8.7045	-50.094799	0.001013	10.134970	1.716910	-0.000203
1443	1.4348e+02	-8.7244	-50.389510	0.001480	14.797056	2.506689	-0.000296
1444	1.4358e+02	-8.7447	-50.655961	0.001338	13.378160	2.266322	-0.000268
1445	1.4368e+02	-8.7653	-50.942597	0.001439	14.391657	2.438013	-0.000288
1446	1.4378e+02	-8.7839	-51.269605	0.001642	16.418651	2.781395	-0.000329
1447	1.4388e+02	-8.8039	-51.596613	0.001642	16.418651	2.781395	-0.000329
1448	1.4398e+02	-8.8243	-51.842879	0.001236	12.364663	2.094631	-0.000248
1449	1.4408e+02	-8.8437	-52.121441	0.001399	13.986258	2.369336	-0.000280
1450	1.4418e+02	-8.8631	-52.428263	0.001541	15.405154	2.609704	-0.000308
1451	1.4428e+02	-8.8831	-52.710863	0.001419	14.188958	2.403675	-0.000284
1452	1.4437e+02	-8.9046	-52.989425	0.001399	13.986258	2.369336	-0.000280
1453	1.4447e+02	-8.9240	-53.364879	0.001885	18.851044	3.193453	-0.000377
1454	1.4457e+02	-8.9439	-53.611144	0.001236	12.364663	2.094631	-0.000248
1455	1.4467e+02	-8.9624	-53.942189	0.001662	16.621350	2.815733	-0.000333
1456	1.4477e+02	-8.9839	-54.244974	0.001520	15.202455	2.575366	-0.000304
1457	1.4487e+02	-9.0042	-54.567945	0.001622	16.215952	2.747057	-0.000325
1458	1.4497e+02	-9.0233	-54.834396	0.001338	13.378160	2.266322	-0.000268
1459	1.4507e+02	-9.0437	-55.185627	0.001763	17.634847	2.987424	-0.000353
1460	1.4517e+02	-9.0633	-55.480338	0.001480	14.797056	2.506689	-0.000296
1461	1.4527e+02	-9.0829	-55.819457	0.001703	17.026749	2.884409	-0.000341
1462	1.4537e+02	-9.1026	-56.154540	0.001682	16.824050	2.850071	-0.000337
1463	1.4547e+02	-9.1223	-56.457325	0.001520	15.202455	2.575366	-0.000304
1464	1.4557e+02	-9.1432	-56.816630	0.001804	18.040246	3.056100	-0.000361
1465	1.4567e+02	-9.1631	-57.107304	0.001459	14.594357	2.472351	-0.000292
1466	1.4577e+02	-9.1830	-57.418163	0.001561	15.607854	2.644042	-0.000312
1467	1.4587e+02	-9.2021	-57.769394	0.001763	17.634847	2.987424	-0.000353
1468	1.4597e+02	-9.2232	-58.100439	0.001662	16.621350	2.815733	-0.000333
1469	1.4607e+02	-9.2435	-58.403224	0.001520	15.202455	2.575366	-0.000304
1470	1.4617e+02	-9.2623	-58.730232	0.001642	16.418651	2.781395	-0.000329
1471	1.4626e+02	-9.2822	-59.101649	0.001865	18.648344	3.159115	-0.000373
1472	1.4636e+02	-9.3025	-59.408471	0.001541	15.405154	2.609704	-0.000308
1473	1.4646e+02	-9.3213	-59.824296	0.002088	20.878038	3.536835	-0.000418
1474	1.4656e+02	-9.3420	-60.135155	0.001561	15.607854	2.644042	-0.000312
1475	1.4666e+02	-9.3613	-60.474275	0.001703	17.026749	2.884409	-0.000341
1476	1.4676e+02	-9.3828	-60.813394	0.001703	17.026749	2.884409	-0.000341
1477	1.4686e+02	-9.4016	-61.180774	0.001845	18.445645	3.124777	-0.000369
1478	1.4696e+02	-9.4223	-61.560264	0.001905	19.053743	3.227791	-0.000381
1479	1.4706e+02	-9.4417	-61.923607	0.001824	18.242946	3.090439	-0.000365
1480	1.4716e+02	-9.4617	-62.230429	0.001541	15.405154	2.609704	-0.000308
1481	1.4726e+02	-9.4812	-62.597808	0.001845	18.445645	3.124777	-0.000369
1482	1.4736e+02	-9.5006	-62.953076	0.001784	17.837547	3.021762	-0.000357
1483	1.4746e+02	-9.5210	-63.344678	0.001966	19.661841	3.330806	-0.000394
1484	1.4756e+02	-9.5406	-63.744355	0.002007	20.067240	3.399483	-0.000402
1485	1.4766e+02	-9.5616	-64.067326	0.001622	16.215952	2.747057	-0.000325
1486	1.4776e+02	-9.5810	-64.418556	0.001763	17.634847	2.987424	-0.000353
1487	1.4786e+02	-9.6005	-64.834381	0.002088	20.878038	3.536835	-0.000418
1488	1.4796e+02	-9.6212	-65.205798	0.001865	18.648344	3.159115	-0.000373
1489	1.4806e+02	-9.6407	-65.573177	0.001845	18.445645	3.124777	-0.000369
1490	1.4816e+02	-9.6603	-65.920371	0.001743	17.432148	2.953086	-0.000349
1491	1.4825e+02	-9.6809	-66.368493	0.002250	22.499633	3.811541	-0.000450
1492	1.4835e+02	-9.7000	-66.723761	0.001784	17.837547	3.021762	-0.000357
1493	1.4845e+02	-9.7212	-67.135549	0.002068	20.675338	3.502497	-0.000414
1494	1.4855e+02	-9.7400	-67.535225	0.002007	20.067240	3.399483	-0.000402
1495	1.4865e+02	-9.7604	-67.971236	0.002189	21.891535	3.708526	-0.000438
1496	1.4875e+02	-9.7788	-68.358801	0.001946	19.459142	3.296468	-0.000390
1497	1.4885e+02	-9.7993	-68.730217	0.001865	18.648344	3.159115	-0.000373
1498	1.4895e+02	-9.8196	-69.194488	0.002331	23.310431	3.948894	-0.000467
1499	1.4905e+02	-9.8402	-69.582053	0.001946	19.459142	3.296468	-0.000390
1500	1.4915e+02	-9.8604	-70.001915	0.002108	21.080737	3.571174	-0.000422
1501	1.4925e+02	-9.8793	-70.409666	0.002047	20.472639	3.468159	-0.000410
1502	1.4935e+02	-9.9001	-70.829528	0.002108	21.080737	3.571174	-0.000422
1503	1.4945e+02	-9.9193	-71.253427	0.002128	21.283437	3.605512	-0.000426
1504	1.4955e+02	-9.9391	-71.669252	0.002088	20.878038	3.536835	-0.000418
1505	1.4965e+02	-9.9591	-72.125449	0.002291	22.905032	3.880217	-0.000458
1506	1.4975e+02	-9.9799	-72.589719	0.002331	23.310431	3.948894	-0.000467
1507	1.4985e+02	-9.9991	-72.985358	0.001986	19.864541	3.365144	-0.000398
1508	1.4995e+02	-9.9799	-73.284106	-0.001500	-14.999755	-2.541027	-0.000300
1509	1.5005e+02	-9.9591	-73.570743	-0.001439	-14.391657	-2.438013	-0.000288
1510	1.5015e+02	-9.9402	-73.764526	-0.000973	-9.729571	-1.648234	-0.000195
1511	1.5025e+02	-9.9189	-73.974457	-0.001054	-10.540369	-1.785587	-0.000211
1512	1.5034e+02	-9.8997	-74.224759	-0.001257	-12.567363	-2.128969	-0.000252
1513	1.5044e+02	-9.8794	-74.406430	-0.000912	-9.121473	-1.545219	-0.000183
1514	1.5054e+02	-9.8599	-74.652695	-0.001236	-12.364663	-2.094631	-0.000248
1515	1.5064e+02	-9.8398	-74.846478	-0.000973	-9.729571	-1.648234	-0.000195
1516	1.5074e+02	-9.8193	-74.963555	-0.000588	-5.878282	-0.995808	-0.000118
1517	1.5084e+02	-9.8003	-75.157337	-0.000973	-9.729571	-1.648234	-0.000195
1518	1.5094e+02	-9.7803	-75.363231	-0.001034	-10.337669	-1.751249	-0.000207
1519	1.5104e+02	-9.7614	-75.460123	-0.000486	-4.864786	-0.824117	-0.000097
1520	1.5114e+02	-9.7400	-75.657942	-0.000993	-9.932270	-1.682572	-0.000199
1521	1.5124e+02	-9.7203	-75.803279	-0.000730	-7.297178	-1.236175	-0.000146
1522	1.5134e+02	-9.6992	-75.932468	-0.000649	-6.486381	-1.098823	-0.000130
1523	1.5144e+02	-9.6801	-76.057619	-0.000628	-6.283681	-1.064484	-0.000126
1524	1.5154e+02	-9.6605	-76.178733	-0.000608	-6.080982	-1.030146	-0.000122
1525	1.5164e+02	-9.6408	-76.324070	-0.000730	-7.297178	-1.236175	-0.000146
1526	1.5174e+02	-9.6213	-76.412887	-0.000446	-4.459387	-0.755441	-0.000089
1527	1.5184e+02	-9.6005	-76.554186	-0.000709	-7.094479	-1.201837	-0.000142
1528	1.5194e+02	-9.5805	-76.663189	-0.000547	-5.472884	-0.927132	-0.000110
1529	1.5204e+02	-9.5618	-76.772192	-0.000547	-5.472884	-0.927132	-0.000110
1530	1.5214e+02	-9.5408	-76.861009	-0.000446	-4.459387	-0.755441	-0.000089
1531	1.5224e+02	-9.5215	-76.978086	-0.000588	-5.878282	-0.995808	-0.000118
1532	1.5233e+02	-9.5001	-77.070940	-0.000466	-4.662086	-0.789779	-0.000093
1533	1.5243e+02	-9.4814	-77.196091	-0.000628	-6.283681	-1.064484	-0.000126
1534	1.5253e+02	-9.4611	-77.248574	-0.000264	-2.635092	-0.446397	-0.000053
1535	1.5263e+02	-9.4415	-77.333354	-0.000426	-4.256687	-0.721102	-0.000085
1536	1.5273e+02	-9.4215	-77.385836	-0.000264	-2.635092	-0.446397	-0.000053
1537	1.5283e+02	-9.4019	-77.458505	-0.000365	-3.648589	-0.618088	-0.000073
1538	1.5293e+02	-9.3823	-77.523099	-0.000324	-3.243190	-0.549411	-0.000065
1539	1.5303e+02	-9.3618	-77.632102	-0.000547	-5.472884	-0.927132	-0.000110
1540	1.5313e+02	-9.3420	-77.656324	-0.000122	-1.216196	-0.206029	-0.000024
1541	1.5323e+02	-9.3224	-77.704770	-0.000243	-2.432393	-0.412058	-0.000049
1542	1.5333e+02	-9.3023	-77.777439	-0.000365	-3.648589	-0.618088	-0.000073
1543	1.5343e+02	-9.2819	-77.821847	-0.000223	-2.229693	-0.377720	-0.000045
1544	1.5353e+02	-9.2622	-77.846070	-0.000122	-1.216196	-0.206029	-0.000024
1545	1.5363e+02	-9.2426	-77.902590	-0.000284	-2.837792	-0.480735	-0.000057
1546	1.5373e+02	-9.2215	-77.967184	-0.000324	-3.243190	-0.549411	-0.000065
1547	1.5383e+02	-9.2024	-78.039852	-0.000365	-3.648589	-0.618088	-0.000073
1548	1.5393e+02	-9.1818	-78.031778	0.000041	0.405399	0.068676	0.000008
1549	1.5403e+02	-9.1626	-78.076187	-0.000223	-2.229693	-0.377720	-0.000045
1550	1.5413e+02	-9.1430	-78.108484	-0.000162	-1.621595	-0.274706	-0.000032
1551	1.5422e+02	-9.1232	-78.128669	-0.000101	-1.013497	-0.171691	-0.000020
1552	1.5432e+02	-9.1034	-78.148855	-0.000101	-1.013497	-0.171691	-0.000020
1553	1.5442e+02	-9.0835	-78.156929	-0.000041	-0.405399	-0.068676	-0.000008
1554	1.5452e+02	-9.0640	-78.269969	-0.000568	-5.675583	-0.961470	-0.000114
1555	1.5462e+02	-9.0434	-78.245746	0.000122	1.216196	0.206029	0.000024
1556	1.5472e+02	-9.0225	-78.282081	-0.000182	-1.824295	-0.309044	-0.000037
1557	1.5482e+02	-9.0030	-78.290155	-0.000041	-0.405399	-0.068676	-0.000008
1558	1.5492e+02	-8.9838	-78.290155	0.000000	0.000000	0.000000	0.000000
1559	1.5502e+02	-8.9622	-78.290155	0.000000	0.000000	0.000000	0.000000
1560	1.5512e+02	-8.9435	-78.302266	-0.000061	-0.608098	-0.103015	-0.000012
1561	1.5522e+02	-8.9237	-78.334563	-0.000162	-1.621595	-0.274706	-0.000032
1562	1.5532e+02	-8.9037	-78.326489	0.000041	0.405399	0.068676	0.000008
1563	1.5542e+02	-8.8842	-78.310340	0.000081	0.810798	0.137353	0.000016
1564	1.5552e+02	-8.8637	-78.330526	-0.000101	-1.013497	-0.171691	-0.000020
1565	1.5562e+02	-8.8444	-78.342638	-0.000061	-0.608098	-0.103015	-0.000012
1566	1.5572e+02	-8.8248	-78.326489	0.000081	0.810798	0.137353	0.000016
1567	1.5582e+02	-8.8042	-78.330526	-0.000020	-0.202699	-0.034338	-0.000004
1568	1.5592e+02	-8.7848	-78.306303	0.000122	1.216196	0.206029	0.000024
1569	1.5602e+02	-8.7646	-78.302266	0.000020	0.202699	0.034338	0.000004
1570	1.5612e+02	-8.7447	-78.310340	-0.000041	-0.405399	-0.068676	-0.000008
1571	1.5622e+02	-8.7244	-78.298229	0.000061	0.608098	0.103015	0.000012
1572	1.5631e+02	-8.7045	-78.269969	0.000142	1.418896	0.240367	0.000028
1573	1.5641e+02	-8.6855	-78.274006	-0.000020	-0.202699	-0.034338	-0.000004
1574	1.5651e+02	-8.6646	-78.233635	0.000203	2.026994	0.343382	0.000041
1575	1.5661e+02	-8.6452	-78.229598	0.000020	0.202699	0.034338	0.000004
1576	1.5671e+02	-8.6256	-78.245746	-0.000081	-0.810798	-0.137353	-0.000016
1577	1.5681e+02	-8.6046	-78.217486	0.000142	1.418896	0.240367	0.000028
1578	1.5691e+02	-8.5840	-78.185189	0.000162	1.621595	0.274706	0.000032
1579	1.5701e+02	-8.5651	-78.148855	0.000182	1.824295	0.309044	0.000037
1580	1.5711e+02	-8.5444	-78.140781	0.000041	0.405399	0.068676	0.000008
1581	1.5721e+02	-8.5250	-78.144818	-0.000020	-0.202699	-0.034338	-0.000004
1582	1.5731e+02	-8.5059	-78.108484	0.000182	1.824295	0.309044	0.000037
1583	1.5741e+02	-8.4856	-78.068112	0.000203	2.026994	0.343382	0.000041
1584	1.5751e+02	-8.4657	-78.068112	0.000000	0.000000	0.000000	0.000000
1585	1.5761e+02	-8.4457	-78.043890	0.000122	1.216196	0.206029	0.000024
1586	1.5771e+02	-8.4259	-77.987370	0.000284	2.837792	0.480735	0.000057
1587	1.5781e+02	-8.4058	-77.922775	0.000324	3.243190	0.549411	0.000065
1588	1.5791e+02	-8.3862	-77.902590	0.000101	1.013497	0.171691	0.000020
1589	1.5801e+02	-8.3662	-77.934887	-0.000162	-1.621595	-0.274706	-0.000032
1590	1.5811e+02	-8.3459	-77.878367	0.000284	2.837792	0.480735	0.000057
1591	1.5821e+02	-8.3257	-77.805699	0.000365	3.648589	0.618088	0.000073
1592	1.5830e+02	-8.3060	-77.781476	0.000122	1.216196	0.206029	0.000024
1593	1.5840e+02	-8.2872	-77.765327	0.000081	0.810798	0.137353	0.000016
1594	1.5850e+02	-8.2664	-77.716882	0.000243	2.432393	0.412058	0.000049
1595	1.5860e+02	-8.2470	-77.676510	0.000203	2.026994	0.343382	0.000041
1596	1.5870e+02	-8.2263	-77.624027	0.000264	2.635092	0.446397	0.000053
1597	1.5880e+02	-8.2063	-77.567508	0.000284	2.837792	0.480735	0.000057
1598	1.5890e+02	-8.1870	-77.551359	0.000081	0.810798	0.137353	0.000016
1599	1.5900e+02	-8.1662	-77.498876	0.000264	2.635092	0.446397	0.000053
1600	1.5910e+02	-8.1468	-77.490802	0.000041	0.405399	0.068676	0.000008
1601	1.5920e+02	-8.1270	-77.422171	0.000345	3.445890	0.583750	0.000069
1602	1.5930e+02	-8.1076	-77.341428	0.000405	4.053988	0.686764	0.000081
1603	1.5940e+02	-8.0870	-77.333354	0.000041	0.405399	0.068676	0.000008
1604	1.5950e+02	-8.0667	-77.280871	0.000264	2.635092	0.446397	0.000053
1605	1.5960e+02	-8.0471	-77.244537	0.000182	1.824295	0.309044	0.000037
1606	1.5970e+02	-8.0273	-77.183980	0.000304	3.040491	0.515073	0.000061
1607	1.5980e+02	-8.0076	-77.079014	0.000527	5.270184	0.892793	0.000105
1608	1.5990e+02	-7.9877	-77.054791	0.000122	1.216196	0.206029	0.000024
1609	1.6000e+02	-7.9674	-77.010383	0.000223	2.229693	0.377720	0.000045
1610	1.6010e+02	-7.9477	-76.949826	0.000304	3.040491	0.515073	0.000061
1611	1.6019e+02	-7.9276	-76.925603	0.000122	1.216196	0.206029	0.000024
1612	1.6029e+02	-7.9079	-76.840823	0.000426	4.256687	0.721102	0.000085
1613	1.6039e+02	-7.8870	-76.788340	0.000264	2.635092	0.446397	0.000053
1614	1.6049e+02	-7.8677	-76.756043	0.000162	1.621595	0.274706	0.000032
1615	1.6059e+02	-7.8464	-76.683375	0.000365	3.648589	0.618088	0.000073
1616	1.6069e+02	-7.8286	-76.610706	0.000365	3.648589	0.618088	0.000073
1617	1.6079e+02	-7.8079	-76.550149	0.000304	3.040491	0.515073	0.000061
1618	1.6089e+02	-7.7881	-76.501704	0.000243	2.432393	0.412058	0.000049
1619	1.6099e+02	-7.7693	-76.449221	0.000264	2.635092	0.446397	0.000053
1620	1.6109e+02	-7.7493	-76.404812	0.000223	2.229693	0.377720	0.000045
1621	1.6119e+02	-7.7292	-76.332144	0.000365	3.648589	0.618088	0.000073
1622	1.6129e+02	-7.7081	-76.291773	0.000203	2.026994	0.343382	0.000041
1623	1.6139e+02	-7.6889	-76.223141	0.000345	3.445890	0.583750	0.000069
1624	1.6149e+02	-7.6694	-76.158547	0.000324	3.243190	0.549411	0.000065
1625	1.6159e+02	-7.6486	-76.114139	0.000223	2.229693	0.377720	0.000045
1626	1.6169e+02	-7.6295	-76.037433	0.000385	3.851289	0.652426	0.000077
1627	1.6179e+02	-7.6086	-75.980913	0.000284	2.837792	0.480735	0.000057
1628	1.6189e+02	-7.5890	-75.928430	0.000264	2.635092	0.446397	0.000053
1629	1.6199e+02	-7.5699	-75.859799	0.000345	3.445890	0.583750	0.000069
1630	1.6209e+02	-7.5493	-75.770982	0.000446	4.459387	0.755441	0.000089
1631	1.6219e+02	-7.5298	-75.686202	0.000426	4.256687	0.721102	0.000085
1632	1.6228e+02	-7.5090	-75.686202	0.000000	0.000000	0.000000	0.000000
1633	1.6238e+02	-7.4899	-75.589311	0.000486	4.864786	0.824117	0.000097
1634	1.6248e+02	-7.4700	-75.512605	0.000385	3.851289	0.652426	0.000077
1635	1.6258e+02	-7.4507	-75.460123	0.000264	2.635092	0.446397	0.000053
1636	1.6268e+02	-7.4315	-75.387454	0.000365	3.648589	0.618088	0.000073
1637	1.6278e+02	-7.4106	-75.347083	0.000203	2.026994	0.343382	0.000041
1638	1.6288e+02	-7.3909	-75.278452	0.000345	3.445890	0.583750	0.000069
1639	1.6298e+02	-7.3705	-75.217895	0.000304	3.040491	0.515073	0.000061
1640	1.6308e+02	-7.3506	-75.092743	0.000628	6.283681	1.064484	0.000126
1641	1.6318e+02	-7.3308	-75.076595	0.000081	0.810798	0.137353	0.000016
1642	1.6328e+02	-7.3109	-74.991815	0.000426	4.256687	0.721102	0.000085
1643	1.6338e+02	-7.2903	-74.923184	0.000345	3.445890	0.583750	0.000069
1644	1.6348e+02	-7.2708	-74.818218	0.000527	5.270184	0.892793	0.000105
1645	1.6358e+02	-7.2507	-74.781884	0.000182	1.824295	0.309044	0.000037
1646	1.6368e+02	-7.2296	-74.721327	0.000304	3.040491	0.515073	0.000061
1647	1.6378e+02	-7.2119	-74.624436	0.000486	4.864786	0.824117	0.000097
1648	1.6388e+02	-7.1919	-74.547730	0.000385	3.851289	0.652426	0.000077
1649	1.6398e+02	-7.1713	-74.487173	0.000304	3.040491	0.515073	0.000061
1650	1.6408e+02	-7.1519	-74.446802	0.000203	2.026994	0.343382	0.000041
1651	1.6418e+02	-7.1312	-74.329725	0.000588	5.878282	0.995808	0.000118
1652	1.6427e+02	-7.1115	-74.261093	0.000345	3.445890	0.583750	0.000069
1653	1.6437e+02	-7.0919	-74.176313	0.000426	4.256687	0.721102	0.000085
1654	1.6447e+02	-7.0714	-74.135942	0.000203	2.026994	0.343382	0.000041
1655	1.6457e+02	-7.0517	-74.030977	0.000527	5.270184	0.892793	0.000105
1656	1.6467e+02	-7.0322	-73.998680	0.000162	1.621595	0.274706	0.000032
1657	1.6477e+02	-7.0119	-73.917937	0.000405	4.053988	0.686764	0.000081
1658	1.6487e+02	-6.9916	-73.829120	0.000446	4.459387	0.755441	0.000089
1659	1.6497e+02	-6.9726	-73.756451	0.000365	3.648589	0.618088	0.000073
1660	1.6507e+02	-6.9528	-73.703969	0.000264	2.635092	0.446397	0.000053
1661	1.6517e+02	-6.9320	-73.611114	0.000466	4.662086	0.789779	0.000093
1662	1.6527e+02	-6.9125	-73.526335	0.000426	4.256687	0.721102	0.000085
1663	1.6537e+02	-6.8921	-73.457703	0.000345	3.445890	0.583750	0.000069
1664	1.6547e+02	-6.8719	-73.352738	0.000527	5.270184	0.892793	0.000105
1665	1.6557e+02	-6.8518	-73.284106	0.000345	3.445890	0.583750	0.000069
1666	1.6567e+02	-6.8329	-73.199327	0.000426	4.256687	0.721102	0.000085
1667	1.6577e+02	-6.8140	-73.118584	0.000405	4.053988	0.686764	0.000081
1668	1.6587e+02	-6.7928	-73.045915	0.000365	3.648589	0.618088	0.000073
1669	1.6597e+02	-6.7728	-72.944987	0.000507	5.067485	0.858455	0.000101
1670	1.6607e+02	-6.7529	-72.880393	0.000324	3.243190	0.549411	0.000065
1671	1.6616e+02	-6.7334	-72.795613	0.000426	4.256687	0.721102	0.000085
1672	1.6626e+02	-6.7134	-72.710833	0.000426	4.256687	0.721102	0.000085
1673	1.6636e+02	-6.6925	-72.658350	0.000264	2.635092	0.446397	0.000053
1674	1.6646e+02	-6.6727	-72.533199	0.000628	6.283681	1.064484	0.000126
1675	1.6656e+02	-6.6531	-72.484754	0.000243	2.432393	0.412058	0.000049
1676	1.6666e+02	-6.6333	-72.391899	0.000466	4.662086	0.789779	0.000093
1677	1.6676e+02	-6.6132	-72.311157	0.000405	4.053988	0.686764	0.000081
1678	1.6686e+02	-6.5936	-72.222340	0.000446	4.459387	0.755441	0.000089
1679	1.6696e+02	-6.5738	-72.161783	0.000304	3.040491	0.515073	0.000061
1680	1.6706e+02	-6.5535	-72.040669	0.000608	6.080982	1.030146	0.000122
1681	1.6716e+02	-6.5337	-71.968000	0.000365	3.648589	0.618088	0.000073
1682	1.6726e+02	-6.5140	-71.883220	0.000426	4.256687	0.721102	0.000085
1683	1.6736e+02	-6.4935	-71.834775	0.000243	2.432393	0.412058	0.000049
1684	1.6746e+02	-6.4732	-71.737883	0.000486	4.864786	0.824117	0.000097
1685	1.6756e+02	-6.4549	-71.649067	0.000446	4.459387	0.755441	0.000089
1686	1.6766e+02	-6.4343	-71.540064	0.000547	5.472884	0.927132	0.000110
1687	1.6776e+02	-6.4139	-71.471433	0.000345	3.445890	0.583750	0.000069
1688	1.6786e+02	-6.3947	-71.370504	0.000507	5.067485	0.858455	0.000101
1689	1.6796e+02	-6.3750	-71.269576	0.000507	5.067485	0.858455	0.000101
1690	1.6806e+02	-6.3544	-71.233242	0.000182	1.824295	0.309044	0.000037
1691	1.6816e+02	-6.3339	-71.120202	0.000568	5.675583	0.961470	0.000114
1692	1.6825e+02	-6.3144	-71.051570	0.000345	3.445890	0.583750	0.000069
1693	1.6835e+02	-6.2946	-70.926419	0.000628	6.283681	1.064484	0.000126
1694	1.6845e+02	-6.2739	-70.882011	0.000223	2.229693	0.377720	0.000045
1695	1.6855e+02	-6.2556	-70.777045	0.000527	5.270184	0.892793	0.000105
1696	1.6865e+02	-6.2357	-70.688228	0.000446	4.459387	0.755441	0.000089
1697	1.6875e+02	-6.2152	-70.603448	0.000426	4.256687	0.721102	0.000085
1698	1.6885e+02	-6.1948	-70.546928	0.000284	2.837792	0.480735	0.000057
1699	1.6895e+02	-6.1748	-70.433889	0.000568	5.675583	0.961470	0.000114
1700	1.6905e+02	-6.1556	-70.336997	0.000486	4.864786	0.824117	0.000097
1701	1.6915e+02	-6.1349	-70.244143	0.000466	4.662086	0.789779	0.000093
1702	1.6925e+02	-6.1137	-70.171475	0.000365	3.648589	0.618088	0.000073
1703	1.6935e+02	-6.0960	-70.094769	0.000385	3.851289	0.652426	0.000077
1704	1.6945e+02	-6.0760	-69.973655	0.000608	6.080982	1.030146	0.000122
1705	1.6955e+02	-6.0553	-69.864653	0.000547	5.472884	0.927132	0.000110
1706	1.6965e+02	-6.0356	-69.820244	0.000223	2.229693	0.377720	0.000045
1707	1.6975e+02	-6.0159	-69.711241	0.000547	5.472884	0.927132	0.000110
1708	1.6985e+02	-5.9949	-69.634536	0.000385	3.851289	0.652426	0.000077
1709	1.6995e+02	-5.9749	-69.545719	0.000446	4.459387	0.755441	0.000089
1710	1.7005e+02	-5.9560	-69.460939	0.000426	4.256687	0.721102	0.000085
1711	1.7015e+02	-5.9357	-69.376159	0.000426	4.256687	0.721102	0.000085
1712	1.7024e+02	-5.9164	-69.271194	0.000527	5.270184	0.892793	0.000105
1713	1.7034e+02	-5.8960	-69.150079	0.000608	6.080982	1.030146	0.000122
1714	1.7044e+02	-5.8767	-69.069337	0.000405	4.053988	0.686764	0.000081
1715	1.7054e+02	-5.8575	-68.944186	0.000628	6.283681	1.064484	0.000126
1716	1.7064e+02	-5.8369	-68.903814	0.000203	2.026994	0.343382	0.000041
1717	1.7074e+02	-5.8167	-68.762514	0.000709	7.094479	1.201837	0.000142
1718	1.7084e+02	-5.7976	-68.657549	0.000527	5.270184	0.892793	0.000105
1719	1.7094e+02	-5.7773	-68.556621	0.000507	5.067485	0.858455	0.000101
1720	1.7104e+02	-5.7559	-68.487989	0.000345	3.445890	0.583750	0.000069
1721	1.7114e+02	-5.7365	-68.403209	0.000426	4.256687	0.721102	0.000085
1722	1.7124e+02	-5.7172	-68.322467	0.000405	4.053988	0.686764	0.000081
1723	1.7134e+02	-5.6967	-68.189241	0.000669	6.689080	1.133161	0.000134
1724	1.7144e+02	-5.6770	-68.100424	0.000446	4.459387	0.755441	0.000089
1725	1.7154e+02	-5.6570	-67.991422	0.000547	5.472884	0.927132	0.000110
1726	1.7164e+02	-5.6378	-67.850122	0.000709	7.094479	1.201837	0.000142
1727	1.7174e+02	-5.6183	-67.793602	0.000284	2.837792	0.480735	0.000057
1728	1.7184e+02	-5.5972	-67.724971	0.000345	3.445890	0.583750	0.000069
1729	1.7194e+02	-5.5769	-67.644228	0.000405	4.053988	0.686764	0.000081
1730	1.7204e+02	-5.5582	-67.527151	0.000588	5.878282	0.995808	0.000118
1731	1.7213e+02	-5.5376	-67.414111	0.000568	5.675583	0.961470	0.000114
1732	1.7223e+02	-5.5179	-67.297034	0.000588	5.878282	0.995808	0.000118
1733	1.7233e+02	-5.4975	-67.232440	0.000324	3.243190	0.549411	0.000065
1734	1.7243e+02	-5.4781	-67.091140	0.000709	7.094479	1.201837	0.000142
1735	1.7253e+02	-5.4574	-67.022509	0.000345	3.445890	0.583750	0.000069
1736	1.7263e+02	-5.4379	-66.953878	0.000345	3.445890	0.583750	0.000069
1737	1.7273e+02	-5.4190	-66.836801	0.000588	5.878282	0.995808	0.000118
1738	1.7283e+02	-5.3976	-66.703575	0.000669	6.689080	1.133161	0.000134
1739	1.7293e+02	-5.3775	-66.638981	0.000324	3.243190	0.549411	0.000065
1740	1.7303e+02	-5.3577	-66.505756	0.000669	6.689080	1.133161	0.000134
1741	1.7313e+02	-5.3381	-66.408864	0.000486	4.864786	0.824117	0.000097
1742	1.7323e+02	-5.3179	-66.344270	0.000324	3.243190	0.549411	0.000065
1743	1.7333e+02	-5.2992	-66.231230	0.000568	5.675583	0.961470	0.000114
1744	1.7343e+02	-5.2780	-66.106079	0.000628	6.283681	1.064484	0.000126
1745	1.7353e+02	-5.2585	-66.041485	0.000324	3.243190	0.549411	0.000065
1746	1.7363e+02	-5.2393	-65.900185	0.000709	7.094479	1.201837	0.000142
1747	1.7373e+02	-5.2185	-65.807331	0.000466	4.662086	0.789779	0.000093
1748	1.7383e+02	-5.1986	-65.718514	0.000446	4.459387	0.755441	0.000089
1749	1.7393e+02	-5.1796	-65.625660	0.000466	4.662086	0.789779	0.000093
1750	1.7403e+02	-5.1587	-65.508583	0.000588	5.878282	0.995808	0.000118
1751	1.7413e+02	-5.1392	-65.415729	0.000466	4.662086	0.789779	0.000093
1752	1.7422e+02	-5.1199	-65.314801	0.000507	5.067485	0.858455	0.000101
1753	1.7432e+02	-5.0997	-65.209835	0.000527	5.270184	0.892793	0.000105
1754	1.7442e+02	-5.0786	-65.129092	0.000405	4.053988	0.686764	0.000081
1755	1.7452e+02	-5.0597	-64.987793	0.000709	7.094479	1.201837	0.000142
1756	1.7462e+02	-5.0395	-64.894938	0.000466	4.662086	0.789779	0.000093
1757	1.7472e+02	-5.0195	-64.814196	0.000405	4.053988	0.686764	0.000081
1758	1.7482e+02	-5.0002	-64.701156	0.000568	5.675583	0.961470	0.000114
1759	1.7492e+02	-4.9800	-64.576005	0.000628	6.283681	1.064484	0.000126
1760	1.7502e+02	-4.9599	-64.535633	0.000203	2.026994	0.343382	0.000041
1761	1.7512e+02	-4.9406	-64.370111	0.000831	8.310675	1.407866	0.000166
1762	1.7522e+02	-4.9204	-64.281294	0.000446	4.459387	0.755441	0.000089
1763	1.7532e+02	-4.9001	-64.188440	0.000466	4.662086	0.789779	0.000093
1764	1.7542e+02	-4.8804	-64.083474	0.000527	5.270184	0.892793	0.000105
1765	1.7552e+02	-4.8604	-63.978509	0.000527	5.270184	0.892793	0.000105
1766	1.7562e+02	-4.8398	-63.845283	0.000669	6.689080	1.133161	0.000134
1767	1.7572e+02	-4.8199	-63.736280	0.000547	5.472884	0.927132	0.000110
1768	1.7582e+02	-4.8009	-63.655538	0.000405	4.053988	0.686764	0.000081
1769	1.7592e+02	-4.7809	-63.594981	0.000304	3.040491	0.515073	0.000061
1770	1.7602e+02	-4.7616	-63.445607	0.000750	7.499878	1.270514	0.000150
1771	1.7612e+02	-4.7403	-63.344678	0.000507	5.067485	0.858455	0.000101
1772	1.7621e+02	-4.7211	-63.247787	0.000486	4.864786	0.824117	0.000097
1773	1.7631e+02	-4.7009	-63.154933	0.000466	4.662086	0.789779	0.000093
1774	1.7641e+02	-4.6812	-63.013633	0.000709	7.094479	1.201837	0.000142
1775	1.7651e+02	-4.6605	-62.924816	0.000446	4.459387	0.755441	0.000089
1776	1.7661e+02	-4.6408	-62.811776	0.000568	5.675583	0.961470	0.000114
1777	1.7671e+02	-4.6214	-62.694699	0.000588	5.878282	0.995808	0.000118
1778	1.7681e+02	-4.6014	-62.597808	0.000486	4.864786	0.824117	0.000097
1779	1.7691e+02	-4.5818	-62.517065	0.000405	4.053988	0.686764	0.000081
1780	1.7701e+02	-4.5615	-62.375766	0.000709	7.094479	1.201837	0.000142
1781	1.7711e+02	-4.5412	-62.286949	0.000446	4.459387	0.755441	0.000089
1782	1.7721e+02	-4.5211	-62.157760	0.000649	6.486381	1.098823	0.000130
1783	1.7731e+02	-4.5018	-62.064906	0.000466	4.662086	0.789779	0.000093
1784	1.7741e+02	-4.4814	-61.955904	0.000547	5.472884	0.927132	0.000110
1785	1.7751e+02	-4.4617	-61.826715	0.000649	6.486381	1.098823	0.000130
1786	1.7761e+02	-4.4417	-61.733861	0.000466	4.662086	0.789779	0.000093
1787	1.7771e+02	-4.4208	-61.584487	0.000750	7.499878	1.270514	0.000150
1788	1.7781e+02	-4.4014	-61.463373	0.000608	6.080982	1.030146	0.000122
1789	1.7791e+02	-4.3822	-61.378593	0.000426	4.256687	0.721102	0.000085
1790	1.7801e+02	-4.3628	-61.265553	0.000568	5.675583	0.961470	0.000114
1791	1.7810e+02	-4.3428	-61.188848	0.000385	3.851289	0.652426	0.000077
1792	1.7820e+02	-4.3225	-61.091957	0.000486	4.864786	0.824117	0.000097
1793	1.7830e+02	-4.3012	-60.958731	0.000669	6.689080	1.133161	0.000134
1794	1.7840e+02	-4.2831	-60.857803	0.000507	5.067485	0.858455	0.000101
1795	1.7850e+02	-4.2622	-60.752837	0.000527	5.270184	0.892793	0.000105
1796	1.7860e+02	-4.2421	-60.631723	0.000608	6.080982	1.030146	0.000122
1797	1.7870e+02	-4.2223	-60.502535	0.000649	6.486381	1.098823	0.000130
1798	1.7880e+02	-4.2034	-60.437941	0.000324	3.243190	0.549411	0.000065
1799	1.7890e+02	-4.1827	-60.296641	0.000709	7.094479	1.201837	0.000142
1800	1.7900e+02	-4.1632	-60.187638	0.000547	5.472884	0.927132	0.000110
1801	1.7910e+02	-4.1429	-60.050376	0.000689	6.891779	1.167499	0.000138
1802	1.7920e+02	-4.1222	-59.965596	0.000426	4.256687	0.721102	0.000085
1803	1.7930e+02	-4.1026	-59.856593	0.000547	5.472884	0.927132	0.000110
1804	1.7940e+02	-4.0834	-59.731442	0.000628	6.283681	1.064484	0.000126
1805	1.7950e+02	-4.0631	-59.650699	0.000405	4.053988	0.686764	0.000081
1806	1.7960e+02	-4.0433	-59.513436	0.000689	6.891779	1.167499	0.000138
1807	1.7970e+02	-4.0229	-59.432694	0.000405	4.053988	0.686764	0.000081
1808	1.7980e+02	-4.0036	-59.307543	0.000628	6.283681	1.064484	0.000126
1809	1.7990e+02	-3.9829	-59.186428	0.000608	6.080982	1.030146	0.000122
1810	1.8000e+02	-3.9644	-59.085500	0.000507	5.067485	0.858455	0.000101
1811	1.8009e+02	-3.9439	-58.952275	0.000669	6.689080	1.133161	0.000134
1812	1.8019e+02	-3.9250	-58.903829	0.000243	2.432393	0.412058	0.000049
1813	1.8029e+02	-3.9029	-58.750418	0.000770	7.702577	1.304852	0.000154
1814	1.8039e+02	-3.8829	-58.613155	0.000689	6.891779	1.167499	0.000138
1815	1.8049e+02	-3.8635	-58.528375	0.000426	4.256687	0.721102	0.000085
1816	1.8059e+02	-3.8444	-58.423410	0.000527	5.270184	0.892793	0.000105
1817	1.8069e+02	-3.8247	-58.282110	0.000709	7.094479	1.201837	0.000142
1818	1.8079e+02	-3.8037	-58.173107	0.000547	5.472884	0.927132	0.000110
1819	1.8089e+02	-3.7837	-58.023733	0.000750	7.499878	1.270514	0.000150
1820	1.8099e+02	-3.7646	-57.955102	0.000345	3.445890	0.583750	0.000069
1821	1.8109e+02	-3.7451	-57.817839	0.000689	6.891779	1.167499	0.000138
1822	1.8119e+02	-3.7247	-57.720948	0.000486	4.864786	0.824117	0.000097
1823	1.8129e+02	-3.7049	-57.599834	0.000608	6.080982	1.030146	0.000122
1824	1.8139e+02	-3.6853	-57.482757	0.000588	5.878282	0.995808	0.000118
1825	1.8149e+02	-3.6658	-57.337420	0.000730	7.297178	1.236175	0.000146
1826	1.8159e+02	-3.6452	-57.228418	0.000547	5.472884	0.927132	0.000110
1827	1.8169e+02	-3.6255	-57.119415	0.000547	5.472884	0.927132	0.000110
1828	1.8179e+02	-3.6055	-57.006375	0.000568	5.675583	0.961470	0.000114
1829	1.8189e+02	-3.5854	-56.901410	0.000527	5.270184	0.892793	0.000105
1830	1.8199e+02	-3.5657	-56.792407	0.000547	5.472884	0.927132	0.000110
1831	1.8209e+02	-3.5458	-56.634959	0.000791	7.905276	1.339190	0.000158
1832	1.8218e+02	-3.5253	-56.513845	0.000608	6.080982	1.030146	0.000122
1833	1.8228e+02	-3.5057	-56.433102	0.000405	4.053988	0.686764	0.000081
1834	1.8238e+02	-3.4850	-56.324099	0.000547	5.472884	0.927132	0.000110
1835	1.8248e+02	-3.4650	-56.166651	0.000791	7.905276	1.339190	0.000158
1836	1.8258e+02	-3.4450	-56.085908	0.000405	4.053988	0.686764	0.000081
1837	1.8268e+02	-3.4250	-55.952683	0.000669	6.689080	1.133161	0.000134
1838	1.8278e+02	-3.4065	-55.791197	0.000811	8.107976	1.373528	0.000162
1839	1.8288e+02	-3.3856	-55.730640	0.000304	3.040491	0.515073	0.000061
1840	1.8298e+02	-3.3658	-55.593378	0.000689	6.891779	1.167499	0.000138
1841	1.8308e+02	-3.3452	-55.508598	0.000426	4.256687	0.721102	0.000085
1842	1.8318e+02	-3.3253	-55.375372	0.000669	6.689080	1.133161	0.000134
1843	1.8328e+02	-3.3060	-55.230035	0.000730	7.297178	1.236175	0.000146
1844	1.8338e+02	-3.2866	-55.092773	0.000689	6.891779	1.167499	0.000138
1845	1.8348e+02	-3.2660	-54.979733	0.000568	5.675583	0.961470	0.000114
1846	1.8358e+02	-3.2468	-54.874768	0.000527	5.270184	0.892793	0.000105
1847	1.8368e+02	-3.2275	-54.761728	0.000568	5.675583	0.961470	0.000114
1848	1.8378e+02	-3.2060	-54.648688	0.000568	5.675583	0.961470	0.000114
1849	1.8388e+02	-3.1873	-54.539685	0.000547	5.472884	0.927132	0.000110
1850	1.8398e+02	-3.1669	-54.382237	0.000791	7.905276	1.339190	0.000158
1851	1.8407e+02	-3.1477	-54.273234	0.000547	5.472884	0.927132	0.000110
1852	1.8417e+02	-3.1270	-54.172306	0.000507	5.067485	0.858455	0.000101
1853	1.8427e+02	-3.1073	-54.047155	0.000628	6.283681	1.064484	0.000126
1854	1.8437e+02	-3.0872	-53.926041	0.000608	6.080982	1.030146	0.000122
1855	1.8447e+02	-3.0667	-53.792815	0.000669	6.689080	1.133161	0.000134
1856	1.8457e+02	-3.0472	-53.683812	0.000547	5.472884	0.927132	0.000110
1857	1.8467e+02	-3.0260	-53.558661	0.000628	6.283681	1.064484	0.000126
1858	1.8477e+02	-3.0078	-53.425436	0.000669	6.689080	1.133161	0.000134
1859	1.8487e+02	-2.9880	-53.276062	0.000750	7.499878	1.270514	0.000150
1860	1.8497e+02	-2.9665	-53.175133	0.000507	5.067485	0.858455	0.000101
1861	1.8507e+02	-2.9477	-53.082279	0.000466	4.662086	0.789779	0.000093
1862	1.8517e+02	-2.9288	-52.949054	0.000669	6.689080	1.133161	0.000134
1863	1.8527e+02	-2.9076	-52.815828	0.000669	6.689080	1.133161	0.000134
1864	1.8537e+02	-2.8882	-52.682603	0.000669	6.689080	1.133161	0.000134
1865	1.8547e+02	-2.8683	-52.557452	0.000628	6.283681	1.064484	0.000126
1866	1.8557e+02	-2.8475	-52.420189	0.000689	6.891779	1.167499	0.000138
1867	1.8567e+02	-2.8284	-52.311186	0.000547	5.472884	0.927132	0.000110
1868	1.8577e+02	-2.8090	-52.165849	0.000730	7.297178	1.236175	0.000146
1869	1.8587e+02	-2.7887	-52.085107	0.000405	4.053988	0.686764	0.000081
1870	1.8597e+02	-2.7687	-51.951881	0.000669	6.689080	1.133161	0.000134
1871	1.8606e+02	-2.7483	-51.798470	0.000770	7.702577	1.304852	0.000154
1872	1.8616e+02	-2.7271	-51.701579	0.000486	4.864786	0.824117	0.000097
1873	1.8626e+02	-2.7087	-51.527982	0.000872	8.716074	1.476543	0.000174
1874	1.8636e+02	-2.6878	-51.447239	0.000405	4.053988	0.686764	0.000081
1875	1.8646e+02	-2.6690	-51.309977	0.000689	6.891779	1.167499	0.000138
1876	1.8656e+02	-2.6492	-51.200974	0.000547	5.472884	0.927132	0.000110
1877	1.8666e+02	-2.6297	-51.104083	0.000486	4.864786	0.824117	0.000097
1878	1.8676e+02	-2.6082	-50.930486	0.000872	8.716074	1.476543	0.000174
1879	1.8686e+02	-2.5884	-50.849743	0.000405	4.053988	0.686764	0.000081
1880	1.8696e+02	-2.5694	-50.732666	0.000588	5.878282	0.995808	0.000118
1881	1.8706e+02	-2.5484	-50.555032	0.000892	8.918773	1.510881	0.000179
1882	1.8716e+02	-2.5286	-50.421807	0.000669	6.689080	1.133161	0.000134
1883	1.8726e+02	-2.5097	-50.304730	0.000588	5.878282	0.995808	0.000118
1884	1.8736e+02	-2.4896	-50.155356	0.000750	7.499878	1.270514	0.000150
1885	1.8746e+02	-2.4697	-50.038279	0.000588	5.878282	0.995808	0.000118
1886	1.8756e+02	-2.4496	-49.892942	0.000730	7.297178	1.236175	0.000146
1887	1.8766e+02	-2.4301	-49.743568	0.000750	7.499878	1.270514	0.000150
1888	1.8776e+02	-2.4095	-49.650714	0.000466	4.662086	0.789779	0.000093
1889	1.8786e+02	-2.3904	-49.505377	0.000730	7.297178	1.236175	0.000146
1890	1.8796e+02	-2.3701	-49.380226	0.000628	6.283681	1.064484	0.000126
1891	1.8806e+02	-2.3503	-49.230852	0.000750	7.499878	1.270514	0.000150
1892	1.8815e+02	-2.3303	-49.113775	0.000588	5.878282	0.995808	0.000118
1893	1.8825e+02	-2.3105	-48.984586	0.000649	6.486381	1.098823	0.000130
1894	1.8835e+02	-2.2909	-48.867510	0.000588	5.878282	0.995808	0.000118
1895	1.8845e+02	-2.2702	-48.701987	0.000831	8.310675	1.407866	0.000166
1896	1.8855e+02	-2.2512	-48.625281	0.000385	3.851289	0.652426	0.000077
1897	1.8865e+02	-2.2295	-48.479945	0.000730	7.297178	1.236175	0.000146
1898	1.8875e+02	-2.2112	-48.358830	0.000608	6.080982	1.030146	0.000122
1899	1.8885e+02	-2.1910	-48.213494	0.000730	7.297178	1.236175	0.000146
1900	1.8895e+02	-2.1714	-48.096417	0.000588	5.878282	0.995808	0.000118
1901	1.8905e+02	-2.1515	-47.963191	0.000669	6.689080	1.133161	0.000134
1902	1.8915e+02	-2.1319	-47.821891	0.000709	7.094479	1.201837	0.000142
1903	1.8925e+02	-2.1111	-47.684629	0.000689	6.891779	1.167499	0.000138
1904	1.8935e+02	-2.0911	-47.523143	0.000811	8.107976	1.373528	0.000162
1905	1.8945e+02	-2.0705	-47.418178	0.000527	5.270184	0.892793	0.000105
1906	1.8955e+02	-2.0514	-47.272841	0.000730	7.297178	1.236175	0.000146
1907	1.8965e+02	-2.0313	-47.159801	0.000568	5.675583	0.961470	0.000114
1908	1.8975e+02	-2.0117	-47.022539	0.000689	6.891779	1.167499	0.000138
1909	1.8985e+02	-1.9923	-46.893350	0.000649	6.486381	1.098823	0.000130
1910	1.8995e+02	-1.9711	-46.760125	0.000669	6.689080	1.133161	0.000134
1911	1.9004e+02	-1.9521	-46.626899	0.000669	6.689080	1.133161	0.000134
1912	1.9014e+02	-1.9316	-46.509822	0.000588	5.878282	0.995808	0.000118
1913	1.9024e+02	-1.9110	-46.352374	0.000791	7.905276	1.339190	0.000158
1914	1.9034e+02	-1.8926	-46.239334	0.000568	5.675583	0.961470	0.000114
1915	1.9044e+02	-1.8726	-46.114183	0.000628	6.283681	1.064484	0.000126
1916	1.9054e+02	-1.8524	-45.944623	0.000851	8.513375	1.442205	0.000170
1917	1.9064e+02	-1.8320	-45.815435	0.000649	6.486381	1.098823	0.000130
1918	1.9074e+02	-1.8124	-45.698358	0.000588	5.878282	0.995808	0.000118
1919	1.9084e+02	-1.7920	-45.565133	0.000669	6.689080	1.133161	0.000134
1920	1.9094e+02	-1.7722	-45.444018	0.000608	6.080982	1.030146	0.000122
1921	1.9104e+02	-1.7515	-45.266384	0.000892	8.918773	1.510881	0.000179
1922	1.9114e+02	-1.7321	-45.213902	0.000264	2.635092	0.446397	0.000053
1923	1.9124e+02	-1.7132	-45.048379	0.000831	8.310675	1.407866	0.000166
1924	1.9134e+02	-1.6920	-44.854597	0.000973	9.729571	1.648234	0.000195
1925	1.9144e+02	-1.6726	-44.765780	0.000446	4.459387	0.755441	0.000089
1926	1.9154e+02	-1.6528	-44.632554	0.000669	6.689080	1.133161	0.000134
1927	1.9164e+02	-1.6325	-44.479143	0.000770	7.702577	1.304852	0.000154
1928	1.9174e+02	-1.6134	-44.297472	0.000912	9.121473	1.545219	0.000183
1929	1.9184e+02	-1.5932	-44.224803	0.000365	3.648589	0.618088	0.000073
1930	1.9194e+02	-1.5734	-44.079467	0.000730	7.297178	1.236175	0.000146
1931	1.9203e+02	-1.5532	-43.926055	0.000770	7.702577	1.304852	0.000154
1932	1.9213e+02	-1.5331	-43.821090	0.000527	5.270184	0.892793	0.000105
1933	1.9223e+02	-1.5138	-43.675753	0.000730	7.297178	1.236175	0.000146
1934	1.9233e+02	-1.4935	-43.518305	0.000791	7.905276	1.339190	0.000158
1935	1.9243e+02	-1.4726	-43.385079	0.000669	6.689080	1.133161	0.000134
1936	1.9253e+02	-1.4537	-43.284151	0.000507	5.067485	0.858455	0.000101
1937	1.9263e+02	-1.4347	-43.102480	0.000912	9.121473	1.545219	0.000183
1938	1.9273e+02	-1.4123	-42.997514	0.000527	5.270184	0.892793	0.000105
1939	1.9283e+02	-1.3934	-42.831992	0.000831	8.310675	1.407866	0.000166
1940	1.9293e+02	-1.3731	-42.678580	0.000770	7.702577	1.304852	0.000154
1941	1.9303e+02	-1.3541	-42.597838	0.000405	4.053988	0.686764	0.000081
1942	1.9313e+02	-1.3339	-42.432315	0.000831	8.310675	1.407866	0.000166
1943	1.9323e+02	-1.3136	-42.319275	0.000568	5.675583	0.961470	0.000114
1944	1.9333e+02	-1.2946	-42.149716	0.000851	8.513375	1.442205	0.000170
1945	1.9343e+02	-1.2742	-42.036676	0.000568	5.675583	0.961470	0.000114
1946	1.9353e+02	-1.2543	-41.867116	0.000851	8.513375	1.442205	0.000170
1947	1.9363e+02	-1.2349	-41.725816	0.000709	7.094479	1.201837	0.000142
1948	1.9373e+02	-1.2152	-41.592591	0.000669	6.689080	1.133161	0.000134
1949	1.9383e+02	-1.1945	-41.431106	0.000811	8.107976	1.373528	0.000162
1950	1.9393e+02	-1.1748	-41.309991	0.000608	6.080982	1.030146	0.000122
1951	1.9403e+02	-1.1551	-41.168692	0.000709	7.094479	1.201837	0.000142
1952	1.9412e+02	-1.1352	-41.035466	0.000669	6.689080	1.133161	0.000134
1953	1.9422e+02	-1.1150	-40.898204	0.000689	6.891779	1.167499	0.000138
1954	1.9432e+02	-1.0954	-40.736718	0.000811	8.107976	1.373528	0.000162
1955	1.9442e+02	-1.0752	-40.639827	0.000486	4.864786	0.824117	0.000097
1956	1.9452e+02	-1.0551	-40.498527	0.000709	7.094479	1.201837	0.000142
1957	1.9462e+02	-1.0358	-40.349153	0.000750	7.499878	1.270514	0.000150
1958	1.9472e+02	-1.0149	-40.195742	0.000770	7.702577	1.304852	0.000154
1959	1.9482e+02	-0.9961	-40.086739	0.000547	5.472884	0.927132	0.000110
1960	1.9492e+02	-0.9763	-39.937365	0.000750	7.499878	1.270514	0.000150
1961	1.9502e+02	-0.9561	-39.804140	0.000669	6.689080	1.133161	0.000134
1962	1.9512e+02	-0.9357	-39.658803	0.000730	7.297178	1.236175	0.000146
1963	1.9522e+02	-0.9154	-39.521540	0.000689	6.891779	1.167499	0.000138
1964	1.9532e+02	-0.8961	-39.372166	0.000750	7.499878	1.270514	0.000150
1965	1.9542e+02	-0.8760	-39.251052	0.000608	6.080982	1.030146	0.000122
1966	1.9552e+02	-0.8562	-39.085530	0.000831	8.310675	1.407866	0.000166
1967	1.9562e+02	-0.8360	-38.996713	0.000446	4.459387	0.755441	0.000089
1968	1.9572e+02	-0.8153	-38.806967	0.000953	9.526872	1.613896	0.000191
1969	1.9582e+02	-0.7968	-38.661630	0.000730	7.297178	1.236175	0.000146
1970	1.9592e+02	-0.7766	-38.528405	0.000669	6.689080	1.133161	0.000134
1971	1.9601e+02	-0.7567	-38.383068	0.000730	7.297178	1.236175	0.000146
1972	1.9611e+02	-0.7362	-38.274065	0.000547	5.472884	0.927132	0.000110
1973	1.9621e+02	-0.7168	-38.120654	0.000770	7.702577	1.304852	0.000154
1974	1.9631e+02	-0.6965	-38.007614	0.000568	5.675583	0.961470	0.000114
1975	1.9641e+02	-0.6767	-37.825943	0.000912	9.121473	1.545219	0.000183
1976	1.9651e+02	-0.6549	-37.741163	0.000426	4.256687	0.721102	0.000085
1977	1.9661e+02	-0.6367	-37.547381	0.000973	9.729571	1.648234	0.000195
1978	1.9671e+02	-0.6163	-37.434341	0.000568	5.675583	0.961470	0.000114
1979	1.9681e+02	-0.5971	-37.284967	0.000750	7.499878	1.270514	0.000150
1980	1.9691e+02	-0.5773	-37.115407	0.000851	8.513375	1.442205	0.000170
1981	1.9701e+02	-0.5569	-37.002368	0.000568	5.675583	0.961470	0.000114
1982	1.9711e+02	-0.5376	-36.877216	0.000628	6.283681	1.064484	0.000126
1983	1.9721e+02	-0.5173	-36.727842	0.000750	7.499878	1.270514	0.000150
1984	1.9731e+02	-0.4970	-36.586543	0.000709	7.094479	1.201837	0.000142
1985	1.9741e+02	-0.4765	-36.441206	0.000730	7.297178	1.236175	0.000146
1986	1.9751e+02	-0.4568	-36.320092	0.000608	6.080982	1.030146	0.000122
1987	1.9761e+02	-0.4380	-36.114198	0.001034	10.337669	1.751249	0.000207
1988	1.9771e+02	-0.4167	-36.001158	0.000568	5.675583	0.961470	0.000114
1989	1.9781e+02	-0.3980	-35.859858	0.000709	7.094479	1.201837	0.000142
1990	1.9791e+02	-0.3786	-35.730670	0.000649	6.486381	1.098823	0.000130
1991	1.9800e+02	-0.3583	-35.536887	0.000973	9.729571	1.648234	0.000195
1992	1.9810e+02	-0.3378	-35.427885	0.000547	5.472884	0.927132	0.000110
1993	1.9820e+02	-0.3178	-35.294659	0.000669	6.689080	1.133161	0.000134
1994	1.9830e+02	-0.2991	-35.193731	0.000507	5.067485	0.858455	0.000101
1995	1.9840e+02	-0.2789	-34.983800	0.001054	10.540369	1.785587	0.000211
1996	1.9850e+02	-0.2586	-34.854611	0.000649	6.486381	1.098823	0.000130
1997	1.9860e+02	-0.2389	-34.709275	0.000730	7.297178	1.236175	0.000146
1998	1.9870e+02	-0.2191	-34.539715	0.000851	8.513375	1.442205	0.000170
1999	1.9880e+02	-0.1983	-34.426675	0.000568	5.675583	0.961470	0.000114
2000	1.9890e+02	-0.1785	-34.289412	0.000689	6.891779	1.167499	0.000138
2001	1.9900e+02	-0.1588	-34.140038	0.000750	7.499878	1.270514	0.000150
2002	1.9910e+02	-0.1398	-33.986627	0.000770	7.702577	1.304852	0.000154
2003	1.9920e+02	-0.1181	-33.881662	0.000527	5.270184	0.892793	0.000105
2004	1.9930e+02	-0.0989	-33.691916	0.000953	9.526872	1.613896	0.000191
2005	1.9940e+02	-0.0782	-33.554654	0.000689	6.891779	1.167499	0.000138
2006	1.9950e+02	-0.0595	-33.409317	0.000730	7.297178	1.236175	0.000146
2007	1.9960e+02	-0.0385	-33.263980	0.000730	7.297178	1.236175	0.000146
2008	1.9970e+02	-0.0183	-33.118643	0.000730	7.297178	1.236175	0.000146
2009	1.9980e+02	-0.0007	-33.005603	0.000730	7.297178	1.236175	0.000114

PMax (uC/cm2):	6.07e+01
Pr (uC/cm2):	5.99e+00
-Pr (uC/cm2):	-5.06e+01
PLoss (uC/cm2):	-5.06e+01
-Vc:	-8.04e-01
C (Max-Eff) (nF):	6.07e-01
K (Eff):	1.03e+03
Vert. (+/-Pr) Shift (uC/cm2):	-2.23e+01
Offset (uC/cm2):	-1.76e+01

A (Loop Area - uC/cm2·Volts):	-1.72e-01



Hysteresis Version: 5.48.1 - Radiant Technologies, Inc., 1999 - 9/12/24

