»»»»»»»»»»»»»»»»»»»»»»»»»»»»»»»»»»»» Hysteresis ««««««««««««««««««««««««««««««««««««
»»»  Executed Version:	5.48.1
»»»  Vision Version:	5.48.4 (R)
»»»  Vision Compiled:	9/18/24
»»»  Driver Version:	5.47.0
»»»  Windows Version:	Windows 8 or 8.1
»»»  Processor Information:	x86 (AMD or Intel) - 32 Processors
»»»  Tester Name:	PMF21124-494 (100V)
»»»  Tester S/N:	PMF21124-494
»»»  Internal Amp Type:	100V RevK 270k
»»»  Internal Amp S/N:	iAB2-596/K     
»»»  Execution Count:	1
»»»»»»»»»»»»»»»»»»»»»»»»»»»»»»»»»»»»»»»»»»««««««««««««««««««««««««««««««««««««««««««

Stored:	7/1/2025 - 15:55:8
Configured:	07/01/25 10:49:51 AM
Executed:	07/01/25 03:54:37 PM

»»»»»»»»»»»»»»»»»»»»»»»»»»»»»»»»»»» Sample Info ««««««««««««««««««««««««««««««««««««
Sample Name:	
Lot Name:	
Wafer Name:	
Die Row/Column:	0/0
Capacitor Number:	0
Sample Area (cm2):	1.00e-04
Sample Thickness (microns):	1.50e-01

Amplifier:	Internal

»»»»»»»»»»»»»»»»»»»»»»»»»»»»»»»»»»» Tester Info «««««««««««««««««««««««««««««««««««
Tester Name:	PMF21124-494 (100V)
Tester Serial Number:	PMF21124-494
Return Signal Amp. Level:	0.19 [Index: 3]

»»»»»»»»»»»»»»»»»»»»»»»»»»»»»»»» Hysteresis Info ««««««««««««««««««««««««««««««««««
Task Name:	Hyst-22
Volts:	10.00
Field:	666.67 (kV/cm)
DCBias:	0.00
DCField:	0.00 (kV/cm)
Hysteresis Period (ms):	2.00e+02
Preset:	Enabled
Preset Delay (ms):	1.00e+03
Profile:	Standard Bipolar

»»»»»»»»»»»»»»»»»»»»»»»»»»»»»»»»»»»»»» Data «««««««««««««««««««««««««««««««««««««««
Points:	2009

Valid Data

Point	Time (ms)	Drive Voltage	Measured Polarization (uC/cm2)	Capacitance (uF)	Normalized Capacitance (uF/cm2)	Dielectric Constant	Instantaneous Current (mA)
   1	0.0000e+00	0.0002	20.066583	0.000750	7.499649	1.270475	0.000150
   2	9.9500e-02	0.0192	20.215957	0.000750	7.499649	1.270475	0.000150
   3	1.9900e-01	0.0378	20.365331	0.000750	7.499649	1.270475	0.000150
   4	2.9850e-01	0.0591	20.514705	0.000750	7.499649	1.270475	0.000150
   5	3.9800e-01	0.0793	20.619671	0.000527	5.270023	0.892766	0.000105
   6	4.9750e-01	0.0990	20.756933	0.000689	6.891569	1.167463	0.000138
   7	5.9700e-01	0.1189	20.902270	0.000730	7.296956	1.236138	0.000146
   8	6.9650e-01	0.1381	20.999162	0.000486	4.864637	0.824092	0.000097
   9	7.9600e-01	0.1582	21.168721	0.000851	8.513115	1.442161	0.000170
  10	8.9550e-01	0.1785	21.330207	0.000811	8.107728	1.373486	0.000162
  11	9.9500e-01	0.1982	21.423061	0.000466	4.661944	0.789755	0.000093
  12	1.0945e+00	0.2175	21.584546	0.000811	8.107728	1.373486	0.000162
  13	1.1940e+00	0.2387	21.717772	0.000669	6.688876	1.133126	0.000134
  14	1.2935e+00	0.2585	21.846960	0.000649	6.486183	1.098789	0.000130
  15	1.3930e+00	0.2781	22.004408	0.000791	7.905035	1.339149	0.000158
  16	1.4925e+00	0.2982	22.101300	0.000486	4.864637	0.824092	0.000097
  17	1.5920e+00	0.3160	22.295082	0.000973	9.729274	1.648184	0.000195
  18	1.6915e+00	0.3386	22.363713	0.000345	3.445785	0.583732	0.000069
  19	1.7910e+00	0.3589	22.545385	0.000912	9.121194	1.545172	0.000183
  20	1.8905e+00	0.3780	22.702833	0.000791	7.905035	1.339149	0.000158
  21	1.9900e+00	0.3976	22.803761	0.000507	5.067330	0.858429	0.000101
  22	2.0895e+00	0.4169	22.977358	0.000872	8.715808	1.476498	0.000174
  23	2.1890e+00	0.4367	23.130769	0.000770	7.702342	1.304812	0.000154
  24	2.2885e+00	0.4572	23.235735	0.000527	5.270023	0.892766	0.000105
  25	2.3880e+00	0.4775	23.372997	0.000689	6.891569	1.167463	0.000138
  26	2.4875e+00	0.4977	23.506223	0.000669	6.688876	1.133126	0.000134
  27	2.5870e+00	0.5168	23.667708	0.000811	8.107728	1.373486	0.000162
  28	2.6865e+00	0.5373	23.821119	0.000770	7.702342	1.304812	0.000154
  29	2.7860e+00	0.5576	23.946271	0.000628	6.283489	1.064452	0.000126
  30	2.8855e+00	0.5764	24.095645	0.000750	7.499649	1.270475	0.000150
  31	2.9850e+00	0.5968	24.216759	0.000608	6.080796	1.030115	0.000122
  32	3.0845e+00	0.6165	24.386318	0.000851	8.513115	1.442161	0.000170
  33	3.1840e+00	0.6374	24.519544	0.000669	6.688876	1.133126	0.000134
  34	3.2835e+00	0.6561	24.624509	0.000527	5.270023	0.892766	0.000105
  35	3.3830e+00	0.6766	24.806181	0.000912	9.121194	1.545172	0.000183
  36	3.4825e+00	0.6961	24.923257	0.000588	5.878103	0.995778	0.000118
  37	3.5820e+00	0.7169	25.088780	0.000831	8.310422	1.407824	0.000166
  38	3.6815e+00	0.7362	25.189708	0.000507	5.067330	0.858429	0.000101
  39	3.7810e+00	0.7568	25.359268	0.000851	8.513115	1.442161	0.000170
  40	3.8805e+00	0.7769	25.528828	0.000851	8.513115	1.442161	0.000170
  41	3.9800e+00	0.7955	25.674165	0.000730	7.296956	1.236138	0.000146
  42	4.0795e+00	0.8155	25.803353	0.000649	6.486183	1.098789	0.000130
  43	4.1790e+00	0.8361	25.968876	0.000831	8.310422	1.407824	0.000166
  44	4.2785e+00	0.8563	26.118250	0.000750	7.499649	1.270475	0.000150
  45	4.3780e+00	0.8752	26.251475	0.000669	6.688876	1.133126	0.000134
  46	4.4775e+00	0.8958	26.376626	0.000628	6.283489	1.064452	0.000126
  47	4.5770e+00	0.9160	26.521963	0.000730	7.296956	1.236138	0.000146
  48	4.6765e+00	0.9348	26.683449	0.000811	8.107728	1.373486	0.000162
  49	4.7760e+00	0.9557	26.869157	0.000932	9.323888	1.579509	0.000187
  50	4.8755e+00	0.9759	26.986234	0.000588	5.878103	0.995778	0.000118
  51	4.9750e+00	0.9961	27.143682	0.000791	7.905035	1.339149	0.000158
  52	5.0745e+00	1.0145	27.268833	0.000628	6.283489	1.064452	0.000126
  53	5.1740e+00	1.0358	27.430319	0.000811	8.107728	1.373486	0.000162
  54	5.2735e+00	1.0562	27.547396	0.000588	5.878103	0.995778	0.000118
  55	5.3730e+00	1.0748	27.737141	0.000953	9.526581	1.613846	0.000191
  56	5.4725e+00	1.0951	27.854218	0.000588	5.878103	0.995778	0.000118
  57	5.5720e+00	1.1146	28.003592	0.000750	7.499649	1.270475	0.000150
  58	5.6715e+00	1.1353	28.152966	0.000750	7.499649	1.270475	0.000150
  59	5.7710e+00	1.1549	28.326563	0.000872	8.715808	1.476498	0.000174
  60	5.8705e+00	1.1745	28.427491	0.000507	5.067330	0.858429	0.000101
  61	5.9700e+00	1.1943	28.597051	0.000851	8.513115	1.442161	0.000170
  62	6.0695e+00	1.2149	28.746425	0.000750	7.499649	1.270475	0.000150
  63	6.1690e+00	1.2342	28.855428	0.000547	5.472717	0.927103	0.000110
  64	6.2685e+00	1.2539	29.024987	0.000851	8.513115	1.442161	0.000170
  65	6.3680e+00	1.2743	29.162250	0.000689	6.891569	1.167463	0.000138
  66	6.4675e+00	1.2936	29.331810	0.000851	8.513115	1.442161	0.000170
  67	6.5670e+00	1.3132	29.469072	0.000689	6.891569	1.167463	0.000138
  68	6.6665e+00	1.3327	29.606335	0.000689	6.891569	1.167463	0.000138
  69	6.7660e+00	1.3540	29.763783	0.000791	7.905035	1.339149	0.000158
  70	6.8655e+00	1.3731	29.921232	0.000791	7.905035	1.339149	0.000158
  71	6.9650e+00	1.3934	30.054457	0.000669	6.688876	1.133126	0.000134
  72	7.0645e+00	1.4134	30.183645	0.000649	6.486183	1.098789	0.000130
  73	7.1640e+00	1.4333	30.349168	0.000831	8.310422	1.407824	0.000166
  74	7.2635e+00	1.4529	30.490468	0.000709	7.094262	1.201801	0.000142
  75	7.3630e+00	1.4722	30.635805	0.000730	7.296956	1.236138	0.000146
  76	7.4625e+00	1.4931	30.777104	0.000709	7.094262	1.201801	0.000142
  77	7.5620e+00	1.5125	30.910330	0.000669	6.688876	1.133126	0.000134
  78	7.6615e+00	1.5331	31.063741	0.000770	7.702342	1.304812	0.000154
  79	7.7610e+00	1.5527	31.213115	0.000750	7.499649	1.270475	0.000150
  80	7.8605e+00	1.5733	31.326155	0.000568	5.675410	0.961440	0.000114
  81	7.9600e+00	1.5923	31.519937	0.000973	9.729274	1.648184	0.000195
  82	8.0595e+00	1.6123	31.657200	0.000689	6.891569	1.167463	0.000138
  83	8.1590e+00	1.6320	31.834834	0.000892	8.918501	1.510835	0.000179
  84	8.2585e+00	1.6526	31.943837	0.000547	5.472717	0.927103	0.000110
  85	8.3580e+00	1.6732	32.133582	0.000953	9.526581	1.613846	0.000191
  86	8.4575e+00	1.6922	32.258733	0.000628	6.283489	1.064452	0.000126
  87	8.5570e+00	1.7126	32.404070	0.000730	7.296956	1.236138	0.000146
  88	8.6565e+00	1.7316	32.557481	0.000770	7.702342	1.304812	0.000154
  89	8.7560e+00	1.7521	32.698781	0.000709	7.094262	1.201801	0.000142
  90	8.8555e+00	1.7715	32.823932	0.000628	6.283489	1.064452	0.000126
  91	8.9550e+00	1.7923	32.989455	0.000831	8.310422	1.407824	0.000166
  92	9.0545e+00	1.8134	33.154977	0.000831	8.310422	1.407824	0.000166
  93	9.1540e+00	1.8311	33.255906	0.000507	5.067330	0.858429	0.000101
  94	9.2535e+00	1.8505	33.461800	0.001034	10.337354	1.751195	0.000207
  95	9.3530e+00	1.8716	33.611174	0.000750	7.499649	1.270475	0.000150
  96	9.4525e+00	1.8913	33.760548	0.000750	7.499649	1.270475	0.000150
  97	9.5520e+00	1.9115	33.917996	0.000791	7.905035	1.339149	0.000158
  98	9.6515e+00	1.9320	34.018924	0.000507	5.067330	0.858429	0.000101
  99	9.7510e+00	1.9511	34.200595	0.000912	9.121194	1.545172	0.000183
 100	9.8505e+00	1.9711	34.309598	0.000547	5.472717	0.927103	0.000110
 101	9.9500e+00	1.9904	34.479158	0.000851	8.513115	1.442161	0.000170
 102	1.0050e+01	2.0101	34.632569	0.000770	7.702342	1.304812	0.000154
 103	1.0149e+01	2.0310	34.798091	0.000831	8.310422	1.407824	0.000166
 104	1.0248e+01	2.0514	34.943428	0.000730	7.296956	1.236138	0.000146
 105	1.0348e+01	2.0704	35.080691	0.000689	6.891569	1.167463	0.000138
 106	1.0447e+01	2.0898	35.234102	0.000770	7.702342	1.304812	0.000154
 107	1.0547e+01	2.1102	35.427885	0.000973	9.729274	1.648184	0.000195
 108	1.0646e+01	2.1301	35.561110	0.000669	6.688876	1.133126	0.000134
 109	1.0746e+01	2.1499	35.702410	0.000709	7.094262	1.201801	0.000142
 110	1.0845e+01	2.1707	35.831598	0.000649	6.486183	1.098789	0.000130
 111	1.0945e+01	2.1911	35.985009	0.000770	7.702342	1.304812	0.000154
 112	1.1044e+01	2.2105	36.162643	0.000892	8.918501	1.510835	0.000179
 113	1.1144e+01	2.2306	36.275683	0.000568	5.675410	0.961440	0.000114
 114	1.1243e+01	2.2501	36.477540	0.001013	10.134660	1.716858	0.000203
 115	1.1343e+01	2.2707	36.570394	0.000466	4.661944	0.789755	0.000093
 116	1.1443e+01	2.2900	36.735917	0.000831	8.310422	1.407824	0.000166
 117	1.1542e+01	2.3095	36.901439	0.000831	8.310422	1.407824	0.000166
 118	1.1642e+01	2.3299	37.026590	0.000628	6.283489	1.064452	0.000126
 119	1.1741e+01	2.3499	37.167890	0.000709	7.094262	1.201801	0.000142
 120	1.1841e+01	2.3696	37.321301	0.000770	7.702342	1.304812	0.000154
 121	1.1940e+01	2.3903	37.478750	0.000791	7.905035	1.339149	0.000158
 122	1.2040e+01	2.4100	37.668495	0.000953	9.526581	1.613846	0.000191
 123	1.2139e+01	2.4293	37.781535	0.000568	5.675410	0.961440	0.000114
 124	1.2239e+01	2.4496	37.943020	0.000811	8.107728	1.373486	0.000162
 125	1.2338e+01	2.4699	38.052023	0.000547	5.472717	0.927103	0.000110
 126	1.2438e+01	2.4902	38.193323	0.000709	7.094262	1.201801	0.000142
 127	1.2537e+01	2.5091	38.387105	0.000973	9.729274	1.648184	0.000195
 128	1.2636e+01	2.5282	38.475922	0.000446	4.459251	0.755418	0.000089
 129	1.2736e+01	2.5493	38.669705	0.000973	9.729274	1.648184	0.000195
 130	1.2835e+01	2.5694	38.786782	0.000588	5.878103	0.995778	0.000118
 131	1.2935e+01	2.5888	38.928081	0.000709	7.094262	1.201801	0.000142
 132	1.3034e+01	2.6086	39.081493	0.000770	7.702342	1.304812	0.000154
 133	1.3134e+01	2.6284	39.247015	0.000831	8.310422	1.407824	0.000166
 134	1.3233e+01	2.6492	39.400426	0.000770	7.702342	1.304812	0.000154
 135	1.3333e+01	2.6681	39.549800	0.000750	7.499649	1.270475	0.000150
 136	1.3432e+01	2.6882	39.658803	0.000547	5.472717	0.927103	0.000110
 137	1.3532e+01	2.7087	39.800103	0.000709	7.094262	1.201801	0.000142
 138	1.3632e+01	2.7279	39.957551	0.000791	7.905035	1.339149	0.000158
 139	1.3731e+01	2.7480	40.135185	0.000892	8.918501	1.510835	0.000179
 140	1.3831e+01	2.7677	40.264373	0.000649	6.486183	1.098789	0.000130
 141	1.3930e+01	2.7876	40.393562	0.000649	6.486183	1.098789	0.000130
 142	1.4030e+01	2.8076	40.579270	0.000932	9.323888	1.579509	0.000187
 143	1.4129e+01	2.8283	40.708458	0.000649	6.486183	1.098789	0.000130
 144	1.4229e+01	2.8478	40.849758	0.000709	7.094262	1.201801	0.000142
 145	1.4328e+01	2.8680	40.991058	0.000709	7.094262	1.201801	0.000142
 146	1.4428e+01	2.8867	41.148506	0.000791	7.905035	1.339149	0.000158
 147	1.4527e+01	2.9070	41.301917	0.000770	7.702342	1.304812	0.000154
 148	1.4627e+01	2.9267	41.410920	0.000547	5.472717	0.927103	0.000110
 149	1.4726e+01	2.9471	41.564331	0.000770	7.702342	1.304812	0.000154
 150	1.4825e+01	2.9670	41.725816	0.000811	8.107728	1.373486	0.000162
 151	1.4925e+01	2.9874	41.895376	0.000851	8.513115	1.442161	0.000170
 152	1.5024e+01	3.0080	42.004379	0.000547	5.472717	0.927103	0.000110
 153	1.5124e+01	3.0267	42.169901	0.000831	8.310422	1.407824	0.000166
 154	1.5223e+01	3.0465	42.323313	0.000770	7.702342	1.304812	0.000154
 155	1.5323e+01	3.0674	42.472687	0.000750	7.499649	1.270475	0.000150
 156	1.5422e+01	3.0872	42.585726	0.000568	5.675410	0.961440	0.000114
 157	1.5522e+01	3.1075	42.747212	0.000811	8.107728	1.373486	0.000162
 158	1.5621e+01	3.1274	42.932920	0.000932	9.323888	1.579509	0.000187
 159	1.5721e+01	3.1470	43.045960	0.000568	5.675410	0.961440	0.000114
 160	1.5820e+01	3.1663	43.191297	0.000730	7.296956	1.236138	0.000146
 161	1.5920e+01	3.1869	43.364894	0.000872	8.715808	1.476498	0.000174
 162	1.6020e+01	3.2070	43.465822	0.000507	5.067330	0.858429	0.000101
 163	1.6119e+01	3.2263	43.659604	0.000973	9.729274	1.648184	0.000195
 164	1.6218e+01	3.2458	43.821090	0.000811	8.107728	1.373486	0.000162
 165	1.6318e+01	3.2658	43.954315	0.000669	6.688876	1.133126	0.000134
 166	1.6418e+01	3.2867	44.103689	0.000750	7.499649	1.270475	0.000150
 167	1.6517e+01	3.3064	44.249026	0.000730	7.296956	1.236138	0.000146
 168	1.6616e+01	3.3262	44.353992	0.000527	5.270023	0.892766	0.000105
 169	1.6716e+01	3.3466	44.523551	0.000851	8.513115	1.442161	0.000170
 170	1.6816e+01	3.3662	44.664851	0.000709	7.094262	1.201801	0.000142
 171	1.6915e+01	3.3861	44.818262	0.000770	7.702342	1.304812	0.000154
 172	1.7015e+01	3.4054	44.967636	0.000750	7.499649	1.270475	0.000150
 173	1.7114e+01	3.4259	45.092788	0.000628	6.283489	1.064452	0.000126
 174	1.7213e+01	3.4460	45.250236	0.000791	7.905035	1.339149	0.000158
 175	1.7313e+01	3.4652	45.379424	0.000649	6.486183	1.098789	0.000130
 176	1.7413e+01	3.4847	45.496501	0.000588	5.878103	0.995778	0.000118
 177	1.7512e+01	3.5049	45.690284	0.000973	9.729274	1.648184	0.000195
 178	1.7611e+01	3.5249	45.839658	0.000750	7.499649	1.270475	0.000150
 179	1.7711e+01	3.5448	45.972883	0.000669	6.688876	1.133126	0.000134
 180	1.7811e+01	3.5629	46.122257	0.000750	7.499649	1.270475	0.000150
 181	1.7910e+01	3.5851	46.227223	0.000527	5.270023	0.892766	0.000105
 182	1.8009e+01	3.6042	46.388708	0.000811	8.107728	1.373486	0.000162
 183	1.8109e+01	3.6246	46.517897	0.000649	6.486183	1.098789	0.000130
 184	1.8209e+01	3.6449	46.634973	0.000588	5.878103	0.995778	0.000118
 185	1.8308e+01	3.6649	46.800496	0.000831	8.310422	1.407824	0.000166
 186	1.8407e+01	3.6851	46.933722	0.000669	6.688876	1.133126	0.000134
 187	1.8507e+01	3.7061	47.083096	0.000750	7.499649	1.270475	0.000150
 188	1.8607e+01	3.7251	47.236507	0.000770	7.702342	1.304812	0.000154
 189	1.8706e+01	3.7434	47.406066	0.000851	8.513115	1.442161	0.000170
 190	1.8805e+01	3.7647	47.519106	0.000568	5.675410	0.961440	0.000114
 191	1.8905e+01	3.7842	47.652332	0.000669	6.688876	1.133126	0.000134
 192	1.9005e+01	3.8037	47.781520	0.000649	6.486183	1.098789	0.000130
 193	1.9104e+01	3.8248	47.947043	0.000831	8.310422	1.407824	0.000166
 194	1.9203e+01	3.8438	48.072194	0.000628	6.283489	1.064452	0.000126
 195	1.9303e+01	3.8633	48.209456	0.000689	6.891569	1.167463	0.000138
 196	1.9402e+01	3.8829	48.358830	0.000750	7.499649	1.270475	0.000150
 197	1.9502e+01	3.9037	48.512242	0.000770	7.702342	1.304812	0.000154
 198	1.9602e+01	3.9236	48.645467	0.000669	6.688876	1.133126	0.000134
 199	1.9701e+01	3.9441	48.762544	0.000588	5.878103	0.995778	0.000118
 200	1.9800e+01	3.9629	48.895769	0.000669	6.688876	1.133126	0.000134
 201	1.9900e+01	3.9834	49.045144	0.000750	7.499649	1.270475	0.000150
 202	2.0000e+01	4.0027	49.146072	0.000507	5.067330	0.858429	0.000101
 203	2.0099e+01	4.0231	49.279297	0.000669	6.688876	1.133126	0.000134
 204	2.0198e+01	4.0432	49.440783	0.000811	8.107728	1.373486	0.000162
 205	2.0298e+01	4.0620	49.586120	0.000730	7.296956	1.236138	0.000146
 206	2.0398e+01	4.0832	49.751642	0.000831	8.310422	1.407824	0.000166
 207	2.0497e+01	4.1029	49.868719	0.000588	5.878103	0.995778	0.000118
 208	2.0596e+01	4.1224	49.985796	0.000588	5.878103	0.995778	0.000118
 209	2.0696e+01	4.1425	50.151319	0.000831	8.310422	1.407824	0.000166
 210	2.0796e+01	4.1628	50.288581	0.000689	6.891569	1.167463	0.000138
 211	2.0895e+01	4.1823	50.417770	0.000649	6.486183	1.098789	0.000130
 212	2.0994e+01	4.2024	50.542921	0.000628	6.283489	1.064452	0.000126
 213	2.1094e+01	4.2207	50.708443	0.000831	8.310422	1.407824	0.000166
 214	2.1194e+01	4.2430	50.833595	0.000628	6.283489	1.064452	0.000126
 215	2.1293e+01	4.2621	50.958746	0.000628	6.283489	1.064452	0.000126
 216	2.1392e+01	4.2825	51.116194	0.000791	7.905035	1.339149	0.000158
 217	2.1492e+01	4.3017	51.217123	0.000507	5.067330	0.858429	0.000101
 218	2.1591e+01	4.3203	51.378608	0.000811	8.107728	1.373486	0.000162
 219	2.1691e+01	4.3433	51.515871	0.000689	6.891569	1.167463	0.000138
 220	2.1791e+01	4.3613	51.653133	0.000689	6.891569	1.167463	0.000138
 221	2.1890e+01	4.3821	51.770210	0.000588	5.878103	0.995778	0.000118
 222	2.1989e+01	4.4023	51.927658	0.000791	7.905035	1.339149	0.000158
 223	2.2089e+01	4.4210	52.024550	0.000486	4.864637	0.824092	0.000097
 224	2.2189e+01	4.4422	52.214295	0.000953	9.526581	1.613846	0.000191
 225	2.2288e+01	4.4614	52.319261	0.000527	5.270023	0.892766	0.000105
 226	2.2387e+01	4.4810	52.436338	0.000588	5.878103	0.995778	0.000118
 227	2.2487e+01	4.5017	52.585712	0.000750	7.499649	1.270475	0.000150
 228	2.2587e+01	4.5208	52.731048	0.000730	7.296956	1.236138	0.000146
 229	2.2686e+01	4.5411	52.860237	0.000649	6.486183	1.098789	0.000130
 230	2.2785e+01	4.5615	52.953091	0.000466	4.661944	0.789755	0.000093
 231	2.2885e+01	4.5808	53.098428	0.000730	7.296956	1.236138	0.000146
 232	2.2985e+01	4.6008	53.235690	0.000689	6.891569	1.167463	0.000138
 233	2.3084e+01	4.6201	53.364879	0.000649	6.486183	1.098789	0.000130
 234	2.3183e+01	4.6410	53.506179	0.000709	7.094262	1.201801	0.000142
 235	2.3283e+01	4.6600	53.647478	0.000709	7.094262	1.201801	0.000142
 236	2.3383e+01	4.6804	53.772629	0.000628	6.283489	1.064452	0.000126
 237	2.3482e+01	4.7002	53.926041	0.000770	7.702342	1.304812	0.000154
 238	2.3581e+01	4.7201	54.026969	0.000507	5.067330	0.858429	0.000101
 239	2.3681e+01	4.7406	54.148083	0.000608	6.080796	1.030115	0.000122
 240	2.3780e+01	4.7602	54.257086	0.000547	5.472717	0.927103	0.000110
 241	2.3880e+01	4.7812	54.450868	0.000973	9.729274	1.648184	0.000195
 242	2.3980e+01	4.7994	54.551797	0.000507	5.067330	0.858429	0.000101
 243	2.4079e+01	4.8205	54.685022	0.000669	6.688876	1.133126	0.000134
 244	2.4178e+01	4.8394	54.810173	0.000628	6.283489	1.064452	0.000126
 245	2.4278e+01	4.8605	54.894953	0.000426	4.256557	0.721080	0.000085
 246	2.4378e+01	4.8803	55.060476	0.000831	8.310422	1.407824	0.000166
 247	2.4477e+01	4.8992	55.193701	0.000669	6.688876	1.133126	0.000134
 248	2.4576e+01	4.9201	55.314815	0.000608	6.080796	1.030115	0.000122
 249	2.4676e+01	4.9404	55.439967	0.000628	6.283489	1.064452	0.000126
 250	2.4776e+01	4.9596	55.557043	0.000588	5.878103	0.995778	0.000118
 251	2.4875e+01	4.9795	55.674120	0.000588	5.878103	0.995778	0.000118
 252	2.4974e+01	4.9995	55.807346	0.000669	6.688876	1.133126	0.000134
 253	2.5074e+01	5.0210	55.928460	0.000608	6.080796	1.030115	0.000122
 254	2.5174e+01	5.0392	56.089945	0.000811	8.107728	1.373486	0.000162
 255	2.5273e+01	5.0588	56.190874	0.000507	5.067330	0.858429	0.000101
 256	2.5372e+01	5.0788	56.303914	0.000568	5.675410	0.961440	0.000114
 257	2.5472e+01	5.0983	56.461362	0.000791	7.905035	1.339149	0.000158
 258	2.5572e+01	5.1185	56.586513	0.000628	6.283489	1.064452	0.000126
 259	2.5671e+01	5.1391	56.699553	0.000568	5.675410	0.961440	0.000114
 260	2.5770e+01	5.1586	56.857001	0.000791	7.905035	1.339149	0.000158
 261	2.5870e+01	5.1788	56.961967	0.000527	5.270023	0.892766	0.000105
 262	2.5970e+01	5.1979	57.083081	0.000608	6.080796	1.030115	0.000122
 263	2.6069e+01	5.2193	57.208232	0.000628	6.283489	1.064452	0.000126
 264	2.6169e+01	5.2384	57.353569	0.000730	7.296956	1.236138	0.000146
 265	2.6268e+01	5.2581	57.486794	0.000669	6.688876	1.133126	0.000134
 266	2.6367e+01	5.2776	57.567537	0.000405	4.053864	0.686743	0.000081
 267	2.6467e+01	5.2988	57.724985	0.000791	7.905035	1.339149	0.000158
 268	2.6567e+01	5.3181	57.833988	0.000547	5.472717	0.927103	0.000110
 269	2.6666e+01	5.3381	57.942991	0.000547	5.472717	0.927103	0.000110
 270	2.6765e+01	5.3580	58.076216	0.000669	6.688876	1.133126	0.000134
 271	2.6865e+01	5.3777	58.225590	0.000750	7.499649	1.270475	0.000150
 272	2.6965e+01	5.3973	58.326519	0.000507	5.067330	0.858429	0.000101
 273	2.7064e+01	5.4169	58.471855	0.000730	7.296956	1.236138	0.000146
 274	2.7163e+01	5.4372	58.597007	0.000628	6.283489	1.064452	0.000126
 275	2.7263e+01	5.4572	58.722158	0.000628	6.283489	1.064452	0.000126
 276	2.7363e+01	5.4771	58.839235	0.000588	5.878103	0.995778	0.000118
 277	2.7462e+01	5.4964	58.948237	0.000547	5.472717	0.927103	0.000110
 278	2.7561e+01	5.5166	59.105686	0.000791	7.905035	1.339149	0.000158
 279	2.7661e+01	5.5375	59.222763	0.000588	5.878103	0.995778	0.000118
 280	2.7761e+01	5.5566	59.323691	0.000507	5.067330	0.858429	0.000101
 281	2.7860e+01	5.5770	59.444805	0.000608	6.080796	1.030115	0.000122
 282	2.7959e+01	5.5963	59.578031	0.000669	6.688876	1.133126	0.000134
 283	2.8059e+01	5.6167	59.723368	0.000730	7.296956	1.236138	0.000146
 284	2.8159e+01	5.6365	59.800073	0.000385	3.851171	0.652406	0.000077
 285	2.8258e+01	5.6567	59.945410	0.000730	7.296956	1.236138	0.000146
 286	2.8358e+01	5.6774	60.078635	0.000669	6.688876	1.133126	0.000134
 287	2.8457e+01	5.6966	60.223972	0.000730	7.296956	1.236138	0.000146
 288	2.8556e+01	5.7159	60.320864	0.000486	4.864637	0.824092	0.000097
 289	2.8656e+01	5.7360	60.466201	0.000730	7.296956	1.236138	0.000146
 290	2.8756e+01	5.7570	60.555018	0.000446	4.459251	0.755418	0.000089
 291	2.8855e+01	5.7760	60.692280	0.000689	6.891569	1.167463	0.000138
 292	2.8954e+01	5.7960	60.793209	0.000507	5.067330	0.858429	0.000101
 293	2.9054e+01	5.8169	60.918360	0.000628	6.283489	1.064452	0.000126
 294	2.9154e+01	5.8360	61.075808	0.000791	7.905035	1.339149	0.000158
 295	2.9253e+01	5.8569	61.156551	0.000405	4.053864	0.686743	0.000081
 296	2.9352e+01	5.8753	61.273628	0.000588	5.878103	0.995778	0.000118
 297	2.9452e+01	5.8953	61.410890	0.000689	6.891569	1.167463	0.000138
 298	2.9552e+01	5.9155	61.540079	0.000649	6.486183	1.098789	0.000130
 299	2.9651e+01	5.9348	61.641007	0.000507	5.067330	0.858429	0.000101
 300	2.9750e+01	5.9556	61.794418	0.000770	7.702342	1.304812	0.000154
 301	2.9850e+01	5.9748	61.911495	0.000588	5.878103	0.995778	0.000118
 302	2.9950e+01	5.9954	61.992238	0.000405	4.053864	0.686743	0.000081
 303	3.0049e+01	6.0160	62.117389	0.000628	6.283489	1.064452	0.000126
 304	3.0148e+01	6.0339	62.222355	0.000527	5.270023	0.892766	0.000105
 305	3.0248e+01	6.0552	62.335394	0.000568	5.675410	0.961440	0.000114
 306	3.0348e+01	6.0751	62.496880	0.000811	8.107728	1.373486	0.000162
 307	3.0447e+01	6.0950	62.581660	0.000426	4.256557	0.721080	0.000085
 308	3.0547e+01	6.1147	62.710848	0.000649	6.486183	1.098789	0.000130
 309	3.0646e+01	6.1352	62.835999	0.000628	6.283489	1.064452	0.000126
 310	3.0745e+01	6.1545	62.957113	0.000608	6.080796	1.030115	0.000122
 311	3.0845e+01	6.1750	63.058042	0.000507	5.067330	0.858429	0.000101
 312	3.0945e+01	6.1939	63.239713	0.000912	9.121194	1.545172	0.000183
 313	3.1044e+01	6.2145	63.308344	0.000345	3.445785	0.583732	0.000069
 314	3.1143e+01	6.2347	63.437532	0.000649	6.486183	1.098789	0.000130
 315	3.1243e+01	6.2551	63.546535	0.000547	5.472717	0.927103	0.000110
 316	3.1343e+01	6.2739	63.712058	0.000831	8.310422	1.407824	0.000166
 317	3.1442e+01	6.2948	63.796838	0.000426	4.256557	0.721080	0.000085
 318	3.1541e+01	6.3139	63.905840	0.000547	5.472717	0.927103	0.000110
 319	3.1641e+01	6.3331	64.022917	0.000588	5.878103	0.995778	0.000118
 320	3.1741e+01	6.3530	64.144031	0.000608	6.080796	1.030115	0.000122
 321	3.1840e+01	6.3732	64.265145	0.000608	6.080796	1.030115	0.000122
 322	3.1939e+01	6.3934	64.341851	0.000385	3.851171	0.652406	0.000077
 323	3.2039e+01	6.4127	64.523522	0.000912	9.121194	1.545172	0.000183
 324	3.2139e+01	6.4332	64.636562	0.000568	5.675410	0.961440	0.000114
 325	3.2238e+01	6.4519	64.761713	0.000628	6.283489	1.064452	0.000126
 326	3.2337e+01	6.4735	64.834381	0.000365	3.648478	0.618069	0.000073
 327	3.2437e+01	6.4922	64.979718	0.000730	7.296956	1.236138	0.000146
 328	3.2536e+01	6.5124	65.096795	0.000588	5.878103	0.995778	0.000118
 329	3.2636e+01	6.5327	65.225984	0.000649	6.486183	1.098789	0.000130
 330	3.2736e+01	6.5517	65.351135	0.000628	6.283489	1.064452	0.000126
 331	3.2835e+01	6.5728	65.456100	0.000527	5.270023	0.892766	0.000105
 332	3.2934e+01	6.5926	65.593363	0.000689	6.891569	1.167463	0.000138
 333	3.3034e+01	6.6119	65.702366	0.000547	5.472717	0.927103	0.000110
 334	3.3133e+01	6.6323	65.803294	0.000507	5.067330	0.858429	0.000101
 335	3.3233e+01	6.6515	65.924408	0.000608	6.080796	1.030115	0.000122
 336	3.3333e+01	6.6718	66.053596	0.000649	6.486183	1.098789	0.000130
 337	3.3432e+01	6.6924	66.150488	0.000486	4.864637	0.824092	0.000097
 338	3.3532e+01	6.7123	66.279676	0.000649	6.486183	1.098789	0.000130
 339	3.3631e+01	6.7326	66.408864	0.000649	6.486183	1.098789	0.000130
 340	3.3730e+01	6.7517	66.501718	0.000466	4.661944	0.789755	0.000093
 341	3.3830e+01	6.7714	66.574387	0.000365	3.648478	0.618069	0.000073
 342	3.3929e+01	6.7918	66.756058	0.000912	9.121194	1.545172	0.000183
 343	3.4029e+01	6.8115	66.848912	0.000466	4.661944	0.789755	0.000093
 344	3.4129e+01	6.8321	66.990212	0.000709	7.094262	1.201801	0.000142
 345	3.4228e+01	6.8518	67.079029	0.000446	4.459251	0.755418	0.000089
 346	3.4328e+01	6.8714	67.220329	0.000709	7.094262	1.201801	0.000142
 347	3.4427e+01	6.8914	67.329331	0.000547	5.472717	0.927103	0.000110
 348	3.4526e+01	6.9111	67.426223	0.000486	4.864637	0.824092	0.000097
 349	3.4626e+01	6.9309	67.527151	0.000507	5.067330	0.858429	0.000101
 350	3.4725e+01	6.9508	67.640191	0.000568	5.675410	0.961440	0.000114
 351	3.4825e+01	6.9714	67.781490	0.000709	7.094262	1.201801	0.000142
 352	3.4925e+01	6.9909	67.926827	0.000730	7.296956	1.236138	0.000146
 353	3.5024e+01	7.0110	67.979310	0.000264	2.635012	0.446383	0.000053
 354	3.5123e+01	7.0313	68.128684	0.000750	7.499649	1.270475	0.000150
 355	3.5223e+01	7.0502	68.241724	0.000568	5.675410	0.961440	0.000114
 356	3.5322e+01	7.0703	68.330541	0.000446	4.459251	0.755418	0.000089
 357	3.5422e+01	7.0904	68.431469	0.000507	5.067330	0.858429	0.000101
 358	3.5522e+01	7.1099	68.568732	0.000689	6.891569	1.167463	0.000138
 359	3.5621e+01	7.1290	68.681772	0.000568	5.675410	0.961440	0.000114
 360	3.5721e+01	7.1501	68.794812	0.000568	5.675410	0.961440	0.000114
 361	3.5820e+01	7.1700	68.928037	0.000669	6.688876	1.133126	0.000134
 362	3.5919e+01	7.1897	69.049151	0.000608	6.080796	1.030115	0.000122
 363	3.6019e+01	7.2097	69.146042	0.000486	4.864637	0.824092	0.000097
 364	3.6118e+01	7.2292	69.255045	0.000547	5.472717	0.927103	0.000110
 365	3.6218e+01	7.2495	69.404419	0.000750	7.499649	1.270475	0.000150
 366	3.6318e+01	7.2688	69.477087	0.000365	3.648478	0.618069	0.000073
 367	3.6417e+01	7.2903	69.606276	0.000649	6.486183	1.098789	0.000130
 368	3.6517e+01	7.3097	69.678944	0.000365	3.648478	0.618069	0.000073
 369	3.6616e+01	7.3293	69.800058	0.000608	6.080796	1.030115	0.000122
 370	3.6715e+01	7.3492	69.933284	0.000669	6.688876	1.133126	0.000134
 371	3.6815e+01	7.3689	70.026138	0.000466	4.661944	0.789755	0.000093
 372	3.6914e+01	7.3893	70.131103	0.000527	5.270023	0.892766	0.000105
 373	3.7014e+01	7.4088	70.248180	0.000588	5.878103	0.995778	0.000118
 374	3.7114e+01	7.4297	70.341035	0.000466	4.661944	0.789755	0.000093
 375	3.7213e+01	7.4482	70.482334	0.000709	7.094262	1.201801	0.000142
 376	3.7313e+01	7.4687	70.599411	0.000588	5.878103	0.995778	0.000118
 377	3.7412e+01	7.4894	70.708414	0.000547	5.472717	0.927103	0.000110
 378	3.7511e+01	7.5080	70.805305	0.000486	4.864637	0.824092	0.000097
 379	3.7611e+01	7.5285	70.890085	0.000426	4.256557	0.721080	0.000085
 380	3.7711e+01	7.5489	71.019273	0.000649	6.486183	1.098789	0.000130
 381	3.7810e+01	7.5697	71.136350	0.000588	5.878103	0.995778	0.000118
 382	3.7910e+01	7.5879	71.221130	0.000426	4.256557	0.721080	0.000085
 383	3.8009e+01	7.6086	71.346281	0.000628	6.283489	1.064452	0.000126
 384	3.8108e+01	7.6283	71.471433	0.000628	6.283489	1.064452	0.000126
 385	3.8208e+01	7.6485	71.604658	0.000669	6.688876	1.133126	0.000134
 386	3.8307e+01	7.6674	71.693475	0.000446	4.459251	0.755418	0.000089
 387	3.8407e+01	7.6873	71.786329	0.000466	4.661944	0.789755	0.000093
 388	3.8507e+01	7.7087	71.919555	0.000669	6.688876	1.133126	0.000134
 389	3.8606e+01	7.7289	72.048743	0.000649	6.486183	1.098789	0.000130
 390	3.8706e+01	7.7484	72.117374	0.000345	3.445785	0.583732	0.000069
 391	3.8805e+01	7.7677	72.202154	0.000426	4.256557	0.721080	0.000085
 392	3.8904e+01	7.7890	72.359602	0.000791	7.905035	1.339149	0.000158
 393	3.9004e+01	7.8084	72.452457	0.000466	4.661944	0.789755	0.000093
 394	3.9103e+01	7.8273	72.549348	0.000486	4.864637	0.824092	0.000097
 395	3.9203e+01	7.8478	72.690648	0.000709	7.094262	1.201801	0.000142
 396	3.9303e+01	7.8674	72.799650	0.000547	5.472717	0.927103	0.000110
 397	3.9402e+01	7.8872	72.872319	0.000365	3.648478	0.618069	0.000073
 398	3.9502e+01	7.9063	72.985358	0.000568	5.675410	0.961440	0.000114
 399	3.9601e+01	7.9270	73.122621	0.000689	6.891569	1.167463	0.000138
 400	3.9700e+01	7.9468	73.195289	0.000365	3.648478	0.618069	0.000073
 401	3.9800e+01	7.9668	73.324478	0.000649	6.486183	1.098789	0.000130
 402	3.9900e+01	7.9861	73.401183	0.000385	3.851171	0.652406	0.000077
 403	3.9999e+01	8.0069	73.558632	0.000791	7.905035	1.339149	0.000158
 404	4.0099e+01	8.0264	73.607077	0.000243	2.432319	0.412046	0.000049
 405	4.0198e+01	8.0463	73.703969	0.000486	4.864637	0.824092	0.000097
 406	4.0297e+01	8.0656	73.833157	0.000649	6.486183	1.098789	0.000130
 407	4.0397e+01	8.0865	73.938122	0.000527	5.270023	0.892766	0.000105
 408	4.0496e+01	8.1061	74.030977	0.000466	4.661944	0.789755	0.000093
 409	4.0596e+01	8.1261	74.180351	0.000750	7.499649	1.270475	0.000150
 410	4.0696e+01	8.1455	74.224759	0.000223	2.229625	0.377709	0.000045
 411	4.0795e+01	8.1654	74.341836	0.000588	5.878103	0.995778	0.000118
 412	4.0895e+01	8.1860	74.422579	0.000405	4.053864	0.686743	0.000081
 413	4.0994e+01	8.2050	74.483136	0.000304	3.040398	0.515057	0.000061
 414	4.1093e+01	8.2254	74.648658	0.000831	8.310422	1.407824	0.000166
 415	4.1193e+01	8.2453	74.761698	0.000568	5.675410	0.961440	0.000114
 416	4.1292e+01	8.2658	74.874738	0.000568	5.675410	0.961440	0.000114
 417	4.1392e+01	8.2861	74.959518	0.000426	4.256557	0.721080	0.000085
 418	4.1492e+01	8.3057	75.068520	0.000547	5.472717	0.927103	0.000110
 419	4.1591e+01	8.3252	75.185597	0.000588	5.878103	0.995778	0.000118
 420	4.1691e+01	8.3459	75.290563	0.000527	5.270023	0.892766	0.000105
 421	4.1790e+01	8.3659	75.391491	0.000507	5.067330	0.858429	0.000101
 422	4.1889e+01	8.3843	75.476271	0.000426	4.256557	0.721080	0.000085
 423	4.1989e+01	8.4045	75.585274	0.000547	5.472717	0.927103	0.000110
 424	4.2089e+01	8.4251	75.694277	0.000547	5.472717	0.927103	0.000110
 425	4.2188e+01	8.4452	75.783094	0.000446	4.459251	0.755418	0.000089
 426	4.2288e+01	8.4652	75.912282	0.000649	6.486183	1.098789	0.000130
 427	4.2387e+01	8.4842	76.013210	0.000507	5.067330	0.858429	0.000101
 428	4.2486e+01	8.5040	76.102027	0.000446	4.459251	0.755418	0.000089
 429	4.2586e+01	8.5254	76.227178	0.000628	6.283489	1.064452	0.000126
 430	4.2685e+01	8.5444	76.287735	0.000304	3.040398	0.515057	0.000061
 431	4.2785e+01	8.5645	76.433072	0.000730	7.296956	1.236138	0.000146
 432	4.2885e+01	8.5840	76.550149	0.000588	5.878103	0.995778	0.000118
 433	4.2984e+01	8.6042	76.626855	0.000385	3.851171	0.652406	0.000077
 434	4.3084e+01	8.6240	76.719709	0.000466	4.661944	0.789755	0.000093
 435	4.3183e+01	8.6437	76.856972	0.000689	6.891569	1.167463	0.000138
 436	4.3282e+01	8.6644	76.937714	0.000405	4.053864	0.686743	0.000081
 437	4.3382e+01	8.6835	77.034606	0.000486	4.864637	0.824092	0.000097
 438	4.3481e+01	8.7036	77.163794	0.000649	6.486183	1.098789	0.000130
 439	4.3581e+01	8.7237	77.236462	0.000365	3.648478	0.618069	0.000073
 440	4.3681e+01	8.7433	77.341428	0.000527	5.270023	0.892766	0.000105
 441	4.3780e+01	8.7634	77.482728	0.000709	7.094262	1.201801	0.000142
 442	4.3880e+01	8.7827	77.563470	0.000405	4.053864	0.686743	0.000081
 443	4.3979e+01	8.8028	77.672473	0.000547	5.472717	0.927103	0.000110
 444	4.4078e+01	8.8232	77.749179	0.000385	3.851171	0.652406	0.000077
 445	4.4178e+01	8.8428	77.842033	0.000466	4.661944	0.789755	0.000093
 446	4.4278e+01	8.8629	77.930850	0.000446	4.459251	0.755418	0.000089
 447	4.4377e+01	8.8825	78.068112	0.000689	6.891569	1.167463	0.000138
 448	4.4477e+01	8.9026	78.169041	0.000507	5.067330	0.858429	0.000101
 449	4.4576e+01	8.9222	78.274006	0.000527	5.270023	0.892766	0.000105
 450	4.4675e+01	8.9418	78.338600	0.000324	3.243091	0.549395	0.000065
 451	4.4775e+01	8.9629	78.492012	0.000770	7.702342	1.304812	0.000154
 452	4.4874e+01	8.9819	78.584866	0.000466	4.661944	0.789755	0.000093
 453	4.4974e+01	9.0025	78.641386	0.000284	2.837705	0.480720	0.000057
 454	4.5074e+01	9.0220	78.794797	0.000770	7.702342	1.304812	0.000154
 455	4.5173e+01	9.0418	78.883614	0.000446	4.459251	0.755418	0.000089
 456	4.5273e+01	9.0613	78.976468	0.000466	4.661944	0.789755	0.000093
 457	4.5372e+01	9.0808	79.069322	0.000466	4.661944	0.789755	0.000093
 458	4.5471e+01	9.1018	79.190436	0.000608	6.080796	1.030115	0.000122
 459	4.5571e+01	9.1212	79.287327	0.000486	4.864637	0.824092	0.000097
 460	4.5670e+01	9.1409	79.400367	0.000568	5.675410	0.961440	0.000114
 461	4.5770e+01	9.1610	79.468998	0.000345	3.445785	0.583732	0.000069
 462	4.5870e+01	9.1810	79.557815	0.000446	4.459251	0.755418	0.000089
 463	4.5969e+01	9.2013	79.678929	0.000608	6.080796	1.030115	0.000122
 464	4.6069e+01	9.2210	79.763709	0.000426	4.256557	0.721080	0.000085
 465	4.6168e+01	9.2408	79.888861	0.000628	6.283489	1.064452	0.000126
 466	4.6267e+01	9.2594	79.973640	0.000426	4.256557	0.721080	0.000085
 467	4.6367e+01	9.2804	80.066495	0.000466	4.661944	0.789755	0.000093
 468	4.6467e+01	9.2998	80.171460	0.000527	5.270023	0.892766	0.000105
 469	4.6566e+01	9.3203	80.260277	0.000446	4.459251	0.755418	0.000089
 470	4.6666e+01	9.3408	80.381391	0.000608	6.080796	1.030115	0.000122
 471	4.6765e+01	9.3606	80.450022	0.000345	3.445785	0.583732	0.000069
 472	4.6864e+01	9.3802	80.579211	0.000649	6.486183	1.098789	0.000130
 473	4.6964e+01	9.4007	80.655916	0.000385	3.851171	0.652406	0.000077
 474	4.7063e+01	9.4208	80.768956	0.000568	5.675410	0.961440	0.000114
 475	4.7163e+01	9.4403	80.881996	0.000568	5.675410	0.961440	0.000114
 476	4.7263e+01	9.4617	80.990999	0.000547	5.472717	0.927103	0.000110
 477	4.7362e+01	9.4795	81.100001	0.000547	5.472717	0.927103	0.000110
 478	4.7462e+01	9.4995	81.192855	0.000466	4.661944	0.789755	0.000093
 479	4.7561e+01	9.5199	81.313969	0.000608	6.080796	1.030115	0.000122
 480	4.7660e+01	9.5390	81.398749	0.000426	4.256557	0.721080	0.000085
 481	4.7760e+01	9.5593	81.507752	0.000547	5.472717	0.927103	0.000110
 482	4.7859e+01	9.5789	81.556198	0.000243	2.432319	0.412046	0.000049
 483	4.7959e+01	9.5996	81.713646	0.000791	7.905035	1.339149	0.000158
 484	4.8059e+01	9.6191	81.802463	0.000446	4.459251	0.755418	0.000089
 485	4.8158e+01	9.6391	81.899354	0.000486	4.864637	0.824092	0.000097
 486	4.8258e+01	9.6594	82.048728	0.000750	7.499649	1.270475	0.000150
 487	4.8357e+01	9.6790	82.121397	0.000365	3.648478	0.618069	0.000073
 488	4.8456e+01	9.6984	82.226362	0.000527	5.270023	0.892766	0.000105
 489	4.8556e+01	9.7192	82.327291	0.000507	5.067330	0.858429	0.000101
 490	4.8656e+01	9.7388	82.416108	0.000446	4.459251	0.755418	0.000089
 491	4.8755e+01	9.7579	82.529147	0.000568	5.675410	0.961440	0.000114
 492	4.8855e+01	9.7789	82.605853	0.000385	3.851171	0.652406	0.000077
 493	4.8954e+01	9.7998	82.731004	0.000628	6.283489	1.064452	0.000126
 494	4.9053e+01	9.8193	82.844044	0.000568	5.675410	0.961440	0.000114
 495	4.9153e+01	9.8360	82.908638	0.000324	3.243091	0.549395	0.000065
 496	4.9252e+01	9.8584	83.017641	0.000547	5.472717	0.927103	0.000110
 497	4.9352e+01	9.8785	83.114532	0.000486	4.864637	0.824092	0.000097
 498	4.9452e+01	9.8977	83.211423	0.000486	4.864637	0.824092	0.000097
 499	4.9551e+01	9.9177	83.316389	0.000527	5.270023	0.892766	0.000105
 500	4.9651e+01	9.9377	83.453651	0.000689	6.891569	1.167463	0.000138
 501	4.9750e+01	9.9575	83.530357	0.000385	3.851171	0.652406	0.000077
 502	4.9849e+01	9.9780	83.639360	0.000547	5.472717	0.927103	0.000110
 503	4.9949e+01	9.9979	83.744325	0.000527	5.270023	0.892766	0.000105
 504	5.0048e+01	9.9767	83.679731	0.000324	3.243091	0.549395	-0.000065
 505	5.0148e+01	9.9583	83.647434	0.000162	1.621546	0.274697	-0.000032
 506	5.0248e+01	9.9374	83.566691	0.000405	4.053864	0.686743	-0.000081
 507	5.0347e+01	9.9183	83.502097	0.000324	3.243091	0.549395	-0.000065
 508	5.0447e+01	9.8983	83.401169	0.000507	5.067330	0.858429	-0.000101
 509	5.0546e+01	9.8785	83.364834	0.000182	1.824239	0.309034	-0.000037
 510	5.0645e+01	9.8578	83.271980	0.000466	4.661944	0.789755	-0.000093
 511	5.0745e+01	9.8389	83.243720	0.000142	1.418852	0.240360	-0.000028
 512	5.0844e+01	9.8179	83.130681	0.000568	5.675410	0.961440	-0.000114
 513	5.0944e+01	9.7998	83.078198	0.000264	2.635012	0.446383	-0.000053
 514	5.1044e+01	9.7783	83.013604	0.000324	3.243091	0.549395	-0.000065
 515	5.1143e+01	9.7584	82.916712	0.000486	4.864637	0.824092	-0.000097
 516	5.1242e+01	9.7375	82.868267	0.000243	2.432319	0.412046	-0.000049
 517	5.1342e+01	9.7189	82.795598	0.000365	3.648478	0.618069	-0.000073
 518	5.1441e+01	9.6981	82.743116	0.000264	2.635012	0.446383	-0.000053
 519	5.1541e+01	9.6777	82.654299	0.000446	4.459251	0.755418	-0.000089
 520	5.1641e+01	9.6582	82.553370	0.000507	5.067330	0.858429	-0.000101
 521	5.1740e+01	9.6396	82.545296	0.000041	0.405386	0.068674	-0.000008
 522	5.1840e+01	9.6186	82.436293	0.000547	5.472717	0.927103	-0.000110
 523	5.1939e+01	9.5996	82.327291	0.000547	5.472717	0.927103	-0.000110
 524	5.2038e+01	9.5795	82.274808	0.000264	2.635012	0.446383	-0.000053
 525	5.2138e+01	9.5599	82.214251	0.000304	3.040398	0.515057	-0.000061
 526	5.2237e+01	9.5386	82.133508	0.000405	4.053864	0.686743	-0.000081
 527	5.2337e+01	9.5197	82.052765	0.000405	4.053864	0.686743	-0.000081
 528	5.2437e+01	9.4996	81.972023	0.000405	4.053864	0.686743	-0.000081
 529	5.2536e+01	9.4812	81.891280	0.000405	4.053864	0.686743	-0.000081
 530	5.2636e+01	9.4601	81.838797	0.000264	2.635012	0.446383	-0.000053
 531	5.2735e+01	9.4403	81.758054	0.000405	4.053864	0.686743	-0.000081
 532	5.2834e+01	9.4202	81.657126	0.000507	5.067330	0.858429	-0.000101
 533	5.2934e+01	9.4003	81.576383	0.000405	4.053864	0.686743	-0.000081
 534	5.3033e+01	9.3808	81.536012	0.000203	2.026932	0.343372	-0.000041
 535	5.3133e+01	9.3595	81.402786	0.000669	6.688876	1.133126	-0.000134
 536	5.3233e+01	9.3401	81.338192	0.000324	3.243091	0.549395	-0.000065
 537	5.3332e+01	9.3201	81.261487	0.000385	3.851171	0.652406	-0.000077
 538	5.3431e+01	9.3008	81.192855	0.000345	3.445785	0.583732	-0.000069
 539	5.3531e+01	9.2816	81.091927	0.000507	5.067330	0.858429	-0.000101
 540	5.3630e+01	9.2609	81.023296	0.000345	3.445785	0.583732	-0.000069
 541	5.3730e+01	9.2413	80.946590	0.000385	3.851171	0.652406	-0.000077
 542	5.3830e+01	9.2200	80.890070	0.000284	2.837705	0.480720	-0.000057
 543	5.3929e+01	9.1997	80.825476	0.000324	3.243091	0.549395	-0.000065
 544	5.4029e+01	9.1797	80.716473	0.000547	5.472717	0.927103	-0.000110
 545	5.4128e+01	9.1615	80.647842	0.000345	3.445785	0.583732	-0.000069
 546	5.4227e+01	9.1415	80.571136	0.000385	3.851171	0.652406	-0.000077
 547	5.4327e+01	9.1218	80.486357	0.000426	4.256557	0.721080	-0.000085
 548	5.4426e+01	9.1016	80.417725	0.000345	3.445785	0.583732	-0.000069
 549	5.4526e+01	9.0820	80.308723	0.000547	5.472717	0.927103	-0.000110
 550	5.4626e+01	9.0620	80.240091	0.000345	3.445785	0.583732	-0.000069
 551	5.4725e+01	9.0417	80.159349	0.000405	4.053864	0.686743	-0.000081
 552	5.4825e+01	9.0200	80.094754	0.000324	3.243091	0.549395	-0.000065
 553	5.4924e+01	9.0027	80.014012	0.000405	4.053864	0.686743	-0.000081
 554	5.5023e+01	8.9820	79.921158	0.000466	4.661944	0.789755	-0.000093
 555	5.5123e+01	8.9617	79.860601	0.000304	3.040398	0.515057	-0.000061
 556	5.5222e+01	8.9420	79.787932	0.000365	3.648478	0.618069	-0.000073
 557	5.5322e+01	8.9224	79.687004	0.000507	5.067330	0.858429	-0.000101
 558	5.5422e+01	8.9028	79.630484	0.000284	2.837705	0.480720	-0.000057
 559	5.5521e+01	8.8824	79.505333	0.000628	6.283489	1.064452	-0.000126
 560	5.5620e+01	8.8624	79.440738	0.000324	3.243091	0.549395	-0.000065
 561	5.5720e+01	8.8419	79.303476	0.000689	6.891569	1.167463	-0.000138
 562	5.5819e+01	8.8236	79.259067	0.000223	2.229625	0.377709	-0.000045
 563	5.5919e+01	8.8037	79.194473	0.000324	3.243091	0.549395	-0.000065
 564	5.6019e+01	8.7827	79.085471	0.000547	5.472717	0.927103	-0.000110
 565	5.6118e+01	8.7632	78.984542	0.000507	5.067330	0.858429	-0.000101
 566	5.6218e+01	8.7428	78.923985	0.000304	3.040398	0.515057	-0.000061
 567	5.6317e+01	8.7234	78.831131	0.000466	4.661944	0.789755	-0.000093
 568	5.6416e+01	8.7035	78.754425	0.000385	3.851171	0.652406	-0.000077
 569	5.6516e+01	8.6848	78.649460	0.000527	5.270023	0.892766	-0.000105
 570	5.6615e+01	8.6633	78.536420	0.000568	5.675410	0.961440	-0.000114
 571	5.6715e+01	8.6435	78.487974	0.000243	2.432319	0.412046	-0.000049
 572	5.6815e+01	8.6239	78.423380	0.000324	3.243091	0.549395	-0.000065
 573	5.6914e+01	8.6044	78.302266	0.000608	6.080796	1.030115	-0.000122
 574	5.7014e+01	8.5840	78.193264	0.000547	5.472717	0.927103	-0.000110
 575	5.7113e+01	8.5645	78.132707	0.000304	3.040398	0.515057	-0.000061
 576	5.7212e+01	8.5449	78.047927	0.000426	4.256557	0.721080	-0.000085
 577	5.7312e+01	8.5256	77.938924	0.000547	5.472717	0.927103	-0.000110
 578	5.7411e+01	8.5047	77.837996	0.000507	5.067330	0.858429	-0.000101
 579	5.7511e+01	8.4844	77.757253	0.000405	4.053864	0.686743	-0.000081
 580	5.7611e+01	8.4644	77.680547	0.000385	3.851171	0.652406	-0.000077
 581	5.7710e+01	8.4448	77.595767	0.000426	4.256557	0.721080	-0.000085
 582	5.7809e+01	8.4245	77.478691	0.000588	5.878103	0.995778	-0.000118
 583	5.7909e+01	8.4056	77.401985	0.000385	3.851171	0.652406	-0.000077
 584	5.8008e+01	8.3855	77.337391	0.000324	3.243091	0.549395	-0.000065
 585	5.8108e+01	8.3648	77.240500	0.000486	4.864637	0.824092	-0.000097
 586	5.8208e+01	8.3453	77.151683	0.000446	4.459251	0.755418	-0.000089
 587	5.8307e+01	8.3244	77.079014	0.000365	3.648478	0.618069	-0.000073
 588	5.8407e+01	8.3057	77.010383	0.000345	3.445785	0.583732	-0.000069
 589	5.8506e+01	8.2856	76.897343	0.000568	5.675410	0.961440	-0.000114
 590	5.8605e+01	8.2660	76.784303	0.000568	5.675410	0.961440	-0.000114
 591	5.8705e+01	8.2465	76.703560	0.000405	4.053864	0.686743	-0.000081
 592	5.8804e+01	8.2259	76.594558	0.000547	5.472717	0.927103	-0.000110
 593	5.8904e+01	8.2062	76.493629	0.000507	5.067330	0.858429	-0.000101
 594	5.9004e+01	8.1866	76.429035	0.000324	3.243091	0.549395	-0.000065
 595	5.9103e+01	8.1658	76.368478	0.000304	3.040398	0.515057	-0.000061
 596	5.9203e+01	8.1458	76.239290	0.000649	6.486183	1.098789	-0.000130
 597	5.9302e+01	8.1258	76.166621	0.000365	3.648478	0.618069	-0.000073
 598	5.9401e+01	8.1065	76.085879	0.000405	4.053864	0.686743	-0.000081
 599	5.9501e+01	8.0860	75.984950	0.000507	5.067330	0.858429	-0.000101
 600	5.9600e+01	8.0665	75.904208	0.000405	4.053864	0.686743	-0.000081
 601	5.9700e+01	8.0461	75.823465	0.000405	4.053864	0.686743	-0.000081
 602	5.9800e+01	8.0268	75.710425	0.000568	5.675410	0.961440	-0.000114
 603	5.9899e+01	8.0073	75.609497	0.000507	5.067330	0.858429	-0.000101
 604	5.9998e+01	7.9876	75.508568	0.000507	5.067330	0.858429	-0.000101
 605	6.0098e+01	7.9672	75.448011	0.000304	3.040398	0.515057	-0.000061
 606	6.0197e+01	7.9469	75.298637	0.000750	7.499649	1.270475	-0.000150
 607	6.0297e+01	7.9272	75.266340	0.000162	1.621546	0.274697	-0.000032
 608	6.0397e+01	7.9070	75.177523	0.000446	4.459251	0.755418	-0.000089
 609	6.0496e+01	7.8872	75.116966	0.000304	3.040398	0.515057	-0.000061
 610	6.0596e+01	7.8663	74.999889	0.000588	5.878103	0.995778	-0.000118
 611	6.0695e+01	7.8468	74.870701	0.000649	6.486183	1.098789	-0.000130
 612	6.0794e+01	7.8278	74.798032	0.000365	3.648478	0.618069	-0.000073
 613	6.0894e+01	7.8085	74.713253	0.000426	4.256557	0.721080	-0.000085
 614	6.0993e+01	7.7859	74.620398	0.000466	4.661944	0.789755	-0.000093
 615	6.1093e+01	7.7676	74.543693	0.000385	3.851171	0.652406	-0.000077
 616	6.1193e+01	7.7487	74.430653	0.000568	5.675410	0.961440	-0.000114
 617	6.1292e+01	7.7279	74.325688	0.000527	5.270023	0.892766	-0.000105
 618	6.1392e+01	7.7084	74.240908	0.000426	4.256557	0.721080	-0.000085
 619	6.1491e+01	7.6880	74.196499	0.000223	2.229625	0.377709	-0.000045
 620	6.1590e+01	7.6675	74.079422	0.000588	5.878103	0.995778	-0.000118
 621	6.1690e+01	7.6482	73.966382	0.000568	5.675410	0.961440	-0.000114
 622	6.1789e+01	7.6277	73.865454	0.000507	5.067330	0.858429	-0.000101
 623	6.1889e+01	7.6080	73.829120	0.000182	1.824239	0.309034	-0.000037
 624	6.1989e+01	7.5887	73.712043	0.000588	5.878103	0.995778	-0.000118
 625	6.2088e+01	7.5697	73.594966	0.000588	5.878103	0.995778	-0.000118
 626	6.2188e+01	7.5476	73.506149	0.000446	4.459251	0.755418	-0.000089
 627	6.2287e+01	7.5293	73.405221	0.000507	5.067330	0.858429	-0.000101
 628	6.2386e+01	7.5082	73.288144	0.000588	5.878103	0.995778	-0.000118
 629	6.2486e+01	7.4892	73.231624	0.000284	2.837705	0.480720	-0.000057
 630	6.2586e+01	7.4684	73.106473	0.000628	6.283489	1.064452	-0.000126
 631	6.2685e+01	7.4483	73.029767	0.000385	3.851171	0.652406	-0.000077
 632	6.2785e+01	7.4301	72.932876	0.000486	4.864637	0.824092	-0.000097
 633	6.2884e+01	7.4107	72.844059	0.000446	4.459251	0.755418	-0.000089
 634	6.2983e+01	7.3901	72.706796	0.000689	6.891569	1.167463	-0.000138
 635	6.3083e+01	7.3683	72.617979	0.000446	4.459251	0.755418	-0.000089
 636	6.3182e+01	7.3486	72.525125	0.000466	4.661944	0.789755	-0.000093
 637	6.3282e+01	7.3301	72.428234	0.000486	4.864637	0.824092	-0.000097
 638	6.3382e+01	7.3103	72.363640	0.000324	3.243091	0.549395	-0.000065
 639	6.3481e+01	7.2892	72.226377	0.000689	6.891569	1.167463	-0.000138
 640	6.3581e+01	7.2692	72.149671	0.000385	3.851171	0.652406	-0.000077
 641	6.3680e+01	7.2491	72.060854	0.000446	4.459251	0.755418	-0.000089
 642	6.3779e+01	7.2286	71.923592	0.000689	6.891569	1.167463	-0.000138
 643	6.3879e+01	7.2097	71.899369	0.000122	1.216159	0.206023	-0.000024
 644	6.3978e+01	7.1893	71.770181	0.000649	6.486183	1.098789	-0.000130
 645	6.4078e+01	7.1691	71.705586	0.000324	3.243091	0.549395	-0.000065
 646	6.4177e+01	7.1500	71.588509	0.000588	5.878103	0.995778	-0.000118
 647	6.4277e+01	7.1318	71.499692	0.000446	4.459251	0.755418	-0.000089
 648	6.4376e+01	7.1099	71.402801	0.000486	4.864637	0.824092	-0.000097
 649	6.4476e+01	7.0929	71.309947	0.000466	4.661944	0.789755	-0.000093
 650	6.4576e+01	7.0702	71.204982	0.000527	5.270023	0.892766	-0.000105
 651	6.4675e+01	7.0509	71.136350	0.000345	3.445785	0.583732	-0.000069
 652	6.4775e+01	7.0325	71.007162	0.000649	6.486183	1.098789	-0.000130
 653	6.4874e+01	7.0110	70.934493	0.000365	3.648478	0.618069	-0.000073
 654	6.4974e+01	6.9909	70.837602	0.000486	4.864637	0.824092	-0.000097
 655	6.5073e+01	6.9704	70.760897	0.000385	3.851171	0.652406	-0.000077
 656	6.5172e+01	6.9501	70.639783	0.000608	6.080796	1.030115	-0.000122
 657	6.5272e+01	6.9312	70.555003	0.000426	4.256557	0.721080	-0.000085
 658	6.5371e+01	6.9109	70.393517	0.000811	8.107728	1.373486	-0.000162
 659	6.5471e+01	6.8908	70.328923	0.000324	3.243091	0.549395	-0.000065
 660	6.5570e+01	6.8687	70.227995	0.000507	5.067330	0.858429	-0.000101
 661	6.5670e+01	6.8517	70.175512	0.000264	2.635012	0.446383	-0.000053
 662	6.5769e+01	6.8315	70.046324	0.000649	6.486183	1.098789	-0.000130
 663	6.5869e+01	6.8116	69.985767	0.000304	3.040398	0.515057	-0.000061
 664	6.5969e+01	6.7907	69.884838	0.000507	5.067330	0.858429	-0.000101
 665	6.6068e+01	6.7730	69.755650	0.000649	6.486183	1.098789	-0.000130
 666	6.6168e+01	6.7513	69.699130	0.000284	2.837705	0.480720	-0.000057
 667	6.6267e+01	6.7326	69.557830	0.000709	7.094262	1.201801	-0.000142
 668	6.6367e+01	6.7123	69.485162	0.000365	3.648478	0.618069	-0.000073
 669	6.6466e+01	6.6920	69.408456	0.000385	3.851171	0.652406	-0.000077
 670	6.6566e+01	6.6726	69.291379	0.000588	5.878103	0.995778	-0.000118
 671	6.6665e+01	6.6521	69.182377	0.000547	5.472717	0.927103	-0.000110
 672	6.6764e+01	6.6323	69.097597	0.000426	4.256557	0.721080	-0.000085
 673	6.6864e+01	6.6123	68.968408	0.000649	6.486183	1.098789	-0.000130
 674	6.6963e+01	6.5925	68.875554	0.000466	4.661944	0.789755	-0.000093
 675	6.7063e+01	6.5727	68.758477	0.000588	5.878103	0.995778	-0.000118
 676	6.7162e+01	6.5522	68.673697	0.000426	4.256557	0.721080	-0.000085
 677	6.7262e+01	6.5322	68.601029	0.000365	3.648478	0.618069	-0.000073
 678	6.7362e+01	6.5129	68.496063	0.000527	5.270023	0.892766	-0.000105
 679	6.7461e+01	6.4927	68.407247	0.000446	4.459251	0.755418	-0.000089
 680	6.7561e+01	6.4725	68.245761	0.000811	8.107728	1.373486	-0.000162
 681	6.7660e+01	6.4539	68.209427	0.000182	1.824239	0.309034	-0.000037
 682	6.7760e+01	6.4330	68.116573	0.000466	4.661944	0.789755	-0.000093
 683	6.7859e+01	6.4127	67.987384	0.000649	6.486183	1.098789	-0.000130
 684	6.7959e+01	6.3927	67.878382	0.000547	5.472717	0.927103	-0.000110
 685	6.8058e+01	6.3729	67.781490	0.000486	4.864637	0.824092	-0.000097
 686	6.8157e+01	6.3531	67.692673	0.000446	4.459251	0.755418	-0.000089
 687	6.8257e+01	6.3331	67.547337	0.000730	7.296956	1.236138	-0.000146
 688	6.8356e+01	6.3136	67.498891	0.000243	2.432319	0.412046	-0.000049
 689	6.8456e+01	6.2936	67.377777	0.000608	6.080796	1.030115	-0.000122
 690	6.8555e+01	6.2734	67.268774	0.000547	5.472717	0.927103	-0.000110
 691	6.8655e+01	6.2539	67.147660	0.000608	6.080796	1.030115	-0.000122
 692	6.8754e+01	6.2347	67.070955	0.000385	3.851171	0.652406	-0.000077
 693	6.8854e+01	6.2151	66.998286	0.000365	3.648478	0.618069	-0.000073
 694	6.8954e+01	6.1952	66.816615	0.000912	9.121194	1.545172	-0.000183
 695	6.9053e+01	6.1747	66.760095	0.000284	2.837705	0.480720	-0.000057
 696	6.9153e+01	6.1549	66.663204	0.000486	4.864637	0.824092	-0.000097
 697	6.9252e+01	6.1350	66.529978	0.000669	6.688876	1.133126	-0.000134
 698	6.9352e+01	6.1150	66.473458	0.000284	2.837705	0.480720	-0.000057
 699	6.9451e+01	6.0950	66.336196	0.000689	6.891569	1.167463	-0.000138
 700	6.9550e+01	6.0751	66.239305	0.000486	4.864637	0.824092	-0.000097
 701	6.9650e+01	6.0549	66.118191	0.000608	6.080796	1.030115	-0.000122
 702	6.9749e+01	6.0339	66.037448	0.000405	4.053864	0.686743	-0.000081
 703	6.9849e+01	6.0157	65.948631	0.000446	4.459251	0.755418	-0.000089
 704	6.9948e+01	5.9957	65.827517	0.000608	6.080796	1.030115	-0.000122
 705	7.0048e+01	5.9763	65.718514	0.000547	5.472717	0.927103	-0.000110
 706	7.0147e+01	5.9551	65.589326	0.000649	6.486183	1.098789	-0.000130
 707	7.0247e+01	5.9350	65.512620	0.000385	3.851171	0.652406	-0.000077
 708	7.0347e+01	5.9162	65.415729	0.000486	4.864637	0.824092	-0.000097
 709	7.0446e+01	5.8959	65.302689	0.000568	5.675410	0.961440	-0.000114
 710	7.0546e+01	5.8758	65.197724	0.000527	5.270023	0.892766	-0.000105
 711	7.0645e+01	5.8559	65.096795	0.000507	5.067330	0.858429	-0.000101
 712	7.0745e+01	5.8360	65.016052	0.000405	4.053864	0.686743	-0.000081
 713	7.0844e+01	5.8164	64.903013	0.000568	5.675410	0.961440	-0.000114
 714	7.0944e+01	5.7952	64.773824	0.000649	6.486183	1.098789	-0.000130
 715	7.1043e+01	5.7757	64.664822	0.000547	5.472717	0.927103	-0.000110
 716	7.1142e+01	5.7554	64.567930	0.000486	4.864637	0.824092	-0.000097
 717	7.1242e+01	5.7374	64.462965	0.000527	5.270023	0.892766	-0.000105
 718	7.1341e+01	5.7165	64.349925	0.000568	5.675410	0.961440	-0.000114
 719	7.1441e+01	5.6954	64.281294	0.000345	3.445785	0.583732	-0.000069
 720	7.1540e+01	5.6763	64.160180	0.000608	6.080796	1.030115	-0.000122
 721	7.1640e+01	5.6561	64.022917	0.000689	6.891569	1.167463	-0.000138
 722	7.1740e+01	5.6356	63.934100	0.000446	4.459251	0.755418	-0.000089
 723	7.1839e+01	5.6171	63.841246	0.000466	4.661944	0.789755	-0.000093
 724	7.1939e+01	5.5965	63.752429	0.000446	4.459251	0.755418	-0.000089
 725	7.2038e+01	5.5775	63.611129	0.000709	7.094262	1.201801	-0.000142
 726	7.2138e+01	5.5558	63.518275	0.000466	4.661944	0.789755	-0.000093
 727	7.2237e+01	5.5367	63.421384	0.000486	4.864637	0.824092	-0.000097
 728	7.2337e+01	5.5173	63.304307	0.000588	5.878103	0.995778	-0.000118
 729	7.2436e+01	5.4974	63.223564	0.000405	4.053864	0.686743	-0.000081
 730	7.2535e+01	5.4769	63.058042	0.000831	8.310422	1.407824	-0.000166
 731	7.2635e+01	5.4575	62.981336	0.000385	3.851171	0.652406	-0.000077
 732	7.2734e+01	5.4374	62.868296	0.000568	5.675410	0.961440	-0.000114
 733	7.2834e+01	5.4176	62.759294	0.000547	5.472717	0.927103	-0.000110
 734	7.2933e+01	5.3974	62.626068	0.000669	6.688876	1.133126	-0.000134
 735	7.3033e+01	5.3785	62.541288	0.000426	4.256557	0.721080	-0.000085
 736	7.3132e+01	5.3576	62.408063	0.000669	6.688876	1.133126	-0.000134
 737	7.3232e+01	5.3381	62.299060	0.000547	5.472717	0.927103	-0.000110
 738	7.3332e+01	5.3167	62.173909	0.000628	6.283489	1.064452	-0.000126
 739	7.3431e+01	5.2983	62.089129	0.000426	4.256557	0.721080	-0.000085
 740	7.3531e+01	5.2784	61.943792	0.000730	7.296956	1.236138	-0.000146
 741	7.3630e+01	5.2581	61.842864	0.000507	5.067330	0.858429	-0.000101
 742	7.3730e+01	5.2386	61.713675	0.000649	6.486183	1.098789	-0.000130
 743	7.3829e+01	5.2186	61.616784	0.000486	4.864637	0.824092	-0.000097
 744	7.3928e+01	5.1990	61.499707	0.000588	5.878103	0.995778	-0.000118
 745	7.4028e+01	5.1821	61.362445	0.000689	6.891569	1.167463	-0.000138
 746	7.4127e+01	5.1582	61.221145	0.000709	7.094262	1.201801	-0.000142
 747	7.4227e+01	5.1382	61.120217	0.000507	5.067330	0.858429	-0.000101
 748	7.4326e+01	5.1176	61.039474	0.000405	4.053864	0.686743	-0.000081
 749	7.4426e+01	5.0990	60.934508	0.000527	5.270023	0.892766	-0.000105
 750	7.4525e+01	5.0790	60.809357	0.000628	6.283489	1.064452	-0.000126
 751	7.4625e+01	5.0591	60.672094	0.000689	6.891569	1.167463	-0.000138
 752	7.4725e+01	5.0388	60.563092	0.000547	5.472717	0.927103	-0.000110
 753	7.4824e+01	5.0201	60.462163	0.000507	5.067330	0.858429	-0.000101
 754	7.4924e+01	5.0000	60.349124	0.000568	5.675410	0.961440	-0.000114
 755	7.5023e+01	4.9794	60.240121	0.000547	5.472717	0.927103	-0.000110
 756	7.5123e+01	4.9596	60.110933	0.000649	6.486183	1.098789	-0.000130
 757	7.5222e+01	4.9405	59.993856	0.000588	5.878103	0.995778	-0.000118
 758	7.5322e+01	4.9194	59.909076	0.000426	4.256557	0.721080	-0.000085
 759	7.5421e+01	4.9004	59.800073	0.000547	5.472717	0.927103	-0.000110
 760	7.5520e+01	4.8806	59.674922	0.000628	6.283489	1.064452	-0.000126
 761	7.5620e+01	4.8608	59.569956	0.000527	5.270023	0.892766	-0.000105
 762	7.5719e+01	4.8414	59.444805	0.000628	6.283489	1.064452	-0.000126
 763	7.5819e+01	4.8208	59.335803	0.000547	5.472717	0.927103	-0.000110
 764	7.5918e+01	4.8006	59.242948	0.000466	4.661944	0.789755	-0.000093
 765	7.6018e+01	4.7805	59.081463	0.000811	8.107728	1.373486	-0.000162
 766	7.6118e+01	4.7591	58.972460	0.000547	5.472717	0.927103	-0.000110
 767	7.6217e+01	4.7397	58.855383	0.000588	5.878103	0.995778	-0.000118
 768	7.6317e+01	4.7208	58.746381	0.000547	5.472717	0.927103	-0.000110
 769	7.6416e+01	4.7009	58.645452	0.000507	5.067330	0.858429	-0.000101
 770	7.6516e+01	4.6804	58.488004	0.000791	7.905035	1.339149	-0.000158
 771	7.6615e+01	4.6609	58.403224	0.000426	4.256557	0.721080	-0.000085
 772	7.6715e+01	4.6405	58.278073	0.000628	6.283489	1.064452	-0.000126
 773	7.6814e+01	4.6203	58.173107	0.000527	5.270023	0.892766	-0.000105
 774	7.6913e+01	4.6004	58.031808	0.000709	7.094262	1.201801	-0.000142
 775	7.7013e+01	4.5802	57.930879	0.000507	5.067330	0.858429	-0.000101
 776	7.7112e+01	4.5606	57.805728	0.000628	6.283489	1.064452	-0.000126
 777	7.7212e+01	4.5411	57.680577	0.000628	6.283489	1.064452	-0.000126
 778	7.7311e+01	4.5213	57.583686	0.000486	4.864637	0.824092	-0.000097
 779	7.7411e+01	4.5016	57.462572	0.000608	6.080796	1.030115	-0.000122
 780	7.7510e+01	4.4814	57.321272	0.000709	7.094262	1.201801	-0.000142
 781	7.7610e+01	4.4614	57.244566	0.000385	3.851171	0.652406	-0.000077
 782	7.7710e+01	4.4418	57.062895	0.000912	9.121194	1.545172	-0.000183
 783	7.7809e+01	4.4215	56.961967	0.000507	5.067330	0.858429	-0.000101
 784	7.7909e+01	4.4015	56.824704	0.000689	6.891569	1.167463	-0.000138
 785	7.8008e+01	4.3822	56.719739	0.000527	5.270023	0.892766	-0.000105
 786	7.8108e+01	4.3627	56.614773	0.000527	5.270023	0.892766	-0.000105
 787	7.8207e+01	4.3419	56.521919	0.000466	4.661944	0.789755	-0.000093
 788	7.8306e+01	4.3218	56.348322	0.000872	8.715808	1.476498	-0.000174
 789	7.8406e+01	4.3030	56.275654	0.000365	3.648478	0.618069	-0.000073
 790	7.8505e+01	4.2823	56.162614	0.000568	5.675410	0.961440	-0.000114
 791	7.8605e+01	4.2628	56.013240	0.000750	7.499649	1.270475	-0.000150
 792	7.8704e+01	4.2422	55.892126	0.000608	6.080796	1.030115	-0.000122
 793	7.8804e+01	4.2228	55.758900	0.000669	6.688876	1.133126	-0.000134
 794	7.8903e+01	4.2022	55.657972	0.000507	5.067330	0.858429	-0.000101
 795	7.9003e+01	4.1830	55.548969	0.000547	5.472717	0.927103	-0.000110
 796	7.9103e+01	4.1627	55.411707	0.000689	6.891569	1.167463	-0.000138
 797	7.9202e+01	4.1427	55.330964	0.000405	4.053864	0.686743	-0.000081
 798	7.9302e+01	4.1232	55.153330	0.000892	8.918501	1.510835	-0.000179
 799	7.9401e+01	4.1036	55.036253	0.000588	5.878103	0.995778	-0.000118
 800	7.9501e+01	4.0819	54.919176	0.000588	5.878103	0.995778	-0.000118
 801	7.9600e+01	4.0633	54.777876	0.000709	7.094262	1.201801	-0.000142
 802	7.9700e+01	4.0430	54.636577	0.000709	7.094262	1.201801	-0.000142
 803	7.9799e+01	4.0231	54.531611	0.000527	5.270023	0.892766	-0.000105
 804	7.9898e+01	4.0030	54.434720	0.000486	4.864637	0.824092	-0.000097
 805	7.9998e+01	3.9834	54.293420	0.000709	7.094262	1.201801	-0.000142
 806	8.0097e+01	3.9640	54.232863	0.000304	3.040398	0.515057	-0.000061
 807	8.0197e+01	3.9434	54.055229	0.000892	8.918501	1.510835	-0.000179
 808	8.0296e+01	3.9220	53.901818	0.000770	7.702342	1.304812	-0.000154
 809	8.0396e+01	3.9040	53.817038	0.000426	4.256557	0.721080	-0.000085
 810	8.0496e+01	3.8831	53.699961	0.000588	5.878103	0.995778	-0.000118
 811	8.0595e+01	3.8634	53.554624	0.000730	7.296956	1.236138	-0.000146
 812	8.0695e+01	3.8433	53.453696	0.000507	5.067330	0.858429	-0.000101
 813	8.0794e+01	3.8235	53.288173	0.000831	8.310422	1.407824	-0.000166
 814	8.0894e+01	3.8026	53.199356	0.000446	4.459251	0.755418	-0.000089
 815	8.0993e+01	3.7835	53.066131	0.000669	6.688876	1.133126	-0.000134
 816	8.1093e+01	3.7648	52.961165	0.000527	5.270023	0.892766	-0.000105
 817	8.1192e+01	3.7446	52.819865	0.000709	7.094262	1.201801	-0.000142
 818	8.1291e+01	3.7234	52.706826	0.000568	5.675410	0.961440	-0.000114
 819	8.1391e+01	3.7041	52.569563	0.000689	6.891569	1.167463	-0.000138
 820	8.1490e+01	3.6845	52.476709	0.000466	4.661944	0.789755	-0.000093
 821	8.1590e+01	3.6655	52.327335	0.000750	7.499649	1.270475	-0.000150
 822	8.1689e+01	3.6452	52.194109	0.000669	6.688876	1.133126	-0.000134
 823	8.1789e+01	3.6247	52.101255	0.000466	4.661944	0.789755	-0.000093
 824	8.1888e+01	3.6049	51.947844	0.000770	7.702342	1.304812	-0.000154
 825	8.1988e+01	3.5854	51.822693	0.000628	6.283489	1.064452	-0.000126
 826	8.2088e+01	3.5648	51.741950	0.000405	4.053864	0.686743	-0.000081
 827	8.2187e+01	3.5455	51.596613	0.000730	7.296956	1.236138	-0.000146
 828	8.2287e+01	3.5257	51.463388	0.000669	6.688876	1.133126	-0.000134
 829	8.2386e+01	3.5049	51.362459	0.000507	5.067330	0.858429	-0.000101
 830	8.2486e+01	3.4859	51.221160	0.000709	7.094262	1.201801	-0.000142
 831	8.2585e+01	3.4651	51.091971	0.000649	6.486183	1.098789	-0.000130
 832	8.2684e+01	3.4461	50.974894	0.000588	5.878103	0.995778	-0.000118
 833	8.2784e+01	3.4266	50.845706	0.000649	6.486183	1.098789	-0.000130
 834	8.2883e+01	3.4054	50.704406	0.000709	7.094262	1.201801	-0.000142
 835	8.2983e+01	3.3858	50.591367	0.000568	5.675410	0.961440	-0.000114
 836	8.3082e+01	3.3662	50.474290	0.000588	5.878103	0.995778	-0.000118
 837	8.3182e+01	3.3468	50.316841	0.000791	7.905035	1.339149	-0.000158
 838	8.3281e+01	3.3251	50.228024	0.000446	4.459251	0.755418	-0.000089
 839	8.3381e+01	3.3058	50.090762	0.000689	6.891569	1.167463	-0.000138
 840	8.3481e+01	3.2865	49.961573	0.000649	6.486183	1.098789	-0.000130
 841	8.3580e+01	3.2658	49.808162	0.000770	7.702342	1.304812	-0.000154
 842	8.3680e+01	3.2458	49.707234	0.000507	5.067330	0.858429	-0.000101
 843	8.3779e+01	3.2262	49.578045	0.000649	6.486183	1.098789	-0.000130
 844	8.3879e+01	3.2064	49.460968	0.000588	5.878103	0.995778	-0.000118
 845	8.3978e+01	3.1859	49.311594	0.000750	7.499649	1.270475	-0.000150
 846	8.4078e+01	3.1664	49.174332	0.000689	6.891569	1.167463	-0.000138
 847	8.4177e+01	3.1472	49.093589	0.000405	4.053864	0.686743	-0.000081
 848	8.4276e+01	3.1264	48.932104	0.000811	8.107728	1.373486	-0.000162
 849	8.4376e+01	3.1073	48.790804	0.000709	7.094262	1.201801	-0.000142
 850	8.4475e+01	3.0870	48.633356	0.000791	7.905035	1.339149	-0.000158
 851	8.4575e+01	3.0672	48.540502	0.000466	4.661944	0.789755	-0.000093
 852	8.4674e+01	3.0468	48.407276	0.000669	6.688876	1.133126	-0.000134
 853	8.4774e+01	3.0264	48.261939	0.000730	7.296956	1.236138	-0.000146
 854	8.4874e+01	3.0073	48.144862	0.000588	5.878103	0.995778	-0.000118
 855	8.4973e+01	2.9881	48.015674	0.000649	6.486183	1.098789	-0.000130
 856	8.5073e+01	2.9665	47.894560	0.000608	6.080796	1.030115	-0.000122
 857	8.5172e+01	2.9472	47.733074	0.000811	8.107728	1.373486	-0.000162
 858	8.5272e+01	2.9274	47.644257	0.000446	4.459251	0.755418	-0.000089
 859	8.5371e+01	2.9082	47.523143	0.000608	6.080796	1.030115	-0.000122
 860	8.5471e+01	2.8870	47.353584	0.000851	8.513115	1.442161	-0.000170
 861	8.5570e+01	2.8677	47.208247	0.000730	7.296956	1.236138	-0.000146
 862	8.5669e+01	2.8481	47.079058	0.000649	6.486183	1.098789	-0.000130
 863	8.5769e+01	2.8270	46.949870	0.000649	6.486183	1.098789	-0.000130
 864	8.5868e+01	2.8085	46.812607	0.000689	6.891569	1.167463	-0.000138
 865	8.5968e+01	2.7880	46.667271	0.000730	7.296956	1.236138	-0.000146
 866	8.6067e+01	2.7679	46.570379	0.000486	4.864637	0.824092	-0.000097
 867	8.6167e+01	2.7483	46.437154	0.000669	6.688876	1.133126	-0.000134
 868	8.6266e+01	2.7277	46.316040	0.000608	6.080796	1.030115	-0.000122
 869	8.6366e+01	2.7082	46.170703	0.000730	7.296956	1.236138	-0.000146
 870	8.6466e+01	2.6887	45.989032	0.000912	9.121194	1.545172	-0.000183
 871	8.6565e+01	2.6685	45.892141	0.000486	4.864637	0.824092	-0.000097
 872	8.6665e+01	2.6476	45.718544	0.000872	8.715808	1.476498	-0.000174
 873	8.6764e+01	2.6300	45.625690	0.000466	4.661944	0.789755	-0.000093
 874	8.6864e+01	2.6083	45.540910	0.000426	4.256557	0.721080	-0.000085
 875	8.6963e+01	2.5885	45.355201	0.000932	9.323888	1.579509	-0.000187
 876	8.7063e+01	2.5689	45.258310	0.000486	4.864637	0.824092	-0.000097
 877	8.7162e+01	2.5481	45.100862	0.000791	7.905035	1.339149	-0.000158
 878	8.7261e+01	2.5295	44.967636	0.000669	6.688876	1.133126	-0.000134
 879	8.7361e+01	2.5097	44.822300	0.000730	7.296956	1.236138	-0.000146
 880	8.7460e+01	2.4894	44.709260	0.000568	5.675410	0.961440	-0.000114
 881	8.7560e+01	2.4693	44.543737	0.000831	8.310422	1.407824	-0.000166
 882	8.7659e+01	2.4499	44.378215	0.000831	8.310422	1.407824	-0.000166
 883	8.7759e+01	2.4300	44.289398	0.000446	4.459251	0.755418	-0.000089
 884	8.7859e+01	2.4101	44.156172	0.000669	6.688876	1.133126	-0.000134
 885	8.7958e+01	2.3904	43.986612	0.000851	8.513115	1.442161	-0.000170
 886	8.8058e+01	2.3696	43.857424	0.000649	6.486183	1.098789	-0.000130
 887	8.8157e+01	2.3495	43.679790	0.000892	8.918501	1.510835	-0.000179
 888	8.8257e+01	2.3288	43.595010	0.000426	4.256557	0.721080	-0.000085
 889	8.8356e+01	2.3098	43.469859	0.000628	6.283489	1.064452	-0.000126
 890	8.8456e+01	2.2903	43.328559	0.000709	7.094262	1.201801	-0.000142
 891	8.8555e+01	2.2686	43.167074	0.000811	8.107728	1.373486	-0.000162
 892	8.8654e+01	2.2498	43.074220	0.000466	4.661944	0.789755	-0.000093
 893	8.8754e+01	2.2298	42.928883	0.000730	7.296956	1.236138	-0.000146
 894	8.8853e+01	2.2104	42.819880	0.000547	5.472717	0.927103	-0.000110
 895	8.8953e+01	2.1908	42.642246	0.000892	8.918501	1.510835	-0.000179
 896	8.9052e+01	2.1706	42.504984	0.000689	6.891569	1.167463	-0.000138
 897	8.9152e+01	2.1514	42.375795	0.000649	6.486183	1.098789	-0.000130
 898	8.9251e+01	2.1307	42.234496	0.000709	7.094262	1.201801	-0.000142
 899	8.9351e+01	2.1105	42.097233	0.000689	6.891569	1.167463	-0.000138
 900	8.9451e+01	2.0913	41.943822	0.000770	7.702342	1.304812	-0.000154
 901	8.9550e+01	2.0708	41.826745	0.000588	5.878103	0.995778	-0.000118
 902	8.9650e+01	2.0512	41.681408	0.000730	7.296956	1.236138	-0.000146
 903	8.9749e+01	2.0316	41.523960	0.000791	7.905035	1.339149	-0.000158
 904	8.9849e+01	2.0110	41.374586	0.000750	7.499649	1.270475	-0.000150
 905	8.9948e+01	1.9911	41.209063	0.000831	8.310422	1.407824	-0.000166
 906	9.0047e+01	1.9711	41.075838	0.000669	6.688876	1.133126	-0.000134
 907	9.0147e+01	1.9512	40.954723	0.000608	6.080796	1.030115	-0.000122
 908	9.0246e+01	1.9311	40.789201	0.000831	8.310422	1.407824	-0.000166
 909	9.0346e+01	1.9113	40.639827	0.000750	7.499649	1.270475	-0.000150
 910	9.0445e+01	1.8924	40.526787	0.000568	5.675410	0.961440	-0.000114
 911	9.0545e+01	1.8719	40.393562	0.000669	6.688876	1.133126	-0.000134
 912	9.0644e+01	1.8515	40.224002	0.000851	8.513115	1.442161	-0.000170
 913	9.0744e+01	1.8317	40.078665	0.000730	7.296956	1.236138	-0.000146
 914	9.0844e+01	1.8114	39.905068	0.000872	8.715808	1.476498	-0.000174
 915	9.0943e+01	1.7920	39.787991	0.000588	5.878103	0.995778	-0.000118
 916	9.1043e+01	1.7708	39.646692	0.000709	7.094262	1.201801	-0.000142
 917	9.1142e+01	1.7513	39.493280	0.000770	7.702342	1.304812	-0.000154
 918	9.1242e+01	1.7326	39.343906	0.000750	7.499649	1.270475	-0.000150
 919	9.1341e+01	1.7134	39.190495	0.000770	7.702342	1.304812	-0.000154
 920	9.1441e+01	1.6918	39.093604	0.000486	4.864637	0.824092	-0.000097
 921	9.1540e+01	1.6727	38.907896	0.000932	9.323888	1.579509	-0.000187
 922	9.1639e+01	1.6528	38.794856	0.000568	5.675410	0.961440	-0.000114
 923	9.1739e+01	1.6333	38.625296	0.000851	8.513115	1.442161	-0.000170
 924	9.1838e+01	1.6128	38.492071	0.000669	6.688876	1.133126	-0.000134
 925	9.1938e+01	1.5929	38.318474	0.000872	8.715808	1.476498	-0.000174
 926	9.2037e+01	1.5729	38.185248	0.000669	6.688876	1.133126	-0.000134
 927	9.2137e+01	1.5525	38.043949	0.000709	7.094262	1.201801	-0.000142
 928	9.2237e+01	1.5332	37.926872	0.000588	5.878103	0.995778	-0.000118
 929	9.2336e+01	1.5128	37.757312	0.000851	8.513115	1.442161	-0.000170
 930	9.2436e+01	1.4922	37.648309	0.000547	5.472717	0.927103	-0.000110
 931	9.2535e+01	1.4731	37.515084	0.000669	6.688876	1.133126	-0.000134
 932	9.2635e+01	1.4533	37.341487	0.000872	8.715808	1.476498	-0.000174
 933	9.2734e+01	1.4333	37.171927	0.000851	8.513115	1.442161	-0.000170
 934	9.2834e+01	1.4119	37.030628	0.000709	7.094262	1.201801	-0.000142
 935	9.2933e+01	1.3931	36.877216	0.000770	7.702342	1.304812	-0.000154
 936	9.3032e+01	1.3728	36.739954	0.000689	6.891569	1.167463	-0.000138
 937	9.3132e+01	1.3538	36.602691	0.000689	6.891569	1.167463	-0.000138
 938	9.3231e+01	1.3342	36.449280	0.000770	7.702342	1.304812	-0.000154
 939	9.3331e+01	1.3132	36.295869	0.000770	7.702342	1.304812	-0.000154
 940	9.3430e+01	1.2935	36.154569	0.000709	7.094262	1.201801	-0.000142
 941	9.3530e+01	1.2726	36.005195	0.000750	7.499649	1.270475	-0.000150
 942	9.3629e+01	1.2543	35.900230	0.000527	5.270023	0.892766	-0.000105
 943	9.3729e+01	1.2337	35.726633	0.000872	8.715808	1.476498	-0.000174
 944	9.3829e+01	1.2148	35.589370	0.000689	6.891569	1.167463	-0.000138
 945	9.3928e+01	1.1948	35.435959	0.000770	7.702342	1.304812	-0.000154
 946	9.4028e+01	1.1735	35.262362	0.000872	8.715808	1.476498	-0.000174
 947	9.4127e+01	1.1547	35.185657	0.000385	3.851171	0.652406	-0.000077
 948	9.4227e+01	1.1347	34.999948	0.000932	9.323888	1.579509	-0.000187
 949	9.4326e+01	1.1160	34.806166	0.000973	9.729274	1.648184	-0.000195
 950	9.4425e+01	1.0947	34.689089	0.000588	5.878103	0.995778	-0.000118
 951	9.4525e+01	1.0753	34.567975	0.000608	6.080796	1.030115	-0.000122
 952	9.4624e+01	1.0563	34.394378	0.000872	8.715808	1.476498	-0.000174
 953	9.4724e+01	1.0350	34.261152	0.000669	6.688876	1.133126	-0.000134
 954	9.4823e+01	1.0151	34.123890	0.000689	6.891569	1.167463	-0.000138
 955	9.4923e+01	0.9959	33.974516	0.000750	7.499649	1.270475	-0.000150
 956	9.5022e+01	0.9756	33.788808	0.000932	9.323888	1.579509	-0.000187
 957	9.5122e+01	0.9546	33.667693	0.000608	6.080796	1.030115	-0.000122
 958	9.5222e+01	0.9354	33.502171	0.000831	8.310422	1.407824	-0.000166
 959	9.5321e+01	0.9167	33.328574	0.000872	8.715808	1.476498	-0.000174
 960	9.5421e+01	0.8951	33.191311	0.000689	6.891569	1.167463	-0.000138
 961	9.5520e+01	0.8760	33.058086	0.000669	6.688876	1.133126	-0.000134
 962	9.5620e+01	0.8564	32.864303	0.000973	9.729274	1.648184	-0.000195
 963	9.5719e+01	0.8363	32.811821	0.000264	2.635012	0.446383	-0.000053
 964	9.5819e+01	0.8163	32.605927	0.001034	10.337354	1.751195	-0.000207
 965	9.5918e+01	0.7964	32.452516	0.000770	7.702342	1.304812	-0.000154
 966	9.6017e+01	0.7762	32.274882	0.000892	8.918501	1.510835	-0.000179
 967	9.6117e+01	0.7559	32.153768	0.000608	6.080796	1.030115	-0.000122
 968	9.6216e+01	0.7364	32.008431	0.000730	7.296956	1.236138	-0.000146
 969	9.6316e+01	0.7165	31.863094	0.000730	7.296956	1.236138	-0.000146
 970	9.6415e+01	0.6960	31.713720	0.000750	7.499649	1.270475	-0.000150
 971	9.6515e+01	0.6775	31.528012	0.000932	9.323888	1.579509	-0.000187
 972	9.6615e+01	0.6564	31.350378	0.000892	8.918501	1.510835	-0.000179
 973	9.6714e+01	0.6367	31.237338	0.000568	5.675410	0.961440	-0.000114
 974	9.6814e+01	0.6163	31.075852	0.000811	8.107728	1.373486	-0.000162
 975	9.6913e+01	0.5972	30.938590	0.000689	6.891569	1.167463	-0.000138
 976	9.7013e+01	0.5766	30.785179	0.000770	7.702342	1.304812	-0.000154
 977	9.7112e+01	0.5568	30.627730	0.000791	7.905035	1.339149	-0.000158
 978	9.7212e+01	0.5374	30.482393	0.000730	7.296956	1.236138	-0.000146
 979	9.7311e+01	0.5170	30.328982	0.000770	7.702342	1.304812	-0.000154
 980	9.7410e+01	0.4980	30.179608	0.000750	7.499649	1.270475	-0.000150
 981	9.7510e+01	0.4774	30.050420	0.000649	6.486183	1.098789	-0.000130
 982	9.7609e+01	0.4578	29.848563	0.001013	10.134660	1.716858	-0.000203
 983	9.7709e+01	0.4375	29.715338	0.000669	6.688876	1.133126	-0.000134
 984	9.7808e+01	0.4175	29.594224	0.000608	6.080796	1.030115	-0.000122
 985	9.7908e+01	0.3972	29.416590	0.000892	8.918501	1.510835	-0.000179
 986	9.8007e+01	0.3771	29.267216	0.000750	7.499649	1.270475	-0.000150
 987	9.8107e+01	0.3575	29.121879	0.000730	7.296956	1.236138	-0.000146
 988	9.8207e+01	0.3371	28.956356	0.000831	8.310422	1.407824	-0.000166
 989	9.8306e+01	0.3182	28.831205	0.000628	6.283489	1.064452	-0.000126
 990	9.8406e+01	0.2968	28.665682	0.000831	8.310422	1.407824	-0.000166
 991	9.8505e+01	0.2773	28.564754	0.000507	5.067330	0.858429	-0.000101
 992	9.8605e+01	0.2563	28.358860	0.001034	10.337354	1.751195	-0.000207
 993	9.8704e+01	0.2382	28.229672	0.000649	6.486183	1.098789	-0.000130
 994	9.8803e+01	0.2188	28.043963	0.000932	9.323888	1.579509	-0.000187
 995	9.8903e+01	0.1974	27.902664	0.000709	7.094262	1.201801	-0.000142
 996	9.9002e+01	0.1785	27.781550	0.000608	6.080796	1.030115	-0.000122
 997	9.9102e+01	0.1584	27.628138	0.000770	7.702342	1.304812	-0.000154
 998	9.9201e+01	0.1382	27.442430	0.000932	9.323888	1.579509	-0.000187
 999	9.9301e+01	0.1183	27.333428	0.000547	5.472717	0.927103	-0.000110
1000	9.9400e+01	0.0979	27.151756	0.000912	9.121194	1.545172	-0.000183
1001	9.9500e+01	0.0784	27.026605	0.000628	6.283489	1.064452	-0.000126
1002	9.9600e+01	0.0587	26.881268	0.000730	7.296956	1.236138	-0.000146
1003	9.9699e+01	0.0395	26.707671	0.000872	8.715808	1.476498	-0.000174
1004	9.9799e+01	0.0188	26.570409	0.000689	6.891569	1.167463	-0.000138
1005	9.9898e+01	-0.0010	26.416998	0.000770	7.702342	1.304812	-0.000154
1006	9.9998e+01	-0.0189	26.259549	0.000791	7.905035	1.339149	-0.000158
1007	1.0010e+02	-0.0386	26.138435	0.000608	6.080796	1.030115	-0.000122
1008	1.0020e+02	-0.0591	25.956764	0.000912	9.121194	1.545172	-0.000183
1009	1.0030e+02	-0.0790	25.807390	0.000750	7.499649	1.270475	-0.000150
1010	1.0040e+02	-0.0991	25.645905	0.000811	8.107728	1.373486	-0.000162
1011	1.0050e+02	-0.1192	25.512679	0.000669	6.688876	1.133126	-0.000134
1012	1.0059e+02	-0.1383	25.387528	0.000628	6.283489	1.064452	-0.000126
1013	1.0069e+02	-0.1595	25.201820	0.000932	9.323888	1.579509	-0.000187
1014	1.0079e+02	-0.1785	25.020149	0.000912	9.121194	1.545172	-0.000183
1015	1.0089e+02	-0.1980	24.911146	0.000547	5.472717	0.927103	-0.000110
1016	1.0099e+02	-0.2173	24.761772	0.000750	7.499649	1.270475	-0.000150
1017	1.0109e+02	-0.2374	24.588175	0.000872	8.715808	1.476498	-0.000174
1018	1.0119e+02	-0.2580	24.390356	0.000993	9.931967	1.682521	-0.000199
1019	1.0129e+02	-0.2789	24.277316	0.000568	5.675410	0.961440	-0.000114
1020	1.0139e+02	-0.2980	24.103719	0.000872	8.715808	1.476498	-0.000174
1021	1.0149e+02	-0.3177	23.942233	0.000811	8.107728	1.373486	-0.000162
1022	1.0159e+02	-0.3385	23.813045	0.000649	6.486183	1.098789	-0.000130
1023	1.0169e+02	-0.3580	23.675783	0.000689	6.891569	1.167463	-0.000138
1024	1.0179e+02	-0.3779	23.518334	0.000791	7.905035	1.339149	-0.000158
1025	1.0189e+02	-0.3973	23.320515	0.000993	9.931967	1.682521	-0.000199
1026	1.0199e+02	-0.4179	23.171141	0.000750	7.499649	1.270475	-0.000150
1027	1.0209e+02	-0.4377	23.070212	0.000507	5.067330	0.858429	-0.000101
1028	1.0219e+02	-0.4578	22.868355	0.001013	10.134660	1.716858	-0.000203
1029	1.0229e+02	-0.4777	22.723019	0.000730	7.296956	1.236138	-0.000146
1030	1.0239e+02	-0.4971	22.589793	0.000669	6.688876	1.133126	-0.000134
1031	1.0248e+02	-0.5177	22.391973	0.000993	9.931967	1.682521	-0.000199
1032	1.0258e+02	-0.5379	22.266822	0.000628	6.283489	1.064452	-0.000126
1033	1.0268e+02	-0.5568	22.113411	0.000770	7.702342	1.304812	-0.000154
1034	1.0278e+02	-0.5764	21.992297	0.000608	6.080796	1.030115	-0.000122
1035	1.0288e+02	-0.5974	21.826774	0.000831	8.310422	1.407824	-0.000166
1036	1.0298e+02	-0.6171	21.620880	0.001034	10.337354	1.751195	-0.000207
1037	1.0308e+02	-0.6374	21.507841	0.000568	5.675410	0.961440	-0.000114
1038	1.0318e+02	-0.6568	21.370578	0.000689	6.891569	1.167463	-0.000138
1039	1.0328e+02	-0.6767	21.180833	0.000953	9.526581	1.613846	-0.000191
1040	1.0338e+02	-0.6964	21.011273	0.000851	8.513115	1.442161	-0.000170
1041	1.0348e+02	-0.7153	20.845750	0.000831	8.310422	1.407824	-0.000166
1042	1.0358e+02	-0.7371	20.704451	0.000709	7.094262	1.201801	-0.000142
1043	1.0368e+02	-0.7553	20.542965	0.000811	8.107728	1.373486	-0.000162
1044	1.0378e+02	-0.7764	20.385517	0.000791	7.905035	1.339149	-0.000158
1045	1.0388e+02	-0.7959	20.232106	0.000770	7.702342	1.304812	-0.000154
1046	1.0398e+02	-0.8162	20.066583	0.000831	8.310422	1.407824	-0.000166
1047	1.0408e+02	-0.8356	19.917209	0.000750	7.499649	1.270475	-0.000150
1048	1.0418e+02	-0.8559	19.800132	0.000588	5.878103	0.995778	-0.000118
1049	1.0428e+02	-0.8762	19.622498	0.000892	8.918501	1.510835	-0.000179
1050	1.0438e+02	-0.8958	19.477161	0.000730	7.296956	1.236138	-0.000146
1051	1.0447e+02	-0.9170	19.319713	0.000791	7.905035	1.339149	-0.000158
1052	1.0457e+02	-0.9361	19.166302	0.000770	7.702342	1.304812	-0.000154
1053	1.0467e+02	-0.9562	18.980594	0.000932	9.323888	1.579509	-0.000187
1054	1.0477e+02	-0.9757	18.831220	0.000750	7.499649	1.270475	-0.000150
1055	1.0487e+02	-0.9958	18.697994	0.000669	6.688876	1.133126	-0.000134
1056	1.0497e+02	-1.0152	18.548620	0.000750	7.499649	1.270475	-0.000150
1057	1.0507e+02	-1.0347	18.375023	0.000872	8.715808	1.476498	-0.000174
1058	1.0517e+02	-1.0555	18.197389	0.000892	8.918501	1.510835	-0.000179
1059	1.0527e+02	-1.0756	18.068201	0.000649	6.486183	1.098789	-0.000130
1060	1.0537e+02	-1.0948	17.930938	0.000689	6.891569	1.167463	-0.000138
1061	1.0547e+02	-1.1154	17.781564	0.000750	7.499649	1.270475	-0.000150
1062	1.0557e+02	-1.1359	17.612005	0.000851	8.513115	1.442161	-0.000170
1063	1.0567e+02	-1.1546	17.422259	0.000953	9.526581	1.613846	-0.000191
1064	1.0577e+02	-1.1739	17.268848	0.000770	7.702342	1.304812	-0.000154
1065	1.0587e+02	-1.1945	17.107363	0.000811	8.107728	1.373486	-0.000162
1066	1.0597e+02	-1.2157	16.966063	0.000709	7.094262	1.201801	-0.000142
1067	1.0607e+02	-1.2343	16.800540	0.000831	8.310422	1.407824	-0.000166
1068	1.0617e+02	-1.2563	16.659241	0.000709	7.094262	1.201801	-0.000142
1069	1.0627e+02	-1.2746	16.469495	0.000953	9.526581	1.613846	-0.000191
1070	1.0637e+02	-1.2936	16.344344	0.000628	6.283489	1.064452	-0.000126
1071	1.0647e+02	-1.3139	16.154599	0.000953	9.526581	1.613846	-0.000191
1072	1.0656e+02	-1.3341	16.005225	0.000750	7.499649	1.270475	-0.000150
1073	1.0666e+02	-1.3531	15.819516	0.000932	9.323888	1.579509	-0.000187
1074	1.0676e+02	-1.3730	15.649957	0.000851	8.513115	1.442161	-0.000170
1075	1.0686e+02	-1.3942	15.524805	0.000628	6.283489	1.064452	-0.000126
1076	1.0696e+02	-1.4134	15.379469	0.000730	7.296956	1.236138	-0.000146
1077	1.0706e+02	-1.4337	15.238169	0.000709	7.094262	1.201801	-0.000142
1078	1.0716e+02	-1.4540	15.020164	0.001095	10.945433	1.854207	-0.000219
1079	1.0726e+02	-1.4730	14.862715	0.000791	7.905035	1.339149	-0.000158
1080	1.0736e+02	-1.4941	14.713341	0.000750	7.499649	1.270475	-0.000150
1081	1.0746e+02	-1.5138	14.547819	0.000831	8.310422	1.407824	-0.000166
1082	1.0756e+02	-1.5330	14.410556	0.000689	6.891569	1.167463	-0.000138
1083	1.0766e+02	-1.5528	14.265219	0.000730	7.296956	1.236138	-0.000146
1084	1.0776e+02	-1.5737	14.111808	0.000770	7.702342	1.304812	-0.000154
1085	1.0786e+02	-1.5928	13.897840	0.001074	10.742740	1.819869	-0.000215
1086	1.0796e+02	-1.6127	13.736354	0.000811	8.107728	1.373486	-0.000162
1087	1.0806e+02	-1.6331	13.615240	0.000608	6.080796	1.030115	-0.000122
1088	1.0816e+02	-1.6528	13.457792	0.000791	7.905035	1.339149	-0.000158
1089	1.0826e+02	-1.6716	13.276121	0.000912	9.121194	1.545172	-0.000183
1090	1.0836e+02	-1.6927	13.082338	0.000973	9.729274	1.648184	-0.000195
1091	1.0845e+02	-1.7122	12.989484	0.000466	4.661944	0.789755	-0.000093
1092	1.0855e+02	-1.7322	12.844147	0.000730	7.296956	1.236138	-0.000146
1093	1.0865e+02	-1.7526	12.666513	0.000892	8.918501	1.510835	-0.000179
1094	1.0875e+02	-1.7726	12.484842	0.000912	9.121194	1.545172	-0.000183
1095	1.0885e+02	-1.7924	12.343543	0.000709	7.094262	1.201801	-0.000142
1096	1.0895e+02	-1.8129	12.182057	0.000811	8.107728	1.373486	-0.000162
1097	1.0905e+02	-1.8315	12.016535	0.000831	8.310422	1.407824	-0.000166
1098	1.0915e+02	-1.8528	11.859086	0.000791	7.905035	1.339149	-0.000158
1099	1.0925e+02	-1.8725	11.754121	0.000527	5.270023	0.892766	-0.000105
1100	1.0935e+02	-1.8917	11.528041	0.001135	11.350820	1.922881	-0.000227
1101	1.0945e+02	-1.9120	11.410964	0.000588	5.878103	0.995778	-0.000118
1102	1.0955e+02	-1.9318	11.221219	0.000953	9.526581	1.613846	-0.000191
1103	1.0965e+02	-1.9519	11.096068	0.000628	6.283489	1.064452	-0.000126
1104	1.0975e+02	-1.9716	10.954768	0.000709	7.094262	1.201801	-0.000142
1105	1.0985e+02	-1.9903	10.760985	0.000973	9.729274	1.648184	-0.000195
1106	1.0995e+02	-2.0114	10.619686	0.000709	7.094262	1.201801	-0.000142
1107	1.1005e+02	-2.0314	10.462237	0.000791	7.905035	1.339149	-0.000158
1108	1.1015e+02	-2.0510	10.304789	0.000791	7.905035	1.339149	-0.000158
1109	1.1025e+02	-2.0712	10.115044	0.000953	9.526581	1.613846	-0.000191
1110	1.1035e+02	-2.0906	9.961632	0.000770	7.702342	1.304812	-0.000154
1111	1.1044e+02	-2.1104	9.775924	0.000932	9.323888	1.579509	-0.000187
1112	1.1054e+02	-2.1302	9.630587	0.000730	7.296956	1.236138	-0.000146
1113	1.1064e+02	-2.1509	9.497362	0.000669	6.688876	1.133126	-0.000134
1114	1.1074e+02	-2.1713	9.347988	0.000750	7.499649	1.270475	-0.000150
1115	1.1084e+02	-2.1909	9.162280	0.000932	9.323888	1.579509	-0.000187
1116	1.1094e+02	-2.2115	9.012906	0.000750	7.499649	1.270475	-0.000150
1117	1.1104e+02	-2.2314	8.907940	0.000527	5.270023	0.892766	-0.000105
1118	1.1114e+02	-2.2507	8.702046	0.001034	10.337354	1.751195	-0.000207
1119	1.1124e+02	-2.2701	8.609192	0.000466	4.661944	0.789755	-0.000093
1120	1.1134e+02	-2.2897	8.407335	0.001013	10.134660	1.716858	-0.000203
1121	1.1144e+02	-2.3106	8.245850	0.000811	8.107728	1.373486	-0.000162
1122	1.1154e+02	-2.3308	8.072253	0.000872	8.715808	1.476498	-0.000174
1123	1.1164e+02	-2.3497	7.951139	0.000608	6.080796	1.030115	-0.000122
1124	1.1174e+02	-2.3695	7.765431	0.000932	9.323888	1.579509	-0.000187
1125	1.1184e+02	-2.3898	7.656428	0.000547	5.472717	0.927103	-0.000110
1126	1.1194e+02	-2.4108	7.482831	0.000872	8.715808	1.476498	-0.000174
1127	1.1204e+02	-2.4303	7.309234	0.000872	8.715808	1.476498	-0.000174
1128	1.1214e+02	-2.4503	7.159860	0.000750	7.499649	1.270475	-0.000150
1129	1.1224e+02	-2.4700	7.014523	0.000730	7.296956	1.236138	-0.000146
1130	1.1234e+02	-2.4902	6.849001	0.000831	8.310422	1.407824	-0.000166
1131	1.1244e+02	-2.5095	6.667330	0.000912	9.121194	1.545172	-0.000183
1132	1.1253e+02	-2.5290	6.546216	0.000608	6.080796	1.030115	-0.000122
1133	1.1263e+02	-2.5498	6.384730	0.000811	8.107728	1.373486	-0.000162
1134	1.1273e+02	-2.5703	6.207096	0.000892	8.918501	1.510835	-0.000179
1135	1.1283e+02	-2.5885	6.045611	0.000811	8.107728	1.373486	-0.000162
1136	1.1293e+02	-2.6083	5.908348	0.000689	6.891569	1.167463	-0.000138
1137	1.1303e+02	-2.6288	5.722640	0.000932	9.323888	1.579509	-0.000187
1138	1.1313e+02	-2.6491	5.617674	0.000527	5.270023	0.892766	-0.000105
1139	1.1323e+02	-2.6686	5.431966	0.000932	9.323888	1.579509	-0.000187
1140	1.1333e+02	-2.6889	5.270481	0.000811	8.107728	1.373486	-0.000162
1141	1.1343e+02	-2.7081	5.145329	0.000628	6.283489	1.064452	-0.000126
1142	1.1353e+02	-2.7286	4.971733	0.000872	8.715808	1.476498	-0.000174
1143	1.1363e+02	-2.7479	4.806210	0.000831	8.310422	1.407824	-0.000166
1144	1.1373e+02	-2.7727	4.644725	0.000811	8.107728	1.373486	-0.000162
1145	1.1383e+02	-2.7888	4.495351	0.000750	7.499649	1.270475	-0.000150
1146	1.1393e+02	-2.8088	4.345977	0.000750	7.499649	1.270475	-0.000150
1147	1.1403e+02	-2.8281	4.208714	0.000689	6.891569	1.167463	-0.000138
1148	1.1413e+02	-2.8484	4.063377	0.000730	7.296956	1.236138	-0.000146
1149	1.1423e+02	-2.8683	3.885743	0.000892	8.918501	1.510835	-0.000179
1150	1.1433e+02	-2.8883	3.728295	0.000791	7.905035	1.339149	-0.000158
1151	1.1442e+02	-2.9081	3.591032	0.000689	6.891569	1.167463	-0.000138
1152	1.1452e+02	-2.9315	3.449732	0.000709	7.094262	1.201801	-0.000142
1153	1.1462e+02	-2.9474	3.292284	0.000791	7.905035	1.339149	-0.000158
1154	1.1472e+02	-2.9676	3.130799	0.000811	8.107728	1.373486	-0.000162
1155	1.1482e+02	-2.9872	2.993536	0.000689	6.891569	1.167463	-0.000138
1156	1.1492e+02	-3.0077	2.819939	0.000872	8.715808	1.476498	-0.000174
1157	1.1502e+02	-3.0278	2.682677	0.000689	6.891569	1.167463	-0.000138
1158	1.1512e+02	-3.0469	2.541377	0.000709	7.094262	1.201801	-0.000142
1159	1.1522e+02	-3.0673	2.379892	0.000811	8.107728	1.373486	-0.000162
1160	1.1532e+02	-3.0871	2.238592	0.000709	7.094262	1.201801	-0.000142
1161	1.1542e+02	-3.1070	2.101329	0.000689	6.891569	1.167463	-0.000138
1162	1.1552e+02	-3.1270	1.927732	0.000872	8.715808	1.476498	-0.000174
1163	1.1562e+02	-3.1470	1.798544	0.000649	6.486183	1.098789	-0.000130
1164	1.1572e+02	-3.1664	1.620910	0.000892	8.918501	1.510835	-0.000179
1165	1.1582e+02	-3.1857	1.479610	0.000709	7.094262	1.201801	-0.000142
1166	1.1592e+02	-3.2062	1.326199	0.000770	7.702342	1.304812	-0.000154
1167	1.1602e+02	-3.2267	1.184899	0.000709	7.094262	1.201801	-0.000142
1168	1.1612e+02	-3.2455	1.035525	0.000750	7.499649	1.270475	-0.000150
1169	1.1622e+02	-3.2657	0.837706	0.000993	9.931967	1.682521	-0.000199
1170	1.1632e+02	-3.2854	0.692369	0.000730	7.296956	1.236138	-0.000146
1171	1.1642e+02	-3.3061	0.575292	0.000588	5.878103	0.995778	-0.000118
1172	1.1651e+02	-3.3262	0.397658	0.000892	8.918501	1.510835	-0.000179
1173	1.1661e+02	-3.3469	0.248284	0.000750	7.499649	1.270475	-0.000150
1174	1.1671e+02	-3.3667	0.098910	0.000750	7.499649	1.270475	-0.000150
1175	1.1681e+02	-3.3868	-0.022204	0.000608	6.080796	1.030115	-0.000122
1176	1.1691e+02	-3.4060	-0.207912	0.000932	9.323888	1.579509	-0.000187
1177	1.1701e+02	-3.4258	-0.365361	0.000791	7.905035	1.339149	-0.000158
1178	1.1711e+02	-3.4460	-0.522809	0.000791	7.905035	1.339149	-0.000158
1179	1.1721e+02	-3.4661	-0.651997	0.000649	6.486183	1.098789	-0.000130
1180	1.1731e+02	-3.4846	-0.809446	0.000791	7.905035	1.339149	-0.000158
1181	1.1741e+02	-3.5053	-0.974968	0.000831	8.310422	1.407824	-0.000166
1182	1.1751e+02	-3.5254	-1.128379	0.000770	7.702342	1.304812	-0.000154
1183	1.1761e+02	-3.5455	-1.281791	0.000770	7.702342	1.304812	-0.000154
1184	1.1771e+02	-3.5648	-1.386756	0.000527	5.270023	0.892766	-0.000105
1185	1.1781e+02	-3.5840	-1.548242	0.000811	8.107728	1.373486	-0.000162
1186	1.1791e+02	-3.6044	-1.721838	0.000872	8.715808	1.476498	-0.000174
1187	1.1801e+02	-3.6243	-1.903510	0.000912	9.121194	1.545172	-0.000183
1188	1.1811e+02	-3.6459	-2.040772	0.000689	6.891569	1.167463	-0.000138
1189	1.1821e+02	-3.6652	-2.198220	0.000791	7.905035	1.339149	-0.000158
1190	1.1831e+02	-3.6848	-2.355669	0.000791	7.905035	1.339149	-0.000158
1191	1.1841e+02	-3.7048	-2.537340	0.000912	9.121194	1.545172	-0.000183
1192	1.1850e+02	-3.7254	-2.658454	0.000608	6.080796	1.030115	-0.000122
1193	1.1860e+02	-3.7448	-2.819939	0.000811	8.107728	1.373486	-0.000162
1194	1.1870e+02	-3.7646	-2.949128	0.000649	6.486183	1.098789	-0.000130
1195	1.1880e+02	-3.7854	-3.159059	0.001054	10.540047	1.785532	-0.000211
1196	1.1890e+02	-3.8038	-3.268061	0.000547	5.472717	0.927103	-0.000110
1197	1.1900e+02	-3.8238	-3.389175	0.000608	6.080796	1.030115	-0.000122
1198	1.1910e+02	-3.8452	-3.578921	0.000953	9.526581	1.613846	-0.000191
1199	1.1920e+02	-3.8634	-3.732332	0.000770	7.702342	1.304812	-0.000154
1200	1.1930e+02	-3.8846	-3.857483	0.000628	6.283489	1.064452	-0.000126
1201	1.1940e+02	-3.9037	-4.035117	0.000892	8.918501	1.510835	-0.000179
1202	1.1950e+02	-3.9235	-4.196603	0.000811	8.107728	1.373486	-0.000162
1203	1.1960e+02	-3.9433	-4.374237	0.000892	8.918501	1.510835	-0.000179
1204	1.1970e+02	-3.9640	-4.511499	0.000689	6.891569	1.167463	-0.000138
1205	1.1980e+02	-3.9834	-4.681059	0.000851	8.513115	1.442161	-0.000170
1206	1.1990e+02	-4.0027	-4.846581	0.000831	8.310422	1.407824	-0.000166
1207	1.2000e+02	-4.0235	-4.999993	0.000770	7.702342	1.304812	-0.000154
1208	1.2010e+02	-4.0433	-5.157441	0.000791	7.905035	1.339149	-0.000158
1209	1.2020e+02	-4.0630	-5.314889	0.000791	7.905035	1.339149	-0.000158
1210	1.2030e+02	-4.0828	-5.476375	0.000811	8.107728	1.373486	-0.000162
1211	1.2039e+02	-4.1030	-5.601526	0.000628	6.283489	1.064452	-0.000126
1212	1.2049e+02	-4.1228	-5.750900	0.000750	7.499649	1.270475	-0.000150
1213	1.2059e+02	-4.1399	-5.952757	0.001013	10.134660	1.716858	-0.000203
1214	1.2069e+02	-4.1631	-6.090019	0.000689	6.891569	1.167463	-0.000138
1215	1.2079e+02	-4.1823	-6.239393	0.000750	7.499649	1.270475	-0.000150
1216	1.2089e+02	-4.2024	-6.388767	0.000750	7.499649	1.270475	-0.000150
1217	1.2099e+02	-4.2227	-6.582550	0.000973	9.729274	1.648184	-0.000195
1218	1.2109e+02	-4.2432	-6.675404	0.000466	4.661944	0.789755	-0.000093
1219	1.2119e+02	-4.2625	-6.873224	0.000993	9.931967	1.682521	-0.000199
1220	1.2129e+02	-4.2831	-7.022598	0.000750	7.499649	1.270475	-0.000150
1221	1.2139e+02	-4.3025	-7.135637	0.000568	5.675410	0.961440	-0.000114
1222	1.2149e+02	-4.3224	-7.289049	0.000770	7.702342	1.304812	-0.000154
1223	1.2159e+02	-4.3423	-7.503017	0.001074	10.742740	1.819869	-0.000215
1224	1.2169e+02	-4.3619	-7.628168	0.000628	6.283489	1.064452	-0.000126
1225	1.2179e+02	-4.3814	-7.805802	0.000892	8.918501	1.510835	-0.000179
1226	1.2189e+02	-4.4018	-7.934990	0.000649	6.486183	1.098789	-0.000130
1227	1.2199e+02	-4.4217	-8.112624	0.000892	8.918501	1.510835	-0.000179
1228	1.2209e+02	-4.4409	-8.225664	0.000568	5.675410	0.961440	-0.000114
1229	1.2219e+02	-4.4614	-8.415409	0.000953	9.526581	1.613846	-0.000191
1230	1.2229e+02	-4.4820	-8.609192	0.000973	9.729274	1.648184	-0.000195
1231	1.2239e+02	-4.5016	-8.726269	0.000588	5.878103	0.995778	-0.000118
1232	1.2248e+02	-4.5219	-8.891791	0.000831	8.310422	1.407824	-0.000166
1233	1.2258e+02	-4.5412	-9.057314	0.000831	8.310422	1.407824	-0.000166
1234	1.2268e+02	-4.5615	-9.234948	0.000892	8.918501	1.510835	-0.000179
1235	1.2278e+02	-4.5822	-9.380285	0.000730	7.296956	1.236138	-0.000146
1236	1.2288e+02	-4.6019	-9.557919	0.000892	8.918501	1.510835	-0.000179
1237	1.2298e+02	-4.6204	-9.695181	0.000689	6.891569	1.167463	-0.000138
1238	1.2308e+02	-4.6406	-9.840518	0.000730	7.296956	1.236138	-0.000146
1239	1.2318e+02	-4.6614	-10.034301	0.000973	9.729274	1.648184	-0.000195
1240	1.2328e+02	-4.6813	-10.187712	0.000770	7.702342	1.304812	-0.000154
1241	1.2338e+02	-4.7004	-10.389569	0.001013	10.134660	1.716858	-0.000203
1242	1.2348e+02	-4.7211	-10.518757	0.000649	6.486183	1.098789	-0.000130
1243	1.2358e+02	-4.7403	-10.672168	0.000770	7.702342	1.304812	-0.000154
1244	1.2368e+02	-4.7600	-10.845765	0.000872	8.715808	1.476498	-0.000174
1245	1.2378e+02	-4.7789	-11.035511	0.000953	9.526581	1.613846	-0.000191
1246	1.2388e+02	-4.8003	-11.164699	0.000649	6.486183	1.098789	-0.000130
1247	1.2398e+02	-4.8204	-11.386741	0.001115	11.148127	1.888544	-0.000223
1248	1.2408e+02	-4.8396	-11.479595	0.000466	4.661944	0.789755	-0.000093
1249	1.2418e+02	-4.8601	-11.637044	0.000791	7.905035	1.339149	-0.000158
1250	1.2428e+02	-4.8796	-11.851012	0.001074	10.742740	1.819869	-0.000215
1251	1.2438e+02	-4.9007	-11.984237	0.000669	6.688876	1.133126	-0.000134
1252	1.2447e+02	-4.9202	-12.178020	0.000973	9.729274	1.648184	-0.000195
1253	1.2457e+02	-4.9401	-12.315283	0.000689	6.891569	1.167463	-0.000138
1254	1.2467e+02	-4.9605	-12.436397	0.000608	6.080796	1.030115	-0.000122
1255	1.2477e+02	-4.9805	-12.654402	0.001095	10.945433	1.854207	-0.000219
1256	1.2487e+02	-5.0002	-12.827999	0.000872	8.715808	1.476498	-0.000174
1257	1.2497e+02	-5.0206	-12.985447	0.000791	7.905035	1.339149	-0.000158
1258	1.2507e+02	-5.0388	-13.118673	0.000669	6.688876	1.133126	-0.000134
1259	1.2517e+02	-5.0600	-13.316492	0.000993	9.931967	1.682521	-0.000199
1260	1.2527e+02	-5.0790	-13.506238	0.000953	9.526581	1.613846	-0.000191
1261	1.2537e+02	-5.0992	-13.663686	0.000791	7.905035	1.339149	-0.000158
1262	1.2547e+02	-5.1184	-13.813060	0.000750	7.499649	1.270475	-0.000150
1263	1.2557e+02	-5.1390	-13.974545	0.000811	8.107728	1.373486	-0.000162
1264	1.2567e+02	-5.1582	-14.131994	0.000791	7.905035	1.339149	-0.000158
1265	1.2577e+02	-5.1791	-14.289442	0.000791	7.905035	1.339149	-0.000158
1266	1.2587e+02	-5.1991	-14.507447	0.001095	10.945433	1.854207	-0.000219
1267	1.2597e+02	-5.2188	-14.656821	0.000750	7.499649	1.270475	-0.000150
1268	1.2607e+02	-5.2392	-14.786010	0.000649	6.486183	1.098789	-0.000130
1269	1.2617e+02	-5.2580	-14.959606	0.000872	8.715808	1.476498	-0.000174
1270	1.2627e+02	-5.2785	-15.117055	0.000791	7.905035	1.339149	-0.000158
1271	1.2636e+02	-5.2985	-15.266429	0.000750	7.499649	1.270475	-0.000150
1272	1.2646e+02	-5.3182	-15.452137	0.000932	9.323888	1.579509	-0.000187
1273	1.2656e+02	-5.3380	-15.617660	0.000831	8.310422	1.407824	-0.000166
1274	1.2666e+02	-5.3585	-15.746848	0.000649	6.486183	1.098789	-0.000130
1275	1.2676e+02	-5.3778	-15.936593	0.000953	9.526581	1.613846	-0.000191
1276	1.2686e+02	-5.3981	-16.102116	0.000831	8.310422	1.407824	-0.000166
1277	1.2696e+02	-5.4187	-16.279750	0.000892	8.918501	1.510835	-0.000179
1278	1.2706e+02	-5.4382	-16.457384	0.000892	8.918501	1.510835	-0.000179
1279	1.2716e+02	-5.4581	-16.655203	0.000993	9.931967	1.682521	-0.000199
1280	1.2726e+02	-5.4788	-16.812652	0.000791	7.905035	1.339149	-0.000158
1281	1.2736e+02	-5.4970	-16.953952	0.000709	7.094262	1.201801	-0.000142
1282	1.2746e+02	-5.5179	-17.119474	0.000831	8.310422	1.407824	-0.000166
1283	1.2756e+02	-5.5387	-17.309219	0.000953	9.526581	1.613846	-0.000191
1284	1.2766e+02	-5.5569	-17.478779	0.000851	8.513115	1.442161	-0.000170
1285	1.2776e+02	-5.5774	-17.660450	0.000912	9.121194	1.545172	-0.000183
1286	1.2786e+02	-5.5975	-17.830010	0.000851	8.513115	1.442161	-0.000170
1287	1.2796e+02	-5.6177	-18.003607	0.000872	8.715808	1.476498	-0.000174
1288	1.2806e+02	-5.6381	-18.136832	0.000669	6.688876	1.133126	-0.000134
1289	1.2816e+02	-5.6564	-18.286206	0.000750	7.499649	1.270475	-0.000150
1290	1.2826e+02	-5.6778	-18.496137	0.001054	10.540047	1.785532	-0.000211
1291	1.2835e+02	-5.6969	-18.685883	0.000953	9.526581	1.613846	-0.000191
1292	1.2845e+02	-5.7175	-18.843331	0.000791	7.905035	1.339149	-0.000158
1293	1.2855e+02	-5.7359	-19.025002	0.000912	9.121194	1.545172	-0.000183
1294	1.2865e+02	-5.7564	-19.158228	0.000669	6.688876	1.133126	-0.000134
1295	1.2875e+02	-5.7770	-19.331824	0.000872	8.715808	1.476498	-0.000174
1296	1.2885e+02	-5.7958	-19.505421	0.000872	8.715808	1.476498	-0.000174
1297	1.2895e+02	-5.8157	-19.723427	0.001095	10.945433	1.854207	-0.000219
1298	1.2905e+02	-5.8366	-19.876838	0.000770	7.702342	1.304812	-0.000154
1299	1.2915e+02	-5.8554	-20.038323	0.000811	8.107728	1.373486	-0.000162
1300	1.2925e+02	-5.8762	-20.244217	0.001034	10.337354	1.751195	-0.000207
1301	1.2935e+02	-5.8956	-20.389554	0.000730	7.296956	1.236138	-0.000146
1302	1.2945e+02	-5.9164	-20.619671	0.001155	11.553513	1.957218	-0.000231
1303	1.2955e+02	-5.9363	-20.752896	0.000669	6.688876	1.133126	-0.000134
1304	1.2965e+02	-5.9569	-20.970902	0.001095	10.945433	1.854207	-0.000219
1305	1.2975e+02	-5.9760	-21.124313	0.000770	7.702342	1.304812	-0.000154
1306	1.2985e+02	-5.9959	-21.293872	0.000851	8.513115	1.442161	-0.000170
1307	1.2995e+02	-6.0158	-21.467469	0.000872	8.715808	1.476498	-0.000174
1308	1.3005e+02	-6.0361	-21.665289	0.000993	9.931967	1.682521	-0.000199
1309	1.3015e+02	-6.0558	-21.846960	0.000912	9.121194	1.545172	-0.000183
1310	1.3025e+02	-6.0762	-22.020557	0.000872	8.715808	1.476498	-0.000174
1311	1.3034e+02	-6.0943	-22.206265	0.000932	9.323888	1.579509	-0.000187
1312	1.3044e+02	-6.1150	-22.396011	0.000953	9.526581	1.613846	-0.000191
1313	1.3054e+02	-6.1349	-22.549422	0.000770	7.702342	1.304812	-0.000154
1314	1.3064e+02	-6.1549	-22.731093	0.000912	9.121194	1.545172	-0.000183
1315	1.3074e+02	-6.1755	-22.924875	0.000973	9.729274	1.648184	-0.000195
1316	1.3084e+02	-6.1958	-23.078286	0.000770	7.702342	1.304812	-0.000154
1317	1.3094e+02	-6.2154	-23.272069	0.000973	9.729274	1.648184	-0.000195
1318	1.3104e+02	-6.2349	-23.482000	0.001054	10.540047	1.785532	-0.000211
1319	1.3114e+02	-6.2563	-23.651560	0.000851	8.513115	1.442161	-0.000170
1320	1.3124e+02	-6.2741	-23.788822	0.000689	6.891569	1.167463	-0.000138
1321	1.3134e+02	-6.2949	-23.966456	0.000892	8.918501	1.510835	-0.000179
1322	1.3144e+02	-6.3147	-24.164276	0.000993	9.931967	1.682521	-0.000199
1323	1.3154e+02	-6.3336	-24.354021	0.000953	9.526581	1.613846	-0.000191
1324	1.3164e+02	-6.3536	-24.507432	0.000770	7.702342	1.304812	-0.000154
1325	1.3174e+02	-6.3734	-24.757735	0.001257	12.566979	2.128904	-0.000252
1326	1.3184e+02	-6.3940	-24.907109	0.000750	7.499649	1.270475	-0.000150
1327	1.3194e+02	-6.4134	-25.060520	0.000770	7.702342	1.304812	-0.000154
1328	1.3204e+02	-6.4340	-25.254303	0.000973	9.729274	1.648184	-0.000195
1329	1.3214e+02	-6.4536	-25.407714	0.000770	7.702342	1.304812	-0.000154
1330	1.3224e+02	-6.4741	-25.633793	0.001135	11.350820	1.922881	-0.000227
1331	1.3234e+02	-6.4941	-25.815464	0.000912	9.121194	1.545172	-0.000183
1332	1.3243e+02	-6.5146	-26.013284	0.000993	9.931967	1.682521	-0.000199
1333	1.3253e+02	-6.5338	-26.182844	0.000851	8.513115	1.442161	-0.000170
1334	1.3263e+02	-6.5536	-26.368552	0.000932	9.323888	1.579509	-0.000187
1335	1.3273e+02	-6.5765	-26.546186	0.000892	8.918501	1.510835	-0.000179
1336	1.3283e+02	-6.5937	-26.752080	0.001034	10.337354	1.751195	-0.000207
1337	1.3293e+02	-6.6130	-26.929714	0.000892	8.918501	1.510835	-0.000179
1338	1.3303e+02	-6.6328	-27.111385	0.000912	9.121194	1.545172	-0.000183
1339	1.3313e+02	-6.6525	-27.301130	0.000953	9.526581	1.613846	-0.000191
1340	1.3323e+02	-6.6727	-27.494913	0.000973	9.729274	1.648184	-0.000195
1341	1.3333e+02	-6.6931	-27.704844	0.001054	10.540047	1.785532	-0.000211
1342	1.3343e+02	-6.7128	-27.922849	0.001095	10.945433	1.854207	-0.000219
1343	1.3353e+02	-6.7331	-28.116632	0.000973	9.729274	1.648184	-0.000195
1344	1.3363e+02	-6.7524	-28.286192	0.000851	8.513115	1.442161	-0.000170
1345	1.3373e+02	-6.7725	-28.524383	0.001196	11.958899	2.025892	-0.000239
1346	1.3383e+02	-6.7918	-28.697979	0.000872	8.715808	1.476498	-0.000174
1347	1.3393e+02	-6.8136	-28.867539	0.000851	8.513115	1.442161	-0.000170
1348	1.3403e+02	-6.8314	-29.057284	0.000953	9.526581	1.613846	-0.000191
1349	1.3413e+02	-6.8521	-29.251067	0.000973	9.729274	1.648184	-0.000195
1350	1.3423e+02	-6.8726	-29.460998	0.001054	10.540047	1.785532	-0.000211
1351	1.3432e+02	-6.8918	-29.622483	0.000811	8.107728	1.373486	-0.000162
1352	1.3442e+02	-6.9128	-29.872786	0.001257	12.566979	2.128904	-0.000252
1353	1.3452e+02	-6.9320	-30.090791	0.001095	10.945433	1.854207	-0.000219
1354	1.3462e+02	-6.9518	-30.232091	0.000709	7.094262	1.201801	-0.000142
1355	1.3472e+02	-6.9724	-30.454133	0.001115	11.148127	1.888544	-0.000223
1356	1.3482e+02	-6.9922	-30.623693	0.000851	8.513115	1.442161	-0.000170
1357	1.3492e+02	-7.0123	-30.853810	0.001155	11.553513	1.957218	-0.000231
1358	1.3502e+02	-7.0329	-31.083927	0.001155	11.553513	1.957218	-0.000231
1359	1.3512e+02	-7.0520	-31.241375	0.000791	7.905035	1.339149	-0.000158
1360	1.3522e+02	-7.0723	-31.459380	0.001095	10.945433	1.854207	-0.000219
1361	1.3532e+02	-7.0914	-31.657200	0.000993	9.931967	1.682521	-0.000199
1362	1.3542e+02	-7.1121	-31.891354	0.001176	11.756206	1.991555	-0.000235
1363	1.3552e+02	-7.1312	-32.089173	0.000993	9.931967	1.682521	-0.000199
1364	1.3562e+02	-7.1509	-32.291030	0.001013	10.134660	1.716858	-0.000203
1365	1.3572e+02	-7.1710	-32.500961	0.001054	10.540047	1.785532	-0.000211
1366	1.3582e+02	-7.1910	-32.718967	0.001095	10.945433	1.854207	-0.000219
1367	1.3592e+02	-7.2107	-32.924861	0.001034	10.337354	1.751195	-0.000207
1368	1.3602e+02	-7.2310	-33.106532	0.000912	9.121194	1.545172	-0.000183
1369	1.3612e+02	-7.2507	-33.320500	0.001074	10.742740	1.819869	-0.000215
1370	1.3622e+02	-7.2708	-33.534468	0.001074	10.742740	1.819869	-0.000215
1371	1.3631e+02	-7.2914	-33.776696	0.001216	12.161593	2.060230	-0.000243
1372	1.3641e+02	-7.3102	-34.010850	0.001176	11.756206	1.991555	-0.000235
1373	1.3651e+02	-7.3303	-34.224818	0.001074	10.742740	1.819869	-0.000215
1374	1.3661e+02	-7.3500	-34.366118	0.000709	7.094262	1.201801	-0.000142
1375	1.3671e+02	-7.3704	-34.592198	0.001135	11.350820	1.922881	-0.000227
1376	1.3681e+02	-7.3906	-34.806166	0.001074	10.742740	1.819869	-0.000215
1377	1.3691e+02	-7.4108	-35.088765	0.001419	14.188525	2.403601	-0.000284
1378	1.3701e+02	-7.4306	-35.282548	0.000973	9.729274	1.648184	-0.000195
1379	1.3711e+02	-7.4500	-35.472293	0.000953	9.526581	1.613846	-0.000191
1380	1.3721e+02	-7.4702	-35.722596	0.001257	12.566979	2.128904	-0.000252
1381	1.3731e+02	-7.4902	-35.940601	0.001095	10.945433	1.854207	-0.000219
1382	1.3741e+02	-7.5101	-36.146495	0.001034	10.337354	1.751195	-0.000207
1383	1.3751e+02	-7.5307	-36.364500	0.001095	10.945433	1.854207	-0.000219
1384	1.3761e+02	-7.5500	-36.517911	0.000770	7.702342	1.304812	-0.000154
1385	1.3771e+02	-7.5690	-36.756102	0.001196	11.958899	2.025892	-0.000239
1386	1.3781e+02	-7.5891	-37.022553	0.001338	13.377752	2.266253	-0.000268
1387	1.3791e+02	-7.6086	-37.224410	0.001013	10.134660	1.716858	-0.000203
1388	1.3801e+02	-7.6291	-37.450490	0.001135	11.350820	1.922881	-0.000227
1389	1.3811e+02	-7.6495	-37.668495	0.001095	10.945433	1.854207	-0.000219
1390	1.3821e+02	-7.6688	-37.938983	0.001358	13.580445	2.300590	-0.000272
1391	1.3831e+02	-7.6889	-38.104506	0.000831	8.310422	1.407824	-0.000166
1392	1.3840e+02	-7.7085	-38.383068	0.001399	13.985831	2.369264	-0.000280
1393	1.3850e+02	-7.7290	-38.580888	0.000993	9.931967	1.682521	-0.000199
1394	1.3860e+02	-7.7478	-38.835227	0.001277	12.769672	2.163241	-0.000256
1395	1.3870e+02	-7.7681	-39.073418	0.001196	11.958899	2.025892	-0.000239
1396	1.3880e+02	-7.7890	-39.299498	0.001135	11.350820	1.922881	-0.000227
1397	1.3890e+02	-7.8093	-39.549800	0.001257	12.566979	2.128904	-0.000252
1398	1.3900e+02	-7.8293	-39.792028	0.001216	12.161593	2.060230	-0.000243
1399	1.3910e+02	-7.8477	-40.005997	0.001074	10.742740	1.819869	-0.000215
1400	1.3920e+02	-7.8680	-40.224002	0.001095	10.945433	1.854207	-0.000219
1401	1.3930e+02	-7.8893	-40.494490	0.001358	13.580445	2.300590	-0.000272
1402	1.3940e+02	-7.9080	-40.764978	0.001358	13.580445	2.300590	-0.000272
1403	1.3950e+02	-7.9276	-40.946649	0.000912	9.121194	1.545172	-0.000183
1404	1.3960e+02	-7.9476	-41.200989	0.001277	12.769672	2.163241	-0.000256
1405	1.3970e+02	-7.9684	-41.427068	0.001135	11.350820	1.922881	-0.000227
1406	1.3980e+02	-7.9872	-41.657185	0.001155	11.553513	1.957218	-0.000231
1407	1.3990e+02	-8.0076	-41.943822	0.001439	14.391218	2.437938	-0.000288
1408	1.4000e+02	-8.0273	-42.177976	0.001176	11.756206	1.991555	-0.000235
1409	1.4010e+02	-8.0466	-42.440389	0.001318	13.175059	2.231915	-0.000264
1410	1.4020e+02	-8.0676	-42.718952	0.001399	13.985831	2.369264	-0.000280
1411	1.4029e+02	-8.0876	-42.940994	0.001115	11.148127	1.888544	-0.000223
1412	1.4039e+02	-8.1081	-43.235705	0.001480	14.796604	2.506613	-0.000296
1413	1.4049e+02	-8.1271	-43.453711	0.001095	10.945433	1.854207	-0.000219
1414	1.4059e+02	-8.1473	-43.744384	0.001459	14.593911	2.472275	-0.000292
1415	1.4069e+02	-8.1674	-43.986612	0.001216	12.161593	2.060230	-0.000243
1416	1.4079e+02	-8.1863	-44.273249	0.001439	14.391218	2.437938	-0.000288
1417	1.4089e+02	-8.2062	-44.487217	0.001074	10.742740	1.819869	-0.000215
1418	1.4099e+02	-8.2254	-44.773854	0.001439	14.391218	2.437938	-0.000288
1419	1.4109e+02	-8.2472	-45.028193	0.001277	12.769672	2.163241	-0.000256
1420	1.4119e+02	-8.2649	-45.318867	0.001459	14.593911	2.472275	-0.000292
1421	1.4129e+02	-8.2864	-45.573207	0.001277	12.769672	2.163241	-0.000256
1422	1.4139e+02	-8.3061	-45.827546	0.001277	12.769672	2.163241	-0.000256
1423	1.4149e+02	-8.3263	-46.057663	0.001155	11.553513	1.957218	-0.000231
1424	1.4159e+02	-8.3470	-46.360448	0.001520	15.201991	2.575287	-0.000304
1425	1.4169e+02	-8.3659	-46.647085	0.001439	14.391218	2.437938	-0.000288
1426	1.4179e+02	-8.3868	-46.889313	0.001216	12.161593	2.060230	-0.000243
1427	1.4189e+02	-8.4061	-47.119430	0.001155	11.553513	1.957218	-0.000231
1428	1.4199e+02	-8.4253	-47.418178	0.001500	14.999298	2.540950	-0.000300
1429	1.4209e+02	-8.4454	-47.688666	0.001358	13.580445	2.300590	-0.000272
1430	1.4219e+02	-8.4663	-47.959154	0.001358	13.580445	2.300590	-0.000272
1431	1.4228e+02	-8.4843	-48.237716	0.001399	13.985831	2.369264	-0.000280
1432	1.4238e+02	-8.5048	-48.560687	0.001622	16.215457	2.746973	-0.000325
1433	1.4248e+02	-8.5263	-48.839250	0.001399	13.985831	2.369264	-0.000280
1434	1.4258e+02	-8.5464	-49.077441	0.001196	11.958899	2.025892	-0.000239
1435	1.4268e+02	-8.5654	-49.376189	0.001500	14.999298	2.540950	-0.000300
1436	1.4278e+02	-8.5858	-49.727419	0.001763	17.634309	2.987333	-0.000353
1437	1.4288e+02	-8.6023	-50.001945	0.001378	13.783138	2.334927	-0.000276
1438	1.4298e+02	-8.6255	-50.276470	0.001378	13.783138	2.334927	-0.000276
1439	1.4308e+02	-8.6443	-50.567144	0.001459	14.593911	2.472275	-0.000292
1440	1.4318e+02	-8.6641	-50.817446	0.001257	12.566979	2.128904	-0.000252
1441	1.4328e+02	-8.6836	-51.152528	0.001682	16.823536	2.849984	-0.000337
1442	1.4338e+02	-8.7051	-51.443202	0.001459	14.593911	2.472275	-0.000292
1443	1.4348e+02	-8.7244	-51.745987	0.001520	15.201991	2.575287	-0.000304
1444	1.4358e+02	-8.7451	-52.036661	0.001459	14.593911	2.472275	-0.000292
1445	1.4368e+02	-8.7649	-52.367706	0.001662	16.620843	2.815647	-0.000333
1446	1.4378e+02	-8.7837	-52.642231	0.001378	13.783138	2.334927	-0.000276
1447	1.4388e+02	-8.8042	-52.949054	0.001540	15.404684	2.609624	-0.000308
1448	1.4398e+02	-8.8239	-53.239728	0.001459	14.593911	2.472275	-0.000292
1449	1.4408e+02	-8.8425	-53.570773	0.001662	16.620843	2.815647	-0.000333
1450	1.4418e+02	-8.8640	-53.877595	0.001540	15.404684	2.609624	-0.000308
1451	1.4428e+02	-8.8833	-54.192492	0.001581	15.810070	2.678298	-0.000316
1452	1.4437e+02	-8.9041	-54.547760	0.001784	17.837002	3.021670	-0.000357
1453	1.4447e+02	-8.9236	-54.810173	0.001318	13.175059	2.231915	-0.000264
1454	1.4457e+02	-8.9431	-55.173516	0.001824	18.242389	3.090344	-0.000365
1455	1.4467e+02	-8.9638	-55.464189	0.001459	14.593911	2.472275	-0.000292
1456	1.4477e+02	-8.9832	-55.795234	0.001662	16.620843	2.815647	-0.000333
1457	1.4487e+02	-9.0038	-56.142428	0.001743	17.431616	2.952996	-0.000349
1458	1.4497e+02	-9.0233	-56.429065	0.001439	14.391218	2.437938	-0.000288
1459	1.4507e+02	-9.0433	-56.776258	0.001743	17.431616	2.952996	-0.000349
1460	1.4517e+02	-9.0634	-57.123452	0.001743	17.431616	2.952996	-0.000349
1461	1.4527e+02	-9.0823	-57.426237	0.001520	15.201991	2.575287	-0.000304
1462	1.4537e+02	-9.1028	-57.773431	0.001743	17.431616	2.952996	-0.000349
1463	1.4547e+02	-9.1219	-58.120625	0.001743	17.431616	2.952996	-0.000349
1464	1.4557e+02	-9.1420	-58.463781	0.001723	17.228923	2.918659	-0.000345
1465	1.4567e+02	-9.1626	-58.754455	0.001459	14.593911	2.472275	-0.000292
1466	1.4577e+02	-9.1820	-59.174317	0.002108	21.080094	3.571065	-0.000422
1467	1.4587e+02	-9.2027	-59.509399	0.001682	16.823536	2.849984	-0.000337
1468	1.4597e+02	-9.2220	-59.888890	0.001905	19.053162	3.227693	-0.000381
1469	1.4607e+02	-9.2427	-60.211861	0.001622	16.215457	2.746973	-0.000325
1470	1.4617e+02	-9.2613	-60.619612	0.002047	20.472014	3.468053	-0.000410
1471	1.4626e+02	-9.2822	-60.946620	0.001642	16.418150	2.781310	-0.000329
1472	1.4636e+02	-9.3023	-61.342259	0.001986	19.863935	3.365042	-0.000398
1473	1.4646e+02	-9.3216	-61.677341	0.001682	16.823536	2.849984	-0.000337
1474	1.4656e+02	-9.3408	-62.056832	0.001905	19.053162	3.227693	-0.000381
1475	1.4666e+02	-9.3626	-62.448434	0.001966	19.661241	3.330704	-0.000394
1476	1.4676e+02	-9.3805	-62.827925	0.001905	19.053162	3.227693	-0.000381
1477	1.4686e+02	-9.4013	-63.179156	0.001763	17.634309	2.987333	-0.000353
1478	1.4696e+02	-9.4237	-63.603055	0.002128	21.282787	3.605402	-0.000426
1479	1.4706e+02	-9.4417	-63.970434	0.001845	18.445082	3.124681	-0.000369
1480	1.4716e+02	-9.4614	-64.325702	0.001784	17.837002	3.021670	-0.000357
1481	1.4726e+02	-9.4806	-64.745564	0.002108	21.080094	3.571065	-0.000422
1482	1.4736e+02	-9.5006	-65.100832	0.001784	17.837002	3.021670	-0.000357
1483	1.4746e+02	-9.5215	-65.500509	0.002007	20.066628	3.399379	-0.000402
1484	1.4756e+02	-9.5419	-65.884037	0.001926	19.255855	3.262030	-0.000385
1485	1.4766e+02	-9.5611	-66.307936	0.002128	21.282787	3.605402	-0.000426
1486	1.4776e+02	-9.5819	-66.683390	0.001885	18.850468	3.193356	-0.000377
1487	1.4786e+02	-9.6007	-67.107289	0.002128	21.282787	3.605402	-0.000426
1488	1.4796e+02	-9.6203	-67.535225	0.002149	21.485480	3.639739	-0.000430
1489	1.4806e+02	-9.6413	-67.910679	0.001885	18.850468	3.193356	-0.000377
1490	1.4816e+02	-9.6614	-68.330541	0.002108	21.080094	3.571065	-0.000422
1491	1.4825e+02	-9.6797	-68.738292	0.002047	20.472014	3.468053	-0.000410
1492	1.4835e+02	-9.7006	-69.174302	0.002189	21.890867	3.708413	-0.000438
1493	1.4845e+02	-9.7211	-69.634536	0.002311	23.107026	3.914436	-0.000463
1494	1.4855e+02	-9.7400	-70.001915	0.001845	18.445082	3.124681	-0.000369
1495	1.4865e+02	-9.7606	-70.478297	0.002392	23.917799	4.051785	-0.000479
1496	1.4875e+02	-9.7797	-70.918345	0.002209	22.093560	3.742750	-0.000442
1497	1.4885e+02	-9.7995	-71.362430	0.002230	22.296253	3.777088	-0.000446
1498	1.4895e+02	-9.8198	-71.786329	0.002128	21.282787	3.605402	-0.000426
1499	1.4905e+02	-9.8396	-72.206191	0.002108	21.080094	3.571065	-0.000422
1500	1.4915e+02	-9.8605	-72.682573	0.002392	23.917799	4.051785	-0.000479
1501	1.4925e+02	-9.8798	-73.138770	0.002290	22.904333	3.880099	-0.000458
1502	1.4935e+02	-9.8996	-73.639374	0.002513	25.133958	4.257808	-0.000503
1503	1.4945e+02	-9.9191	-74.083459	0.002230	22.296253	3.777088	-0.000446
1504	1.4955e+02	-9.9391	-74.531581	0.002250	22.498946	3.811425	-0.000450
1505	1.4965e+02	-9.9606	-74.995852	0.002331	23.309719	3.948773	-0.000467
1506	1.4975e+02	-9.9792	-75.512605	0.002594	25.944731	4.395156	-0.000519
1507	1.4985e+02	-10.0000	-75.972839	0.002311	23.107026	3.914436	-0.000463
1508	1.4995e+02	-9.9800	-76.279661	-0.001540	-15.404684	-2.609624	-0.000308
1509	1.5005e+02	-9.9585	-76.546112	-0.001338	-13.377752	-2.266253	-0.000268
1510	1.5015e+02	-9.9394	-76.852934	-0.001540	-15.404684	-2.609624	-0.000308
1511	1.5025e+02	-9.9200	-77.135534	-0.001419	-14.188525	-2.403601	-0.000284
1512	1.5034e+02	-9.8993	-77.401985	-0.001338	-13.377752	-2.266253	-0.000268
1513	1.5044e+02	-9.8798	-77.615953	-0.001074	-10.742740	-1.819869	-0.000215
1514	1.5054e+02	-9.8598	-77.854144	-0.001196	-11.958899	-2.025892	-0.000239
1515	1.5064e+02	-9.8386	-78.120595	-0.001338	-13.377752	-2.266253	-0.000268
1516	1.5074e+02	-9.8206	-78.338600	-0.001095	-10.945433	-1.854207	-0.000219
1517	1.5084e+02	-9.7997	-78.552569	-0.001074	-10.742740	-1.819869	-0.000215
1518	1.5094e+02	-9.7803	-78.782685	-0.001155	-11.553513	-1.957218	-0.000231
1519	1.5104e+02	-9.7604	-78.984542	-0.001013	-10.134660	-1.716858	-0.000203
1520	1.5114e+02	-9.7408	-79.166213	-0.000912	-9.121194	-1.545172	-0.000183
1521	1.5124e+02	-9.7202	-79.339810	-0.000872	-8.715808	-1.476498	-0.000174
1522	1.5134e+02	-9.7002	-79.521481	-0.000912	-9.121194	-1.545172	-0.000183
1523	1.5144e+02	-9.6800	-79.695078	-0.000872	-8.715808	-1.476498	-0.000174
1524	1.5154e+02	-9.6609	-79.876749	-0.000912	-9.121194	-1.545172	-0.000183
1525	1.5164e+02	-9.6403	-80.046309	-0.000851	-8.513115	-1.442161	-0.000170
1526	1.5174e+02	-9.6210	-80.191646	-0.000730	-7.296956	-1.236138	-0.000146
1527	1.5184e+02	-9.6003	-80.377354	-0.000932	-9.323888	-1.579509	-0.000187
1528	1.5194e+02	-9.5820	-80.510579	-0.000669	-6.688876	-1.133126	-0.000134
1529	1.5204e+02	-9.5604	-80.655916	-0.000730	-7.296956	-1.236138	-0.000146
1530	1.5214e+02	-9.5409	-80.829513	-0.000872	-8.715808	-1.476498	-0.000174
1531	1.5224e+02	-9.5210	-80.954664	-0.000628	-6.283489	-1.064452	-0.000126
1532	1.5233e+02	-9.5014	-81.108076	-0.000770	-7.702342	-1.304812	-0.000154
1533	1.5243e+02	-9.4819	-81.221115	-0.000568	-5.675410	-0.961440	-0.000114
1534	1.5253e+02	-9.4608	-81.334155	-0.000568	-5.675410	-0.961440	-0.000114
1535	1.5263e+02	-9.4420	-81.471418	-0.000689	-6.891569	-1.167463	-0.000138
1536	1.5273e+02	-9.4216	-81.580420	-0.000547	-5.472717	-0.927103	-0.000110
1537	1.5283e+02	-9.4006	-81.681349	-0.000507	-5.067330	-0.858429	-0.000101
1538	1.5293e+02	-9.3826	-81.778240	-0.000486	-4.864637	-0.824092	-0.000097
1539	1.5303e+02	-9.3615	-81.875131	-0.000486	-4.864637	-0.824092	-0.000097
1540	1.5313e+02	-9.3419	-81.992208	-0.000588	-5.878103	-0.995778	-0.000118
1541	1.5323e+02	-9.3208	-82.072951	-0.000405	-4.053864	-0.686743	-0.000081
1542	1.5333e+02	-9.3019	-82.198102	-0.000628	-6.283489	-1.064452	-0.000126
1543	1.5343e+02	-9.2813	-82.254622	-0.000284	-2.837705	-0.480720	-0.000057
1544	1.5353e+02	-9.2624	-82.399959	-0.000730	-7.296956	-1.236138	-0.000146
1545	1.5363e+02	-9.2418	-82.440330	-0.000203	-2.026932	-0.343372	-0.000041
1546	1.5373e+02	-9.2220	-82.488776	-0.000243	-2.432319	-0.412046	-0.000049
1547	1.5383e+02	-9.2024	-82.613927	-0.000628	-6.283489	-1.064452	-0.000126
1548	1.5393e+02	-9.1797	-82.617964	-0.000020	-0.202693	-0.034337	-0.000004
1549	1.5403e+02	-9.1626	-82.767338	-0.000750	-7.499649	-1.270475	-0.000150
1550	1.5413e+02	-9.1420	-82.815784	-0.000243	-2.432319	-0.412046	-0.000049
1551	1.5422e+02	-9.1228	-82.827895	-0.000061	-0.608080	-0.103011	-0.000012
1552	1.5432e+02	-9.1020	-82.920749	-0.000466	-4.661944	-0.789755	-0.000093
1553	1.5442e+02	-9.0826	-82.981307	-0.000304	-3.040398	-0.515057	-0.000061
1554	1.5452e+02	-9.0637	-83.049938	-0.000345	-3.445785	-0.583732	-0.000069
1555	1.5462e+02	-9.0425	-83.090309	-0.000203	-2.026932	-0.343372	-0.000041
1556	1.5472e+02	-9.0229	-83.154903	-0.000324	-3.243091	-0.549395	-0.000065
1557	1.5482e+02	-9.0036	-83.175089	-0.000101	-1.013466	-0.171686	-0.000020
1558	1.5492e+02	-8.9832	-83.231609	-0.000284	-2.837705	-0.480720	-0.000057
1559	1.5502e+02	-8.9627	-83.280055	-0.000243	-2.432319	-0.412046	-0.000049
1560	1.5512e+02	-8.9435	-83.332537	-0.000264	-2.635012	-0.446383	-0.000053
1561	1.5522e+02	-8.9228	-83.385020	-0.000264	-2.635012	-0.446383	-0.000053
1562	1.5532e+02	-8.9041	-83.397132	-0.000061	-0.608080	-0.103011	-0.000012
1563	1.5542e+02	-8.8834	-83.433466	-0.000182	-1.824239	-0.309034	-0.000037
1564	1.5552e+02	-8.8649	-83.469800	-0.000182	-1.824239	-0.309034	-0.000037
1565	1.5562e+02	-8.8445	-83.449614	0.000101	1.013466	0.171686	0.000020
1566	1.5572e+02	-8.8237	-83.510171	-0.000304	-3.040398	-0.515057	-0.000061
1567	1.5582e+02	-8.8043	-83.514208	-0.000020	-0.202693	-0.034337	-0.000004
1568	1.5592e+02	-8.7840	-83.578803	-0.000324	-3.243091	-0.549395	-0.000065
1569	1.5602e+02	-8.7643	-83.578803	0.000000	0.000000	0.000000	0.000000
1570	1.5612e+02	-8.7441	-83.631285	-0.000264	-2.635012	-0.446383	-0.000053
1571	1.5622e+02	-8.7251	-83.643397	-0.000061	-0.608080	-0.103011	-0.000012
1572	1.5631e+02	-8.7045	-83.643397	0.000000	0.000000	0.000000	0.000000
1573	1.5641e+02	-8.6850	-83.667620	-0.000122	-1.216159	-0.206023	-0.000024
1574	1.5651e+02	-8.6650	-83.643397	0.000122	1.216159	0.206023	0.000024
1575	1.5661e+02	-8.6446	-83.683768	-0.000203	-2.026932	-0.343372	-0.000041
1576	1.5671e+02	-8.6235	-83.699917	-0.000081	-0.810773	-0.137349	-0.000016
1577	1.5681e+02	-8.6052	-83.712028	-0.000061	-0.608080	-0.103011	-0.000012
1578	1.5691e+02	-8.5859	-83.716065	-0.000020	-0.202693	-0.034337	-0.000004
1579	1.5701e+02	-8.5658	-83.736251	-0.000101	-1.013466	-0.171686	-0.000020
1580	1.5711e+02	-8.5455	-83.716065	0.000101	1.013466	0.171686	0.000020
1581	1.5721e+02	-8.5255	-83.732214	-0.000081	-0.810773	-0.137349	-0.000016
1582	1.5731e+02	-8.5053	-83.744325	-0.000061	-0.608080	-0.103011	-0.000012
1583	1.5741e+02	-8.4863	-83.720102	0.000122	1.216159	0.206023	0.000024
1584	1.5751e+02	-8.4650	-83.736251	-0.000081	-0.810773	-0.137349	-0.000016
1585	1.5761e+02	-8.4464	-83.728177	0.000041	0.405386	0.068674	0.000008
1586	1.5771e+02	-8.4263	-83.720102	0.000041	0.405386	0.068674	0.000008
1587	1.5781e+02	-8.4064	-83.691842	0.000142	1.418852	0.240360	0.000028
1588	1.5791e+02	-8.3871	-83.647434	0.000223	2.229625	0.377709	0.000045
1589	1.5801e+02	-8.3651	-83.691842	-0.000223	-2.229625	-0.377709	-0.000045
1590	1.5811e+02	-8.3461	-83.667620	0.000122	1.216159	0.206023	0.000024
1591	1.5821e+02	-8.3257	-83.635323	0.000162	1.621546	0.274697	0.000032
1592	1.5830e+02	-8.3069	-83.647434	-0.000061	-0.608080	-0.103011	-0.000012
1593	1.5840e+02	-8.2867	-83.631285	0.000081	0.810773	0.137349	0.000016
1594	1.5850e+02	-8.2662	-83.607063	0.000122	1.216159	0.206023	0.000024
1595	1.5860e+02	-8.2469	-83.566691	0.000203	2.026932	0.343372	0.000041
1596	1.5870e+02	-8.2266	-83.542468	0.000122	1.216159	0.206023	0.000024
1597	1.5880e+02	-8.2076	-83.473837	0.000345	3.445785	0.583732	0.000069
1598	1.5890e+02	-8.1858	-83.473837	0.000000	0.000000	0.000000	0.000000
1599	1.5900e+02	-8.1668	-83.477874	-0.000020	-0.202693	-0.034337	-0.000004
1600	1.5910e+02	-8.1468	-83.441540	0.000182	1.824239	0.309034	0.000037
1601	1.5920e+02	-8.1267	-83.449614	-0.000041	-0.405386	-0.068674	-0.000008
1602	1.5930e+02	-8.1065	-83.393094	0.000284	2.837705	0.480720	0.000057
1603	1.5940e+02	-8.0864	-83.332537	0.000304	3.040398	0.515057	0.000061
1604	1.5950e+02	-8.0670	-83.316389	0.000081	0.810773	0.137349	0.000016
1605	1.5960e+02	-8.0475	-83.271980	0.000223	2.229625	0.377709	0.000045
1606	1.5970e+02	-8.0276	-83.239683	0.000162	1.621546	0.274697	0.000032
1607	1.5980e+02	-8.0069	-83.227572	0.000061	0.608080	0.103011	0.000012
1608	1.5990e+02	-7.9874	-83.195275	0.000162	1.621546	0.274697	0.000032
1609	1.6000e+02	-7.9663	-83.154903	0.000203	2.026932	0.343372	0.000041
1610	1.6010e+02	-7.9476	-83.078198	0.000385	3.851171	0.652406	0.000077
1611	1.6019e+02	-7.9272	-83.062049	0.000081	0.810773	0.137349	0.000016
1612	1.6029e+02	-7.9080	-83.025715	0.000182	1.824239	0.309034	0.000037
1613	1.6039e+02	-7.8882	-82.961121	0.000324	3.243091	0.549395	0.000065
1614	1.6049e+02	-7.8687	-82.908638	0.000264	2.635012	0.446383	0.000053
1615	1.6059e+02	-7.8484	-82.888452	0.000101	1.013466	0.171686	0.000020
1616	1.6069e+02	-7.8283	-82.831933	0.000284	2.837705	0.480720	0.000057
1617	1.6079e+02	-7.8107	-82.844044	-0.000061	-0.608080	-0.103011	-0.000012
1618	1.6089e+02	-7.7881	-82.731004	0.000568	5.675410	0.961440	0.000114
1619	1.6099e+02	-7.7681	-82.763301	-0.000162	-1.621546	-0.274697	-0.000032
1620	1.6109e+02	-7.7489	-82.642187	0.000608	6.080796	1.030115	0.000122
1621	1.6119e+02	-7.7290	-82.605853	0.000182	1.824239	0.309034	0.000037
1622	1.6129e+02	-7.7080	-82.565482	0.000203	2.026932	0.343372	0.000041
1623	1.6139e+02	-7.6875	-82.512999	0.000264	2.635012	0.446383	0.000053
1624	1.6149e+02	-7.6682	-82.496850	0.000081	0.810773	0.137349	0.000016
1625	1.6159e+02	-7.6484	-82.412070	0.000426	4.256557	0.721080	0.000085
1626	1.6169e+02	-7.6306	-82.367662	0.000223	2.229625	0.377709	0.000045
1627	1.6179e+02	-7.6091	-82.303068	0.000324	3.243091	0.549395	0.000065
1628	1.6189e+02	-7.5899	-82.270771	0.000162	1.621546	0.274697	0.000032
1629	1.6199e+02	-7.5696	-82.242511	0.000142	1.418852	0.240360	0.000028
1630	1.6209e+02	-7.5498	-82.157731	0.000426	4.256557	0.721080	0.000085
1631	1.6219e+02	-7.5314	-82.113322	0.000223	2.229625	0.377709	0.000045
1632	1.6228e+02	-7.5113	-82.072951	0.000203	2.026932	0.343372	0.000041
1633	1.6238e+02	-7.4899	-81.988171	0.000426	4.256557	0.721080	0.000085
1634	1.6248e+02	-7.4699	-81.931651	0.000284	2.837705	0.480720	0.000057
1635	1.6258e+02	-7.4503	-81.895317	0.000182	1.824239	0.309034	0.000037
1636	1.6268e+02	-7.4304	-81.826686	0.000345	3.445785	0.583732	0.000069
1637	1.6278e+02	-7.4103	-81.741906	0.000426	4.256557	0.721080	0.000085
1638	1.6288e+02	-7.3904	-81.705572	0.000182	1.824239	0.309034	0.000037
1639	1.6298e+02	-7.3709	-81.608680	0.000486	4.864637	0.824092	0.000097
1640	1.6308e+02	-7.3502	-81.556198	0.000264	2.635012	0.446383	0.000053
1641	1.6318e+02	-7.3306	-81.507752	0.000243	2.432319	0.412046	0.000049
1642	1.6328e+02	-7.3111	-81.467381	0.000203	2.026932	0.343372	0.000041
1643	1.6338e+02	-7.2920	-81.406824	0.000304	3.040398	0.515057	0.000061
1644	1.6348e+02	-7.2708	-81.326081	0.000405	4.053864	0.686743	0.000081
1645	1.6358e+02	-7.2506	-81.277635	0.000243	2.432319	0.412046	0.000049
1646	1.6368e+02	-7.2313	-81.196893	0.000405	4.053864	0.686743	0.000081
1647	1.6378e+02	-7.2105	-81.100001	0.000486	4.864637	0.824092	0.000097
1648	1.6388e+02	-7.1922	-81.039444	0.000304	3.040398	0.515057	0.000061
1649	1.6398e+02	-7.1710	-80.978887	0.000304	3.040398	0.515057	0.000061
1650	1.6408e+02	-7.1523	-80.938516	0.000203	2.026932	0.343372	0.000041
1651	1.6418e+02	-7.1309	-80.857773	0.000405	4.053864	0.686743	0.000081
1652	1.6427e+02	-7.1116	-80.777030	0.000405	4.053864	0.686743	0.000081
1653	1.6437e+02	-7.0913	-80.777030	0.000000	0.000000	0.000000	0.000000
1654	1.6447e+02	-7.0728	-80.655916	0.000608	6.080796	1.030115	0.000122
1655	1.6457e+02	-7.0515	-80.583248	0.000365	3.648478	0.618069	0.000073
1656	1.6467e+02	-7.0329	-80.498468	0.000426	4.256557	0.721080	0.000085
1657	1.6477e+02	-7.0104	-80.381391	0.000588	5.878103	0.995778	0.000118
1658	1.6487e+02	-6.9922	-80.373317	0.000041	0.405386	0.068674	0.000008
1659	1.6497e+02	-6.9725	-80.272388	0.000507	5.067330	0.858429	0.000101
1660	1.6507e+02	-6.9519	-80.211831	0.000304	3.040398	0.515057	0.000061
1661	1.6517e+02	-6.9324	-80.131089	0.000405	4.053864	0.686743	0.000081
1662	1.6527e+02	-6.9125	-80.066495	0.000324	3.243091	0.549395	0.000065
1663	1.6537e+02	-6.8921	-79.965566	0.000507	5.067330	0.858429	0.000101
1664	1.6547e+02	-6.8718	-79.917121	0.000243	2.432319	0.412046	0.000049
1665	1.6557e+02	-6.8523	-79.796006	0.000608	6.080796	1.030115	0.000122
1666	1.6567e+02	-6.8318	-79.723338	0.000365	3.648478	0.618069	0.000073
1667	1.6577e+02	-6.8129	-79.634521	0.000446	4.459251	0.755418	0.000089
1668	1.6587e+02	-6.7923	-79.598187	0.000182	1.824239	0.309034	0.000037
1669	1.6597e+02	-6.7729	-79.468998	0.000649	6.486183	1.098789	0.000130
1670	1.6607e+02	-6.7534	-79.400367	0.000345	3.445785	0.583732	0.000069
1671	1.6616e+02	-6.7334	-79.303476	0.000486	4.864637	0.824092	0.000097
1672	1.6626e+02	-6.7136	-79.234845	0.000345	3.445785	0.583732	0.000069
1673	1.6636e+02	-6.6934	-79.133916	0.000507	5.067330	0.858429	0.000101
1674	1.6646e+02	-6.6734	-79.081433	0.000264	2.635012	0.446383	0.000053
1675	1.6656e+02	-6.6528	-79.000691	0.000405	4.053864	0.686743	0.000081
1676	1.6666e+02	-6.6336	-78.915911	0.000426	4.256557	0.721080	0.000085
1677	1.6676e+02	-6.6130	-78.863428	0.000264	2.635012	0.446383	0.000053
1678	1.6686e+02	-6.5942	-78.738277	0.000628	6.283489	1.064452	0.000126
1679	1.6696e+02	-6.5736	-78.673683	0.000324	3.243091	0.549395	0.000065
1680	1.6706e+02	-6.5536	-78.580829	0.000466	4.661944	0.789755	0.000093
1681	1.6716e+02	-6.5323	-78.532383	0.000243	2.432319	0.412046	0.000049
1682	1.6726e+02	-6.5126	-78.403195	0.000649	6.486183	1.098789	0.000130
1683	1.6736e+02	-6.4937	-78.366860	0.000182	1.824239	0.309034	0.000037
1684	1.6746e+02	-6.4732	-78.282081	0.000426	4.256557	0.721080	0.000085
1685	1.6756e+02	-6.4537	-78.152892	0.000649	6.486183	1.098789	0.000130
1686	1.6766e+02	-6.4343	-78.108484	0.000223	2.229625	0.377709	0.000045
1687	1.6776e+02	-6.4146	-77.995444	0.000568	5.675410	0.961440	0.000114
1688	1.6786e+02	-6.3940	-77.898553	0.000486	4.864637	0.824092	0.000097
1689	1.6796e+02	-6.3742	-77.821847	0.000385	3.851171	0.652406	0.000077
1690	1.6806e+02	-6.3550	-77.757253	0.000324	3.243091	0.549395	0.000065
1691	1.6816e+02	-6.3339	-77.652287	0.000527	5.270023	0.892766	0.000105
1692	1.6825e+02	-6.3141	-77.615953	0.000182	1.824239	0.309034	0.000037
1693	1.6835e+02	-6.2949	-77.490802	0.000628	6.283489	1.064452	0.000126
1694	1.6845e+02	-6.2740	-77.385836	0.000527	5.270023	0.892766	0.000105
1695	1.6855e+02	-6.2547	-77.337391	0.000243	2.432319	0.412046	0.000049
1696	1.6865e+02	-6.2360	-77.220314	0.000588	5.878103	0.995778	0.000118
1697	1.6875e+02	-6.2154	-77.143608	0.000385	3.851171	0.652406	0.000077
1698	1.6885e+02	-6.1954	-77.050754	0.000466	4.661944	0.789755	0.000093
1699	1.6895e+02	-6.1754	-76.970011	0.000405	4.053864	0.686743	0.000081
1700	1.6905e+02	-6.1559	-76.865046	0.000527	5.270023	0.892766	0.000105
1701	1.6915e+02	-6.1353	-76.780266	0.000426	4.256557	0.721080	0.000085
1702	1.6925e+02	-6.1148	-76.679338	0.000507	5.067330	0.858429	0.000101
1703	1.6935e+02	-6.0957	-76.602632	0.000385	3.851171	0.652406	0.000077
1704	1.6945e+02	-6.0754	-76.497667	0.000527	5.270023	0.892766	0.000105
1705	1.6955e+02	-6.0553	-76.437109	0.000304	3.040398	0.515057	0.000061
1706	1.6965e+02	-6.0353	-76.344255	0.000466	4.661944	0.789755	0.000093
1707	1.6975e+02	-6.0159	-76.247364	0.000486	4.864637	0.824092	0.000097
1708	1.6985e+02	-5.9970	-76.158547	0.000446	4.459251	0.755418	0.000089
1709	1.6995e+02	-5.9765	-76.053582	0.000527	5.270023	0.892766	0.000105
1710	1.7005e+02	-5.9561	-75.948616	0.000527	5.270023	0.892766	0.000105
1711	1.7015e+02	-5.9360	-75.863836	0.000426	4.256557	0.721080	0.000085
1712	1.7024e+02	-5.9165	-75.750796	0.000568	5.675410	0.961440	0.000114
1713	1.7034e+02	-5.8952	-75.661979	0.000446	4.459251	0.755418	0.000089
1714	1.7044e+02	-5.8764	-75.552977	0.000547	5.472717	0.927103	0.000110
1715	1.7054e+02	-5.8560	-75.476271	0.000385	3.851171	0.652406	0.000077
1716	1.7064e+02	-5.8357	-75.387454	0.000446	4.459251	0.755418	0.000089
1717	1.7074e+02	-5.8160	-75.262303	0.000628	6.283489	1.064452	0.000126
1718	1.7084e+02	-5.7962	-75.161375	0.000507	5.067330	0.858429	0.000101
1719	1.7094e+02	-5.7762	-75.076595	0.000426	4.256557	0.721080	0.000085
1720	1.7104e+02	-5.7564	-75.024112	0.000264	2.635012	0.446383	0.000053
1721	1.7114e+02	-5.7369	-74.911072	0.000568	5.675410	0.961440	0.000114
1722	1.7124e+02	-5.7175	-74.777847	0.000669	6.688876	1.133126	0.000134
1723	1.7134e+02	-5.6973	-74.705178	0.000365	3.648478	0.618069	0.000073
1724	1.7144e+02	-5.6767	-74.551767	0.000770	7.702342	1.304812	0.000154
1725	1.7154e+02	-5.6564	-74.519470	0.000162	1.621546	0.274697	0.000032
1726	1.7164e+02	-5.6378	-74.386245	0.000669	6.688876	1.133126	0.000134
1727	1.7174e+02	-5.6172	-74.329725	0.000284	2.837705	0.480720	0.000057
1728	1.7184e+02	-5.5974	-74.196499	0.000669	6.688876	1.133126	0.000134
1729	1.7194e+02	-5.5775	-74.067311	0.000649	6.486183	1.098789	0.000130
1730	1.7204e+02	-5.5583	-73.966382	0.000507	5.067330	0.858429	0.000101
1731	1.7213e+02	-5.5386	-73.913900	0.000264	2.635012	0.446383	0.000053
1732	1.7223e+02	-5.5171	-73.788748	0.000628	6.283489	1.064452	0.000126
1733	1.7233e+02	-5.4979	-73.683783	0.000527	5.270023	0.892766	0.000105
1734	1.7243e+02	-5.4781	-73.619189	0.000324	3.243091	0.549395	0.000065
1735	1.7253e+02	-5.4579	-73.485963	0.000669	6.688876	1.133126	0.000134
1736	1.7263e+02	-5.4380	-73.405221	0.000405	4.053864	0.686743	0.000081
1737	1.7273e+02	-5.4178	-73.296218	0.000547	5.472717	0.927103	0.000110
1738	1.7283e+02	-5.3989	-73.211438	0.000426	4.256557	0.721080	0.000085
1739	1.7293e+02	-5.3794	-73.138770	0.000365	3.648478	0.618069	0.000073
1740	1.7303e+02	-5.3580	-73.005544	0.000669	6.688876	1.133126	0.000134
1741	1.7313e+02	-5.3391	-72.912690	0.000466	4.661944	0.789755	0.000093
1742	1.7323e+02	-5.3188	-72.803687	0.000547	5.472717	0.927103	0.000110
1743	1.7333e+02	-5.2984	-72.726982	0.000385	3.851171	0.652406	0.000077
1744	1.7343e+02	-5.2786	-72.617979	0.000547	5.472717	0.927103	0.000110
1745	1.7353e+02	-5.2584	-72.492828	0.000628	6.283489	1.064452	0.000126
1746	1.7363e+02	-5.2392	-72.408048	0.000426	4.256557	0.721080	0.000085
1747	1.7373e+02	-5.2180	-72.319231	0.000446	4.459251	0.755418	0.000089
1748	1.7383e+02	-5.1991	-72.218303	0.000507	5.067330	0.858429	0.000101
1749	1.7393e+02	-5.1791	-72.109300	0.000547	5.472717	0.927103	0.000110
1750	1.7403e+02	-5.1592	-72.004334	0.000527	5.270023	0.892766	0.000105
1751	1.7413e+02	-5.1393	-71.911480	0.000466	4.661944	0.789755	0.000093
1752	1.7422e+02	-5.1189	-71.798441	0.000568	5.675410	0.961440	0.000114
1753	1.7432e+02	-5.0995	-71.701549	0.000486	4.864637	0.824092	0.000097
1754	1.7442e+02	-5.0780	-71.576398	0.000628	6.283489	1.064452	0.000126
1755	1.7452e+02	-5.0591	-71.507767	0.000345	3.445785	0.583732	0.000069
1756	1.7462e+02	-5.0395	-71.366467	0.000709	7.094262	1.201801	0.000142
1757	1.7472e+02	-5.0205	-71.301873	0.000324	3.243091	0.549395	0.000065
1758	1.7482e+02	-5.0000	-71.200944	0.000507	5.067330	0.858429	0.000101
1759	1.7492e+02	-4.9806	-71.071756	0.000649	6.486183	1.098789	0.000130
1760	1.7502e+02	-4.9603	-70.946605	0.000628	6.283489	1.064452	0.000126
1761	1.7512e+02	-4.9393	-70.845676	0.000507	5.067330	0.858429	0.000101
1762	1.7522e+02	-4.9199	-70.724562	0.000608	6.080796	1.030115	0.000122
1763	1.7532e+02	-4.9004	-70.639783	0.000426	4.256557	0.721080	0.000085
1764	1.7542e+02	-4.8801	-70.530780	0.000547	5.472717	0.927103	0.000110
1765	1.7552e+02	-4.8598	-70.413703	0.000588	5.878103	0.995778	0.000118
1766	1.7562e+02	-4.8398	-70.296626	0.000588	5.878103	0.995778	0.000118
1767	1.7572e+02	-4.8209	-70.207809	0.000446	4.459251	0.755418	0.000089
1768	1.7582e+02	-4.7997	-70.070546	0.000689	6.891569	1.167463	0.000138
1769	1.7592e+02	-4.7804	-69.973655	0.000486	4.864637	0.824092	0.000097
1770	1.7602e+02	-4.7618	-69.900987	0.000365	3.648478	0.618069	0.000073
1771	1.7612e+02	-4.7408	-69.755650	0.000730	7.296956	1.236138	0.000146
1772	1.7621e+02	-4.7208	-69.678944	0.000385	3.851171	0.652406	0.000077
1773	1.7631e+02	-4.7017	-69.549756	0.000649	6.486183	1.098789	0.000130
1774	1.7641e+02	-4.6803	-69.456902	0.000466	4.661944	0.789755	0.000093
1775	1.7651e+02	-4.6602	-69.351936	0.000527	5.270023	0.892766	0.000105
1776	1.7661e+02	-4.6407	-69.226785	0.000628	6.283489	1.064452	0.000126
1777	1.7671e+02	-4.6213	-69.121820	0.000527	5.270023	0.892766	0.000105
1778	1.7681e+02	-4.6011	-69.016854	0.000527	5.270023	0.892766	0.000105
1779	1.7691e+02	-4.5812	-68.903814	0.000568	5.675410	0.961440	0.000114
1780	1.7701e+02	-4.5620	-68.762514	0.000709	7.094262	1.201801	0.000142
1781	1.7711e+02	-4.5409	-68.689846	0.000365	3.648478	0.618069	0.000073
1782	1.7721e+02	-4.5210	-68.580843	0.000547	5.472717	0.927103	0.000110
1783	1.7731e+02	-4.5010	-68.463766	0.000588	5.878103	0.995778	0.000118
1784	1.7741e+02	-4.4817	-68.326504	0.000689	6.891569	1.167463	0.000138
1785	1.7751e+02	-4.4614	-68.209427	0.000588	5.878103	0.995778	0.000118
1786	1.7761e+02	-4.4417	-68.128684	0.000405	4.053864	0.686743	0.000081
1787	1.7771e+02	-4.4214	-67.991422	0.000689	6.891569	1.167463	0.000138
1788	1.7781e+02	-4.4012	-67.878382	0.000568	5.675410	0.961440	0.000114
1789	1.7791e+02	-4.3819	-67.817825	0.000304	3.040398	0.515057	0.000061
1790	1.7801e+02	-4.3625	-67.668451	0.000750	7.499649	1.270475	0.000150
1791	1.7810e+02	-4.3417	-67.567522	0.000507	5.067330	0.858429	0.000101
1792	1.7820e+02	-4.3224	-67.422185	0.000730	7.296956	1.236138	0.000146
1793	1.7830e+02	-4.3024	-67.305108	0.000588	5.878103	0.995778	0.000118
1794	1.7840e+02	-4.2828	-67.192069	0.000568	5.675410	0.961440	0.000114
1795	1.7850e+02	-4.2625	-67.099215	0.000466	4.661944	0.789755	0.000093
1796	1.7860e+02	-4.2436	-66.937729	0.000811	8.107728	1.373486	0.000162
1797	1.7870e+02	-4.2227	-66.856986	0.000405	4.053864	0.686743	0.000081
1798	1.7880e+02	-4.2014	-66.768169	0.000446	4.459251	0.755418	0.000089
1799	1.7890e+02	-4.1823	-66.655130	0.000568	5.675410	0.961440	0.000114
1800	1.7900e+02	-4.1623	-66.513830	0.000709	7.094262	1.201801	0.000142
1801	1.7910e+02	-4.1434	-66.400790	0.000568	5.675410	0.961440	0.000114
1802	1.7920e+02	-4.1234	-66.291787	0.000547	5.472717	0.927103	0.000110
1803	1.7930e+02	-4.1025	-66.186822	0.000527	5.270023	0.892766	0.000105
1804	1.7940e+02	-4.0819	-66.089931	0.000486	4.864637	0.824092	0.000097
1805	1.7950e+02	-4.0634	-65.952668	0.000689	6.891569	1.167463	0.000138
1806	1.7960e+02	-4.0431	-65.831554	0.000608	6.080796	1.030115	0.000122
1807	1.7970e+02	-4.0224	-65.682180	0.000750	7.499649	1.270475	0.000150
1808	1.7980e+02	-4.0040	-65.573177	0.000547	5.472717	0.927103	0.000110
1809	1.7990e+02	-3.9830	-65.460137	0.000568	5.675410	0.961440	0.000114
1810	1.8000e+02	-3.9636	-65.387469	0.000365	3.648478	0.618069	0.000073
1811	1.8009e+02	-3.9436	-65.213872	0.000872	8.715808	1.476498	0.000174
1812	1.8019e+02	-3.9233	-65.133129	0.000405	4.053864	0.686743	0.000081
1813	1.8029e+02	-3.9041	-64.987793	0.000730	7.296956	1.236138	0.000146
1814	1.8039e+02	-3.8843	-64.890901	0.000486	4.864637	0.824092	0.000097
1815	1.8049e+02	-3.8641	-64.781899	0.000547	5.472717	0.927103	0.000110
1816	1.8059e+02	-3.8428	-64.652710	0.000649	6.486183	1.098789	0.000130
1817	1.8069e+02	-3.8245	-64.503336	0.000750	7.499649	1.270475	0.000150
1818	1.8079e+02	-3.8046	-64.386259	0.000588	5.878103	0.995778	0.000118
1819	1.8089e+02	-3.7840	-64.269182	0.000588	5.878103	0.995778	0.000118
1820	1.8099e+02	-3.7649	-64.144031	0.000628	6.283489	1.064452	0.000126
1821	1.8109e+02	-3.7453	-64.035029	0.000547	5.472717	0.927103	0.000110
1822	1.8119e+02	-3.7247	-63.897766	0.000689	6.891569	1.167463	0.000138
1823	1.8129e+02	-3.7048	-63.792800	0.000527	5.270023	0.892766	0.000105
1824	1.8139e+02	-3.6850	-63.655538	0.000689	6.891569	1.167463	0.000138
1825	1.8149e+02	-3.6655	-63.586906	0.000345	3.445785	0.583732	0.000069
1826	1.8159e+02	-3.6453	-63.372938	0.001074	10.742740	1.819869	0.000215
1827	1.8169e+02	-3.6235	-63.288158	0.000426	4.256557	0.721080	0.000085
1828	1.8179e+02	-3.6048	-63.158970	0.000649	6.486183	1.098789	0.000130
1829	1.8189e+02	-3.5849	-63.017670	0.000709	7.094262	1.201801	0.000142
1830	1.8199e+02	-3.5651	-62.916742	0.000507	5.067330	0.858429	0.000101
1831	1.8209e+02	-3.5443	-62.775442	0.000709	7.094262	1.201801	0.000142
1832	1.8218e+02	-3.5260	-62.662402	0.000568	5.675410	0.961440	0.000114
1833	1.8228e+02	-3.5051	-62.525140	0.000689	6.891569	1.167463	0.000138
1834	1.8238e+02	-3.4844	-62.404026	0.000608	6.080796	1.030115	0.000122
1835	1.8248e+02	-3.4665	-62.274837	0.000649	6.486183	1.098789	0.000130
1836	1.8258e+02	-3.4454	-62.141612	0.000669	6.688876	1.133126	0.000134
1837	1.8268e+02	-3.4253	-62.032609	0.000547	5.472717	0.927103	0.000110
1838	1.8278e+02	-3.4061	-61.863049	0.000851	8.513115	1.442161	0.000170
1839	1.8288e+02	-3.3865	-61.786344	0.000385	3.851171	0.652406	0.000077
1840	1.8298e+02	-3.3669	-61.612747	0.000872	8.715808	1.476498	0.000174
1841	1.8308e+02	-3.3464	-61.536041	0.000385	3.851171	0.652406	0.000077
1842	1.8318e+02	-3.3263	-61.418965	0.000588	5.878103	0.995778	0.000118
1843	1.8328e+02	-3.3060	-61.273628	0.000730	7.296956	1.236138	0.000146
1844	1.8338e+02	-3.2856	-61.124254	0.000750	7.499649	1.270475	0.000150
1845	1.8348e+02	-3.2661	-61.019288	0.000527	5.270023	0.892766	0.000105
1846	1.8358e+02	-3.2463	-60.873951	0.000730	7.296956	1.236138	0.000146
1847	1.8368e+02	-3.2265	-60.777060	0.000486	4.864637	0.824092	0.000097
1848	1.8378e+02	-3.2065	-60.639797	0.000689	6.891569	1.167463	0.000138
1849	1.8388e+02	-3.1866	-60.482349	0.000791	7.905035	1.339149	0.000158
1850	1.8398e+02	-3.1668	-60.337012	0.000730	7.296956	1.236138	0.000146
1851	1.8407e+02	-3.1467	-60.288567	0.000243	2.432319	0.412046	0.000049
1852	1.8417e+02	-3.1264	-60.119007	0.000851	8.513115	1.442161	0.000170
1853	1.8427e+02	-3.1076	-59.993856	0.000628	6.283489	1.064452	0.000126
1854	1.8437e+02	-3.0872	-59.840444	0.000770	7.702342	1.304812	0.000154
1855	1.8447e+02	-3.0682	-59.678959	0.000811	8.107728	1.373486	0.000162
1856	1.8457e+02	-3.0479	-59.626476	0.000264	2.635012	0.446383	0.000053
1857	1.8467e+02	-3.0270	-59.464991	0.000811	8.107728	1.373486	0.000162
1858	1.8477e+02	-3.0070	-59.347914	0.000588	5.878103	0.995778	0.000118
1859	1.8487e+02	-2.9881	-59.194503	0.000770	7.702342	1.304812	0.000154
1860	1.8497e+02	-2.9675	-59.085500	0.000547	5.472717	0.927103	0.000110
1861	1.8507e+02	-2.9467	-58.936126	0.000750	7.499649	1.270475	0.000150
1862	1.8517e+02	-2.9283	-58.786752	0.000750	7.499649	1.270475	0.000150
1863	1.8527e+02	-2.9079	-58.661601	0.000628	6.283489	1.064452	0.000126
1864	1.8537e+02	-2.8870	-58.580858	0.000405	4.053864	0.686743	0.000081
1865	1.8547e+02	-2.8677	-58.435521	0.000730	7.296956	1.236138	0.000146
1866	1.8557e+02	-2.8476	-58.310370	0.000628	6.283489	1.064452	0.000126
1867	1.8567e+02	-2.8276	-58.156959	0.000770	7.702342	1.304812	0.000154
1868	1.8577e+02	-2.8082	-58.043919	0.000568	5.675410	0.961440	0.000114
1869	1.8587e+02	-2.7886	-57.882434	0.000811	8.107728	1.373486	0.000162
1870	1.8597e+02	-2.7683	-57.769394	0.000568	5.675410	0.961440	0.000114
1871	1.8606e+02	-2.7483	-57.624057	0.000730	7.296956	1.236138	0.000146
1872	1.8616e+02	-2.7289	-57.535240	0.000446	4.459251	0.755418	0.000089
1873	1.8626e+02	-2.7080	-57.349532	0.000932	9.323888	1.579509	0.000187
1874	1.8636e+02	-2.6878	-57.236492	0.000568	5.675410	0.961440	0.000114
1875	1.8646e+02	-2.6685	-57.095192	0.000709	7.094262	1.201801	0.000142
1876	1.8656e+02	-2.6480	-56.957930	0.000689	6.891569	1.167463	0.000138
1877	1.8666e+02	-2.6279	-56.865075	0.000466	4.661944	0.789755	0.000093
1878	1.8676e+02	-2.6080	-56.679367	0.000932	9.323888	1.579509	0.000187
1879	1.8686e+02	-2.5894	-56.558253	0.000608	6.080796	1.030115	0.000122
1880	1.8696e+02	-2.5687	-56.453288	0.000527	5.270023	0.892766	0.000105
1881	1.8706e+02	-2.5490	-56.287765	0.000831	8.310422	1.407824	0.000166
1882	1.8716e+02	-2.5291	-56.158577	0.000649	6.486183	1.098789	0.000130
1883	1.8726e+02	-2.5099	-56.041500	0.000588	5.878103	0.995778	0.000118
1884	1.8736e+02	-2.4894	-55.904237	0.000689	6.891569	1.167463	0.000138
1885	1.8746e+02	-2.4698	-55.766975	0.000689	6.891569	1.167463	0.000138
1886	1.8756e+02	-2.4501	-55.649898	0.000588	5.878103	0.995778	0.000118
1887	1.8766e+02	-2.4306	-55.492449	0.000791	7.905035	1.339149	0.000158
1888	1.8776e+02	-2.4104	-55.347112	0.000730	7.296956	1.236138	0.000146
1889	1.8786e+02	-2.3907	-55.213887	0.000669	6.688876	1.133126	0.000134
1890	1.8796e+02	-2.3698	-55.072587	0.000709	7.094262	1.201801	0.000142
1891	1.8806e+02	-2.3500	-54.931287	0.000709	7.094262	1.201801	0.000142
1892	1.8815e+02	-2.3301	-54.769802	0.000811	8.107728	1.373486	0.000162
1893	1.8825e+02	-2.3102	-54.652725	0.000588	5.878103	0.995778	0.000118
1894	1.8835e+02	-2.2905	-54.499314	0.000770	7.702342	1.304812	0.000154
1895	1.8845e+02	-2.2708	-54.345903	0.000770	7.702342	1.304812	0.000154
1896	1.8855e+02	-2.2515	-54.257086	0.000446	4.459251	0.755418	0.000089
1897	1.8865e+02	-2.2307	-54.131935	0.000628	6.283489	1.064452	0.000126
1898	1.8875e+02	-2.2108	-53.954301	0.000892	8.918501	1.510835	0.000179
1899	1.8885e+02	-2.1913	-53.829149	0.000628	6.283489	1.064452	0.000126
1900	1.8895e+02	-2.1710	-53.720147	0.000547	5.472717	0.927103	0.000110
1901	1.8905e+02	-2.1519	-53.574810	0.000730	7.296956	1.236138	0.000146
1902	1.8915e+02	-2.1313	-53.413324	0.000811	8.107728	1.373486	0.000162
1903	1.8925e+02	-2.1111	-53.340656	0.000365	3.648478	0.618069	0.000073
1904	1.8935e+02	-2.0908	-53.195319	0.000730	7.296956	1.236138	0.000146
1905	1.8945e+02	-2.0712	-53.041908	0.000770	7.702342	1.304812	0.000154
1906	1.8955e+02	-2.0524	-52.920794	0.000608	6.080796	1.030115	0.000122
1907	1.8965e+02	-2.0313	-52.735086	0.000932	9.323888	1.579509	0.000187
1908	1.8975e+02	-2.0114	-52.642231	0.000466	4.661944	0.789755	0.000093
1909	1.8985e+02	-1.9916	-52.476709	0.000831	8.310422	1.407824	0.000166
1910	1.8995e+02	-1.9714	-52.383855	0.000466	4.661944	0.789755	0.000093
1911	1.9004e+02	-1.9511	-52.206221	0.000892	8.918501	1.510835	0.000179
1912	1.9014e+02	-1.9323	-52.097218	0.000547	5.472717	0.927103	0.000110
1913	1.9024e+02	-1.9119	-51.951881	0.000730	7.296956	1.236138	0.000146
1914	1.9034e+02	-1.8921	-51.830767	0.000608	6.080796	1.030115	0.000122
1915	1.9044e+02	-1.8721	-51.681393	0.000750	7.499649	1.270475	0.000150
1916	1.9054e+02	-1.8518	-51.548168	0.000669	6.688876	1.133126	0.000134
1917	1.9064e+02	-1.8322	-51.398794	0.000750	7.499649	1.270475	0.000150
1918	1.9074e+02	-1.8129	-51.305940	0.000466	4.661944	0.789755	0.000093
1919	1.9084e+02	-1.7922	-51.136380	0.000851	8.513115	1.442161	0.000170
1920	1.9094e+02	-1.7721	-50.987006	0.000750	7.499649	1.270475	0.000150
1921	1.9104e+02	-1.7513	-50.882040	0.000527	5.270023	0.892766	0.000105
1922	1.9114e+02	-1.7326	-50.692295	0.000953	9.526581	1.613846	0.000191
1923	1.9124e+02	-1.7126	-50.542921	0.000750	7.499649	1.270475	0.000150
1924	1.9134e+02	-1.6926	-50.397584	0.000730	7.296956	1.236138	0.000146
1925	1.9144e+02	-1.6731	-50.280507	0.000588	5.878103	0.995778	0.000118
1926	1.9154e+02	-1.6525	-50.131133	0.000750	7.499649	1.270475	0.000150
1927	1.9164e+02	-1.6330	-50.018093	0.000568	5.675410	0.961440	0.000114
1928	1.9174e+02	-1.6154	-49.872756	0.000730	7.296956	1.236138	0.000146
1929	1.9184e+02	-1.5931	-49.715308	0.000791	7.905035	1.339149	0.000158
1930	1.9194e+02	-1.5738	-49.586120	0.000649	6.486183	1.098789	0.000130
1931	1.9203e+02	-1.5536	-49.412523	0.000872	8.715808	1.476498	0.000174
1932	1.9213e+02	-1.5334	-49.283335	0.000649	6.486183	1.098789	0.000130
1933	1.9223e+02	-1.5127	-49.170295	0.000568	5.675410	0.961440	0.000114
1934	1.9233e+02	-1.4935	-49.000735	0.000851	8.513115	1.442161	0.000170
1935	1.9243e+02	-1.4737	-48.887695	0.000568	5.675410	0.961440	0.000114
1936	1.9253e+02	-1.4530	-48.722173	0.000831	8.310422	1.407824	0.000166
1937	1.9263e+02	-1.4346	-48.592984	0.000649	6.486183	1.098789	0.000130
1938	1.9273e+02	-1.4136	-48.471870	0.000608	6.080796	1.030115	0.000122
1939	1.9283e+02	-1.3934	-48.322496	0.000750	7.499649	1.270475	0.000150
1940	1.9293e+02	-1.3736	-48.205419	0.000588	5.878103	0.995778	0.000118
1941	1.9303e+02	-1.3538	-47.987414	0.001095	10.945433	1.854207	0.000219
1942	1.9313e+02	-1.3335	-47.878411	0.000547	5.472717	0.927103	0.000110
1943	1.9323e+02	-1.3138	-47.745186	0.000669	6.688876	1.133126	0.000134
1944	1.9333e+02	-1.2950	-47.579663	0.000831	8.310422	1.407824	0.000166
1945	1.9343e+02	-1.2740	-47.446438	0.000669	6.688876	1.133126	0.000134
1946	1.9353e+02	-1.2547	-47.284952	0.000811	8.107728	1.373486	0.000162
1947	1.9363e+02	-1.2337	-47.179987	0.000527	5.270023	0.892766	0.000105
1948	1.9373e+02	-1.2160	-46.994279	0.000932	9.323888	1.579509	0.000187
1949	1.9383e+02	-1.1954	-46.861053	0.000669	6.688876	1.133126	0.000134
1950	1.9393e+02	-1.1748	-46.699568	0.000811	8.107728	1.373486	0.000162
1951	1.9403e+02	-1.1552	-46.558268	0.000709	7.094262	1.201801	0.000142
1952	1.9412e+02	-1.1349	-46.429080	0.000649	6.486183	1.098789	0.000130
1953	1.9422e+02	-1.1146	-46.239334	0.000953	9.526581	1.613846	0.000191
1954	1.9432e+02	-1.0940	-46.130332	0.000547	5.472717	0.927103	0.000110
1955	1.9442e+02	-1.0757	-45.989032	0.000709	7.094262	1.201801	0.000142
1956	1.9452e+02	-1.0549	-45.851769	0.000689	6.891569	1.167463	0.000138
1957	1.9462e+02	-1.0350	-45.710469	0.000709	7.094262	1.201801	0.000142
1958	1.9472e+02	-1.0170	-45.585318	0.000628	6.283489	1.064452	0.000126
1959	1.9482e+02	-0.9950	-45.391536	0.000973	9.729274	1.648184	0.000195
1960	1.9492e+02	-0.9754	-45.242162	0.000750	7.499649	1.270475	0.000150
1961	1.9502e+02	-0.9559	-45.100862	0.000709	7.094262	1.201801	0.000142
1962	1.9512e+02	-0.9359	-44.963599	0.000689	6.891569	1.167463	0.000138
1963	1.9522e+02	-0.9167	-44.822300	0.000709	7.094262	1.201801	0.000142
1964	1.9532e+02	-0.8951	-44.668888	0.000770	7.702342	1.304812	0.000154
1965	1.9542e+02	-0.8755	-44.559886	0.000547	5.472717	0.927103	0.000110
1966	1.9552e+02	-0.8564	-44.390326	0.000851	8.513115	1.442161	0.000170
1967	1.9562e+02	-0.8357	-44.269212	0.000608	6.080796	1.030115	0.000122
1968	1.9572e+02	-0.8151	-44.103689	0.000831	8.310422	1.407824	0.000166
1969	1.9582e+02	-0.7962	-43.946241	0.000791	7.905035	1.339149	0.000158
1970	1.9592e+02	-0.7753	-43.792830	0.000770	7.702342	1.304812	0.000154
1971	1.9601e+02	-0.7559	-43.647493	0.000730	7.296956	1.236138	0.000146
1972	1.9611e+02	-0.7364	-43.481970	0.000831	8.310422	1.407824	0.000166
1973	1.9621e+02	-0.7172	-43.344708	0.000689	6.891569	1.167463	0.000138
1974	1.9631e+02	-0.6972	-43.215520	0.000649	6.486183	1.098789	0.000130
1975	1.9641e+02	-0.6776	-43.078257	0.000689	6.891569	1.167463	0.000138
1976	1.9651e+02	-0.6567	-42.908697	0.000851	8.513115	1.442161	0.000170
1977	1.9661e+02	-0.6372	-42.779509	0.000649	6.486183	1.098789	0.000130
1978	1.9671e+02	-0.6168	-42.634172	0.000730	7.296956	1.236138	0.000146
1979	1.9681e+02	-0.5975	-42.464612	0.000851	8.513115	1.442161	0.000170
1980	1.9691e+02	-0.5774	-42.347535	0.000588	5.878103	0.995778	0.000118
1981	1.9701e+02	-0.5578	-42.210273	0.000689	6.891569	1.167463	0.000138
1982	1.9711e+02	-0.5383	-42.032639	0.000892	8.918501	1.510835	0.000179
1983	1.9721e+02	-0.5185	-41.887302	0.000730	7.296956	1.236138	0.000146
1984	1.9731e+02	-0.4968	-41.717742	0.000851	8.513115	1.442161	0.000170
1985	1.9741e+02	-0.4765	-41.616814	0.000507	5.067330	0.858429	0.000101
1986	1.9751e+02	-0.4575	-41.471477	0.000730	7.296956	1.236138	0.000146
1987	1.9761e+02	-0.4375	-41.301917	0.000851	8.513115	1.442161	0.000170
1988	1.9771e+02	-0.4181	-41.164655	0.000689	6.891569	1.167463	0.000138
1989	1.9781e+02	-0.3978	-40.966835	0.000993	9.931967	1.682521	0.000199
1990	1.9791e+02	-0.3778	-40.865907	0.000507	5.067330	0.858429	0.000101
1991	1.9800e+02	-0.3579	-40.676161	0.000953	9.526581	1.613846	0.000191
1992	1.9810e+02	-0.3375	-40.542936	0.000669	6.688876	1.133126	0.000134
1993	1.9820e+02	-0.3165	-40.361265	0.000912	9.121194	1.545172	0.000183
1994	1.9830e+02	-0.2977	-40.207853	0.000770	7.702342	1.304812	0.000154
1995	1.9840e+02	-0.2779	-40.078665	0.000649	6.486183	1.098789	0.000130
1996	1.9850e+02	-0.2585	-39.937365	0.000709	7.094262	1.201801	0.000142
1997	1.9860e+02	-0.2390	-39.751657	0.000932	9.323888	1.579509	0.000187
1998	1.9870e+02	-0.2180	-39.598246	0.000770	7.702342	1.304812	0.000154
1999	1.9880e+02	-0.1998	-39.440798	0.000791	7.905035	1.339149	0.000158
2000	1.9890e+02	-0.1792	-39.307572	0.000669	6.688876	1.133126	0.000134
2001	1.9900e+02	-0.1590	-39.146087	0.000811	8.107728	1.373486	0.000162
2002	1.9910e+02	-0.1384	-39.000750	0.000730	7.296956	1.236138	0.000146
2003	1.9920e+02	-0.1189	-38.843302	0.000791	7.905035	1.339149	0.000158
2004	1.9930e+02	-0.0986	-38.706039	0.000689	6.891569	1.167463	0.000138
2005	1.9940e+02	-0.0781	-38.540516	0.000831	8.310422	1.407824	0.000166
2006	1.9950e+02	-0.0590	-38.407291	0.000669	6.688876	1.133126	0.000134
2007	1.9960e+02	-0.0386	-38.241768	0.000831	8.310422	1.407824	0.000166
2008	1.9970e+02	-0.0191	-38.161026	0.000405	4.053864	0.686743	0.000081
2009	1.9980e+02	-0.0014	-37.987429	0.000405	4.053864	0.686743	0.000174

PMax (uC/cm2):	6.37e+01
Pr (uC/cm2):	6.35e+00
-Pr (uC/cm2):	-5.81e+01
PLoss (uC/cm2):	-5.81e+01
-Vc:	-8.15e-01
C (Max-Eff) (nF):	6.37e-01
K (Eff):	1.08e+03
Vert. (+/-Pr) Shift (uC/cm2):	-2.59e+01
Offset (uC/cm2):	-2.01e+01

A (Loop Area - uC/cm2·Volts):	-3.60e-01



Hysteresis Version: 5.48.1 - Radiant Technologies, Inc., 1999 - 9/12/24

