»»»»»»»»»»»»»»»»»»»»»»»»»»»»»»»»»»»» Hysteresis ««««««««««««««««««««««««««««««««««««
»»»  Executed Version:	5.48.1
»»»  Vision Version:	5.48.4 (R)
»»»  Vision Compiled:	9/18/24
»»»  Driver Version:	5.47.0
»»»  Windows Version:	Windows 8 or 8.1
»»»  Processor Information:	x86 (AMD or Intel) - 32 Processors
»»»  Tester Name:	PMF21124-494 (100V)
»»»  Tester S/N:	PMF21124-494
»»»  Internal Amp Type:	100V RevK 270k
»»»  Internal Amp S/N:	iAB2-596/K     
»»»  Execution Count:	1
»»»»»»»»»»»»»»»»»»»»»»»»»»»»»»»»»»»»»»»»»»««««««««««««««««««««««««««««««««««««««««««

Stored:	7/2/2025 - 13:54:45
Configured:	07/02/25 01:35:59 PM
Executed:	07/02/25 01:53:32 PM

»»»»»»»»»»»»»»»»»»»»»»»»»»»»»»»»»»» Sample Info ««««««««««««««««««««««««««««««««««««
Sample Name:	
Lot Name:	
Wafer Name:	
Die Row/Column:	0/0
Capacitor Number:	0
Sample Area (cm2):	1.00e-04
Sample Thickness (microns):	1.50e-01

Amplifier:	Internal

»»»»»»»»»»»»»»»»»»»»»»»»»»»»»»»»»»» Tester Info «««««««««««««««««««««««««««««««««««
Tester Name:	PMF21124-494 (100V)
Tester Serial Number:	PMF21124-494
Return Signal Amp. Level:	0.19 [Index: 3]

»»»»»»»»»»»»»»»»»»»»»»»»»»»»»»»» Hysteresis Info ««««««««««««««««««««««««««««««««««
Task Name:	Hyst-220
Volts:	10.00
Field:	666.67 (kV/cm)
DCBias:	0.00
DCField:	0.00 (kV/cm)
Hysteresis Period (ms):	2.00e+02
Preset:	Enabled
Preset Delay (ms):	1.00e+03
Profile:	Standard Bipolar

»»»»»»»»»»»»»»»»»»»»»»»»»»»»»»»»»»»»»» Data «««««««««««««««««««««««««««««««««««««««
Points:	2009

Valid Data

Point	Time (ms)	Drive Voltage	Measured Polarization (uC/cm2)	Capacitance (uF)	Normalized Capacitance (uF/cm2)	Dielectric Constant	Instantaneous Current (mA)
   1	0.0000e+00	-0.0001	23.633393	0.000486	4.863867	0.823961	0.000097
   2	9.9500e-02	0.0201	23.730284	0.000486	4.863867	0.823961	0.000097
   3	1.9900e-01	0.0401	23.891769	0.000811	8.106445	1.373269	0.000162
   4	2.9850e-01	0.0592	23.992698	0.000507	5.066528	0.858293	0.000101
   5	3.9800e-01	0.0794	24.105737	0.000567	5.674511	0.961288	0.000114
   6	4.9750e-01	0.0996	24.247037	0.000709	7.093139	1.201610	0.000142
   7	5.9700e-01	0.1202	24.372188	0.000628	6.282495	1.064283	0.000126
   8	6.9650e-01	0.1386	24.465043	0.000466	4.661206	0.789630	0.000093
   9	7.9600e-01	0.1592	24.582120	0.000588	5.877173	0.995620	0.000118
  10	8.9550e-01	0.1794	24.719382	0.000689	6.890478	1.167279	0.000138
  11	9.9500e-01	0.1991	24.832422	0.000567	5.674511	0.961288	0.000114
  12	1.0945e+00	0.2190	24.929313	0.000486	4.863867	0.823961	0.000097
  13	1.1940e+00	0.2402	25.074650	0.000730	7.295800	1.235942	0.000146
  14	1.2935e+00	0.2599	25.199801	0.000628	6.282495	1.064283	0.000126
  15	1.3930e+00	0.2785	25.324952	0.000628	6.282495	1.064283	0.000126
  16	1.4925e+00	0.2990	25.429918	0.000527	5.269189	0.892625	0.000105
  17	1.5920e+00	0.3191	25.567181	0.000689	6.890478	1.167279	0.000138
  18	1.6915e+00	0.3394	25.688295	0.000608	6.079834	1.029952	0.000122
  19	1.7910e+00	0.3590	25.797297	0.000547	5.471850	0.926957	0.000110
  20	1.8905e+00	0.3787	25.918411	0.000608	6.079834	1.029952	0.000122
  21	1.9900e+00	0.3985	26.075860	0.000790	7.903784	1.338937	0.000158
  22	2.0895e+00	0.4189	26.213122	0.000689	6.890478	1.167279	0.000138
  23	2.1890e+00	0.4382	26.314051	0.000507	5.066528	0.858293	0.000101
  24	2.2885e+00	0.4590	26.435165	0.000608	6.079834	1.029952	0.000122
  25	2.3880e+00	0.4793	26.568390	0.000669	6.687817	1.132947	0.000134
  26	2.4875e+00	0.4991	26.717764	0.000750	7.498462	1.270274	0.000150
  27	2.5870e+00	0.5184	26.859064	0.000709	7.093139	1.201610	0.000142
  28	2.6865e+00	0.5387	26.992290	0.000669	6.687817	1.132947	0.000134
  29	2.7860e+00	0.5586	27.077069	0.000426	4.255884	0.720966	0.000085
  30	2.8855e+00	0.5787	27.246629	0.000851	8.511767	1.441932	0.000170
  31	2.9850e+00	0.5988	27.363706	0.000588	5.877173	0.995620	0.000118
  32	3.0845e+00	0.6182	27.460597	0.000486	4.863867	0.823961	0.000097
  33	3.1840e+00	0.6383	27.618046	0.000790	7.903784	1.338937	0.000158
  34	3.2835e+00	0.6579	27.783568	0.000831	8.309106	1.407601	0.000166
  35	3.3830e+00	0.6780	27.876422	0.000466	4.661206	0.789630	0.000093
  36	3.4825e+00	0.6975	28.005611	0.000649	6.485156	1.098615	0.000130
  37	3.5820e+00	0.7177	28.154985	0.000750	7.498462	1.270274	0.000150
  38	3.6815e+00	0.7373	28.292247	0.000689	6.890478	1.167279	0.000138
  39	3.7810e+00	0.7580	28.445658	0.000770	7.701123	1.304605	0.000154
  40	3.8805e+00	0.7771	28.538513	0.000466	4.661206	0.789630	0.000093
  41	3.9800e+00	0.7978	28.655589	0.000588	5.877173	0.995620	0.000118
  42	4.0795e+00	0.8184	28.804963	0.000750	7.498462	1.270274	0.000150
  43	4.1790e+00	0.8372	28.930115	0.000628	6.282495	1.064283	0.000126
  44	4.2785e+00	0.8579	29.079489	0.000750	7.498462	1.270274	0.000150
  45	4.3780e+00	0.8777	29.188491	0.000547	5.471850	0.926957	0.000110
  46	4.4775e+00	0.8971	29.333828	0.000730	7.295800	1.235942	0.000146
  47	4.5770e+00	0.9166	29.463017	0.000649	6.485156	1.098615	0.000130
  48	4.6765e+00	0.9367	29.604316	0.000709	7.093139	1.201610	0.000142
  49	4.7760e+00	0.9577	29.749653	0.000730	7.295800	1.235942	0.000146
  50	4.8755e+00	0.9770	29.846545	0.000486	4.863867	0.823961	0.000097
  51	4.9750e+00	0.9973	29.999956	0.000770	7.701123	1.304605	0.000154
  52	5.0745e+00	1.0166	30.112995	0.000567	5.674511	0.961288	0.000114
  53	5.1740e+00	1.0361	30.270444	0.000790	7.903784	1.338937	0.000158
  54	5.2735e+00	1.0563	30.383484	0.000567	5.674511	0.961288	0.000114
  55	5.3730e+00	1.0762	30.524783	0.000709	7.093139	1.201610	0.000142
  56	5.4725e+00	1.0968	30.670120	0.000730	7.295800	1.235942	0.000146
  57	5.5720e+00	1.1169	30.843717	0.000871	8.714428	1.476264	0.000174
  58	5.6715e+00	1.1362	30.952720	0.000547	5.471850	0.926957	0.000110
  59	5.7710e+00	1.1559	31.081908	0.000649	6.485156	1.098615	0.000130
  60	5.8705e+00	1.1761	31.223208	0.000709	7.093139	1.201610	0.000142
  61	5.9700e+00	1.1967	31.344322	0.000608	6.079834	1.029952	0.000122
  62	6.0695e+00	1.2171	31.469473	0.000628	6.282495	1.064283	0.000126
  63	6.1690e+00	1.2362	31.582513	0.000567	5.674511	0.961288	0.000114
  64	6.2685e+00	1.2556	31.703627	0.000608	6.079834	1.029952	0.000122
  65	6.3680e+00	1.2756	31.869150	0.000831	8.309106	1.407601	0.000166
  66	6.4675e+00	1.2948	32.006412	0.000689	6.890478	1.167279	0.000138
  67	6.5670e+00	1.3146	32.151749	0.000730	7.295800	1.235942	0.000146
  68	6.6665e+00	1.3337	32.264789	0.000567	5.674511	0.961288	0.000114
  69	6.7660e+00	1.3557	32.402051	0.000689	6.890478	1.167279	0.000138
  70	6.8655e+00	1.3747	32.543351	0.000709	7.093139	1.201610	0.000142
  71	6.9650e+00	1.3947	32.660428	0.000588	5.877173	0.995620	0.000118
  72	7.0645e+00	1.4142	32.817876	0.000790	7.903784	1.338937	0.000158
  73	7.1640e+00	1.4344	32.951102	0.000669	6.687817	1.132947	0.000134
  74	7.2635e+00	1.4541	33.100476	0.000750	7.498462	1.270274	0.000150
  75	7.3630e+00	1.4740	33.201404	0.000507	5.066528	0.858293	0.000101
  76	7.4625e+00	1.4953	33.358853	0.000790	7.903784	1.338937	0.000158
  77	7.5620e+00	1.5147	33.532449	0.000871	8.714428	1.476264	0.000174
  78	7.6615e+00	1.5339	33.641452	0.000547	5.471850	0.926957	0.000110
  79	7.7610e+00	1.5536	33.766603	0.000628	6.282495	1.064283	0.000126
  80	7.8605e+00	1.5742	33.911940	0.000730	7.295800	1.235942	0.000146
  81	7.9600e+00	1.5936	34.041129	0.000649	6.485156	1.098615	0.000130
  82	8.0595e+00	1.6146	34.190503	0.000750	7.498462	1.270274	0.000150
  83	8.1590e+00	1.6342	34.283357	0.000466	4.661206	0.789630	0.000093
  84	8.2585e+00	1.6541	34.432731	0.000750	7.498462	1.270274	0.000150
  85	8.3580e+00	1.6736	34.590179	0.000790	7.903784	1.338937	0.000158
  86	8.4575e+00	1.6934	34.711293	0.000608	6.079834	1.029952	0.000122
  87	8.5570e+00	1.7132	34.892964	0.000912	9.119750	1.544928	0.000183
  88	8.6565e+00	1.7331	35.034264	0.000709	7.093139	1.201610	0.000142
  89	8.7560e+00	1.7538	35.123081	0.000446	4.458545	0.755298	0.000089
  90	8.8555e+00	1.7722	35.284566	0.000811	8.106445	1.373269	0.000162
  91	8.9550e+00	1.7927	35.413755	0.000649	6.485156	1.098615	0.000130
  92	9.0545e+00	1.8140	35.559092	0.000730	7.295800	1.235942	0.000146
  93	9.1540e+00	1.8327	35.651946	0.000466	4.661206	0.789630	0.000093
  94	9.2535e+00	1.8537	35.821505	0.000851	8.511767	1.441932	0.000170
  95	9.3530e+00	1.8737	35.962805	0.000709	7.093139	1.201610	0.000142
  96	9.4525e+00	1.8935	36.096031	0.000669	6.687817	1.132947	0.000134
  97	9.5520e+00	1.9134	36.253479	0.000790	7.903784	1.338937	0.000158
  98	9.6515e+00	1.9328	36.374593	0.000608	6.079834	1.029952	0.000122
  99	9.7510e+00	1.9543	36.507818	0.000669	6.687817	1.132947	0.000134
 100	9.8505e+00	1.9721	36.693527	0.000932	9.322412	1.579259	0.000187
 101	9.9500e+00	1.9930	36.798492	0.000527	5.269189	0.892625	0.000105
 102	1.0050e+01	2.0124	36.895384	0.000486	4.863867	0.823961	0.000097
 103	1.0149e+01	2.0325	37.064943	0.000851	8.511767	1.441932	0.000170
 104	1.0248e+01	2.0522	37.210280	0.000730	7.295800	1.235942	0.000146
 105	1.0348e+01	2.0725	37.327357	0.000588	5.877173	0.995620	0.000118
 106	1.0447e+01	2.0913	37.472694	0.000730	7.295800	1.235942	0.000146
 107	1.0547e+01	2.1124	37.630142	0.000790	7.903784	1.338937	0.000158
 108	1.0646e+01	2.1321	37.731071	0.000507	5.066528	0.858293	0.000101
 109	1.0746e+01	2.1523	37.856222	0.000628	6.282495	1.064283	0.000126
 110	1.0845e+01	2.1727	38.017707	0.000811	8.106445	1.373269	0.000162
 111	1.0945e+01	2.1925	38.146896	0.000649	6.485156	1.098615	0.000130
 112	1.1044e+01	2.2117	38.259935	0.000567	5.674511	0.961288	0.000114
 113	1.1144e+01	2.2319	38.401235	0.000709	7.093139	1.201610	0.000142
 114	1.1243e+01	2.2523	38.554646	0.000770	7.701123	1.304605	0.000154
 115	1.1343e+01	2.2720	38.667686	0.000567	5.674511	0.961288	0.000114
 116	1.1443e+01	2.2919	38.800912	0.000669	6.687817	1.132947	0.000134
 117	1.1542e+01	2.3126	38.950286	0.000750	7.498462	1.270274	0.000150
 118	1.1642e+01	2.3314	39.115808	0.000831	8.309106	1.407601	0.000166
 119	1.1741e+01	2.3508	39.200588	0.000426	4.255884	0.720966	0.000085
 120	1.1841e+01	2.3711	39.325739	0.000628	6.282495	1.064283	0.000126
 121	1.1940e+01	2.3918	39.507410	0.000912	9.119750	1.544928	0.000183
 122	1.2040e+01	2.4107	39.584116	0.000385	3.850561	0.652303	0.000077
 123	1.2139e+01	2.4309	39.733490	0.000750	7.498462	1.270274	0.000150
 124	1.2239e+01	2.4509	39.870753	0.000689	6.890478	1.167279	0.000138
 125	1.2338e+01	2.4711	40.003978	0.000669	6.687817	1.132947	0.000134
 126	1.2438e+01	2.4909	40.141241	0.000689	6.890478	1.167279	0.000138
 127	1.2537e+01	2.5108	40.258318	0.000588	5.877173	0.995620	0.000118
 128	1.2636e+01	2.5294	40.423840	0.000831	8.309106	1.407601	0.000166
 129	1.2736e+01	2.5509	40.561103	0.000689	6.890478	1.167279	0.000138
 130	1.2835e+01	2.5701	40.657994	0.000486	4.863867	0.823961	0.000097
 131	1.2935e+01	2.5903	40.819479	0.000811	8.106445	1.373269	0.000162
 132	1.3034e+01	2.6105	40.920408	0.000507	5.066528	0.858293	0.000101
 133	1.3134e+01	2.6299	41.089968	0.000851	8.511767	1.441932	0.000170
 134	1.3233e+01	2.6498	41.223193	0.000669	6.687817	1.132947	0.000134
 135	1.3333e+01	2.6696	41.352381	0.000649	6.485156	1.098615	0.000130
 136	1.3432e+01	2.6904	41.501755	0.000750	7.498462	1.270274	0.000150
 137	1.3532e+01	2.7097	41.598647	0.000486	4.863867	0.823961	0.000097
 138	1.3632e+01	2.7302	41.739946	0.000709	7.093139	1.201610	0.000142
 139	1.3731e+01	2.7507	41.869135	0.000649	6.485156	1.098615	0.000130
 140	1.3831e+01	2.7702	42.026583	0.000790	7.903784	1.338937	0.000158
 141	1.3930e+01	2.7895	42.196143	0.000851	8.511767	1.441932	0.000170
 142	1.4030e+01	2.8093	42.293034	0.000486	4.863867	0.823961	0.000097
 143	1.4129e+01	2.8294	42.410111	0.000588	5.877173	0.995620	0.000118
 144	1.4229e+01	2.8496	42.563522	0.000770	7.701123	1.304605	0.000154
 145	1.4328e+01	2.8693	42.704822	0.000709	7.093139	1.201610	0.000142
 146	1.4428e+01	2.8893	42.829973	0.000628	6.282495	1.064283	0.000126
 147	1.4527e+01	2.9094	42.959161	0.000649	6.485156	1.098615	0.000130
 148	1.4627e+01	2.9299	43.068164	0.000547	5.471850	0.926957	0.000110
 149	1.4726e+01	2.9487	43.193315	0.000628	6.282495	1.064283	0.000126
 150	1.4825e+01	2.9680	43.310392	0.000588	5.877173	0.995620	0.000118
 151	1.4925e+01	2.9885	43.475915	0.000831	8.309106	1.407601	0.000166
 152	1.5024e+01	3.0094	43.601066	0.000628	6.282495	1.064283	0.000126
 153	1.5124e+01	3.0285	43.758514	0.000790	7.903784	1.338937	0.000158
 154	1.5223e+01	3.0488	43.867517	0.000547	5.471850	0.926957	0.000110
 155	1.5323e+01	3.0688	44.012854	0.000730	7.295800	1.235942	0.000146
 156	1.5422e+01	3.0886	44.109745	0.000486	4.863867	0.823961	0.000097
 157	1.5522e+01	3.1087	44.291416	0.000912	9.119750	1.544928	0.000183
 158	1.5621e+01	3.1289	44.396382	0.000527	5.269189	0.892625	0.000105
 159	1.5721e+01	3.1489	44.533644	0.000689	6.890478	1.167279	0.000138
 160	1.5820e+01	3.1681	44.638610	0.000527	5.269189	0.892625	0.000105
 161	1.5920e+01	3.1886	44.800095	0.000811	8.106445	1.373269	0.000162
 162	1.6020e+01	3.2082	44.909098	0.000547	5.471850	0.926957	0.000110
 163	1.6119e+01	3.2281	45.062509	0.000770	7.701123	1.304605	0.000154
 164	1.6218e+01	3.2481	45.191697	0.000649	6.485156	1.098615	0.000130
 165	1.6318e+01	3.2683	45.320886	0.000649	6.485156	1.098615	0.000130
 166	1.6418e+01	3.2881	45.446037	0.000628	6.282495	1.064283	0.000126
 167	1.6517e+01	3.3078	45.546965	0.000507	5.066528	0.858293	0.000101
 168	1.6616e+01	3.3282	45.712488	0.000831	8.309106	1.407601	0.000166
 169	1.6716e+01	3.3479	45.857825	0.000730	7.295800	1.235942	0.000146
 170	1.6816e+01	3.3672	45.938568	0.000405	4.053222	0.686634	0.000081
 171	1.6915e+01	3.3880	46.124276	0.000932	9.322412	1.579259	0.000187
 172	1.7015e+01	3.4085	46.241353	0.000588	5.877173	0.995620	0.000118
 173	1.7114e+01	3.4278	46.362467	0.000608	6.079834	1.029952	0.000122
 174	1.7213e+01	3.4473	46.487618	0.000628	6.282495	1.064283	0.000126
 175	1.7313e+01	3.4671	46.604695	0.000588	5.877173	0.995620	0.000118
 176	1.7413e+01	3.4866	46.733883	0.000649	6.485156	1.098615	0.000130
 177	1.7512e+01	3.5076	46.859035	0.000628	6.282495	1.064283	0.000126
 178	1.7611e+01	3.5281	46.984186	0.000628	6.282495	1.064283	0.000126
 179	1.7711e+01	3.5465	47.109337	0.000628	6.282495	1.064283	0.000126
 180	1.7811e+01	3.5671	47.238525	0.000649	6.485156	1.098615	0.000130
 181	1.7910e+01	3.5870	47.367714	0.000649	6.485156	1.098615	0.000130
 182	1.8009e+01	3.6069	47.476716	0.000547	5.471850	0.926957	0.000110
 183	1.8109e+01	3.6266	47.638202	0.000811	8.106445	1.373269	0.000162
 184	1.8209e+01	3.6465	47.735093	0.000486	4.863867	0.823961	0.000097
 185	1.8308e+01	3.6663	47.888504	0.000770	7.701123	1.304605	0.000154
 186	1.8407e+01	3.6871	48.041915	0.000770	7.701123	1.304605	0.000154
 187	1.8507e+01	3.7072	48.138807	0.000486	4.863867	0.823961	0.000097
 188	1.8607e+01	3.7268	48.292218	0.000770	7.701123	1.304605	0.000154
 189	1.8706e+01	3.7464	48.409295	0.000588	5.877173	0.995620	0.000118
 190	1.8805e+01	3.7667	48.538483	0.000649	6.485156	1.098615	0.000130
 191	1.8905e+01	3.7863	48.667671	0.000649	6.485156	1.098615	0.000130
 192	1.9005e+01	3.8062	48.813008	0.000730	7.295800	1.235942	0.000146
 193	1.9104e+01	3.8267	48.950271	0.000689	6.890478	1.167279	0.000138
 194	1.9203e+01	3.8448	49.055236	0.000527	5.269189	0.892625	0.000105
 195	1.9303e+01	3.8663	49.192499	0.000689	6.890478	1.167279	0.000138
 196	1.9402e+01	3.8855	49.321687	0.000649	6.485156	1.098615	0.000130
 197	1.9502e+01	3.9050	49.442801	0.000608	6.079834	1.029952	0.000122
 198	1.9602e+01	3.9258	49.588138	0.000730	7.295800	1.235942	0.000146
 199	1.9701e+01	3.9452	49.701178	0.000567	5.674511	0.961288	0.000114
 200	1.9800e+01	3.9648	49.874775	0.000871	8.714428	1.476264	0.000174
 201	1.9900e+01	3.9857	49.939369	0.000324	3.242578	0.549308	0.000065
 202	2.0000e+01	4.0057	50.104892	0.000831	8.309106	1.407601	0.000166
 203	2.0099e+01	4.0255	50.205820	0.000507	5.066528	0.858293	0.000101
 204	2.0198e+01	4.0456	50.351157	0.000730	7.295800	1.235942	0.000146
 205	2.0298e+01	4.0652	50.520717	0.000851	8.511767	1.441932	0.000170
 206	2.0398e+01	4.0846	50.609534	0.000446	4.458545	0.755298	0.000089
 207	2.0497e+01	4.1051	50.734685	0.000628	6.282495	1.064283	0.000126
 208	2.0596e+01	4.1241	50.847725	0.000567	5.674511	0.961288	0.000114
 209	2.0696e+01	4.1447	50.993062	0.000730	7.295800	1.235942	0.000146
 210	2.0796e+01	4.1644	51.126287	0.000669	6.687817	1.132947	0.000134
 211	2.0895e+01	4.1841	51.215104	0.000446	4.458545	0.755298	0.000089
 212	2.0994e+01	4.2056	51.340255	0.000628	6.282495	1.064283	0.000126
 213	2.1094e+01	4.2239	51.477518	0.000689	6.890478	1.167279	0.000138
 214	2.1194e+01	4.2448	51.586520	0.000547	5.471850	0.926957	0.000110
 215	2.1293e+01	4.2645	51.752043	0.000831	8.309106	1.407601	0.000166
 216	2.1392e+01	4.2846	51.865083	0.000567	5.674511	0.961288	0.000114
 217	2.1492e+01	4.3044	52.038680	0.000871	8.714428	1.476264	0.000174
 218	2.1591e+01	4.3229	52.095200	0.000284	2.837256	0.480644	0.000057
 219	2.1691e+01	4.3447	52.232462	0.000689	6.890478	1.167279	0.000138
 220	2.1791e+01	4.3639	52.377799	0.000730	7.295800	1.235942	0.000146
 221	2.1890e+01	4.3844	52.462579	0.000426	4.255884	0.720966	0.000085
 222	2.1989e+01	4.4036	52.624064	0.000811	8.106445	1.373269	0.000162
 223	2.2089e+01	4.4228	52.745178	0.000608	6.079834	1.029952	0.000122
 224	2.2189e+01	4.4439	52.846107	0.000507	5.066528	0.858293	0.000101
 225	2.2288e+01	4.4656	52.987407	0.000709	7.093139	1.201610	0.000142
 226	2.2387e+01	4.4833	53.136781	0.000750	7.498462	1.270274	0.000150
 227	2.2487e+01	4.5037	53.221560	0.000426	4.255884	0.720966	0.000085
 228	2.2587e+01	4.5235	53.350749	0.000649	6.485156	1.098615	0.000130
 229	2.2686e+01	4.5419	53.488011	0.000689	6.890478	1.167279	0.000138
 230	2.2785e+01	4.5635	53.605088	0.000588	5.877173	0.995620	0.000118
 231	2.2885e+01	4.5831	53.673720	0.000345	3.445239	0.583639	0.000069
 232	2.2985e+01	4.6016	53.823094	0.000750	7.498462	1.270274	0.000150
 233	2.3084e+01	4.6230	53.940171	0.000588	5.877173	0.995620	0.000118
 234	2.3183e+01	4.6430	54.089545	0.000750	7.498462	1.270274	0.000150
 235	2.3283e+01	4.6641	54.202584	0.000567	5.674511	0.961288	0.000114
 236	2.3383e+01	4.6822	54.323698	0.000608	6.079834	1.029952	0.000122
 237	2.3482e+01	4.7022	54.420590	0.000486	4.863867	0.823961	0.000097
 238	2.3581e+01	4.7231	54.590149	0.000851	8.511767	1.441932	0.000170
 239	2.3681e+01	4.7421	54.650706	0.000304	3.039917	0.514976	0.000061
 240	2.3780e+01	4.7620	54.820266	0.000851	8.511767	1.441932	0.000170
 241	2.3880e+01	4.7818	54.933306	0.000567	5.674511	0.961288	0.000114
 242	2.3980e+01	4.8019	55.014049	0.000405	4.053222	0.686634	0.000081
 243	2.4079e+01	4.8212	55.199757	0.000932	9.322412	1.579259	0.000187
 244	2.4178e+01	4.8414	55.280500	0.000405	4.053222	0.686634	0.000081
 245	2.4278e+01	4.8614	55.393539	0.000567	5.674511	0.961288	0.000114
 246	2.4378e+01	4.8827	55.530802	0.000689	6.890478	1.167279	0.000138
 247	2.4477e+01	4.9021	55.684213	0.000770	7.701123	1.304605	0.000154
 248	2.4576e+01	4.9223	55.773030	0.000446	4.458545	0.755298	0.000089
 249	2.4676e+01	4.9419	55.849736	0.000385	3.850561	0.652303	0.000077
 250	2.4776e+01	4.9627	56.043518	0.000973	9.727734	1.647923	0.000195
 251	2.4875e+01	4.9815	56.116187	0.000365	3.647900	0.617971	0.000073
 252	2.4974e+01	5.0022	56.205004	0.000446	4.458545	0.755298	0.000089
 253	2.5074e+01	5.0225	56.358415	0.000770	7.701123	1.304605	0.000154
 254	2.5174e+01	5.0409	56.499715	0.000709	7.093139	1.201610	0.000142
 255	2.5273e+01	5.0610	56.600643	0.000507	5.066528	0.858293	0.000101
 256	2.5372e+01	5.0805	56.697534	0.000486	4.863867	0.823961	0.000097
 257	2.5472e+01	5.1022	56.814611	0.000588	5.877173	0.995620	0.000118
 258	2.5572e+01	5.1206	56.951874	0.000689	6.890478	1.167279	0.000138
 259	2.5671e+01	5.1408	57.056839	0.000527	5.269189	0.892625	0.000105
 260	2.5770e+01	5.1598	57.177953	0.000608	6.079834	1.029952	0.000122
 261	2.5870e+01	5.1803	57.315216	0.000689	6.890478	1.167279	0.000138
 262	2.5970e+01	5.2010	57.432293	0.000588	5.877173	0.995620	0.000118
 263	2.6069e+01	5.2206	57.561481	0.000649	6.485156	1.098615	0.000130
 264	2.6169e+01	5.2407	57.686633	0.000628	6.282495	1.064283	0.000126
 265	2.6268e+01	5.2598	57.795635	0.000547	5.471850	0.926957	0.000110
 266	2.6367e+01	5.2787	57.896564	0.000507	5.066528	0.858293	0.000101
 267	2.6467e+01	5.3002	58.041901	0.000730	7.295800	1.235942	0.000146
 268	2.6567e+01	5.3201	58.163015	0.000608	6.079834	1.029952	0.000122
 269	2.6666e+01	5.3407	58.247794	0.000426	4.255884	0.720966	0.000085
 270	2.6765e+01	5.3599	58.360834	0.000567	5.674511	0.961288	0.000114
 271	2.6865e+01	5.3799	58.490023	0.000649	6.485156	1.098615	0.000130
 272	2.6965e+01	5.4003	58.582877	0.000466	4.661206	0.789630	0.000093
 273	2.7064e+01	5.4198	58.720139	0.000689	6.890478	1.167279	0.000138
 274	2.7163e+01	5.4395	58.825105	0.000527	5.269189	0.892625	0.000105
 275	2.7263e+01	5.4586	58.946219	0.000608	6.079834	1.029952	0.000122
 276	2.7363e+01	5.4790	59.051184	0.000527	5.269189	0.892625	0.000105
 277	2.7462e+01	5.4987	59.164224	0.000567	5.674511	0.961288	0.000114
 278	2.7561e+01	5.5190	59.297450	0.000669	6.687817	1.132947	0.000134
 279	2.7661e+01	5.5392	59.398378	0.000507	5.066528	0.858293	0.000101
 280	2.7761e+01	5.5593	59.487195	0.000446	4.458545	0.755298	0.000089
 281	2.7860e+01	5.5796	59.600235	0.000567	5.674511	0.961288	0.000114
 282	2.7959e+01	5.5993	59.737498	0.000689	6.890478	1.167279	0.000138
 283	2.8059e+01	5.6194	59.818240	0.000405	4.053222	0.686634	0.000081
 284	2.8159e+01	5.6390	59.927243	0.000547	5.471850	0.926957	0.000110
 285	2.8258e+01	5.6589	60.060468	0.000669	6.687817	1.132947	0.000134
 286	2.8358e+01	5.6788	60.173508	0.000567	5.674511	0.961288	0.000114
 287	2.8457e+01	5.6991	60.234065	0.000304	3.039917	0.514976	0.000061
 288	2.8556e+01	5.7187	60.399588	0.000831	8.309106	1.407601	0.000166
 289	2.8656e+01	5.7395	60.488405	0.000446	4.458545	0.755298	0.000089
 290	2.8756e+01	5.7574	60.585296	0.000486	4.863867	0.823961	0.000097
 291	2.8855e+01	5.7781	60.710447	0.000628	6.282495	1.064283	0.000126
 292	2.8954e+01	5.7980	60.787153	0.000385	3.850561	0.652303	0.000077
 293	2.9054e+01	5.8186	60.936527	0.000750	7.498462	1.270274	0.000150
 294	2.9154e+01	5.8384	60.980935	0.000223	2.229272	0.377649	0.000045
 295	2.9253e+01	5.8578	61.170681	0.000953	9.525073	1.613591	0.000191
 296	2.9352e+01	5.8785	61.259498	0.000446	4.458545	0.755298	0.000089
 297	2.9452e+01	5.8978	61.352352	0.000466	4.661206	0.789630	0.000093
 298	2.9552e+01	5.9174	61.453280	0.000507	5.066528	0.858293	0.000101
 299	2.9651e+01	5.9376	61.594580	0.000709	7.093139	1.201610	0.000142
 300	2.9750e+01	5.9580	61.691471	0.000486	4.863867	0.823961	0.000097
 301	2.9850e+01	5.9782	61.804511	0.000567	5.674511	0.961288	0.000114
 302	2.9950e+01	5.9978	61.897365	0.000466	4.661206	0.789630	0.000093
 303	3.0049e+01	6.0185	62.026553	0.000649	6.485156	1.098615	0.000130
 304	3.0148e+01	6.0373	62.131519	0.000527	5.269189	0.892625	0.000105
 305	3.0248e+01	6.0567	62.256670	0.000628	6.282495	1.064283	0.000126
 306	3.0348e+01	6.0772	62.345487	0.000446	4.458545	0.755298	0.000089
 307	3.0447e+01	6.0970	62.438341	0.000466	4.661206	0.789630	0.000093
 308	3.0547e+01	6.1179	62.579641	0.000709	7.093139	1.201610	0.000142
 309	3.0646e+01	6.1374	62.676532	0.000486	4.863867	0.823961	0.000097
 310	3.0745e+01	6.1578	62.797646	0.000608	6.079834	1.029952	0.000122
 311	3.0845e+01	6.1773	62.890501	0.000466	4.661206	0.789630	0.000093
 312	3.0945e+01	6.1977	62.991429	0.000507	5.066528	0.858293	0.000101
 313	3.1044e+01	6.2180	63.096394	0.000527	5.269189	0.892625	0.000105
 314	3.1143e+01	6.2370	63.209434	0.000567	5.674511	0.961288	0.000114
 315	3.1243e+01	6.2560	63.298251	0.000446	4.458545	0.755298	0.000089
 316	3.1343e+01	6.2762	63.415328	0.000588	5.877173	0.995620	0.000118
 317	3.1442e+01	6.2968	63.548554	0.000669	6.687817	1.132947	0.000134
 318	3.1541e+01	6.3152	63.649482	0.000507	5.066528	0.858293	0.000101
 319	3.1641e+01	6.3380	63.742336	0.000466	4.661206	0.789630	0.000093
 320	3.1741e+01	6.3555	63.855376	0.000567	5.674511	0.961288	0.000114
 321	3.1840e+01	6.3760	63.960341	0.000527	5.269189	0.892625	0.000105
 322	3.1939e+01	6.3958	64.097604	0.000689	6.890478	1.167279	0.000138
 323	3.2039e+01	6.4161	64.150087	0.000263	2.634595	0.446312	0.000053
 324	3.2139e+01	6.4361	64.267164	0.000588	5.877173	0.995620	0.000118
 325	3.2238e+01	6.4559	64.368092	0.000507	5.066528	0.858293	0.000101
 326	3.2337e+01	6.4750	64.501318	0.000669	6.687817	1.132947	0.000134
 327	3.2437e+01	6.4945	64.630506	0.000649	6.485156	1.098615	0.000130
 328	3.2536e+01	6.5159	64.711249	0.000405	4.053222	0.686634	0.000081
 329	3.2636e+01	6.5348	64.868697	0.000790	7.903784	1.338937	0.000158
 330	3.2736e+01	6.5553	64.933291	0.000324	3.242578	0.549308	0.000065
 331	3.2835e+01	6.5749	65.030182	0.000486	4.863867	0.823961	0.000097
 332	3.2934e+01	6.5955	65.139185	0.000547	5.471850	0.926957	0.000110
 333	3.3034e+01	6.6151	65.240114	0.000507	5.066528	0.858293	0.000101
 334	3.3133e+01	6.6351	65.312782	0.000365	3.647900	0.617971	0.000073
 335	3.3233e+01	6.6542	65.470230	0.000790	7.903784	1.338937	0.000158
 336	3.3333e+01	6.6746	65.575196	0.000527	5.269189	0.892625	0.000105
 337	3.3432e+01	6.6948	65.623641	0.000243	2.431933	0.411981	0.000049
 338	3.3532e+01	6.7142	65.797238	0.000871	8.714428	1.476264	0.000174
 339	3.3631e+01	6.7347	65.873944	0.000385	3.850561	0.652303	0.000077
 340	3.3730e+01	6.7550	65.958724	0.000426	4.255884	0.720966	0.000085
 341	3.3830e+01	6.7742	66.051578	0.000466	4.661206	0.789630	0.000093
 342	3.3929e+01	6.7953	66.168655	0.000588	5.877173	0.995620	0.000118
 343	3.4029e+01	6.8151	66.289769	0.000608	6.079834	1.029952	0.000122
 344	3.4129e+01	6.8343	66.398771	0.000547	5.471850	0.926957	0.000110
 345	3.4228e+01	6.8533	66.479514	0.000405	4.053222	0.686634	0.000081
 346	3.4328e+01	6.8742	66.596591	0.000588	5.877173	0.995620	0.000118
 347	3.4427e+01	6.8937	66.713668	0.000588	5.877173	0.995620	0.000118
 348	3.4526e+01	6.9136	66.798448	0.000426	4.255884	0.720966	0.000085
 349	3.4626e+01	6.9334	66.887265	0.000446	4.458545	0.755298	0.000089
 350	3.4725e+01	6.9541	67.028565	0.000709	7.093139	1.201610	0.000142
 351	3.4825e+01	6.9732	67.121419	0.000466	4.661206	0.789630	0.000093
 352	3.4925e+01	6.9939	67.234459	0.000567	5.674511	0.961288	0.000114
 353	3.5024e+01	7.0142	67.339424	0.000527	5.269189	0.892625	0.000105
 354	3.5123e+01	7.0324	67.391907	0.000263	2.634595	0.446312	0.000053
 355	3.5223e+01	7.0535	67.513021	0.000608	6.079834	1.029952	0.000122
 356	3.5322e+01	7.0734	67.646246	0.000669	6.687817	1.132947	0.000134
 357	3.5422e+01	7.0933	67.718915	0.000365	3.647900	0.617971	0.000073
 358	3.5522e+01	7.1140	67.831955	0.000567	5.674511	0.961288	0.000114
 359	3.5621e+01	7.1326	67.940957	0.000547	5.471850	0.926957	0.000110
 360	3.5721e+01	7.1523	68.053997	0.000567	5.674511	0.961288	0.000114
 361	3.5820e+01	7.1734	68.163000	0.000547	5.471850	0.926957	0.000110
 362	3.5919e+01	7.1929	68.259891	0.000486	4.863867	0.823961	0.000097
 363	3.6019e+01	7.2128	68.364857	0.000527	5.269189	0.892625	0.000105
 364	3.6118e+01	7.2330	68.485971	0.000608	6.079834	1.029952	0.000122
 365	3.6218e+01	7.2528	68.586899	0.000507	5.066528	0.858293	0.000101
 366	3.6318e+01	7.2720	68.671679	0.000426	4.255884	0.720966	0.000085
 367	3.6417e+01	7.2919	68.784719	0.000567	5.674511	0.961288	0.000114
 368	3.6517e+01	7.3117	68.901796	0.000588	5.877173	0.995620	0.000118
 369	3.6616e+01	7.3327	69.014835	0.000567	5.674511	0.961288	0.000114
 370	3.6715e+01	7.3525	69.095578	0.000405	4.053222	0.686634	0.000081
 371	3.6815e+01	7.3721	69.196507	0.000507	5.066528	0.858293	0.000101
 372	3.6914e+01	7.3934	69.317621	0.000608	6.079834	1.029952	0.000122
 373	3.7014e+01	7.4126	69.430660	0.000567	5.674511	0.961288	0.000114
 374	3.7114e+01	7.4323	69.543700	0.000567	5.674511	0.961288	0.000114
 375	3.7213e+01	7.4517	69.612332	0.000345	3.445239	0.583639	0.000069
 376	3.7313e+01	7.4714	69.729408	0.000588	5.877173	0.995620	0.000118
 377	3.7412e+01	7.4915	69.838411	0.000547	5.471850	0.926957	0.000110
 378	3.7511e+01	7.5103	69.915117	0.000385	3.850561	0.652303	0.000077
 379	3.7611e+01	7.5309	70.007971	0.000466	4.661206	0.789630	0.000093
 380	3.7711e+01	7.5521	70.129085	0.000608	6.079834	1.029952	0.000122
 381	3.7810e+01	7.5715	70.246162	0.000588	5.877173	0.995620	0.000118
 382	3.7910e+01	7.5909	70.375350	0.000649	6.485156	1.098615	0.000130
 383	3.8009e+01	7.6116	70.456093	0.000405	4.053222	0.686634	0.000081
 384	3.8108e+01	7.6313	70.561058	0.000527	5.269189	0.892625	0.000105
 385	3.8208e+01	7.6508	70.629690	0.000345	3.445239	0.583639	0.000069
 386	3.8307e+01	7.6714	70.750804	0.000608	6.079834	1.029952	0.000122
 387	3.8407e+01	7.6910	70.851732	0.000507	5.066528	0.858293	0.000101
 388	3.8507e+01	7.7110	70.928438	0.000385	3.850561	0.652303	0.000077
 389	3.8606e+01	7.7306	71.041478	0.000567	5.674511	0.961288	0.000114
 390	3.8706e+01	7.7491	71.178740	0.000689	6.890478	1.167279	0.000138
 391	3.8805e+01	7.7703	71.231223	0.000263	2.634595	0.446312	0.000053
 392	3.8904e+01	7.7901	71.360411	0.000649	6.485156	1.098615	0.000130
 393	3.9004e+01	7.8112	71.445191	0.000426	4.255884	0.720966	0.000085
 394	3.9103e+01	7.8301	71.542082	0.000486	4.863867	0.823961	0.000097
 395	3.9203e+01	7.8506	71.651085	0.000547	5.471850	0.926957	0.000110
 396	3.9303e+01	7.8701	71.772199	0.000608	6.079834	1.029952	0.000122
 397	3.9402e+01	7.8899	71.889276	0.000588	5.877173	0.995620	0.000118
 398	3.9502e+01	7.9097	71.949833	0.000304	3.039917	0.514976	0.000061
 399	3.9601e+01	7.9298	72.018464	0.000345	3.445239	0.583639	0.000069
 400	3.9700e+01	7.9502	72.143616	0.000628	6.282495	1.064283	0.000126
 401	3.9800e+01	7.9701	72.276841	0.000669	6.687817	1.132947	0.000134
 402	3.9900e+01	7.9908	72.341435	0.000324	3.242578	0.549308	0.000065
 403	3.9999e+01	8.0097	72.458512	0.000588	5.877173	0.995620	0.000118
 404	4.0099e+01	8.0298	72.519069	0.000304	3.039917	0.514976	0.000061
 405	4.0198e+01	8.0491	72.652295	0.000669	6.687817	1.132947	0.000134
 406	4.0297e+01	8.0689	72.745149	0.000466	4.661206	0.789630	0.000093
 407	4.0397e+01	8.0889	72.801669	0.000284	2.837256	0.480644	0.000057
 408	4.0496e+01	8.1094	72.934894	0.000669	6.687817	1.132947	0.000134
 409	4.0596e+01	8.1287	73.015637	0.000405	4.053222	0.686634	0.000081
 410	4.0696e+01	8.1498	73.160974	0.000730	7.295800	1.235942	0.000146
 411	4.0795e+01	8.1683	73.245754	0.000426	4.255884	0.720966	0.000085
 412	4.0895e+01	8.1887	73.318422	0.000365	3.647900	0.617971	0.000073
 413	4.0994e+01	8.2083	73.439536	0.000608	6.079834	1.029952	0.000122
 414	4.1093e+01	8.2278	73.512205	0.000365	3.647900	0.617971	0.000073
 415	4.1193e+01	8.2484	73.625244	0.000567	5.674511	0.961288	0.000114
 416	4.1292e+01	8.2679	73.730210	0.000527	5.269189	0.892625	0.000105
 417	4.1392e+01	8.2888	73.814990	0.000426	4.255884	0.720966	0.000085
 418	4.1492e+01	8.3083	73.899770	0.000426	4.255884	0.720966	0.000085
 419	4.1591e+01	8.3282	73.996661	0.000486	4.863867	0.823961	0.000097
 420	4.1691e+01	8.3477	74.121812	0.000628	6.282495	1.064283	0.000126
 421	4.1790e+01	8.3686	74.210629	0.000446	4.458545	0.755298	0.000089
 422	4.1889e+01	8.3883	74.307520	0.000486	4.863867	0.823961	0.000097
 423	4.1989e+01	8.4072	74.392300	0.000426	4.255884	0.720966	0.000085
 424	4.2089e+01	8.4282	74.533600	0.000709	7.093139	1.201610	0.000142
 425	4.2188e+01	8.4479	74.590120	0.000284	2.837256	0.480644	0.000057
 426	4.2288e+01	8.4673	74.682974	0.000466	4.661206	0.789630	0.000093
 427	4.2387e+01	8.4876	74.828311	0.000730	7.295800	1.235942	0.000146
 428	4.2486e+01	8.5076	74.888868	0.000304	3.039917	0.514976	0.000061
 429	4.2586e+01	8.5284	75.022093	0.000669	6.687817	1.132947	0.000134
 430	4.2685e+01	8.5503	75.102836	0.000405	4.053222	0.686634	0.000081
 431	4.2785e+01	8.5676	75.171467	0.000345	3.445239	0.583639	0.000069
 432	4.2885e+01	8.5870	75.292582	0.000608	6.079834	1.029952	0.000122
 433	4.2984e+01	8.6068	75.421770	0.000649	6.485156	1.098615	0.000130
 434	4.3084e+01	8.6262	75.462141	0.000203	2.026611	0.343317	0.000041
 435	4.3183e+01	8.6468	75.567107	0.000527	5.269189	0.892625	0.000105
 436	4.3282e+01	8.6671	75.651887	0.000426	4.255884	0.720966	0.000085
 437	4.3382e+01	8.6866	75.756852	0.000527	5.269189	0.892625	0.000105
 438	4.3481e+01	8.7070	75.873929	0.000588	5.877173	0.995620	0.000118
 439	4.3581e+01	8.7275	75.946598	0.000365	3.647900	0.617971	0.000073
 440	4.3681e+01	8.7472	76.063674	0.000588	5.877173	0.995620	0.000118
 441	4.3780e+01	8.7670	76.156529	0.000466	4.661206	0.789630	0.000093
 442	4.3880e+01	8.7855	76.253420	0.000486	4.863867	0.823961	0.000097
 443	4.3979e+01	8.8067	76.305903	0.000263	2.634595	0.446312	0.000053
 444	4.4078e+01	8.8264	76.443165	0.000689	6.890478	1.167279	0.000138
 445	4.4178e+01	8.8461	76.507759	0.000324	3.242578	0.549308	0.000065
 446	4.4278e+01	8.8650	76.600613	0.000466	4.661206	0.789630	0.000093
 447	4.4377e+01	8.8854	76.685393	0.000426	4.255884	0.720966	0.000085
 448	4.4477e+01	8.9058	76.802470	0.000588	5.877173	0.995620	0.000118
 449	4.4576e+01	8.9259	76.883213	0.000405	4.053222	0.686634	0.000081
 450	4.4675e+01	8.9439	76.992216	0.000547	5.471850	0.926957	0.000110
 451	4.4775e+01	8.9635	77.072958	0.000405	4.053222	0.686634	0.000081
 452	4.4874e+01	8.9854	77.173887	0.000507	5.066528	0.858293	0.000101
 453	4.4974e+01	9.0054	77.230407	0.000284	2.837256	0.480644	0.000057
 454	4.5074e+01	9.0249	77.343446	0.000567	5.674511	0.961288	0.000114
 455	4.5173e+01	9.0450	77.424189	0.000405	4.053222	0.686634	0.000081
 456	4.5273e+01	9.0655	77.488783	0.000324	3.242578	0.549308	0.000065
 457	4.5372e+01	9.0836	77.597786	0.000547	5.471850	0.926957	0.000110
 458	4.5471e+01	9.1050	77.678529	0.000405	4.053222	0.686634	0.000081
 459	4.5571e+01	9.1261	77.795606	0.000588	5.877173	0.995620	0.000118
 460	4.5670e+01	9.1455	77.900571	0.000527	5.269189	0.892625	0.000105
 461	4.5770e+01	9.1647	77.969203	0.000345	3.445239	0.583639	0.000069
 462	4.5870e+01	9.1839	78.049945	0.000405	4.053222	0.686634	0.000081
 463	4.5969e+01	9.2041	78.142799	0.000466	4.661206	0.789630	0.000093
 464	4.6069e+01	9.2237	78.288136	0.000730	7.295800	1.235942	0.000146
 465	4.6168e+01	9.2448	78.304285	0.000081	0.810644	0.137327	0.000016
 466	4.6267e+01	9.2635	78.429436	0.000628	6.282495	1.064283	0.000126
 467	4.6367e+01	9.2847	78.562661	0.000669	6.687817	1.132947	0.000134
 468	4.6467e+01	9.3021	78.647441	0.000426	4.255884	0.720966	0.000085
 469	4.6566e+01	9.3229	78.728184	0.000405	4.053222	0.686634	0.000081
 470	4.6666e+01	9.3429	78.804890	0.000385	3.850561	0.652303	0.000077
 471	4.6765e+01	9.3639	78.913892	0.000547	5.471850	0.926957	0.000110
 472	4.6864e+01	9.3834	79.043081	0.000649	6.485156	1.098615	0.000130
 473	4.6964e+01	9.4028	79.115749	0.000365	3.647900	0.617971	0.000073
 474	4.7063e+01	9.4231	79.196492	0.000405	4.053222	0.686634	0.000081
 475	4.7163e+01	9.4425	79.261086	0.000324	3.242578	0.549308	0.000065
 476	4.7263e+01	9.4629	79.366051	0.000527	5.269189	0.892625	0.000105
 477	4.7362e+01	9.4828	79.430646	0.000324	3.242578	0.549308	0.000065
 478	4.7462e+01	9.5039	79.567908	0.000689	6.890478	1.167279	0.000138
 479	4.7561e+01	9.5225	79.640577	0.000365	3.647900	0.617971	0.000073
 480	4.7660e+01	9.5467	79.745542	0.000527	5.269189	0.892625	0.000105
 481	4.7760e+01	9.5623	79.834359	0.000446	4.458545	0.755298	0.000089
 482	4.7859e+01	9.5834	79.894916	0.000304	3.039917	0.514976	0.000061
 483	4.7959e+01	9.6024	79.995845	0.000507	5.066528	0.858293	0.000101
 484	4.8059e+01	9.6233	80.092736	0.000486	4.863867	0.823961	0.000097
 485	4.8158e+01	9.6420	80.213850	0.000608	6.079834	1.029952	0.000122
 486	4.8258e+01	9.6621	80.246147	0.000162	1.621289	0.274654	0.000032
 487	4.8357e+01	9.6826	80.371298	0.000628	6.282495	1.064283	0.000126
 488	4.8456e+01	9.7021	80.448004	0.000385	3.850561	0.652303	0.000077
 489	4.8556e+01	9.7227	80.540858	0.000466	4.661206	0.789630	0.000093
 490	4.8656e+01	9.7413	80.637749	0.000486	4.863867	0.823961	0.000097
 491	4.8755e+01	9.7614	80.730603	0.000466	4.661206	0.789630	0.000093
 492	4.8855e+01	9.7816	80.839606	0.000547	5.471850	0.926957	0.000110
 493	4.8954e+01	9.8028	80.896126	0.000284	2.837256	0.480644	0.000057
 494	4.9053e+01	9.8222	80.997054	0.000507	5.066528	0.858293	0.000101
 495	4.9153e+01	9.8413	81.114131	0.000588	5.877173	0.995620	0.000118
 496	4.9252e+01	9.8614	81.182763	0.000345	3.445239	0.583639	0.000069
 497	4.9352e+01	9.8813	81.283691	0.000507	5.066528	0.858293	0.000101
 498	4.9452e+01	9.9024	81.380582	0.000486	4.863867	0.823961	0.000097
 499	4.9551e+01	9.9212	81.493622	0.000567	5.674511	0.961288	0.000114
 500	4.9651e+01	9.9414	81.590513	0.000486	4.863867	0.823961	0.000097
 501	4.9750e+01	9.9612	81.630885	0.000203	2.026611	0.343317	0.000041
 502	4.9849e+01	9.9807	81.747962	0.000588	5.877173	0.995620	0.000118
 503	4.9949e+01	9.9999	81.836779	0.000446	4.458545	0.755298	0.000089
 504	5.0048e+01	9.9810	81.760073	0.000385	3.850561	0.652303	-0.000077
 505	5.0148e+01	9.9627	81.715664	0.000223	2.229272	0.377649	-0.000045
 506	5.0248e+01	9.9407	81.638959	0.000385	3.850561	0.652303	-0.000077
 507	5.0347e+01	9.9219	81.606662	0.000162	1.621289	0.274654	-0.000032
 508	5.0447e+01	9.9015	81.525919	0.000405	4.053222	0.686634	-0.000081
 509	5.0546e+01	9.8821	81.477473	0.000243	2.431933	0.411981	-0.000049
 510	5.0645e+01	9.8614	81.384619	0.000466	4.661206	0.789630	-0.000093
 511	5.0745e+01	9.8421	81.344248	0.000203	2.026611	0.343317	-0.000041
 512	5.0844e+01	9.8212	81.279654	0.000324	3.242578	0.549308	-0.000065
 513	5.0944e+01	9.8031	81.223134	0.000284	2.837256	0.480644	-0.000057
 514	5.1044e+01	9.7807	81.130280	0.000466	4.661206	0.789630	-0.000093
 515	5.1143e+01	9.7622	81.057611	0.000365	3.647900	0.617971	-0.000073
 516	5.1242e+01	9.7417	81.005129	0.000263	2.634595	0.446312	-0.000053
 517	5.1342e+01	9.7211	80.936497	0.000345	3.445239	0.583639	-0.000069
 518	5.1441e+01	9.7022	80.835569	0.000507	5.066528	0.858293	-0.000101
 519	5.1541e+01	9.6827	80.819420	0.000081	0.810644	0.137327	-0.000016
 520	5.1641e+01	9.6631	80.742715	0.000385	3.850561	0.652303	-0.000077
 521	5.1740e+01	9.6436	80.633712	0.000547	5.471850	0.926957	-0.000110
 522	5.1840e+01	9.6227	80.605452	0.000142	1.418628	0.240322	-0.000028
 523	5.1939e+01	9.6021	80.544895	0.000304	3.039917	0.514976	-0.000061
 524	5.2038e+01	9.5832	80.460115	0.000426	4.255884	0.720966	-0.000085
 525	5.2138e+01	9.5622	80.411670	0.000243	2.431933	0.411981	-0.000049
 526	5.2237e+01	9.5425	80.334964	0.000385	3.850561	0.652303	-0.000077
 527	5.2337e+01	9.5229	80.286518	0.000243	2.431933	0.411981	-0.000049
 528	5.2437e+01	9.5025	80.173479	0.000567	5.674511	0.961288	-0.000114
 529	5.2536e+01	9.4834	80.141182	0.000162	1.621289	0.274654	-0.000032
 530	5.2636e+01	9.4631	80.068513	0.000365	3.647900	0.617971	-0.000073
 531	5.2735e+01	9.4434	79.983733	0.000426	4.255884	0.720966	-0.000085
 532	5.2834e+01	9.4230	79.902991	0.000405	4.053222	0.686634	-0.000081
 533	5.2934e+01	9.4027	79.858582	0.000223	2.229272	0.377649	-0.000045
 534	5.3033e+01	9.3829	79.765728	0.000466	4.661206	0.789630	-0.000093
 535	5.3133e+01	9.3627	79.741505	0.000122	1.215967	0.205990	-0.000024
 536	5.3233e+01	9.3435	79.640577	0.000507	5.066528	0.858293	-0.000101
 537	5.3332e+01	9.3237	79.588094	0.000263	2.634595	0.446312	-0.000053
 538	5.3431e+01	9.3040	79.471017	0.000588	5.877173	0.995620	-0.000118
 539	5.3531e+01	9.2840	79.422571	0.000243	2.431933	0.411981	-0.000049
 540	5.3630e+01	9.2635	79.370089	0.000263	2.634595	0.446312	-0.000053
 541	5.3730e+01	9.2437	79.277234	0.000466	4.661206	0.789630	-0.000093
 542	5.3830e+01	9.2237	79.232826	0.000223	2.229272	0.377649	-0.000045
 543	5.3929e+01	9.2042	79.144009	0.000446	4.458545	0.755298	-0.000089
 544	5.4029e+01	9.1846	79.083452	0.000304	3.039917	0.514976	-0.000061
 545	5.4128e+01	9.1644	79.039043	0.000223	2.229272	0.377649	-0.000045
 546	5.4227e+01	9.1439	78.934078	0.000527	5.269189	0.892625	-0.000105
 547	5.4327e+01	9.1241	78.873521	0.000304	3.039917	0.514976	-0.000061
 548	5.4426e+01	9.1040	78.788741	0.000426	4.255884	0.720966	-0.000085
 549	5.4526e+01	9.0838	78.724147	0.000324	3.242578	0.549308	-0.000065
 550	5.4626e+01	9.0646	78.643404	0.000405	4.053222	0.686634	-0.000081
 551	5.4725e+01	9.0463	78.578810	0.000324	3.242578	0.549308	-0.000065
 552	5.4825e+01	9.0249	78.485956	0.000466	4.661206	0.789630	-0.000093
 553	5.4924e+01	9.0046	78.405213	0.000405	4.053222	0.686634	-0.000081
 554	5.5023e+01	8.9849	78.324470	0.000405	4.053222	0.686634	-0.000081
 555	5.5123e+01	8.9652	78.292173	0.000162	1.621289	0.274654	-0.000032
 556	5.5222e+01	8.9444	78.187208	0.000527	5.269189	0.892625	-0.000105
 557	5.5322e+01	8.9260	78.110502	0.000385	3.850561	0.652303	-0.000077
 558	5.5422e+01	8.9059	78.070131	0.000203	2.026611	0.343317	-0.000041
 559	5.5521e+01	8.8848	77.981314	0.000446	4.458545	0.755298	-0.000089
 560	5.5620e+01	8.8659	77.924794	0.000284	2.837256	0.480644	-0.000057
 561	5.5720e+01	8.8462	77.799643	0.000628	6.282495	1.064283	-0.000126
 562	5.5819e+01	8.8259	77.771383	0.000142	1.418628	0.240322	-0.000028
 563	5.5919e+01	8.8087	77.630083	0.000709	7.093139	1.201610	-0.000142
 564	5.6019e+01	8.7862	77.585675	0.000223	2.229272	0.377649	-0.000045
 565	5.6118e+01	8.7661	77.508969	0.000385	3.850561	0.652303	-0.000077
 566	5.6218e+01	8.7455	77.440338	0.000345	3.445239	0.583639	-0.000069
 567	5.6317e+01	8.7267	77.371706	0.000345	3.445239	0.583639	-0.000069
 568	5.6416e+01	8.7061	77.278852	0.000466	4.661206	0.789630	-0.000093
 569	5.6516e+01	8.6870	77.226370	0.000263	2.634595	0.446312	-0.000053
 570	5.6615e+01	8.6681	77.165812	0.000304	3.039917	0.514976	-0.000061
 571	5.6715e+01	8.6475	77.060847	0.000527	5.269189	0.892625	-0.000105
 572	5.6815e+01	8.6269	76.955881	0.000527	5.269189	0.892625	-0.000105
 573	5.6914e+01	8.6076	76.895324	0.000304	3.039917	0.514976	-0.000061
 574	5.7014e+01	8.5877	76.826693	0.000345	3.445239	0.583639	-0.000069
 575	5.7113e+01	8.5674	76.774210	0.000263	2.634595	0.446312	-0.000053
 576	5.7212e+01	8.5470	76.677319	0.000486	4.863867	0.823961	-0.000097
 577	5.7312e+01	8.5284	76.592539	0.000426	4.255884	0.720966	-0.000085
 578	5.7411e+01	8.5073	76.511797	0.000405	4.053222	0.686634	-0.000081
 579	5.7511e+01	8.4875	76.479499	0.000162	1.621289	0.274654	-0.000032
 580	5.7611e+01	8.4672	76.354348	0.000628	6.282495	1.064283	-0.000126
 581	5.7710e+01	8.4486	76.277643	0.000385	3.850561	0.652303	-0.000077
 582	5.7809e+01	8.4280	76.213048	0.000324	3.242578	0.549308	-0.000065
 583	5.7909e+01	8.4077	76.140380	0.000365	3.647900	0.617971	-0.000073
 584	5.8008e+01	8.3874	76.055600	0.000426	4.255884	0.720966	-0.000085
 585	5.8108e+01	8.3683	75.946598	0.000547	5.471850	0.926957	-0.000110
 586	5.8208e+01	8.3481	75.877966	0.000345	3.445239	0.583639	-0.000069
 587	5.8307e+01	8.3283	75.841632	0.000182	1.823950	0.308986	-0.000037
 588	5.8407e+01	8.3083	75.760889	0.000405	4.053222	0.686634	-0.000081
 589	5.8506e+01	8.2893	75.659961	0.000507	5.066528	0.858293	-0.000101
 590	5.8605e+01	8.2671	75.595367	0.000324	3.242578	0.549308	-0.000065
 591	5.8705e+01	8.2488	75.478290	0.000588	5.877173	0.995620	-0.000118
 592	5.8804e+01	8.2282	75.413696	0.000324	3.242578	0.549308	-0.000065
 593	5.8904e+01	8.2082	75.308730	0.000527	5.269189	0.892625	-0.000105
 594	5.9004e+01	8.1886	75.240099	0.000345	3.445239	0.583639	-0.000069
 595	5.9103e+01	8.1689	75.183579	0.000284	2.837256	0.480644	-0.000057
 596	5.9203e+01	8.1496	75.094762	0.000446	4.458545	0.755298	-0.000089
 597	5.9302e+01	8.1284	74.997871	0.000486	4.863867	0.823961	-0.000097
 598	5.9401e+01	8.1104	74.953462	0.000223	2.229272	0.377649	-0.000045
 599	5.9501e+01	8.0892	74.876757	0.000385	3.850561	0.652303	-0.000077
 600	5.9600e+01	8.0697	74.763717	0.000567	5.674511	0.961288	-0.000114
 601	5.9700e+01	8.0496	74.678937	0.000426	4.255884	0.720966	-0.000085
 602	5.9800e+01	8.0299	74.618380	0.000304	3.039917	0.514976	-0.000061
 603	5.9899e+01	8.0094	74.513414	0.000527	5.269189	0.892625	-0.000105
 604	5.9998e+01	7.9887	74.460932	0.000263	2.634595	0.446312	-0.000053
 605	6.0098e+01	7.9698	74.392300	0.000345	3.445239	0.583639	-0.000069
 606	6.0197e+01	7.9499	74.275223	0.000588	5.877173	0.995620	-0.000118
 607	6.0297e+01	7.9299	74.206592	0.000345	3.445239	0.583639	-0.000069
 608	6.0397e+01	7.9089	74.117775	0.000446	4.458545	0.755298	-0.000089
 609	6.0496e+01	7.8905	74.049144	0.000345	3.445239	0.583639	-0.000069
 610	6.0596e+01	7.8695	73.968401	0.000405	4.053222	0.686634	-0.000081
 611	6.0695e+01	7.8503	73.863435	0.000527	5.269189	0.892625	-0.000105
 612	6.0794e+01	7.8294	73.786730	0.000385	3.850561	0.652303	-0.000077
 613	6.0894e+01	7.8102	73.685801	0.000507	5.066528	0.858293	-0.000101
 614	6.0993e+01	7.7899	73.605059	0.000405	4.053222	0.686634	-0.000081
 615	6.1093e+01	7.7696	73.544502	0.000304	3.039917	0.514976	-0.000061
 616	6.1193e+01	7.7510	73.439536	0.000527	5.269189	0.892625	-0.000105
 617	6.1292e+01	7.7300	73.354756	0.000426	4.255884	0.720966	-0.000085
 618	6.1392e+01	7.7100	73.282088	0.000365	3.647900	0.617971	-0.000073
 619	6.1491e+01	7.6897	73.185197	0.000486	4.863867	0.823961	-0.000097
 620	6.1590e+01	7.6704	73.092343	0.000466	4.661206	0.789630	-0.000093
 621	6.1690e+01	7.6505	72.979303	0.000567	5.674511	0.961288	-0.000114
 622	6.1789e+01	7.6315	72.922783	0.000284	2.837256	0.480644	-0.000057
 623	6.1889e+01	7.6109	72.833966	0.000446	4.458545	0.755298	-0.000089
 624	6.1989e+01	7.5908	72.749186	0.000426	4.255884	0.720966	-0.000085
 625	6.2088e+01	7.5717	72.696703	0.000263	2.634595	0.446312	-0.000053
 626	6.2188e+01	7.5484	72.535218	0.000811	8.106445	1.373269	-0.000162
 627	6.2287e+01	7.5304	72.486772	0.000243	2.431933	0.411981	-0.000049
 628	6.2386e+01	7.5115	72.406029	0.000405	4.053222	0.686634	-0.000081
 629	6.2486e+01	7.4920	72.301064	0.000527	5.269189	0.892625	-0.000105
 630	6.2586e+01	7.4709	72.220321	0.000405	4.053222	0.686634	-0.000081
 631	6.2685e+01	7.4517	72.127467	0.000466	4.661206	0.789630	-0.000093
 632	6.2785e+01	7.4308	72.046724	0.000405	4.053222	0.686634	-0.000081
 633	6.2884e+01	7.4111	71.965982	0.000405	4.053222	0.686634	-0.000081
 634	6.2983e+01	7.3922	71.897350	0.000345	3.445239	0.583639	-0.000069
 635	6.3083e+01	7.3728	71.784311	0.000567	5.674511	0.961288	-0.000114
 636	6.3182e+01	7.3521	71.695494	0.000446	4.458545	0.755298	-0.000089
 637	6.3282e+01	7.3318	71.590528	0.000527	5.269189	0.892625	-0.000105
 638	6.3382e+01	7.3119	71.513822	0.000385	3.850561	0.652303	-0.000077
 639	6.3481e+01	7.2925	71.441154	0.000365	3.647900	0.617971	-0.000073
 640	6.3581e+01	7.2726	71.344263	0.000486	4.863867	0.823961	-0.000097
 641	6.3680e+01	7.2536	71.227186	0.000588	5.877173	0.995620	-0.000118
 642	6.3779e+01	7.2321	71.150480	0.000385	3.850561	0.652303	-0.000077
 643	6.3879e+01	7.2124	71.065700	0.000426	4.255884	0.720966	-0.000085
 644	6.3978e+01	7.1917	70.984958	0.000405	4.053222	0.686634	-0.000081
 645	6.4078e+01	7.1731	70.859806	0.000628	6.282495	1.064283	-0.000126
 646	6.4177e+01	7.1525	70.815398	0.000223	2.229272	0.377649	-0.000045
 647	6.4277e+01	7.1330	70.734655	0.000405	4.053222	0.686634	-0.000081
 648	6.4376e+01	7.1136	70.597393	0.000689	6.890478	1.167279	-0.000138
 649	6.4476e+01	7.0936	70.540873	0.000284	2.837256	0.480644	-0.000057
 650	6.4576e+01	7.0732	70.472241	0.000345	3.445239	0.583639	-0.000069
 651	6.4675e+01	7.0542	70.359202	0.000567	5.674511	0.961288	-0.000114
 652	6.4775e+01	7.0338	70.274422	0.000426	4.255884	0.720966	-0.000085
 653	6.4874e+01	7.0137	70.221939	0.000263	2.634595	0.446312	-0.000053
 654	6.4974e+01	6.9933	70.116973	0.000527	5.269189	0.892625	-0.000105
 655	6.5073e+01	6.9738	70.028157	0.000446	4.458545	0.755298	-0.000089
 656	6.5172e+01	6.9533	69.963562	0.000324	3.242578	0.549308	-0.000065
 657	6.5272e+01	6.9341	69.818225	0.000730	7.295800	1.235942	-0.000146
 658	6.5371e+01	6.9134	69.749594	0.000345	3.445239	0.583639	-0.000069
 659	6.5471e+01	6.8935	69.632517	0.000588	5.877173	0.995620	-0.000118
 660	6.5570e+01	6.8734	69.551774	0.000405	4.053222	0.686634	-0.000081
 661	6.5670e+01	6.8537	69.471032	0.000405	4.053222	0.686634	-0.000081
 662	6.5769e+01	6.8343	69.386252	0.000426	4.255884	0.720966	-0.000085
 663	6.5869e+01	6.8140	69.293398	0.000466	4.661206	0.789630	-0.000093
 664	6.5969e+01	6.7945	69.200544	0.000466	4.661206	0.789630	-0.000093
 665	6.6068e+01	6.7739	69.123838	0.000385	3.850561	0.652303	-0.000077
 666	6.6168e+01	6.7535	69.051170	0.000365	3.647900	0.617971	-0.000073
 667	6.6267e+01	6.7342	68.913907	0.000689	6.890478	1.167279	-0.000138
 668	6.6367e+01	6.7149	68.825090	0.000446	4.458545	0.755298	-0.000089
 669	6.6466e+01	6.6942	68.744347	0.000405	4.053222	0.686634	-0.000081
 670	6.6566e+01	6.6741	68.643419	0.000507	5.066528	0.858293	-0.000101
 671	6.6665e+01	6.6549	68.570751	0.000365	3.647900	0.617971	-0.000073
 672	6.6764e+01	6.6344	68.477896	0.000466	4.661206	0.789630	-0.000093
 673	6.6864e+01	6.6149	68.372931	0.000527	5.269189	0.892625	-0.000105
 674	6.6963e+01	6.5945	68.308337	0.000324	3.242578	0.549308	-0.000065
 675	6.7063e+01	6.5783	68.211445	0.000486	4.863867	0.823961	-0.000097
 676	6.7162e+01	6.5557	68.110517	0.000507	5.066528	0.858293	-0.000101
 677	6.7262e+01	6.5350	68.005552	0.000527	5.269189	0.892625	-0.000105
 678	6.7362e+01	6.5148	67.884437	0.000608	6.079834	1.029952	-0.000122
 679	6.7461e+01	6.4941	67.815806	0.000345	3.445239	0.583639	-0.000069
 680	6.7561e+01	6.4744	67.731026	0.000426	4.255884	0.720966	-0.000085
 681	6.7660e+01	6.4553	67.642209	0.000446	4.458545	0.755298	-0.000089
 682	6.7760e+01	6.4354	67.492835	0.000750	7.498462	1.270274	-0.000150
 683	6.7859e+01	6.4147	67.420167	0.000365	3.647900	0.617971	-0.000073
 684	6.7959e+01	6.3956	67.331350	0.000446	4.458545	0.755298	-0.000089
 685	6.8058e+01	6.3752	67.270793	0.000304	3.039917	0.514976	-0.000061
 686	6.8157e+01	6.3557	67.165827	0.000527	5.269189	0.892625	-0.000105
 687	6.8257e+01	6.3360	67.081047	0.000426	4.255884	0.720966	-0.000085
 688	6.8356e+01	6.3163	66.947822	0.000669	6.687817	1.132947	-0.000134
 689	6.8456e+01	6.2966	66.879191	0.000345	3.445239	0.583639	-0.000069
 690	6.8555e+01	6.2756	66.798448	0.000405	4.053222	0.686634	-0.000081
 691	6.8655e+01	6.2572	66.697520	0.000507	5.066528	0.858293	-0.000101
 692	6.8754e+01	6.2371	66.588517	0.000547	5.471850	0.926957	-0.000110
 693	6.8854e+01	6.2170	66.511811	0.000385	3.850561	0.652303	-0.000077
 694	6.8954e+01	6.1968	66.447217	0.000324	3.242578	0.549308	-0.000065
 695	6.9053e+01	6.1765	66.350326	0.000486	4.863867	0.823961	-0.000097
 696	6.9153e+01	6.1577	66.257472	0.000466	4.661206	0.789630	-0.000093
 697	6.9252e+01	6.1369	66.128283	0.000649	6.485156	1.098615	-0.000130
 698	6.9352e+01	6.1178	66.035429	0.000466	4.661206	0.789630	-0.000093
 699	6.9451e+01	6.0973	65.942575	0.000466	4.661206	0.789630	-0.000093
 700	6.9550e+01	6.0773	65.861832	0.000405	4.053222	0.686634	-0.000081
 701	6.9650e+01	6.0580	65.793201	0.000345	3.445239	0.583639	-0.000069
 702	6.9749e+01	6.0375	65.668050	0.000628	6.282495	1.064283	-0.000126
 703	6.9849e+01	6.0171	65.603456	0.000324	3.242578	0.549308	-0.000065
 704	6.9948e+01	5.9970	65.482342	0.000608	6.079834	1.029952	-0.000122
 705	7.0048e+01	5.9765	65.401599	0.000405	4.053222	0.686634	-0.000081
 706	7.0147e+01	5.9579	65.304708	0.000486	4.863867	0.823961	-0.000097
 707	7.0247e+01	5.9380	65.219928	0.000426	4.255884	0.720966	-0.000085
 708	7.0347e+01	5.9184	65.127074	0.000466	4.661206	0.789630	-0.000093
 709	7.0446e+01	5.8979	65.014034	0.000567	5.674511	0.961288	-0.000114
 710	7.0546e+01	5.8779	64.937328	0.000385	3.850561	0.652303	-0.000077
 711	7.0645e+01	5.8578	64.836400	0.000507	5.066528	0.858293	-0.000101
 712	7.0745e+01	5.8379	64.755657	0.000405	4.053222	0.686634	-0.000081
 713	7.0844e+01	5.8195	64.642617	0.000567	5.674511	0.961288	-0.000114
 714	7.0944e+01	5.7973	64.553800	0.000446	4.458545	0.755298	-0.000089
 715	7.1043e+01	5.7783	64.469021	0.000426	4.255884	0.720966	-0.000085
 716	7.1142e+01	5.7581	64.380204	0.000446	4.458545	0.755298	-0.000089
 717	7.1242e+01	5.7384	64.263127	0.000588	5.877173	0.995620	-0.000118
 718	7.1341e+01	5.7189	64.158161	0.000527	5.269189	0.892625	-0.000105
 719	7.1441e+01	5.6985	64.073381	0.000426	4.255884	0.720966	-0.000085
 720	7.1540e+01	5.6799	64.008787	0.000324	3.242578	0.549308	-0.000065
 721	7.1640e+01	5.6586	63.875562	0.000669	6.687817	1.132947	-0.000134
 722	7.1740e+01	5.6384	63.790782	0.000426	4.255884	0.720966	-0.000085
 723	7.1839e+01	5.6188	63.681779	0.000547	5.471850	0.926957	-0.000110
 724	7.1939e+01	5.5991	63.584888	0.000486	4.863867	0.823961	-0.000097
 725	7.2038e+01	5.5799	63.479922	0.000527	5.269189	0.892625	-0.000105
 726	7.2138e+01	5.5593	63.378994	0.000507	5.066528	0.858293	-0.000101
 727	7.2237e+01	5.5398	63.306326	0.000365	3.647900	0.617971	-0.000073
 728	7.2337e+01	5.5193	63.209434	0.000486	4.863867	0.823961	-0.000097
 729	7.2436e+01	5.5001	63.088320	0.000608	6.079834	1.029952	-0.000122
 730	7.2535e+01	5.4801	62.987392	0.000507	5.066528	0.858293	-0.000101
 731	7.2635e+01	5.4595	62.918760	0.000345	3.445239	0.583639	-0.000069
 732	7.2734e+01	5.4397	62.801684	0.000588	5.877173	0.995620	-0.000118
 733	7.2834e+01	5.4195	62.700755	0.000507	5.066528	0.858293	-0.000101
 734	7.2933e+01	5.3994	62.632124	0.000345	3.445239	0.583639	-0.000069
 735	7.3033e+01	5.3799	62.494861	0.000689	6.890478	1.167279	-0.000138
 736	7.3132e+01	5.3606	62.442378	0.000263	2.634595	0.446312	-0.000053
 737	7.3232e+01	5.3405	62.280893	0.000811	8.106445	1.373269	-0.000162
 738	7.3332e+01	5.3216	62.220336	0.000304	3.039917	0.514976	-0.000061
 739	7.3431e+01	5.3002	62.115370	0.000527	5.269189	0.892625	-0.000105
 740	7.3531e+01	5.2798	62.022516	0.000466	4.661206	0.789630	-0.000093
 741	7.3630e+01	5.2599	61.917551	0.000527	5.269189	0.892625	-0.000105
 742	7.3730e+01	5.2402	61.832771	0.000426	4.255884	0.720966	-0.000085
 743	7.3829e+01	5.2199	61.691471	0.000709	7.093139	1.201610	-0.000142
 744	7.3928e+01	5.2006	61.590543	0.000507	5.066528	0.858293	-0.000101
 745	7.4028e+01	5.1803	61.505763	0.000426	4.255884	0.720966	-0.000085
 746	7.4127e+01	5.1608	61.364463	0.000709	7.093139	1.201610	-0.000142
 747	7.4227e+01	5.1409	61.303906	0.000304	3.039917	0.514976	-0.000061
 748	7.4326e+01	5.1202	61.202978	0.000507	5.066528	0.858293	-0.000101
 749	7.4426e+01	5.1009	61.114161	0.000446	4.458545	0.755298	-0.000089
 750	7.4525e+01	5.0814	60.993047	0.000608	6.079834	1.029952	-0.000122
 751	7.4625e+01	5.0610	60.920378	0.000365	3.647900	0.617971	-0.000073
 752	7.4725e+01	5.0405	60.771004	0.000750	7.498462	1.270274	-0.000150
 753	7.4824e+01	5.0220	60.674113	0.000486	4.863867	0.823961	-0.000097
 754	7.4924e+01	5.0021	60.605482	0.000345	3.445239	0.583639	-0.000069
 755	7.5023e+01	4.9816	60.488405	0.000588	5.877173	0.995620	-0.000118
 756	7.5123e+01	4.9587	60.391514	0.000486	4.863867	0.823961	-0.000097
 757	7.5222e+01	4.9422	60.306734	0.000426	4.255884	0.720966	-0.000085
 758	7.5322e+01	4.9216	60.221954	0.000426	4.255884	0.720966	-0.000085
 759	7.5421e+01	4.9014	60.084691	0.000689	6.890478	1.167279	-0.000138
 760	7.5520e+01	4.8816	59.963577	0.000608	6.079834	1.029952	-0.000122
 761	7.5620e+01	4.8620	59.866686	0.000486	4.863867	0.823961	-0.000097
 762	7.5719e+01	4.8412	59.773832	0.000466	4.661206	0.789630	-0.000093
 763	7.5819e+01	4.8208	59.689052	0.000426	4.255884	0.720966	-0.000085
 764	7.5918e+01	4.8016	59.563901	0.000628	6.282495	1.064283	-0.000126
 765	7.6018e+01	4.7823	59.446824	0.000588	5.877173	0.995620	-0.000118
 766	7.6118e+01	4.7625	59.390304	0.000284	2.837256	0.480644	-0.000057
 767	7.6217e+01	4.7430	59.257078	0.000669	6.687817	1.132947	-0.000134
 768	7.6317e+01	4.7222	59.131927	0.000628	6.282495	1.064283	-0.000126
 769	7.6416e+01	4.7027	59.035036	0.000486	4.863867	0.823961	-0.000097
 770	7.6516e+01	4.6828	58.954293	0.000405	4.053222	0.686634	-0.000081
 771	7.6615e+01	4.6633	58.865476	0.000446	4.458545	0.755298	-0.000089
 772	7.6715e+01	4.6424	58.796845	0.000345	3.445239	0.583639	-0.000069
 773	7.6814e+01	4.6243	58.619211	0.000892	8.917089	1.510596	-0.000179
 774	7.6913e+01	4.6032	58.522320	0.000486	4.863867	0.823961	-0.000097
 775	7.7013e+01	4.5837	58.429466	0.000466	4.661206	0.789630	-0.000093
 776	7.7112e+01	4.5641	58.312389	0.000588	5.877173	0.995620	-0.000118
 777	7.7212e+01	4.5432	58.175126	0.000689	6.890478	1.167279	-0.000138
 778	7.7311e+01	4.5229	58.078235	0.000486	4.863867	0.823961	-0.000097
 779	7.7411e+01	4.5029	57.989418	0.000446	4.458545	0.755298	-0.000089
 780	7.7510e+01	4.4828	57.884452	0.000527	5.269189	0.892625	-0.000105
 781	7.7610e+01	4.4639	57.743152	0.000709	7.093139	1.201610	-0.000142
 782	7.7710e+01	4.4436	57.609927	0.000669	6.687817	1.132947	-0.000134
 783	7.7809e+01	4.4239	57.557444	0.000263	2.634595	0.446312	-0.000053
 784	7.7909e+01	4.4030	57.440367	0.000588	5.877173	0.995620	-0.000118
 785	7.8008e+01	4.3856	57.286956	0.000770	7.701123	1.304605	-0.000154
 786	7.8108e+01	4.3639	57.206213	0.000405	4.053222	0.686634	-0.000081
 787	7.8207e+01	4.3443	57.089136	0.000588	5.877173	0.995620	-0.000118
 788	7.8306e+01	4.3233	56.996282	0.000466	4.661206	0.789630	-0.000093
 789	7.8406e+01	4.3052	56.883243	0.000567	5.674511	0.961288	-0.000114
 790	7.8505e+01	4.2841	56.770203	0.000567	5.674511	0.961288	-0.000114
 791	7.8605e+01	4.2650	56.632940	0.000689	6.890478	1.167279	-0.000138
 792	7.8704e+01	4.2446	56.556235	0.000385	3.850561	0.652303	-0.000077
 793	7.8804e+01	4.2246	56.443195	0.000567	5.674511	0.961288	-0.000114
 794	7.8903e+01	4.2044	56.305932	0.000689	6.890478	1.167279	-0.000138
 795	7.9003e+01	4.1848	56.180781	0.000628	6.282495	1.064283	-0.000126
 796	7.9103e+01	4.1647	56.091964	0.000446	4.458545	0.755298	-0.000089
 797	7.9202e+01	4.1459	55.974887	0.000588	5.877173	0.995620	-0.000118
 798	7.9302e+01	4.1248	55.865884	0.000547	5.471850	0.926957	-0.000110
 799	7.9401e+01	4.1055	55.732659	0.000669	6.687817	1.132947	-0.000134
 800	7.9501e+01	4.0852	55.651916	0.000405	4.053222	0.686634	-0.000081
 801	7.9600e+01	4.0647	55.538876	0.000567	5.674511	0.961288	-0.000114
 802	7.9700e+01	4.0447	55.425837	0.000567	5.674511	0.961288	-0.000114
 803	7.9799e+01	4.0238	55.304722	0.000608	6.079834	1.029952	-0.000122
 804	7.9898e+01	4.0054	55.215905	0.000446	4.458545	0.755298	-0.000089
 805	7.9998e+01	3.9849	55.090754	0.000628	6.282495	1.064283	-0.000126
 806	8.0097e+01	3.9658	54.965603	0.000628	6.282495	1.064283	-0.000126
 807	8.0197e+01	3.9446	54.864675	0.000507	5.066528	0.858293	-0.000101
 808	8.0296e+01	3.9261	54.739523	0.000628	6.282495	1.064283	-0.000126
 809	8.0396e+01	3.9056	54.606298	0.000669	6.687817	1.132947	-0.000134
 810	8.0496e+01	3.8857	54.481147	0.000628	6.282495	1.064283	-0.000126
 811	8.0595e+01	3.8659	54.408478	0.000365	3.647900	0.617971	-0.000073
 812	8.0695e+01	3.8456	54.303513	0.000527	5.269189	0.892625	-0.000105
 813	8.0794e+01	3.8258	54.170287	0.000669	6.687817	1.132947	-0.000134
 814	8.0894e+01	3.8052	54.073396	0.000486	4.863867	0.823961	-0.000097
 815	8.0993e+01	3.7862	53.932096	0.000709	7.093139	1.201610	-0.000142
 816	8.1093e+01	3.7664	53.827131	0.000527	5.269189	0.892625	-0.000105
 817	8.1192e+01	3.7466	53.710054	0.000588	5.877173	0.995620	-0.000118
 818	8.1291e+01	3.7270	53.580866	0.000649	6.485156	1.098615	-0.000130
 819	8.1391e+01	3.7063	53.496086	0.000426	4.255884	0.720966	-0.000085
 820	8.1490e+01	3.6860	53.366897	0.000649	6.485156	1.098615	-0.000130
 821	8.1590e+01	3.6674	53.290192	0.000385	3.850561	0.652303	-0.000077
 822	8.1689e+01	3.6468	53.124669	0.000831	8.309106	1.407601	-0.000166
 823	8.1789e+01	3.6268	53.023741	0.000507	5.066528	0.858293	-0.000101
 824	8.1888e+01	3.6066	52.914738	0.000547	5.471850	0.926957	-0.000110
 825	8.1988e+01	3.5865	52.793624	0.000608	6.079834	1.029952	-0.000122
 826	8.2088e+01	3.5665	52.668473	0.000628	6.282495	1.064283	-0.000126
 827	8.2187e+01	3.5470	52.587730	0.000405	4.053222	0.686634	-0.000081
 828	8.2287e+01	3.5278	52.466616	0.000608	6.079834	1.029952	-0.000122
 829	8.2386e+01	3.5069	52.317242	0.000750	7.498462	1.270274	-0.000150
 830	8.2486e+01	3.4875	52.248611	0.000345	3.445239	0.583639	-0.000069
 831	8.2585e+01	3.4673	52.103274	0.000730	7.295800	1.235942	-0.000146
 832	8.2684e+01	3.4475	52.022531	0.000405	4.053222	0.686634	-0.000081
 833	8.2784e+01	3.4280	51.852971	0.000851	8.511767	1.441932	-0.000170
 834	8.2883e+01	3.4075	51.756080	0.000486	4.863867	0.823961	-0.000097
 835	8.2983e+01	3.3875	51.634966	0.000608	6.079834	1.029952	-0.000122
 836	8.3082e+01	3.3675	51.538075	0.000486	4.863867	0.823961	-0.000097
 837	8.3182e+01	3.3478	51.416961	0.000608	6.079834	1.029952	-0.000122
 838	8.3281e+01	3.3278	51.291810	0.000628	6.282495	1.064283	-0.000126
 839	8.3381e+01	3.3082	51.146473	0.000730	7.295800	1.235942	-0.000146
 840	8.3481e+01	3.2880	51.025359	0.000608	6.079834	1.029952	-0.000122
 841	8.3580e+01	3.2677	50.916356	0.000547	5.471850	0.926957	-0.000110
 842	8.3680e+01	3.2481	50.779093	0.000689	6.890478	1.167279	-0.000138
 843	8.3779e+01	3.2281	50.694313	0.000426	4.255884	0.720966	-0.000085
 844	8.3879e+01	3.2082	50.548977	0.000730	7.295800	1.235942	-0.000146
 845	8.3978e+01	3.1880	50.419788	0.000649	6.485156	1.098615	-0.000130
 846	8.4078e+01	3.1680	50.335008	0.000426	4.255884	0.720966	-0.000085
 847	8.4177e+01	3.1487	50.189671	0.000730	7.295800	1.235942	-0.000146
 848	8.4276e+01	3.1286	50.076632	0.000567	5.674511	0.961288	-0.000114
 849	8.4376e+01	3.1085	49.975703	0.000507	5.066528	0.858293	-0.000101
 850	8.4475e+01	3.0887	49.830366	0.000730	7.295800	1.235942	-0.000146
 851	8.4575e+01	3.0685	49.749624	0.000405	4.053222	0.686634	-0.000081
 852	8.4674e+01	3.0490	49.624472	0.000628	6.282495	1.064283	-0.000126
 853	8.4774e+01	3.0293	49.467024	0.000790	7.903784	1.338937	-0.000158
 854	8.4874e+01	3.0099	49.353984	0.000567	5.674511	0.961288	-0.000114
 855	8.4973e+01	2.9886	49.236907	0.000588	5.877173	0.995620	-0.000118
 856	8.5073e+01	2.9691	49.123868	0.000567	5.674511	0.961288	-0.000114
 857	8.5172e+01	2.9488	49.006791	0.000588	5.877173	0.995620	-0.000118
 858	8.5272e+01	2.9290	48.841268	0.000831	8.309106	1.407601	-0.000166
 859	8.5371e+01	2.9080	48.776674	0.000324	3.242578	0.549308	-0.000065
 860	8.5471e+01	2.8890	48.651523	0.000628	6.282495	1.064283	-0.000126
 861	8.5570e+01	2.8696	48.542520	0.000547	5.471850	0.926957	-0.000110
 862	8.5669e+01	2.8501	48.401220	0.000709	7.093139	1.201610	-0.000142
 863	8.5769e+01	2.8291	48.276069	0.000628	6.282495	1.064283	-0.000126
 864	8.5868e+01	2.8106	48.207438	0.000345	3.445239	0.583639	-0.000069
 865	8.5968e+01	2.7901	48.070175	0.000689	6.890478	1.167279	-0.000138
 866	8.6067e+01	2.7707	47.928875	0.000709	7.093139	1.201610	-0.000142
 867	8.6167e+01	2.7496	47.815836	0.000567	5.674511	0.961288	-0.000114
 868	8.6266e+01	2.7288	47.674536	0.000709	7.093139	1.201610	-0.000142
 869	8.6366e+01	2.7102	47.573608	0.000507	5.066528	0.858293	-0.000101
 870	8.6466e+01	2.6893	47.416159	0.000790	7.903784	1.338937	-0.000158
 871	8.6565e+01	2.6705	47.335417	0.000405	4.053222	0.686634	-0.000081
 872	8.6665e+01	2.6505	47.206228	0.000649	6.485156	1.098615	-0.000130
 873	8.6764e+01	2.6302	47.060891	0.000730	7.295800	1.235942	-0.000146
 874	8.6864e+01	2.6133	46.980149	0.000405	4.053222	0.686634	-0.000081
 875	8.6963e+01	2.5909	46.810589	0.000851	8.511767	1.441932	-0.000170
 876	8.7063e+01	2.5706	46.705623	0.000527	5.269189	0.892625	-0.000105
 877	8.7162e+01	2.5505	46.588546	0.000588	5.877173	0.995620	-0.000118
 878	8.7261e+01	2.5312	46.475507	0.000567	5.674511	0.961288	-0.000114
 879	8.7361e+01	2.5103	46.338244	0.000689	6.890478	1.167279	-0.000138
 880	8.7460e+01	2.4925	46.281724	0.000284	2.837256	0.480644	-0.000057
 881	8.7560e+01	2.4706	46.124276	0.000790	7.903784	1.338937	-0.000158
 882	8.7659e+01	2.4508	45.999125	0.000628	6.282495	1.064283	-0.000126
 883	8.7759e+01	2.4318	45.833602	0.000831	8.309106	1.407601	-0.000166
 884	8.7859e+01	2.4114	45.777082	0.000284	2.837256	0.480644	-0.000057
 885	8.7958e+01	2.3915	45.603485	0.000871	8.714428	1.476264	-0.000174
 886	8.8058e+01	2.3707	45.498520	0.000527	5.269189	0.892625	-0.000105
 887	8.8157e+01	2.3516	45.361257	0.000689	6.890478	1.167279	-0.000138
 888	8.8257e+01	2.3315	45.232069	0.000649	6.485156	1.098615	-0.000130
 889	8.8356e+01	2.3119	45.127103	0.000527	5.269189	0.892625	-0.000105
 890	8.8456e+01	2.2912	45.001952	0.000628	6.282495	1.064283	-0.000126
 891	8.8555e+01	2.2717	44.832392	0.000851	8.511767	1.441932	-0.000170
 892	8.8654e+01	2.2524	44.743575	0.000446	4.458545	0.755298	-0.000089
 893	8.8754e+01	2.2318	44.638610	0.000527	5.269189	0.892625	-0.000105
 894	8.8853e+01	2.2118	44.485199	0.000770	7.701123	1.304605	-0.000154
 895	8.8953e+01	2.1929	44.392345	0.000466	4.661206	0.789630	-0.000093
 896	8.9052e+01	2.1719	44.222785	0.000851	8.511767	1.441932	-0.000170
 897	8.9152e+01	2.1523	44.101671	0.000608	6.079834	1.029952	-0.000122
 898	8.9251e+01	2.1324	43.968445	0.000669	6.687817	1.132947	-0.000134
 899	8.9351e+01	2.1110	43.847331	0.000608	6.079834	1.029952	-0.000122
 900	8.9451e+01	2.0919	43.730254	0.000588	5.877173	0.995620	-0.000118
 901	8.9550e+01	2.0726	43.597029	0.000669	6.687817	1.132947	-0.000134
 902	8.9650e+01	2.0519	43.496100	0.000507	5.066528	0.858293	-0.000101
 903	8.9749e+01	2.0330	43.346726	0.000750	7.498462	1.270274	-0.000150
 904	8.9849e+01	2.0119	43.233687	0.000567	5.674511	0.961288	-0.000114
 905	8.9948e+01	1.9932	43.108535	0.000628	6.282495	1.064283	-0.000126
 906	9.0047e+01	1.9724	42.987421	0.000608	6.079834	1.029952	-0.000122
 907	9.0147e+01	1.9534	42.842084	0.000730	7.295800	1.235942	-0.000146
 908	9.0246e+01	1.9328	42.688673	0.000770	7.701123	1.304605	-0.000154
 909	9.0346e+01	1.9132	42.587745	0.000507	5.066528	0.858293	-0.000101
 910	9.0445e+01	1.8922	42.438371	0.000750	7.498462	1.270274	-0.000150
 911	9.0545e+01	1.8737	42.309183	0.000649	6.485156	1.098615	-0.000130
 912	9.0644e+01	1.8532	42.188068	0.000608	6.079834	1.029952	-0.000122
 913	9.0744e+01	1.8334	42.050806	0.000689	6.890478	1.167279	-0.000138
 914	9.0844e+01	1.8129	41.937766	0.000567	5.674511	0.961288	-0.000114
 915	9.0943e+01	1.7937	41.772243	0.000831	8.309106	1.407601	-0.000166
 916	9.1043e+01	1.7739	41.663241	0.000547	5.471850	0.926957	-0.000110
 917	9.1142e+01	1.7539	41.538090	0.000628	6.282495	1.064283	-0.000126
 918	9.1242e+01	1.7333	41.416976	0.000608	6.079834	1.029952	-0.000122
 919	9.1341e+01	1.7147	41.263564	0.000770	7.701123	1.304605	-0.000154
 920	9.1441e+01	1.6942	41.162636	0.000507	5.066528	0.858293	-0.000101
 921	9.1540e+01	1.6746	41.033448	0.000649	6.485156	1.098615	-0.000130
 922	9.1639e+01	1.6536	40.900222	0.000669	6.687817	1.132947	-0.000134
 923	9.1739e+01	1.6333	40.787182	0.000567	5.674511	0.961288	-0.000114
 924	9.1838e+01	1.6138	40.589363	0.000993	9.930395	1.682254	-0.000199
 925	9.1938e+01	1.5938	40.480360	0.000547	5.471850	0.926957	-0.000110
 926	9.2037e+01	1.5747	40.330986	0.000750	7.498462	1.270274	-0.000150
 927	9.2137e+01	1.5551	40.254280	0.000385	3.850561	0.652303	-0.000077
 928	9.2237e+01	1.5353	40.104906	0.000750	7.498462	1.270274	-0.000150
 929	9.2336e+01	1.5148	39.963607	0.000709	7.093139	1.201610	-0.000142
 930	9.2436e+01	1.4942	39.846530	0.000588	5.877173	0.995620	-0.000118
 931	9.2535e+01	1.4739	39.737527	0.000547	5.471850	0.926957	-0.000110
 932	9.2635e+01	1.4547	39.596227	0.000709	7.093139	1.201610	-0.000142
 933	9.2734e+01	1.4342	39.463002	0.000669	6.687817	1.132947	-0.000134
 934	9.2834e+01	1.4140	39.337851	0.000628	6.282495	1.064283	-0.000126
 935	9.2933e+01	1.3943	39.208662	0.000649	6.485156	1.098615	-0.000130
 936	9.3032e+01	1.3735	39.071400	0.000689	6.890478	1.167279	-0.000138
 937	9.3132e+01	1.3553	38.942211	0.000649	6.485156	1.098615	-0.000130
 938	9.3231e+01	1.3345	38.800912	0.000709	7.093139	1.201610	-0.000142
 939	9.3331e+01	1.3148	38.675760	0.000628	6.282495	1.064283	-0.000126
 940	9.3430e+01	1.2954	38.530423	0.000730	7.295800	1.235942	-0.000146
 941	9.3530e+01	1.2755	38.360864	0.000851	8.511767	1.441932	-0.000170
 942	9.3629e+01	1.2560	38.276084	0.000426	4.255884	0.720966	-0.000085
 943	9.3729e+01	1.2360	38.130747	0.000730	7.295800	1.235942	-0.000146
 944	9.3829e+01	1.2164	37.989447	0.000709	7.093139	1.201610	-0.000142
 945	9.3928e+01	1.1962	37.876407	0.000567	5.674511	0.961288	-0.000114
 946	9.4028e+01	1.1767	37.722996	0.000770	7.701123	1.304605	-0.000154
 947	9.4127e+01	1.1563	37.589771	0.000669	6.687817	1.132947	-0.000134
 948	9.4227e+01	1.1363	37.424248	0.000831	8.309106	1.407601	-0.000166
 949	9.4326e+01	1.1164	37.311208	0.000567	5.674511	0.961288	-0.000114
 950	9.4425e+01	1.0962	37.149723	0.000811	8.106445	1.373269	-0.000162
 951	9.4525e+01	1.0766	37.032646	0.000588	5.877173	0.995620	-0.000118
 952	9.4624e+01	1.0574	36.879235	0.000770	7.701123	1.304605	-0.000154
 953	9.4724e+01	1.0359	36.802529	0.000385	3.850561	0.652303	-0.000077
 954	9.4823e+01	1.0177	36.632970	0.000851	8.511767	1.441932	-0.000170
 955	9.4923e+01	0.9962	36.495707	0.000689	6.890478	1.167279	-0.000138
 956	9.5022e+01	0.9776	36.338259	0.000790	7.903784	1.338937	-0.000158
 957	9.5122e+01	0.9569	36.221182	0.000588	5.877173	0.995620	-0.000118
 958	9.5222e+01	0.9361	36.087956	0.000669	6.687817	1.132947	-0.000134
 959	9.5321e+01	0.9175	35.922434	0.000831	8.309106	1.407601	-0.000166
 960	9.5421e+01	0.8972	35.801320	0.000608	6.079834	1.029952	-0.000122
 961	9.5520e+01	0.8778	35.639834	0.000811	8.106445	1.373269	-0.000162
 962	9.5620e+01	0.8572	35.518720	0.000608	6.079834	1.029952	-0.000122
 963	9.5719e+01	0.8373	35.361272	0.000790	7.903784	1.338937	-0.000158
 964	9.5819e+01	0.8179	35.232084	0.000649	6.485156	1.098615	-0.000130
 965	9.5918e+01	0.7967	35.086747	0.000730	7.295800	1.235942	-0.000146
 966	9.6017e+01	0.7786	34.921224	0.000831	8.309106	1.407601	-0.000166
 967	9.6117e+01	0.7573	34.816259	0.000527	5.269189	0.892625	-0.000105
 968	9.6216e+01	0.7376	34.670922	0.000730	7.295800	1.235942	-0.000146
 969	9.6316e+01	0.7188	34.545771	0.000628	6.282495	1.064283	-0.000126
 970	9.6415e+01	0.6986	34.392359	0.000770	7.701123	1.304605	-0.000154
 971	9.6515e+01	0.6779	34.283357	0.000547	5.471850	0.926957	-0.000110
 972	9.6615e+01	0.6564	34.133983	0.000750	7.498462	1.270274	-0.000150
 973	9.6714e+01	0.6386	33.968460	0.000831	8.309106	1.407601	-0.000166
 974	9.6814e+01	0.6185	33.839272	0.000649	6.485156	1.098615	-0.000130
 975	9.6913e+01	0.5986	33.726232	0.000567	5.674511	0.961288	-0.000114
 976	9.7013e+01	0.5775	33.584932	0.000709	7.093139	1.201610	-0.000142
 977	9.7112e+01	0.5592	33.407298	0.000892	8.917089	1.510596	-0.000179
 978	9.7212e+01	0.5392	33.270036	0.000689	6.890478	1.167279	-0.000138
 979	9.7311e+01	0.5180	33.161033	0.000547	5.471850	0.926957	-0.000110
 980	9.7410e+01	0.4982	33.035882	0.000628	6.282495	1.064283	-0.000126
 981	9.7510e+01	0.4788	32.870359	0.000831	8.309106	1.407601	-0.000166
 982	9.7609e+01	0.4576	32.761357	0.000547	5.471850	0.926957	-0.000110
 983	9.7709e+01	0.4392	32.571611	0.000953	9.525073	1.613591	-0.000191
 984	9.7808e+01	0.4179	32.486831	0.000426	4.255884	0.720966	-0.000085
 985	9.7908e+01	0.3991	32.313234	0.000871	8.714428	1.476264	-0.000174
 986	9.8007e+01	0.3786	32.155786	0.000790	7.903784	1.338937	-0.000158
 987	9.8107e+01	0.3594	32.026598	0.000649	6.485156	1.098615	-0.000130
 988	9.8207e+01	0.3390	31.897409	0.000649	6.485156	1.098615	-0.000130
 989	9.8306e+01	0.3182	31.719775	0.000892	8.917089	1.510596	-0.000179
 990	9.8406e+01	0.2995	31.610773	0.000547	5.471850	0.926957	-0.000110
 991	9.8505e+01	0.2792	31.449287	0.000811	8.106445	1.373269	-0.000162
 992	9.8605e+01	0.2592	31.356433	0.000466	4.661206	0.789630	-0.000093
 993	9.8704e+01	0.2398	31.174762	0.000912	9.119750	1.544928	-0.000183
 994	9.8803e+01	0.2182	31.037500	0.000689	6.890478	1.167279	-0.000138
 995	9.8903e+01	0.1994	30.880051	0.000790	7.903784	1.338937	-0.000158
 996	9.9002e+01	0.1804	30.754900	0.000628	6.282495	1.064283	-0.000126
 997	9.9102e+01	0.1599	30.605526	0.000750	7.498462	1.270274	-0.000150
 998	9.9201e+01	0.1395	30.504598	0.000507	5.066528	0.858293	-0.000101
 999	9.9301e+01	0.1200	30.359261	0.000730	7.295800	1.235942	-0.000146
1000	9.9400e+01	0.0993	30.185664	0.000871	8.714428	1.476264	-0.000174
1001	9.9500e+01	0.0795	30.052438	0.000669	6.687817	1.132947	-0.000134
1002	9.9600e+01	0.0603	29.919213	0.000669	6.687817	1.132947	-0.000134
1003	9.9699e+01	0.0405	29.769839	0.000750	7.498462	1.270274	-0.000150
1004	9.9799e+01	0.0201	29.660836	0.000547	5.471850	0.926957	-0.000110
1005	9.9898e+01	0.0003	29.463017	0.000993	9.930395	1.682254	-0.000199
1006	9.9998e+01	-0.0185	29.358051	0.000527	5.269189	0.892625	-0.000105
1007	1.0010e+02	-0.0369	29.228863	0.000649	6.485156	1.098615	-0.000130
1008	1.0020e+02	-0.0589	29.079489	0.000750	7.498462	1.270274	-0.000150
1009	1.0030e+02	-0.0775	28.905892	0.000871	8.714428	1.476264	-0.000174
1010	1.0040e+02	-0.0983	28.772666	0.000669	6.687817	1.132947	-0.000134
1011	1.0050e+02	-0.1172	28.635404	0.000689	6.890478	1.167279	-0.000138
1012	1.0059e+02	-0.1369	28.498141	0.000689	6.890478	1.167279	-0.000138
1013	1.0069e+02	-0.1582	28.320507	0.000892	8.917089	1.510596	-0.000179
1014	1.0079e+02	-0.1777	28.150948	0.000851	8.511767	1.441932	-0.000170
1015	1.0089e+02	-0.1974	28.066168	0.000426	4.255884	0.720966	-0.000085
1016	1.0099e+02	-0.2182	27.916794	0.000750	7.498462	1.270274	-0.000150
1017	1.0109e+02	-0.2370	27.718974	0.000993	9.930395	1.682254	-0.000199
1018	1.0119e+02	-0.2570	27.634194	0.000426	4.255884	0.720966	-0.000085
1019	1.0129e+02	-0.2769	27.488857	0.000730	7.295800	1.235942	-0.000146
1020	1.0139e+02	-0.2963	27.371780	0.000588	5.877173	0.995620	-0.000118
1021	1.0149e+02	-0.3157	27.214332	0.000790	7.903784	1.338937	-0.000158
1022	1.0159e+02	-0.3376	27.064958	0.000750	7.498462	1.270274	-0.000150
1023	1.0169e+02	-0.3561	26.915584	0.000750	7.498462	1.270274	-0.000150
1024	1.0179e+02	-0.3768	26.782358	0.000669	6.687817	1.132947	-0.000134
1025	1.0189e+02	-0.3969	26.584539	0.000993	9.930395	1.682254	-0.000199
1026	1.0199e+02	-0.4169	26.475536	0.000547	5.471850	0.926957	-0.000110
1027	1.0209e+02	-0.4365	26.334236	0.000709	7.093139	1.201610	-0.000142
1028	1.0219e+02	-0.4572	26.144491	0.000953	9.525073	1.613591	-0.000191
1029	1.0229e+02	-0.4767	26.043563	0.000507	5.066528	0.858293	-0.000101
1030	1.0239e+02	-0.4970	25.902263	0.000709	7.093139	1.201610	-0.000142
1031	1.0248e+02	-0.5162	25.732703	0.000851	8.511767	1.441932	-0.000170
1032	1.0258e+02	-0.5367	25.672146	0.000304	3.039917	0.514976	-0.000061
1033	1.0268e+02	-0.5566	25.490475	0.000912	9.119750	1.544928	-0.000183
1034	1.0278e+02	-0.5766	25.357250	0.000669	6.687817	1.132947	-0.000134
1035	1.0288e+02	-0.5953	25.203838	0.000770	7.701123	1.304605	-0.000154
1036	1.0298e+02	-0.6164	25.090799	0.000567	5.674511	0.961288	-0.000114
1037	1.0308e+02	-0.6354	24.933350	0.000790	7.903784	1.338937	-0.000158
1038	1.0318e+02	-0.6541	24.804162	0.000649	6.485156	1.098615	-0.000130
1039	1.0328e+02	-0.6757	24.638639	0.000831	8.309106	1.407601	-0.000166
1040	1.0338e+02	-0.6953	24.529637	0.000547	5.471850	0.926957	-0.000110
1041	1.0348e+02	-0.7159	24.364114	0.000831	8.309106	1.407601	-0.000166
1042	1.0358e+02	-0.7359	24.210703	0.000770	7.701123	1.304605	-0.000154
1043	1.0368e+02	-0.7553	24.065366	0.000730	7.295800	1.235942	-0.000146
1044	1.0378e+02	-0.7758	23.932141	0.000669	6.687817	1.132947	-0.000134
1045	1.0388e+02	-0.7949	23.790841	0.000709	7.093139	1.201610	-0.000142
1046	1.0398e+02	-0.8152	23.625318	0.000831	8.309106	1.407601	-0.000166
1047	1.0408e+02	-0.8353	23.540538	0.000426	4.255884	0.720966	-0.000085
1048	1.0418e+02	-0.8556	23.375016	0.000831	8.309106	1.407601	-0.000166
1049	1.0428e+02	-0.8754	23.189308	0.000932	9.322412	1.579259	-0.000187
1050	1.0438e+02	-0.8949	23.064156	0.000628	6.282495	1.064283	-0.000126
1051	1.0447e+02	-0.9161	22.934968	0.000649	6.485156	1.098615	-0.000130
1052	1.0457e+02	-0.9351	22.789631	0.000730	7.295800	1.235942	-0.000146
1053	1.0467e+02	-0.9540	22.636220	0.000770	7.701123	1.304605	-0.000154
1054	1.0477e+02	-0.9750	22.474735	0.000811	8.106445	1.373269	-0.000162
1055	1.0487e+02	-0.9939	22.369769	0.000527	5.269189	0.892625	-0.000105
1056	1.0497e+02	-1.0144	22.188098	0.000912	9.119750	1.544928	-0.000183
1057	1.0507e+02	-1.0350	22.087170	0.000507	5.066528	0.858293	-0.000101
1058	1.0517e+02	-1.0546	21.905499	0.000912	9.119750	1.544928	-0.000183
1059	1.0527e+02	-1.0742	21.764199	0.000709	7.093139	1.201610	-0.000142
1060	1.0537e+02	-1.0947	21.651159	0.000567	5.674511	0.961288	-0.000114
1061	1.0547e+02	-1.1140	21.497748	0.000770	7.701123	1.304605	-0.000154
1062	1.0557e+02	-1.1343	21.312040	0.000932	9.322412	1.579259	-0.000187
1063	1.0567e+02	-1.1535	21.207074	0.000527	5.269189	0.892625	-0.000105
1064	1.0577e+02	-1.1733	21.037514	0.000851	8.511767	1.441932	-0.000170
1065	1.0587e+02	-1.1938	20.896215	0.000709	7.093139	1.201610	-0.000142
1066	1.0597e+02	-1.2135	20.799323	0.000486	4.863867	0.823961	-0.000097
1067	1.0607e+02	-1.2337	20.637838	0.000811	8.106445	1.373269	-0.000162
1068	1.0617e+02	-1.2543	20.480390	0.000790	7.903784	1.338937	-0.000158
1069	1.0627e+02	-1.2733	20.355238	0.000628	6.282495	1.064283	-0.000126
1070	1.0637e+02	-1.2947	20.177604	0.000892	8.917089	1.510596	-0.000179
1071	1.0647e+02	-1.3129	20.044379	0.000669	6.687817	1.132947	-0.000134
1072	1.0656e+02	-1.3325	19.919228	0.000628	6.282495	1.064283	-0.000126
1073	1.0666e+02	-1.3525	19.773891	0.000730	7.295800	1.235942	-0.000146
1074	1.0676e+02	-1.3744	19.628554	0.000730	7.295800	1.235942	-0.000146
1075	1.0686e+02	-1.3936	19.507440	0.000608	6.079834	1.029952	-0.000122
1076	1.0696e+02	-1.4132	19.321732	0.000932	9.322412	1.579259	-0.000187
1077	1.0706e+02	-1.4323	19.192543	0.000649	6.485156	1.098615	-0.000130
1078	1.0716e+02	-1.4536	19.043169	0.000750	7.498462	1.270274	-0.000150
1079	1.0726e+02	-1.4719	18.885721	0.000790	7.903784	1.338937	-0.000158
1080	1.0736e+02	-1.4926	18.744421	0.000709	7.093139	1.201610	-0.000142
1081	1.0746e+02	-1.5128	18.574862	0.000851	8.511767	1.441932	-0.000170
1082	1.0756e+02	-1.5324	18.461822	0.000567	5.674511	0.961288	-0.000114
1083	1.0766e+02	-1.5521	18.352819	0.000547	5.471850	0.926957	-0.000110
1084	1.0776e+02	-1.5727	18.150962	0.001013	10.133056	1.716586	-0.000203
1085	1.0786e+02	-1.5917	18.041960	0.000547	5.471850	0.926957	-0.000110
1086	1.0796e+02	-1.6122	17.924883	0.000588	5.877173	0.995620	-0.000118
1087	1.0806e+02	-1.6331	17.743212	0.000912	9.119750	1.544928	-0.000183
1088	1.0816e+02	-1.6523	17.573652	0.000851	8.511767	1.441932	-0.000170
1089	1.0826e+02	-1.6710	17.460612	0.000567	5.674511	0.961288	-0.000114
1090	1.0836e+02	-1.6920	17.299127	0.000811	8.106445	1.373269	-0.000162
1091	1.0845e+02	-1.7107	17.165901	0.000669	6.687817	1.132947	-0.000134
1092	1.0855e+02	-1.7319	17.036713	0.000649	6.485156	1.098615	-0.000130
1093	1.0865e+02	-1.7513	16.931747	0.000527	5.269189	0.892625	-0.000105
1094	1.0875e+02	-1.7716	16.774299	0.000790	7.903784	1.338937	-0.000158
1095	1.0885e+02	-1.7919	16.588591	0.000932	9.322412	1.579259	-0.000187
1096	1.0895e+02	-1.8118	16.439217	0.000750	7.498462	1.270274	-0.000150
1097	1.0905e+02	-1.8324	16.273694	0.000831	8.309106	1.407601	-0.000166
1098	1.0915e+02	-1.8500	16.136432	0.000689	6.890478	1.167279	-0.000138
1099	1.0925e+02	-1.8712	16.007243	0.000649	6.485156	1.098615	-0.000130
1100	1.0935e+02	-1.8912	15.886129	0.000608	6.079834	1.029952	-0.000122
1101	1.0945e+02	-1.9115	15.700421	0.000932	9.322412	1.579259	-0.000187
1102	1.0955e+02	-1.9315	15.611604	0.000446	4.458545	0.755298	-0.000089
1103	1.0965e+02	-1.9501	15.413784	0.000993	9.930395	1.682254	-0.000199
1104	1.0975e+02	-1.9714	15.312856	0.000507	5.066528	0.858293	-0.000101
1105	1.0985e+02	-1.9901	15.167519	0.000730	7.295800	1.235942	-0.000146
1106	1.0995e+02	-2.0110	15.050442	0.000588	5.877173	0.995620	-0.000118
1107	1.1005e+02	-2.0303	14.872808	0.000892	8.917089	1.510596	-0.000179
1108	1.1015e+02	-2.0505	14.666914	0.001034	10.335717	1.750918	-0.000207
1109	1.1025e+02	-2.0705	14.594246	0.000365	3.647900	0.617971	-0.000073
1110	1.1035e+02	-2.0906	14.424686	0.000851	8.511767	1.441932	-0.000170
1111	1.1044e+02	-2.1114	14.283386	0.000709	7.093139	1.201610	-0.000142
1112	1.1054e+02	-2.1310	14.129975	0.000770	7.701123	1.304605	-0.000154
1113	1.1064e+02	-2.1506	13.960415	0.000851	8.511767	1.441932	-0.000170
1114	1.1074e+02	-2.1696	13.823153	0.000689	6.890478	1.167279	-0.000138
1115	1.1084e+02	-2.1906	13.698002	0.000628	6.282495	1.064283	-0.000126
1116	1.1094e+02	-2.2105	13.544590	0.000770	7.701123	1.304605	-0.000154
1117	1.1104e+02	-2.2287	13.407328	0.000689	6.890478	1.167279	-0.000138
1118	1.1114e+02	-2.2500	13.237768	0.000851	8.511767	1.441932	-0.000170
1119	1.1124e+02	-2.2702	13.120691	0.000588	5.877173	0.995620	-0.000118
1120	1.1134e+02	-2.2905	12.939020	0.000912	9.119750	1.544928	-0.000183
1121	1.1144e+02	-2.3097	12.785609	0.000770	7.701123	1.304605	-0.000154
1122	1.1154e+02	-2.3303	12.676606	0.000547	5.471850	0.926957	-0.000110
1123	1.1164e+02	-2.3501	12.551455	0.000628	6.282495	1.064283	-0.000126
1124	1.1174e+02	-2.3694	12.369784	0.000912	9.119750	1.544928	-0.000183
1125	1.1184e+02	-2.3892	12.208298	0.000811	8.106445	1.373269	-0.000162
1126	1.1194e+02	-2.4095	12.087184	0.000608	6.079834	1.029952	-0.000122
1127	1.1204e+02	-2.4298	11.949922	0.000689	6.890478	1.167279	-0.000138
1128	1.1214e+02	-2.4487	11.772288	0.000892	8.917089	1.510596	-0.000179
1129	1.1224e+02	-2.4689	11.651174	0.000608	6.079834	1.029952	-0.000122
1130	1.1234e+02	-2.4895	11.481614	0.000851	8.511767	1.441932	-0.000170
1131	1.1244e+02	-2.5079	11.340314	0.000709	7.093139	1.201610	-0.000142
1132	1.1253e+02	-2.5285	11.243423	0.000486	4.863867	0.823961	-0.000097
1133	1.1263e+02	-2.5484	11.033492	0.001054	10.538378	1.785250	-0.000211
1134	1.1273e+02	-2.5687	10.932564	0.000507	5.066528	0.858293	-0.000101
1135	1.1283e+02	-2.5880	10.767041	0.000831	8.309106	1.407601	-0.000166
1136	1.1293e+02	-2.6085	10.593444	0.000871	8.714428	1.476264	-0.000174
1137	1.1303e+02	-2.6280	10.472330	0.000608	6.079834	1.029952	-0.000122
1138	1.1313e+02	-2.6480	10.322956	0.000750	7.498462	1.270274	-0.000150
1139	1.1323e+02	-2.6674	10.181656	0.000709	7.093139	1.201610	-0.000142
1140	1.1333e+02	-2.6879	10.048431	0.000669	6.687817	1.132947	-0.000134
1141	1.1343e+02	-2.7083	9.874834	0.000871	8.714428	1.476264	-0.000174
1142	1.1353e+02	-2.7283	9.749683	0.000628	6.282495	1.064283	-0.000126
1143	1.1363e+02	-2.7475	9.624532	0.000628	6.282495	1.064283	-0.000126
1144	1.1373e+02	-2.7676	9.487269	0.000689	6.890478	1.167279	-0.000138
1145	1.1383e+02	-2.7873	9.337895	0.000750	7.498462	1.270274	-0.000150
1146	1.1393e+02	-2.8072	9.140075	0.000993	9.930395	1.682254	-0.000199
1147	1.1403e+02	-2.8268	9.010887	0.000649	6.485156	1.098615	-0.000130
1148	1.1413e+02	-2.8473	8.881699	0.000649	6.485156	1.098615	-0.000130
1149	1.1423e+02	-2.8673	8.744436	0.000689	6.890478	1.167279	-0.000138
1150	1.1433e+02	-2.8870	8.578913	0.000831	8.309106	1.407601	-0.000166
1151	1.1442e+02	-2.9065	8.413391	0.000831	8.309106	1.407601	-0.000166
1152	1.1452e+02	-2.9276	8.284203	0.000649	6.485156	1.098615	-0.000130
1153	1.1462e+02	-2.9468	8.159051	0.000628	6.282495	1.064283	-0.000126
1154	1.1472e+02	-2.9666	7.997566	0.000811	8.106445	1.373269	-0.000162
1155	1.1482e+02	-2.9865	7.840118	0.000790	7.903784	1.338937	-0.000158
1156	1.1492e+02	-3.0068	7.706892	0.000669	6.687817	1.132947	-0.000134
1157	1.1502e+02	-3.0262	7.585778	0.000608	6.079834	1.029952	-0.000122
1158	1.1512e+02	-3.0472	7.444478	0.000709	7.093139	1.201610	-0.000142
1159	1.1522e+02	-3.0663	7.291067	0.000770	7.701123	1.304605	-0.000154
1160	1.1532e+02	-3.0865	7.117470	0.000871	8.714428	1.476264	-0.000174
1161	1.1542e+02	-3.1066	7.012505	0.000527	5.269189	0.892625	-0.000105
1162	1.1552e+02	-3.1270	6.851019	0.000811	8.106445	1.373269	-0.000162
1163	1.1562e+02	-3.1467	6.677423	0.000871	8.714428	1.476264	-0.000174
1164	1.1572e+02	-3.1660	6.572457	0.000527	5.269189	0.892625	-0.000105
1165	1.1582e+02	-3.1863	6.398860	0.000871	8.714428	1.476264	-0.000174
1166	1.1592e+02	-3.2057	6.285820	0.000567	5.674511	0.961288	-0.000114
1167	1.1602e+02	-3.2257	6.112224	0.000871	8.714428	1.476264	-0.000174
1168	1.1612e+02	-3.2457	6.011295	0.000507	5.066528	0.858293	-0.000101
1169	1.1622e+02	-3.2648	5.853847	0.000790	7.903784	1.338937	-0.000158
1170	1.1632e+02	-3.2868	5.660064	0.000973	9.727734	1.647923	-0.000195
1171	1.1642e+02	-3.3057	5.534913	0.000628	6.282495	1.064283	-0.000126
1172	1.1651e+02	-3.3258	5.389576	0.000730	7.295800	1.235942	-0.000146
1173	1.1661e+02	-3.3459	5.244239	0.000730	7.295800	1.235942	-0.000146
1174	1.1671e+02	-3.3658	5.086791	0.000790	7.903784	1.338937	-0.000158
1175	1.1681e+02	-3.3859	4.933380	0.000770	7.701123	1.304605	-0.000154
1176	1.1691e+02	-3.4058	4.820340	0.000567	5.674511	0.961288	-0.000114
1177	1.1701e+02	-3.4253	4.642706	0.000892	8.917089	1.510596	-0.000179
1178	1.1711e+02	-3.4450	4.513518	0.000649	6.485156	1.098615	-0.000130
1179	1.1721e+02	-3.4647	4.299550	0.001074	10.741039	1.819581	-0.000215
1180	1.1731e+02	-3.4857	4.186510	0.000567	5.674511	0.961288	-0.000114
1181	1.1741e+02	-3.5040	4.029061	0.000790	7.903784	1.338937	-0.000158
1182	1.1751e+02	-3.5251	3.940244	0.000446	4.458545	0.755298	-0.000089
1183	1.1761e+02	-3.5443	3.782796	0.000790	7.903784	1.338937	-0.000158
1184	1.1771e+02	-3.5641	3.613236	0.000851	8.511767	1.441932	-0.000170
1185	1.1781e+02	-3.5849	3.508271	0.000527	5.269189	0.892625	-0.000105
1186	1.1791e+02	-3.6049	3.342748	0.000831	8.309106	1.407601	-0.000166
1187	1.1801e+02	-3.6244	3.185300	0.000790	7.903784	1.338937	-0.000158
1188	1.1811e+02	-3.6450	3.052075	0.000669	6.687817	1.132947	-0.000134
1189	1.1821e+02	-3.6646	2.898663	0.000770	7.701123	1.304605	-0.000154
1190	1.1831e+02	-3.6852	2.753327	0.000730	7.295800	1.235942	-0.000146
1191	1.1841e+02	-3.7042	2.607990	0.000730	7.295800	1.235942	-0.000146
1192	1.1850e+02	-3.7241	2.434393	0.000871	8.714428	1.476264	-0.000174
1193	1.1860e+02	-3.7442	2.321353	0.000567	5.674511	0.961288	-0.000114
1194	1.1870e+02	-3.7639	2.139682	0.000912	9.119750	1.544928	-0.000183
1195	1.1880e+02	-3.7836	2.034716	0.000527	5.269189	0.892625	-0.000105
1196	1.1890e+02	-3.8036	1.893417	0.000709	7.093139	1.201610	-0.000142
1197	1.1900e+02	-3.8232	1.752117	0.000709	7.093139	1.201610	-0.000142
1198	1.1910e+02	-3.8436	1.578520	0.000871	8.714428	1.476264	-0.000174
1199	1.1920e+02	-3.8635	1.453369	0.000628	6.282495	1.064283	-0.000126
1200	1.1930e+02	-3.8837	1.291883	0.000811	8.106445	1.373269	-0.000162
1201	1.1940e+02	-3.9044	1.182881	0.000547	5.471850	0.926957	-0.000110
1202	1.1950e+02	-3.9233	0.976987	0.001034	10.335717	1.750918	-0.000207
1203	1.1960e+02	-3.9421	0.851836	0.000628	6.282495	1.064283	-0.000126
1204	1.1970e+02	-3.9633	0.763019	0.000446	4.458545	0.755298	-0.000089
1205	1.1980e+02	-3.9836	0.565199	0.000993	9.930395	1.682254	-0.000199
1206	1.1990e+02	-4.0030	0.444085	0.000608	6.079834	1.029952	-0.000122
1207	1.2000e+02	-4.0231	0.294711	0.000750	7.498462	1.270274	-0.000150
1208	1.2010e+02	-4.0402	0.141300	0.000770	7.701123	1.304605	-0.000154
1209	1.2020e+02	-4.0625	-0.020186	0.000811	8.106445	1.373269	-0.000162
1210	1.2030e+02	-4.0823	-0.121114	0.000507	5.066528	0.858293	-0.000101
1211	1.2039e+02	-4.1027	-0.282600	0.000811	8.106445	1.373269	-0.000162
1212	1.2049e+02	-4.1229	-0.411788	0.000649	6.485156	1.098615	-0.000130
1213	1.2059e+02	-4.1425	-0.589422	0.000892	8.917089	1.510596	-0.000179
1214	1.2069e+02	-4.1622	-0.726684	0.000689	6.890478	1.167279	-0.000138
1215	1.2079e+02	-4.1821	-0.876058	0.000750	7.498462	1.270274	-0.000150
1216	1.2089e+02	-4.2017	-0.989098	0.000567	5.674511	0.961288	-0.000114
1217	1.2099e+02	-4.2220	-1.134435	0.000730	7.295800	1.235942	-0.000146
1218	1.2109e+02	-4.2429	-1.299958	0.000831	8.309106	1.407601	-0.000166
1219	1.2119e+02	-4.2627	-1.421072	0.000608	6.079834	1.029952	-0.000122
1220	1.2129e+02	-4.2834	-1.602743	0.000912	9.119750	1.544928	-0.000183
1221	1.2139e+02	-4.3017	-1.756154	0.000770	7.701123	1.304605	-0.000154
1222	1.2149e+02	-4.3223	-1.881305	0.000628	6.282495	1.064283	-0.000126
1223	1.2159e+02	-4.3420	-2.022605	0.000709	7.093139	1.201610	-0.000142
1224	1.2169e+02	-4.3622	-2.208313	0.000932	9.322412	1.579259	-0.000187
1225	1.2179e+02	-4.3805	-2.361724	0.000770	7.701123	1.304605	-0.000154
1226	1.2189e+02	-4.4014	-2.494950	0.000669	6.687817	1.132947	-0.000134
1227	1.2199e+02	-4.4214	-2.672584	0.000892	8.917089	1.510596	-0.000179
1228	1.2209e+02	-4.4413	-2.765438	0.000466	4.661206	0.789630	-0.000093
1229	1.2219e+02	-4.4619	-2.930961	0.000831	8.309106	1.407601	-0.000166
1230	1.2229e+02	-4.4814	-3.092446	0.000811	8.106445	1.373269	-0.000162
1231	1.2239e+02	-4.5013	-3.205486	0.000567	5.674511	0.961288	-0.000114
1232	1.2248e+02	-4.5219	-3.395231	0.000953	9.525073	1.613591	-0.000191
1233	1.2258e+02	-4.5404	-3.528457	0.000669	6.687817	1.132947	-0.000134
1234	1.2268e+02	-4.5615	-3.685905	0.000790	7.903784	1.338937	-0.000158
1235	1.2278e+02	-4.5818	-3.831242	0.000730	7.295800	1.235942	-0.000146
1236	1.2288e+02	-4.6007	-3.960430	0.000649	6.485156	1.098615	-0.000130
1237	1.2298e+02	-4.6205	-4.142101	0.000912	9.119750	1.544928	-0.000183
1238	1.2308e+02	-4.6407	-4.283401	0.000709	7.093139	1.201610	-0.000142
1239	1.2318e+02	-4.6605	-4.432775	0.000750	7.498462	1.270274	-0.000150
1240	1.2328e+02	-4.6808	-4.578112	0.000730	7.295800	1.235942	-0.000146
1241	1.2338e+02	-4.7009	-4.743634	0.000831	8.309106	1.407601	-0.000166
1242	1.2348e+02	-4.7200	-4.884934	0.000709	7.093139	1.201610	-0.000142
1243	1.2358e+02	-4.7400	-5.046420	0.000811	8.106445	1.373269	-0.000162
1244	1.2368e+02	-4.7607	-5.199831	0.000770	7.701123	1.304605	-0.000154
1245	1.2378e+02	-4.7803	-5.308833	0.000547	5.471850	0.926957	-0.000110
1246	1.2388e+02	-4.7998	-5.510690	0.001013	10.133056	1.716586	-0.000203
1247	1.2398e+02	-4.8206	-5.672176	0.000811	8.106445	1.373269	-0.000162
1248	1.2408e+02	-4.8395	-5.781178	0.000547	5.471850	0.926957	-0.000110
1249	1.2418e+02	-4.8608	-5.966887	0.000932	9.322412	1.579259	-0.000187
1250	1.2428e+02	-4.8798	-6.104149	0.000689	6.890478	1.167279	-0.000138
1251	1.2438e+02	-4.8999	-6.289857	0.000932	9.322412	1.579259	-0.000187
1252	1.2447e+02	-4.9197	-6.406934	0.000588	5.877173	0.995620	-0.000118
1253	1.2457e+02	-4.9393	-6.596680	0.000953	9.525073	1.613591	-0.000191
1254	1.2467e+02	-4.9591	-6.725868	0.000649	6.485156	1.098615	-0.000130
1255	1.2477e+02	-4.9792	-6.879279	0.000770	7.701123	1.304605	-0.000154
1256	1.2487e+02	-4.9988	-7.016542	0.000689	6.890478	1.167279	-0.000138
1257	1.2497e+02	-5.0198	-7.182064	0.000831	8.309106	1.407601	-0.000166
1258	1.2507e+02	-5.0394	-7.311253	0.000649	6.485156	1.098615	-0.000130
1259	1.2517e+02	-5.0591	-7.517147	0.001034	10.335717	1.750918	-0.000207
1260	1.2527e+02	-5.0790	-7.654409	0.000689	6.890478	1.167279	-0.000138
1261	1.2537e+02	-5.0995	-7.807821	0.000770	7.701123	1.304605	-0.000154
1262	1.2547e+02	-5.1199	-7.949120	0.000709	7.093139	1.201610	-0.000142
1263	1.2557e+02	-5.1392	-8.126754	0.000892	8.917089	1.510596	-0.000179
1264	1.2567e+02	-5.1593	-8.259980	0.000669	6.687817	1.132947	-0.000134
1265	1.2577e+02	-5.1788	-8.437614	0.000892	8.917089	1.510596	-0.000179
1266	1.2587e+02	-5.1990	-8.599099	0.000811	8.106445	1.373269	-0.000162
1267	1.2597e+02	-5.2185	-8.752510	0.000770	7.701123	1.304605	-0.000154
1268	1.2607e+02	-5.2390	-8.869587	0.000588	5.877173	0.995620	-0.000118
1269	1.2617e+02	-5.2602	-9.075481	0.001034	10.335717	1.750918	-0.000207
1270	1.2627e+02	-5.2783	-9.236967	0.000811	8.106445	1.373269	-0.000162
1271	1.2636e+02	-5.2982	-9.394415	0.000790	7.903784	1.338937	-0.000158
1272	1.2646e+02	-5.3180	-9.551863	0.000790	7.903784	1.338937	-0.000158
1273	1.2656e+02	-5.3387	-9.689126	0.000689	6.890478	1.167279	-0.000138
1274	1.2666e+02	-5.3586	-9.882908	0.000973	9.727734	1.647923	-0.000195
1275	1.2676e+02	-5.3770	-10.016134	0.000669	6.687817	1.132947	-0.000134
1276	1.2686e+02	-5.3974	-10.197805	0.000912	9.119750	1.544928	-0.000183
1277	1.2696e+02	-5.4181	-10.347179	0.000750	7.498462	1.270274	-0.000150
1278	1.2706e+02	-5.4388	-10.549036	0.001013	10.133056	1.716586	-0.000203
1279	1.2716e+02	-5.4578	-10.678224	0.000649	6.485156	1.098615	-0.000130
1280	1.2726e+02	-5.4776	-10.855858	0.000892	8.917089	1.510596	-0.000179
1281	1.2736e+02	-5.4974	-11.033492	0.000892	8.917089	1.510596	-0.000179
1282	1.2746e+02	-5.5167	-11.170755	0.000689	6.890478	1.167279	-0.000138
1283	1.2756e+02	-5.5396	-11.360500	0.000953	9.525073	1.613591	-0.000191
1284	1.2766e+02	-5.5569	-11.517948	0.000790	7.903784	1.338937	-0.000158
1285	1.2776e+02	-5.5783	-11.683471	0.000831	8.309106	1.407601	-0.000166
1286	1.2786e+02	-5.5969	-11.877253	0.000973	9.727734	1.647923	-0.000195
1287	1.2796e+02	-5.6175	-12.054887	0.000892	8.917089	1.510596	-0.000179
1288	1.2806e+02	-5.6378	-12.176001	0.000608	6.079834	1.029952	-0.000122
1289	1.2816e+02	-5.6580	-12.373821	0.000993	9.930395	1.682254	-0.000199
1290	1.2826e+02	-5.6778	-12.531269	0.000790	7.903784	1.338937	-0.000158
1291	1.2835e+02	-5.6973	-12.729089	0.000993	9.930395	1.682254	-0.000199
1292	1.2845e+02	-5.7170	-12.910760	0.000912	9.119750	1.544928	-0.000183
1293	1.2855e+02	-5.7364	-13.096468	0.000932	9.322412	1.579259	-0.000187
1294	1.2865e+02	-5.7571	-13.169137	0.000365	3.647900	0.617971	-0.000073
1295	1.2875e+02	-5.7764	-13.370994	0.001013	10.133056	1.716586	-0.000203
1296	1.2885e+02	-5.7971	-13.580925	0.001054	10.538378	1.785250	-0.000211
1297	1.2895e+02	-5.8157	-13.766633	0.000932	9.322412	1.579259	-0.000187
1298	1.2905e+02	-5.8362	-13.956378	0.000953	9.525073	1.613591	-0.000191
1299	1.2915e+02	-5.8569	-14.105752	0.000750	7.498462	1.270274	-0.000150
1300	1.2925e+02	-5.8769	-14.255126	0.000750	7.498462	1.270274	-0.000150
1301	1.2935e+02	-5.8954	-14.444872	0.000953	9.525073	1.613591	-0.000191
1302	1.2945e+02	-5.9171	-14.614431	0.000851	8.511767	1.441932	-0.000170
1303	1.2955e+02	-5.9363	-14.763805	0.000750	7.498462	1.270274	-0.000150
1304	1.2965e+02	-5.9555	-14.977774	0.001074	10.741039	1.819581	-0.000215
1305	1.2975e+02	-5.9756	-15.167519	0.000953	9.525073	1.613591	-0.000191
1306	1.2985e+02	-5.9958	-15.312856	0.000730	7.295800	1.235942	-0.000146
1307	1.2995e+02	-6.0161	-15.498564	0.000932	9.322412	1.579259	-0.000187
1308	1.3005e+02	-6.0358	-15.696384	0.000993	9.930395	1.682254	-0.000199
1309	1.3015e+02	-6.0558	-15.882092	0.000932	9.322412	1.579259	-0.000187
1310	1.3025e+02	-6.0760	-16.059726	0.000892	8.917089	1.510596	-0.000179
1311	1.3034e+02	-6.0944	-16.196989	0.000689	6.890478	1.167279	-0.000138
1312	1.3044e+02	-6.1154	-16.435180	0.001196	11.957006	2.025572	-0.000239
1313	1.3054e+02	-6.1346	-16.600702	0.000831	8.309106	1.407601	-0.000166
1314	1.3064e+02	-6.1557	-16.766225	0.000831	8.309106	1.407601	-0.000166
1315	1.3074e+02	-6.1749	-16.964044	0.000993	9.930395	1.682254	-0.000199
1316	1.3084e+02	-6.1945	-17.121493	0.000790	7.903784	1.338937	-0.000158
1317	1.3094e+02	-6.2158	-17.355647	0.001175	11.754345	1.991240	-0.000235
1318	1.3104e+02	-6.2360	-17.468686	0.000567	5.674511	0.961288	-0.000114
1319	1.3114e+02	-6.2546	-17.666506	0.000993	9.930395	1.682254	-0.000199
1320	1.3124e+02	-6.2750	-17.884511	0.001094	10.943701	1.853913	-0.000219
1321	1.3134e+02	-6.2951	-18.066182	0.000912	9.119750	1.544928	-0.000183
1322	1.3144e+02	-6.3153	-18.255928	0.000953	9.525073	1.613591	-0.000191
1323	1.3154e+02	-6.3345	-18.421450	0.000831	8.309106	1.407601	-0.000166
1324	1.3164e+02	-6.3554	-18.603121	0.000912	9.119750	1.544928	-0.000183
1325	1.3174e+02	-6.3750	-18.784793	0.000912	9.119750	1.544928	-0.000183
1326	1.3184e+02	-6.3947	-19.010872	0.001135	11.349023	1.922577	-0.000227
1327	1.3194e+02	-6.4146	-19.136023	0.000628	6.282495	1.064283	-0.000126
1328	1.3204e+02	-6.4350	-19.362103	0.001135	11.349023	1.922577	-0.000227
1329	1.3214e+02	-6.4542	-19.551848	0.000953	9.525073	1.613591	-0.000191
1330	1.3224e+02	-6.4743	-19.757742	0.001034	10.335717	1.750918	-0.000207
1331	1.3234e+02	-6.4935	-19.935376	0.000892	8.917089	1.510596	-0.000179
1332	1.3243e+02	-6.5131	-20.117047	0.000912	9.119750	1.544928	-0.000183
1333	1.3253e+02	-6.5332	-20.322941	0.001034	10.335717	1.750918	-0.000207
1334	1.3263e+02	-6.5533	-20.492501	0.000851	8.511767	1.441932	-0.000170
1335	1.3273e+02	-6.5730	-20.730692	0.001196	11.957006	2.025572	-0.000239
1336	1.3283e+02	-6.5930	-20.888140	0.000790	7.903784	1.338937	-0.000158
1337	1.3293e+02	-6.6141	-21.069811	0.000912	9.119750	1.544928	-0.000183
1338	1.3303e+02	-6.6333	-21.275705	0.001034	10.335717	1.750918	-0.000207
1339	1.3313e+02	-6.6534	-21.493711	0.001094	10.943701	1.853913	-0.000219
1340	1.3323e+02	-6.6733	-21.651159	0.000790	7.903784	1.338937	-0.000158
1341	1.3333e+02	-6.6943	-21.865127	0.001074	10.741039	1.819581	-0.000215
1342	1.3343e+02	-6.7126	-22.079095	0.001074	10.741039	1.819581	-0.000215
1343	1.3353e+02	-6.7328	-22.264804	0.000932	9.322412	1.579259	-0.000187
1344	1.3363e+02	-6.7542	-22.474735	0.001054	10.538378	1.785250	-0.000211
1345	1.3373e+02	-6.7728	-22.668517	0.000973	9.727734	1.647923	-0.000195
1346	1.3383e+02	-6.7932	-22.878448	0.001054	10.538378	1.785250	-0.000211
1347	1.3393e+02	-6.8134	-23.084342	0.001034	10.335717	1.750918	-0.000207
1348	1.3403e+02	-6.8327	-23.261976	0.000892	8.917089	1.510596	-0.000179
1349	1.3413e+02	-6.8530	-23.488056	0.001135	11.349023	1.922577	-0.000227
1350	1.3423e+02	-6.8726	-23.685875	0.000993	9.930395	1.682254	-0.000199
1351	1.3432e+02	-6.8921	-23.883695	0.000993	9.930395	1.682254	-0.000199
1352	1.3442e+02	-6.9122	-24.097663	0.001074	10.741039	1.819581	-0.000215
1353	1.3452e+02	-6.9327	-24.291446	0.000973	9.727734	1.647923	-0.000195
1354	1.3462e+02	-6.9521	-24.517525	0.001135	11.349023	1.922577	-0.000227
1355	1.3472e+02	-6.9727	-24.703234	0.000932	9.322412	1.579259	-0.000187
1356	1.3482e+02	-6.9925	-24.925276	0.001115	11.146362	1.888245	-0.000223
1357	1.3492e+02	-7.0123	-25.110984	0.000932	9.322412	1.579259	-0.000187
1358	1.3502e+02	-7.0312	-25.333027	0.001115	11.146362	1.888245	-0.000223
1359	1.3512e+02	-7.0523	-25.534884	0.001013	10.133056	1.716586	-0.000203
1360	1.3522e+02	-7.0733	-25.732703	0.000993	9.930395	1.682254	-0.000199
1361	1.3532e+02	-7.0929	-25.966857	0.001175	11.754345	1.991240	-0.000235
1362	1.3542e+02	-7.1124	-26.176788	0.001054	10.538378	1.785250	-0.000211
1363	1.3552e+02	-7.1313	-26.406905	0.001155	11.551684	1.956908	-0.000231
1364	1.3562e+02	-7.1521	-26.600687	0.000973	9.727734	1.647923	-0.000195
1365	1.3572e+02	-7.1707	-26.814656	0.001074	10.741039	1.819581	-0.000215
1366	1.3582e+02	-7.1915	-27.008438	0.000973	9.727734	1.647923	-0.000195
1367	1.3592e+02	-7.2119	-27.282963	0.001378	13.780956	2.334557	-0.000276
1368	1.3602e+02	-7.2314	-27.440412	0.000790	7.903784	1.338937	-0.000158
1369	1.3612e+02	-7.2516	-27.662454	0.001115	11.146362	1.888245	-0.000223
1370	1.3622e+02	-7.2707	-27.844125	0.000912	9.119750	1.544928	-0.000183
1371	1.3631e+02	-7.2906	-28.102502	0.001297	12.970312	2.197230	-0.000260
1372	1.3641e+02	-7.3110	-28.296284	0.000973	9.727734	1.647923	-0.000195
1373	1.3651e+02	-7.3306	-28.550624	0.001277	12.767651	2.162899	-0.000256
1374	1.3661e+02	-7.3509	-28.756518	0.001034	10.335717	1.750918	-0.000207
1375	1.3671e+02	-7.3697	-28.986635	0.001155	11.551684	1.956908	-0.000231
1376	1.3681e+02	-7.3901	-29.188491	0.001013	10.133056	1.716586	-0.000203
1377	1.3691e+02	-7.4103	-29.434757	0.001236	12.362328	2.094235	-0.000248
1378	1.3701e+02	-7.4304	-29.656799	0.001115	11.146362	1.888245	-0.000223
1379	1.3711e+02	-7.4503	-29.850582	0.000973	9.727734	1.647923	-0.000195
1380	1.3721e+02	-7.4701	-30.076661	0.001135	11.349023	1.922577	-0.000227
1381	1.3731e+02	-7.4905	-30.274481	0.000993	9.930395	1.682254	-0.000199
1382	1.3741e+02	-7.5104	-30.540932	0.001338	13.375634	2.265894	-0.000268
1383	1.3751e+02	-7.5296	-30.750863	0.001054	10.538378	1.785250	-0.000211
1384	1.3761e+02	-7.5497	-30.948683	0.000993	9.930395	1.682254	-0.000199
1385	1.3771e+02	-7.5693	-31.182836	0.001175	11.754345	1.991240	-0.000235
1386	1.3781e+02	-7.5903	-31.449287	0.001338	13.375634	2.265894	-0.000268
1387	1.3791e+02	-7.6093	-31.699590	0.001256	12.564990	2.128567	-0.000252
1388	1.3801e+02	-7.6292	-31.913558	0.001074	10.741039	1.819581	-0.000215
1389	1.3811e+02	-7.6492	-32.099266	0.000932	9.322412	1.579259	-0.000187
1390	1.3821e+02	-7.6691	-32.402051	0.001520	15.199584	2.574879	-0.000304
1391	1.3831e+02	-7.6886	-32.575648	0.000871	8.714428	1.476264	-0.000174
1392	1.3840e+02	-7.7087	-32.870359	0.001479	14.794262	2.506216	-0.000296
1393	1.3850e+02	-7.7295	-33.084327	0.001074	10.741039	1.819581	-0.000215
1394	1.3860e+02	-7.7490	-33.334630	0.001256	12.564990	2.128567	-0.000252
1395	1.3870e+02	-7.7682	-33.560709	0.001135	11.349023	1.922577	-0.000227
1396	1.3880e+02	-7.7893	-33.819086	0.001297	12.970312	2.197230	-0.000260
1397	1.3890e+02	-7.8082	-34.053240	0.001175	11.754345	1.991240	-0.000235
1398	1.3900e+02	-7.8285	-34.327765	0.001378	13.780956	2.334557	-0.000276
1399	1.3910e+02	-7.8485	-34.541733	0.001074	10.741039	1.819581	-0.000215
1400	1.3920e+02	-7.8693	-34.832407	0.001459	14.591601	2.471884	-0.000292
1401	1.3930e+02	-7.8879	-35.050412	0.001094	10.943701	1.853913	-0.000219
1402	1.3940e+02	-7.9071	-35.312826	0.001317	13.172973	2.231562	-0.000264
1403	1.3950e+02	-7.9282	-35.514683	0.001013	10.133056	1.716586	-0.000203
1404	1.3960e+02	-7.9483	-35.793245	0.001398	13.983617	2.368889	-0.000280
1405	1.3970e+02	-7.9675	-36.059696	0.001338	13.375634	2.265894	-0.000268
1406	1.3980e+02	-7.9883	-36.285776	0.001135	11.349023	1.922577	-0.000227
1407	1.3990e+02	-8.0075	-36.564338	0.001398	13.983617	2.368889	-0.000280
1408	1.4000e+02	-8.0286	-36.830789	0.001338	13.375634	2.265894	-0.000268
1409	1.4010e+02	-8.0463	-37.073017	0.001216	12.159667	2.059903	-0.000243
1410	1.4020e+02	-8.0682	-37.339468	0.001338	13.375634	2.265894	-0.000268
1411	1.4029e+02	-8.0878	-37.609957	0.001358	13.578295	2.300225	-0.000272
1412	1.4039e+02	-8.1076	-37.844110	0.001175	11.754345	1.991240	-0.000235
1413	1.4049e+02	-8.1279	-38.090376	0.001236	12.362328	2.094235	-0.000248
1414	1.4059e+02	-8.1479	-38.372975	0.001419	14.186279	2.403221	-0.000284
1415	1.4069e+02	-8.1671	-38.659612	0.001439	14.388940	2.437552	-0.000288
1416	1.4079e+02	-8.1866	-38.897803	0.001196	11.957006	2.025572	-0.000239
1417	1.4089e+02	-8.2068	-39.160217	0.001317	13.172973	2.231562	-0.000264
1418	1.4099e+02	-8.2263	-39.487225	0.001642	16.415551	2.780870	-0.000329
1419	1.4109e+02	-8.2458	-39.693119	0.001034	10.335717	1.750918	-0.000207
1420	1.4119e+02	-8.2660	-39.987829	0.001479	14.794262	2.506216	-0.000296
1421	1.4129e+02	-8.2870	-40.250243	0.001317	13.172973	2.231562	-0.000264
1422	1.4139e+02	-8.3067	-40.524769	0.001378	13.780956	2.334557	-0.000276
1423	1.4149e+02	-8.3255	-40.855814	0.001662	16.618212	2.815201	-0.000333
1424	1.4159e+02	-8.3481	-41.081893	0.001135	11.349023	1.922577	-0.000227
1425	1.4169e+02	-8.3667	-41.360456	0.001398	13.983617	2.368889	-0.000280
1426	1.4179e+02	-8.3859	-41.634981	0.001378	13.780956	2.334557	-0.000276
1427	1.4189e+02	-8.4058	-41.917580	0.001419	14.186279	2.403221	-0.000284
1428	1.4199e+02	-8.4265	-42.212291	0.001479	14.794262	2.506216	-0.000296
1429	1.4209e+02	-8.4460	-42.502965	0.001459	14.591601	2.471884	-0.000292
1430	1.4219e+02	-8.4662	-42.765379	0.001317	13.172973	2.231562	-0.000264
1431	1.4228e+02	-8.4854	-43.104498	0.001702	17.023534	2.883865	-0.000341
1432	1.4238e+02	-8.5056	-43.370949	0.001338	13.375634	2.265894	-0.000268
1433	1.4248e+02	-8.5266	-43.633363	0.001317	13.172973	2.231562	-0.000264
1434	1.4258e+02	-8.5455	-43.956334	0.001621	16.212890	2.746538	-0.000325
1435	1.4268e+02	-8.5666	-44.255082	0.001500	14.996923	2.540548	-0.000300
1436	1.4278e+02	-8.5852	-44.565941	0.001560	15.604906	2.643543	-0.000312
1437	1.4288e+02	-8.6050	-44.840467	0.001378	13.780956	2.334557	-0.000276
1438	1.4298e+02	-8.6255	-45.147289	0.001540	15.402245	2.609211	-0.000308
1439	1.4308e+02	-8.6456	-45.437963	0.001459	14.591601	2.471884	-0.000292
1440	1.4318e+02	-8.6652	-45.769008	0.001662	16.618212	2.815201	-0.000333
1441	1.4328e+02	-8.6847	-46.100053	0.001662	16.618212	2.815201	-0.000333
1442	1.4338e+02	-8.7048	-46.410912	0.001560	15.604906	2.643543	-0.000312
1443	1.4348e+02	-8.7259	-46.737920	0.001642	16.415551	2.780870	-0.000329
1444	1.4358e+02	-8.7445	-46.984186	0.001236	12.362328	2.094235	-0.000248
1445	1.4368e+02	-8.7657	-47.347528	0.001824	18.239501	3.089855	-0.000365
1446	1.4378e+02	-8.7845	-47.658387	0.001560	15.604906	2.643543	-0.000312
1447	1.4388e+02	-8.8043	-48.013655	0.001783	17.834179	3.021192	-0.000357
1448	1.4398e+02	-8.8252	-48.308366	0.001479	14.794262	2.506216	-0.000296
1449	1.4408e+02	-8.8446	-48.627300	0.001601	16.010229	2.712206	-0.000321
1450	1.4418e+02	-8.8644	-48.954308	0.001642	16.415551	2.780870	-0.000329
1451	1.4428e+02	-8.8837	-49.273242	0.001601	16.010229	2.712206	-0.000321
1452	1.4437e+02	-8.9044	-49.648695	0.001885	18.847484	3.192850	-0.000377
1453	1.4447e+02	-8.9244	-49.935332	0.001439	14.388940	2.437552	-0.000288
1454	1.4457e+02	-8.9441	-50.379417	0.002229	22.292723	3.776490	-0.000446
1455	1.4467e+02	-8.9630	-50.617608	0.001196	11.957006	2.025572	-0.000239
1456	1.4477e+02	-8.9839	-50.989024	0.001864	18.644823	3.158519	-0.000373
1457	1.4487e+02	-9.0039	-51.356404	0.001844	18.442162	3.124187	-0.000369
1458	1.4497e+02	-9.0234	-51.699560	0.001723	17.226195	2.918196	-0.000345
1459	1.4507e+02	-9.0436	-52.042717	0.001723	17.226195	2.918196	-0.000345
1460	1.4517e+02	-9.0637	-52.402022	0.001804	18.036840	3.055523	-0.000361
1461	1.4527e+02	-9.0833	-52.757290	0.001783	17.834179	3.021192	-0.000357
1462	1.4537e+02	-9.1028	-53.108521	0.001763	17.631518	2.986860	-0.000353
1463	1.4547e+02	-9.1235	-53.479937	0.001864	18.644823	3.158519	-0.000373
1464	1.4557e+02	-9.1437	-53.843279	0.001824	18.239501	3.089855	-0.000365
1465	1.4567e+02	-9.1632	-54.230844	0.001946	19.455468	3.295845	-0.000390
1466	1.4577e+02	-9.1821	-54.553815	0.001621	16.212890	2.746538	-0.000325
1467	1.4587e+02	-9.2035	-54.917157	0.001824	18.239501	3.089855	-0.000365
1468	1.4597e+02	-9.2236	-55.316834	0.002006	20.063451	3.398841	-0.000402
1469	1.4607e+02	-9.2432	-55.732659	0.002087	20.874096	3.536168	-0.000418
1470	1.4617e+02	-9.2627	-56.083890	0.001763	17.631518	2.986860	-0.000353
1471	1.4626e+02	-9.2825	-56.447232	0.001824	18.239501	3.089855	-0.000365
1472	1.4636e+02	-9.3024	-56.826723	0.001905	19.050145	3.227182	-0.000381
1473	1.4646e+02	-9.3213	-57.258696	0.002168	21.684740	3.673494	-0.000434
1474	1.4656e+02	-9.3427	-57.638187	0.001905	19.050145	3.227182	-0.000381
1475	1.4666e+02	-9.3622	-58.017678	0.001905	19.050145	3.227182	-0.000381
1476	1.4676e+02	-9.3820	-58.433503	0.002087	20.874096	3.536168	-0.000418
1477	1.4686e+02	-9.4025	-58.804919	0.001864	18.644823	3.158519	-0.000373
1478	1.4696e+02	-9.4220	-59.261115	0.002290	22.900707	3.879485	-0.000458
1479	1.4706e+02	-9.4446	-59.612346	0.001763	17.631518	2.986860	-0.000353
1480	1.4716e+02	-9.4615	-60.012023	0.002006	20.063451	3.398841	-0.000402
1481	1.4726e+02	-9.4818	-60.431885	0.002108	21.076757	3.570499	-0.000422
1482	1.4736e+02	-9.5016	-60.871933	0.002209	22.090062	3.742158	-0.000442
1483	1.4746e+02	-9.5221	-61.283721	0.002067	20.671434	3.501836	-0.000414
1484	1.4756e+02	-9.5410	-61.715694	0.002168	21.684740	3.673494	-0.000434
1485	1.4766e+02	-9.5618	-62.119408	0.002027	20.266112	3.433172	-0.000406
1486	1.4776e+02	-9.5816	-62.583678	0.002331	23.306029	3.948148	-0.000467
1487	1.4786e+02	-9.6011	-62.983355	0.002006	20.063451	3.398841	-0.000402
1488	1.4796e+02	-9.6222	-63.395142	0.002067	20.671434	3.501836	-0.000414
1489	1.4806e+02	-9.6405	-63.891710	0.002493	24.927318	4.222802	-0.000499
1490	1.4816e+02	-9.6616	-64.303498	0.002067	20.671434	3.501836	-0.000414
1491	1.4825e+02	-9.6814	-64.731434	0.002148	21.482079	3.639163	-0.000430
1492	1.4835e+02	-9.7009	-65.232039	0.002513	25.129979	4.257134	-0.000503
1493	1.4845e+02	-9.7211	-65.668050	0.002189	21.887401	3.707826	-0.000438
1494	1.4855e+02	-9.7418	-66.116172	0.002250	22.495385	3.810821	-0.000450
1495	1.4865e+02	-9.7610	-66.596591	0.002412	24.116673	4.085475	-0.000483
1496	1.4875e+02	-9.7809	-67.024528	0.002148	21.482079	3.639163	-0.000430
1497	1.4885e+02	-9.8004	-67.537244	0.002574	25.737962	4.360129	-0.000515
1498	1.4895e+02	-9.8212	-68.037849	0.002513	25.129979	4.257134	-0.000503
1499	1.4905e+02	-9.8419	-68.514231	0.002391	23.914012	4.051143	-0.000479
1500	1.4915e+02	-9.8608	-68.942167	0.002148	21.482079	3.639163	-0.000430
1501	1.4925e+02	-9.8804	-69.466995	0.002635	26.345946	4.463124	-0.000527
1502	1.4935e+02	-9.9011	-69.935302	0.002351	23.508690	3.982480	-0.000471
1503	1.4945e+02	-9.9200	-70.464167	0.002655	26.548607	4.497456	-0.000532
1504	1.4955e+02	-9.9402	-70.960735	0.002493	24.927318	4.222802	-0.000499
1505	1.4965e+02	-9.9609	-71.449228	0.002452	24.521996	4.154139	-0.000491
1506	1.4975e+02	-9.9799	-71.945796	0.002493	24.927318	4.222802	-0.000499
1507	1.4985e+02	-10.0000	-72.478698	0.002675	26.751268	4.531787	-0.000536
1508	1.4995e+02	-9.9799	-72.858189	-0.001905	-19.050145	-3.227182	-0.000381
1509	1.5005e+02	-9.9615	-73.217494	-0.001804	-18.036840	-3.055523	-0.000361
1510	1.5015e+02	-9.9408	-73.483945	-0.001338	-13.375634	-2.265894	-0.000268
1511	1.5025e+02	-9.9207	-73.831138	-0.001743	-17.428856	-2.952528	-0.000349
1512	1.5034e+02	-9.9005	-74.109701	-0.001398	-13.983617	-2.368889	-0.000280
1513	1.5044e+02	-9.8804	-74.396337	-0.001439	-14.388940	-2.437552	-0.000288
1514	1.5054e+02	-9.8602	-74.682974	-0.001439	-14.388940	-2.437552	-0.000288
1515	1.5064e+02	-9.8401	-74.949425	-0.001338	-13.375634	-2.265894	-0.000268
1516	1.5074e+02	-9.8212	-75.211839	-0.001317	-13.172973	-2.231562	-0.000264
1517	1.5084e+02	-9.8010	-75.474253	-0.001317	-13.172973	-2.231562	-0.000264
1518	1.5094e+02	-9.7803	-75.700332	-0.001135	-11.349023	-1.922577	-0.000227
1519	1.5104e+02	-9.7607	-75.926412	-0.001135	-11.349023	-1.922577	-0.000227
1520	1.5114e+02	-9.7412	-76.152491	-0.001135	-11.349023	-1.922577	-0.000227
1521	1.5124e+02	-9.7211	-76.386645	-0.001175	-11.754345	-1.991240	-0.000235
1522	1.5134e+02	-9.7015	-76.580428	-0.000973	-9.727734	-1.647923	-0.000195
1523	1.5144e+02	-9.6814	-76.798433	-0.001094	-10.943701	-1.853913	-0.000219
1524	1.5154e+02	-9.6613	-76.996253	-0.000993	-9.930395	-1.682254	-0.000199
1525	1.5164e+02	-9.6411	-77.202147	-0.001034	-10.335717	-1.750918	-0.000207
1526	1.5174e+02	-9.6210	-77.355558	-0.000770	-7.701123	-1.304605	-0.000154
1527	1.5184e+02	-9.6008	-77.589712	-0.001175	-11.754345	-1.991240	-0.000235
1528	1.5194e+02	-9.5819	-77.714863	-0.000628	-6.282495	-1.064283	-0.000126
1529	1.5204e+02	-9.5612	-77.892497	-0.000892	-8.917089	-1.510596	-0.000179
1530	1.5214e+02	-9.5428	-78.094354	-0.001013	-10.133056	-1.716586	-0.000203
1531	1.5224e+02	-9.5224	-78.263913	-0.000851	-8.511767	-1.441932	-0.000170
1532	1.5233e+02	-9.5023	-78.401176	-0.000689	-6.890478	-1.167279	-0.000138
1533	1.5243e+02	-9.4843	-78.526327	-0.000628	-6.282495	-1.064283	-0.000126
1534	1.5253e+02	-9.4614	-78.671664	-0.000730	-7.295800	-1.235942	-0.000146
1535	1.5263e+02	-9.4415	-78.841224	-0.000851	-8.511767	-1.441932	-0.000170
1536	1.5273e+02	-9.4226	-78.950226	-0.000547	-5.471850	-0.926957	-0.000110
1537	1.5283e+02	-9.4025	-79.095563	-0.000730	-7.295800	-1.235942	-0.000146
1538	1.5293e+02	-9.3817	-79.228789	-0.000669	-6.687817	-1.132947	-0.000134
1539	1.5303e+02	-9.3628	-79.321643	-0.000466	-4.661206	-0.789630	-0.000093
1540	1.5313e+02	-9.3427	-79.491203	-0.000851	-8.511767	-1.441932	-0.000170
1541	1.5323e+02	-9.3231	-79.571945	-0.000405	-4.053222	-0.686634	-0.000081
1542	1.5333e+02	-9.3030	-79.668837	-0.000486	-4.863867	-0.823961	-0.000097
1543	1.5343e+02	-9.2834	-79.785914	-0.000588	-5.877173	-0.995620	-0.000118
1544	1.5353e+02	-9.2627	-79.874731	-0.000446	-4.458545	-0.755298	-0.000089
1545	1.5363e+02	-9.2413	-80.003919	-0.000649	-6.485156	-1.098615	-0.000130
1546	1.5373e+02	-9.2227	-80.084662	-0.000405	-4.053222	-0.686634	-0.000081
1547	1.5383e+02	-9.2023	-80.209813	-0.000628	-6.282495	-1.064283	-0.000126
1548	1.5393e+02	-9.1827	-80.294593	-0.000426	-4.255884	-0.720966	-0.000085
1549	1.5403e+02	-9.1635	-80.383410	-0.000446	-4.458545	-0.755298	-0.000089
1550	1.5413e+02	-9.1446	-80.456078	-0.000365	-3.647900	-0.617971	-0.000073
1551	1.5422e+02	-9.1235	-80.557007	-0.000507	-5.066528	-0.858293	-0.000101
1552	1.5432e+02	-9.1034	-80.605452	-0.000243	-2.431933	-0.411981	-0.000049
1553	1.5442e+02	-9.0833	-80.661972	-0.000284	-2.837256	-0.480644	-0.000057
1554	1.5452e+02	-9.0642	-80.791160	-0.000649	-6.485156	-1.098615	-0.000130
1555	1.5462e+02	-9.0430	-80.799235	-0.000041	-0.405322	-0.068663	-0.000008
1556	1.5472e+02	-9.0228	-80.892089	-0.000466	-4.661206	-0.789630	-0.000093
1557	1.5482e+02	-9.0038	-80.952646	-0.000304	-3.039917	-0.514976	-0.000061
1558	1.5492e+02	-8.9841	-81.005129	-0.000263	-2.634595	-0.446312	-0.000053
1559	1.5502e+02	-8.9655	-81.061648	-0.000284	-2.837256	-0.480644	-0.000057
1560	1.5512e+02	-8.9438	-81.114131	-0.000263	-2.634595	-0.446312	-0.000053
1561	1.5522e+02	-8.9246	-81.194874	-0.000405	-4.053222	-0.686634	-0.000081
1562	1.5532e+02	-8.9050	-81.219097	-0.000122	-1.215967	-0.205990	-0.000024
1563	1.5542e+02	-8.8834	-81.315988	-0.000486	-4.863867	-0.823961	-0.000097
1564	1.5552e+02	-8.8644	-81.332137	-0.000081	-0.810644	-0.137327	-0.000016
1565	1.5562e+02	-8.8443	-81.364434	-0.000162	-1.621289	-0.274654	-0.000032
1566	1.5572e+02	-8.8239	-81.412879	-0.000243	-2.431933	-0.411981	-0.000049
1567	1.5582e+02	-8.8055	-81.457288	-0.000223	-2.229272	-0.377649	-0.000045
1568	1.5592e+02	-8.7848	-81.481511	-0.000122	-1.215967	-0.205990	-0.000024
1569	1.5602e+02	-8.7646	-81.493622	-0.000061	-0.607983	-0.102995	-0.000012
1570	1.5612e+02	-8.7436	-81.517845	-0.000122	-1.215967	-0.205990	-0.000024
1571	1.5622e+02	-8.7247	-81.594550	-0.000385	-3.850561	-0.652303	-0.000077
1572	1.5631e+02	-8.7048	-81.582439	0.000061	0.607983	0.102995	0.000012
1573	1.5641e+02	-8.6859	-81.574365	0.000041	0.405322	0.068663	0.000008
1574	1.5651e+02	-8.6649	-81.671256	-0.000486	-4.863867	-0.823961	-0.000097
1575	1.5661e+02	-8.6459	-81.687405	-0.000081	-0.810644	-0.137327	-0.000016
1576	1.5671e+02	-8.6246	-81.659145	0.000142	1.418628	0.240322	0.000028
1577	1.5681e+02	-8.6047	-81.735850	-0.000385	-3.850561	-0.652303	-0.000077
1578	1.5691e+02	-8.5852	-81.739887	-0.000020	-0.202661	-0.034332	-0.000004
1579	1.5701e+02	-8.5660	-81.764110	-0.000122	-1.215967	-0.205990	-0.000024
1580	1.5711e+02	-8.5466	-81.743924	0.000101	1.013306	0.171659	0.000020
1581	1.5721e+02	-8.5266	-81.784296	-0.000203	-2.026611	-0.343317	-0.000041
1582	1.5731e+02	-8.5052	-81.764110	0.000101	1.013306	0.171659	0.000020
1583	1.5741e+02	-8.4863	-81.735850	0.000142	1.418628	0.240322	0.000028
1584	1.5751e+02	-8.4665	-81.788333	-0.000263	-2.634595	-0.446312	-0.000053
1585	1.5761e+02	-8.4454	-81.836779	-0.000243	-2.431933	-0.411981	-0.000049
1586	1.5771e+02	-8.4265	-81.800444	0.000182	1.823950	0.308986	0.000037
1587	1.5781e+02	-8.4061	-81.804481	-0.000020	-0.202661	-0.034332	-0.000004
1588	1.5791e+02	-8.3856	-81.808519	-0.000020	-0.202661	-0.034332	-0.000004
1589	1.5801e+02	-8.3667	-81.772184	0.000182	1.823950	0.308986	0.000037
1590	1.5811e+02	-8.3466	-81.780259	-0.000041	-0.405322	-0.068663	-0.000008
1591	1.5821e+02	-8.3267	-81.784296	-0.000020	-0.202661	-0.034332	-0.000004
1592	1.5830e+02	-8.3069	-81.739887	0.000223	2.229272	0.377649	0.000045
1593	1.5840e+02	-8.2861	-81.788333	-0.000243	-2.431933	-0.411981	-0.000049
1594	1.5850e+02	-8.2666	-81.764110	0.000122	1.215967	0.205990	0.000024
1595	1.5860e+02	-8.2465	-81.727776	0.000182	1.823950	0.308986	0.000037
1596	1.5870e+02	-8.2272	-81.711627	0.000081	0.810644	0.137327	0.000016
1597	1.5880e+02	-8.2068	-81.679330	0.000162	1.621289	0.274654	0.000032
1598	1.5890e+02	-8.1873	-81.687405	-0.000041	-0.405322	-0.068663	-0.000008
1599	1.5900e+02	-8.1668	-81.667219	0.000101	1.013306	0.171659	0.000020
1600	1.5910e+02	-8.1474	-81.642996	0.000122	1.215967	0.205990	0.000024
1601	1.5920e+02	-8.1274	-81.614736	0.000142	1.418628	0.240322	0.000028
1602	1.5930e+02	-8.1070	-81.614736	0.000000	0.000000	0.000000	0.000000
1603	1.5940e+02	-8.0876	-81.546105	0.000345	3.445239	0.583639	0.000069
1604	1.5950e+02	-8.0682	-81.566290	-0.000101	-1.013306	-0.171659	-0.000020
1605	1.5960e+02	-8.0481	-81.521882	0.000223	2.229272	0.377649	0.000045
1606	1.5970e+02	-8.0270	-81.477473	0.000223	2.229272	0.377649	0.000045
1607	1.5980e+02	-8.0072	-81.473436	0.000020	0.202661	0.034332	0.000004
1608	1.5990e+02	-7.9869	-81.408842	0.000324	3.242578	0.549308	0.000065
1609	1.6000e+02	-7.9681	-81.408842	0.000000	0.000000	0.000000	0.000000
1610	1.6010e+02	-7.9480	-81.380582	0.000142	1.418628	0.240322	0.000028
1611	1.6019e+02	-7.9279	-81.368471	0.000061	0.607983	0.102995	0.000012
1612	1.6029e+02	-7.9080	-81.356359	0.000061	0.607983	0.102995	0.000012
1613	1.6039e+02	-7.8882	-81.307914	0.000243	2.431933	0.411981	0.000049
1614	1.6049e+02	-7.8680	-81.287728	0.000101	1.013306	0.171659	0.000020
1615	1.6059e+02	-7.8479	-81.223134	0.000324	3.242578	0.549308	0.000065
1616	1.6069e+02	-7.8284	-81.186800	0.000182	1.823950	0.308986	0.000037
1617	1.6079e+02	-7.8076	-81.122206	0.000324	3.242578	0.549308	0.000065
1618	1.6089e+02	-7.7893	-81.093946	0.000142	1.418628	0.240322	0.000028
1619	1.6099e+02	-7.7686	-81.102020	-0.000041	-0.405322	-0.068663	-0.000008
1620	1.6109e+02	-7.7478	-81.029351	0.000365	3.647900	0.617971	0.000073
1621	1.6119e+02	-7.7289	-81.009166	0.000101	1.013306	0.171659	0.000020
1622	1.6129e+02	-7.7086	-80.988980	0.000101	1.013306	0.171659	0.000020
1623	1.6139e+02	-7.6886	-80.936497	0.000263	2.634595	0.446312	0.000053
1624	1.6149e+02	-7.6685	-80.884015	0.000263	2.634595	0.446312	0.000053
1625	1.6159e+02	-7.6489	-80.815383	0.000345	3.445239	0.583639	0.000069
1626	1.6169e+02	-7.6291	-80.811346	0.000020	0.202661	0.034332	0.000004
1627	1.6179e+02	-7.6083	-80.766938	0.000223	2.229272	0.377649	0.000045
1628	1.6189e+02	-7.5891	-80.710418	0.000284	2.837256	0.480644	0.000057
1629	1.6199e+02	-7.5696	-80.674083	0.000182	1.823950	0.308986	0.000037
1630	1.6209e+02	-7.5500	-80.617564	0.000284	2.837256	0.480644	0.000057
1631	1.6219e+02	-7.5311	-80.569118	0.000243	2.431933	0.411981	0.000049
1632	1.6228e+02	-7.5098	-80.536821	0.000162	1.621289	0.274654	0.000032
1633	1.6238e+02	-7.4907	-80.480301	0.000284	2.837256	0.480644	0.000057
1634	1.6248e+02	-7.4695	-80.452041	0.000142	1.418628	0.240322	0.000028
1635	1.6258e+02	-7.4506	-80.419744	0.000162	1.621289	0.274654	0.000032
1636	1.6268e+02	-7.4304	-80.351113	0.000345	3.445239	0.583639	0.000069
1637	1.6278e+02	-7.4109	-80.270370	0.000405	4.053222	0.686634	0.000081
1638	1.6288e+02	-7.3907	-80.246147	0.000122	1.215967	0.205990	0.000024
1639	1.6298e+02	-7.3703	-80.145219	0.000507	5.066528	0.858293	0.000101
1640	1.6308e+02	-7.3497	-80.120996	0.000122	1.215967	0.205990	0.000024
1641	1.6318e+02	-7.3312	-80.076587	0.000223	2.229272	0.377649	0.000045
1642	1.6328e+02	-7.3114	-80.032179	0.000223	2.229272	0.377649	0.000045
1643	1.6338e+02	-7.2910	-79.995845	0.000182	1.823950	0.308986	0.000037
1644	1.6348e+02	-7.2711	-79.898953	0.000486	4.863867	0.823961	0.000097
1645	1.6358e+02	-7.2507	-79.842433	0.000284	2.837256	0.480644	0.000057
1646	1.6368e+02	-7.2302	-79.793988	0.000243	2.431933	0.411981	0.000049
1647	1.6378e+02	-7.2113	-79.737468	0.000284	2.837256	0.480644	0.000057
1648	1.6388e+02	-7.1912	-79.652688	0.000426	4.255884	0.720966	0.000085
1649	1.6398e+02	-7.1716	-79.612317	0.000203	2.026611	0.343317	0.000041
1650	1.6408e+02	-7.1515	-79.559834	0.000263	2.634595	0.446312	0.000053
1651	1.6418e+02	-7.1317	-79.483128	0.000385	3.850561	0.652303	0.000077
1652	1.6427e+02	-7.1121	-79.418534	0.000324	3.242578	0.549308	0.000065
1653	1.6437e+02	-7.0911	-79.382200	0.000182	1.823950	0.308986	0.000037
1654	1.6447e+02	-7.0721	-79.313569	0.000345	3.445239	0.583639	0.000069
1655	1.6457e+02	-7.0520	-79.253012	0.000304	3.039917	0.514976	0.000061
1656	1.6467e+02	-7.0313	-79.188418	0.000324	3.242578	0.549308	0.000065
1657	1.6477e+02	-7.0129	-79.111712	0.000385	3.850561	0.652303	0.000077
1658	1.6487e+02	-6.9916	-79.067303	0.000223	2.229272	0.377649	0.000045
1659	1.6497e+02	-6.9730	-79.002709	0.000324	3.242578	0.549308	0.000065
1660	1.6507e+02	-6.9522	-78.926004	0.000385	3.850561	0.652303	0.000077
1661	1.6517e+02	-6.9324	-78.861410	0.000324	3.242578	0.549308	0.000065
1662	1.6527e+02	-6.9122	-78.796815	0.000324	3.242578	0.549308	0.000065
1663	1.6537e+02	-6.8927	-78.724147	0.000365	3.647900	0.617971	0.000073
1664	1.6547e+02	-6.8730	-78.643404	0.000405	4.053222	0.686634	0.000081
1665	1.6557e+02	-6.8518	-78.582847	0.000304	3.039917	0.514976	0.000061
1666	1.6567e+02	-6.8335	-78.514216	0.000345	3.445239	0.583639	0.000069
1667	1.6577e+02	-6.8127	-78.453659	0.000304	3.039917	0.514976	0.000061
1668	1.6587e+02	-6.7905	-78.380990	0.000365	3.647900	0.617971	0.000073
1669	1.6597e+02	-6.7725	-78.312359	0.000345	3.445239	0.583639	0.000069
1670	1.6607e+02	-6.7529	-78.280062	0.000162	1.621289	0.274654	0.000032
1671	1.6616e+02	-6.7331	-78.154911	0.000628	6.282495	1.064283	0.000126
1672	1.6626e+02	-6.7126	-78.078205	0.000385	3.850561	0.652303	0.000077
1673	1.6636e+02	-6.6925	-78.021685	0.000284	2.837256	0.480644	0.000057
1674	1.6646e+02	-6.6742	-77.977277	0.000223	2.229272	0.377649	0.000045
1675	1.6656e+02	-6.6531	-77.904608	0.000365	3.647900	0.617971	0.000073
1676	1.6666e+02	-6.6339	-77.831940	0.000365	3.647900	0.617971	0.000073
1677	1.6676e+02	-6.6138	-77.763309	0.000345	3.445239	0.583639	0.000069
1678	1.6686e+02	-6.5930	-77.670454	0.000466	4.661206	0.789630	0.000093
1679	1.6696e+02	-6.5732	-77.617972	0.000263	2.634595	0.446312	0.000053
1680	1.6706e+02	-6.5533	-77.492820	0.000628	6.282495	1.064283	0.000126
1681	1.6716e+02	-6.5344	-77.448412	0.000223	2.229272	0.377649	0.000045
1682	1.6726e+02	-6.5137	-77.371706	0.000385	3.850561	0.652303	0.000077
1683	1.6736e+02	-6.4938	-77.323261	0.000243	2.431933	0.411981	0.000049
1684	1.6746e+02	-6.4746	-77.242518	0.000405	4.053222	0.686634	0.000081
1685	1.6756e+02	-6.4536	-77.161775	0.000405	4.053222	0.686634	0.000081
1686	1.6766e+02	-6.4337	-77.109293	0.000263	2.634595	0.446312	0.000053
1687	1.6776e+02	-6.4130	-76.992216	0.000588	5.877173	0.995620	0.000118
1688	1.6786e+02	-6.3940	-76.903399	0.000446	4.458545	0.755298	0.000089
1689	1.6796e+02	-6.3745	-76.830730	0.000365	3.647900	0.617971	0.000073
1690	1.6806e+02	-6.3550	-76.790359	0.000203	2.026611	0.343317	0.000041
1691	1.6816e+02	-6.3348	-76.681356	0.000547	5.471850	0.926957	0.000110
1692	1.6825e+02	-6.3147	-76.620799	0.000304	3.039917	0.514976	0.000061
1693	1.6835e+02	-6.2955	-76.580428	0.000203	2.026611	0.343317	0.000041
1694	1.6845e+02	-6.2759	-76.439128	0.000709	7.093139	1.201610	0.000142
1695	1.6855e+02	-6.2549	-76.374534	0.000324	3.242578	0.549308	0.000065
1696	1.6865e+02	-6.2347	-76.305903	0.000345	3.445239	0.583639	0.000069
1697	1.6875e+02	-6.2146	-76.241308	0.000324	3.242578	0.549308	0.000065
1698	1.6885e+02	-6.1951	-76.144417	0.000486	4.863867	0.823961	0.000097
1699	1.6895e+02	-6.1758	-76.104046	0.000203	2.026611	0.343317	0.000041
1700	1.6905e+02	-6.1554	-75.958709	0.000730	7.295800	1.235942	0.000146
1701	1.6915e+02	-6.1359	-75.898152	0.000304	3.039917	0.514976	0.000061
1702	1.6925e+02	-6.1157	-75.777038	0.000608	6.079834	1.029952	0.000122
1703	1.6935e+02	-6.0959	-75.692258	0.000426	4.255884	0.720966	0.000085
1704	1.6945e+02	-6.0754	-75.635738	0.000284	2.837256	0.480644	0.000057
1705	1.6955e+02	-6.0553	-75.526735	0.000547	5.471850	0.926957	0.000110
1706	1.6965e+02	-6.0345	-75.441956	0.000426	4.255884	0.720966	0.000085
1707	1.6975e+02	-6.0159	-75.409658	0.000162	1.621289	0.274654	0.000032
1708	1.6985e+02	-5.9958	-75.300656	0.000547	5.471850	0.926957	0.000110
1709	1.6995e+02	-5.9753	-75.163393	0.000689	6.890478	1.167279	0.000138
1710	1.7005e+02	-5.9558	-75.094762	0.000345	3.445239	0.583639	0.000069
1711	1.7015e+02	-5.9360	-75.009982	0.000426	4.255884	0.720966	0.000085
1712	1.7024e+02	-5.9161	-74.917128	0.000466	4.661206	0.789630	0.000093
1713	1.7034e+02	-5.8954	-74.856571	0.000304	3.039917	0.514976	0.000061
1714	1.7044e+02	-5.8752	-74.763717	0.000466	4.661206	0.789630	0.000093
1715	1.7054e+02	-5.8557	-74.678937	0.000426	4.255884	0.720966	0.000085
1716	1.7064e+02	-5.8365	-74.582046	0.000486	4.863867	0.823961	0.000097
1717	1.7074e+02	-5.8167	-74.477080	0.000527	5.269189	0.892625	0.000105
1718	1.7084e+02	-5.7964	-74.384226	0.000466	4.661206	0.789630	0.000093
1719	1.7094e+02	-5.7768	-74.299446	0.000426	4.255884	0.720966	0.000085
1720	1.7104e+02	-5.7562	-74.218703	0.000405	4.053222	0.686634	0.000081
1721	1.7114e+02	-5.7352	-74.121812	0.000486	4.863867	0.823961	0.000097
1722	1.7124e+02	-5.7178	-74.053181	0.000345	3.445239	0.583639	0.000069
1723	1.7134e+02	-5.6976	-73.948215	0.000527	5.269189	0.892625	0.000105
1724	1.7144e+02	-5.6766	-73.859398	0.000446	4.458545	0.755298	0.000089
1725	1.7154e+02	-5.6567	-73.794804	0.000324	3.242578	0.549308	0.000065
1726	1.7164e+02	-5.6372	-73.665616	0.000649	6.485156	1.098615	0.000130
1727	1.7174e+02	-5.6165	-73.576799	0.000446	4.458545	0.755298	0.000089
1728	1.7184e+02	-5.5969	-73.524316	0.000263	2.634595	0.446312	0.000053
1729	1.7194e+02	-5.5768	-73.403202	0.000608	6.079834	1.029952	0.000122
1730	1.7204e+02	-5.5577	-73.310348	0.000466	4.661206	0.789630	0.000093
1731	1.7213e+02	-5.5380	-73.213457	0.000486	4.863867	0.823961	0.000097
1732	1.7223e+02	-5.5176	-73.112528	0.000507	5.066528	0.858293	0.000101
1733	1.7233e+02	-5.4968	-73.039860	0.000365	3.647900	0.617971	0.000073
1734	1.7243e+02	-5.4785	-72.959117	0.000405	4.053222	0.686634	0.000081
1735	1.7253e+02	-5.4572	-72.825892	0.000669	6.687817	1.132947	0.000134
1736	1.7263e+02	-5.4376	-72.765335	0.000304	3.039917	0.514976	0.000061
1737	1.7273e+02	-5.4175	-72.676518	0.000446	4.458545	0.755298	0.000089
1738	1.7283e+02	-5.3973	-72.603849	0.000365	3.647900	0.617971	0.000073
1739	1.7293e+02	-5.3769	-72.478698	0.000628	6.282495	1.064283	0.000126
1740	1.7303e+02	-5.3577	-72.414104	0.000324	3.242578	0.549308	0.000065
1741	1.7313e+02	-5.3387	-72.288953	0.000628	6.282495	1.064283	0.000126
1742	1.7323e+02	-5.3177	-72.228395	0.000304	3.039917	0.514976	0.000061
1743	1.7333e+02	-5.2982	-72.083059	0.000730	7.295800	1.235942	0.000146
1744	1.7343e+02	-5.2777	-71.974056	0.000547	5.471850	0.926957	0.000110
1745	1.7353e+02	-5.2587	-71.941759	0.000162	1.621289	0.274654	0.000032
1746	1.7363e+02	-5.2386	-71.800459	0.000709	7.093139	1.201610	0.000142
1747	1.7373e+02	-5.2182	-71.703568	0.000486	4.863867	0.823961	0.000097
1748	1.7383e+02	-5.1981	-71.610714	0.000466	4.661206	0.789630	0.000093
1749	1.7393e+02	-5.1782	-71.485563	0.000628	6.282495	1.064283	0.000126
1750	1.7403e+02	-5.1570	-71.420968	0.000324	3.242578	0.549308	0.000065
1751	1.7413e+02	-5.1385	-71.316003	0.000527	5.269189	0.892625	0.000105
1752	1.7422e+02	-5.1176	-71.223149	0.000466	4.661206	0.789630	0.000093
1753	1.7432e+02	-5.0983	-71.118183	0.000527	5.269189	0.892625	0.000105
1754	1.7442e+02	-5.0784	-71.045515	0.000365	3.647900	0.617971	0.000073
1755	1.7452e+02	-5.0584	-70.956698	0.000446	4.458545	0.755298	0.000089
1756	1.7462e+02	-5.0385	-70.859806	0.000486	4.863867	0.823961	0.000097
1757	1.7472e+02	-5.0189	-70.762915	0.000486	4.863867	0.823961	0.000097
1758	1.7482e+02	-4.9994	-70.617578	0.000730	7.295800	1.235942	0.000146
1759	1.7492e+02	-4.9796	-70.528761	0.000446	4.458545	0.755298	0.000089
1760	1.7502e+02	-4.9600	-70.476279	0.000263	2.634595	0.446312	0.000053
1761	1.7512e+02	-4.9405	-70.367276	0.000547	5.471850	0.926957	0.000110
1762	1.7522e+02	-4.9188	-70.278459	0.000446	4.458545	0.755298	0.000089
1763	1.7532e+02	-4.8999	-70.153308	0.000628	6.282495	1.064283	0.000126
1764	1.7542e+02	-4.8795	-70.044305	0.000547	5.471850	0.926957	0.000110
1765	1.7552e+02	-4.8596	-69.943377	0.000507	5.066528	0.858293	0.000101
1766	1.7562e+02	-4.8398	-69.826300	0.000588	5.877173	0.995620	0.000118
1767	1.7572e+02	-4.8196	-69.733446	0.000466	4.661206	0.789630	0.000093
1768	1.7582e+02	-4.8004	-69.640591	0.000466	4.661206	0.789630	0.000093
1769	1.7592e+02	-4.7803	-69.551774	0.000446	4.458545	0.755298	0.000089
1770	1.7602e+02	-4.7601	-69.414512	0.000689	6.890478	1.167279	0.000138
1771	1.7612e+02	-4.7400	-69.345881	0.000345	3.445239	0.583639	0.000069
1772	1.7621e+02	-4.7211	-69.232841	0.000567	5.674511	0.961288	0.000114
1773	1.7631e+02	-4.7002	-69.111727	0.000608	6.079834	1.029952	0.000122
1774	1.7641e+02	-4.6802	-68.994650	0.000588	5.877173	0.995620	0.000118
1775	1.7651e+02	-4.6606	-68.946204	0.000243	2.431933	0.411981	0.000049
1776	1.7661e+02	-4.6414	-68.808942	0.000689	6.890478	1.167279	0.000138
1777	1.7671e+02	-4.6210	-68.756459	0.000263	2.634595	0.446312	0.000053
1778	1.7681e+02	-4.6021	-68.611122	0.000730	7.295800	1.235942	0.000146
1779	1.7691e+02	-4.5819	-68.510193	0.000507	5.066528	0.858293	0.000101
1780	1.7701e+02	-4.5615	-68.421376	0.000446	4.458545	0.755298	0.000089
1781	1.7711e+02	-4.5404	-68.308337	0.000567	5.674511	0.961288	0.000114
1782	1.7721e+02	-4.5212	-68.231631	0.000385	3.850561	0.652303	0.000077
1783	1.7731e+02	-4.5007	-68.074183	0.000790	7.903784	1.338937	0.000158
1784	1.7741e+02	-4.4812	-68.009589	0.000324	3.242578	0.549308	0.000065
1785	1.7751e+02	-4.4604	-67.892512	0.000588	5.877173	0.995620	0.000118
1786	1.7761e+02	-4.4421	-67.795620	0.000486	4.863867	0.823961	0.000097
1787	1.7771e+02	-4.4220	-67.662395	0.000669	6.687817	1.132947	0.000134
1788	1.7781e+02	-4.4006	-67.613949	0.000243	2.431933	0.411981	0.000049
1789	1.7791e+02	-4.3817	-67.504947	0.000547	5.471850	0.926957	0.000110
1790	1.7801e+02	-4.3613	-67.408055	0.000486	4.863867	0.823961	0.000097
1791	1.7810e+02	-4.3420	-67.303090	0.000527	5.269189	0.892625	0.000105
1792	1.7820e+02	-4.3216	-67.194087	0.000547	5.471850	0.926957	0.000110
1793	1.7830e+02	-4.3016	-67.097196	0.000486	4.863867	0.823961	0.000097
1794	1.7840e+02	-4.2828	-67.032602	0.000324	3.242578	0.549308	0.000065
1795	1.7850e+02	-4.2622	-66.859005	0.000871	8.714428	1.476264	0.000174
1796	1.7860e+02	-4.2413	-66.782299	0.000385	3.850561	0.652303	0.000077
1797	1.7870e+02	-4.2218	-66.673297	0.000547	5.471850	0.926957	0.000110
1798	1.7880e+02	-4.2023	-66.588517	0.000426	4.255884	0.720966	0.000085
1799	1.7890e+02	-4.1818	-66.455291	0.000669	6.687817	1.132947	0.000134
1800	1.7900e+02	-4.1620	-66.402809	0.000263	2.634595	0.446312	0.000053
1801	1.7910e+02	-4.1425	-66.305917	0.000486	4.863867	0.823961	0.000097
1802	1.7920e+02	-4.1235	-66.132321	0.000871	8.714428	1.476264	0.000174
1803	1.7930e+02	-4.1022	-66.039466	0.000466	4.661206	0.789630	0.000093
1804	1.7940e+02	-4.0829	-65.954687	0.000426	4.255884	0.720966	0.000085
1805	1.7950e+02	-4.0622	-65.813387	0.000709	7.093139	1.201610	0.000142
1806	1.7960e+02	-4.0427	-65.748793	0.000324	3.242578	0.549308	0.000065
1807	1.7970e+02	-4.0228	-65.655939	0.000466	4.661206	0.789630	0.000093
1808	1.7980e+02	-4.0031	-65.546936	0.000547	5.471850	0.926957	0.000110
1809	1.7990e+02	-3.9825	-65.401599	0.000730	7.295800	1.235942	0.000146
1810	1.8000e+02	-3.9627	-65.280485	0.000608	6.079834	1.029952	0.000122
1811	1.8009e+02	-3.9435	-65.155334	0.000628	6.282495	1.064283	0.000126
1812	1.8019e+02	-3.9236	-65.110925	0.000223	2.229272	0.377649	0.000045
1813	1.8029e+02	-3.9035	-64.973663	0.000689	6.890478	1.167279	0.000138
1814	1.8039e+02	-3.8835	-64.888883	0.000426	4.255884	0.720966	0.000085
1815	1.8049e+02	-3.8638	-64.755657	0.000669	6.687817	1.132947	0.000134
1816	1.8059e+02	-3.8428	-64.654729	0.000507	5.066528	0.858293	0.000101
1817	1.8069e+02	-3.8231	-64.533615	0.000608	6.079834	1.029952	0.000122
1818	1.8079e+02	-3.8055	-64.448835	0.000426	4.255884	0.720966	0.000085
1819	1.8089e+02	-3.7836	-64.327721	0.000608	6.079834	1.029952	0.000122
1820	1.8099e+02	-3.7643	-64.202570	0.000628	6.282495	1.064283	0.000126
1821	1.8109e+02	-3.7436	-64.097604	0.000527	5.269189	0.892625	0.000105
1822	1.8119e+02	-3.7238	-64.016861	0.000405	4.053222	0.686634	0.000081
1823	1.8129e+02	-3.7036	-63.883636	0.000669	6.687817	1.132947	0.000134
1824	1.8139e+02	-3.6845	-63.774633	0.000547	5.471850	0.926957	0.000110
1825	1.8149e+02	-3.6646	-63.677742	0.000486	4.863867	0.823961	0.000097
1826	1.8159e+02	-3.6450	-63.568739	0.000547	5.471850	0.926957	0.000110
1827	1.8169e+02	-3.6247	-63.423402	0.000730	7.295800	1.235942	0.000146
1828	1.8179e+02	-3.6044	-63.306326	0.000588	5.877173	0.995620	0.000118
1829	1.8189e+02	-3.5834	-63.201360	0.000527	5.269189	0.892625	0.000105
1830	1.8199e+02	-3.5641	-63.088320	0.000567	5.674511	0.961288	0.000114
1831	1.8209e+02	-3.5449	-63.003540	0.000426	4.255884	0.720966	0.000085
1832	1.8218e+02	-3.5246	-62.890501	0.000567	5.674511	0.961288	0.000114
1833	1.8228e+02	-3.5051	-62.793609	0.000486	4.863867	0.823961	0.000097
1834	1.8238e+02	-3.4857	-62.660384	0.000669	6.687817	1.132947	0.000134
1835	1.8248e+02	-3.4654	-62.559455	0.000507	5.066528	0.858293	0.000101
1836	1.8258e+02	-3.4454	-62.442378	0.000588	5.877173	0.995620	0.000118
1837	1.8268e+02	-3.4253	-62.317227	0.000628	6.282495	1.064283	0.000126
1838	1.8278e+02	-3.4057	-62.200150	0.000588	5.877173	0.995620	0.000118
1839	1.8288e+02	-3.3850	-62.079036	0.000608	6.079834	1.029952	0.000122
1840	1.8298e+02	-3.3643	-61.990219	0.000446	4.458545	0.755298	0.000089
1841	1.8308e+02	-3.3456	-61.852957	0.000689	6.890478	1.167279	0.000138
1842	1.8318e+02	-3.3255	-61.743954	0.000547	5.471850	0.926957	0.000110
1843	1.8328e+02	-3.3061	-61.622840	0.000608	6.079834	1.029952	0.000122
1844	1.8338e+02	-3.2855	-61.509800	0.000567	5.674511	0.961288	0.000114
1845	1.8348e+02	-3.2660	-61.404835	0.000527	5.269189	0.892625	0.000105
1846	1.8358e+02	-3.2458	-61.271609	0.000669	6.687817	1.132947	0.000134
1847	1.8368e+02	-3.2251	-61.178755	0.000466	4.661206	0.789630	0.000093
1848	1.8378e+02	-3.2059	-61.057641	0.000608	6.079834	1.029952	0.000122
1849	1.8388e+02	-3.1851	-60.972861	0.000426	4.255884	0.720966	0.000085
1850	1.8398e+02	-3.1659	-60.847710	0.000628	6.282495	1.064283	0.000126
1851	1.8407e+02	-3.1456	-60.698336	0.000750	7.498462	1.270274	0.000150
1852	1.8417e+02	-3.1265	-60.601445	0.000486	4.863867	0.823961	0.000097
1853	1.8427e+02	-3.1067	-60.508590	0.000466	4.661206	0.789630	0.000093
1854	1.8437e+02	-3.0858	-60.371328	0.000689	6.890478	1.167279	0.000138
1855	1.8447e+02	-3.0658	-60.270399	0.000507	5.066528	0.858293	0.000101
1856	1.8457e+02	-3.0469	-60.153322	0.000588	5.877173	0.995620	0.000118
1857	1.8467e+02	-3.0264	-60.040283	0.000567	5.674511	0.961288	0.000114
1858	1.8477e+02	-3.0072	-59.915131	0.000628	6.282495	1.064283	0.000126
1859	1.8487e+02	-2.9871	-59.757683	0.000790	7.903784	1.338937	0.000158
1860	1.8497e+02	-2.9672	-59.632532	0.000628	6.282495	1.064283	0.000126
1861	1.8507e+02	-2.9466	-59.576012	0.000284	2.837256	0.480644	0.000057
1862	1.8517e+02	-2.9269	-59.422601	0.000770	7.701123	1.304605	0.000154
1863	1.8527e+02	-2.9071	-59.301487	0.000608	6.079834	1.029952	0.000122
1864	1.8537e+02	-2.8870	-59.176336	0.000628	6.282495	1.064283	0.000126
1865	1.8547e+02	-2.8674	-59.075407	0.000507	5.066528	0.858293	0.000101
1866	1.8557e+02	-2.8477	-58.938145	0.000689	6.890478	1.167279	0.000138
1867	1.8567e+02	-2.8278	-58.817031	0.000608	6.079834	1.029952	0.000122
1868	1.8577e+02	-2.8070	-58.724176	0.000466	4.661206	0.789630	0.000093
1869	1.8587e+02	-2.7873	-58.570765	0.000770	7.701123	1.304605	0.000154
1870	1.8597e+02	-2.7679	-58.445614	0.000628	6.282495	1.064283	0.000126
1871	1.8606e+02	-2.7466	-58.344686	0.000507	5.066528	0.858293	0.000101
1872	1.8616e+02	-2.7274	-58.215497	0.000649	6.485156	1.098615	0.000130
1873	1.8626e+02	-2.7068	-58.074198	0.000709	7.093139	1.201610	0.000142
1874	1.8636e+02	-2.6878	-58.001529	0.000365	3.647900	0.617971	0.000073
1875	1.8646e+02	-2.6678	-57.807747	0.000973	9.727734	1.647923	0.000195
1876	1.8656e+02	-2.6471	-57.727004	0.000405	4.053222	0.686634	0.000081
1877	1.8666e+02	-2.6270	-57.565518	0.000811	8.106445	1.373269	0.000162
1878	1.8676e+02	-2.6073	-57.480739	0.000426	4.255884	0.720966	0.000085
1879	1.8686e+02	-2.5870	-57.339439	0.000709	7.093139	1.201610	0.000142
1880	1.8696e+02	-2.5680	-57.206213	0.000669	6.687817	1.132947	0.000134
1881	1.8706e+02	-2.5478	-57.117396	0.000446	4.458545	0.755298	0.000089
1882	1.8716e+02	-2.5278	-56.972060	0.000730	7.295800	1.235942	0.000146
1883	1.8726e+02	-2.5088	-56.822686	0.000750	7.498462	1.270274	0.000150
1884	1.8736e+02	-2.4896	-56.737906	0.000426	4.255884	0.720966	0.000085
1885	1.8746e+02	-2.4692	-56.560272	0.000892	8.917089	1.510596	0.000179
1886	1.8756e+02	-2.4496	-56.491640	0.000345	3.445239	0.583639	0.000069
1887	1.8766e+02	-2.4297	-56.330155	0.000811	8.106445	1.373269	0.000162
1888	1.8776e+02	-2.4084	-56.245375	0.000426	4.255884	0.720966	0.000085
1889	1.8786e+02	-2.3895	-56.100038	0.000730	7.295800	1.235942	0.000146
1890	1.8796e+02	-2.3682	-55.974887	0.000628	6.282495	1.064283	0.000126
1891	1.8806e+02	-2.3495	-55.837624	0.000689	6.890478	1.167279	0.000138
1892	1.8815e+02	-2.3288	-55.752845	0.000426	4.255884	0.720966	0.000085
1893	1.8825e+02	-2.3094	-55.615582	0.000689	6.890478	1.167279	0.000138
1894	1.8835e+02	-2.2897	-55.522728	0.000466	4.661206	0.789630	0.000093
1895	1.8845e+02	-2.2693	-55.369317	0.000770	7.701123	1.304605	0.000154
1896	1.8855e+02	-2.2498	-55.240128	0.000649	6.485156	1.098615	0.000130
1897	1.8865e+02	-2.2298	-55.127089	0.000567	5.674511	0.961288	0.000114
1898	1.8875e+02	-2.2098	-54.965603	0.000811	8.106445	1.373269	0.000162
1899	1.8885e+02	-2.1901	-54.864675	0.000507	5.066528	0.858293	0.000101
1900	1.8895e+02	-2.1700	-54.739523	0.000628	6.282495	1.064283	0.000126
1901	1.8905e+02	-2.1515	-54.606298	0.000669	6.687817	1.132947	0.000134
1902	1.8915e+02	-2.1289	-54.464998	0.000709	7.093139	1.201610	0.000142
1903	1.8925e+02	-2.1099	-54.331773	0.000669	6.687817	1.132947	0.000134
1904	1.8935e+02	-2.0906	-54.178362	0.000770	7.701123	1.304605	0.000154
1905	1.8945e+02	-2.0700	-54.109730	0.000345	3.445239	0.583639	0.000069
1906	1.8955e+02	-2.0500	-53.980542	0.000649	6.485156	1.098615	0.000130
1907	1.8965e+02	-2.0309	-53.847316	0.000669	6.687817	1.132947	0.000134
1908	1.8975e+02	-2.0105	-53.673720	0.000871	8.714428	1.476264	0.000174
1909	1.8985e+02	-1.9909	-53.588940	0.000426	4.255884	0.720966	0.000085
1910	1.8995e+02	-1.9708	-53.443603	0.000730	7.295800	1.235942	0.000146
1911	1.9004e+02	-1.9503	-53.350749	0.000466	4.661206	0.789630	0.000093
1912	1.9014e+02	-1.9305	-53.189263	0.000811	8.106445	1.373269	0.000162
1913	1.9024e+02	-1.9101	-53.104483	0.000426	4.255884	0.720966	0.000085
1914	1.9034e+02	-1.8914	-52.910701	0.000973	9.727734	1.647923	0.000195
1915	1.9044e+02	-1.8707	-52.850144	0.000304	3.039917	0.514976	0.000061
1916	1.9054e+02	-1.8503	-52.680584	0.000851	8.511767	1.441932	0.000170
1917	1.9064e+02	-1.8311	-52.547359	0.000669	6.687817	1.132947	0.000134
1918	1.9074e+02	-1.8114	-52.402022	0.000730	7.295800	1.235942	0.000146
1919	1.9084e+02	-1.7905	-52.313205	0.000446	4.458545	0.755298	0.000089
1920	1.9094e+02	-1.7709	-52.151719	0.000811	8.106445	1.373269	0.000162
1921	1.9104e+02	-1.7500	-52.083088	0.000345	3.445239	0.583639	0.000069
1922	1.9114e+02	-1.7320	-51.909491	0.000871	8.714428	1.476264	0.000174
1923	1.9124e+02	-1.7119	-51.804526	0.000527	5.269189	0.892625	0.000105
1924	1.9134e+02	-1.6913	-51.639003	0.000831	8.309106	1.407601	0.000166
1925	1.9144e+02	-1.6721	-51.517889	0.000608	6.079834	1.029952	0.000122
1926	1.9154e+02	-1.6521	-51.396775	0.000608	6.079834	1.029952	0.000122
1927	1.9164e+02	-1.6306	-51.243364	0.000770	7.701123	1.304605	0.000154
1928	1.9174e+02	-1.6112	-51.138398	0.000527	5.269189	0.892625	0.000105
1929	1.9184e+02	-1.5915	-51.029396	0.000547	5.471850	0.926957	0.000110
1930	1.9194e+02	-1.5722	-50.851762	0.000892	8.917089	1.510596	0.000179
1931	1.9203e+02	-1.5524	-50.742759	0.000547	5.471850	0.926957	0.000110
1932	1.9213e+02	-1.5316	-50.577237	0.000831	8.309106	1.407601	0.000166
1933	1.9223e+02	-1.5115	-50.419788	0.000790	7.903784	1.338937	0.000158
1934	1.9233e+02	-1.4917	-50.306748	0.000567	5.674511	0.961288	0.000114
1935	1.9243e+02	-1.4721	-50.213894	0.000466	4.661206	0.789630	0.000093
1936	1.9253e+02	-1.4517	-50.064520	0.000750	7.498462	1.270274	0.000150
1937	1.9263e+02	-1.4330	-49.915146	0.000750	7.498462	1.270274	0.000150
1938	1.9273e+02	-1.4128	-49.794032	0.000608	6.079834	1.029952	0.000122
1939	1.9283e+02	-1.3916	-49.668881	0.000628	6.282495	1.064283	0.000126
1940	1.9293e+02	-1.3725	-49.535656	0.000669	6.687817	1.132947	0.000134
1941	1.9303e+02	-1.3528	-49.370133	0.000831	8.309106	1.407601	0.000166
1942	1.9313e+02	-1.3321	-49.289390	0.000405	4.053222	0.686634	0.000081
1943	1.9323e+02	-1.3122	-49.127905	0.000811	8.106445	1.373269	0.000162
1944	1.9333e+02	-1.2924	-49.010828	0.000588	5.877173	0.995620	0.000118
1945	1.9343e+02	-1.2720	-48.881640	0.000649	6.485156	1.098615	0.000130
1946	1.9353e+02	-1.2532	-48.744377	0.000689	6.890478	1.167279	0.000138
1947	1.9363e+02	-1.2335	-48.619226	0.000628	6.282495	1.064283	0.000126
1948	1.9373e+02	-1.2138	-48.502149	0.000588	5.877173	0.995620	0.000118
1949	1.9383e+02	-1.1932	-48.372960	0.000649	6.485156	1.098615	0.000130
1950	1.9393e+02	-1.1734	-48.219549	0.000770	7.701123	1.304605	0.000154
1951	1.9403e+02	-1.1537	-48.082287	0.000689	6.890478	1.167279	0.000138
1952	1.9412e+02	-1.1340	-47.953098	0.000649	6.485156	1.098615	0.000130
1953	1.9422e+02	-1.1139	-47.864281	0.000446	4.458545	0.755298	0.000089
1954	1.9432e+02	-1.0937	-47.658387	0.001034	10.335717	1.750918	0.000207
1955	1.9442e+02	-1.0748	-47.561496	0.000486	4.863867	0.823961	0.000097
1956	1.9452e+02	-1.0551	-47.420196	0.000709	7.093139	1.201610	0.000142
1957	1.9462e+02	-1.0345	-47.278897	0.000709	7.093139	1.201610	0.000142
1958	1.9472e+02	-1.0129	-47.214302	0.000324	3.242578	0.549308	0.000065
1959	1.9482e+02	-0.9930	-47.016483	0.000993	9.930395	1.682254	0.000199
1960	1.9492e+02	-0.9740	-46.923629	0.000466	4.661206	0.789630	0.000093
1961	1.9502e+02	-0.9541	-46.758106	0.000831	8.309106	1.407601	0.000166
1962	1.9512e+02	-0.9337	-46.624881	0.000669	6.687817	1.132947	0.000134
1963	1.9522e+02	-0.9149	-46.511841	0.000567	5.674511	0.961288	0.000114
1964	1.9532e+02	-0.8948	-46.382652	0.000649	6.485156	1.098615	0.000130
1965	1.9542e+02	-0.8752	-46.269613	0.000567	5.674511	0.961288	0.000114
1966	1.9552e+02	-0.8550	-46.152536	0.000588	5.877173	0.995620	0.000118
1967	1.9562e+02	-0.8348	-45.991050	0.000811	8.106445	1.373269	0.000162
1968	1.9572e+02	-0.8139	-45.829565	0.000811	8.106445	1.373269	0.000162
1969	1.9582e+02	-0.7953	-45.748822	0.000405	4.053222	0.686634	0.000081
1970	1.9592e+02	-0.7758	-45.591374	0.000790	7.903784	1.338937	0.000158
1971	1.9601e+02	-0.7553	-45.417777	0.000871	8.714428	1.476264	0.000174
1972	1.9611e+02	-0.7344	-45.341071	0.000385	3.850561	0.652303	0.000077
1973	1.9621e+02	-0.7157	-45.187660	0.000770	7.701123	1.304605	0.000154
1974	1.9631e+02	-0.6944	-45.054435	0.000669	6.687817	1.132947	0.000134
1975	1.9641e+02	-0.6757	-44.937358	0.000588	5.877173	0.995620	0.000118
1976	1.9651e+02	-0.6553	-44.767798	0.000851	8.511767	1.441932	0.000170
1977	1.9661e+02	-0.6348	-44.654758	0.000567	5.674511	0.961288	0.000114
1978	1.9671e+02	-0.6149	-44.541719	0.000567	5.674511	0.961288	0.000114
1979	1.9681e+02	-0.5947	-44.392345	0.000750	7.498462	1.270274	0.000150
1980	1.9691e+02	-0.5763	-44.275268	0.000588	5.877173	0.995620	0.000118
1981	1.9701e+02	-0.5558	-44.133968	0.000709	7.093139	1.201610	0.000142
1982	1.9711e+02	-0.5362	-43.984594	0.000750	7.498462	1.270274	0.000150
1983	1.9721e+02	-0.5168	-43.847331	0.000689	6.890478	1.167279	0.000138
1984	1.9731e+02	-0.4962	-43.681809	0.000831	8.309106	1.407601	0.000166
1985	1.9741e+02	-0.4761	-43.548583	0.000669	6.687817	1.132947	0.000134
1986	1.9751e+02	-0.4561	-43.439581	0.000547	5.471850	0.926957	0.000110
1987	1.9761e+02	-0.4364	-43.286169	0.000770	7.701123	1.304605	0.000154
1988	1.9771e+02	-0.4174	-43.148907	0.000689	6.890478	1.167279	0.000138
1989	1.9781e+02	-0.3963	-43.011644	0.000689	6.890478	1.167279	0.000138
1990	1.9791e+02	-0.3765	-42.902641	0.000547	5.471850	0.926957	0.000110
1991	1.9800e+02	-0.3552	-42.749230	0.000770	7.701123	1.304605	0.000154
1992	1.9810e+02	-0.3362	-42.611968	0.000689	6.890478	1.167279	0.000138
1993	1.9820e+02	-0.3174	-42.442408	0.000851	8.511767	1.441932	0.000170
1994	1.9830e+02	-0.2960	-42.329368	0.000567	5.674511	0.961288	0.000114
1995	1.9840e+02	-0.2760	-42.212291	0.000588	5.877173	0.995620	0.000118
1996	1.9850e+02	-0.2563	-42.083103	0.000649	6.485156	1.098615	0.000130
1997	1.9860e+02	-0.2377	-41.913543	0.000851	8.511767	1.441932	0.000170
1998	1.9870e+02	-0.2163	-41.784355	0.000649	6.485156	1.098615	0.000130
1999	1.9880e+02	-0.1964	-41.655167	0.000649	6.485156	1.098615	0.000130
2000	1.9890e+02	-0.1771	-41.546164	0.000547	5.471850	0.926957	0.000110
2001	1.9900e+02	-0.1569	-41.388716	0.000790	7.903784	1.338937	0.000158
2002	1.9910e+02	-0.1371	-41.267602	0.000608	6.079834	1.029952	0.000122
2003	1.9920e+02	-0.1167	-41.110153	0.000790	7.903784	1.338937	0.000158
2004	1.9930e+02	-0.0973	-40.980965	0.000649	6.485156	1.098615	0.000130
2005	1.9940e+02	-0.0766	-40.827554	0.000770	7.701123	1.304605	0.000154
2006	1.9950e+02	-0.0581	-40.682217	0.000730	7.295800	1.235942	0.000146
2007	1.9960e+02	-0.0372	-40.581288	0.000507	5.066528	0.858293	0.000101
2008	1.9970e+02	-0.0169	-40.415766	0.000831	8.309106	1.407601	0.000166
2009	1.9980e+02	0.0007	-40.306763	0.000831	8.309106	1.407601	0.000110

PMax (uC/cm2):	5.82e+01
Pr (uC/cm2):	5.82e+00
-Pr (uC/cm2):	-6.40e+01
PLoss (uC/cm2):	-6.39e+01
-Vc:	-8.13e-01
C (Max-Eff) (nF):	5.82e-01
K (Eff):	9.86e+02
Vert. (+/-Pr) Shift (uC/cm2):	-2.91e+01
Offset (uC/cm2):	-2.36e+01

A (Loop Area - uC/cm2·Volts):	-3.53e-01



Hysteresis Version: 5.48.1 - Radiant Technologies, Inc., 1999 - 9/12/24

