»»»»»»»»»»»»»»»»»»»»»»»»»»»»»»»»»»»» Hysteresis ««««««««««««««««««««««««««««««««««««
»»»  Executed Version:	5.48.1
»»»  Vision Version:	5.48.4 (R)
»»»  Vision Compiled:	9/18/24
»»»  Driver Version:	5.47.0
»»»  Windows Version:	Windows 8 or 8.1
»»»  Processor Information:	x86 (AMD or Intel) - 32 Processors
»»»  Tester Name:	PMF21124-494 (100V)
»»»  Tester S/N:	PMF21124-494
»»»  Internal Amp Type:	100V RevK 270k
»»»  Internal Amp S/N:	iAB2-596/K     
»»»  Execution Count:	1
»»»»»»»»»»»»»»»»»»»»»»»»»»»»»»»»»»»»»»»»»»««««««««««««««««««««««««««««««««««««««««««

Stored:	7/2/2025 - 14:0:1
Configured:	07/02/25 01:35:59 PM
Executed:	07/02/25 01:58:54 PM

»»»»»»»»»»»»»»»»»»»»»»»»»»»»»»»»»»» Sample Info ««««««««««««««««««««««««««««««««««««
Sample Name:	
Lot Name:	
Wafer Name:	
Die Row/Column:	0/0
Capacitor Number:	0
Sample Area (cm2):	1.00e-04
Sample Thickness (microns):	1.50e-01

Amplifier:	Internal

»»»»»»»»»»»»»»»»»»»»»»»»»»»»»»»»»»» Tester Info «««««««««««««««««««««««««««««««««««
Tester Name:	PMF21124-494 (100V)
Tester Serial Number:	PMF21124-494
Return Signal Amp. Level:	0.19 [Index: 3]

»»»»»»»»»»»»»»»»»»»»»»»»»»»»»»»» Hysteresis Info ««««««««««««««««««««««««««««««««««
Task Name:	Hyst-220
Volts:	10.00
Field:	666.67 (kV/cm)
DCBias:	0.00
DCField:	0.00 (kV/cm)
Hysteresis Period (ms):	2.00e+02
Preset:	Enabled
Preset Delay (ms):	1.00e+03
Profile:	Standard Bipolar

»»»»»»»»»»»»»»»»»»»»»»»»»»»»»»»»»»»»»» Data «««««««««««««««««««««««««««««««««««««««
Points:	2009

Valid Data

Point	Time (ms)	Drive Voltage	Measured Polarization (uC/cm2)	Capacitance (uF)	Normalized Capacitance (uF/cm2)	Dielectric Constant	Instantaneous Current (mA)
   1	0.0000e+00	0.0010	10.129174	0.000243	2.432012	0.411994	0.000049
   2	9.9500e-02	0.0201	10.177619	0.000243	2.432012	0.411994	0.000049
   3	1.9900e-01	0.0397	10.290659	0.000567	5.674695	0.961319	0.000114
   4	2.9850e-01	0.0599	10.407736	0.000588	5.877363	0.995652	0.000118
   5	3.9800e-01	0.0807	10.480404	0.000365	3.648018	0.617991	0.000073
   6	4.9750e-01	0.0996	10.617667	0.000689	6.890702	1.167316	0.000138
   7	5.9700e-01	0.1189	10.698410	0.000405	4.053354	0.686657	0.000081
   8	6.9650e-01	0.1390	10.803375	0.000527	5.269360	0.892654	0.000105
   9	7.9600e-01	0.1602	10.920452	0.000588	5.877363	0.995652	0.000118
  10	8.9550e-01	0.1791	11.009269	0.000446	4.458689	0.755322	0.000089
  11	9.9500e-01	0.1999	11.154606	0.000730	7.296037	1.235982	0.000146
  12	1.0945e+00	0.2194	11.223237	0.000345	3.445351	0.583658	0.000069
  13	1.1940e+00	0.2391	11.328203	0.000527	5.269360	0.892654	0.000105
  14	1.2935e+00	0.2588	11.429131	0.000507	5.066692	0.858321	0.000101
  15	1.3930e+00	0.2788	11.505837	0.000385	3.850686	0.652324	0.000077
  16	1.4925e+00	0.2988	11.606765	0.000507	5.066692	0.858321	0.000101
  17	1.5920e+00	0.3200	11.748065	0.000709	7.093369	1.201649	0.000142
  18	1.6915e+00	0.3390	11.800548	0.000263	2.634680	0.446327	0.000053
  19	1.7910e+00	0.3584	11.925699	0.000628	6.282698	1.064318	0.000126
  20	1.8905e+00	0.3789	12.006442	0.000405	4.053354	0.686657	0.000081
  21	1.9900e+00	0.3985	12.155816	0.000750	7.498705	1.270315	0.000150
  22	2.0895e+00	0.4177	12.216373	0.000304	3.040015	0.514993	0.000061
  23	2.1890e+00	0.4391	12.317301	0.000507	5.066692	0.858321	0.000101
  24	2.2885e+00	0.4585	12.430341	0.000567	5.674695	0.961319	0.000114
  25	2.3880e+00	0.4781	12.571641	0.000709	7.093369	1.201649	0.000142
  26	2.4875e+00	0.4973	12.660458	0.000446	4.458689	0.755322	0.000089
  27	2.5870e+00	0.5176	12.785609	0.000628	6.282698	1.064318	0.000126
  28	2.6865e+00	0.5371	12.858277	0.000365	3.648018	0.617991	0.000073
  29	2.7860e+00	0.5583	12.951131	0.000466	4.661357	0.789655	0.000093
  30	2.8855e+00	0.5779	13.076283	0.000628	6.282698	1.064318	0.000126
  31	2.9850e+00	0.5973	13.173174	0.000486	4.864025	0.823988	0.000097
  32	3.0845e+00	0.6181	13.270065	0.000486	4.864025	0.823988	0.000097
  33	3.1840e+00	0.6380	13.403291	0.000669	6.688034	1.132984	0.000134
  34	3.2835e+00	0.6574	13.467885	0.000324	3.242683	0.549325	0.000065
  35	3.3830e+00	0.6776	13.601110	0.000669	6.688034	1.132984	0.000134
  36	3.4825e+00	0.6974	13.698002	0.000486	4.864025	0.823988	0.000097
  37	3.5820e+00	0.7170	13.790856	0.000466	4.661357	0.789655	0.000093
  38	3.6815e+00	0.7362	13.924081	0.000669	6.688034	1.132984	0.000134
  39	3.7810e+00	0.7579	14.053270	0.000649	6.485366	1.098651	0.000130
  40	3.8805e+00	0.7771	14.142086	0.000446	4.458689	0.755322	0.000089
  41	3.9800e+00	0.7968	14.222829	0.000405	4.053354	0.686657	0.000081
  42	4.0795e+00	0.8177	14.343943	0.000608	6.080031	1.029985	0.000122
  43	4.1790e+00	0.8375	14.481206	0.000689	6.890702	1.167316	0.000138
  44	4.2785e+00	0.8575	14.545800	0.000324	3.242683	0.549325	0.000065
  45	4.3780e+00	0.8755	14.695174	0.000750	7.498705	1.270315	0.000150
  46	4.4775e+00	0.8975	14.783991	0.000446	4.458689	0.755322	0.000089
  47	4.5770e+00	0.9167	14.876845	0.000466	4.661357	0.789655	0.000093
  48	4.6765e+00	0.9359	14.981811	0.000527	5.269360	0.892654	0.000105
  49	4.7760e+00	0.9572	15.094851	0.000567	5.674695	0.961319	0.000114
  50	4.8755e+00	0.9761	15.224039	0.000649	6.485366	1.098651	0.000130
  51	4.9750e+00	0.9971	15.316893	0.000466	4.661357	0.789655	0.000093
  52	5.0745e+00	1.0168	15.425896	0.000547	5.472028	0.926987	0.000110
  53	5.1740e+00	1.0365	15.526824	0.000507	5.066692	0.858321	0.000101
  54	5.2735e+00	1.0561	15.635827	0.000547	5.472028	0.926987	0.000110
  55	5.3730e+00	1.0758	15.773089	0.000689	6.890702	1.167316	0.000138
  56	5.4725e+00	1.0983	15.849795	0.000385	3.850686	0.652324	0.000077
  57	5.5720e+00	1.1160	15.966872	0.000588	5.877363	0.995652	0.000118
  58	5.6715e+00	1.1360	16.043577	0.000385	3.850686	0.652324	0.000077
  59	5.7710e+00	1.1559	16.168729	0.000628	6.282698	1.064318	0.000126
  60	5.8705e+00	1.1752	16.257546	0.000446	4.458689	0.755322	0.000089
  61	5.9700e+00	1.1972	16.366548	0.000547	5.472028	0.926987	0.000110
  62	6.0695e+00	1.2159	16.463440	0.000486	4.864025	0.823988	0.000097
  63	6.1690e+00	1.2352	16.572442	0.000547	5.472028	0.926987	0.000110
  64	6.2685e+00	1.2566	16.689519	0.000588	5.877363	0.995652	0.000118
  65	6.3680e+00	1.2751	16.778336	0.000446	4.458689	0.755322	0.000089
  66	6.4675e+00	1.2951	16.911562	0.000669	6.688034	1.132984	0.000134
  67	6.5670e+00	1.3152	17.004416	0.000466	4.661357	0.789655	0.000093
  68	6.6665e+00	1.3345	17.085158	0.000405	4.053354	0.686657	0.000081
  69	6.7660e+00	1.3554	17.238570	0.000770	7.701372	1.304648	0.000154
  70	6.8655e+00	1.3730	17.335461	0.000486	4.864025	0.823988	0.000097
  71	6.9650e+00	1.3950	17.456575	0.000608	6.080031	1.029985	0.000122
  72	7.0645e+00	1.4141	17.537318	0.000405	4.053354	0.686657	0.000081
  73	7.1640e+00	1.4345	17.638246	0.000507	5.066692	0.858321	0.000101
  74	7.2635e+00	1.4536	17.735137	0.000486	4.864025	0.823988	0.000097
  75	7.3630e+00	1.4744	17.848177	0.000567	5.674695	0.961319	0.000114
  76	7.4625e+00	1.4944	17.924883	0.000385	3.850686	0.652324	0.000077
  77	7.5620e+00	1.5143	18.070220	0.000730	7.296037	1.235982	0.000146
  78	7.6615e+00	1.5337	18.150962	0.000405	4.053354	0.686657	0.000081
  79	7.7610e+00	1.5533	18.288225	0.000689	6.890702	1.167316	0.000138
  80	7.8605e+00	1.5742	18.405302	0.000588	5.877363	0.995652	0.000118
  81	7.9600e+00	1.5940	18.486045	0.000405	4.053354	0.686657	0.000081
  82	8.0595e+00	1.6125	18.595047	0.000547	5.472028	0.926987	0.000110
  83	8.1590e+00	1.6340	18.712124	0.000588	5.877363	0.995652	0.000118
  84	8.2585e+00	1.6531	18.809015	0.000486	4.864025	0.823988	0.000097
  85	8.3580e+00	1.6735	18.913981	0.000527	5.269360	0.892654	0.000105
  86	8.4575e+00	1.6929	19.043169	0.000649	6.485366	1.098651	0.000130
  87	8.5570e+00	1.7135	19.160246	0.000588	5.877363	0.995652	0.000118
  88	8.6565e+00	1.7333	19.216766	0.000284	2.837348	0.480660	0.000057
  89	8.7560e+00	1.7531	19.333843	0.000588	5.877363	0.995652	0.000118
  90	8.8555e+00	1.7731	19.454957	0.000608	6.080031	1.029985	0.000122
  91	8.9550e+00	1.7926	19.559923	0.000527	5.269360	0.892654	0.000105
  92	9.0545e+00	1.8127	19.668925	0.000547	5.472028	0.926987	0.000110
  93	9.1540e+00	1.8333	19.773891	0.000527	5.269360	0.892654	0.000105
  94	9.2535e+00	1.8529	19.899042	0.000628	6.282698	1.064318	0.000126
  95	9.3530e+00	1.8739	20.036305	0.000689	6.890702	1.167316	0.000138
  96	9.4525e+00	1.8928	20.096862	0.000304	3.040015	0.514993	0.000061
  97	9.5520e+00	1.9128	20.246236	0.000750	7.498705	1.270315	0.000150
  98	9.6515e+00	1.9326	20.347164	0.000507	5.066692	0.858321	0.000101
  99	9.7510e+00	1.9528	20.460204	0.000567	5.674695	0.961319	0.000114
 100	9.8505e+00	1.9727	20.524798	0.000324	3.242683	0.549325	0.000065
 101	9.9500e+00	1.9926	20.674172	0.000750	7.498705	1.270315	0.000150
 102	1.0050e+01	2.0116	20.779138	0.000527	5.269360	0.892654	0.000105
 103	1.0149e+01	2.0326	20.896215	0.000588	5.877363	0.995652	0.000118
 104	1.0248e+01	2.0530	20.976957	0.000405	4.053354	0.686657	0.000081
 105	1.0348e+01	2.0720	21.069811	0.000466	4.661357	0.789655	0.000093
 106	1.0447e+01	2.0911	21.203037	0.000669	6.688034	1.132984	0.000134
 107	1.0547e+01	2.1124	21.320114	0.000588	5.877363	0.995652	0.000118
 108	1.0646e+01	2.1326	21.437191	0.000588	5.877363	0.995652	0.000118
 109	1.0746e+01	2.1525	21.546193	0.000547	5.472028	0.926987	0.000110
 110	1.0845e+01	2.1716	21.675382	0.000649	6.485366	1.098651	0.000130
 111	1.0945e+01	2.1925	21.784384	0.000547	5.472028	0.926987	0.000110
 112	1.1044e+01	2.2121	21.869164	0.000426	4.256022	0.720990	0.000085
 113	1.1144e+01	2.2318	21.921647	0.000263	2.634680	0.446327	0.000053
 114	1.1243e+01	2.2516	22.062947	0.000709	7.093369	1.201649	0.000142
 115	1.1343e+01	2.2717	22.220395	0.000790	7.904040	1.338981	0.000158
 116	1.1443e+01	2.2912	22.309212	0.000446	4.458689	0.755322	0.000089
 117	1.1542e+01	2.3122	22.402066	0.000466	4.661357	0.789655	0.000093
 118	1.1642e+01	2.3318	22.535292	0.000669	6.688034	1.132984	0.000134
 119	1.1741e+01	2.3516	22.636220	0.000507	5.066692	0.858321	0.000101
 120	1.1841e+01	2.3710	22.721000	0.000426	4.256022	0.720990	0.000085
 121	1.1940e+01	2.3912	22.801743	0.000405	4.053354	0.686657	0.000081
 122	1.2040e+01	2.4107	22.902671	0.000507	5.066692	0.858321	0.000101
 123	1.2139e+01	2.4307	23.048008	0.000730	7.296037	1.235982	0.000146
 124	1.2239e+01	2.4516	23.132788	0.000426	4.256022	0.720990	0.000085
 125	1.2338e+01	2.4709	23.266013	0.000669	6.688034	1.132984	0.000134
 126	1.2438e+01	2.4917	23.346756	0.000405	4.053354	0.686657	0.000081
 127	1.2537e+01	2.5114	23.459796	0.000567	5.674695	0.961319	0.000114
 128	1.2636e+01	2.5301	23.588984	0.000649	6.485366	1.098651	0.000130
 129	1.2736e+01	2.5509	23.689913	0.000507	5.066692	0.858321	0.000101
 130	1.2835e+01	2.5695	23.762581	0.000365	3.648018	0.617991	0.000073
 131	1.2935e+01	2.5895	23.887732	0.000628	6.282698	1.064318	0.000126
 132	1.3034e+01	2.6096	24.004809	0.000588	5.877363	0.995652	0.000118
 133	1.3134e+01	2.6305	24.154183	0.000750	7.498705	1.270315	0.000150
 134	1.3233e+01	2.6495	24.238963	0.000426	4.256022	0.720990	0.000085
 135	1.3333e+01	2.6702	24.352003	0.000567	5.674695	0.961319	0.000114
 136	1.3432e+01	2.6904	24.465043	0.000567	5.674695	0.961319	0.000114
 137	1.3532e+01	2.7080	24.545785	0.000405	4.053354	0.686657	0.000081
 138	1.3632e+01	2.7298	24.662862	0.000588	5.877363	0.995652	0.000118
 139	1.3731e+01	2.7502	24.775902	0.000567	5.674695	0.961319	0.000114
 140	1.3831e+01	2.7695	24.905090	0.000649	6.485366	1.098651	0.000130
 141	1.3930e+01	2.7825	24.985833	0.000405	4.053354	0.686657	0.000081
 142	1.4030e+01	2.8100	25.102910	0.000588	5.877363	0.995652	0.000118
 143	1.4129e+01	2.8289	25.207876	0.000527	5.269360	0.892654	0.000105
 144	1.4229e+01	2.8490	25.304767	0.000486	4.864025	0.823988	0.000097
 145	1.4328e+01	2.8694	25.437992	0.000669	6.688034	1.132984	0.000134
 146	1.4428e+01	2.8890	25.563143	0.000628	6.282698	1.064318	0.000126
 147	1.4527e+01	2.9086	25.647923	0.000426	4.256022	0.720990	0.000085
 148	1.4627e+01	2.9290	25.781149	0.000669	6.688034	1.132984	0.000134
 149	1.4726e+01	2.9487	25.841706	0.000304	3.040015	0.514993	0.000061
 150	1.4825e+01	2.9681	25.983006	0.000709	7.093369	1.201649	0.000142
 151	1.4925e+01	2.9885	26.067785	0.000426	4.256022	0.720990	0.000085
 152	1.5024e+01	3.0077	26.237345	0.000851	8.512043	1.441979	0.000170
 153	1.5124e+01	3.0303	26.301939	0.000324	3.242683	0.549325	0.000065
 154	1.5223e+01	3.0483	26.435165	0.000669	6.688034	1.132984	0.000134
 155	1.5323e+01	3.0685	26.519945	0.000426	4.256022	0.720990	0.000085
 156	1.5422e+01	3.0885	26.645096	0.000628	6.282698	1.064318	0.000126
 157	1.5522e+01	3.1084	26.786396	0.000709	7.093369	1.201649	0.000142
 158	1.5621e+01	3.1289	26.899435	0.000567	5.674695	0.961319	0.000114
 159	1.5721e+01	3.1480	26.951918	0.000263	2.634680	0.446327	0.000053
 160	1.5820e+01	3.1676	27.109366	0.000790	7.904040	1.338981	0.000158
 161	1.5920e+01	3.1886	27.194146	0.000426	4.256022	0.720990	0.000085
 162	1.6020e+01	3.2073	27.343520	0.000750	7.498705	1.270315	0.000150
 163	1.6119e+01	3.2278	27.396003	0.000263	2.634680	0.446327	0.000053
 164	1.6218e+01	3.2476	27.505006	0.000547	5.472028	0.926987	0.000110
 165	1.6318e+01	3.2671	27.618046	0.000567	5.674695	0.961319	0.000114
 166	1.6418e+01	3.2871	27.755308	0.000689	6.890702	1.167316	0.000138
 167	1.6517e+01	3.3076	27.860274	0.000527	5.269360	0.892654	0.000105
 168	1.6616e+01	3.3276	27.977351	0.000588	5.877363	0.995652	0.000118
 169	1.6716e+01	3.3474	28.090390	0.000567	5.674695	0.961319	0.000114
 170	1.6816e+01	3.3672	28.175170	0.000426	4.256022	0.720990	0.000085
 171	1.6915e+01	3.3877	28.272062	0.000486	4.864025	0.823988	0.000097
 172	1.7015e+01	3.4074	28.389139	0.000588	5.877363	0.995652	0.000118
 173	1.7114e+01	3.4264	28.506215	0.000588	5.877363	0.995652	0.000118
 174	1.7213e+01	3.4468	28.615218	0.000547	5.472028	0.926987	0.000110
 175	1.7313e+01	3.4676	28.716147	0.000507	5.066692	0.858321	0.000101
 176	1.7413e+01	3.4869	28.833223	0.000588	5.877363	0.995652	0.000118
 177	1.7512e+01	3.5069	28.918003	0.000426	4.256022	0.720990	0.000085
 178	1.7611e+01	3.5271	29.027006	0.000547	5.472028	0.926987	0.000110
 179	1.7711e+01	3.5466	29.115823	0.000446	4.458689	0.755322	0.000089
 180	1.7811e+01	3.5666	29.240974	0.000628	6.282698	1.064318	0.000126
 181	1.7910e+01	3.5869	29.358051	0.000588	5.877363	0.995652	0.000118
 182	1.8009e+01	3.6065	29.475128	0.000588	5.877363	0.995652	0.000118
 183	1.8109e+01	3.6269	29.608354	0.000669	6.688034	1.132984	0.000134
 184	1.8209e+01	3.6467	29.713319	0.000527	5.269360	0.892654	0.000105
 185	1.8308e+01	3.6673	29.785987	0.000365	3.648018	0.617991	0.000073
 186	1.8407e+01	3.6851	29.882879	0.000486	4.864025	0.823988	0.000097
 187	1.8507e+01	3.7061	29.999956	0.000588	5.877363	0.995652	0.000118
 188	1.8607e+01	3.7256	30.112995	0.000567	5.674695	0.961319	0.000114
 189	1.8706e+01	3.7463	30.213924	0.000507	5.066692	0.858321	0.000101
 190	1.8805e+01	3.7661	30.343112	0.000649	6.485366	1.098651	0.000130
 191	1.8905e+01	3.7850	30.431929	0.000446	4.458689	0.755322	0.000089
 192	1.9005e+01	3.8055	30.540932	0.000547	5.472028	0.926987	0.000110
 193	1.9104e+01	3.8251	30.613600	0.000365	3.648018	0.617991	0.000073
 194	1.9203e+01	3.8448	30.767011	0.000770	7.701372	1.304648	0.000154
 195	1.9303e+01	3.8654	30.843717	0.000385	3.850686	0.652324	0.000077
 196	1.9402e+01	3.8847	30.936571	0.000466	4.661357	0.789655	0.000093
 197	1.9502e+01	3.9068	31.025388	0.000446	4.458689	0.755322	0.000089
 198	1.9602e+01	3.9248	31.158614	0.000669	6.688034	1.132984	0.000134
 199	1.9701e+01	3.9454	31.267616	0.000547	5.472028	0.926987	0.000110
 200	1.9800e+01	3.9660	31.408916	0.000709	7.093369	1.201649	0.000142
 201	1.9900e+01	3.9841	31.461399	0.000263	2.634680	0.446327	0.000053
 202	2.0000e+01	4.0051	31.594624	0.000669	6.688034	1.132984	0.000134
 203	2.0099e+01	4.0240	31.687478	0.000466	4.661357	0.789655	0.000093
 204	2.0198e+01	4.0455	31.816667	0.000649	6.485366	1.098651	0.000130
 205	2.0298e+01	4.0651	31.905484	0.000446	4.458689	0.755322	0.000089
 206	2.0398e+01	4.0852	32.014486	0.000547	5.472028	0.926987	0.000110
 207	2.0497e+01	4.1036	32.099266	0.000426	4.256022	0.720990	0.000085
 208	2.0596e+01	4.1241	32.200195	0.000507	5.066692	0.858321	0.000101
 209	2.0696e+01	4.1447	32.317272	0.000588	5.877363	0.995652	0.000118
 210	2.0796e+01	4.1634	32.410126	0.000466	4.661357	0.789655	0.000093
 211	2.0895e+01	4.1837	32.507017	0.000486	4.864025	0.823988	0.000097
 212	2.0994e+01	4.2037	32.648317	0.000709	7.093369	1.201649	0.000142
 213	2.1094e+01	4.2247	32.737134	0.000446	4.458689	0.755322	0.000089
 214	2.1194e+01	4.2443	32.838062	0.000507	5.066692	0.858321	0.000101
 215	2.1293e+01	4.2645	32.943028	0.000527	5.269360	0.892654	0.000105
 216	2.1392e+01	4.2838	33.027807	0.000426	4.256022	0.720990	0.000085
 217	2.1492e+01	4.3044	33.148922	0.000608	6.080031	1.029985	0.000122
 218	2.1591e+01	4.3235	33.249850	0.000507	5.066692	0.858321	0.000101
 219	2.1691e+01	4.3432	33.358853	0.000547	5.472028	0.926987	0.000110
 220	2.1791e+01	4.3629	33.459781	0.000507	5.066692	0.858321	0.000101
 221	2.1890e+01	4.3832	33.504189	0.000223	2.229345	0.377661	0.000045
 222	2.1989e+01	4.4032	33.641452	0.000689	6.890702	1.167316	0.000138
 223	2.2089e+01	4.4227	33.730269	0.000446	4.458689	0.755322	0.000089
 224	2.2189e+01	4.4435	33.875606	0.000730	7.296037	1.235982	0.000146
 225	2.2288e+01	4.4621	33.956349	0.000405	4.053354	0.686657	0.000081
 226	2.2387e+01	4.4833	34.057277	0.000507	5.066692	0.858321	0.000101
 227	2.2487e+01	4.5025	34.178391	0.000608	6.080031	1.029985	0.000122
 228	2.2587e+01	4.5235	34.242985	0.000324	3.242683	0.549325	0.000065
 229	2.2686e+01	4.5422	34.356025	0.000567	5.674695	0.961319	0.000114
 230	2.2785e+01	4.5621	34.436768	0.000405	4.053354	0.686657	0.000081
 231	2.2885e+01	4.5824	34.525585	0.000446	4.458689	0.755322	0.000089
 232	2.2985e+01	4.6023	34.606328	0.000405	4.053354	0.686657	0.000081
 233	2.3084e+01	4.6233	34.715330	0.000547	5.472028	0.926987	0.000110
 234	2.3183e+01	4.6420	34.856630	0.000709	7.093369	1.201649	0.000142
 235	2.3283e+01	4.6629	34.917187	0.000304	3.040015	0.514993	0.000061
 236	2.3383e+01	4.6819	35.038301	0.000608	6.080031	1.029985	0.000122
 237	2.3482e+01	4.7021	35.135192	0.000486	4.864025	0.823988	0.000097
 238	2.3581e+01	4.7231	35.240158	0.000527	5.269360	0.892654	0.000105
 239	2.3681e+01	4.7413	35.345123	0.000527	5.269360	0.892654	0.000105
 240	2.3780e+01	4.7619	35.401643	0.000284	2.837348	0.480660	0.000057
 241	2.3880e+01	4.7820	35.514683	0.000567	5.674695	0.961319	0.000114
 242	2.3980e+01	4.8025	35.595426	0.000405	4.053354	0.686657	0.000081
 243	2.4079e+01	4.8222	35.728651	0.000669	6.688034	1.132984	0.000134
 244	2.4178e+01	4.8411	35.821505	0.000466	4.661357	0.789655	0.000093
 245	2.4278e+01	4.8617	35.894174	0.000365	3.648018	0.617991	0.000073
 246	2.4378e+01	4.8821	35.974917	0.000405	4.053354	0.686657	0.000081
 247	2.4477e+01	4.9012	36.067771	0.000466	4.661357	0.789655	0.000093
 248	2.4576e+01	4.9215	36.213108	0.000730	7.296037	1.235982	0.000146
 249	2.4676e+01	4.9415	36.249442	0.000182	1.824009	0.308996	0.000037
 250	2.4776e+01	4.9611	36.342296	0.000466	4.661357	0.789655	0.000093
 251	2.4875e+01	4.9816	36.443224	0.000507	5.066692	0.858321	0.000101
 252	2.4974e+01	5.0011	36.568376	0.000628	6.282698	1.064318	0.000126
 253	2.5074e+01	5.0217	36.632970	0.000324	3.242683	0.549325	0.000065
 254	2.5174e+01	5.0416	36.733898	0.000507	5.066692	0.858321	0.000101
 255	2.5273e+01	5.0597	36.842901	0.000547	5.472028	0.926987	0.000110
 256	2.5372e+01	5.0796	36.955941	0.000567	5.674695	0.961319	0.000114
 257	2.5472e+01	5.1011	37.036683	0.000405	4.053354	0.686657	0.000081
 258	2.5572e+01	5.1202	37.133575	0.000486	4.864025	0.823988	0.000097
 259	2.5671e+01	5.1394	37.222392	0.000446	4.458689	0.755322	0.000089
 260	2.5770e+01	5.1596	37.299097	0.000385	3.850686	0.652324	0.000077
 261	2.5870e+01	5.1800	37.416174	0.000588	5.877363	0.995652	0.000118
 262	2.5970e+01	5.1994	37.504991	0.000446	4.458689	0.755322	0.000089
 263	2.6069e+01	5.2205	37.597845	0.000466	4.661357	0.789655	0.000093
 264	2.6169e+01	5.2410	37.710885	0.000567	5.674695	0.961319	0.000114
 265	2.6268e+01	5.2602	37.803739	0.000466	4.661357	0.789655	0.000093
 266	2.6367e+01	5.2801	37.888519	0.000426	4.256022	0.720990	0.000085
 267	2.6467e+01	5.2998	37.997522	0.000547	5.472028	0.926987	0.000110
 268	2.6567e+01	5.3194	38.054041	0.000284	2.837348	0.480660	0.000057
 269	2.6666e+01	5.3400	38.150933	0.000486	4.864025	0.823988	0.000097
 270	2.6765e+01	5.3591	38.263973	0.000567	5.674695	0.961319	0.000114
 271	2.6865e+01	5.3802	38.377012	0.000567	5.674695	0.961319	0.000114
 272	2.6965e+01	5.4003	38.441606	0.000324	3.242683	0.549325	0.000065
 273	2.7064e+01	5.4195	38.570795	0.000649	6.485366	1.098651	0.000130
 274	2.7163e+01	5.4397	38.639426	0.000345	3.445351	0.583658	0.000069
 275	2.7263e+01	5.4592	38.732280	0.000466	4.661357	0.789655	0.000093
 276	2.7363e+01	5.4794	38.841283	0.000547	5.472028	0.926987	0.000110
 277	2.7462e+01	5.4995	38.934137	0.000466	4.661357	0.789655	0.000093
 278	2.7561e+01	5.5181	39.039103	0.000527	5.269360	0.892654	0.000105
 279	2.7661e+01	5.5386	39.115808	0.000385	3.850686	0.652324	0.000077
 280	2.7761e+01	5.5587	39.224811	0.000547	5.472028	0.926987	0.000110
 281	2.7860e+01	5.5798	39.289405	0.000324	3.242683	0.549325	0.000065
 282	2.7959e+01	5.5983	39.410519	0.000608	6.080031	1.029985	0.000122
 283	2.8059e+01	5.6193	39.487225	0.000385	3.850686	0.652324	0.000077
 284	2.8159e+01	5.6390	39.580079	0.000466	4.661357	0.789655	0.000093
 285	2.8258e+01	5.6593	39.660821	0.000405	4.053354	0.686657	0.000081
 286	2.8358e+01	5.6784	39.765787	0.000527	5.269360	0.892654	0.000105
 287	2.8457e+01	5.6988	39.838455	0.000365	3.648018	0.617991	0.000073
 288	2.8556e+01	5.7185	39.931310	0.000466	4.661357	0.789655	0.000093
 289	2.8656e+01	5.7390	40.036275	0.000527	5.269360	0.892654	0.000105
 290	2.8756e+01	5.7574	40.104906	0.000345	3.445351	0.583658	0.000069
 291	2.8855e+01	5.7781	40.197761	0.000466	4.661357	0.789655	0.000093
 292	2.8954e+01	5.7973	40.298689	0.000507	5.066692	0.858321	0.000101
 293	2.9054e+01	5.8172	40.423840	0.000628	6.282698	1.064318	0.000126
 294	2.9154e+01	5.8373	40.439989	0.000081	0.810671	0.137331	0.000016
 295	2.9253e+01	5.8572	40.557066	0.000588	5.877363	0.995652	0.000118
 296	2.9352e+01	5.8782	40.674143	0.000588	5.877363	0.995652	0.000118
 297	2.9452e+01	5.8974	40.750848	0.000385	3.850686	0.652324	0.000077
 298	2.9552e+01	5.9173	40.815442	0.000324	3.242683	0.549325	0.000065
 299	2.9651e+01	5.9368	40.928482	0.000567	5.674695	0.961319	0.000114
 300	2.9750e+01	5.9573	41.029411	0.000507	5.066692	0.858321	0.000101
 301	2.9850e+01	5.9765	41.150525	0.000608	6.080031	1.029985	0.000122
 302	2.9950e+01	5.9966	41.198970	0.000243	2.432012	0.411994	0.000049
 303	3.0049e+01	6.0167	41.291824	0.000466	4.661357	0.789655	0.000093
 304	3.0148e+01	6.0365	41.392753	0.000507	5.066692	0.858321	0.000101
 305	3.0248e+01	6.0571	41.509830	0.000588	5.877363	0.995652	0.000118
 306	3.0348e+01	6.0766	41.578461	0.000345	3.445351	0.583658	0.000069
 307	3.0447e+01	6.0973	41.671315	0.000466	4.661357	0.789655	0.000093
 308	3.0547e+01	6.1166	41.784355	0.000567	5.674695	0.961319	0.000114
 309	3.0646e+01	6.1367	41.848949	0.000324	3.242683	0.549325	0.000065
 310	3.0745e+01	6.1572	41.925655	0.000385	3.850686	0.652324	0.000077
 311	3.0845e+01	6.1771	42.034657	0.000547	5.472028	0.926987	0.000110
 312	3.0945e+01	6.1961	42.131549	0.000486	4.864025	0.823988	0.000097
 313	3.1044e+01	6.2167	42.220366	0.000446	4.458689	0.755322	0.000089
 314	3.1143e+01	6.2370	42.341480	0.000608	6.080031	1.029985	0.000122
 315	3.1243e+01	6.2572	42.414148	0.000365	3.648018	0.617991	0.000073
 316	3.1343e+01	6.2769	42.515076	0.000507	5.066692	0.858321	0.000101
 317	3.1442e+01	6.2969	42.579671	0.000324	3.242683	0.549325	0.000065
 318	3.1541e+01	6.3216	42.684636	0.000527	5.269360	0.892654	0.000105
 319	3.1641e+01	6.3363	42.773453	0.000446	4.458689	0.755322	0.000089
 320	3.1741e+01	6.3551	42.886493	0.000567	5.674695	0.961319	0.000114
 321	3.1840e+01	6.3750	42.967236	0.000405	4.053354	0.686657	0.000081
 322	3.1939e+01	6.3941	43.064127	0.000486	4.864025	0.823988	0.000097
 323	3.2039e+01	6.4146	43.156981	0.000466	4.661357	0.789655	0.000093
 324	3.2139e+01	6.4353	43.217538	0.000304	3.040015	0.514993	0.000061
 325	3.2238e+01	6.4552	43.326541	0.000547	5.472028	0.926987	0.000110
 326	3.2337e+01	6.4751	43.475915	0.000750	7.498705	1.270315	0.000150
 327	3.2437e+01	6.4942	43.520323	0.000223	2.229345	0.377661	0.000045
 328	3.2536e+01	6.5153	43.609140	0.000446	4.458689	0.755322	0.000089
 329	3.2636e+01	6.5343	43.697957	0.000446	4.458689	0.755322	0.000089
 330	3.2736e+01	6.5542	43.782737	0.000426	4.256022	0.720990	0.000085
 331	3.2835e+01	6.5737	43.915963	0.000669	6.688034	1.132984	0.000134
 332	3.2934e+01	6.5939	43.988631	0.000365	3.648018	0.617991	0.000073
 333	3.3034e+01	6.6140	44.081485	0.000466	4.661357	0.789655	0.000093
 334	3.3133e+01	6.6341	44.202599	0.000608	6.080031	1.029985	0.000122
 335	3.3233e+01	6.6540	44.275268	0.000365	3.648018	0.617991	0.000073
 336	3.3333e+01	6.6740	44.364085	0.000446	4.458689	0.755322	0.000089
 337	3.3432e+01	6.6946	44.436753	0.000365	3.648018	0.617991	0.000073
 338	3.3532e+01	6.7149	44.537681	0.000507	5.066692	0.858321	0.000101
 339	3.3631e+01	6.7345	44.642647	0.000527	5.269360	0.892654	0.000105
 340	3.3730e+01	6.7544	44.755687	0.000567	5.674695	0.961319	0.000114
 341	3.3830e+01	6.7747	44.824318	0.000345	3.445351	0.583658	0.000069
 342	3.3929e+01	6.7936	44.925246	0.000507	5.066692	0.858321	0.000101
 343	3.4029e+01	6.8138	45.034249	0.000547	5.472028	0.926987	0.000110
 344	3.4129e+01	6.8337	45.090769	0.000284	2.837348	0.480660	0.000057
 345	3.4228e+01	6.8546	45.203809	0.000567	5.674695	0.961319	0.000114
 346	3.4328e+01	6.8731	45.272440	0.000345	3.445351	0.583658	0.000069
 347	3.4427e+01	6.8937	45.361257	0.000446	4.458689	0.755322	0.000089
 348	3.4526e+01	6.9139	45.494483	0.000669	6.688034	1.132984	0.000134
 349	3.4626e+01	6.9332	45.546965	0.000263	2.634680	0.446327	0.000053
 350	3.4725e+01	6.9538	45.647894	0.000507	5.066692	0.858321	0.000101
 351	3.4825e+01	6.9732	45.740748	0.000466	4.661357	0.789655	0.000093
 352	3.4925e+01	6.9930	45.845713	0.000527	5.269360	0.892654	0.000105
 353	3.5024e+01	7.0124	45.934530	0.000446	4.458689	0.755322	0.000089
 354	3.5123e+01	7.0326	46.023347	0.000446	4.458689	0.755322	0.000089
 355	3.5223e+01	7.0527	46.128313	0.000527	5.269360	0.892654	0.000105
 356	3.5322e+01	7.0723	46.200981	0.000365	3.648018	0.617991	0.000073
 357	3.5422e+01	7.0921	46.289798	0.000446	4.458689	0.755322	0.000089
 358	3.5522e+01	7.1124	46.346318	0.000284	2.837348	0.480660	0.000057
 359	3.5621e+01	7.1307	46.503767	0.000790	7.904040	1.338981	0.000158
 360	3.5721e+01	7.1522	46.576435	0.000365	3.648018	0.617991	0.000073
 361	3.5820e+01	7.1722	46.649103	0.000365	3.648018	0.617991	0.000073
 362	3.5919e+01	7.1929	46.750032	0.000507	5.066692	0.858321	0.000101
 363	3.6019e+01	7.2119	46.875183	0.000628	6.282698	1.064318	0.000126
 364	3.6118e+01	7.2317	46.915554	0.000203	2.026677	0.343328	0.000041
 365	3.6218e+01	7.2518	47.012446	0.000486	4.864025	0.823988	0.000097
 366	3.6318e+01	7.2723	47.109337	0.000486	4.864025	0.823988	0.000097
 367	3.6417e+01	7.2913	47.226414	0.000588	5.877363	0.995652	0.000118
 368	3.6517e+01	7.3111	47.339454	0.000567	5.674695	0.961319	0.000114
 369	3.6616e+01	7.3323	47.432308	0.000466	4.661357	0.789655	0.000093
 370	3.6715e+01	7.3510	47.480753	0.000243	2.432012	0.411994	0.000049
 371	3.6815e+01	7.3713	47.597830	0.000588	5.877363	0.995652	0.000118
 372	3.6914e+01	7.3916	47.698759	0.000507	5.066692	0.858321	0.000101
 373	3.7014e+01	7.4110	47.799687	0.000507	5.066692	0.858321	0.000101
 374	3.7114e+01	7.4317	47.916764	0.000588	5.877363	0.995652	0.000118
 375	3.7213e+01	7.4514	47.985395	0.000345	3.445351	0.583658	0.000069
 376	3.7313e+01	7.4707	48.102472	0.000588	5.877363	0.995652	0.000118
 377	3.7412e+01	7.4908	48.207438	0.000527	5.269360	0.892654	0.000105
 378	3.7511e+01	7.5101	48.288181	0.000405	4.053354	0.686657	0.000081
 379	3.7611e+01	7.5306	48.393146	0.000527	5.269360	0.892654	0.000105
 380	3.7711e+01	7.5502	48.494074	0.000507	5.066692	0.858321	0.000101
 381	3.7810e+01	7.5713	48.631337	0.000689	6.890702	1.167316	0.000138
 382	3.7910e+01	7.5909	48.683820	0.000263	2.634680	0.446327	0.000053
 383	3.8009e+01	7.6098	48.804934	0.000608	6.080031	1.029985	0.000122
 384	3.8108e+01	7.6307	48.901825	0.000486	4.864025	0.823988	0.000097
 385	3.8208e+01	7.6514	48.986605	0.000426	4.256022	0.720990	0.000085
 386	3.8307e+01	7.6704	49.107719	0.000608	6.080031	1.029985	0.000122
 387	3.8407e+01	7.6905	49.208648	0.000507	5.066692	0.858321	0.000101
 388	3.8507e+01	7.7100	49.345910	0.000689	6.890702	1.167316	0.000138
 389	3.8606e+01	7.7297	49.426653	0.000405	4.053354	0.686657	0.000081
 390	3.8706e+01	7.7502	49.467024	0.000203	2.026677	0.343328	0.000041
 391	3.8805e+01	7.7695	49.616398	0.000750	7.498705	1.270315	0.000150
 392	3.8904e+01	7.7897	49.729438	0.000567	5.674695	0.961319	0.000114
 393	3.9004e+01	7.8095	49.806144	0.000385	3.850686	0.652324	0.000077
 394	3.9103e+01	7.8294	49.915146	0.000547	5.472028	0.926987	0.000110
 395	3.9203e+01	7.8490	49.987815	0.000365	3.648018	0.617991	0.000073
 396	3.9303e+01	7.8695	50.108929	0.000608	6.080031	1.029985	0.000122
 397	3.9402e+01	7.8886	50.201783	0.000466	4.661357	0.789655	0.000093
 398	3.9502e+01	7.9099	50.335008	0.000669	6.688034	1.132984	0.000134
 399	3.9601e+01	7.9301	50.431900	0.000486	4.864025	0.823988	0.000097
 400	3.9700e+01	7.9495	50.565125	0.000669	6.688034	1.132984	0.000134
 401	3.9800e+01	7.9699	50.649905	0.000426	4.256022	0.720990	0.000085
 402	3.9900e+01	7.9890	50.714499	0.000324	3.242683	0.549325	0.000065
 403	3.9999e+01	8.0093	50.771019	0.000284	2.837348	0.480660	0.000057
 404	4.0099e+01	8.0282	50.896170	0.000628	6.282698	1.064318	0.000126
 405	4.0198e+01	8.0486	50.997099	0.000507	5.066692	0.858321	0.000101
 406	4.0297e+01	8.0682	51.093990	0.000486	4.864025	0.823988	0.000097
 407	4.0397e+01	8.0880	51.170695	0.000385	3.850686	0.652324	0.000077
 408	4.0496e+01	8.1084	51.291810	0.000608	6.080031	1.029985	0.000122
 409	4.0596e+01	8.1283	51.356404	0.000324	3.242683	0.549325	0.000065
 410	4.0696e+01	8.1487	51.465406	0.000547	5.472028	0.926987	0.000110
 411	4.0795e+01	8.1676	51.546149	0.000405	4.053354	0.686657	0.000081
 412	4.0895e+01	8.1886	51.659189	0.000567	5.674695	0.961319	0.000114
 413	4.0994e+01	8.2081	51.760117	0.000507	5.066692	0.858321	0.000101
 414	4.1093e+01	8.2287	51.840860	0.000405	4.053354	0.686657	0.000081
 415	4.1193e+01	8.2478	51.953900	0.000567	5.674695	0.961319	0.000114
 416	4.1292e+01	8.2677	52.062902	0.000547	5.472028	0.926987	0.000110
 417	4.1392e+01	8.2880	52.171905	0.000547	5.472028	0.926987	0.000110
 418	4.1492e+01	8.3083	52.284945	0.000567	5.674695	0.961319	0.000114
 419	4.1591e+01	8.3277	52.373762	0.000446	4.458689	0.755322	0.000089
 420	4.1691e+01	8.3474	52.462579	0.000446	4.458689	0.755322	0.000089
 421	4.1790e+01	8.3678	52.563507	0.000507	5.066692	0.858321	0.000101
 422	4.1889e+01	8.3871	52.644250	0.000405	4.053354	0.686657	0.000081
 423	4.1989e+01	8.4075	52.781513	0.000689	6.890702	1.167316	0.000138
 424	4.2089e+01	8.4261	52.846107	0.000324	3.242683	0.549325	0.000065
 425	4.2188e+01	8.4473	52.987407	0.000709	7.093369	1.201649	0.000142
 426	4.2288e+01	8.4669	53.092372	0.000527	5.269360	0.892654	0.000105
 427	4.2387e+01	8.4872	53.209449	0.000588	5.877363	0.995652	0.000118
 428	4.2486e+01	8.5072	53.302303	0.000466	4.661357	0.789655	0.000093
 429	4.2586e+01	8.5273	53.403232	0.000507	5.066692	0.858321	0.000101
 430	4.2685e+01	8.5464	53.483974	0.000405	4.053354	0.686657	0.000081
 431	4.2785e+01	8.5661	53.544531	0.000304	3.040015	0.514993	0.000061
 432	4.2885e+01	8.5866	53.689868	0.000730	7.296037	1.235982	0.000146
 433	4.2984e+01	8.6069	53.782722	0.000466	4.661357	0.789655	0.000093
 434	4.3084e+01	8.6263	53.899799	0.000588	5.877363	0.995652	0.000118
 435	4.3183e+01	8.6462	53.972468	0.000365	3.648018	0.617991	0.000073
 436	4.3282e+01	8.6671	54.085507	0.000567	5.674695	0.961319	0.000114
 437	4.3382e+01	8.6868	54.214696	0.000649	6.485366	1.098651	0.000130
 438	4.3481e+01	8.7069	54.287364	0.000365	3.648018	0.617991	0.000073
 439	4.3581e+01	8.7261	54.380218	0.000466	4.661357	0.789655	0.000093
 440	4.3681e+01	8.7457	54.464998	0.000426	4.256022	0.720990	0.000085
 441	4.3780e+01	8.7656	54.557852	0.000466	4.661357	0.789655	0.000093
 442	4.3880e+01	8.7859	54.678966	0.000608	6.080031	1.029985	0.000122
 443	4.3979e+01	8.8065	54.792006	0.000567	5.674695	0.961319	0.000114
 444	4.4078e+01	8.8252	54.901009	0.000547	5.472028	0.926987	0.000110
 445	4.4178e+01	8.8452	54.969640	0.000345	3.445351	0.583658	0.000069
 446	4.4278e+01	8.8653	55.074606	0.000527	5.269360	0.892654	0.000105
 447	4.4377e+01	8.8847	55.175534	0.000507	5.066692	0.858321	0.000101
 448	4.4477e+01	8.9048	55.324908	0.000750	7.498705	1.270315	0.000150
 449	4.4576e+01	8.9269	55.441985	0.000588	5.877363	0.995652	0.000118
 450	4.4675e+01	8.9437	55.571173	0.000649	6.485366	1.098651	0.000130
 451	4.4775e+01	8.9646	55.716510	0.000730	7.296037	1.235982	0.000146
 452	4.4874e+01	8.9835	55.829550	0.000567	5.674695	0.961319	0.000114
 453	4.4974e+01	9.0045	55.918367	0.000446	4.458689	0.755322	0.000089
 454	4.5074e+01	9.0228	56.039481	0.000608	6.080031	1.029985	0.000122
 455	4.5173e+01	9.0434	56.176744	0.000689	6.890702	1.167316	0.000138
 456	4.5273e+01	9.0644	56.261524	0.000426	4.256022	0.720990	0.000085
 457	4.5372e+01	9.0842	56.418972	0.000790	7.904040	1.338981	0.000158
 458	4.5471e+01	9.1039	56.507789	0.000446	4.458689	0.755322	0.000089
 459	4.5571e+01	9.1244	56.600643	0.000466	4.661357	0.789655	0.000093
 460	4.5670e+01	9.1438	56.762128	0.000811	8.106708	1.373313	0.000162
 461	4.5770e+01	9.1637	56.871131	0.000547	5.472028	0.926987	0.000110
 462	4.5870e+01	9.1836	56.984171	0.000567	5.674695	0.961319	0.000114
 463	4.5969e+01	9.2034	57.145656	0.000811	8.106708	1.373313	0.000162
 464	4.6069e+01	9.2233	57.238510	0.000466	4.661357	0.789655	0.000093
 465	4.6168e+01	9.2437	57.331365	0.000466	4.661357	0.789655	0.000093
 466	4.6267e+01	9.2638	57.460553	0.000649	6.485366	1.098651	0.000130
 467	4.6367e+01	9.2841	57.622038	0.000811	8.106708	1.373313	0.000162
 468	4.6467e+01	9.3029	57.722967	0.000507	5.066692	0.858321	0.000101
 469	4.6566e+01	9.3237	57.856192	0.000669	6.688034	1.132984	0.000134
 470	4.6666e+01	9.3429	57.973269	0.000588	5.877363	0.995652	0.000118
 471	4.6765e+01	9.3630	58.126680	0.000770	7.701372	1.304648	0.000154
 472	4.6864e+01	9.3830	58.247794	0.000608	6.080031	1.029985	0.000122
 473	4.6964e+01	9.4025	58.352760	0.000527	5.269360	0.892654	0.000105
 474	4.7063e+01	9.4228	58.514245	0.000811	8.106708	1.373313	0.000162
 475	4.7163e+01	9.4436	58.611137	0.000486	4.864025	0.823988	0.000097
 476	4.7263e+01	9.4616	58.740325	0.000649	6.485366	1.098651	0.000130
 477	4.7362e+01	9.4825	58.817031	0.000385	3.850686	0.652324	0.000077
 478	4.7462e+01	9.5029	58.966405	0.000750	7.498705	1.270315	0.000150
 479	4.7561e+01	9.5215	59.083482	0.000588	5.877363	0.995652	0.000118
 480	4.7660e+01	9.5415	59.244967	0.000811	8.106708	1.373313	0.000162
 481	4.7760e+01	9.5621	59.313598	0.000345	3.445351	0.583658	0.000069
 482	4.7859e+01	9.5864	59.499307	0.000932	9.322714	1.579310	0.000187
 483	4.7959e+01	9.6014	59.624458	0.000628	6.282698	1.064318	0.000126
 484	4.8059e+01	9.6217	59.765757	0.000709	7.093369	1.201649	0.000142
 485	4.8158e+01	9.6418	59.874760	0.000547	5.472028	0.926987	0.000110
 486	4.8258e+01	9.6618	59.951466	0.000385	3.850686	0.652324	0.000077
 487	4.8357e+01	9.6815	60.116988	0.000831	8.309375	1.407646	0.000166
 488	4.8456e+01	9.7008	60.225991	0.000547	5.472028	0.926987	0.000110
 489	4.8556e+01	9.7217	60.371328	0.000730	7.296037	1.235982	0.000146
 490	4.8656e+01	9.7418	60.488405	0.000588	5.877363	0.995652	0.000118
 491	4.8755e+01	9.7602	60.653927	0.000831	8.309375	1.407646	0.000166
 492	4.8855e+01	9.7813	60.783116	0.000649	6.485366	1.098651	0.000130
 493	4.8954e+01	9.8008	60.928453	0.000730	7.296037	1.235982	0.000146
 494	4.9053e+01	9.8209	61.073789	0.000730	7.296037	1.235982	0.000146
 495	4.9153e+01	9.8409	61.182792	0.000547	5.472028	0.926987	0.000110
 496	4.9252e+01	9.8609	61.336203	0.000770	7.701372	1.304648	0.000154
 497	4.9352e+01	9.8806	61.433095	0.000486	4.864025	0.823988	0.000097
 498	4.9452e+01	9.9010	61.570357	0.000689	6.890702	1.167316	0.000138
 499	4.9551e+01	9.9210	61.691471	0.000608	6.080031	1.029985	0.000122
 500	4.9651e+01	9.9397	61.865068	0.000871	8.714711	1.476312	0.000174
 501	4.9750e+01	9.9599	61.982145	0.000588	5.877363	0.995652	0.000118
 502	4.9849e+01	9.9798	62.115370	0.000669	6.688034	1.132984	0.000134
 503	4.9949e+01	9.9999	62.272819	0.000790	7.904040	1.338981	0.000158
 504	5.0048e+01	9.9807	62.272819	-0.000000	-0.000000	-0.000000	0.000000
 505	5.0148e+01	9.9601	62.301079	-0.000142	-1.418674	-0.240330	0.000028
 506	5.0248e+01	9.9389	62.305116	-0.000020	-0.202668	-0.034333	0.000004
 507	5.0347e+01	9.9206	62.309153	-0.000020	-0.202668	-0.034333	0.000004
 508	5.0447e+01	9.8997	62.341450	-0.000162	-1.621342	-0.274663	0.000032
 509	5.0546e+01	9.8800	62.353561	-0.000061	-0.608003	-0.102999	0.000012
 510	5.0645e+01	9.8605	62.385859	-0.000162	-1.621342	-0.274663	0.000032
 511	5.0745e+01	9.8406	62.402007	-0.000081	-0.810671	-0.137331	0.000016
 512	5.0844e+01	9.8214	62.422193	-0.000101	-1.013338	-0.171664	0.000020
 513	5.0944e+01	9.8019	62.438341	-0.000081	-0.810671	-0.137331	0.000016
 514	5.1044e+01	9.7814	62.446416	-0.000041	-0.405335	-0.068666	0.000008
 515	5.1143e+01	9.7613	62.442378	0.000020	0.202668	0.034333	-0.000004
 516	5.1242e+01	9.7429	62.446416	-0.000020	-0.202668	-0.034333	0.000004
 517	5.1342e+01	9.7217	62.478713	-0.000162	-1.621342	-0.274663	0.000032
 518	5.1441e+01	9.7005	62.454490	0.000122	1.216006	0.205997	-0.000024
 519	5.1541e+01	9.6818	62.482750	-0.000142	-1.418674	-0.240330	0.000028
 520	5.1641e+01	9.6616	62.466601	0.000081	0.810671	0.137331	-0.000016
 521	5.1740e+01	9.6420	62.426230	0.000203	2.026677	0.343328	-0.000041
 522	5.1840e+01	9.6211	62.458527	-0.000162	-1.621342	-0.274663	0.000032
 523	5.1939e+01	9.6014	62.494861	-0.000182	-1.824009	-0.308996	0.000037
 524	5.2038e+01	9.5822	62.450453	0.000223	2.229345	0.377661	-0.000045
 525	5.2138e+01	9.5621	62.438341	0.000061	0.608003	0.102999	-0.000012
 526	5.2237e+01	9.5422	62.434304	0.000020	0.202668	0.034333	-0.000004
 527	5.2337e+01	9.5223	62.450453	-0.000081	-0.810671	-0.137331	0.000016
 528	5.2437e+01	9.5022	62.414119	0.000182	1.824009	0.308996	-0.000037
 529	5.2536e+01	9.4820	62.406044	0.000041	0.405335	0.068666	-0.000008
 530	5.2636e+01	9.4616	62.462564	-0.000284	-2.837348	-0.480660	0.000057
 531	5.2735e+01	9.4427	62.426230	0.000182	1.824009	0.308996	-0.000037
 532	5.2834e+01	9.4225	62.410081	0.000081	0.810671	0.137331	-0.000016
 533	5.2934e+01	9.4030	62.402007	0.000041	0.405335	0.068666	-0.000008
 534	5.3033e+01	9.3829	62.434304	-0.000162	-1.621342	-0.274663	0.000032
 535	5.3133e+01	9.3629	62.446416	-0.000061	-0.608003	-0.102999	0.000012
 536	5.3233e+01	9.3426	62.450453	-0.000020	-0.202668	-0.034333	0.000004
 537	5.3332e+01	9.3230	62.442378	0.000041	0.405335	0.068666	-0.000008
 538	5.3431e+01	9.3031	62.414119	0.000142	1.418674	0.240330	-0.000028
 539	5.3531e+01	9.2849	62.410081	0.000020	0.202668	0.034333	-0.000004
 540	5.3630e+01	9.2632	62.414119	-0.000020	-0.202668	-0.034333	0.000004
 541	5.3730e+01	9.2443	62.426230	-0.000061	-0.608003	-0.102999	0.000012
 542	5.3830e+01	9.2231	62.402007	0.000122	1.216006	0.205997	-0.000024
 543	5.3929e+01	9.2052	62.365673	0.000182	1.824009	0.308996	-0.000037
 544	5.4029e+01	9.1834	62.321264	0.000223	2.229345	0.377661	-0.000045
 545	5.4128e+01	9.1650	62.329339	-0.000041	-0.405335	-0.068666	0.000008
 546	5.4227e+01	9.1438	62.288967	0.000203	2.026677	0.343328	-0.000041
 547	5.4327e+01	9.1238	62.256670	0.000162	1.621342	0.274663	-0.000032
 548	5.4426e+01	9.1036	62.264744	-0.000041	-0.405335	-0.068666	0.000008
 549	5.4526e+01	9.0838	62.232447	0.000162	1.621342	0.274663	-0.000032
 550	5.4626e+01	9.0638	62.236485	-0.000020	-0.202668	-0.034333	0.000004
 551	5.4725e+01	9.0444	62.256670	-0.000101	-1.013338	-0.171664	0.000020
 552	5.4825e+01	9.0237	62.175928	0.000405	4.053354	0.686657	-0.000081
 553	5.4924e+01	9.0035	62.171890	0.000020	0.202668	0.034333	-0.000004
 554	5.5023e+01	8.9844	62.143630	0.000142	1.418674	0.240330	-0.000028
 555	5.5123e+01	8.9635	62.147668	-0.000020	-0.202668	-0.034333	0.000004
 556	5.5222e+01	8.9437	62.107296	0.000203	2.026677	0.343328	-0.000041
 557	5.5322e+01	8.9251	62.083073	0.000122	1.216006	0.205997	-0.000024
 558	5.5422e+01	8.9063	62.083073	-0.000000	-0.000000	-0.000000	0.000000
 559	5.5521e+01	8.8847	62.058851	0.000122	1.216006	0.205997	-0.000024
 560	5.5620e+01	8.8647	62.074999	-0.000081	-0.810671	-0.137331	0.000016
 561	5.5720e+01	8.8453	62.066925	0.000041	0.405335	0.068666	-0.000008
 562	5.5819e+01	8.8258	62.002331	0.000324	3.242683	0.549325	-0.000065
 563	5.5919e+01	8.8056	62.038665	-0.000182	-1.824009	-0.308996	0.000037
 564	5.6019e+01	8.7855	61.978108	0.000304	3.040015	0.514993	-0.000061
 565	5.6118e+01	8.7656	61.941774	0.000182	1.824009	0.308996	-0.000037
 566	5.6218e+01	8.7456	61.925625	0.000081	0.810671	0.137331	-0.000016
 567	5.6317e+01	8.7267	61.937736	-0.000061	-0.608003	-0.102999	0.000012
 568	5.6416e+01	8.7061	61.889291	0.000243	2.432012	0.411994	-0.000049
 569	5.6516e+01	8.6867	61.848920	0.000203	2.026677	0.343328	-0.000041
 570	5.6615e+01	8.6666	61.832771	0.000081	0.810671	0.137331	-0.000016
 571	5.6715e+01	8.6459	61.784325	0.000243	2.432012	0.411994	-0.000049
 572	5.6815e+01	8.6258	61.723768	0.000304	3.040015	0.514993	-0.000061
 573	5.6914e+01	8.6071	61.699545	0.000122	1.216006	0.205997	-0.000024
 574	5.7014e+01	8.5870	61.655137	0.000223	2.229345	0.377661	-0.000045
 575	5.7113e+01	8.5662	61.618803	0.000182	1.824009	0.308996	-0.000037
 576	5.7212e+01	8.5468	61.570357	0.000243	2.432012	0.411994	-0.000049
 577	5.7312e+01	8.5271	61.521912	0.000243	2.432012	0.411994	-0.000049
 578	5.7411e+01	8.5073	61.465392	0.000284	2.837348	0.480660	-0.000057
 579	5.7511e+01	8.4873	61.469429	-0.000020	-0.202668	-0.034333	0.000004
 580	5.7611e+01	8.4678	61.380612	0.000446	4.458689	0.755322	-0.000089
 581	5.7710e+01	8.4472	61.311980	0.000345	3.445351	0.583658	-0.000069
 582	5.7809e+01	8.4274	61.263535	0.000243	2.432012	0.411994	-0.000049
 583	5.7909e+01	8.4066	61.247386	0.000081	0.810671	0.137331	-0.000016
 584	5.8008e+01	8.3869	61.227201	0.000101	1.013338	0.171664	-0.000020
 585	5.8108e+01	8.3681	61.182792	0.000223	2.229345	0.377661	-0.000045
 586	5.8208e+01	8.3471	61.150495	0.000162	1.621342	0.274663	-0.000032
 587	5.8307e+01	8.3266	61.037455	0.000567	5.674695	0.961319	-0.000114
 588	5.8407e+01	8.3083	61.013232	0.000122	1.216006	0.205997	-0.000024
 589	5.8506e+01	8.2886	60.956713	0.000284	2.837348	0.480660	-0.000057
 590	5.8605e+01	8.2677	60.908267	0.000243	2.432012	0.411994	-0.000049
 591	5.8705e+01	8.2471	60.884044	0.000122	1.216006	0.205997	-0.000024
 592	5.8804e+01	8.2290	60.791190	0.000466	4.661357	0.789655	-0.000093
 593	5.8904e+01	8.2082	60.775041	0.000081	0.810671	0.137331	-0.000016
 594	5.9004e+01	8.1878	60.710447	0.000324	3.242683	0.549325	-0.000065
 595	5.9103e+01	8.1676	60.649890	0.000304	3.040015	0.514993	-0.000061
 596	5.9203e+01	8.1481	60.605482	0.000223	2.229345	0.377661	-0.000045
 597	5.9302e+01	8.1281	60.557036	0.000243	2.432012	0.411994	-0.000049
 598	5.9401e+01	8.1090	60.480330	0.000385	3.850686	0.652324	-0.000077
 599	5.9501e+01	8.0897	60.443996	0.000182	1.824009	0.308996	-0.000037
 600	5.9600e+01	8.0696	60.431885	0.000061	0.608003	0.102999	-0.000012
 601	5.9700e+01	8.0486	60.371328	0.000304	3.040015	0.514993	-0.000061
 602	5.9800e+01	8.0295	60.306734	0.000324	3.242683	0.549325	-0.000065
 603	5.9899e+01	8.0100	60.225991	0.000405	4.053354	0.686657	-0.000081
 604	5.9998e+01	7.9883	60.181582	0.000223	2.229345	0.377661	-0.000045
 605	6.0098e+01	7.9678	60.157360	0.000122	1.216006	0.205997	-0.000024
 606	6.0197e+01	7.9485	60.108914	0.000243	2.432012	0.411994	-0.000049
 607	6.0297e+01	7.9299	60.028171	0.000405	4.053354	0.686657	-0.000081
 608	6.0397e+01	7.9096	60.012023	0.000081	0.810671	0.137331	-0.000016
 609	6.0496e+01	7.8903	59.947429	0.000324	3.242683	0.549325	-0.000065
 610	6.0596e+01	7.8695	59.874760	0.000365	3.648018	0.617991	-0.000073
 611	6.0695e+01	7.8494	59.814203	0.000304	3.040015	0.514993	-0.000061
 612	6.0794e+01	7.8300	59.773832	0.000203	2.026677	0.343328	-0.000041
 613	6.0894e+01	7.8086	59.713275	0.000304	3.040015	0.514993	-0.000061
 614	6.0993e+01	7.7898	59.668866	0.000223	2.229345	0.377661	-0.000045
 615	6.1093e+01	7.7694	59.588123	0.000405	4.053354	0.686657	-0.000081
 616	6.1193e+01	7.7495	59.535641	0.000263	2.634680	0.446327	-0.000053
 617	6.1292e+01	7.7303	59.487195	0.000243	2.432012	0.411994	-0.000049
 618	6.1392e+01	7.7102	59.414527	0.000365	3.648018	0.617991	-0.000073
 619	6.1491e+01	7.6894	59.362044	0.000263	2.634680	0.446327	-0.000053
 620	6.1590e+01	7.6693	59.305524	0.000284	2.837348	0.480660	-0.000057
 621	6.1690e+01	7.6505	59.236893	0.000345	3.445351	0.583658	-0.000069
 622	6.1789e+01	7.6308	59.172299	0.000324	3.242683	0.549325	-0.000065
 623	6.1889e+01	7.6099	59.144039	0.000142	1.418674	0.240330	-0.000028
 624	6.1989e+01	7.5905	59.075407	0.000345	3.445351	0.583658	-0.000069
 625	6.2088e+01	7.5700	59.026962	0.000243	2.432012	0.411994	-0.000049
 626	6.2188e+01	7.5497	58.930070	0.000486	4.864025	0.823988	-0.000097
 627	6.2287e+01	7.5317	58.913922	0.000081	0.810671	0.137331	-0.000016
 628	6.2386e+01	7.5115	58.885662	0.000142	1.418674	0.240330	-0.000028
 629	6.2486e+01	7.4912	58.780696	0.000527	5.269360	0.892654	-0.000105
 630	6.2586e+01	7.4711	58.732251	0.000243	2.432012	0.411994	-0.000049
 631	6.2685e+01	7.4520	58.687842	0.000223	2.229345	0.377661	-0.000045
 632	6.2785e+01	7.4311	58.639397	0.000243	2.432012	0.411994	-0.000049
 633	6.2884e+01	7.4117	58.607100	0.000162	1.621342	0.274663	-0.000032
 634	6.2983e+01	7.3907	58.510208	0.000486	4.864025	0.823988	-0.000097
 635	6.3083e+01	7.3702	58.481948	0.000142	1.418674	0.240330	-0.000028
 636	6.3182e+01	7.3512	58.413317	0.000345	3.445351	0.583658	-0.000069
 637	6.3282e+01	7.3313	58.393131	0.000101	1.013338	0.171664	-0.000020
 638	6.3382e+01	7.3111	58.308351	0.000426	4.256022	0.720990	-0.000085
 639	6.3481e+01	7.2919	58.243757	0.000324	3.242683	0.549325	-0.000065
 640	6.3581e+01	7.2723	58.215497	0.000142	1.418674	0.240330	-0.000028
 641	6.3680e+01	7.2526	58.134755	0.000405	4.053354	0.686657	-0.000081
 642	6.3779e+01	7.2320	58.066123	0.000345	3.445351	0.583658	-0.000069
 643	6.3879e+01	7.2119	57.993455	0.000365	3.648018	0.617991	-0.000073
 644	6.3978e+01	7.1919	57.961158	0.000162	1.621342	0.274663	-0.000032
 645	6.4078e+01	7.1709	57.932898	0.000142	1.418674	0.240330	-0.000028
 646	6.4177e+01	7.1519	57.884452	0.000243	2.432012	0.411994	-0.000049
 647	6.4277e+01	7.1329	57.783524	0.000507	5.066692	0.858321	-0.000101
 648	6.4376e+01	7.1123	57.739115	0.000223	2.229345	0.377661	-0.000045
 649	6.4476e+01	7.0926	57.666447	0.000365	3.648018	0.617991	-0.000073
 650	6.4576e+01	7.0718	57.589741	0.000385	3.850686	0.652324	-0.000077
 651	6.4675e+01	7.0502	57.561481	0.000142	1.418674	0.240330	-0.000028
 652	6.4775e+01	7.0322	57.488813	0.000365	3.648018	0.617991	-0.000073
 653	6.4874e+01	7.0123	57.428256	0.000304	3.040015	0.514993	-0.000061
 654	6.4974e+01	6.9927	57.363662	0.000324	3.242683	0.549325	-0.000065
 655	6.5073e+01	6.9736	57.351550	0.000061	0.608003	0.102999	-0.000012
 656	6.5172e+01	6.9531	57.286956	0.000324	3.242683	0.549325	-0.000065
 657	6.5272e+01	6.9332	57.222362	0.000324	3.242683	0.549325	-0.000065
 658	6.5371e+01	6.9126	57.157768	0.000324	3.242683	0.549325	-0.000065
 659	6.5471e+01	6.8946	57.052802	0.000527	5.269360	0.892654	-0.000105
 660	6.5570e+01	6.8730	57.012431	0.000203	2.026677	0.343328	-0.000041
 661	6.5670e+01	6.8534	56.984171	0.000142	1.418674	0.240330	-0.000028
 662	6.5769e+01	6.8336	56.911502	0.000365	3.648018	0.617991	-0.000073
 663	6.5869e+01	6.8139	56.838834	0.000365	3.648018	0.617991	-0.000073
 664	6.5969e+01	6.7936	56.782314	0.000284	2.837348	0.480660	-0.000057
 665	6.6068e+01	6.7736	56.754054	0.000142	1.418674	0.240330	-0.000028
 666	6.6168e+01	6.7547	56.705609	0.000243	2.432012	0.411994	-0.000049
 667	6.6267e+01	6.7342	56.620829	0.000426	4.256022	0.720990	-0.000085
 668	6.6367e+01	6.7139	56.564309	0.000284	2.837348	0.480660	-0.000057
 669	6.6466e+01	6.6936	56.487603	0.000385	3.850686	0.652324	-0.000077
 670	6.6566e+01	6.6740	56.431083	0.000284	2.837348	0.480660	-0.000057
 671	6.6665e+01	6.6543	56.350341	0.000405	4.053354	0.686657	-0.000081
 672	6.6764e+01	6.6346	56.297858	0.000263	2.634680	0.446327	-0.000053
 673	6.6864e+01	6.6143	56.241338	0.000284	2.837348	0.480660	-0.000057
 674	6.6963e+01	6.5936	56.180781	0.000304	3.040015	0.514993	-0.000061
 675	6.7063e+01	6.5741	56.100038	0.000405	4.053354	0.686657	-0.000081
 676	6.7162e+01	6.5539	56.051593	0.000243	2.432012	0.411994	-0.000049
 677	6.7262e+01	6.5334	55.958738	0.000466	4.661357	0.789655	-0.000093
 678	6.7362e+01	6.5154	55.918367	0.000203	2.026677	0.343328	-0.000041
 679	6.7461e+01	6.4946	55.833587	0.000426	4.256022	0.720990	-0.000085
 680	6.7561e+01	6.4750	55.797253	0.000182	1.824009	0.308996	-0.000037
 681	6.7660e+01	6.4551	55.720547	0.000385	3.850686	0.652324	-0.000077
 682	6.7760e+01	6.4353	55.655953	0.000324	3.242683	0.549325	-0.000065
 683	6.7859e+01	6.4141	55.567136	0.000446	4.458689	0.755322	-0.000089
 684	6.7959e+01	6.3946	55.534839	0.000162	1.621342	0.274663	-0.000032
 685	6.8058e+01	6.3750	55.470245	0.000324	3.242683	0.549325	-0.000065
 686	6.8157e+01	6.3546	55.377391	0.000466	4.661357	0.789655	-0.000093
 687	6.8257e+01	6.3349	55.292611	0.000426	4.256022	0.720990	-0.000085
 688	6.8356e+01	6.3154	55.240128	0.000263	2.634680	0.446327	-0.000053
 689	6.8456e+01	6.2968	55.167460	0.000365	3.648018	0.617991	-0.000073
 690	6.8555e+01	6.2763	55.090754	0.000385	3.850686	0.652324	-0.000077
 691	6.8655e+01	6.2561	55.070569	0.000101	1.013338	0.171664	-0.000020
 692	6.8754e+01	6.2366	54.949455	0.000608	6.080031	1.029985	-0.000122
 693	6.8854e+01	6.2164	54.832378	0.000588	5.877363	0.995652	-0.000118
 694	6.8954e+01	6.1958	54.812192	0.000101	1.013338	0.171664	-0.000020
 695	6.9053e+01	6.1761	54.735486	0.000385	3.850686	0.652324	-0.000077
 696	6.9153e+01	6.1565	54.699152	0.000182	1.824009	0.308996	-0.000037
 697	6.9252e+01	6.1366	54.614372	0.000426	4.256022	0.720990	-0.000085
 698	6.9352e+01	6.1165	54.537667	0.000385	3.850686	0.652324	-0.000077
 699	6.9451e+01	6.0961	54.452887	0.000426	4.256022	0.720990	-0.000085
 700	6.9550e+01	6.0763	54.388293	0.000324	3.242683	0.549325	-0.000065
 701	6.9650e+01	6.0577	54.335810	0.000263	2.634680	0.446327	-0.000053
 702	6.9749e+01	6.0365	54.242956	0.000466	4.661357	0.789655	-0.000093
 703	6.9849e+01	6.0177	54.182399	0.000304	3.040015	0.514993	-0.000061
 704	6.9948e+01	5.9969	54.109730	0.000365	3.648018	0.617991	-0.000073
 705	7.0048e+01	5.9780	54.033025	0.000385	3.850686	0.652324	-0.000077
 706	7.0147e+01	5.9574	53.968431	0.000324	3.242683	0.549325	-0.000065
 707	7.0247e+01	5.9380	53.903836	0.000324	3.242683	0.549325	-0.000065
 708	7.0347e+01	5.9176	53.819057	0.000426	4.256022	0.720990	-0.000085
 709	7.0446e+01	5.8965	53.722165	0.000486	4.864025	0.823988	-0.000097
 710	7.0546e+01	5.8776	53.629311	0.000466	4.661357	0.789655	-0.000093
 711	7.0645e+01	5.8585	53.544531	0.000426	4.256022	0.720990	-0.000085
 712	7.0745e+01	5.8383	53.528383	0.000081	0.810671	0.137331	-0.000016
 713	7.0844e+01	5.8184	53.431491	0.000486	4.864025	0.823988	-0.000097
 714	7.0944e+01	5.7975	53.358823	0.000365	3.648018	0.617991	-0.000073
 715	7.1043e+01	5.7775	53.286155	0.000365	3.648018	0.617991	-0.000073
 716	7.1142e+01	5.7572	53.193300	0.000466	4.661357	0.789655	-0.000093
 717	7.1242e+01	5.7378	53.112558	0.000405	4.053354	0.686657	-0.000081
 718	7.1341e+01	5.7192	53.080261	0.000162	1.621342	0.274663	-0.000032
 719	7.1441e+01	5.6988	53.003555	0.000385	3.850686	0.652324	-0.000077
 720	7.1540e+01	5.6771	52.898590	0.000527	5.269360	0.892654	-0.000105
 721	7.1640e+01	5.6582	52.846107	0.000263	2.634680	0.446327	-0.000053
 722	7.1740e+01	5.6390	52.745178	0.000507	5.066692	0.858321	-0.000101
 723	7.1839e+01	5.6191	52.656361	0.000446	4.458689	0.755322	-0.000089
 724	7.1939e+01	5.5990	52.575619	0.000405	4.053354	0.686657	-0.000081
 725	7.2038e+01	5.5785	52.502950	0.000365	3.648018	0.617991	-0.000073
 726	7.2138e+01	5.5578	52.418170	0.000426	4.256022	0.720990	-0.000085
 727	7.2237e+01	5.5387	52.349539	0.000345	3.445351	0.583658	-0.000069
 728	7.2337e+01	5.5190	52.276871	0.000365	3.648018	0.617991	-0.000073
 729	7.2436e+01	5.4996	52.192091	0.000426	4.256022	0.720990	-0.000085
 730	7.2535e+01	5.4789	52.131534	0.000304	3.040015	0.514993	-0.000061
 731	7.2635e+01	5.4598	52.014457	0.000588	5.877363	0.995652	-0.000118
 732	7.2734e+01	5.4397	51.921603	0.000466	4.661357	0.789655	-0.000093
 733	7.2834e+01	5.4194	51.889306	0.000162	1.621342	0.274663	-0.000032
 734	7.2933e+01	5.3988	51.784340	0.000527	5.269360	0.892654	-0.000105
 735	7.3033e+01	5.3800	51.699560	0.000426	4.256022	0.720990	-0.000085
 736	7.3132e+01	5.3590	51.614780	0.000426	4.256022	0.720990	-0.000085
 737	7.3232e+01	5.3405	51.542112	0.000365	3.648018	0.617991	-0.000073
 738	7.3332e+01	5.3188	51.441184	0.000507	5.066692	0.858321	-0.000101
 739	7.3431e+01	5.2996	51.356404	0.000426	4.256022	0.720990	-0.000085
 740	7.3531e+01	5.2789	51.275661	0.000405	4.053354	0.686657	-0.000081
 741	7.3630e+01	5.2604	51.215104	0.000304	3.040015	0.514993	-0.000061
 742	7.3730e+01	5.2407	51.106101	0.000547	5.472028	0.926987	-0.000110
 743	7.3829e+01	5.2197	51.029396	0.000385	3.850686	0.652324	-0.000077
 744	7.3928e+01	5.2001	50.920393	0.000547	5.472028	0.926987	-0.000110
 745	7.4028e+01	5.1804	50.847725	0.000365	3.648018	0.617991	-0.000073
 746	7.4127e+01	5.1598	50.750833	0.000486	4.864025	0.823988	-0.000097
 747	7.4227e+01	5.1406	50.662016	0.000446	4.458689	0.755322	-0.000089
 748	7.4326e+01	5.1211	50.649905	0.000061	0.608003	0.102999	-0.000012
 749	7.4426e+01	5.0997	50.520717	0.000649	6.485366	1.098651	-0.000130
 750	7.4525e+01	5.0802	50.431900	0.000446	4.458689	0.755322	-0.000089
 751	7.4625e+01	5.0603	50.335008	0.000486	4.864025	0.823988	-0.000097
 752	7.4725e+01	5.0419	50.234080	0.000507	5.066692	0.858321	-0.000101
 753	7.4824e+01	5.0213	50.157374	0.000385	3.850686	0.652324	-0.000077
 754	7.4924e+01	5.0011	50.084706	0.000365	3.648018	0.617991	-0.000073
 755	7.5023e+01	4.9812	49.991852	0.000466	4.661357	0.789655	-0.000093
 756	7.5123e+01	4.9615	49.935332	0.000284	2.837348	0.480660	-0.000057
 757	7.5222e+01	4.9407	49.822292	0.000567	5.674695	0.961319	-0.000114
 758	7.5322e+01	4.9220	49.721364	0.000507	5.066692	0.858321	-0.000101
 759	7.5421e+01	4.9014	49.656770	0.000324	3.242683	0.549325	-0.000065
 760	7.5520e+01	4.8808	49.543730	0.000567	5.674695	0.961319	-0.000114
 761	7.5620e+01	4.8618	49.454913	0.000446	4.458689	0.755322	-0.000089
 762	7.5719e+01	4.8418	49.362059	0.000466	4.661357	0.789655	-0.000093
 763	7.5819e+01	4.8219	49.301502	0.000304	3.040015	0.514993	-0.000061
 764	7.5918e+01	4.8020	49.216722	0.000426	4.256022	0.720990	-0.000085
 765	7.6018e+01	4.7826	49.103682	0.000567	5.674695	0.961319	-0.000114
 766	7.6118e+01	4.7619	49.031014	0.000365	3.648018	0.617991	-0.000073
 767	7.6217e+01	4.7421	48.954308	0.000385	3.850686	0.652324	-0.000077
 768	7.6317e+01	4.7210	48.877602	0.000385	3.850686	0.652324	-0.000077
 769	7.6416e+01	4.7021	48.748414	0.000649	6.485366	1.098651	-0.000130
 770	7.6516e+01	4.6832	48.695931	0.000263	2.634680	0.446327	-0.000053
 771	7.6615e+01	4.6621	48.570780	0.000628	6.282698	1.064318	-0.000126
 772	7.6715e+01	4.6430	48.530409	0.000203	2.026677	0.343328	-0.000041
 773	7.6814e+01	4.6232	48.413332	0.000588	5.877363	0.995652	-0.000118
 774	7.6913e+01	4.6024	48.308366	0.000527	5.269360	0.892654	-0.000105
 775	7.7013e+01	4.5827	48.239735	0.000345	3.445351	0.583658	-0.000069
 776	7.7112e+01	4.5625	48.154955	0.000426	4.256022	0.720990	-0.000085
 777	7.7212e+01	4.5428	48.074212	0.000405	4.053354	0.686657	-0.000081
 778	7.7311e+01	4.5238	47.985395	0.000446	4.458689	0.755322	-0.000089
 779	7.7411e+01	4.5028	47.900616	0.000426	4.256022	0.720990	-0.000085
 780	7.7510e+01	4.4830	47.803724	0.000486	4.864025	0.823988	-0.000097
 781	7.7610e+01	4.4630	47.678573	0.000628	6.282698	1.064318	-0.000126
 782	7.7710e+01	4.4433	47.618016	0.000304	3.040015	0.514993	-0.000061
 783	7.7809e+01	4.4231	47.557459	0.000304	3.040015	0.514993	-0.000061
 784	7.7909e+01	4.4035	47.432308	0.000628	6.282698	1.064318	-0.000126
 785	7.8008e+01	4.3829	47.371751	0.000304	3.040015	0.514993	-0.000061
 786	7.8108e+01	4.3627	47.254674	0.000588	5.877363	0.995652	-0.000118
 787	7.8207e+01	4.3435	47.177968	0.000385	3.850686	0.652324	-0.000077
 788	7.8306e+01	4.3230	47.081077	0.000486	4.864025	0.823988	-0.000097
 789	7.8406e+01	4.3035	46.964000	0.000588	5.877363	0.995652	-0.000118
 790	7.8505e+01	4.2842	46.887294	0.000385	3.850686	0.652324	-0.000077
 791	7.8605e+01	4.2638	46.782329	0.000527	5.269360	0.892654	-0.000105
 792	7.8704e+01	4.2431	46.713698	0.000345	3.445351	0.583658	-0.000069
 793	7.8804e+01	4.2242	46.624881	0.000446	4.458689	0.755322	-0.000089
 794	7.8903e+01	4.2042	46.507804	0.000588	5.877363	0.995652	-0.000118
 795	7.9003e+01	4.1840	46.455321	0.000263	2.634680	0.446327	-0.000053
 796	7.9103e+01	4.1643	46.322095	0.000669	6.688034	1.132984	-0.000134
 797	7.9202e+01	4.1440	46.213093	0.000547	5.472028	0.926987	-0.000110
 798	7.9302e+01	4.1235	46.156573	0.000284	2.837348	0.480660	-0.000057
 799	7.9401e+01	4.1045	46.055644	0.000507	5.066692	0.858321	-0.000101
 800	7.9501e+01	4.0842	45.942605	0.000567	5.674695	0.961319	-0.000114
 801	7.9600e+01	4.0652	45.869936	0.000365	3.648018	0.617991	-0.000073
 802	7.9700e+01	4.0440	45.793231	0.000385	3.850686	0.652324	-0.000077
 803	7.9799e+01	4.0243	45.692302	0.000507	5.066692	0.858321	-0.000101
 804	7.9898e+01	4.0051	45.643857	0.000243	2.432012	0.411994	-0.000049
 805	7.9998e+01	3.9851	45.502557	0.000709	7.093369	1.201649	-0.000142
 806	8.0097e+01	3.9651	45.421814	0.000405	4.053354	0.686657	-0.000081
 807	8.0197e+01	3.9446	45.312812	0.000547	5.472028	0.926987	-0.000110
 808	8.0296e+01	3.9254	45.207846	0.000527	5.269360	0.892654	-0.000105
 809	8.0396e+01	3.9053	45.139215	0.000345	3.445351	0.583658	-0.000069
 810	8.0496e+01	3.8848	45.050398	0.000446	4.458689	0.755322	-0.000089
 811	8.0595e+01	3.8647	44.933321	0.000588	5.877363	0.995652	-0.000118
 812	8.0695e+01	3.8451	44.884875	0.000243	2.432012	0.411994	-0.000049
 813	8.0794e+01	3.8256	44.767798	0.000588	5.877363	0.995652	-0.000118
 814	8.0894e+01	3.8052	44.650721	0.000588	5.877363	0.995652	-0.000118
 815	8.0993e+01	3.7851	44.606313	0.000223	2.229345	0.377661	-0.000045
 816	8.1093e+01	3.7666	44.465013	0.000709	7.093369	1.201649	-0.000142
 817	8.1192e+01	3.7462	44.416567	0.000243	2.432012	0.411994	-0.000049
 818	8.1291e+01	3.7261	44.275268	0.000709	7.093369	1.201649	-0.000142
 819	8.1391e+01	3.7051	44.214711	0.000304	3.040015	0.514993	-0.000061
 820	8.1490e+01	3.6858	44.133968	0.000405	4.053354	0.686657	-0.000081
 821	8.1590e+01	3.6654	44.016891	0.000588	5.877363	0.995652	-0.000118
 822	8.1689e+01	3.6465	43.952297	0.000324	3.242683	0.549325	-0.000065
 823	8.1789e+01	3.6263	43.835220	0.000588	5.877363	0.995652	-0.000118
 824	8.1888e+01	3.6068	43.750440	0.000426	4.256022	0.720990	-0.000085
 825	8.1988e+01	3.5865	43.677772	0.000365	3.648018	0.617991	-0.000073
 826	8.2088e+01	3.5668	43.552620	0.000628	6.282698	1.064318	-0.000126
 827	8.2187e+01	3.5467	43.467840	0.000426	4.256022	0.720990	-0.000085
 828	8.2287e+01	3.5277	43.366912	0.000507	5.066692	0.858321	-0.000101
 829	8.2386e+01	3.5070	43.302318	0.000324	3.242683	0.549325	-0.000065
 830	8.2486e+01	3.4869	43.193315	0.000547	5.472028	0.926987	-0.000110
 831	8.2585e+01	3.4672	43.092387	0.000507	5.066692	0.858321	-0.000101
 832	8.2684e+01	3.4470	43.019718	0.000365	3.648018	0.617991	-0.000073
 833	8.2784e+01	3.4277	42.910716	0.000547	5.472028	0.926987	-0.000110
 834	8.2883e+01	3.4074	42.829973	0.000405	4.053354	0.686657	-0.000081
 835	8.2983e+01	3.3874	42.733082	0.000486	4.864025	0.823988	-0.000097
 836	8.3082e+01	3.3675	42.656376	0.000385	3.850686	0.652324	-0.000077
 837	8.3182e+01	3.3482	42.555448	0.000507	5.066692	0.858321	-0.000101
 838	8.3281e+01	3.3270	42.478742	0.000385	3.850686	0.652324	-0.000077
 839	8.3381e+01	3.3071	42.377814	0.000507	5.066692	0.858321	-0.000101
 840	8.3481e+01	3.2882	42.264774	0.000567	5.674695	0.961319	-0.000114
 841	8.3580e+01	3.2682	42.179994	0.000426	4.256022	0.720990	-0.000085
 842	8.3680e+01	3.2478	42.070992	0.000547	5.472028	0.926987	-0.000110
 843	8.3779e+01	3.2278	41.982175	0.000446	4.458689	0.755322	-0.000089
 844	8.3879e+01	3.2080	41.905469	0.000385	3.850686	0.652324	-0.000077
 845	8.3978e+01	3.1877	41.804541	0.000507	5.066692	0.858321	-0.000101
 846	8.4078e+01	3.1684	41.699575	0.000527	5.269360	0.892654	-0.000105
 847	8.4177e+01	3.1484	41.562312	0.000689	6.890702	1.167316	-0.000138
 848	8.4276e+01	3.1271	41.481570	0.000405	4.053354	0.686657	-0.000081
 849	8.4376e+01	3.1100	41.400827	0.000405	4.053354	0.686657	-0.000081
 850	8.4475e+01	3.0875	41.328159	0.000365	3.648018	0.617991	-0.000073
 851	8.4575e+01	3.0679	41.215119	0.000567	5.674695	0.961319	-0.000114
 852	8.4674e+01	3.0486	41.106116	0.000547	5.472028	0.926987	-0.000110
 853	8.4774e+01	3.0284	41.009225	0.000486	4.864025	0.823988	-0.000097
 854	8.4874e+01	3.0087	40.904259	0.000527	5.269360	0.892654	-0.000105
 855	8.4973e+01	2.9877	40.823517	0.000405	4.053354	0.686657	-0.000081
 856	8.5073e+01	2.9686	40.730662	0.000466	4.661357	0.789655	-0.000093
 857	8.5172e+01	2.9496	40.609548	0.000608	6.080031	1.029985	-0.000122
 858	8.5272e+01	2.9287	40.508620	0.000507	5.066692	0.858321	-0.000101
 859	8.5371e+01	2.9087	40.427877	0.000405	4.053354	0.686657	-0.000081
 860	8.5471e+01	2.8890	40.347135	0.000405	4.053354	0.686657	-0.000081
 861	8.5570e+01	2.8694	40.213909	0.000669	6.688034	1.132984	-0.000134
 862	8.5669e+01	2.8493	40.100869	0.000567	5.674695	0.961319	-0.000114
 863	8.5769e+01	2.8292	40.028201	0.000365	3.648018	0.617991	-0.000073
 864	8.5868e+01	2.8088	39.911124	0.000588	5.877363	0.995652	-0.000118
 865	8.5968e+01	2.7897	39.830381	0.000405	4.053354	0.686657	-0.000081
 866	8.6067e+01	2.7697	39.705230	0.000628	6.282698	1.064318	-0.000126
 867	8.6167e+01	2.7502	39.580079	0.000628	6.282698	1.064318	-0.000126
 868	8.6266e+01	2.7293	39.515485	0.000324	3.242683	0.549325	-0.000065
 869	8.6366e+01	2.7090	39.434742	0.000405	4.053354	0.686657	-0.000081
 870	8.6466e+01	2.6891	39.321702	0.000567	5.674695	0.961319	-0.000114
 871	8.6565e+01	2.6699	39.200588	0.000608	6.080031	1.029985	-0.000122
 872	8.6665e+01	2.6492	39.140031	0.000304	3.040015	0.514993	-0.000061
 873	8.6764e+01	2.6295	39.014880	0.000628	6.282698	1.064318	-0.000126
 874	8.6864e+01	2.6087	38.901840	0.000567	5.674695	0.961319	-0.000114
 875	8.6963e+01	2.5900	38.825134	0.000385	3.850686	0.652324	-0.000077
 876	8.7063e+01	2.5704	38.744392	0.000405	4.053354	0.686657	-0.000081
 877	8.7162e+01	2.5503	38.635389	0.000547	5.472028	0.926987	-0.000110
 878	8.7261e+01	2.5295	38.518312	0.000588	5.877363	0.995652	-0.000118
 879	8.7361e+01	2.5104	38.445644	0.000365	3.648018	0.617991	-0.000073
 880	8.7460e+01	2.4900	38.348752	0.000486	4.864025	0.823988	-0.000097
 881	8.7560e+01	2.4707	38.231675	0.000588	5.877363	0.995652	-0.000118
 882	8.7659e+01	2.4511	38.134784	0.000486	4.864025	0.823988	-0.000097
 883	8.7759e+01	2.4310	38.050004	0.000426	4.256022	0.720990	-0.000085
 884	8.7859e+01	2.4106	37.953113	0.000486	4.864025	0.823988	-0.000097
 885	8.7958e+01	2.3911	37.819888	0.000669	6.688034	1.132984	-0.000134
 886	8.8058e+01	2.3713	37.747219	0.000365	3.648018	0.617991	-0.000073
 887	8.8157e+01	2.3513	37.613994	0.000669	6.688034	1.132984	-0.000134
 888	8.8257e+01	2.3312	37.513065	0.000507	5.066692	0.858321	-0.000101
 889	8.8356e+01	2.3112	37.416174	0.000486	4.864025	0.823988	-0.000097
 890	8.8456e+01	2.2917	37.295060	0.000608	6.080031	1.029985	-0.000122
 891	8.8555e+01	2.2717	37.238540	0.000284	2.837348	0.480660	-0.000057
 892	8.8654e+01	2.2520	37.125500	0.000567	5.674695	0.961319	-0.000114
 893	8.8754e+01	2.2318	36.984200	0.000709	7.093369	1.201649	-0.000142
 894	8.8853e+01	2.2131	36.911532	0.000365	3.648018	0.617991	-0.000073
 895	8.8953e+01	2.1912	36.806567	0.000527	5.269360	0.892654	-0.000105
 896	8.9052e+01	2.1724	36.693527	0.000567	5.674695	0.961319	-0.000114
 897	8.9152e+01	2.1531	36.560301	0.000669	6.688034	1.132984	-0.000134
 898	8.9251e+01	2.1311	36.451299	0.000547	5.472028	0.926987	-0.000110
 899	8.9351e+01	2.1122	36.362482	0.000446	4.458689	0.755322	-0.000089
 900	8.9451e+01	2.0922	36.253479	0.000547	5.472028	0.926987	-0.000110
 901	8.9550e+01	2.0717	36.112179	0.000709	7.093369	1.201649	-0.000142
 902	8.9650e+01	2.0513	36.075845	0.000182	1.824009	0.308996	-0.000037
 903	8.9749e+01	2.0327	35.922434	0.000770	7.701372	1.304648	-0.000154
 904	8.9849e+01	2.0116	35.829580	0.000466	4.661357	0.789655	-0.000093
 905	8.9948e+01	1.9922	35.696354	0.000669	6.688034	1.132984	-0.000134
 906	9.0047e+01	1.9726	35.688280	0.000041	0.405335	0.068666	-0.000008
 907	9.0147e+01	1.9523	35.482386	0.001034	10.336052	1.750975	-0.000207
 908	9.0246e+01	1.9324	35.405680	0.000385	3.850686	0.652324	-0.000077
 909	9.0346e+01	1.9130	35.308789	0.000486	4.864025	0.823988	-0.000097
 910	9.0445e+01	1.8929	35.155378	0.000770	7.701372	1.304648	-0.000154
 911	9.0545e+01	1.8728	35.074635	0.000405	4.053354	0.686657	-0.000081
 912	9.0644e+01	1.8524	34.973707	0.000507	5.066692	0.858321	-0.000101
 913	9.0744e+01	1.8333	34.828370	0.000730	7.296037	1.235982	-0.000146
 914	9.0844e+01	1.8129	34.715330	0.000567	5.674695	0.961319	-0.000114
 915	9.0943e+01	1.7931	34.614402	0.000507	5.066692	0.858321	-0.000101
 916	9.1043e+01	1.7733	34.493288	0.000608	6.080031	1.029985	-0.000122
 917	9.1142e+01	1.7526	34.392359	0.000507	5.066692	0.858321	-0.000101
 918	9.1242e+01	1.7340	34.307580	0.000426	4.256022	0.720990	-0.000085
 919	9.1341e+01	1.7133	34.170317	0.000689	6.890702	1.167316	-0.000138
 920	9.1441e+01	1.6927	34.045166	0.000628	6.282698	1.064318	-0.000126
 921	9.1540e+01	1.6739	33.952312	0.000466	4.661357	0.789655	-0.000093
 922	9.1639e+01	1.6540	33.895792	0.000284	2.837348	0.480660	-0.000057
 923	9.1739e+01	1.6339	33.754492	0.000709	7.093369	1.201649	-0.000142
 924	9.1838e+01	1.6138	33.593006	0.000811	8.106708	1.373313	-0.000162
 925	9.1938e+01	1.5942	33.524375	0.000345	3.445351	0.583658	-0.000069
 926	9.2037e+01	1.5739	33.403261	0.000608	6.080031	1.029985	-0.000122
 927	9.2137e+01	1.5534	33.294258	0.000547	5.472028	0.926987	-0.000110
 928	9.2237e+01	1.5339	33.189293	0.000527	5.269360	0.892654	-0.000105
 929	9.2336e+01	1.5131	33.084327	0.000527	5.269360	0.892654	-0.000105
 930	9.2436e+01	1.4941	32.979362	0.000527	5.269360	0.892654	-0.000105
 931	9.2535e+01	1.4740	32.854211	0.000628	6.282698	1.064318	-0.000126
 932	9.2635e+01	1.4547	32.761357	0.000466	4.661357	0.789655	-0.000093
 933	9.2734e+01	1.4339	32.616020	0.000730	7.296037	1.235982	-0.000146
 934	9.2834e+01	1.4140	32.527203	0.000446	4.458689	0.755322	-0.000089
 935	9.2933e+01	1.3949	32.434349	0.000466	4.661357	0.789655	-0.000093
 936	9.3032e+01	1.3746	32.325346	0.000547	5.472028	0.926987	-0.000110
 937	9.3132e+01	1.3549	32.184046	0.000709	7.093369	1.201649	-0.000142
 938	9.3231e+01	1.3335	32.107341	0.000385	3.850686	0.652324	-0.000077
 939	9.3331e+01	1.3149	31.990264	0.000588	5.877363	0.995652	-0.000118
 940	9.3430e+01	1.2946	31.901447	0.000446	4.458689	0.755322	-0.000089
 941	9.3530e+01	1.2748	31.788407	0.000567	5.674695	0.961319	-0.000114
 942	9.3629e+01	1.2550	31.687478	0.000507	5.066692	0.858321	-0.000101
 943	9.3729e+01	1.2358	31.538104	0.000750	7.498705	1.270315	-0.000150
 944	9.3829e+01	1.2162	31.461399	0.000385	3.850686	0.652324	-0.000077
 945	9.3928e+01	1.1965	31.295876	0.000831	8.309375	1.407646	-0.000166
 946	9.4028e+01	1.1768	31.203022	0.000466	4.661357	0.789655	-0.000093
 947	9.4127e+01	1.1565	31.130354	0.000365	3.648018	0.617991	-0.000073
 948	9.4227e+01	1.1366	30.985017	0.000730	7.296037	1.235982	-0.000146
 949	9.4326e+01	1.1164	30.843717	0.000709	7.093369	1.201649	-0.000142
 950	9.4425e+01	1.0963	30.799309	0.000223	2.229345	0.377661	-0.000045
 951	9.4525e+01	1.0760	30.670120	0.000649	6.485366	1.098651	-0.000130
 952	9.4624e+01	1.0570	30.544969	0.000628	6.282698	1.064318	-0.000126
 953	9.4724e+01	1.0358	30.423855	0.000608	6.080031	1.029985	-0.000122
 954	9.4823e+01	1.0169	30.302741	0.000608	6.080031	1.029985	-0.000122
 955	9.4923e+01	0.9969	30.205850	0.000486	4.864025	0.823988	-0.000097
 956	9.5022e+01	0.9765	30.104921	0.000507	5.066692	0.858321	-0.000101
 957	9.5122e+01	0.9571	29.963621	0.000709	7.093369	1.201649	-0.000142
 958	9.5222e+01	0.9370	29.870767	0.000466	4.661357	0.789655	-0.000093
 959	9.5321e+01	0.9167	29.765802	0.000527	5.269360	0.892654	-0.000105
 960	9.5421e+01	0.8967	29.632576	0.000669	6.688034	1.132984	-0.000134
 961	9.5520e+01	0.8772	29.535685	0.000486	4.864025	0.823988	-0.000097
 962	9.5620e+01	0.8570	29.378237	0.000790	7.904040	1.338981	-0.000158
 963	9.5719e+01	0.8375	29.313643	0.000324	3.242683	0.549325	-0.000065
 964	9.5819e+01	0.8175	29.176380	0.000689	6.890702	1.167316	-0.000138
 965	9.5918e+01	0.7973	29.071414	0.000527	5.269360	0.892654	-0.000105
 966	9.6017e+01	0.7779	28.930115	0.000709	7.093369	1.201649	-0.000142
 967	9.6117e+01	0.7575	28.849372	0.000405	4.053354	0.686657	-0.000081
 968	9.6216e+01	0.7365	28.708072	0.000709	7.093369	1.201649	-0.000142
 969	9.6316e+01	0.7179	28.631367	0.000385	3.850686	0.652324	-0.000077
 970	9.6415e+01	0.6973	28.522364	0.000547	5.472028	0.926987	-0.000110
 971	9.6515e+01	0.6774	28.364916	0.000790	7.904040	1.338981	-0.000158
 972	9.6615e+01	0.6573	28.263987	0.000507	5.066692	0.858321	-0.000101
 973	9.6714e+01	0.6379	28.142873	0.000608	6.080031	1.029985	-0.000122
 974	9.6814e+01	0.6181	28.045982	0.000486	4.864025	0.823988	-0.000097
 975	9.6913e+01	0.5973	27.945054	0.000507	5.066692	0.858321	-0.000101
 976	9.7013e+01	0.5768	27.795680	0.000750	7.498705	1.270315	-0.000150
 977	9.7112e+01	0.5574	27.706863	0.000446	4.458689	0.755322	-0.000089
 978	9.7212e+01	0.5385	27.577674	0.000649	6.485366	1.098651	-0.000130
 979	9.7311e+01	0.5179	27.496932	0.000405	4.053354	0.686657	-0.000081
 980	9.7410e+01	0.4979	27.351595	0.000730	7.296037	1.235982	-0.000146
 981	9.7510e+01	0.4792	27.262778	0.000446	4.458689	0.755322	-0.000089
 982	9.7609e+01	0.4585	27.109366	0.000770	7.701372	1.304648	-0.000154
 983	9.7709e+01	0.4381	27.020549	0.000446	4.458689	0.755322	-0.000089
 984	9.7808e+01	0.4183	26.927695	0.000466	4.661357	0.789655	-0.000093
 985	9.7908e+01	0.3988	26.798507	0.000649	6.485366	1.098651	-0.000130
 986	9.8007e+01	0.3786	26.705653	0.000466	4.661357	0.789655	-0.000093
 987	9.8107e+01	0.3580	26.588576	0.000588	5.877363	0.995652	-0.000118
 988	9.8207e+01	0.3382	26.475536	0.000567	5.674695	0.961319	-0.000114
 989	9.8306e+01	0.3180	26.354422	0.000608	6.080031	1.029985	-0.000122
 990	9.8406e+01	0.2987	26.217159	0.000689	6.890702	1.167316	-0.000138
 991	9.8505e+01	0.2781	26.100083	0.000588	5.877363	0.995652	-0.000118
 992	9.8605e+01	0.2587	26.015303	0.000426	4.256022	0.720990	-0.000085
 993	9.8704e+01	0.2393	25.910337	0.000527	5.269360	0.892654	-0.000105
 994	9.8803e+01	0.2185	25.817483	0.000466	4.661357	0.789655	-0.000093
 995	9.8903e+01	0.1994	25.672146	0.000730	7.296037	1.235982	-0.000146
 996	9.9002e+01	0.1794	25.579292	0.000466	4.661357	0.789655	-0.000093
 997	9.9102e+01	0.1596	25.442029	0.000689	6.890702	1.167316	-0.000138
 998	9.9201e+01	0.1398	25.373398	0.000345	3.445351	0.583658	-0.000069
 999	9.9301e+01	0.1192	25.248247	0.000628	6.282698	1.064318	-0.000126
1000	9.9400e+01	0.0993	25.098873	0.000750	7.498705	1.270315	-0.000150
1001	9.9500e+01	0.0794	25.006019	0.000466	4.661357	0.789655	-0.000093
1002	9.9600e+01	0.0599	24.860682	0.000730	7.296037	1.235982	-0.000146
1003	9.9699e+01	0.0396	24.796088	0.000324	3.242683	0.549325	-0.000065
1004	9.9799e+01	0.0198	24.695159	0.000507	5.066692	0.858321	-0.000101
1005	9.9898e+01	0.0006	24.533674	0.000811	8.106708	1.373313	-0.000162
1006	9.9998e+01	-0.0182	24.473117	0.000304	3.040015	0.514993	-0.000061
1007	1.0010e+02	-0.0377	24.372188	0.000507	5.066692	0.858321	-0.000101
1008	1.0020e+02	-0.0577	24.202629	0.000851	8.512043	1.441979	-0.000170
1009	1.0030e+02	-0.0779	24.073440	0.000649	6.485366	1.098651	-0.000130
1010	1.0040e+02	-0.0980	24.029032	0.000223	2.229345	0.377661	-0.000045
1011	1.0050e+02	-0.1175	23.883695	0.000730	7.296037	1.235982	-0.000146
1012	1.0059e+02	-0.1379	23.778729	0.000527	5.269360	0.892654	-0.000105
1013	1.0069e+02	-0.1575	23.681838	0.000486	4.864025	0.823988	-0.000097
1014	1.0079e+02	-0.1777	23.556687	0.000628	6.282698	1.064318	-0.000126
1015	1.0089e+02	-0.1974	23.431536	0.000628	6.282698	1.064318	-0.000126
1016	1.0099e+02	-0.2168	23.346756	0.000426	4.256022	0.720990	-0.000085
1017	1.0109e+02	-0.2376	23.173159	0.000871	8.714711	1.476312	-0.000174
1018	1.0119e+02	-0.2576	23.056082	0.000588	5.877363	0.995652	-0.000118
1019	1.0129e+02	-0.2774	22.975339	0.000405	4.053354	0.686657	-0.000081
1020	1.0139e+02	-0.2969	22.821928	0.000770	7.701372	1.304648	-0.000154
1021	1.0149e+02	-0.3169	22.741186	0.000405	4.053354	0.686657	-0.000081
1022	1.0159e+02	-0.3372	22.611997	0.000649	6.485366	1.098651	-0.000130
1023	1.0169e+02	-0.3566	22.523180	0.000446	4.458689	0.755322	-0.000089
1024	1.0179e+02	-0.3772	22.373806	0.000750	7.498705	1.270315	-0.000150
1025	1.0189e+02	-0.3969	22.248655	0.000628	6.282698	1.064318	-0.000126
1026	1.0199e+02	-0.4169	22.147727	0.000507	5.066692	0.858321	-0.000101
1027	1.0209e+02	-0.4367	22.010464	0.000689	6.890702	1.167316	-0.000138
1028	1.0219e+02	-0.4570	21.962018	0.000243	2.432012	0.411994	-0.000049
1029	1.0229e+02	-0.4768	21.808607	0.000770	7.701372	1.304648	-0.000154
1030	1.0239e+02	-0.4965	21.715753	0.000466	4.661357	0.789655	-0.000093
1031	1.0248e+02	-0.5170	21.594639	0.000608	6.080031	1.029985	-0.000122
1032	1.0258e+02	-0.5373	21.457376	0.000689	6.890702	1.167316	-0.000138
1033	1.0268e+02	-0.5557	21.332225	0.000628	6.282698	1.064318	-0.000126
1034	1.0278e+02	-0.5762	21.215148	0.000588	5.877363	0.995652	-0.000118
1035	1.0288e+02	-0.5959	21.126331	0.000446	4.458689	0.755322	-0.000089
1036	1.0298e+02	-0.6163	21.013292	0.000567	5.674695	0.961319	-0.000114
1037	1.0308e+02	-0.6364	20.908326	0.000527	5.269360	0.892654	-0.000105
1038	1.0318e+02	-0.6564	20.758952	0.000750	7.498705	1.270315	-0.000150
1039	1.0328e+02	-0.6758	20.645912	0.000567	5.674695	0.961319	-0.000114
1040	1.0338e+02	-0.6963	20.504612	0.000709	7.093369	1.201649	-0.000142
1041	1.0348e+02	-0.7158	20.427907	0.000385	3.850686	0.652324	-0.000077
1042	1.0358e+02	-0.7349	20.326978	0.000507	5.066692	0.858321	-0.000101
1043	1.0368e+02	-0.7555	20.189716	0.000689	6.890702	1.167316	-0.000138
1044	1.0378e+02	-0.7761	20.084750	0.000527	5.269360	0.892654	-0.000105
1045	1.0388e+02	-0.7957	19.951525	0.000669	6.688034	1.132984	-0.000134
1046	1.0398e+02	-0.8157	19.850596	0.000507	5.066692	0.858321	-0.000101
1047	1.0408e+02	-0.8353	19.721408	0.000649	6.485366	1.098651	-0.000130
1048	1.0418e+02	-0.8551	19.628554	0.000466	4.661357	0.789655	-0.000093
1049	1.0428e+02	-0.8749	19.495328	0.000669	6.688034	1.132984	-0.000134
1050	1.0438e+02	-0.8945	19.406511	0.000446	4.458689	0.755322	-0.000089
1051	1.0447e+02	-0.9158	19.257137	0.000750	7.498705	1.270315	-0.000150
1052	1.0457e+02	-0.9349	19.148135	0.000547	5.472028	0.926987	-0.000110
1053	1.0467e+02	-0.9550	19.047206	0.000507	5.066692	0.858321	-0.000101
1054	1.0477e+02	-0.9750	18.934167	0.000567	5.674695	0.961319	-0.000114
1055	1.0487e+02	-0.9939	18.800941	0.000669	6.688034	1.132984	-0.000134
1056	1.0497e+02	-1.0152	18.675790	0.000628	6.282698	1.064318	-0.000126
1057	1.0507e+02	-1.0342	18.542564	0.000669	6.688034	1.132984	-0.000134
1058	1.0517e+02	-1.0550	18.445673	0.000486	4.864025	0.823988	-0.000097
1059	1.0527e+02	-1.0754	18.292262	0.000770	7.701372	1.304648	-0.000154
1060	1.0537e+02	-1.0953	18.231705	0.000304	3.040015	0.514993	-0.000061
1061	1.0547e+02	-1.1148	18.086368	0.000730	7.296037	1.235982	-0.000146
1062	1.0557e+02	-1.1340	17.977365	0.000547	5.472028	0.926987	-0.000110
1063	1.0567e+02	-1.1539	17.827991	0.000750	7.498705	1.270315	-0.000150
1064	1.0577e+02	-1.1745	17.698803	0.000649	6.485366	1.098651	-0.000130
1065	1.0587e+02	-1.1945	17.626135	0.000365	3.648018	0.617991	-0.000073
1066	1.0597e+02	-1.2146	17.509058	0.000588	5.877363	0.995652	-0.000118
1067	1.0607e+02	-1.2342	17.379869	0.000649	6.485366	1.098651	-0.000130
1068	1.0617e+02	-1.2547	17.278941	0.000507	5.066692	0.858321	-0.000101
1069	1.0627e+02	-1.2731	17.133604	0.000730	7.296037	1.235982	-0.000146
1070	1.0637e+02	-1.2939	16.992304	0.000709	7.093369	1.201649	-0.000142
1071	1.0647e+02	-1.3135	16.907524	0.000426	4.256022	0.720990	-0.000085
1072	1.0656e+02	-1.3332	16.750076	0.000790	7.904040	1.338981	-0.000158
1073	1.0666e+02	-1.3536	16.624925	0.000628	6.282698	1.064318	-0.000126
1074	1.0676e+02	-1.3736	16.495737	0.000649	6.485366	1.098651	-0.000130
1075	1.0686e+02	-1.3934	16.390771	0.000527	5.269360	0.892654	-0.000105
1076	1.0696e+02	-1.4128	16.281768	0.000547	5.472028	0.926987	-0.000110
1077	1.0706e+02	-1.4330	16.164691	0.000588	5.877363	0.995652	-0.000118
1078	1.0716e+02	-1.4533	16.047615	0.000588	5.877363	0.995652	-0.000118
1079	1.0726e+02	-1.4716	15.918426	0.000649	6.485366	1.098651	-0.000130
1080	1.0736e+02	-1.4938	15.805386	0.000567	5.674695	0.961319	-0.000114
1081	1.0746e+02	-1.5123	15.676198	0.000649	6.485366	1.098651	-0.000130
1082	1.0756e+02	-1.5334	15.551047	0.000628	6.282698	1.064318	-0.000126
1083	1.0766e+02	-1.5528	15.458193	0.000466	4.661357	0.789655	-0.000093
1084	1.0776e+02	-1.5727	15.316893	0.000709	7.093369	1.201649	-0.000142
1085	1.0786e+02	-1.5933	15.179630	0.000689	6.890702	1.167316	-0.000138
1086	1.0796e+02	-1.6125	15.062553	0.000588	5.877363	0.995652	-0.000118
1087	1.0806e+02	-1.6322	14.917217	0.000730	7.296037	1.235982	-0.000146
1088	1.0816e+02	-1.6525	14.800140	0.000588	5.877363	0.995652	-0.000118
1089	1.0826e+02	-1.6717	14.707285	0.000466	4.661357	0.789655	-0.000093
1090	1.0836e+02	-1.6917	14.590209	0.000588	5.877363	0.995652	-0.000118
1091	1.0845e+02	-1.7123	14.452946	0.000689	6.890702	1.167316	-0.000138
1092	1.0855e+02	-1.7319	14.331832	0.000608	6.080031	1.029985	-0.000122
1093	1.0865e+02	-1.7520	14.247052	0.000426	4.256022	0.720990	-0.000085
1094	1.0875e+02	-1.7719	14.097678	0.000750	7.498705	1.270315	-0.000150
1095	1.0885e+02	-1.7920	13.988675	0.000547	5.472028	0.926987	-0.000110
1096	1.0895e+02	-1.8118	13.855450	0.000669	6.688034	1.132984	-0.000134
1097	1.0905e+02	-1.8317	13.730299	0.000628	6.282698	1.064318	-0.000126
1098	1.0915e+02	-1.8519	13.588999	0.000709	7.093369	1.201649	-0.000142
1099	1.0925e+02	-1.8716	13.524405	0.000324	3.242683	0.549325	-0.000065
1100	1.0935e+02	-1.8921	13.383105	0.000709	7.093369	1.201649	-0.000142
1101	1.0945e+02	-1.9114	13.249879	0.000669	6.688034	1.132984	-0.000134
1102	1.0955e+02	-1.9306	13.132803	0.000588	5.877363	0.995652	-0.000118
1103	1.0965e+02	-1.9518	13.011688	0.000608	6.080031	1.029985	-0.000122
1104	1.0975e+02	-1.9704	12.874426	0.000689	6.890702	1.167316	-0.000138
1105	1.0985e+02	-1.9909	12.757349	0.000588	5.877363	0.995652	-0.000118
1106	1.0995e+02	-2.0113	12.668532	0.000446	4.458689	0.755322	-0.000089
1107	1.1005e+02	-2.0309	12.523195	0.000730	7.296037	1.235982	-0.000146
1108	1.1015e+02	-2.0505	12.410155	0.000567	5.674695	0.961319	-0.000114
1109	1.1025e+02	-2.0709	12.280967	0.000649	6.485366	1.098651	-0.000130
1110	1.1035e+02	-2.0905	12.188113	0.000466	4.661357	0.789655	-0.000093
1111	1.1044e+02	-2.1104	12.066999	0.000608	6.080031	1.029985	-0.000122
1112	1.1054e+02	-2.1303	11.897439	0.000851	8.512043	1.441979	-0.000170
1113	1.1064e+02	-2.1506	11.812659	0.000426	4.256022	0.720990	-0.000085
1114	1.1074e+02	-2.1701	11.699619	0.000567	5.674695	0.961319	-0.000114
1115	1.1084e+02	-2.1909	11.550245	0.000750	7.498705	1.270315	-0.000150
1116	1.1094e+02	-2.2108	11.449317	0.000507	5.066692	0.858321	-0.000101
1117	1.1104e+02	-2.2307	11.344351	0.000527	5.269360	0.892654	-0.000105
1118	1.1114e+02	-2.2514	11.239386	0.000527	5.269360	0.892654	-0.000105
1119	1.1124e+02	-2.2702	11.069826	0.000851	8.512043	1.441979	-0.000170
1120	1.1134e+02	-2.2908	11.005232	0.000324	3.242683	0.549325	-0.000065
1121	1.1144e+02	-2.3098	10.839709	0.000831	8.309375	1.407646	-0.000166
1122	1.1154e+02	-2.3293	10.710521	0.000649	6.485366	1.098651	-0.000130
1123	1.1164e+02	-2.3495	10.613630	0.000486	4.864025	0.823988	-0.000097
1124	1.1174e+02	-2.3698	10.476367	0.000689	6.890702	1.167316	-0.000138
1125	1.1184e+02	-2.3898	10.363327	0.000567	5.674695	0.961319	-0.000114
1126	1.1194e+02	-2.4095	10.250288	0.000567	5.674695	0.961319	-0.000114
1127	1.1204e+02	-2.4309	10.117062	0.000669	6.688034	1.132984	-0.000134
1128	1.1214e+02	-2.4493	10.016134	0.000507	5.066692	0.858321	-0.000101
1129	1.1224e+02	-2.4696	9.890983	0.000628	6.282698	1.064318	-0.000126
1130	1.1234e+02	-2.4893	9.765831	0.000628	6.282698	1.064318	-0.000126
1131	1.1244e+02	-2.5092	9.660866	0.000527	5.269360	0.892654	-0.000105
1132	1.1253e+02	-2.5281	9.507455	0.000770	7.701372	1.304648	-0.000154
1133	1.1263e+02	-2.5480	9.418638	0.000446	4.458689	0.755322	-0.000089
1134	1.1273e+02	-2.5688	9.313672	0.000527	5.269360	0.892654	-0.000105
1135	1.1283e+02	-2.5900	9.160261	0.000770	7.701372	1.304648	-0.000154
1136	1.1293e+02	-2.6083	9.047221	0.000567	5.674695	0.961319	-0.000114
1137	1.1303e+02	-2.6278	8.938219	0.000547	5.472028	0.926987	-0.000110
1138	1.1313e+02	-2.6480	8.809030	0.000649	6.485366	1.098651	-0.000130
1139	1.1323e+02	-2.6683	8.708102	0.000507	5.066692	0.858321	-0.000101
1140	1.1333e+02	-2.6881	8.611211	0.000486	4.864025	0.823988	-0.000097
1141	1.1343e+02	-2.7077	8.465874	0.000730	7.296037	1.235982	-0.000146
1142	1.1353e+02	-2.7292	8.304388	0.000811	8.106708	1.373313	-0.000162
1143	1.1363e+02	-2.7484	8.255943	0.000243	2.432012	0.411994	-0.000049
1144	1.1373e+02	-2.7673	8.118680	0.000689	6.890702	1.167316	-0.000138
1145	1.1383e+02	-2.7872	7.977380	0.000709	7.093369	1.201649	-0.000142
1146	1.1393e+02	-2.8082	7.844155	0.000669	6.688034	1.132984	-0.000134
1147	1.1403e+02	-2.8281	7.751301	0.000466	4.661357	0.789655	-0.000093
1148	1.1413e+02	-2.8467	7.622112	0.000649	6.485366	1.098651	-0.000130
1149	1.1423e+02	-2.8677	7.509072	0.000567	5.674695	0.961319	-0.000114
1150	1.1433e+02	-2.8877	7.412181	0.000486	4.864025	0.823988	-0.000097
1151	1.1442e+02	-2.9076	7.278956	0.000669	6.688034	1.132984	-0.000134
1152	1.1452e+02	-2.9277	7.157842	0.000608	6.080031	1.029985	-0.000122
1153	1.1462e+02	-2.9467	7.048839	0.000547	5.472028	0.926987	-0.000110
1154	1.1472e+02	-2.9677	6.939836	0.000547	5.472028	0.926987	-0.000110
1155	1.1482e+02	-2.9874	6.859094	0.000405	4.053354	0.686657	-0.000081
1156	1.1492e+02	-3.0076	6.689534	0.000851	8.512043	1.441979	-0.000170
1157	1.1502e+02	-3.0278	6.576494	0.000567	5.674695	0.961319	-0.000114
1158	1.1512e+02	-3.0461	6.463454	0.000567	5.674695	0.961319	-0.000114
1159	1.1522e+02	-3.0664	6.326192	0.000689	6.890702	1.167316	-0.000138
1160	1.1532e+02	-3.0869	6.233338	0.000466	4.661357	0.789655	-0.000093
1161	1.1542e+02	-3.1071	6.112224	0.000608	6.080031	1.029985	-0.000122
1162	1.1552e+02	-3.1258	6.019369	0.000466	4.661357	0.789655	-0.000093
1163	1.1562e+02	-3.1468	5.890181	0.000649	6.485366	1.098651	-0.000130
1164	1.1572e+02	-3.1657	5.773104	0.000588	5.877363	0.995652	-0.000118
1165	1.1582e+02	-3.1860	5.639879	0.000669	6.688034	1.132984	-0.000134
1166	1.1592e+02	-3.2059	5.534913	0.000527	5.269360	0.892654	-0.000105
1167	1.1602e+02	-3.2267	5.450133	0.000426	4.256022	0.720990	-0.000085
1168	1.1612e+02	-3.2463	5.296722	0.000770	7.701372	1.304648	-0.000154
1169	1.1622e+02	-3.2661	5.179645	0.000588	5.877363	0.995652	-0.000118
1170	1.1632e+02	-3.2864	5.058531	0.000608	6.080031	1.029985	-0.000122
1171	1.1642e+02	-3.3068	4.945491	0.000567	5.674695	0.961319	-0.000114
1172	1.1651e+02	-3.3258	4.844563	0.000507	5.066692	0.858321	-0.000101
1173	1.1661e+02	-3.3463	4.719412	0.000628	6.282698	1.064318	-0.000126
1174	1.1671e+02	-3.3665	4.622520	0.000486	4.864025	0.823988	-0.000097
1175	1.1681e+02	-3.3861	4.481221	0.000709	7.093369	1.201649	-0.000142
1176	1.1691e+02	-3.4059	4.376255	0.000527	5.269360	0.892654	-0.000105
1177	1.1701e+02	-3.4251	4.295512	0.000405	4.053354	0.686657	-0.000081
1178	1.1711e+02	-3.4467	4.138064	0.000790	7.904040	1.338981	-0.000158
1179	1.1721e+02	-3.4648	4.045210	0.000466	4.661357	0.789655	-0.000093
1180	1.1731e+02	-3.4860	3.936207	0.000547	5.472028	0.926987	-0.000110
1181	1.1741e+02	-3.5047	3.778759	0.000790	7.904040	1.338981	-0.000158
1182	1.1751e+02	-3.5257	3.710128	0.000345	3.445351	0.583658	-0.000069
1183	1.1761e+02	-3.5455	3.540568	0.000851	8.512043	1.441979	-0.000170
1184	1.1771e+02	-3.5649	3.427528	0.000567	5.674695	0.961319	-0.000114
1185	1.1781e+02	-3.5851	3.298340	0.000649	6.485366	1.098651	-0.000130
1186	1.1791e+02	-3.6044	3.217597	0.000405	4.053354	0.686657	-0.000081
1187	1.1801e+02	-3.6249	3.100520	0.000588	5.877363	0.995652	-0.000118
1188	1.1811e+02	-3.6444	2.947109	0.000770	7.701372	1.304648	-0.000154
1189	1.1821e+02	-3.6650	2.825995	0.000608	6.080031	1.029985	-0.000122
1190	1.1831e+02	-3.6848	2.716992	0.000547	5.472028	0.926987	-0.000110
1191	1.1841e+02	-3.7036	2.595878	0.000608	6.080031	1.029985	-0.000122
1192	1.1850e+02	-3.7251	2.519173	0.000385	3.850686	0.652324	-0.000077
1193	1.1860e+02	-3.7444	2.349613	0.000851	8.512043	1.441979	-0.000170
1194	1.1870e+02	-3.7650	2.200239	0.000750	7.498705	1.270315	-0.000150
1195	1.1880e+02	-3.7840	2.119496	0.000405	4.053354	0.686657	-0.000081
1196	1.1890e+02	-3.8043	1.986271	0.000669	6.688034	1.132984	-0.000134
1197	1.1900e+02	-3.8239	1.901491	0.000426	4.256022	0.720990	-0.000085
1198	1.1910e+02	-3.8438	1.792488	0.000547	5.472028	0.926987	-0.000110
1199	1.1920e+02	-3.8636	1.631003	0.000811	8.106708	1.373313	-0.000162
1200	1.1930e+02	-3.8837	1.493740	0.000689	6.890702	1.167316	-0.000138
1201	1.1940e+02	-3.9037	1.412998	0.000405	4.053354	0.686657	-0.000081
1202	1.1950e+02	-3.9232	1.295921	0.000588	5.877363	0.995652	-0.000118
1203	1.1960e+02	-3.9435	1.170769	0.000628	6.282698	1.064318	-0.000126
1204	1.1970e+02	-3.9641	1.065804	0.000527	5.269360	0.892654	-0.000105
1205	1.1980e+02	-3.9836	0.908356	0.000790	7.904040	1.338981	-0.000158
1206	1.1990e+02	-4.0039	0.823576	0.000426	4.256022	0.720990	-0.000085
1207	1.2000e+02	-4.0230	0.690350	0.000669	6.688034	1.132984	-0.000134
1208	1.2010e+02	-4.0437	0.581348	0.000547	5.472028	0.926987	-0.000110
1209	1.2020e+02	-4.0647	0.456196	0.000628	6.282698	1.064318	-0.000126
1210	1.2030e+02	-4.0826	0.327008	0.000649	6.485366	1.098651	-0.000130
1211	1.2039e+02	-4.1038	0.234154	0.000466	4.661357	0.789655	-0.000093
1212	1.2049e+02	-4.1222	0.068631	0.000831	8.309375	1.407646	-0.000166
1213	1.2059e+02	-4.1437	-0.044408	0.000567	5.674695	0.961319	-0.000114
1214	1.2069e+02	-4.1630	-0.153411	0.000547	5.472028	0.926987	-0.000110
1215	1.2079e+02	-4.1827	-0.302785	0.000750	7.498705	1.270315	-0.000150
1216	1.2089e+02	-4.2033	-0.395639	0.000466	4.661357	0.789655	-0.000093
1217	1.2099e+02	-4.2220	-0.500605	0.000527	5.269360	0.892654	-0.000105
1218	1.2109e+02	-4.2426	-0.654016	0.000770	7.701372	1.304648	-0.000154
1219	1.2119e+02	-4.2627	-0.767056	0.000567	5.674695	0.961319	-0.000114
1220	1.2129e+02	-4.2828	-0.876058	0.000547	5.472028	0.926987	-0.000110
1221	1.2139e+02	-4.3024	-0.993135	0.000588	5.877363	0.995652	-0.000118
1222	1.2149e+02	-4.3224	-1.126361	0.000669	6.688034	1.132984	-0.000134
1223	1.2159e+02	-4.3436	-1.247475	0.000608	6.080031	1.029985	-0.000122
1224	1.2169e+02	-4.3622	-1.384738	0.000689	6.890702	1.167316	-0.000138
1225	1.2179e+02	-4.3820	-1.526037	0.000709	7.093369	1.201649	-0.000142
1226	1.2189e+02	-4.4017	-1.663300	0.000689	6.890702	1.167316	-0.000138
1227	1.2199e+02	-4.4218	-1.788451	0.000628	6.282698	1.064318	-0.000126
1228	1.2209e+02	-4.4415	-1.865157	0.000385	3.850686	0.652324	-0.000077
1229	1.2219e+02	-4.4616	-2.014531	0.000750	7.498705	1.270315	-0.000150
1230	1.2229e+02	-4.4818	-2.151793	0.000689	6.890702	1.167316	-0.000138
1231	1.2239e+02	-4.5016	-2.280982	0.000649	6.485366	1.098651	-0.000130
1232	1.2248e+02	-4.5224	-2.365762	0.000426	4.256022	0.720990	-0.000085
1233	1.2258e+02	-4.5377	-2.482838	0.000588	5.877363	0.995652	-0.000118
1234	1.2268e+02	-4.5618	-2.632213	0.000750	7.498705	1.270315	-0.000150
1235	1.2278e+02	-4.5807	-2.777549	0.000730	7.296037	1.235982	-0.000146
1236	1.2288e+02	-4.6013	-2.866366	0.000446	4.458689	0.755322	-0.000089
1237	1.2298e+02	-4.6216	-2.971332	0.000527	5.269360	0.892654	-0.000105
1238	1.2308e+02	-4.6416	-3.124743	0.000770	7.701372	1.304648	-0.000154
1239	1.2318e+02	-4.6606	-3.262006	0.000689	6.890702	1.167316	-0.000138
1240	1.2328e+02	-4.6814	-3.358897	0.000486	4.864025	0.823988	-0.000097
1241	1.2338e+02	-4.6999	-3.500197	0.000709	7.093369	1.201649	-0.000142
1242	1.2348e+02	-4.7211	-3.617274	0.000588	5.877363	0.995652	-0.000118
1243	1.2358e+02	-4.7408	-3.758573	0.000709	7.093369	1.201649	-0.000142
1244	1.2368e+02	-4.7620	-3.899873	0.000709	7.093369	1.201649	-0.000142
1245	1.2378e+02	-4.7812	-4.037136	0.000689	6.890702	1.167316	-0.000138
1246	1.2388e+02	-4.8007	-4.134027	0.000486	4.864025	0.823988	-0.000097
1247	1.2398e+02	-4.8202	-4.279364	0.000730	7.296037	1.235982	-0.000146
1248	1.2408e+02	-4.8399	-4.384329	0.000527	5.269360	0.892654	-0.000105
1249	1.2418e+02	-4.8608	-4.545815	0.000811	8.106708	1.373313	-0.000162
1250	1.2428e+02	-4.8804	-4.679040	0.000669	6.688034	1.132984	-0.000134
1251	1.2438e+02	-4.8999	-4.775932	0.000486	4.864025	0.823988	-0.000097
1252	1.2447e+02	-4.9200	-4.913194	0.000689	6.890702	1.167316	-0.000138
1253	1.2457e+02	-4.9401	-5.050457	0.000689	6.890702	1.167316	-0.000138
1254	1.2467e+02	-4.9602	-5.191757	0.000709	7.093369	1.201649	-0.000142
1255	1.2477e+02	-4.9796	-5.324982	0.000669	6.688034	1.132984	-0.000134
1256	1.2487e+02	-4.9985	-5.446096	0.000608	6.080031	1.029985	-0.000122
1257	1.2497e+02	-5.0204	-5.599507	0.000770	7.701372	1.304648	-0.000154
1258	1.2507e+02	-5.0403	-5.716584	0.000588	5.877363	0.995652	-0.000118
1259	1.2517e+02	-5.0584	-5.865958	0.000750	7.498705	1.270315	-0.000150
1260	1.2527e+02	-5.0786	-5.954775	0.000446	4.458689	0.755322	-0.000089
1261	1.2537e+02	-5.0989	-6.092038	0.000689	6.890702	1.167316	-0.000138
1262	1.2547e+02	-5.1193	-6.253523	0.000811	8.106708	1.373313	-0.000162
1263	1.2557e+02	-5.1395	-6.354452	0.000507	5.066692	0.858321	-0.000101
1264	1.2567e+02	-5.1596	-6.487677	0.000669	6.688034	1.132984	-0.000134
1265	1.2577e+02	-5.1781	-6.624940	0.000689	6.890702	1.167316	-0.000138
1266	1.2587e+02	-5.1990	-6.762202	0.000689	6.890702	1.167316	-0.000138
1267	1.2597e+02	-5.2182	-6.915614	0.000770	7.701372	1.304648	-0.000154
1268	1.2607e+02	-5.2382	-7.052876	0.000689	6.890702	1.167316	-0.000138
1269	1.2617e+02	-5.2588	-7.157842	0.000527	5.269360	0.892654	-0.000105
1270	1.2627e+02	-5.2789	-7.295104	0.000689	6.890702	1.167316	-0.000138
1271	1.2636e+02	-5.2994	-7.391996	0.000486	4.864025	0.823988	-0.000097
1272	1.2646e+02	-5.3185	-7.525221	0.000669	6.688034	1.132984	-0.000134
1273	1.2656e+02	-5.3384	-7.706892	0.000912	9.120046	1.544978	-0.000183
1274	1.2666e+02	-5.3586	-7.823969	0.000588	5.877363	0.995652	-0.000118
1275	1.2676e+02	-5.3766	-7.949120	0.000628	6.282698	1.064318	-0.000126
1276	1.2686e+02	-5.3966	-8.070234	0.000608	6.080031	1.029985	-0.000122
1277	1.2696e+02	-5.4181	-8.239794	0.000851	8.512043	1.441979	-0.000170
1278	1.2706e+02	-5.4379	-8.364945	0.000628	6.282698	1.064318	-0.000126
1279	1.2716e+02	-5.4578	-8.526431	0.000811	8.106708	1.373313	-0.000162
1280	1.2726e+02	-5.4791	-8.623322	0.000486	4.864025	0.823988	-0.000097
1281	1.2736e+02	-5.4980	-8.784807	0.000811	8.106708	1.373313	-0.000162
1282	1.2746e+02	-5.5185	-8.918033	0.000669	6.688034	1.132984	-0.000134
1283	1.2756e+02	-5.5370	-9.051258	0.000669	6.688034	1.132984	-0.000134
1284	1.2766e+02	-5.5569	-9.172372	0.000608	6.080031	1.029985	-0.000122
1285	1.2776e+02	-5.5774	-9.325784	0.000770	7.701372	1.304648	-0.000154
1286	1.2786e+02	-5.5966	-9.471120	0.000730	7.296037	1.235982	-0.000146
1287	1.2796e+02	-5.6166	-9.596272	0.000628	6.282698	1.064318	-0.000126
1288	1.2806e+02	-5.6377	-9.717386	0.000608	6.080031	1.029985	-0.000122
1289	1.2816e+02	-5.6577	-9.874834	0.000790	7.904040	1.338981	-0.000158
1290	1.2826e+02	-5.6772	-10.004022	0.000649	6.485366	1.098651	-0.000130
1291	1.2835e+02	-5.6967	-10.165508	0.000811	8.106708	1.373313	-0.000162
1292	1.2845e+02	-5.7184	-10.286622	0.000608	6.080031	1.029985	-0.000122
1293	1.2855e+02	-5.7373	-10.411773	0.000628	6.282698	1.064318	-0.000126
1294	1.2865e+02	-5.7568	-10.589407	0.000892	8.917378	1.510645	-0.000179
1295	1.2875e+02	-5.7764	-10.746855	0.000790	7.904040	1.338981	-0.000158
1296	1.2885e+02	-5.7970	-10.851821	0.000527	5.269360	0.892654	-0.000105
1297	1.2895e+02	-5.8171	-11.009269	0.000790	7.904040	1.338981	-0.000158
1298	1.2905e+02	-5.8368	-11.118272	0.000547	5.472028	0.926987	-0.000110
1299	1.2915e+02	-5.8569	-11.275720	0.000790	7.904040	1.338981	-0.000158
1300	1.2925e+02	-5.8765	-11.445280	0.000851	8.512043	1.441979	-0.000170
1301	1.2935e+02	-5.8959	-11.598691	0.000770	7.701372	1.304648	-0.000154
1302	1.2945e+02	-5.9164	-11.723842	0.000628	6.282698	1.064318	-0.000126
1303	1.2955e+02	-5.9354	-11.824771	0.000507	5.066692	0.858321	-0.000101
1304	1.2965e+02	-5.9564	-11.986256	0.000811	8.106708	1.373313	-0.000162
1305	1.2975e+02	-5.9763	-12.159853	0.000871	8.714711	1.476312	-0.000174
1306	1.2985e+02	-5.9961	-12.276930	0.000588	5.877363	0.995652	-0.000118
1307	1.2995e+02	-6.0149	-12.446489	0.000851	8.512043	1.441979	-0.000170
1308	1.3005e+02	-6.0352	-12.551455	0.000527	5.269360	0.892654	-0.000105
1309	1.3015e+02	-6.0565	-12.704866	0.000770	7.701372	1.304648	-0.000154
1310	1.3025e+02	-6.0768	-12.894612	0.000953	9.525382	1.613643	-0.000191
1311	1.3034e+02	-6.0959	-13.023800	0.000649	6.485366	1.098651	-0.000130
1312	1.3044e+02	-6.1157	-13.185285	0.000811	8.106708	1.373313	-0.000162
1313	1.3054e+02	-6.1353	-13.350808	0.000831	8.309375	1.407646	-0.000166
1314	1.3064e+02	-6.1555	-13.463848	0.000567	5.674695	0.961319	-0.000114
1315	1.3074e+02	-6.1752	-13.605147	0.000709	7.093369	1.201649	-0.000142
1316	1.3084e+02	-6.1954	-13.734336	0.000649	6.485366	1.098651	-0.000130
1317	1.3094e+02	-6.2151	-13.891784	0.000790	7.904040	1.338981	-0.000158
1318	1.3104e+02	-6.2354	-14.029047	0.000689	6.890702	1.167316	-0.000138
1319	1.3114e+02	-6.2549	-14.202644	0.000871	8.714711	1.476312	-0.000174
1320	1.3124e+02	-6.2756	-14.356055	0.000770	7.701372	1.304648	-0.000154
1321	1.3134e+02	-6.2959	-14.501392	0.000730	7.296037	1.235982	-0.000146
1322	1.3144e+02	-6.3152	-14.666914	0.000831	8.309375	1.407646	-0.000166
1323	1.3154e+02	-6.3351	-14.771880	0.000527	5.269360	0.892654	-0.000105
1324	1.3164e+02	-6.3541	-14.941439	0.000851	8.512043	1.441979	-0.000170
1325	1.3174e+02	-6.3742	-15.078702	0.000689	6.890702	1.167316	-0.000138
1326	1.3184e+02	-6.3947	-15.248262	0.000851	8.512043	1.441979	-0.000170
1327	1.3194e+02	-6.4151	-15.377450	0.000649	6.485366	1.098651	-0.000130
1328	1.3204e+02	-6.4352	-15.547010	0.000851	8.512043	1.441979	-0.000170
1329	1.3214e+02	-6.4549	-15.684272	0.000689	6.890702	1.167316	-0.000138
1330	1.3224e+02	-6.4749	-15.841721	0.000790	7.904040	1.338981	-0.000158
1331	1.3234e+02	-6.4946	-15.983020	0.000709	7.093369	1.201649	-0.000142
1332	1.3243e+02	-6.5137	-16.128357	0.000730	7.296037	1.235982	-0.000146
1333	1.3253e+02	-6.5349	-16.314066	0.000932	9.322714	1.579310	-0.000187
1334	1.3263e+02	-6.5543	-16.467477	0.000770	7.701372	1.304648	-0.000154
1335	1.3273e+02	-6.5741	-16.592628	0.000628	6.282698	1.064318	-0.000126
1336	1.3283e+02	-6.5938	-16.762188	0.000851	8.512043	1.441979	-0.000170
1337	1.3293e+02	-6.6132	-16.883302	0.000608	6.080031	1.029985	-0.000122
1338	1.3303e+02	-6.6332	-17.069010	0.000932	9.322714	1.579310	-0.000187
1339	1.3313e+02	-6.6539	-17.206273	0.000689	6.890702	1.167316	-0.000138
1340	1.3323e+02	-6.6736	-17.375832	0.000851	8.512043	1.441979	-0.000170
1341	1.3333e+02	-6.6942	-17.521169	0.000730	7.296037	1.235982	-0.000146
1342	1.3343e+02	-6.7140	-17.718989	0.000993	9.930717	1.682309	-0.000199
1343	1.3353e+02	-6.7331	-17.864326	0.000730	7.296037	1.235982	-0.000146
1344	1.3363e+02	-6.7529	-17.969291	0.000527	5.269360	0.892654	-0.000105
1345	1.3373e+02	-6.7727	-18.167111	0.000993	9.930717	1.682309	-0.000199
1346	1.3383e+02	-6.7931	-18.324559	0.000790	7.904040	1.338981	-0.000158
1347	1.3393e+02	-6.8139	-18.477970	0.000770	7.701372	1.304648	-0.000154
1348	1.3403e+02	-6.8329	-18.655604	0.000892	8.917378	1.510645	-0.000179
1349	1.3413e+02	-6.8529	-18.800941	0.000730	7.296037	1.235982	-0.000146
1350	1.3423e+02	-6.8724	-18.994724	0.000973	9.728049	1.647976	-0.000195
1351	1.3432e+02	-6.8893	-19.119875	0.000628	6.282698	1.064318	-0.000126
1352	1.3442e+02	-6.9125	-19.301546	0.000912	9.120046	1.544978	-0.000183
1353	1.3452e+02	-6.9318	-19.454957	0.000770	7.701372	1.304648	-0.000154
1354	1.3462e+02	-6.9525	-19.632591	0.000892	8.917378	1.510645	-0.000179
1355	1.3472e+02	-6.9727	-19.802151	0.000851	8.512043	1.441979	-0.000170
1356	1.3482e+02	-6.9914	-19.931339	0.000649	6.485366	1.098651	-0.000130
1357	1.3492e+02	-7.0123	-20.129159	0.000993	9.930717	1.682309	-0.000199
1358	1.3502e+02	-7.0322	-20.310830	0.000912	9.120046	1.544978	-0.000183
1359	1.3512e+02	-7.0517	-20.460204	0.000750	7.498705	1.270315	-0.000150
1360	1.3522e+02	-7.0715	-20.617652	0.000790	7.904040	1.338981	-0.000158
1361	1.3532e+02	-7.0917	-20.795286	0.000892	8.917378	1.510645	-0.000179
1362	1.3542e+02	-7.1121	-20.928512	0.000669	6.688034	1.132984	-0.000134
1363	1.3552e+02	-7.1317	-21.150554	0.001115	11.146723	1.888306	-0.000223
1364	1.3562e+02	-7.1518	-21.312040	0.000811	8.106708	1.373313	-0.000162
1365	1.3572e+02	-7.1720	-21.461414	0.000750	7.498705	1.270315	-0.000150
1366	1.3582e+02	-7.1930	-21.671345	0.001054	10.538720	1.785308	-0.000211
1367	1.3592e+02	-7.2114	-21.865127	0.000973	9.728049	1.647976	-0.000195
1368	1.3602e+02	-7.2318	-21.990278	0.000628	6.282698	1.064318	-0.000126
1369	1.3612e+02	-7.2513	-22.204247	0.001074	10.741388	1.819640	-0.000215
1370	1.3622e+02	-7.2720	-22.321323	0.000588	5.877363	0.995652	-0.000118
1371	1.3631e+02	-7.2906	-22.547403	0.001135	11.349391	1.922639	-0.000227
1372	1.3641e+02	-7.3108	-22.664480	0.000588	5.877363	0.995652	-0.000118
1373	1.3651e+02	-7.3318	-22.821928	0.000790	7.904040	1.338981	-0.000158
1374	1.3661e+02	-7.3505	-23.023785	0.001013	10.133385	1.716642	-0.000203
1375	1.3671e+02	-7.3706	-23.233716	0.001054	10.538720	1.785308	-0.000211
1376	1.3681e+02	-7.3914	-23.411350	0.000892	8.917378	1.510645	-0.000179
1377	1.3691e+02	-7.4103	-23.540538	0.000649	6.485366	1.098651	-0.000130
1378	1.3701e+02	-7.4313	-23.766618	0.001135	11.349391	1.922639	-0.000227
1379	1.3711e+02	-7.4510	-23.940215	0.000871	8.714711	1.476312	-0.000174
1380	1.3721e+02	-7.4707	-24.125923	0.000932	9.322714	1.579310	-0.000187
1381	1.3731e+02	-7.4905	-24.271260	0.000730	7.296037	1.235982	-0.000146
1382	1.3741e+02	-7.5101	-24.456968	0.000932	9.322714	1.579310	-0.000187
1383	1.3751e+02	-7.5307	-24.666899	0.001054	10.538720	1.785308	-0.000211
1384	1.3761e+02	-7.5494	-24.848570	0.000912	9.120046	1.544978	-0.000183
1385	1.3771e+02	-7.5699	-25.018130	0.000851	8.512043	1.441979	-0.000170
1386	1.3781e+02	-7.5906	-25.264395	0.001236	12.362729	2.094303	-0.000248
1387	1.3791e+02	-7.6093	-25.405695	0.000709	7.093369	1.201649	-0.000142
1388	1.3801e+02	-7.6303	-25.599478	0.000973	9.728049	1.647976	-0.000195
1389	1.3811e+02	-7.6497	-25.809409	0.001054	10.538720	1.785308	-0.000211
1390	1.3821e+02	-7.6689	-25.958783	0.000750	7.498705	1.270315	-0.000150
1391	1.3831e+02	-7.6895	-26.156602	0.000993	9.930717	1.682309	-0.000199
1392	1.3840e+02	-7.7103	-26.310014	0.000770	7.701372	1.304648	-0.000154
1393	1.3850e+02	-7.7287	-26.523982	0.001074	10.741388	1.819640	-0.000215
1394	1.3860e+02	-7.7492	-26.750061	0.001135	11.349391	1.922639	-0.000227
1395	1.3870e+02	-7.7690	-26.964030	0.001074	10.741388	1.819640	-0.000215
1396	1.3880e+02	-7.7890	-27.149738	0.000932	9.322714	1.579310	-0.000187
1397	1.3890e+02	-7.8088	-27.315260	0.000831	8.309375	1.407646	-0.000166
1398	1.3900e+02	-7.8289	-27.492894	0.000892	8.917378	1.510645	-0.000179
1399	1.3910e+02	-7.8485	-27.727048	0.001175	11.754726	1.991305	-0.000235
1400	1.3920e+02	-7.8687	-27.908719	0.000912	9.120046	1.544978	-0.000183
1401	1.3930e+02	-7.8880	-28.082316	0.000871	8.714711	1.476312	-0.000174
1402	1.3940e+02	-7.9083	-28.316470	0.001175	11.754726	1.991305	-0.000235
1403	1.3950e+02	-7.9288	-28.498141	0.000912	9.120046	1.544978	-0.000183
1404	1.3960e+02	-7.9491	-28.691924	0.000973	9.728049	1.647976	-0.000195
1405	1.3970e+02	-7.9680	-28.926078	0.001175	11.754726	1.991305	-0.000235
1406	1.3980e+02	-7.9883	-29.127934	0.001013	10.133385	1.716642	-0.000203
1407	1.3990e+02	-8.0075	-29.293457	0.000831	8.309375	1.407646	-0.000166
1408	1.4000e+02	-8.0289	-29.503388	0.001054	10.538720	1.785308	-0.000211
1409	1.4010e+02	-8.0472	-29.685059	0.000912	9.120046	1.544978	-0.000183
1410	1.4020e+02	-8.0679	-29.951510	0.001338	13.376068	2.265967	-0.000268
1411	1.4029e+02	-8.0884	-30.125107	0.000871	8.714711	1.476312	-0.000174
1412	1.4039e+02	-8.1076	-30.359261	0.001175	11.754726	1.991305	-0.000235
1413	1.4049e+02	-8.1279	-30.561118	0.001013	10.133385	1.716642	-0.000203
1414	1.4059e+02	-8.1476	-30.815457	0.001277	12.768065	2.162969	-0.000256
1415	1.4069e+02	-8.1677	-30.989054	0.000871	8.714711	1.476312	-0.000174
1416	1.4079e+02	-8.1873	-31.211096	0.001115	11.146723	1.888306	-0.000223
1417	1.4089e+02	-8.2068	-31.473510	0.001317	13.173400	2.231634	-0.000264
1418	1.4099e+02	-8.2266	-31.655181	0.000912	9.120046	1.544978	-0.000183
1419	1.4109e+02	-8.2477	-31.865112	0.001054	10.538720	1.785308	-0.000211
1420	1.4119e+02	-8.2671	-32.075043	0.001054	10.538720	1.785308	-0.000211
1421	1.4129e+02	-8.2874	-32.333420	0.001297	12.970732	2.197302	-0.000260
1422	1.4139e+02	-8.3068	-32.507017	0.000871	8.714711	1.476312	-0.000174
1423	1.4149e+02	-8.3261	-32.733097	0.001135	11.349391	1.922639	-0.000227
1424	1.4159e+02	-8.3464	-33.007622	0.001378	13.781403	2.334633	-0.000276
1425	1.4169e+02	-8.3664	-33.209479	0.001013	10.133385	1.716642	-0.000203
1426	1.4179e+02	-8.3870	-33.471892	0.001317	13.173400	2.231634	-0.000264
1427	1.4189e+02	-8.4067	-33.649526	0.000892	8.917378	1.510645	-0.000179
1428	1.4199e+02	-8.4268	-33.887717	0.001196	11.957394	2.025637	-0.000239
1429	1.4209e+02	-8.4454	-34.073426	0.000932	9.322714	1.579310	-0.000187
1430	1.4219e+02	-8.4668	-34.351988	0.001398	13.984071	2.368966	-0.000280
1431	1.4228e+02	-8.4869	-34.590179	0.001196	11.957394	2.025637	-0.000239
1432	1.4238e+02	-8.5060	-34.767813	0.000892	8.917378	1.510645	-0.000179
1433	1.4248e+02	-8.5262	-35.018115	0.001257	12.565397	2.128636	-0.000252
1434	1.4258e+02	-8.5455	-35.248232	0.001155	11.552059	1.956972	-0.000231
1435	1.4268e+02	-8.5661	-35.486423	0.001196	11.957394	2.025637	-0.000239
1436	1.4278e+02	-8.5857	-35.744800	0.001297	12.970732	2.197302	-0.000260
1437	1.4288e+02	-8.6047	-35.974917	0.001155	11.552059	1.956972	-0.000231
1438	1.4298e+02	-8.6256	-36.217145	0.001216	12.160062	2.059970	-0.000243
1439	1.4308e+02	-8.6453	-36.427076	0.001054	10.538720	1.785308	-0.000211
1440	1.4318e+02	-8.6658	-36.657193	0.001155	11.552059	1.956972	-0.000231
1441	1.4328e+02	-8.6864	-36.911532	0.001277	12.768065	2.162969	-0.000256
1442	1.4338e+02	-8.7054	-37.117426	0.001034	10.336052	1.750975	-0.000207
1443	1.4348e+02	-8.7247	-37.395988	0.001398	13.984071	2.368966	-0.000280
1444	1.4358e+02	-8.7453	-37.674551	0.001398	13.984071	2.368966	-0.000280
1445	1.4368e+02	-8.7659	-37.904667	0.001155	11.552059	1.956972	-0.000231
1446	1.4378e+02	-8.7854	-38.171118	0.001338	13.376068	2.265967	-0.000268
1447	1.4388e+02	-8.8052	-38.389124	0.001094	10.944055	1.853973	-0.000219
1448	1.4398e+02	-8.8254	-38.663649	0.001378	13.781403	2.334633	-0.000276
1449	1.4408e+02	-8.8441	-38.901840	0.001196	11.957394	2.025637	-0.000239
1450	1.4418e+02	-8.8644	-39.188477	0.001439	14.389406	2.437631	-0.000288
1451	1.4428e+02	-8.8843	-39.422630	0.001175	11.754726	1.991305	-0.000235
1452	1.4437e+02	-8.9050	-39.689081	0.001338	13.376068	2.265967	-0.000268
1453	1.4447e+02	-8.9243	-39.935347	0.001236	12.362729	2.094303	-0.000248
1454	1.4457e+02	-8.9436	-40.205835	0.001358	13.578735	2.300300	-0.000272
1455	1.4467e+02	-8.9645	-40.488434	0.001419	14.186739	2.403299	-0.000284
1456	1.4477e+02	-8.9835	-40.702403	0.001074	10.741388	1.819640	-0.000215
1457	1.4487e+02	-9.0050	-41.009225	0.001540	15.402745	2.609296	-0.000308
1458	1.4497e+02	-9.0239	-41.255490	0.001236	12.362729	2.094303	-0.000248
1459	1.4507e+02	-9.0437	-41.521941	0.001338	13.376068	2.265967	-0.000268
1460	1.4517e+02	-9.0628	-41.796466	0.001378	13.781403	2.334633	-0.000276
1461	1.4527e+02	-9.0836	-42.054843	0.001297	12.970732	2.197302	-0.000260
1462	1.4537e+02	-9.1037	-42.349554	0.001479	14.794742	2.506297	-0.000296
1463	1.4547e+02	-9.1238	-42.571596	0.001115	11.146723	1.888306	-0.000223
1464	1.4557e+02	-9.1440	-42.874382	0.001520	15.200077	2.574963	-0.000304
1465	1.4567e+02	-9.1626	-43.161018	0.001439	14.389406	2.437631	-0.000288
1466	1.4577e+02	-9.1830	-43.451692	0.001459	14.592074	2.471964	-0.000292
1467	1.4587e+02	-9.2036	-43.710069	0.001297	12.970732	2.197302	-0.000260
1468	1.4597e+02	-9.2236	-44.045151	0.001682	16.821419	2.849625	-0.000337
1469	1.4607e+02	-9.2432	-44.303528	0.001297	12.970732	2.197302	-0.000260
1470	1.4617e+02	-9.2623	-44.582090	0.001398	13.984071	2.368966	-0.000280
1471	1.4626e+02	-9.2828	-44.872764	0.001459	14.592074	2.471964	-0.000292
1472	1.4636e+02	-9.3022	-45.183623	0.001561	15.605412	2.643628	-0.000312
1473	1.4646e+02	-9.3219	-45.458148	0.001378	13.781403	2.334633	-0.000276
1474	1.4656e+02	-9.3422	-45.769008	0.001561	15.605412	2.643628	-0.000312
1475	1.4666e+02	-9.3637	-46.075830	0.001540	15.402745	2.609296	-0.000308
1476	1.4676e+02	-9.3829	-46.386690	0.001561	15.605412	2.643628	-0.000312
1477	1.4686e+02	-9.4023	-46.685438	0.001500	14.997409	2.540630	-0.000300
1478	1.4696e+02	-9.4229	-46.968037	0.001419	14.186739	2.403299	-0.000284
1479	1.4706e+02	-9.4421	-47.242562	0.001378	13.781403	2.334633	-0.000276
1480	1.4716e+02	-9.4621	-47.577645	0.001682	16.821419	2.849625	-0.000337
1481	1.4726e+02	-9.4824	-47.872356	0.001479	14.794742	2.506297	-0.000296
1482	1.4736e+02	-9.5026	-48.195326	0.001621	16.213415	2.746627	-0.000325
1483	1.4746e+02	-9.5227	-48.481963	0.001439	14.389406	2.437631	-0.000288
1484	1.4756e+02	-9.5422	-48.845305	0.001824	18.240092	3.089955	-0.000365
1485	1.4766e+02	-9.5615	-49.164239	0.001601	16.010748	2.712294	-0.000321
1486	1.4776e+02	-9.5819	-49.475098	0.001561	15.605412	2.643628	-0.000312
1487	1.4786e+02	-9.6022	-49.794032	0.001601	16.010748	2.712294	-0.000321
1488	1.4796e+02	-9.6222	-50.121040	0.001642	16.416083	2.780960	-0.000329
1489	1.4806e+02	-9.6417	-50.444011	0.001621	16.213415	2.746627	-0.000325
1490	1.4816e+02	-9.6622	-50.734685	0.001459	14.592074	2.471964	-0.000292
1491	1.4825e+02	-9.6811	-51.093990	0.001804	18.037425	3.055622	-0.000361
1492	1.4835e+02	-9.7017	-51.420998	0.001642	16.416083	2.780960	-0.000329
1493	1.4845e+02	-9.7213	-51.768192	0.001743	17.429422	2.952624	-0.000349
1494	1.4855e+02	-9.7409	-52.103274	0.001682	16.821419	2.849625	-0.000337
1495	1.4865e+02	-9.7610	-52.442393	0.001702	17.024086	2.883958	-0.000341
1496	1.4875e+02	-9.7800	-52.793624	0.001763	17.632089	2.986957	-0.000353
1497	1.4885e+02	-9.8010	-53.144855	0.001763	17.632089	2.986957	-0.000353
1498	1.4895e+02	-9.8209	-53.451677	0.001540	15.402745	2.609296	-0.000308
1499	1.4905e+02	-9.8407	-53.819057	0.001844	18.442760	3.124288	-0.000369
1500	1.4915e+02	-9.8608	-54.146065	0.001642	16.416083	2.780960	-0.000329
1501	1.4925e+02	-9.8810	-54.565927	0.002108	21.077440	3.570615	-0.000422
1502	1.4935e+02	-9.9011	-54.933306	0.001844	18.442760	3.124288	-0.000369
1503	1.4945e+02	-9.9207	-55.276463	0.001723	17.226754	2.918291	-0.000345
1504	1.4955e+02	-9.9410	-55.655953	0.001905	19.050763	3.227287	-0.000381
1505	1.4965e+02	-9.9608	-56.007184	0.001763	17.632089	2.986957	-0.000353
1506	1.4975e+02	-9.9801	-56.390712	0.001925	19.253431	3.261619	-0.000385
1507	1.4985e+02	-10.0000	-56.721757	0.001662	16.618751	2.815293	-0.000333
1508	1.4995e+02	-9.9802	-56.996282	-0.001378	-13.781403	-2.334633	-0.000276
1509	1.5005e+02	-9.9609	-57.165842	-0.000851	-8.512043	-1.441979	-0.000170
1510	1.5015e+02	-9.9396	-57.399996	-0.001175	-11.754726	-1.991305	-0.000235
1511	1.5025e+02	-9.9197	-57.589741	-0.000953	-9.525382	-1.613643	-0.000191
1512	1.5034e+02	-9.9007	-57.836007	-0.001236	-12.362729	-2.094303	-0.000248
1513	1.5044e+02	-9.8807	-58.025752	-0.000953	-9.525382	-1.613643	-0.000191
1514	1.5054e+02	-9.8608	-58.215497	-0.000953	-9.525382	-1.613643	-0.000191
1515	1.5064e+02	-9.8393	-58.372946	-0.000790	-7.904040	-1.338981	-0.000158
1516	1.5074e+02	-9.8212	-58.522320	-0.000750	-7.498705	-1.270315	-0.000150
1517	1.5084e+02	-9.8007	-58.699954	-0.000892	-8.917378	-1.510645	-0.000179
1518	1.5094e+02	-9.7809	-58.889699	-0.000953	-9.525382	-1.613643	-0.000191
1519	1.5104e+02	-9.7614	-59.022924	-0.000669	-6.688034	-1.132984	-0.000134
1520	1.5114e+02	-9.7418	-59.184410	-0.000811	-8.106708	-1.373313	-0.000162
1521	1.5124e+02	-9.7223	-59.305524	-0.000608	-6.080031	-1.029985	-0.000122
1522	1.5134e+02	-9.7009	-59.454898	-0.000750	-7.498705	-1.270315	-0.000150
1523	1.5144e+02	-9.6817	-59.588123	-0.000669	-6.688034	-1.132984	-0.000134
1524	1.5154e+02	-9.6613	-59.693089	-0.000527	-5.269360	-0.892654	-0.000105
1525	1.5164e+02	-9.6411	-59.830352	-0.000689	-6.890702	-1.167316	-0.000138
1526	1.5174e+02	-9.6213	-59.955503	-0.000628	-6.282698	-1.064318	-0.000126
1527	1.5184e+02	-9.6017	-60.080654	-0.000628	-6.282698	-1.064318	-0.000126
1528	1.5194e+02	-9.5821	-60.169471	-0.000446	-4.458689	-0.755322	-0.000089
1529	1.5204e+02	-9.5617	-60.302697	-0.000669	-6.688034	-1.132984	-0.000134
1530	1.5214e+02	-9.5422	-60.379402	-0.000385	-3.850686	-0.652324	-0.000077
1531	1.5224e+02	-9.5215	-60.488405	-0.000547	-5.472028	-0.926987	-0.000110
1532	1.5233e+02	-9.5016	-60.577222	-0.000446	-4.458689	-0.755322	-0.000089
1533	1.5243e+02	-9.4821	-60.678150	-0.000507	-5.066692	-0.858321	-0.000101
1534	1.5253e+02	-9.4614	-60.738707	-0.000304	-3.040015	-0.514993	-0.000061
1535	1.5263e+02	-9.4427	-60.851747	-0.000567	-5.674695	-0.961319	-0.000114
1536	1.5273e+02	-9.4221	-60.940564	-0.000446	-4.458689	-0.755322	-0.000089
1537	1.5283e+02	-9.4022	-61.037455	-0.000486	-4.864025	-0.823988	-0.000097
1538	1.5293e+02	-9.3828	-61.093975	-0.000284	-2.837348	-0.480660	-0.000057
1539	1.5303e+02	-9.3633	-61.198941	-0.000527	-5.269360	-0.892654	-0.000105
1540	1.5313e+02	-9.3427	-61.231238	-0.000162	-1.621342	-0.274663	-0.000032
1541	1.5323e+02	-9.3222	-61.311980	-0.000405	-4.053354	-0.686657	-0.000081
1542	1.5333e+02	-9.3031	-61.372537	-0.000304	-3.040015	-0.514993	-0.000061
1543	1.5343e+02	-9.2827	-61.461354	-0.000446	-4.458689	-0.755322	-0.000089
1544	1.5353e+02	-9.2623	-61.513837	-0.000263	-2.634680	-0.446327	-0.000053
1545	1.5363e+02	-9.2430	-61.558246	-0.000223	-2.229345	-0.377661	-0.000045
1546	1.5373e+02	-9.2233	-61.638988	-0.000405	-4.053354	-0.686657	-0.000081
1547	1.5383e+02	-9.2023	-61.679360	-0.000203	-2.026677	-0.343328	-0.000041
1548	1.5393e+02	-9.1830	-61.723768	-0.000223	-2.229345	-0.377661	-0.000045
1549	1.5403e+02	-9.1624	-61.792400	-0.000345	-3.445351	-0.583658	-0.000069
1550	1.5413e+02	-9.1464	-61.836808	-0.000223	-2.229345	-0.377661	-0.000045
1551	1.5422e+02	-9.1238	-61.873142	-0.000182	-1.824009	-0.308996	-0.000037
1552	1.5432e+02	-9.1034	-61.897365	-0.000122	-1.216006	-0.205997	-0.000024
1553	1.5442e+02	-9.0829	-61.978108	-0.000405	-4.053354	-0.686657	-0.000081
1554	1.5452e+02	-9.0636	-61.994256	-0.000081	-0.810671	-0.137331	-0.000016
1555	1.5462e+02	-9.0436	-62.018479	-0.000122	-1.216006	-0.205997	-0.000024
1556	1.5472e+02	-9.0234	-62.050776	-0.000162	-1.621342	-0.274663	-0.000032
1557	1.5482e+02	-9.0039	-62.111333	-0.000304	-3.040015	-0.514993	-0.000061
1558	1.5492e+02	-8.9848	-62.163816	-0.000263	-2.634680	-0.446327	-0.000053
1559	1.5502e+02	-8.9633	-62.155742	0.000041	0.405335	0.068666	0.000008
1560	1.5512e+02	-8.9435	-62.179965	-0.000122	-1.216006	-0.205997	-0.000024
1561	1.5522e+02	-8.9253	-62.224373	-0.000223	-2.229345	-0.377661	-0.000045
1562	1.5532e+02	-8.9037	-62.236485	-0.000061	-0.608003	-0.102999	-0.000012
1563	1.5542e+02	-8.8849	-62.260707	-0.000122	-1.216006	-0.205997	-0.000024
1564	1.5552e+02	-8.8640	-62.301079	-0.000203	-2.026677	-0.343328	-0.000041
1565	1.5562e+02	-8.8440	-62.288967	0.000061	0.608003	0.102999	0.000012
1566	1.5572e+02	-8.8251	-62.345487	-0.000284	-2.837348	-0.480660	-0.000057
1567	1.5582e+02	-8.8049	-62.313190	0.000162	1.621342	0.274663	0.000032
1568	1.5592e+02	-8.7854	-62.345487	-0.000162	-1.621342	-0.274663	-0.000032
1569	1.5602e+02	-8.7659	-62.381821	-0.000182	-1.824009	-0.308996	-0.000037
1570	1.5612e+02	-8.7457	-62.393933	-0.000061	-0.608003	-0.102999	-0.000012
1571	1.5622e+02	-8.7250	-62.406044	-0.000061	-0.608003	-0.102999	-0.000012
1572	1.5631e+02	-8.7061	-62.393933	0.000061	0.608003	0.102999	0.000012
1573	1.5641e+02	-8.6858	-62.450453	-0.000284	-2.837348	-0.480660	-0.000057
1574	1.5651e+02	-8.6658	-62.414119	0.000182	1.824009	0.308996	0.000037
1575	1.5661e+02	-8.6456	-62.450453	-0.000182	-1.824009	-0.308996	-0.000037
1576	1.5671e+02	-8.6255	-62.434304	0.000081	0.810671	0.137331	0.000016
1577	1.5681e+02	-8.6063	-62.482750	-0.000243	-2.432012	-0.411994	-0.000049
1578	1.5691e+02	-8.5861	-62.466601	0.000081	0.810671	0.137331	0.000016
1579	1.5701e+02	-8.5663	-62.470638	-0.000020	-0.202668	-0.034333	-0.000004
1580	1.5711e+02	-8.5457	-62.458527	0.000061	0.608003	0.102999	0.000012
1581	1.5721e+02	-8.5268	-62.442378	0.000081	0.810671	0.137331	0.000016
1582	1.5731e+02	-8.5057	-62.494861	-0.000263	-2.634680	-0.446327	-0.000053
1583	1.5741e+02	-8.4865	-62.446416	0.000243	2.432012	0.411994	0.000049
1584	1.5751e+02	-8.4668	-62.410081	0.000182	1.824009	0.308996	0.000037
1585	1.5761e+02	-8.4476	-62.422193	-0.000061	-0.608003	-0.102999	-0.000012
1586	1.5771e+02	-8.4267	-62.410081	0.000061	0.608003	0.102999	0.000012
1587	1.5781e+02	-8.4070	-62.402007	0.000041	0.405335	0.068666	0.000008
1588	1.5791e+02	-8.3864	-62.418156	-0.000081	-0.810671	-0.137331	-0.000016
1589	1.5801e+02	-8.3669	-62.418156	0.000000	0.000000	0.000000	0.000000
1590	1.5811e+02	-8.3458	-62.418156	0.000000	0.000000	0.000000	0.000000
1591	1.5821e+02	-8.3263	-62.406044	0.000061	0.608003	0.102999	0.000012
1592	1.5830e+02	-8.3060	-62.385859	0.000101	1.013338	0.171664	0.000020
1593	1.5840e+02	-8.2864	-62.373747	0.000061	0.608003	0.102999	0.000012
1594	1.5850e+02	-8.2663	-62.309153	0.000324	3.242683	0.549325	0.000065
1595	1.5860e+02	-8.2466	-62.337413	-0.000142	-1.418674	-0.240330	-0.000028
1596	1.5870e+02	-8.2257	-62.353561	-0.000081	-0.810671	-0.137331	-0.000016
1597	1.5880e+02	-8.2080	-62.309153	0.000223	2.229345	0.377661	0.000045
1598	1.5890e+02	-8.1873	-62.288967	0.000101	1.013338	0.171664	0.000020
1599	1.5900e+02	-8.1682	-62.232447	0.000284	2.837348	0.480660	0.000057
1600	1.5910e+02	-8.1468	-62.208225	0.000122	1.216006	0.205997	0.000024
1601	1.5920e+02	-8.1273	-62.208225	0.000000	0.000000	0.000000	0.000000
1602	1.5930e+02	-8.1076	-62.171890	0.000182	1.824009	0.308996	0.000037
1603	1.5940e+02	-8.0880	-62.139593	0.000162	1.621342	0.274663	0.000032
1604	1.5950e+02	-8.0679	-62.131519	0.000041	0.405335	0.068666	0.000008
1605	1.5960e+02	-8.0475	-62.095185	0.000182	1.824009	0.308996	0.000037
1606	1.5970e+02	-8.0280	-62.050776	0.000223	2.229345	0.377661	0.000045
1607	1.5980e+02	-8.0087	-62.062888	-0.000061	-0.608003	-0.102999	-0.000012
1608	1.5990e+02	-7.9880	-62.054813	0.000041	0.405335	0.068666	0.000008
1609	1.6000e+02	-7.9683	-62.002331	0.000263	2.634680	0.446327	0.000053
1610	1.6010e+02	-7.9488	-61.929662	0.000365	3.648018	0.617991	0.000073
1611	1.6019e+02	-7.9274	-61.897365	0.000162	1.621342	0.274663	0.000032
1612	1.6029e+02	-7.9086	-61.901402	-0.000020	-0.202668	-0.034333	-0.000004
1613	1.6039e+02	-7.8879	-61.881217	0.000101	1.013338	0.171664	0.000020
1614	1.6049e+02	-7.8687	-61.808548	0.000365	3.648018	0.617991	0.000073
1615	1.6059e+02	-7.8488	-61.756065	0.000263	2.634680	0.446327	0.000053
1616	1.6069e+02	-7.8293	-61.715694	0.000203	2.026677	0.343328	0.000041
1617	1.6079e+02	-7.8094	-61.691471	0.000122	1.216006	0.205997	0.000024
1618	1.6089e+02	-7.7890	-61.638988	0.000263	2.634680	0.446327	0.000053
1619	1.6099e+02	-7.7692	-61.643026	-0.000020	-0.202668	-0.034333	-0.000004
1620	1.6109e+02	-7.7486	-61.594580	0.000243	2.432012	0.411994	0.000049
1621	1.6119e+02	-7.7291	-61.497689	0.000486	4.864025	0.823988	0.000097
1622	1.6129e+02	-7.7087	-61.489614	0.000041	0.405335	0.068666	0.000008
1623	1.6139e+02	-7.6886	-61.485577	0.000020	0.202668	0.034333	0.000004
1624	1.6149e+02	-7.6697	-61.469429	0.000081	0.810671	0.137331	0.000016
1625	1.6159e+02	-7.6492	-61.412909	0.000284	2.837348	0.480660	0.000057
1626	1.6169e+02	-7.6303	-61.376575	0.000182	1.824009	0.308996	0.000037
1627	1.6179e+02	-7.6089	-61.352352	0.000122	1.216006	0.205997	0.000024
1628	1.6189e+02	-7.5894	-61.295832	0.000284	2.837348	0.480660	0.000057
1629	1.6199e+02	-7.5700	-61.227201	0.000345	3.445351	0.583658	0.000069
1630	1.6209e+02	-7.5510	-61.190866	0.000182	1.824009	0.308996	0.000037
1631	1.6219e+02	-7.5296	-61.162606	0.000142	1.418674	0.240330	0.000028
1632	1.6228e+02	-7.5110	-61.118198	0.000223	2.229345	0.377661	0.000045
1633	1.6238e+02	-7.4911	-61.073789	0.000223	2.229345	0.377661	0.000045
1634	1.6248e+02	-7.4705	-61.049567	0.000122	1.216006	0.205997	0.000024
1635	1.6258e+02	-7.4506	-60.980935	0.000345	3.445351	0.583658	0.000069
1636	1.6268e+02	-7.4312	-60.956713	0.000122	1.216006	0.205997	0.000024
1637	1.6278e+02	-7.4109	-60.875970	0.000405	4.053354	0.686657	0.000081
1638	1.6288e+02	-7.3904	-60.843673	0.000162	1.621342	0.274663	0.000032
1639	1.6298e+02	-7.3706	-60.771004	0.000365	3.648018	0.617991	0.000073
1640	1.6308e+02	-7.3518	-60.730633	0.000203	2.026677	0.343328	0.000041
1641	1.6318e+02	-7.3312	-60.702373	0.000142	1.418674	0.240330	0.000028
1642	1.6328e+02	-7.3108	-60.662002	0.000203	2.026677	0.343328	0.000041
1643	1.6338e+02	-7.2922	-60.593370	0.000345	3.445351	0.583658	0.000069
1644	1.6348e+02	-7.2717	-60.528776	0.000324	3.242683	0.549325	0.000065
1645	1.6358e+02	-7.2504	-60.480330	0.000243	2.432012	0.411994	0.000049
1646	1.6368e+02	-7.2310	-60.439959	0.000203	2.026677	0.343328	0.000041
1647	1.6378e+02	-7.2114	-60.347105	0.000466	4.661357	0.789655	0.000093
1648	1.6388e+02	-7.1924	-60.314808	0.000162	1.621342	0.274663	0.000032
1649	1.6398e+02	-7.1716	-60.266362	0.000243	2.432012	0.411994	0.000049
1650	1.6408e+02	-7.1518	-60.221954	0.000223	2.229345	0.377661	0.000045
1651	1.6418e+02	-7.1318	-60.153322	0.000345	3.445351	0.583658	0.000069
1652	1.6427e+02	-7.1121	-60.108914	0.000223	2.229345	0.377661	0.000045
1653	1.6437e+02	-7.0915	-60.072580	0.000182	1.824009	0.308996	0.000037
1654	1.6447e+02	-7.0718	-59.971651	0.000507	5.066692	0.858321	0.000101
1655	1.6457e+02	-7.0526	-59.911094	0.000304	3.040015	0.514993	0.000061
1656	1.6467e+02	-7.0323	-59.866686	0.000223	2.229345	0.377661	0.000045
1657	1.6477e+02	-7.0123	-59.822277	0.000223	2.229345	0.377661	0.000045
1658	1.6487e+02	-6.9928	-59.777869	0.000223	2.229345	0.377661	0.000045
1659	1.6497e+02	-6.9730	-59.689052	0.000446	4.458689	0.755322	0.000089
1660	1.6507e+02	-6.9530	-59.640606	0.000243	2.432012	0.411994	0.000049
1661	1.6517e+02	-6.9330	-59.563901	0.000385	3.850686	0.652324	0.000077
1662	1.6527e+02	-6.9131	-59.495269	0.000345	3.445351	0.583658	0.000069
1663	1.6537e+02	-6.8903	-59.454898	0.000203	2.026677	0.343328	0.000041
1664	1.6547e+02	-6.8726	-59.374155	0.000405	4.053354	0.686657	0.000081
1665	1.6557e+02	-6.8524	-59.305524	0.000345	3.445351	0.583658	0.000069
1666	1.6567e+02	-6.8332	-59.249004	0.000284	2.837348	0.480660	0.000057
1667	1.6577e+02	-6.8127	-59.192484	0.000284	2.837348	0.480660	0.000057
1668	1.6587e+02	-6.7938	-59.123853	0.000345	3.445351	0.583658	0.000069
1669	1.6597e+02	-6.7737	-59.051184	0.000365	3.648018	0.617991	0.000073
1670	1.6607e+02	-6.7528	-59.022924	0.000142	1.418674	0.240330	0.000028
1671	1.6616e+02	-6.7339	-58.885662	0.000689	6.890702	1.167316	0.000138
1672	1.6626e+02	-6.7145	-58.881625	0.000020	0.202668	0.034333	0.000004
1673	1.6636e+02	-6.6937	-58.812993	0.000345	3.445351	0.583658	0.000069
1674	1.6646e+02	-6.6736	-58.752436	0.000304	3.040015	0.514993	0.000061
1675	1.6656e+02	-6.6534	-58.675731	0.000385	3.850686	0.652324	0.000077
1676	1.6666e+02	-6.6336	-58.611137	0.000324	3.242683	0.549325	0.000065
1677	1.6676e+02	-6.6144	-58.518283	0.000466	4.661357	0.789655	0.000093
1678	1.6686e+02	-6.5942	-58.437540	0.000405	4.053354	0.686657	0.000081
1679	1.6696e+02	-6.5746	-58.393131	0.000223	2.229345	0.377661	0.000045
1680	1.6706e+02	-6.5536	-58.340649	0.000263	2.634680	0.446327	0.000053
1681	1.6716e+02	-6.5340	-58.284129	0.000284	2.837348	0.480660	0.000057
1682	1.6726e+02	-6.5143	-58.171089	0.000567	5.674695	0.961319	0.000114
1683	1.6736e+02	-6.4941	-58.118606	0.000263	2.634680	0.446327	0.000053
1684	1.6746e+02	-6.4745	-58.049975	0.000345	3.445351	0.583658	0.000069
1685	1.6756e+02	-6.4535	-57.985381	0.000324	3.242683	0.549325	0.000065
1686	1.6766e+02	-6.4349	-57.908675	0.000385	3.850686	0.652324	0.000077
1687	1.6776e+02	-6.4142	-57.864267	0.000223	2.229345	0.377661	0.000045
1688	1.6786e+02	-6.3945	-57.799672	0.000324	3.242683	0.549325	0.000065
1689	1.6796e+02	-6.3748	-57.735078	0.000324	3.242683	0.549325	0.000065
1690	1.6806e+02	-6.3544	-57.666447	0.000345	3.445351	0.583658	0.000069
1691	1.6816e+02	-6.3347	-57.581667	0.000426	4.256022	0.720990	0.000085
1692	1.6825e+02	-6.3147	-57.529184	0.000263	2.634680	0.446327	0.000053
1693	1.6835e+02	-6.2955	-57.444404	0.000426	4.256022	0.720990	0.000085
1694	1.6845e+02	-6.2750	-57.367699	0.000385	3.850686	0.652324	0.000077
1695	1.6855e+02	-6.2558	-57.311179	0.000284	2.837348	0.480660	0.000057
1696	1.6865e+02	-6.2358	-57.238510	0.000365	3.648018	0.617991	0.000073
1697	1.6875e+02	-6.2155	-57.186028	0.000263	2.634680	0.446327	0.000053
1698	1.6885e+02	-6.1957	-57.113359	0.000365	3.648018	0.617991	0.000073
1699	1.6895e+02	-6.1765	-57.024542	0.000446	4.458689	0.755322	0.000089
1700	1.6905e+02	-6.1563	-56.955911	0.000345	3.445351	0.583658	0.000069
1701	1.6915e+02	-6.1353	-56.859020	0.000486	4.864025	0.823988	0.000097
1702	1.6925e+02	-6.1159	-56.822686	0.000182	1.824009	0.308996	0.000037
1703	1.6935e+02	-6.0956	-56.778277	0.000223	2.229345	0.377661	0.000045
1704	1.6945e+02	-6.0762	-56.665237	0.000567	5.674695	0.961319	0.000114
1705	1.6955e+02	-6.0564	-56.604680	0.000304	3.040015	0.514993	0.000061
1706	1.6965e+02	-6.0356	-56.491640	0.000567	5.674695	0.961319	0.000114
1707	1.6975e+02	-6.0156	-56.423009	0.000345	3.445351	0.583658	0.000069
1708	1.6985e+02	-5.9967	-56.366489	0.000284	2.837348	0.480660	0.000057
1709	1.6995e+02	-5.9766	-56.309969	0.000284	2.837348	0.480660	0.000057
1710	1.7005e+02	-5.9569	-56.213078	0.000486	4.864025	0.823988	0.000097
1711	1.7015e+02	-5.9375	-56.124261	0.000446	4.458689	0.755322	0.000089
1712	1.7024e+02	-5.9166	-56.067741	0.000284	2.837348	0.480660	0.000057
1713	1.7034e+02	-5.8969	-56.003147	0.000324	3.242683	0.549325	0.000065
1714	1.7044e+02	-5.8768	-55.922404	0.000405	4.053354	0.686657	0.000081
1715	1.7054e+02	-5.8572	-55.849736	0.000365	3.648018	0.617991	0.000073
1716	1.7064e+02	-5.8367	-55.756882	0.000466	4.661357	0.789655	0.000093
1717	1.7074e+02	-5.8173	-55.676139	0.000405	4.053354	0.686657	0.000081
1718	1.7084e+02	-5.7962	-55.583285	0.000466	4.661357	0.789655	0.000093
1719	1.7094e+02	-5.7776	-55.563099	0.000101	1.013338	0.171664	0.000020
1720	1.7104e+02	-5.7574	-55.441985	0.000608	6.080031	1.029985	0.000122
1721	1.7114e+02	-5.7373	-55.389502	0.000263	2.634680	0.446327	0.000053
1722	1.7124e+02	-5.7181	-55.292611	0.000486	4.864025	0.823988	0.000097
1723	1.7134e+02	-5.6975	-55.191683	0.000507	5.066692	0.858321	0.000101
1724	1.7144e+02	-5.6771	-55.179571	0.000061	0.608003	0.102999	0.000012
1725	1.7154e+02	-5.6569	-55.094791	0.000426	4.256022	0.720990	0.000085
1726	1.7164e+02	-5.6366	-54.993863	0.000507	5.066692	0.858321	0.000101
1727	1.7174e+02	-5.6177	-54.905046	0.000446	4.458689	0.755322	0.000089
1728	1.7184e+02	-5.5981	-54.880823	0.000122	1.216006	0.205997	0.000024
1729	1.7194e+02	-5.5777	-54.787969	0.000466	4.661357	0.789655	0.000093
1730	1.7204e+02	-5.5582	-54.707226	0.000405	4.053354	0.686657	0.000081
1731	1.7213e+02	-5.5383	-54.614372	0.000466	4.661357	0.789655	0.000093
1732	1.7223e+02	-5.5173	-54.537667	0.000385	3.850686	0.652324	0.000077
1733	1.7233e+02	-5.4977	-54.452887	0.000426	4.256022	0.720990	0.000085
1734	1.7243e+02	-5.4785	-54.368107	0.000426	4.256022	0.720990	0.000085
1735	1.7253e+02	-5.4588	-54.307550	0.000304	3.040015	0.514993	0.000061
1736	1.7263e+02	-5.4370	-54.242956	0.000324	3.242683	0.549325	0.000065
1737	1.7273e+02	-5.4187	-54.121842	0.000608	6.080031	1.029985	0.000122
1738	1.7283e+02	-5.3982	-54.097619	0.000122	1.216006	0.205997	0.000024
1739	1.7293e+02	-5.3784	-54.008802	0.000446	4.458689	0.755322	0.000089
1740	1.7303e+02	-5.3581	-53.887688	0.000608	6.080031	1.029985	0.000122
1741	1.7313e+02	-5.3375	-53.847316	0.000203	2.026677	0.343328	0.000041
1742	1.7323e+02	-5.3180	-53.754462	0.000466	4.661357	0.789655	0.000093
1743	1.7333e+02	-5.2989	-53.706017	0.000243	2.432012	0.411994	0.000049
1744	1.7343e+02	-5.2780	-53.649497	0.000284	2.837348	0.480660	0.000057
1745	1.7353e+02	-5.2585	-53.564717	0.000426	4.256022	0.720990	0.000085
1746	1.7363e+02	-5.2390	-53.455714	0.000547	5.472028	0.926987	0.000110
1747	1.7373e+02	-5.2185	-53.403232	0.000263	2.634680	0.446327	0.000053
1748	1.7383e+02	-5.1988	-53.294229	0.000547	5.472028	0.926987	0.000110
1749	1.7393e+02	-5.1791	-53.233672	0.000304	3.040015	0.514993	0.000061
1750	1.7403e+02	-5.1590	-53.161003	0.000365	3.648018	0.617991	0.000073
1751	1.7413e+02	-5.1379	-53.080261	0.000405	4.053354	0.686657	0.000081
1752	1.7422e+02	-5.1187	-52.983369	0.000486	4.864025	0.823988	0.000097
1753	1.7432e+02	-5.0989	-52.906664	0.000385	3.850686	0.652324	0.000077
1754	1.7442e+02	-5.0787	-52.842070	0.000324	3.242683	0.549325	0.000065
1755	1.7452e+02	-5.0592	-52.793624	0.000243	2.432012	0.411994	0.000049
1756	1.7462e+02	-5.0394	-52.664436	0.000649	6.485366	1.098651	0.000130
1757	1.7472e+02	-5.0203	-52.632139	0.000162	1.621342	0.274663	0.000032
1758	1.7482e+02	-4.9997	-52.539284	0.000466	4.661357	0.789655	0.000093
1759	1.7492e+02	-4.9796	-52.422208	0.000588	5.877363	0.995652	0.000118
1760	1.7502e+02	-4.9603	-52.389910	0.000162	1.621342	0.274663	0.000032
1761	1.7512e+02	-4.9402	-52.288982	0.000507	5.066692	0.858321	0.000101
1762	1.7522e+02	-4.9215	-52.192091	0.000486	4.864025	0.823988	0.000097
1763	1.7532e+02	-4.8999	-52.099237	0.000466	4.661357	0.789655	0.000093
1764	1.7542e+02	-4.8814	-52.014457	0.000426	4.256022	0.720990	0.000085
1765	1.7552e+02	-4.8593	-51.957937	0.000284	2.837348	0.480660	0.000057
1766	1.7562e+02	-4.8398	-51.885269	0.000365	3.648018	0.617991	0.000073
1767	1.7572e+02	-4.8198	-51.788377	0.000486	4.864025	0.823988	0.000097
1768	1.7582e+02	-4.8013	-51.707635	0.000405	4.053354	0.686657	0.000081
1769	1.7592e+02	-4.7809	-51.663226	0.000223	2.229345	0.377661	0.000045
1770	1.7602e+02	-4.7604	-51.538075	0.000628	6.282698	1.064318	0.000126
1771	1.7612e+02	-4.7406	-51.485592	0.000263	2.634680	0.446327	0.000053
1772	1.7621e+02	-4.7217	-51.384664	0.000507	5.066692	0.858321	0.000101
1773	1.7631e+02	-4.7005	-51.287772	0.000486	4.864025	0.823988	0.000097
1774	1.7641e+02	-4.6820	-51.202993	0.000426	4.256022	0.720990	0.000085
1775	1.7651e+02	-4.6609	-51.118213	0.000426	4.256022	0.720990	0.000085
1776	1.7661e+02	-4.6408	-51.009210	0.000547	5.472028	0.926987	0.000110
1777	1.7671e+02	-4.6208	-50.940579	0.000345	3.445351	0.583658	0.000069
1778	1.7681e+02	-4.6019	-50.855799	0.000426	4.256022	0.720990	0.000085
1779	1.7691e+02	-4.5812	-50.799279	0.000284	2.837348	0.480660	0.000057
1780	1.7701e+02	-4.5612	-50.710462	0.000446	4.458689	0.755322	0.000089
1781	1.7711e+02	-4.5412	-50.609534	0.000507	5.066692	0.858321	0.000101
1782	1.7721e+02	-4.5218	-50.532828	0.000385	3.850686	0.652324	0.000077
1783	1.7731e+02	-4.5007	-50.439974	0.000466	4.661357	0.789655	0.000093
1784	1.7741e+02	-4.4818	-50.367305	0.000365	3.648018	0.617991	0.000073
1785	1.7751e+02	-4.4614	-50.278488	0.000446	4.458689	0.755322	0.000089
1786	1.7761e+02	-4.4417	-50.145263	0.000669	6.688034	1.132984	0.000134
1787	1.7771e+02	-4.4212	-50.108929	0.000182	1.824009	0.308996	0.000037
1788	1.7781e+02	-4.4020	-50.040297	0.000345	3.445351	0.583658	0.000069
1789	1.7791e+02	-4.3823	-49.935332	0.000527	5.269360	0.892654	0.000105
1790	1.7801e+02	-4.3626	-49.834404	0.000507	5.066692	0.858321	0.000101
1791	1.7810e+02	-4.3422	-49.729438	0.000527	5.269360	0.892654	0.000105
1792	1.7820e+02	-4.3227	-49.672918	0.000284	2.837348	0.480660	0.000057
1793	1.7830e+02	-4.3021	-49.588138	0.000426	4.256022	0.720990	0.000085
1794	1.7840e+02	-4.2825	-49.507396	0.000405	4.053354	0.686657	0.000081
1795	1.7850e+02	-4.2630	-49.414541	0.000466	4.661357	0.789655	0.000093
1796	1.7860e+02	-4.2426	-49.329762	0.000426	4.256022	0.720990	0.000085
1797	1.7870e+02	-4.2227	-49.240945	0.000446	4.458689	0.755322	0.000089
1798	1.7880e+02	-4.2029	-49.172313	0.000345	3.445351	0.583658	0.000069
1799	1.7890e+02	-4.1830	-49.095608	0.000385	3.850686	0.652324	0.000077
1800	1.7900e+02	-4.1631	-48.954308	0.000709	7.093369	1.201649	0.000142
1801	1.7910e+02	-4.1434	-48.869528	0.000426	4.256022	0.720990	0.000085
1802	1.7920e+02	-4.1233	-48.800897	0.000345	3.445351	0.583658	0.000069
1803	1.7930e+02	-4.1025	-48.740340	0.000304	3.040015	0.514993	0.000061
1804	1.7940e+02	-4.0825	-48.655560	0.000426	4.256022	0.720990	0.000085
1805	1.7950e+02	-4.0623	-48.522334	0.000669	6.688034	1.132984	0.000134
1806	1.7960e+02	-4.0437	-48.429480	0.000466	4.661357	0.789655	0.000093
1807	1.7970e+02	-4.0230	-48.344700	0.000426	4.256022	0.720990	0.000085
1808	1.7980e+02	-4.0030	-48.276069	0.000345	3.445351	0.583658	0.000069
1809	1.7990e+02	-3.9832	-48.175141	0.000507	5.066692	0.858321	0.000101
1810	1.8000e+02	-3.9639	-48.074212	0.000507	5.066692	0.858321	0.000101
1811	1.8009e+02	-3.9435	-47.989433	0.000426	4.256022	0.720990	0.000085
1812	1.8019e+02	-3.9233	-47.888504	0.000507	5.066692	0.858321	0.000101
1813	1.8029e+02	-3.9032	-47.815836	0.000365	3.648018	0.617991	0.000073
1814	1.8039e+02	-3.8834	-47.714907	0.000507	5.066692	0.858321	0.000101
1815	1.8049e+02	-3.8638	-47.638202	0.000385	3.850686	0.652324	0.000077
1816	1.8059e+02	-3.8439	-47.557459	0.000405	4.053354	0.686657	0.000081
1817	1.8069e+02	-3.8241	-47.432308	0.000628	6.282698	1.064318	0.000126
1818	1.8079e+02	-3.8028	-47.367714	0.000324	3.242683	0.549325	0.000065
1819	1.8089e+02	-3.7836	-47.291008	0.000385	3.850686	0.652324	0.000077
1820	1.8099e+02	-3.7642	-47.141634	0.000750	7.498705	1.270315	0.000150
1821	1.8109e+02	-3.7442	-47.064928	0.000385	3.850686	0.652324	0.000077
1822	1.8119e+02	-3.7243	-47.012446	0.000263	2.634680	0.446327	0.000053
1823	1.8129e+02	-3.7039	-46.879220	0.000669	6.688034	1.132984	0.000134
1824	1.8139e+02	-3.6849	-46.782329	0.000486	4.864025	0.823988	0.000097
1825	1.8149e+02	-3.6644	-46.673326	0.000547	5.472028	0.926987	0.000110
1826	1.8159e+02	-3.6446	-46.580472	0.000466	4.661357	0.789655	0.000093
1827	1.8169e+02	-3.6249	-46.511841	0.000345	3.445351	0.583658	0.000069
1828	1.8179e+02	-3.6053	-46.410912	0.000507	5.066692	0.858321	0.000101
1829	1.8189e+02	-3.5846	-46.330170	0.000405	4.053354	0.686657	0.000081
1830	1.8199e+02	-3.5645	-46.225204	0.000527	5.269360	0.892654	0.000105
1831	1.8209e+02	-3.5448	-46.108127	0.000588	5.877363	0.995652	0.000118
1832	1.8218e+02	-3.5262	-46.039496	0.000345	3.445351	0.583658	0.000069
1833	1.8228e+02	-3.5048	-45.926456	0.000567	5.674695	0.961319	0.000114
1834	1.8238e+02	-3.4848	-45.841676	0.000426	4.256022	0.720990	0.000085
1835	1.8248e+02	-3.4648	-45.748822	0.000466	4.661357	0.789655	0.000093
1836	1.8258e+02	-3.4453	-45.615597	0.000669	6.688034	1.132984	0.000134
1837	1.8268e+02	-3.4256	-45.542928	0.000365	3.648018	0.617991	0.000073
1838	1.8278e+02	-3.4056	-45.462186	0.000405	4.053354	0.686657	0.000081
1839	1.8288e+02	-3.3861	-45.328960	0.000669	6.688034	1.132984	0.000134
1840	1.8298e+02	-3.3660	-45.228032	0.000507	5.066692	0.858321	0.000101
1841	1.8308e+02	-3.3459	-45.123066	0.000527	5.269360	0.892654	0.000105
1842	1.8318e+02	-3.3261	-45.018101	0.000527	5.269360	0.892654	0.000105
1843	1.8328e+02	-3.3063	-44.945432	0.000365	3.648018	0.617991	0.000073
1844	1.8338e+02	-3.2858	-44.832392	0.000567	5.674695	0.961319	0.000114
1845	1.8348e+02	-3.2666	-44.723390	0.000547	5.472028	0.926987	0.000110
1846	1.8358e+02	-3.2458	-44.662833	0.000304	3.040015	0.514993	0.000061
1847	1.8368e+02	-3.2251	-44.557867	0.000527	5.269360	0.892654	0.000105
1848	1.8378e+02	-3.2060	-44.485199	0.000365	3.648018	0.617991	0.000073
1849	1.8388e+02	-3.1870	-44.323713	0.000811	8.106708	1.373313	0.000162
1850	1.8398e+02	-3.1670	-44.271231	0.000263	2.634680	0.446327	0.000053
1851	1.8407e+02	-3.1476	-44.182414	0.000446	4.458689	0.755322	0.000089
1852	1.8417e+02	-3.1263	-44.045151	0.000689	6.890702	1.167316	0.000138
1853	1.8427e+02	-3.1065	-43.972482	0.000365	3.648018	0.617991	0.000073
1854	1.8437e+02	-3.0872	-43.855406	0.000588	5.877363	0.995652	0.000118
1855	1.8447e+02	-3.0669	-43.770626	0.000426	4.256022	0.720990	0.000085
1856	1.8457e+02	-3.0470	-43.669697	0.000507	5.066692	0.858321	0.000101
1857	1.8467e+02	-3.0264	-43.548583	0.000608	6.080031	1.029985	0.000122
1858	1.8477e+02	-3.0078	-43.451692	0.000486	4.864025	0.823988	0.000097
1859	1.8487e+02	-2.9871	-43.411321	0.000203	2.026677	0.343328	0.000041
1860	1.8497e+02	-2.9661	-43.294244	0.000588	5.877363	0.995652	0.000118
1861	1.8507e+02	-2.9469	-43.173130	0.000608	6.080031	1.029985	0.000122
1862	1.8517e+02	-2.9272	-43.088350	0.000426	4.256022	0.720990	0.000085
1863	1.8527e+02	-2.9074	-42.959161	0.000649	6.485366	1.098651	0.000130
1864	1.8537e+02	-2.8867	-42.882456	0.000385	3.850686	0.652324	0.000077
1865	1.8547e+02	-2.8685	-42.817862	0.000324	3.242683	0.549325	0.000065
1866	1.8557e+02	-2.8479	-42.700785	0.000588	5.877363	0.995652	0.000118
1867	1.8567e+02	-2.8268	-42.575633	0.000628	6.282698	1.064318	0.000126
1868	1.8577e+02	-2.8072	-42.490854	0.000426	4.256022	0.720990	0.000085
1869	1.8587e+02	-2.7874	-42.381851	0.000547	5.472028	0.926987	0.000110
1870	1.8597e+02	-2.7681	-42.293034	0.000446	4.458689	0.755322	0.000089
1871	1.8606e+02	-2.7470	-42.228440	0.000324	3.242683	0.549325	0.000065
1872	1.8616e+02	-2.7280	-42.099251	0.000649	6.485366	1.098651	0.000130
1873	1.8626e+02	-2.7084	-41.978137	0.000608	6.080031	1.029985	0.000122
1874	1.8636e+02	-2.6888	-41.865098	0.000567	5.674695	0.961319	0.000114
1875	1.8646e+02	-2.6683	-41.764169	0.000507	5.066692	0.858321	0.000101
1876	1.8656e+02	-2.6476	-41.675352	0.000446	4.458689	0.755322	0.000089
1877	1.8666e+02	-2.6276	-41.602684	0.000365	3.648018	0.617991	0.000073
1878	1.8676e+02	-2.6086	-41.489644	0.000567	5.674695	0.961319	0.000114
1879	1.8686e+02	-2.5873	-41.360456	0.000649	6.485366	1.098651	0.000130
1880	1.8696e+02	-2.5688	-41.267602	0.000466	4.661357	0.789655	0.000093
1881	1.8706e+02	-2.5485	-41.194933	0.000365	3.648018	0.617991	0.000073
1882	1.8716e+02	-2.5285	-41.102079	0.000466	4.661357	0.789655	0.000093
1883	1.8726e+02	-2.5098	-40.964816	0.000689	6.890702	1.167316	0.000138
1884	1.8736e+02	-2.4895	-40.880036	0.000426	4.256022	0.720990	0.000085
1885	1.8746e+02	-2.4695	-40.771034	0.000547	5.472028	0.926987	0.000110
1886	1.8756e+02	-2.4496	-40.686254	0.000426	4.256022	0.720990	0.000085
1887	1.8766e+02	-2.4295	-40.532843	0.000770	7.701372	1.304648	0.000154
1888	1.8776e+02	-2.4094	-40.472286	0.000304	3.040015	0.514993	0.000061
1889	1.8786e+02	-2.3897	-40.330986	0.000709	7.093369	1.201649	0.000142
1890	1.8796e+02	-2.3697	-40.258318	0.000365	3.648018	0.617991	0.000073
1891	1.8806e+02	-2.3494	-40.161426	0.000486	4.864025	0.823988	0.000097
1892	1.8815e+02	-2.3297	-40.060498	0.000507	5.066692	0.858321	0.000101
1893	1.8825e+02	-2.3097	-39.959570	0.000507	5.066692	0.858321	0.000101
1894	1.8835e+02	-2.2896	-39.894975	0.000324	3.242683	0.549325	0.000065
1895	1.8845e+02	-2.2711	-39.725416	0.000851	8.512043	1.441979	0.000170
1896	1.8855e+02	-2.2502	-39.660821	0.000324	3.242683	0.549325	0.000065
1897	1.8865e+02	-2.2308	-39.519522	0.000709	7.093369	1.201649	0.000142
1898	1.8875e+02	-2.2102	-39.467039	0.000263	2.634680	0.446327	0.000053
1899	1.8885e+02	-2.1902	-39.313628	0.000770	7.701372	1.304648	0.000154
1900	1.8895e+02	-2.1713	-39.261145	0.000263	2.634680	0.446327	0.000053
1901	1.8905e+02	-2.1498	-39.127920	0.000669	6.688034	1.132984	0.000134
1902	1.8915e+02	-2.1310	-39.026991	0.000507	5.066692	0.858321	0.000101
1903	1.8925e+02	-2.1114	-38.901840	0.000628	6.282698	1.064318	0.000126
1904	1.8935e+02	-2.0904	-38.841283	0.000304	3.040015	0.514993	0.000061
1905	1.8945e+02	-2.0708	-38.732280	0.000547	5.472028	0.926987	0.000110
1906	1.8955e+02	-2.0518	-38.631352	0.000507	5.066692	0.858321	0.000101
1907	1.8965e+02	-2.0314	-38.526386	0.000527	5.269360	0.892654	0.000105
1908	1.8975e+02	-2.0110	-38.425458	0.000507	5.066692	0.858321	0.000101
1909	1.8985e+02	-1.9908	-38.344715	0.000405	4.053354	0.686657	0.000081
1910	1.8995e+02	-1.9711	-38.219564	0.000628	6.282698	1.064318	0.000126
1911	1.9004e+02	-1.9519	-38.082301	0.000689	6.890702	1.167316	0.000138
1912	1.9014e+02	-1.9305	-38.037893	0.000223	2.229345	0.377661	0.000045
1913	1.9024e+02	-1.9119	-37.936965	0.000507	5.066692	0.858321	0.000101
1914	1.9034e+02	-1.8914	-37.819888	0.000588	5.877363	0.995652	0.000118
1915	1.9044e+02	-1.8725	-37.666476	0.000770	7.701372	1.304648	0.000154
1916	1.9054e+02	-1.8512	-37.601882	0.000324	3.242683	0.549325	0.000065
1917	1.9064e+02	-1.8314	-37.533251	0.000345	3.445351	0.583658	0.000069
1918	1.9074e+02	-1.8127	-37.387914	0.000730	7.296037	1.235982	0.000146
1919	1.9084e+02	-1.7912	-37.299097	0.000446	4.458689	0.755322	0.000089
1920	1.9094e+02	-1.7721	-37.226429	0.000365	3.648018	0.617991	0.000073
1921	1.9104e+02	-1.7514	-37.141649	0.000426	4.256022	0.720990	0.000085
1922	1.9114e+02	-1.7323	-36.988238	0.000770	7.701372	1.304648	0.000154
1923	1.9124e+02	-1.7127	-36.875198	0.000567	5.674695	0.961319	0.000114
1924	1.9134e+02	-1.6933	-36.810604	0.000324	3.242683	0.549325	0.000065
1925	1.9144e+02	-1.6722	-36.685452	0.000628	6.282698	1.064318	0.000126
1926	1.9154e+02	-1.6525	-36.592598	0.000466	4.661357	0.789655	0.000093
1927	1.9164e+02	-1.6315	-36.540116	0.000263	2.634680	0.446327	0.000053
1928	1.9174e+02	-1.6122	-36.402853	0.000689	6.890702	1.167316	0.000138
1929	1.9184e+02	-1.5923	-36.237330	0.000831	8.309375	1.407646	0.000166
1930	1.9194e+02	-1.5728	-36.164662	0.000365	3.648018	0.617991	0.000073
1931	1.9203e+02	-1.5508	-36.075845	0.000446	4.458689	0.755322	0.000089
1932	1.9213e+02	-1.5331	-35.974917	0.000507	5.066692	0.858321	0.000101
1933	1.9223e+02	-1.5121	-35.865914	0.000547	5.472028	0.926987	0.000110
1934	1.9233e+02	-1.4928	-35.764986	0.000507	5.066692	0.858321	0.000101
1935	1.9243e+02	-1.4717	-35.627723	0.000689	6.890702	1.167316	0.000138
1936	1.9253e+02	-1.4530	-35.546980	0.000405	4.053354	0.686657	0.000081
1937	1.9263e+02	-1.4328	-35.454126	0.000466	4.661357	0.789655	0.000093
1938	1.9273e+02	-1.4137	-35.365309	0.000446	4.458689	0.755322	0.000089
1939	1.9283e+02	-1.3931	-35.232084	0.000669	6.688034	1.132984	0.000134
1940	1.9293e+02	-1.3727	-35.127118	0.000527	5.269360	0.892654	0.000105
1941	1.9303e+02	-1.3535	-35.026190	0.000507	5.066692	0.858321	0.000101
1942	1.9313e+02	-1.3336	-34.965633	0.000304	3.040015	0.514993	0.000061
1943	1.9323e+02	-1.3130	-34.792036	0.000871	8.714711	1.476312	0.000174
1944	1.9333e+02	-1.2936	-34.711293	0.000405	4.053354	0.686657	0.000081
1945	1.9343e+02	-1.2736	-34.614402	0.000486	4.864025	0.823988	0.000097
1946	1.9353e+02	-1.2534	-34.541733	0.000365	3.648018	0.617991	0.000073
1947	1.9363e+02	-1.2335	-34.408508	0.000669	6.688034	1.132984	0.000134
1948	1.9373e+02	-1.2143	-34.299505	0.000547	5.472028	0.926987	0.000110
1949	1.9383e+02	-1.1941	-34.194540	0.000527	5.269360	0.892654	0.000105
1950	1.9393e+02	-1.1741	-34.081500	0.000567	5.674695	0.961319	0.000114
1951	1.9403e+02	-1.1548	-33.984609	0.000486	4.864025	0.823988	0.000097
1952	1.9412e+02	-1.1345	-33.847346	0.000689	6.890702	1.167316	0.000138
1953	1.9422e+02	-1.1141	-33.758529	0.000446	4.458689	0.755322	0.000089
1954	1.9432e+02	-1.0954	-33.633378	0.000628	6.282698	1.064318	0.000126
1955	1.9442e+02	-1.0740	-33.580895	0.000263	2.634680	0.446327	0.000053
1956	1.9452e+02	-1.0555	-33.423447	0.000790	7.904040	1.338981	0.000158
1957	1.9462e+02	-1.0339	-33.370964	0.000263	2.634680	0.446327	0.000053
1958	1.9472e+02	-1.0154	-33.181219	0.000953	9.525382	1.613643	0.000191
1959	1.9482e+02	-0.9947	-33.177181	0.000020	0.202668	0.034333	0.000004
1960	1.9492e+02	-0.9752	-33.015696	0.000811	8.106708	1.373313	0.000162
1961	1.9502e+02	-0.9552	-32.938990	0.000385	3.850686	0.652324	0.000077
1962	1.9512e+02	-0.9338	-32.821914	0.000588	5.877363	0.995652	0.000118
1963	1.9522e+02	-0.9146	-32.680614	0.000709	7.093369	1.201649	0.000142
1964	1.9532e+02	-0.8911	-32.571611	0.000547	5.472028	0.926987	0.000110
1965	1.9542e+02	-0.8755	-32.486831	0.000426	4.256022	0.720990	0.000085
1966	1.9552e+02	-0.8546	-32.385903	0.000507	5.066692	0.858321	0.000101
1967	1.9562e+02	-0.8364	-32.309197	0.000385	3.850686	0.652324	0.000077
1968	1.9572e+02	-0.8164	-32.192120	0.000588	5.877363	0.995652	0.000118
1969	1.9582e+02	-0.7957	-32.107341	0.000426	4.256022	0.720990	0.000085
1970	1.9592e+02	-0.7758	-31.998338	0.000547	5.472028	0.926987	0.000110
1971	1.9601e+02	-0.7542	-31.844927	0.000770	7.701372	1.304648	0.000154
1972	1.9611e+02	-0.7355	-31.735924	0.000547	5.472028	0.926987	0.000110
1973	1.9621e+02	-0.7166	-31.614810	0.000608	6.080031	1.029985	0.000122
1974	1.9631e+02	-0.6958	-31.525993	0.000446	4.458689	0.755322	0.000089
1975	1.9641e+02	-0.6760	-31.437176	0.000446	4.458689	0.755322	0.000089
1976	1.9651e+02	-0.6564	-31.291839	0.000730	7.296037	1.235982	0.000146
1977	1.9661e+02	-0.6357	-31.198985	0.000466	4.661357	0.789655	0.000093
1978	1.9671e+02	-0.6163	-31.110168	0.000446	4.458689	0.755322	0.000089
1979	1.9681e+02	-0.5962	-30.956757	0.000770	7.701372	1.304648	0.000154
1980	1.9691e+02	-0.5765	-30.896200	0.000304	3.040015	0.514993	0.000061
1981	1.9701e+02	-0.5563	-30.758937	0.000689	6.890702	1.167316	0.000138
1982	1.9711e+02	-0.5371	-30.641860	0.000588	5.877363	0.995652	0.000118
1983	1.9721e+02	-0.5177	-30.516709	0.000628	6.282698	1.064318	0.000126
1984	1.9731e+02	-0.4967	-30.427892	0.000446	4.458689	0.755322	0.000089
1985	1.9741e+02	-0.4765	-30.335038	0.000466	4.661357	0.789655	0.000093
1986	1.9751e+02	-0.4568	-30.238147	0.000486	4.864025	0.823988	0.000097
1987	1.9761e+02	-0.4373	-30.104921	0.000669	6.688034	1.132984	0.000134
1988	1.9771e+02	-0.4172	-30.008030	0.000486	4.864025	0.823988	0.000097
1989	1.9781e+02	-0.3971	-29.886916	0.000608	6.080031	1.029985	0.000122
1990	1.9791e+02	-0.3766	-29.773876	0.000567	5.674695	0.961319	0.000114
1991	1.9800e+02	-0.3574	-29.668911	0.000527	5.269360	0.892654	0.000105
1992	1.9810e+02	-0.3381	-29.543759	0.000628	6.282698	1.064318	0.000126
1993	1.9820e+02	-0.3170	-29.479165	0.000324	3.242683	0.549325	0.000065
1994	1.9830e+02	-0.2979	-29.345940	0.000669	6.688034	1.132984	0.000134
1995	1.9840e+02	-0.2767	-29.228863	0.000588	5.877363	0.995652	0.000118
1996	1.9850e+02	-0.2574	-29.115823	0.000567	5.674695	0.961319	0.000114
1997	1.9860e+02	-0.2374	-28.986635	0.000649	6.485366	1.098651	0.000130
1998	1.9870e+02	-0.2176	-28.873595	0.000567	5.674695	0.961319	0.000114
1999	1.9880e+02	-0.1986	-28.764592	0.000547	5.472028	0.926987	0.000110
2000	1.9890e+02	-0.1767	-28.639441	0.000628	6.282698	1.064318	0.000126
2001	1.9900e+02	-0.1581	-28.566772	0.000365	3.648018	0.617991	0.000073
2002	1.9910e+02	-0.1375	-28.413361	0.000770	7.701372	1.304648	0.000154
2003	1.9920e+02	-0.1173	-28.292247	0.000608	6.080031	1.029985	0.000122
2004	1.9930e+02	-0.0982	-28.191319	0.000507	5.066692	0.858321	0.000101
2005	1.9940e+02	-0.0778	-28.098465	0.000466	4.661357	0.789655	0.000093
2006	1.9950e+02	-0.0592	-27.961202	0.000689	6.890702	1.167316	0.000138
2007	1.9960e+02	-0.0386	-27.827977	0.000669	6.688034	1.132984	0.000134
2008	1.9970e+02	-0.0177	-27.735123	0.000466	4.661357	0.789655	0.000093
2009	1.9980e+02	0.0005	-27.618046	0.000466	4.661357	0.789655	0.000118

PMax (uC/cm2):	5.22e+01
Pr (uC/cm2):	1.45e+01
-Pr (uC/cm2):	-3.77e+01
PLoss (uC/cm2):	-3.77e+01
-Vc:	-2.44e+00
C (Max-Eff) (nF):	5.22e-01
K (Eff):	8.84e+02
Vert. (+/-Pr) Shift (uC/cm2):	-1.16e+01
Offset (uC/cm2):	-1.01e+01

A (Loop Area - uC/cm2·Volts):	-2.07e-01



Hysteresis Version: 5.48.1 - Radiant Technologies, Inc., 1999 - 9/12/24

