»»»»»»»»»»»»»»»»»»»»»»»»»»»»»»»»»»»» Hysteresis ««««««««««««««««««««««««««««««««««««
»»»  Executed Version:	5.48.1
»»»  Vision Version:	5.48.4 (R)
»»»  Vision Compiled:	9/18/24
»»»  Driver Version:	5.47.0
»»»  Windows Version:	Windows 8 or 8.1
»»»  Processor Information:	x86 (AMD or Intel) - 32 Processors
»»»  Tester Name:	PMF21124-494 (100V)
»»»  Tester S/N:	PMF21124-494
»»»  Internal Amp Type:	100V RevK 270k
»»»  Internal Amp S/N:	iAB2-596/K     
»»»  Execution Count:	1
»»»»»»»»»»»»»»»»»»»»»»»»»»»»»»»»»»»»»»»»»»««««««««««««««««««««««««««««««««««««««««««

Stored:	7/2/2025 - 13:39:49
Configured:	07/02/25 01:35:59 PM
Executed:	07/02/25 01:38:47 PM

»»»»»»»»»»»»»»»»»»»»»»»»»»»»»»»»»»» Sample Info ««««««««««««««««««««««««««««««««««««
Sample Name:	
Lot Name:	
Wafer Name:	
Die Row/Column:	0/0
Capacitor Number:	0
Sample Area (cm2):	1.00e-04
Sample Thickness (microns):	1.50e-01

Amplifier:	Internal

»»»»»»»»»»»»»»»»»»»»»»»»»»»»»»»»»»» Tester Info «««««««««««««««««««««««««««««««««««
Tester Name:	PMF21124-494 (100V)
Tester Serial Number:	PMF21124-494
Return Signal Amp. Level:	0.19 [Index: 3]

»»»»»»»»»»»»»»»»»»»»»»»»»»»»»»»» Hysteresis Info ««««««««««««««««««««««««««««««««««
Task Name:	Hyst-220
Volts:	10.00
Field:	666.67 (kV/cm)
DCBias:	0.00
DCField:	0.00 (kV/cm)
Hysteresis Period (ms):	2.00e+02
Preset:	Enabled
Preset Delay (ms):	1.00e+03
Profile:	Standard Bipolar

»»»»»»»»»»»»»»»»»»»»»»»»»»»»»»»»»»»»»» Data «««««««««««««««««««««««««««««««««««««««
Points:	2009

Valid Data

Point	Time (ms)	Drive Voltage	Measured Polarization (uC/cm2)	Capacitance (uF)	Normalized Capacitance (uF/cm2)	Dielectric Constant	Instantaneous Current (mA)
   1	0.0000e+00	0.0021	13.570832	0.000811	8.106862	1.373340	0.000162
   2	9.9500e-02	0.0208	13.732317	0.000811	8.106862	1.373340	0.000162
   3	1.9900e-01	0.0403	13.865543	0.000669	6.688161	1.133005	0.000134
   4	2.9850e-01	0.0610	14.083548	0.001094	10.944264	1.854009	0.000219
   5	3.9800e-01	0.0807	14.216774	0.000669	6.688161	1.133005	0.000134
   6	4.9750e-01	0.1002	14.418630	0.001013	10.133578	1.716675	0.000203
   7	5.9700e-01	0.1212	14.531670	0.000567	5.674804	0.961338	0.000114
   8	6.9650e-01	0.1398	14.729490	0.000993	9.930906	1.682341	0.000199
   9	7.9600e-01	0.1608	14.878864	0.000750	7.498848	1.270339	0.000150
  10	8.9550e-01	0.1806	15.056498	0.000892	8.917549	1.510674	0.000179
  11	9.9500e-01	0.2007	15.201835	0.000730	7.296176	1.236006	0.000146
  12	1.0945e+00	0.2206	15.399654	0.000993	9.930906	1.682341	0.000199
  13	1.1940e+00	0.2413	15.549028	0.000750	7.498848	1.270339	0.000150
  14	1.2935e+00	0.2614	15.734737	0.000932	9.322892	1.579341	0.000187
  15	1.3930e+00	0.2811	15.896222	0.000811	8.106862	1.373340	0.000162
  16	1.4925e+00	0.3003	16.069819	0.000871	8.714877	1.476340	0.000174
  17	1.5920e+00	0.3203	16.259564	0.000953	9.525563	1.613674	0.000191
  18	1.6915e+00	0.3406	16.408938	0.000750	7.498848	1.270339	0.000150
  19	1.7910e+00	0.3596	16.566387	0.000790	7.904191	1.339006	0.000158
  20	1.8905e+00	0.3794	16.727872	0.000811	8.106862	1.373340	0.000162
  21	1.9900e+00	0.3991	16.929729	0.001013	10.133578	1.716675	0.000203
  22	2.0895e+00	0.4199	17.075066	0.000730	7.296176	1.236006	0.000146
  23	2.1890e+00	0.4397	17.236551	0.000811	8.106862	1.373340	0.000162
  24	2.2885e+00	0.4595	17.422259	0.000932	9.322892	1.579341	0.000187
  25	2.3880e+00	0.4813	17.616042	0.000973	9.728235	1.648008	0.000195
  26	2.4875e+00	0.5000	17.753304	0.000689	6.890833	1.167339	0.000138
  27	2.5870e+00	0.5196	17.910753	0.000790	7.904191	1.339006	0.000158
  28	2.6865e+00	0.5392	18.092424	0.000912	9.120220	1.545007	0.000183
  29	2.7860e+00	0.5589	18.274095	0.000912	9.120220	1.545007	0.000183
  30	2.8855e+00	0.5793	18.443655	0.000851	8.512205	1.442007	0.000170
  31	2.9850e+00	0.5985	18.613214	0.000851	8.512205	1.442007	0.000170
  32	3.0845e+00	0.6197	18.766625	0.000770	7.701519	1.304673	0.000154
  33	3.1840e+00	0.6388	18.932148	0.000831	8.309534	1.407673	0.000166
  34	3.2835e+00	0.6586	19.121893	0.000953	9.525563	1.613674	0.000191
  35	3.3830e+00	0.6788	19.275305	0.000770	7.701519	1.304673	0.000154
  36	3.4825e+00	0.6983	19.477161	0.001013	10.133578	1.716675	0.000203
  37	3.5820e+00	0.7195	19.638647	0.000811	8.106862	1.373340	0.000162
  38	3.6815e+00	0.7384	19.800132	0.000811	8.106862	1.373340	0.000162
  39	3.7810e+00	0.7586	19.977766	0.000892	8.917549	1.510674	0.000179
  40	3.8805e+00	0.7790	20.143289	0.000831	8.309534	1.407673	0.000166
  41	3.9800e+00	0.7984	20.312848	0.000851	8.512205	1.442007	0.000170
  42	4.0795e+00	0.8192	20.506631	0.000973	9.728235	1.648008	0.000195
  43	4.1790e+00	0.8385	20.672154	0.000831	8.309534	1.407673	0.000166
  44	4.2785e+00	0.8587	20.853825	0.000912	9.120220	1.545007	0.000183
  45	4.3780e+00	0.8791	21.035496	0.000912	9.120220	1.545007	0.000183
  46	4.4775e+00	0.8974	21.217167	0.000912	9.120220	1.545007	0.000183
  47	4.5770e+00	0.9182	21.414987	0.000993	9.930906	1.682341	0.000199
  48	4.6765e+00	0.9380	21.584546	0.000851	8.512205	1.442007	0.000170
  49	4.7760e+00	0.9579	21.725846	0.000709	7.093505	1.201672	0.000142
  50	4.8755e+00	0.9785	21.947888	0.001115	11.146936	1.888342	0.000223
  51	4.9750e+00	0.9978	22.101300	0.000770	7.701519	1.304673	0.000154
  52	5.0745e+00	1.0175	22.262785	0.000811	8.106862	1.373340	0.000162
  53	5.1740e+00	1.0368	22.432345	0.000851	8.512205	1.442007	0.000170
  54	5.2735e+00	1.0582	22.634202	0.001013	10.133578	1.716675	0.000203
  55	5.3730e+00	1.0777	22.815873	0.000912	9.120220	1.545007	0.000183
  56	5.4725e+00	1.0969	23.001581	0.000932	9.322892	1.579341	0.000187
  57	5.5720e+00	1.1169	23.175178	0.000871	8.714877	1.476340	0.000174
  58	5.6715e+00	1.1371	23.348775	0.000871	8.714877	1.476340	0.000174
  59	5.7710e+00	1.1579	23.530446	0.000912	9.120220	1.545007	0.000183
  60	5.8705e+00	1.1773	23.691931	0.000811	8.106862	1.373340	0.000162
  61	5.9700e+00	1.1973	23.849379	0.000790	7.904191	1.339006	0.000158
  62	6.0695e+00	1.2173	24.083533	0.001175	11.754950	1.991343	0.000235
  63	6.1690e+00	1.2370	24.212722	0.000649	6.485490	1.098672	0.000130
  64	6.2685e+00	1.2576	24.430727	0.001094	10.944264	1.854009	0.000219
  65	6.3680e+00	1.2763	24.612398	0.000912	9.120220	1.545007	0.000183
  66	6.4675e+00	1.2967	24.838478	0.001135	11.349607	1.922676	0.000227
  67	6.5670e+00	1.3164	24.971703	0.000669	6.688161	1.133005	0.000134
  68	6.6665e+00	1.3360	25.157411	0.000932	9.322892	1.579341	0.000187
  69	6.7660e+00	1.3551	25.322934	0.000831	8.309534	1.407673	0.000166
  70	6.8655e+00	1.3759	25.508642	0.000932	9.322892	1.579341	0.000187
  71	6.9650e+00	1.3956	25.658016	0.000750	7.498848	1.270339	0.000150
  72	7.0645e+00	1.4156	25.859873	0.001013	10.133578	1.716675	0.000203
  73	7.1640e+00	1.4364	26.045581	0.000932	9.322892	1.579341	0.000187
  74	7.2635e+00	1.4561	26.243401	0.000993	9.930906	1.682341	0.000199
  75	7.3630e+00	1.4751	26.384701	0.000709	7.093505	1.201672	0.000142
  76	7.4625e+00	1.4956	26.622892	0.001196	11.957622	2.025676	0.000239
  77	7.5620e+00	1.5156	26.776303	0.000770	7.701519	1.304673	0.000154
  78	7.6615e+00	1.5359	26.962011	0.000932	9.322892	1.579341	0.000187
  79	7.7610e+00	1.5550	27.139645	0.000892	8.917549	1.510674	0.000179
  80	7.8605e+00	1.5755	27.357650	0.001094	10.944264	1.854009	0.000219
  81	7.9600e+00	1.5949	27.519136	0.000811	8.106862	1.373340	0.000162
  82	8.0595e+00	1.6151	27.700807	0.000912	9.120220	1.545007	0.000183
  83	8.1590e+00	1.6351	27.902664	0.001013	10.133578	1.716675	0.000203
  84	8.2585e+00	1.6546	28.080298	0.000892	8.917549	1.510674	0.000179
  85	8.3580e+00	1.6750	28.290229	0.001054	10.538921	1.785342	0.000211
  86	8.4575e+00	1.6943	28.459788	0.000851	8.512205	1.442007	0.000170
  87	8.5570e+00	1.7153	28.621274	0.000811	8.106862	1.373340	0.000162
  88	8.6565e+00	1.7352	28.786796	0.000831	8.309534	1.407673	0.000166
  89	8.7560e+00	1.7547	28.996727	0.001054	10.538921	1.785342	0.000211
  90	8.8555e+00	1.7750	29.202621	0.001034	10.336249	1.751008	0.000207
  91	8.9550e+00	1.7941	29.335847	0.000669	6.688161	1.133005	0.000134
  92	9.0545e+00	1.8150	29.533666	0.000993	9.930906	1.682341	0.000199
  93	9.1540e+00	1.8355	29.695152	0.000811	8.106862	1.373340	0.000162
  94	9.2535e+00	1.8541	29.888934	0.000973	9.728235	1.648008	0.000195
  95	9.3530e+00	1.8742	30.086754	0.000993	9.930906	1.682341	0.000199
  96	9.4525e+00	1.8938	30.280537	0.000973	9.728235	1.648008	0.000195
  97	9.5520e+00	1.9138	30.458171	0.000892	8.917549	1.510674	0.000179
  98	9.6515e+00	1.9340	30.639842	0.000912	9.120220	1.545007	0.000183
  99	9.7510e+00	1.9539	30.853810	0.001074	10.741593	1.819675	0.000215
 100	9.8505e+00	1.9743	30.999147	0.000730	7.296176	1.236006	0.000146
 101	9.9500e+00	1.9939	31.188892	0.000953	9.525563	1.613674	0.000191
 102	1.0050e+01	2.0142	31.334229	0.000730	7.296176	1.236006	0.000146
 103	1.0149e+01	2.0335	31.536086	0.001013	10.133578	1.716675	0.000203
 104	1.0248e+01	2.0542	31.693534	0.000790	7.904191	1.339006	0.000158
 105	1.0348e+01	2.0733	31.899428	0.001034	10.336249	1.751008	0.000207
 106	1.0447e+01	2.0938	32.068988	0.000851	8.512205	1.442007	0.000170
 107	1.0547e+01	2.1136	32.315253	0.001236	12.362965	2.094343	0.000248
 108	1.0646e+01	2.1337	32.452516	0.000689	6.890833	1.167339	0.000138
 109	1.0746e+01	2.1529	32.658410	0.001034	10.336249	1.751008	0.000207
 110	1.0845e+01	2.1738	32.836044	0.000892	8.917549	1.510674	0.000179
 111	1.0945e+01	2.1935	33.029826	0.000973	9.728235	1.648008	0.000195
 112	1.1044e+01	2.2138	33.203423	0.000871	8.714877	1.476340	0.000174
 113	1.1144e+01	2.2326	33.348760	0.000730	7.296176	1.236006	0.000146
 114	1.1243e+01	2.2536	33.595025	0.001236	12.362965	2.094343	0.000248
 115	1.1343e+01	2.2735	33.792845	0.000993	9.930906	1.682341	0.000199
 116	1.1443e+01	2.2933	33.966442	0.000871	8.714877	1.476340	0.000174
 117	1.1542e+01	2.3136	34.140038	0.000871	8.714877	1.476340	0.000174
 118	1.1642e+01	2.3327	34.313635	0.000871	8.714877	1.476340	0.000174
 119	1.1741e+01	2.3525	34.519529	0.001034	10.336249	1.751008	0.000207
 120	1.1841e+01	2.3727	34.733497	0.001074	10.741593	1.819675	0.000215
 121	1.1940e+01	2.3923	34.894983	0.000811	8.106862	1.373340	0.000162
 122	1.2040e+01	2.4123	35.068580	0.000871	8.714877	1.476340	0.000174
 123	1.2139e+01	2.4330	35.266399	0.000993	9.930906	1.682341	0.000199
 124	1.2239e+01	2.4525	35.427885	0.000811	8.106862	1.373340	0.000162
 125	1.2338e+01	2.4723	35.625704	0.000993	9.930906	1.682341	0.000199
 126	1.2438e+01	2.4926	35.815450	0.000953	9.525563	1.613674	0.000191
 127	1.2537e+01	2.5120	36.001158	0.000932	9.322892	1.579341	0.000187
 128	1.2636e+01	2.5326	36.166681	0.000831	8.309534	1.407673	0.000166
 129	1.2736e+01	2.5518	36.352389	0.000932	9.322892	1.579341	0.000187
 130	1.2835e+01	2.5724	36.534060	0.000912	9.120220	1.545007	0.000183
 131	1.2935e+01	2.5915	36.735917	0.001013	10.133578	1.716675	0.000203
 132	1.3034e+01	2.6109	36.897402	0.000811	8.106862	1.373340	0.000162
 133	1.3134e+01	2.6311	37.123482	0.001135	11.349607	1.922676	0.000227
 134	1.3233e+01	2.6516	37.284967	0.000811	8.106862	1.373340	0.000162
 135	1.3333e+01	2.6720	37.438378	0.000770	7.701519	1.304673	0.000154
 136	1.3432e+01	2.6922	37.644272	0.001034	10.336249	1.751008	0.000207
 137	1.3532e+01	2.7111	37.813832	0.000851	8.512205	1.442007	0.000170
 138	1.3632e+01	2.7309	38.047986	0.001175	11.754950	1.991343	0.000235
 139	1.3731e+01	2.7508	38.173137	0.000628	6.282818	1.064338	0.000126
 140	1.3831e+01	2.7726	38.439588	0.001338	13.376323	2.266010	0.000268
 141	1.3930e+01	2.7917	38.576851	0.000689	6.890833	1.167339	0.000138
 142	1.4030e+01	2.8121	38.742373	0.000831	8.309534	1.407673	0.000166
 143	1.4129e+01	2.8310	38.940193	0.000993	9.930906	1.682341	0.000199
 144	1.4229e+01	2.8512	39.162235	0.001115	11.146936	1.888342	0.000223
 145	1.4328e+01	2.8712	39.319684	0.000790	7.904191	1.339006	0.000158
 146	1.4428e+01	2.8909	39.513466	0.000973	9.728235	1.648008	0.000195
 147	1.4527e+01	2.9099	39.695137	0.000912	9.120220	1.545007	0.000183
 148	1.4627e+01	2.9302	39.884883	0.000953	9.525563	1.613674	0.000191
 149	1.4726e+01	2.9502	40.078665	0.000973	9.728235	1.648008	0.000195
 150	1.4825e+01	2.9708	40.264373	0.000932	9.322892	1.579341	0.000187
 151	1.4925e+01	2.9900	40.429896	0.000831	8.309534	1.407673	0.000166
 152	1.5024e+01	3.0108	40.603493	0.000871	8.714877	1.476340	0.000174
 153	1.5124e+01	3.0309	40.789201	0.000932	9.322892	1.579341	0.000187
 154	1.5223e+01	3.0511	40.995095	0.001034	10.336249	1.751008	0.000207
 155	1.5323e+01	3.0697	41.140432	0.000730	7.296176	1.236006	0.000146
 156	1.5422e+01	3.0901	41.334214	0.000973	9.728235	1.648008	0.000195
 157	1.5522e+01	3.1103	41.511848	0.000892	8.917549	1.510674	0.000179
 158	1.5621e+01	3.1304	41.709668	0.000993	9.930906	1.682341	0.000199
 159	1.5721e+01	3.1503	41.875190	0.000831	8.309534	1.407673	0.000166
 160	1.5820e+01	3.1696	42.056862	0.000912	9.120220	1.545007	0.000183
 161	1.5920e+01	3.1908	42.234496	0.000892	8.917549	1.510674	0.000179
 162	1.6020e+01	3.2098	42.432315	0.000993	9.930906	1.682341	0.000199
 163	1.6119e+01	3.2290	42.589763	0.000790	7.904191	1.339006	0.000158
 164	1.6218e+01	3.2506	42.791620	0.001013	10.133578	1.716675	0.000203
 165	1.6318e+01	3.2696	42.985403	0.000973	9.728235	1.648008	0.000195
 166	1.6418e+01	3.2903	43.130740	0.000730	7.296176	1.236006	0.000146
 167	1.6517e+01	3.3096	43.344708	0.001074	10.741593	1.819675	0.000215
 168	1.6616e+01	3.3288	43.518305	0.000871	8.714877	1.476340	0.000174
 169	1.6716e+01	3.3495	43.699976	0.000912	9.120220	1.545007	0.000183
 170	1.6816e+01	3.3694	43.893758	0.000973	9.728235	1.648008	0.000195
 171	1.6915e+01	3.3898	44.075429	0.000912	9.120220	1.545007	0.000183
 172	1.7015e+01	3.4087	44.236915	0.000811	8.106862	1.373340	0.000162
 173	1.7114e+01	3.4292	44.434735	0.000993	9.930906	1.682341	0.000199
 174	1.7213e+01	3.4495	44.604294	0.000851	8.512205	1.442007	0.000170
 175	1.7313e+01	3.4698	44.761742	0.000790	7.904191	1.339006	0.000158
 176	1.7413e+01	3.4887	44.967636	0.001034	10.336249	1.751008	0.000207
 177	1.7512e+01	3.5084	45.145270	0.000892	8.917549	1.510674	0.000179
 178	1.7611e+01	3.5297	45.339053	0.000973	9.728235	1.648008	0.000195
 179	1.7711e+01	3.5482	45.520724	0.000912	9.120220	1.545007	0.000183
 180	1.7811e+01	3.5686	45.694321	0.000871	8.714877	1.476340	0.000174
 181	1.7910e+01	3.5893	45.851769	0.000790	7.904191	1.339006	0.000158
 182	1.8009e+01	3.6086	46.029403	0.000892	8.917549	1.510674	0.000179
 183	1.8109e+01	3.6291	46.207037	0.000892	8.917549	1.510674	0.000179
 184	1.8209e+01	3.6483	46.404857	0.000993	9.930906	1.682341	0.000199
 185	1.8308e+01	3.6684	46.574416	0.000851	8.512205	1.442007	0.000170
 186	1.8407e+01	3.6880	46.780310	0.001034	10.336249	1.751008	0.000207
 187	1.8507e+01	3.7084	46.917573	0.000689	6.890833	1.167339	0.000138
 188	1.8607e+01	3.7286	47.111355	0.000973	9.728235	1.648008	0.000195
 189	1.8706e+01	3.7478	47.276878	0.000831	8.309534	1.407673	0.000166
 190	1.8805e+01	3.7682	47.478735	0.001013	10.133578	1.716675	0.000203
 191	1.8905e+01	3.7872	47.656369	0.000892	8.917549	1.510674	0.000179
 192	1.9005e+01	3.8073	47.834003	0.000892	8.917549	1.510674	0.000179
 193	1.9104e+01	3.8334	47.999525	0.000831	8.309534	1.407673	0.000166
 194	1.9203e+01	3.8470	48.148899	0.000750	7.498848	1.270339	0.000150
 195	1.9303e+01	3.8677	48.338645	0.000953	9.525563	1.613674	0.000191
 196	1.9402e+01	3.8872	48.516279	0.000892	8.917549	1.510674	0.000179
 197	1.9502e+01	3.9074	48.697950	0.000912	9.120220	1.545007	0.000183
 198	1.9602e+01	3.9286	48.851361	0.000770	7.701519	1.304673	0.000154
 199	1.9701e+01	3.9474	49.049181	0.000993	9.930906	1.682341	0.000199
 200	1.9800e+01	3.9675	49.178369	0.000649	6.485490	1.098672	0.000130
 201	1.9900e+01	3.9867	49.388300	0.001054	10.538921	1.785342	0.000211
 202	2.0000e+01	4.0067	49.561897	0.000871	8.714877	1.476340	0.000174
 203	2.0099e+01	4.0269	49.703197	0.000709	7.093505	1.201672	0.000142
 204	2.0198e+01	4.0462	49.860645	0.000790	7.904191	1.339006	0.000158
 205	2.0298e+01	4.0668	50.062502	0.001013	10.133578	1.716675	0.000203
 206	2.0398e+01	4.0868	50.215913	0.000770	7.701519	1.304673	0.000154
 207	2.0497e+01	4.1070	50.389510	0.000871	8.714877	1.476340	0.000174
 208	2.0596e+01	4.1257	50.563107	0.000871	8.714877	1.476340	0.000174
 209	2.0696e+01	4.1460	50.692295	0.000649	6.485490	1.098672	0.000130
 210	2.0796e+01	4.1660	50.906263	0.001074	10.741593	1.819675	0.000215
 211	2.0895e+01	4.1863	51.083897	0.000892	8.917549	1.510674	0.000179
 212	2.0994e+01	4.2059	51.229234	0.000730	7.296176	1.236006	0.000146
 213	2.1094e+01	4.2260	51.382645	0.000770	7.701519	1.304673	0.000154
 214	2.1194e+01	4.2458	51.572390	0.000953	9.525563	1.613674	0.000191
 215	2.1293e+01	4.2663	51.721765	0.000750	7.498848	1.270339	0.000150
 216	2.1392e+01	4.2863	51.931696	0.001054	10.538921	1.785342	0.000211
 217	2.1492e+01	4.3060	52.040698	0.000547	5.472132	0.927004	0.000110
 218	2.1591e+01	4.3261	52.238518	0.000993	9.930906	1.682341	0.000199
 219	2.1691e+01	4.3462	52.428263	0.000953	9.525563	1.613674	0.000191
 220	2.1791e+01	4.3670	52.601860	0.000871	8.714877	1.476340	0.000174
 221	2.1890e+01	4.3865	52.722974	0.000608	6.080147	1.030005	0.000122
 222	2.1989e+01	4.4060	52.900608	0.000892	8.917549	1.510674	0.000179
 223	2.2089e+01	4.4253	53.049982	0.000750	7.498848	1.270339	0.000150
 224	2.2189e+01	4.4457	53.223579	0.000871	8.714877	1.476340	0.000174
 225	2.2288e+01	4.4646	53.376990	0.000770	7.701519	1.304673	0.000154
 226	2.2387e+01	4.4848	53.562698	0.000932	9.322892	1.579341	0.000187
 227	2.2487e+01	4.5049	53.703998	0.000709	7.093505	1.201672	0.000142
 228	2.2587e+01	4.5254	53.885669	0.000912	9.120220	1.545007	0.000183
 229	2.2686e+01	4.5452	53.994672	0.000547	5.472132	0.927004	0.000110
 230	2.2785e+01	4.5647	54.196529	0.001013	10.133578	1.716675	0.000203
 231	2.2885e+01	4.5843	54.337828	0.000709	7.093505	1.201672	0.000142
 232	2.2985e+01	4.6053	54.503351	0.000831	8.309534	1.407673	0.000166
 233	2.3084e+01	4.6244	54.697134	0.000973	9.728235	1.648008	0.000195
 234	2.3183e+01	4.6447	54.814210	0.000588	5.877475	0.995671	0.000118
 235	2.3283e+01	4.6642	54.951473	0.000689	6.890833	1.167339	0.000138
 236	2.3383e+01	4.6844	55.169478	0.001094	10.944264	1.854009	0.000219
 237	2.3482e+01	4.7045	55.314815	0.000730	7.296176	1.236006	0.000146
 238	2.3581e+01	4.7253	55.480338	0.000831	8.309534	1.407673	0.000166
 239	2.3681e+01	4.7440	55.621638	0.000709	7.093505	1.201672	0.000142
 240	2.3780e+01	4.7643	55.803309	0.000912	9.120220	1.545007	0.000183
 241	2.3880e+01	4.7848	55.980943	0.000892	8.917549	1.510674	0.000179
 242	2.3980e+01	4.8052	56.130317	0.000750	7.498848	1.270339	0.000150
 243	2.4079e+01	4.8244	56.263542	0.000669	6.688161	1.133005	0.000134
 244	2.4178e+01	4.8446	56.429065	0.000831	8.309534	1.407673	0.000166
 245	2.4278e+01	4.8635	56.602662	0.000871	8.714877	1.476340	0.000174
 246	2.4378e+01	4.8838	56.735887	0.000669	6.688161	1.133005	0.000134
 247	2.4477e+01	4.9029	56.925632	0.000953	9.525563	1.613674	0.000191
 248	2.4576e+01	4.9245	57.091155	0.000831	8.309534	1.407673	0.000166
 249	2.4676e+01	4.9438	57.244566	0.000770	7.701519	1.304673	0.000154
 250	2.4776e+01	4.9645	57.377792	0.000669	6.688161	1.133005	0.000134
 251	2.4875e+01	4.9847	57.523129	0.000730	7.296176	1.236006	0.000146
 252	2.4974e+01	5.0036	57.664428	0.000709	7.093505	1.201672	0.000142
 253	2.5074e+01	5.0231	57.862248	0.000993	9.930906	1.682341	0.000199
 254	2.5174e+01	5.0433	58.011622	0.000750	7.498848	1.270339	0.000150
 255	2.5273e+01	5.0628	58.136773	0.000628	6.282818	1.064338	0.000126
 256	2.5372e+01	5.0829	58.318444	0.000912	9.120220	1.545007	0.000183
 257	2.5472e+01	5.1037	58.451670	0.000669	6.688161	1.133005	0.000134
 258	2.5572e+01	5.1232	58.576821	0.000628	6.282818	1.064338	0.000126
 259	2.5671e+01	5.1427	58.774641	0.000993	9.930906	1.682341	0.000199
 260	2.5770e+01	5.1621	58.903829	0.000649	6.485490	1.098672	0.000130
 261	2.5870e+01	5.1823	59.061277	0.000790	7.904191	1.339006	0.000158
 262	2.5970e+01	5.2026	59.194503	0.000669	6.688161	1.133005	0.000134
 263	2.6069e+01	5.2227	59.360025	0.000831	8.309534	1.407673	0.000166
 264	2.6169e+01	5.2434	59.513436	0.000770	7.701519	1.304673	0.000154
 265	2.6268e+01	5.2624	59.658773	0.000730	7.296176	1.236006	0.000146
 266	2.6367e+01	5.2819	59.787962	0.000649	6.485490	1.098672	0.000130
 267	2.6467e+01	5.3031	59.981744	0.000973	9.728235	1.648008	0.000195
 268	2.6567e+01	5.3222	60.119007	0.000689	6.890833	1.167339	0.000138
 269	2.6666e+01	5.3428	60.280492	0.000811	8.106862	1.373340	0.000162
 270	2.6765e+01	5.3617	60.413718	0.000669	6.688161	1.133005	0.000134
 271	2.6865e+01	5.3826	60.591352	0.000892	8.917549	1.510674	0.000179
 272	2.6965e+01	5.4021	60.692280	0.000507	5.066789	0.858337	0.000101
 273	2.7064e+01	5.4217	60.898174	0.001034	10.336249	1.751008	0.000207
 274	2.7163e+01	5.4421	61.015251	0.000588	5.877475	0.995671	0.000118
 275	2.7263e+01	5.4620	61.168662	0.000770	7.701519	1.304673	0.000154
 276	2.7363e+01	5.4809	61.313999	0.000730	7.296176	1.236006	0.000146
 277	2.7462e+01	5.5010	61.463373	0.000750	7.498848	1.270339	0.000150
 278	2.7561e+01	5.5209	61.588524	0.000628	6.282818	1.064338	0.000126
 279	2.7661e+01	5.5410	61.774232	0.000932	9.322892	1.579341	0.000187
 280	2.7761e+01	5.5614	61.907458	0.000669	6.688161	1.133005	0.000134
 281	2.7860e+01	5.5810	62.068943	0.000811	8.106862	1.373340	0.000162
 282	2.7959e+01	5.6017	62.214280	0.000730	7.296176	1.236006	0.000146
 283	2.8059e+01	5.6219	62.399989	0.000932	9.322892	1.579341	0.000187
 284	2.8159e+01	5.6405	62.533214	0.000669	6.688161	1.133005	0.000134
 285	2.8258e+01	5.6605	62.682588	0.000750	7.498848	1.270339	0.000150
 286	2.8358e+01	5.6820	62.831962	0.000750	7.498848	1.270339	0.000150
 287	2.8457e+01	5.7006	62.997485	0.000831	8.309534	1.407673	0.000166
 288	2.8556e+01	5.7207	63.106487	0.000547	5.472132	0.927004	0.000110
 289	2.8656e+01	5.7403	63.288158	0.000912	9.120220	1.545007	0.000183
 290	2.8756e+01	5.7604	63.449644	0.000811	8.106862	1.373340	0.000162
 291	2.8855e+01	5.7781	63.566721	0.000588	5.877475	0.995671	0.000118
 292	2.8954e+01	5.8007	63.732243	0.000831	8.309534	1.407673	0.000166
 293	2.9054e+01	5.8202	63.905840	0.000871	8.714877	1.476340	0.000174
 294	2.9154e+01	5.8414	64.026954	0.000608	6.080147	1.030005	0.000122
 295	2.9253e+01	5.8602	64.192477	0.000831	8.309534	1.407673	0.000166
 296	2.9352e+01	5.8804	64.357999	0.000831	8.309534	1.407673	0.000166
 297	2.9452e+01	5.9000	64.479113	0.000608	6.080147	1.030005	0.000122
 298	2.9552e+01	5.9209	64.600228	0.000608	6.080147	1.030005	0.000122
 299	2.9651e+01	5.9399	64.785936	0.000932	9.322892	1.579341	0.000187
 300	2.9750e+01	5.9603	64.919161	0.000669	6.688161	1.133005	0.000134
 301	2.9850e+01	5.9795	65.080647	0.000811	8.106862	1.373340	0.000162
 302	2.9950e+01	6.0009	65.197724	0.000588	5.877475	0.995671	0.000118
 303	3.0049e+01	6.0192	65.391506	0.000973	9.728235	1.648008	0.000195
 304	3.0148e+01	6.0394	65.512620	0.000608	6.080147	1.030005	0.000122
 305	3.0248e+01	6.0595	65.702366	0.000953	9.525563	1.613674	0.000191
 306	3.0348e+01	6.0796	65.779071	0.000385	3.850760	0.652336	0.000077
 307	3.0447e+01	6.0998	65.972854	0.000973	9.728235	1.648008	0.000195
 308	3.0547e+01	6.1190	66.093968	0.000608	6.080147	1.030005	0.000122
 309	3.0646e+01	6.1401	66.251416	0.000790	7.904191	1.339006	0.000158
 310	3.0745e+01	6.1590	66.408864	0.000790	7.904191	1.339006	0.000158
 311	3.0845e+01	6.1788	66.562275	0.000770	7.701519	1.304673	0.000154
 312	3.0945e+01	6.1991	66.735872	0.000871	8.714877	1.476340	0.000174
 313	3.1044e+01	6.2194	66.828726	0.000466	4.661446	0.789670	0.000093
 314	3.1143e+01	6.2392	66.965989	0.000689	6.890833	1.167339	0.000138
 315	3.1243e+01	6.2585	67.143623	0.000892	8.917549	1.510674	0.000179
 316	3.1343e+01	6.2786	67.268774	0.000628	6.282818	1.064338	0.000126
 317	3.1442e+01	6.2988	67.450445	0.000912	9.120220	1.545007	0.000183
 318	3.1541e+01	6.3183	67.571559	0.000608	6.080147	1.030005	0.000122
 319	3.1641e+01	6.3384	67.720933	0.000750	7.498848	1.270339	0.000150
 320	3.1741e+01	6.3586	67.886456	0.000831	8.309534	1.407673	0.000166
 321	3.1840e+01	6.3779	68.015644	0.000649	6.485490	1.098672	0.000130
 322	3.1939e+01	6.3979	68.165018	0.000750	7.498848	1.270339	0.000150
 323	3.2039e+01	6.4178	68.290170	0.000628	6.282818	1.064338	0.000126
 324	3.2139e+01	6.4379	68.455692	0.000831	8.309534	1.407673	0.000166
 325	3.2238e+01	6.4581	68.588918	0.000669	6.688161	1.133005	0.000134
 326	3.2337e+01	6.4776	68.782700	0.000973	9.728235	1.648008	0.000195
 327	3.2437e+01	6.4977	68.903814	0.000608	6.080147	1.030005	0.000122
 328	3.2536e+01	6.5179	69.065300	0.000811	8.106862	1.373340	0.000162
 329	3.2636e+01	6.5374	69.202562	0.000689	6.890833	1.167339	0.000138
 330	3.2736e+01	6.5569	69.327713	0.000628	6.282818	1.064338	0.000126
 331	3.2835e+01	6.5774	69.436716	0.000547	5.472132	0.927004	0.000110
 332	3.2934e+01	6.5978	69.626462	0.000953	9.525563	1.613674	0.000191
 333	3.3034e+01	6.6167	69.767761	0.000709	7.093505	1.201672	0.000142
 334	3.3133e+01	6.6372	69.884838	0.000588	5.877475	0.995671	0.000118
 335	3.3233e+01	6.6569	70.026138	0.000709	7.093505	1.201672	0.000142
 336	3.3333e+01	6.6763	70.167438	0.000709	7.093505	1.201672	0.000142
 337	3.3432e+01	6.6964	70.353146	0.000932	9.322892	1.579341	0.000187
 338	3.3532e+01	6.7168	70.486371	0.000669	6.688161	1.133005	0.000134
 339	3.3631e+01	6.7370	70.635745	0.000750	7.498848	1.270339	0.000150
 340	3.3730e+01	6.7568	70.777045	0.000709	7.093505	1.201672	0.000142
 341	3.3830e+01	6.7760	70.914308	0.000689	6.890833	1.167339	0.000138
 342	3.3929e+01	6.7953	71.108090	0.000973	9.728235	1.648008	0.000195
 343	3.4029e+01	6.8172	71.245353	0.000689	6.890833	1.167339	0.000138
 344	3.4129e+01	6.8369	71.398764	0.000770	7.701519	1.304673	0.000154
 345	3.4228e+01	6.8560	71.556212	0.000790	7.904191	1.339006	0.000158
 346	3.4328e+01	6.8761	71.657141	0.000507	5.066789	0.858337	0.000101
 347	3.4427e+01	6.8963	71.802478	0.000730	7.296176	1.236006	0.000146
 348	3.4526e+01	6.9152	71.980112	0.000892	8.917549	1.510674	0.000179
 349	3.4626e+01	6.9364	72.117374	0.000689	6.890833	1.167339	0.000138
 350	3.4725e+01	6.9555	72.266748	0.000750	7.498848	1.270339	0.000150
 351	3.4825e+01	6.9753	72.395937	0.000649	6.485490	1.098672	0.000130
 352	3.4925e+01	6.9946	72.525125	0.000649	6.485490	1.098672	0.000130
 353	3.5024e+01	7.0147	72.666425	0.000709	7.093505	1.201672	0.000142
 354	3.5123e+01	7.0354	72.823873	0.000790	7.904191	1.339006	0.000158
 355	3.5223e+01	7.0562	72.977284	0.000770	7.701519	1.304673	0.000154
 356	3.5322e+01	7.0751	73.082250	0.000527	5.269461	0.892671	0.000105
 357	3.5422e+01	7.0953	73.247772	0.000831	8.309534	1.407673	0.000166
 358	3.5522e+01	7.1148	73.364849	0.000588	5.877475	0.995671	0.000118
 359	3.5621e+01	7.1343	73.546520	0.000912	9.120220	1.545007	0.000183
 360	3.5721e+01	7.1563	73.663597	0.000588	5.877475	0.995671	0.000118
 361	3.5820e+01	7.1746	73.776637	0.000567	5.674804	0.961338	0.000114
 362	3.5919e+01	7.1960	73.938122	0.000811	8.106862	1.373340	0.000162
 363	3.6019e+01	7.2155	74.063274	0.000628	6.282818	1.064338	0.000126
 364	3.6118e+01	7.2341	74.196499	0.000669	6.688161	1.133005	0.000134
 365	3.6218e+01	7.2546	74.341836	0.000730	7.296176	1.236006	0.000146
 366	3.6318e+01	7.2753	74.471024	0.000649	6.485490	1.098672	0.000130
 367	3.6417e+01	7.2955	74.632510	0.000811	8.106862	1.373340	0.000162
 368	3.6517e+01	7.3150	74.765735	0.000669	6.688161	1.133005	0.000134
 369	3.6616e+01	7.3342	74.878775	0.000567	5.674804	0.961338	0.000114
 370	3.6715e+01	7.3547	75.032186	0.000770	7.701519	1.304673	0.000154
 371	3.6815e+01	7.3736	75.161375	0.000649	6.485490	1.098672	0.000130
 372	3.6914e+01	7.3940	75.306711	0.000730	7.296176	1.236006	0.000146
 373	3.7014e+01	7.4136	75.460123	0.000770	7.701519	1.304673	0.000154
 374	3.7114e+01	7.4346	75.589311	0.000649	6.485490	1.098672	0.000130
 375	3.7213e+01	7.4541	75.690239	0.000507	5.066789	0.858337	0.000101
 376	3.7313e+01	7.4749	75.843651	0.000770	7.701519	1.304673	0.000154
 377	3.7412e+01	7.4944	76.001099	0.000790	7.904191	1.339006	0.000158
 378	3.7511e+01	7.5146	76.085879	0.000426	4.256103	0.721003	0.000085
 379	3.7611e+01	7.5341	76.235253	0.000750	7.498848	1.270339	0.000150
 380	3.7711e+01	7.5536	76.380590	0.000730	7.296176	1.236006	0.000146
 381	3.7810e+01	7.5738	76.497667	0.000588	5.877475	0.995671	0.000118
 382	3.7910e+01	7.5930	76.655115	0.000790	7.904191	1.339006	0.000158
 383	3.8009e+01	7.6128	76.772192	0.000588	5.877475	0.995671	0.000118
 384	3.8108e+01	7.6330	76.917529	0.000730	7.296176	1.236006	0.000146
 385	3.8208e+01	7.6537	77.030568	0.000567	5.674804	0.961338	0.000114
 386	3.8307e+01	7.6727	77.171868	0.000709	7.093505	1.201672	0.000142
 387	3.8407e+01	7.6934	77.345465	0.000871	8.714877	1.476340	0.000174
 388	3.8507e+01	7.7135	77.458505	0.000567	5.674804	0.961338	0.000114
 389	3.8606e+01	7.7322	77.563470	0.000527	5.269461	0.892671	0.000105
 390	3.8706e+01	7.7526	77.700733	0.000689	6.890833	1.167339	0.000138
 391	3.8805e+01	7.7740	77.842033	0.000709	7.093505	1.201672	0.000142
 392	3.8904e+01	7.7929	77.930850	0.000446	4.458774	0.755337	0.000089
 393	3.9004e+01	7.8124	78.072149	0.000709	7.093505	1.201672	0.000142
 394	3.9103e+01	7.8326	78.213449	0.000709	7.093505	1.201672	0.000142
 395	3.9203e+01	7.8515	78.370898	0.000790	7.904191	1.339006	0.000158
 396	3.9303e+01	7.8735	78.512197	0.000709	7.093505	1.201672	0.000142
 397	3.9402e+01	7.8924	78.625237	0.000567	5.674804	0.961338	0.000114
 398	3.9502e+01	7.9125	78.738277	0.000567	5.674804	0.961338	0.000114
 399	3.9601e+01	7.9317	78.875539	0.000689	6.890833	1.167339	0.000138
 400	3.9700e+01	7.9527	79.057211	0.000912	9.120220	1.545007	0.000183
 401	3.9800e+01	7.9729	79.105656	0.000243	2.432059	0.412002	0.000049
 402	3.9900e+01	7.9919	79.287327	0.000912	9.120220	1.545007	0.000183
 403	3.9999e+01	8.0114	79.392293	0.000527	5.269461	0.892671	0.000105
 404	4.0099e+01	8.0328	79.509370	0.000588	5.877475	0.995671	0.000118
 405	4.0198e+01	8.0517	79.654707	0.000730	7.296176	1.236006	0.000146
 406	4.0297e+01	8.0712	79.812155	0.000790	7.904191	1.339006	0.000158
 407	4.0397e+01	8.0920	79.896935	0.000426	4.256103	0.721003	0.000085
 408	4.0496e+01	8.1115	80.054383	0.000790	7.904191	1.339006	0.000158
 409	4.0596e+01	8.1304	80.151274	0.000486	4.864117	0.824004	0.000097
 410	4.0696e+01	8.1518	80.349094	0.000993	9.930906	1.682341	0.000199
 411	4.0795e+01	8.1713	80.441948	0.000466	4.661446	0.789670	0.000093
 412	4.0895e+01	8.1908	80.554988	0.000567	5.674804	0.961338	0.000114
 413	4.0994e+01	8.2104	80.672065	0.000588	5.877475	0.995671	0.000118
 414	4.1093e+01	8.2305	80.845662	0.000871	8.714877	1.476340	0.000174
 415	4.1193e+01	8.2522	80.934479	0.000446	4.458774	0.755337	0.000089
 416	4.1292e+01	8.2708	81.075778	0.000709	7.093505	1.201672	0.000142
 417	4.1392e+01	8.2909	81.180744	0.000527	5.269461	0.892671	0.000105
 418	4.1492e+01	8.3111	81.309932	0.000649	6.485490	1.098672	0.000130
 419	4.1591e+01	8.3318	81.422972	0.000567	5.674804	0.961338	0.000114
 420	4.1691e+01	8.3514	81.580420	0.000790	7.904191	1.339006	0.000158
 421	4.1790e+01	8.3703	81.709609	0.000649	6.485490	1.098672	0.000130
 422	4.1889e+01	8.3901	81.810537	0.000507	5.066789	0.858337	0.000101
 423	4.1989e+01	8.4103	81.923577	0.000567	5.674804	0.961338	0.000114
 424	4.2089e+01	8.4307	82.052765	0.000649	6.485490	1.098672	0.000130
 425	4.2188e+01	8.4496	82.185991	0.000669	6.688161	1.133005	0.000134
 426	4.2288e+01	8.4692	82.282882	0.000486	4.864117	0.824004	0.000097
 427	4.2387e+01	8.4911	82.432256	0.000750	7.498848	1.270339	0.000150
 428	4.2486e+01	8.5101	82.529147	0.000486	4.864117	0.824004	0.000097
 429	4.2586e+01	8.5308	82.658336	0.000649	6.485490	1.098672	0.000130
 430	4.2685e+01	8.5497	82.775413	0.000588	5.877475	0.995671	0.000118
 431	4.2785e+01	8.5705	82.904601	0.000649	6.485490	1.098672	0.000130
 432	4.2885e+01	8.5900	83.041864	0.000689	6.890833	1.167339	0.000138
 433	4.2984e+01	8.6095	83.158940	0.000588	5.877475	0.995671	0.000118
 434	4.3084e+01	8.6297	83.292166	0.000669	6.688161	1.133005	0.000134
 435	4.3183e+01	8.6495	83.397132	0.000527	5.269461	0.892671	0.000105
 436	4.3282e+01	8.6694	83.506134	0.000547	5.472132	0.927004	0.000110
 437	4.3382e+01	8.6892	83.659545	0.000770	7.701519	1.304673	0.000154
 438	4.3481e+01	8.7096	83.756437	0.000486	4.864117	0.824004	0.000097
 439	4.3581e+01	8.7289	83.893699	0.000689	6.890833	1.167339	0.000138
 440	4.3681e+01	8.7487	84.034999	0.000709	7.093505	1.201672	0.000142
 441	4.3780e+01	8.7688	84.131890	0.000486	4.864117	0.824004	0.000097
 442	4.3880e+01	8.7890	84.281264	0.000750	7.498848	1.270339	0.000150
 443	4.3979e+01	8.8091	84.406415	0.000628	6.282818	1.064338	0.000126
 444	4.4078e+01	8.8293	84.551752	0.000730	7.296176	1.236006	0.000146
 445	4.4178e+01	8.8480	84.620384	0.000345	3.445416	0.583669	0.000069
 446	4.4278e+01	8.8674	84.761683	0.000709	7.093505	1.201672	0.000142
 447	4.4377e+01	8.8879	84.882797	0.000608	6.080147	1.030005	0.000122
 448	4.4477e+01	8.9080	85.007949	0.000628	6.282818	1.064338	0.000126
 449	4.4576e+01	8.9275	85.145211	0.000689	6.890833	1.167339	0.000138
 450	4.4675e+01	8.9483	85.242103	0.000486	4.864117	0.824004	0.000097
 451	4.4775e+01	8.9684	85.403588	0.000811	8.106862	1.373340	0.000162
 452	4.4874e+01	8.9874	85.512591	0.000547	5.472132	0.927004	0.000110
 453	4.4974e+01	9.0075	85.645816	0.000669	6.688161	1.133005	0.000134
 454	4.5074e+01	9.0276	85.783079	0.000689	6.890833	1.167339	0.000138
 455	4.5173e+01	9.0478	85.884007	0.000507	5.066789	0.858337	0.000101
 456	4.5273e+01	9.0679	86.045493	0.000811	8.106862	1.373340	0.000162
 457	4.5372e+01	9.0871	86.142384	0.000486	4.864117	0.824004	0.000097
 458	4.5471e+01	9.1073	86.271572	0.000649	6.485490	1.098672	0.000130
 459	4.5571e+01	9.1274	86.368463	0.000486	4.864117	0.824004	0.000097
 460	4.5670e+01	9.1473	86.538023	0.000851	8.512205	1.442007	0.000170
 461	4.5770e+01	9.1668	86.667211	0.000649	6.485490	1.098672	0.000130
 462	4.5870e+01	9.1857	86.756028	0.000446	4.458774	0.755337	0.000089
 463	4.5969e+01	9.2068	86.909440	0.000770	7.701519	1.304673	0.000154
 464	4.6069e+01	9.2266	87.046702	0.000689	6.890833	1.167339	0.000138
 465	4.6168e+01	9.2461	87.155705	0.000547	5.472132	0.927004	0.000110
 466	4.6267e+01	9.2663	87.288930	0.000669	6.688161	1.133005	0.000134
 467	4.6367e+01	9.2867	87.381784	0.000466	4.661446	0.789670	0.000093
 468	4.6467e+01	9.3066	87.527121	0.000730	7.296176	1.236006	0.000146
 469	4.6566e+01	9.3255	87.648235	0.000608	6.080147	1.030005	0.000122
 470	4.6666e+01	9.3462	87.769350	0.000608	6.080147	1.030005	0.000122
 471	4.6765e+01	9.3664	87.898538	0.000649	6.485490	1.098672	0.000130
 472	4.6864e+01	9.3859	88.011578	0.000567	5.674804	0.961338	0.000114
 473	4.6964e+01	9.4054	88.156915	0.000730	7.296176	1.236006	0.000146
 474	4.7063e+01	9.4250	88.257843	0.000507	5.066789	0.858337	0.000101
 475	4.7163e+01	9.4463	88.423366	0.000831	8.309534	1.407673	0.000166
 476	4.7263e+01	9.4656	88.548517	0.000628	6.282818	1.064338	0.000126
 477	4.7362e+01	9.4860	88.641371	0.000466	4.661446	0.789670	0.000093
 478	4.7462e+01	9.5055	88.798819	0.000790	7.904191	1.339006	0.000158
 479	4.7561e+01	9.5251	88.875525	0.000385	3.850760	0.652336	0.000077
 480	4.7660e+01	9.5464	89.016824	0.000709	7.093505	1.201672	0.000142
 481	4.7760e+01	9.5654	89.133901	0.000588	5.877475	0.995671	0.000118
 482	4.7859e+01	9.5861	89.295387	0.000811	8.106862	1.373340	0.000162
 483	4.7959e+01	9.6050	89.416501	0.000608	6.080147	1.030005	0.000122
 484	4.8059e+01	9.6246	89.541652	0.000628	6.282818	1.064338	0.000126
 485	4.8158e+01	9.6441	89.642580	0.000507	5.066789	0.858337	0.000101
 486	4.8258e+01	9.6651	89.791955	0.000750	7.498848	1.270339	0.000150
 487	4.8357e+01	9.6844	89.949403	0.000790	7.904191	1.339006	0.000158
 488	4.8456e+01	9.7048	90.030146	0.000405	4.053431	0.686670	0.000081
 489	4.8556e+01	9.7240	90.183557	0.000770	7.701519	1.304673	0.000154
 490	4.8656e+01	9.7448	90.288522	0.000527	5.269461	0.892671	0.000105
 491	4.8755e+01	9.7637	90.417711	0.000649	6.485490	1.098672	0.000130
 492	4.8855e+01	9.7839	90.526713	0.000547	5.472132	0.927004	0.000110
 493	4.8954e+01	9.8049	90.692236	0.000831	8.309534	1.407673	0.000166
 494	4.9053e+01	9.8235	90.797201	0.000527	5.269461	0.892671	0.000105
 495	4.9153e+01	9.8443	90.926390	0.000649	6.485490	1.098672	0.000130
 496	4.9252e+01	9.8638	91.047504	0.000608	6.080147	1.030005	0.000122
 497	4.9352e+01	9.8833	91.156506	0.000547	5.472132	0.927004	0.000110
 498	4.9452e+01	9.9035	91.285695	0.000649	6.485490	1.098672	0.000130
 499	4.9551e+01	9.9242	91.422957	0.000689	6.890833	1.167339	0.000138
 500	4.9651e+01	9.9444	91.556183	0.000669	6.688161	1.133005	0.000134
 501	4.9750e+01	9.9645	91.693445	0.000689	6.890833	1.167339	0.000138
 502	4.9849e+01	9.9828	91.782262	0.000446	4.458774	0.755337	0.000089
 503	4.9949e+01	9.9999	91.927599	0.000730	7.296176	1.236006	0.000146
 504	5.0048e+01	9.9834	91.887228	0.000203	2.026716	0.343335	-0.000041
 505	5.0148e+01	9.9645	91.846857	0.000203	2.026716	0.343335	-0.000041
 506	5.0248e+01	9.9432	91.725743	0.000608	6.080147	1.030005	-0.000122
 507	5.0347e+01	9.9230	91.681334	0.000223	2.229387	0.377668	-0.000045
 508	5.0447e+01	9.9041	91.645000	0.000182	1.824044	0.309001	-0.000037
 509	5.0546e+01	9.8840	91.600591	0.000223	2.229387	0.377668	-0.000045
 510	5.0645e+01	9.8644	91.515811	0.000426	4.256103	0.721003	-0.000085
 511	5.0745e+01	9.8437	91.435069	0.000405	4.053431	0.686670	-0.000081
 512	5.0844e+01	9.8241	91.382586	0.000263	2.634730	0.446335	-0.000053
 513	5.0944e+01	9.8058	91.297806	0.000426	4.256103	0.721003	-0.000085
 514	5.1044e+01	9.7832	91.261472	0.000182	1.824044	0.309001	-0.000037
 515	5.1143e+01	9.7649	91.168618	0.000466	4.661446	0.789670	-0.000093
 516	5.1242e+01	9.7448	91.095949	0.000365	3.648088	0.618003	-0.000073
 517	5.1342e+01	9.7247	91.023281	0.000365	3.648088	0.618003	-0.000073
 518	5.1441e+01	9.7045	90.966761	0.000284	2.837402	0.480669	-0.000057
 519	5.1541e+01	9.6844	90.902167	0.000324	3.242745	0.549336	-0.000065
 520	5.1641e+01	9.6679	90.801238	0.000507	5.066789	0.858337	-0.000101
 521	5.1740e+01	9.6444	90.720496	0.000405	4.053431	0.686670	-0.000081
 522	5.1840e+01	9.6255	90.672050	0.000243	2.432059	0.412002	-0.000049
 523	5.1939e+01	9.6050	90.575159	0.000486	4.864117	0.824004	-0.000097
 524	5.2038e+01	9.5852	90.498453	0.000385	3.850760	0.652336	-0.000077
 525	5.2138e+01	9.5647	90.429822	0.000345	3.445416	0.583669	-0.000069
 526	5.2237e+01	9.5452	90.345042	0.000426	4.256103	0.721003	-0.000085
 527	5.2337e+01	9.5257	90.276411	0.000345	3.445416	0.583669	-0.000069
 528	5.2437e+01	9.5058	90.183557	0.000466	4.661446	0.789670	-0.000093
 529	5.2536e+01	9.4860	90.094740	0.000446	4.458774	0.755337	-0.000089
 530	5.2636e+01	9.4653	90.030146	0.000324	3.242745	0.549336	-0.000065
 531	5.2735e+01	9.4463	89.941329	0.000446	4.458774	0.755337	-0.000089
 532	5.2834e+01	9.4262	89.848474	0.000466	4.661446	0.789670	-0.000093
 533	5.2934e+01	9.4067	89.775806	0.000365	3.648088	0.618003	-0.000073
 534	5.3033e+01	9.3871	89.739472	0.000182	1.824044	0.309001	-0.000037
 535	5.3133e+01	9.3658	89.638543	0.000507	5.066789	0.858337	-0.000101
 536	5.3233e+01	9.3462	89.545689	0.000466	4.661446	0.789670	-0.000093
 537	5.3332e+01	9.3255	89.440724	0.000527	5.269461	0.892671	-0.000105
 538	5.3431e+01	9.3066	89.376130	0.000324	3.242745	0.549336	-0.000065
 539	5.3531e+01	9.2864	89.299424	0.000385	3.850760	0.652336	-0.000077
 540	5.3630e+01	9.2663	89.158124	0.000709	7.093505	1.201672	-0.000142
 541	5.3730e+01	9.2467	89.133901	0.000122	1.216029	0.206001	-0.000024
 542	5.3830e+01	9.2266	89.012787	0.000608	6.080147	1.030005	-0.000122
 543	5.3929e+01	9.2065	88.923970	0.000446	4.458774	0.755337	-0.000089
 544	5.4029e+01	9.1863	88.843228	0.000405	4.053431	0.686670	-0.000081
 545	5.4128e+01	9.1668	88.750373	0.000466	4.661446	0.789670	-0.000093
 546	5.4227e+01	9.1467	88.657519	0.000466	4.661446	0.789670	-0.000093
 547	5.4327e+01	9.1271	88.572740	0.000426	4.256103	0.721003	-0.000085
 548	5.4426e+01	9.1076	88.496034	0.000385	3.850760	0.652336	-0.000077
 549	5.4526e+01	9.0868	88.374920	0.000608	6.080147	1.030005	-0.000122
 550	5.4626e+01	9.0679	88.298214	0.000385	3.850760	0.652336	-0.000077
 551	5.4725e+01	9.0472	88.209397	0.000446	4.458774	0.755337	-0.000089
 552	5.4825e+01	9.0279	88.128655	0.000405	4.053431	0.686670	-0.000081
 553	5.4924e+01	9.0069	88.019652	0.000547	5.472132	0.927004	-0.000110
 554	5.5023e+01	8.9874	87.951021	0.000345	3.445416	0.583669	-0.000069
 555	5.5123e+01	8.9675	87.850092	0.000507	5.066789	0.858337	-0.000101
 556	5.5222e+01	8.9469	87.761275	0.000446	4.458774	0.755337	-0.000089
 557	5.5322e+01	8.9275	87.664384	0.000486	4.864117	0.824004	-0.000097
 558	5.5422e+01	8.9080	87.583641	0.000405	4.053431	0.686670	-0.000081
 559	5.5521e+01	8.8873	87.466564	0.000588	5.877475	0.995671	-0.000118
 560	5.5620e+01	8.8683	87.381784	0.000426	4.256103	0.721003	-0.000085
 561	5.5720e+01	8.8470	87.260670	0.000608	6.080147	1.030005	-0.000122
 562	5.5819e+01	8.8293	87.216262	0.000223	2.229387	0.377668	-0.000045
 563	5.5919e+01	8.8091	87.143593	0.000365	3.648088	0.618003	-0.000073
 564	5.6019e+01	8.7890	86.998257	0.000730	7.296176	1.236006	-0.000146
 565	5.6118e+01	8.7688	86.925588	0.000365	3.648088	0.618003	-0.000073
 566	5.6218e+01	8.7487	86.824660	0.000507	5.066789	0.858337	-0.000101
 567	5.6317e+01	8.7286	86.691434	0.000669	6.688161	1.133005	-0.000134
 568	5.6416e+01	8.7072	86.630877	0.000304	3.040073	0.515002	-0.000061
 569	5.6516e+01	8.6907	86.546097	0.000426	4.256103	0.721003	-0.000085
 570	5.6615e+01	8.6724	86.445169	0.000507	5.066789	0.858337	-0.000101
 571	5.6715e+01	8.6492	86.344241	0.000507	5.066789	0.858337	-0.000101
 572	5.6815e+01	8.6303	86.211015	0.000669	6.688161	1.133005	-0.000134
 573	5.6914e+01	8.6102	86.130272	0.000405	4.053431	0.686670	-0.000081
 574	5.7014e+01	8.5888	86.057604	0.000365	3.648088	0.618003	-0.000073
 575	5.7113e+01	8.5699	85.956676	0.000507	5.066789	0.858337	-0.000101
 576	5.7212e+01	8.5491	85.831524	0.000628	6.282818	1.064338	-0.000126
 577	5.7312e+01	8.5290	85.738670	0.000466	4.661446	0.789670	-0.000093
 578	5.7411e+01	8.5101	85.666002	0.000365	3.648088	0.618003	-0.000073
 579	5.7511e+01	8.4905	85.552962	0.000567	5.674804	0.961338	-0.000114
 580	5.7611e+01	8.4704	85.452034	0.000507	5.066789	0.858337	-0.000101
 581	5.7710e+01	8.4496	85.363217	0.000446	4.458774	0.755337	-0.000089
 582	5.7809e+01	8.4301	85.270362	0.000466	4.661446	0.789670	-0.000093
 583	5.7909e+01	8.4106	85.165397	0.000527	5.269461	0.892671	-0.000105
 584	5.8008e+01	8.3907	85.076580	0.000446	4.458774	0.755337	-0.000089
 585	5.8108e+01	8.3706	84.975652	0.000507	5.066789	0.858337	-0.000101
 586	5.8208e+01	8.3508	84.886835	0.000446	4.458774	0.755337	-0.000089
 587	5.8307e+01	8.3306	84.761683	0.000628	6.282818	1.064338	-0.000126
 588	5.8407e+01	8.3102	84.656718	0.000527	5.269461	0.892671	-0.000105
 589	5.8506e+01	8.2915	84.559827	0.000486	4.864117	0.824004	-0.000097
 590	5.8605e+01	8.2711	84.426601	0.000669	6.688161	1.133005	-0.000134
 591	5.8705e+01	8.2517	84.345858	0.000405	4.053431	0.686670	-0.000081
 592	5.8804e+01	8.2311	84.224744	0.000608	6.080147	1.030005	-0.000122
 593	5.8904e+01	8.2122	84.152076	0.000365	3.648088	0.618003	-0.000073
 594	5.9004e+01	8.1908	84.006739	0.000730	7.296176	1.236006	-0.000146
 595	5.9103e+01	8.1719	83.930033	0.000385	3.850760	0.652336	-0.000077
 596	5.9203e+01	8.1512	83.841216	0.000446	4.458774	0.755337	-0.000089
 597	5.9302e+01	8.1316	83.724140	0.000588	5.877475	0.995671	-0.000118
 598	5.9401e+01	8.1121	83.627248	0.000486	4.864117	0.824004	-0.000097
 599	5.9501e+01	8.0907	83.498060	0.000649	6.485490	1.098672	-0.000130
 600	5.9600e+01	8.0718	83.389057	0.000547	5.472132	0.927004	-0.000110
 601	5.9700e+01	8.0523	83.296203	0.000466	4.661446	0.789670	-0.000093
 602	5.9800e+01	8.0312	83.187200	0.000547	5.472132	0.927004	-0.000110
 603	5.9899e+01	8.0114	83.078198	0.000547	5.472132	0.927004	-0.000110
 604	5.9998e+01	7.9925	82.969195	0.000547	5.472132	0.927004	-0.000110
 605	6.0098e+01	7.9723	82.872304	0.000486	4.864117	0.824004	-0.000097
 606	6.0197e+01	7.9522	82.751190	0.000608	6.080147	1.030005	-0.000122
 607	6.0297e+01	7.9317	82.646224	0.000527	5.269461	0.892671	-0.000105
 608	6.0397e+01	7.9125	82.553370	0.000466	4.661446	0.789670	-0.000093
 609	6.0496e+01	7.8924	82.432256	0.000608	6.080147	1.030005	-0.000122
 610	6.0596e+01	7.8728	82.363625	0.000345	3.445416	0.583669	-0.000069
 611	6.0695e+01	7.8515	82.230399	0.000669	6.688161	1.133005	-0.000134
 612	6.0794e+01	7.8332	82.149657	0.000405	4.053431	0.686670	-0.000081
 613	6.0894e+01	7.8124	82.040654	0.000547	5.472132	0.927004	-0.000110
 614	6.0993e+01	7.7935	81.947800	0.000466	4.661446	0.789670	-0.000093
 615	6.1093e+01	7.7734	81.814574	0.000669	6.688161	1.133005	-0.000134
 616	6.1193e+01	7.7518	81.721720	0.000466	4.661446	0.789670	-0.000093
 617	6.1292e+01	7.7337	81.596569	0.000628	6.282818	1.064338	-0.000126
 618	6.1392e+01	7.7129	81.519863	0.000385	3.850760	0.652336	-0.000077
 619	6.1491e+01	7.6928	81.390675	0.000649	6.485490	1.098672	-0.000130
 620	6.1590e+01	7.6723	81.318007	0.000365	3.648088	0.618003	-0.000073
 621	6.1690e+01	7.6536	81.180744	0.000689	6.890833	1.167339	-0.000138
 622	6.1789e+01	7.6336	81.087890	0.000466	4.661446	0.789670	-0.000093
 623	6.1889e+01	7.6134	80.970813	0.000588	5.877475	0.995671	-0.000118
 624	6.1989e+01	7.5933	80.886033	0.000426	4.256103	0.721003	-0.000085
 625	6.2088e+01	7.5732	80.781068	0.000527	5.269461	0.892671	-0.000105
 626	6.2188e+01	7.5530	80.696288	0.000426	4.256103	0.721003	-0.000085
 627	6.2287e+01	7.5341	80.559025	0.000689	6.890833	1.167339	-0.000138
 628	6.2386e+01	7.5137	80.445985	0.000567	5.674804	0.961338	-0.000114
 629	6.2486e+01	7.4950	80.332945	0.000567	5.674804	0.961338	-0.000114
 630	6.2586e+01	7.4737	80.232017	0.000507	5.066789	0.858337	-0.000101
 631	6.2685e+01	7.4541	80.147237	0.000426	4.256103	0.721003	-0.000085
 632	6.2785e+01	7.4346	80.030160	0.000588	5.877475	0.995671	-0.000118
 633	6.2884e+01	7.4145	79.913083	0.000588	5.877475	0.995671	-0.000118
 634	6.2983e+01	7.3937	79.800044	0.000567	5.674804	0.961338	-0.000114
 635	6.3083e+01	7.3736	79.654707	0.000730	7.296176	1.236006	-0.000146
 636	6.3182e+01	7.3547	79.606261	0.000243	2.432059	0.412002	-0.000049
 637	6.3282e+01	7.3354	79.485147	0.000608	6.080147	1.030005	-0.000122
 638	6.3382e+01	7.3144	79.384219	0.000507	5.066789	0.858337	-0.000101
 639	6.3481e+01	7.2955	79.242919	0.000709	7.093505	1.201672	-0.000142
 640	6.3581e+01	7.2747	79.162176	0.000405	4.053431	0.686670	-0.000081
 641	6.3680e+01	7.2546	79.057211	0.000527	5.269461	0.892671	-0.000105
 642	6.3779e+01	7.2344	78.923985	0.000669	6.688161	1.133005	-0.000134
 643	6.3879e+01	7.2149	78.843242	0.000405	4.053431	0.686670	-0.000081
 644	6.3978e+01	7.1947	78.742314	0.000507	5.066789	0.858337	-0.000101
 645	6.4078e+01	7.1752	78.609089	0.000669	6.688161	1.133005	-0.000134
 646	6.4177e+01	7.1551	78.516234	0.000466	4.661446	0.789670	-0.000093
 647	6.4277e+01	7.1349	78.395120	0.000608	6.080147	1.030005	-0.000122
 648	6.4376e+01	7.1157	78.298229	0.000486	4.864117	0.824004	-0.000097
 649	6.4476e+01	7.0953	78.185189	0.000567	5.674804	0.961338	-0.000114
 650	6.4576e+01	7.0763	78.072149	0.000567	5.674804	0.961338	-0.000114
 651	6.4675e+01	7.0562	77.942961	0.000649	6.485490	1.098672	-0.000130
 652	6.4775e+01	7.0361	77.874330	0.000345	3.445416	0.583669	-0.000069
 653	6.4874e+01	7.0162	77.741104	0.000669	6.688161	1.133005	-0.000134
 654	6.4974e+01	6.9964	77.672473	0.000345	3.445416	0.583669	-0.000069
 655	6.5073e+01	6.9747	77.527136	0.000730	7.296176	1.236006	-0.000146
 656	6.5172e+01	6.9561	77.442356	0.000426	4.256103	0.721003	-0.000085
 657	6.5272e+01	6.9360	77.288945	0.000770	7.701519	1.304673	-0.000154
 658	6.5371e+01	6.9161	77.163794	0.000628	6.282818	1.064338	-0.000126
 659	6.5471e+01	6.8960	77.091125	0.000365	3.648088	0.618003	-0.000073
 660	6.5570e+01	6.8755	76.982123	0.000547	5.472132	0.927004	-0.000110
 661	6.5670e+01	6.8572	76.877157	0.000527	5.269461	0.892671	-0.000105
 662	6.5769e+01	6.8359	76.723746	0.000770	7.701519	1.304673	-0.000154
 663	6.5869e+01	6.8168	76.638966	0.000426	4.256103	0.721003	-0.000085
 664	6.5969e+01	6.7968	76.525926	0.000567	5.674804	0.961338	-0.000114
 665	6.6068e+01	6.7767	76.449221	0.000385	3.850760	0.652336	-0.000077
 666	6.6168e+01	6.7571	76.279661	0.000851	8.512205	1.442007	-0.000170
 667	6.6267e+01	6.7370	76.190844	0.000446	4.458774	0.755337	-0.000089
 668	6.6367e+01	6.7162	76.089916	0.000507	5.066789	0.858337	-0.000101
 669	6.6466e+01	6.6967	75.940542	0.000750	7.498848	1.270339	-0.000150
 670	6.6566e+01	6.6769	75.827502	0.000567	5.674804	0.961338	-0.000114
 671	6.6665e+01	6.6570	75.742722	0.000426	4.256103	0.721003	-0.000085
 672	6.6764e+01	6.6369	75.613534	0.000649	6.485490	1.098672	-0.000130
 673	6.6864e+01	6.6167	75.484345	0.000649	6.485490	1.098672	-0.000130
 674	6.6963e+01	6.5971	75.423788	0.000304	3.040073	0.515002	-0.000061
 675	6.7063e+01	6.5777	75.306711	0.000588	5.877475	0.995671	-0.000118
 676	6.7162e+01	6.5575	75.197709	0.000547	5.472132	0.927004	-0.000110
 677	6.7262e+01	6.5386	75.100818	0.000486	4.864117	0.824004	-0.000097
 678	6.7362e+01	6.5179	74.999889	0.000507	5.066789	0.858337	-0.000101
 679	6.7461e+01	6.4977	74.874738	0.000628	6.282818	1.064338	-0.000126
 680	6.7561e+01	6.4782	74.757661	0.000588	5.877475	0.995671	-0.000118
 681	6.7660e+01	6.4574	74.672881	0.000426	4.256103	0.721003	-0.000085
 682	6.7760e+01	6.4373	74.515433	0.000790	7.904191	1.339006	-0.000158
 683	6.7859e+01	6.4165	74.378170	0.000689	6.890833	1.167339	-0.000138
 684	6.7959e+01	6.3985	74.289353	0.000446	4.458774	0.755337	-0.000089
 685	6.8058e+01	6.3784	74.184388	0.000527	5.269461	0.892671	-0.000105
 686	6.8157e+01	6.3586	74.087496	0.000486	4.864117	0.824004	-0.000097
 687	6.8257e+01	6.3378	73.946197	0.000709	7.093505	1.201672	-0.000142
 688	6.8356e+01	6.3183	73.841231	0.000527	5.269461	0.892671	-0.000105
 689	6.8456e+01	6.2978	73.732229	0.000547	5.472132	0.927004	-0.000110
 690	6.8555e+01	6.2786	73.635337	0.000486	4.864117	0.824004	-0.000097
 691	6.8655e+01	6.2579	73.518260	0.000588	5.877475	0.995671	-0.000118
 692	6.8754e+01	6.2386	73.380998	0.000689	6.890833	1.167339	-0.000138
 693	6.8854e+01	6.2194	73.271995	0.000547	5.472132	0.927004	-0.000110
 694	6.8954e+01	6.2002	73.162992	0.000547	5.472132	0.927004	-0.000110
 695	6.9053e+01	6.1791	73.033804	0.000649	6.485490	1.098672	-0.000130
 696	6.9153e+01	6.1599	72.920764	0.000567	5.674804	0.961338	-0.000114
 697	6.9252e+01	6.1395	72.767353	0.000770	7.701519	1.304673	-0.000154
 698	6.9352e+01	6.1205	72.662388	0.000527	5.269461	0.892671	-0.000105
 699	6.9451e+01	6.0998	72.577608	0.000426	4.256103	0.721003	-0.000085
 700	6.9550e+01	6.0802	72.420159	0.000790	7.904191	1.339006	-0.000158
 701	6.9650e+01	6.0598	72.315194	0.000527	5.269461	0.892671	-0.000105
 702	6.9749e+01	6.0403	72.202154	0.000567	5.674804	0.961338	-0.000114
 703	6.9849e+01	6.0195	72.064891	0.000689	6.890833	1.167339	-0.000138
 704	6.9948e+01	5.9991	71.947815	0.000588	5.877475	0.995671	-0.000118
 705	7.0048e+01	5.9795	71.834775	0.000567	5.674804	0.961338	-0.000114
 706	7.0147e+01	5.9594	71.713661	0.000608	6.080147	1.030005	-0.000122
 707	7.0247e+01	5.9399	71.592547	0.000608	6.080147	1.030005	-0.000122
 708	7.0347e+01	5.9203	71.459321	0.000669	6.688161	1.133005	-0.000134
 709	7.0446e+01	5.8996	71.334170	0.000628	6.282818	1.064338	-0.000126
 710	7.0546e+01	5.8788	71.221130	0.000567	5.674804	0.961338	-0.000114
 711	7.0645e+01	5.8608	71.095979	0.000628	6.282818	1.064338	-0.000126
 712	7.0745e+01	5.8404	70.978902	0.000588	5.877475	0.995671	-0.000118
 713	7.0844e+01	5.8195	70.833565	0.000730	7.296176	1.236006	-0.000146
 714	7.0944e+01	5.8007	70.704377	0.000649	6.485490	1.098672	-0.000130
 715	7.1043e+01	5.7812	70.595374	0.000547	5.472132	0.927004	-0.000110
 716	7.1142e+01	5.7601	70.478297	0.000588	5.877475	0.995671	-0.000118
 717	7.1242e+01	5.7403	70.357183	0.000608	6.080147	1.030005	-0.000122
 718	7.1341e+01	5.7206	70.207809	0.000750	7.498848	1.270339	-0.000150
 719	7.1441e+01	5.7009	70.106881	0.000507	5.066789	0.858337	-0.000101
 720	7.1540e+01	5.6811	69.993841	0.000567	5.674804	0.961338	-0.000114
 721	7.1640e+01	5.6615	69.856578	0.000689	6.890833	1.167339	-0.000138
 722	7.1740e+01	5.6408	69.691056	0.000831	8.309534	1.407673	-0.000166
 723	7.1839e+01	5.6207	69.614350	0.000385	3.850760	0.652336	-0.000077
 724	7.1939e+01	5.6011	69.456902	0.000790	7.904191	1.339006	-0.000158
 725	7.2038e+01	5.5808	69.319639	0.000689	6.890833	1.167339	-0.000138
 726	7.2138e+01	5.5619	69.194488	0.000628	6.282818	1.064338	-0.000126
 727	7.2237e+01	5.5419	69.057225	0.000689	6.890833	1.167339	-0.000138
 728	7.2337e+01	5.5218	68.944186	0.000567	5.674804	0.961338	-0.000114
 729	7.2436e+01	5.5010	68.814997	0.000649	6.485490	1.098672	-0.000130
 730	7.2535e+01	5.4815	68.710032	0.000527	5.269461	0.892671	-0.000105
 731	7.2635e+01	5.4620	68.556621	0.000770	7.701519	1.304673	-0.000154
 732	7.2734e+01	5.4424	68.419358	0.000689	6.890833	1.167339	-0.000138
 733	7.2834e+01	5.4217	68.298244	0.000608	6.080147	1.030005	-0.000122
 734	7.2933e+01	5.4018	68.181167	0.000588	5.877475	0.995671	-0.000118
 735	7.3033e+01	5.3820	68.056016	0.000628	6.282818	1.064338	-0.000126
 736	7.3132e+01	5.3619	67.930864	0.000628	6.282818	1.064338	-0.000126
 737	7.3232e+01	5.3429	67.809750	0.000608	6.080147	1.030005	-0.000122
 738	7.3332e+01	5.3231	67.644228	0.000831	8.309534	1.407673	-0.000166
 739	7.3431e+01	5.3027	67.494854	0.000750	7.498848	1.270339	-0.000150
 740	7.3531e+01	5.2819	67.397963	0.000486	4.864117	0.824004	-0.000097
 741	7.3630e+01	5.2621	67.236477	0.000811	8.106862	1.373340	-0.000162
 742	7.3730e+01	5.2422	67.147660	0.000446	4.458774	0.755337	-0.000089
 743	7.3829e+01	5.2221	67.006360	0.000709	7.093505	1.201672	-0.000142
 744	7.3928e+01	5.2029	66.877172	0.000649	6.485490	1.098672	-0.000130
 745	7.4028e+01	5.1824	66.747984	0.000649	6.485490	1.098672	-0.000130
 746	7.4127e+01	5.1621	66.622833	0.000628	6.282818	1.064338	-0.000126
 747	7.4227e+01	5.1431	66.457310	0.000831	8.309534	1.407673	-0.000166
 748	7.4326e+01	5.1225	66.360419	0.000486	4.864117	0.824004	-0.000097
 749	7.4426e+01	5.1028	66.211045	0.000750	7.498848	1.270339	-0.000150
 750	7.4525e+01	5.0829	66.065708	0.000730	7.296176	1.236006	-0.000146
 751	7.4625e+01	5.0628	65.940557	0.000628	6.282818	1.064338	-0.000126
 752	7.4725e+01	5.0445	65.823480	0.000588	5.877475	0.995671	-0.000118
 753	7.4824e+01	5.0231	65.682180	0.000709	7.093505	1.201672	-0.000142
 754	7.4924e+01	5.0028	65.548954	0.000669	6.688161	1.133005	-0.000134
 755	7.5023e+01	4.9833	65.435915	0.000567	5.674804	0.961338	-0.000114
 756	7.5123e+01	4.9632	65.262318	0.000871	8.714877	1.476340	-0.000174
 757	7.5222e+01	4.9441	65.133129	0.000649	6.485490	1.098672	-0.000130
 758	7.5322e+01	4.9242	65.007978	0.000628	6.282818	1.064338	-0.000126
 759	7.5421e+01	4.9038	64.862641	0.000730	7.296176	1.236006	-0.000146
 760	7.5520e+01	4.8840	64.709230	0.000770	7.701519	1.304673	-0.000154
 761	7.5620e+01	4.8643	64.584079	0.000628	6.282818	1.064338	-0.000126
 762	7.5719e+01	4.8447	64.454891	0.000649	6.485490	1.098672	-0.000130
 763	7.5819e+01	4.8251	64.317628	0.000689	6.890833	1.167339	-0.000138
 764	7.5918e+01	4.8034	64.135957	0.000912	9.120220	1.545007	-0.000183
 765	7.6018e+01	4.7845	64.022917	0.000567	5.674804	0.961338	-0.000114
 766	7.6118e+01	4.7646	63.853357	0.000851	8.512205	1.442007	-0.000170
 767	7.6217e+01	4.7439	63.720132	0.000669	6.688161	1.133005	-0.000134
 768	7.6317e+01	4.7247	63.619204	0.000507	5.066789	0.858337	-0.000101
 769	7.6416e+01	4.7045	63.441570	0.000892	8.917549	1.510674	-0.000179
 770	7.6516e+01	4.6844	63.300270	0.000709	7.093505	1.201672	-0.000142
 771	7.6615e+01	4.6642	63.142822	0.000790	7.904191	1.339006	-0.000158
 772	7.6715e+01	4.6453	63.058042	0.000426	4.256103	0.721003	-0.000085
 773	7.6814e+01	4.6258	62.892519	0.000831	8.309534	1.407673	-0.000166
 774	7.6913e+01	4.6041	62.718922	0.000871	8.714877	1.476340	-0.000174
 775	7.7013e+01	4.5849	62.609920	0.000547	5.472132	0.927004	-0.000110
 776	7.7112e+01	4.5654	62.456508	0.000770	7.701519	1.304673	-0.000154
 777	7.7212e+01	4.5446	62.323283	0.000669	6.688161	1.133005	-0.000134
 778	7.7311e+01	4.5249	62.177946	0.000730	7.296176	1.236006	-0.000146
 779	7.7411e+01	4.5058	62.052795	0.000628	6.282818	1.064338	-0.000126
 780	7.7510e+01	4.4852	61.915532	0.000689	6.890833	1.167339	-0.000138
 781	7.7610e+01	4.4653	61.770195	0.000730	7.296176	1.236006	-0.000146
 782	7.7710e+01	4.4451	61.645044	0.000628	6.282818	1.064338	-0.000126
 783	7.7809e+01	4.4259	61.527967	0.000588	5.877475	0.995671	-0.000118
 784	7.7909e+01	4.4061	61.350333	0.000892	8.917549	1.510674	-0.000179
 785	7.8008e+01	4.3853	61.229219	0.000608	6.080147	1.030005	-0.000122
 786	7.8108e+01	4.3658	61.079845	0.000750	7.498848	1.270339	-0.000150
 787	7.8207e+01	4.3462	60.946620	0.000669	6.688161	1.133005	-0.000134
 788	7.8306e+01	4.3251	60.768986	0.000892	8.917549	1.510674	-0.000179
 789	7.8406e+01	4.3070	60.623649	0.000730	7.296176	1.236006	-0.000146
 790	7.8505e+01	4.2867	60.482349	0.000709	7.093505	1.201672	-0.000142
 791	7.8605e+01	4.2657	60.341049	0.000709	7.093505	1.201672	-0.000142
 792	7.8704e+01	4.2461	60.232047	0.000547	5.472132	0.927004	-0.000110
 793	7.8804e+01	4.2260	60.114970	0.000588	5.877475	0.995671	-0.000118
 794	7.8903e+01	4.2071	59.929261	0.000932	9.322892	1.579341	-0.000187
 795	7.9003e+01	4.1863	59.820259	0.000547	5.472132	0.927004	-0.000110
 796	7.9103e+01	4.1668	59.618402	0.001013	10.133578	1.716675	-0.000203
 797	7.9202e+01	4.1473	59.533622	0.000426	4.256103	0.721003	-0.000085
 798	7.9302e+01	4.1261	59.384248	0.000750	7.498848	1.270339	-0.000150
 799	7.9401e+01	4.1058	59.263134	0.000608	6.080147	1.030005	-0.000122
 800	7.9501e+01	4.0862	59.109723	0.000770	7.701519	1.304673	-0.000154
 801	7.9600e+01	4.0667	58.980535	0.000649	6.485490	1.098672	-0.000130
 802	7.9700e+01	4.0465	58.798863	0.000912	9.120220	1.545007	-0.000183
 803	7.9799e+01	4.0264	58.649489	0.000750	7.498848	1.270339	-0.000150
 804	7.9898e+01	4.0065	58.528375	0.000608	6.080147	1.030005	-0.000122
 805	7.9998e+01	3.9874	58.366890	0.000811	8.106862	1.373340	-0.000162
 806	8.0097e+01	3.9671	58.233664	0.000669	6.688161	1.133005	-0.000134
 807	8.0197e+01	3.9474	58.096402	0.000689	6.890833	1.167339	-0.000138
 808	8.0296e+01	3.9268	57.951065	0.000730	7.296176	1.236006	-0.000146
 809	8.0396e+01	3.9074	57.765357	0.000932	9.322892	1.579341	-0.000187
 810	8.0496e+01	3.8866	57.656354	0.000547	5.472132	0.927004	-0.000110
 811	8.0595e+01	3.8679	57.523129	0.000669	6.688161	1.133005	-0.000134
 812	8.0695e+01	3.8481	57.361643	0.000811	8.106862	1.373340	-0.000162
 813	8.0794e+01	3.8276	57.212269	0.000750	7.498848	1.270339	-0.000150
 814	8.0894e+01	3.8073	57.066932	0.000730	7.296176	1.236006	-0.000146
 815	8.0993e+01	3.7875	56.949855	0.000588	5.877475	0.995671	-0.000118
 816	8.1093e+01	3.7679	56.804518	0.000730	7.296176	1.236006	-0.000146
 817	8.1192e+01	3.7481	56.614773	0.000953	9.525563	1.613674	-0.000191
 818	8.1291e+01	3.7273	56.501733	0.000567	5.674804	0.961338	-0.000114
 819	8.1391e+01	3.7081	56.352359	0.000750	7.498848	1.270339	-0.000150
 820	8.1490e+01	3.6886	56.227208	0.000628	6.282818	1.064338	-0.000126
 821	8.1590e+01	3.6684	56.061685	0.000831	8.309534	1.407673	-0.000166
 822	8.1689e+01	3.6485	55.920386	0.000709	7.093505	1.201672	-0.000142
 823	8.1789e+01	3.6294	55.758900	0.000811	8.106862	1.373340	-0.000162
 824	8.1888e+01	3.6077	55.617600	0.000709	7.093505	1.201672	-0.000142
 825	8.1988e+01	3.5882	55.448041	0.000851	8.512205	1.442007	-0.000170
 826	8.2088e+01	3.5677	55.326927	0.000608	6.080147	1.030005	-0.000122
 827	8.2187e+01	3.5485	55.173516	0.000770	7.701519	1.304673	-0.000154
 828	8.2287e+01	3.5297	55.044327	0.000649	6.485490	1.098672	-0.000130
 829	8.2386e+01	3.5094	54.894953	0.000750	7.498848	1.270339	-0.000150
 830	8.2486e+01	3.4890	54.753653	0.000709	7.093505	1.201672	-0.000142
 831	8.2585e+01	3.4686	54.584094	0.000851	8.512205	1.442007	-0.000170
 832	8.2684e+01	3.4493	54.434720	0.000750	7.498848	1.270339	-0.000150
 833	8.2784e+01	3.4288	54.293420	0.000709	7.093505	1.201672	-0.000142
 834	8.2883e+01	3.4093	54.135972	0.000790	7.904191	1.339006	-0.000158
 835	8.2983e+01	3.3891	53.994672	0.000709	7.093505	1.201672	-0.000142
 836	8.3082e+01	3.3701	53.825112	0.000851	8.512205	1.442007	-0.000170
 837	8.3182e+01	3.3492	53.675738	0.000750	7.498848	1.270339	-0.000150
 838	8.3281e+01	3.3295	53.514253	0.000811	8.106862	1.373340	-0.000162
 839	8.3381e+01	3.3099	53.393139	0.000608	6.080147	1.030005	-0.000122
 840	8.3481e+01	3.2897	53.247802	0.000730	7.296176	1.236006	-0.000146
 841	8.3580e+01	3.2690	53.070168	0.000892	8.917549	1.510674	-0.000179
 842	8.3680e+01	3.2500	52.924831	0.000730	7.296176	1.236006	-0.000146
 843	8.3779e+01	3.2287	52.815828	0.000547	5.472132	0.927004	-0.000110
 844	8.3879e+01	3.2098	52.642231	0.000871	8.714877	1.476340	-0.000174
 845	8.3978e+01	3.1902	52.517080	0.000628	6.282818	1.064338	-0.000126
 846	8.4078e+01	3.1705	52.359632	0.000790	7.904191	1.339006	-0.000158
 847	8.4177e+01	3.1511	52.202184	0.000790	7.904191	1.339006	-0.000158
 848	8.4276e+01	3.1301	52.068958	0.000669	6.688161	1.133005	-0.000134
 849	8.4376e+01	3.1104	51.879213	0.000953	9.525563	1.613674	-0.000191
 850	8.4475e+01	3.0903	51.766173	0.000567	5.674804	0.961338	-0.000114
 851	8.4575e+01	3.0704	51.612762	0.000770	7.701519	1.304673	-0.000154
 852	8.4674e+01	3.0499	51.459351	0.000770	7.701519	1.304673	-0.000154
 853	8.4774e+01	3.0298	51.297865	0.000811	8.106862	1.373340	-0.000162
 854	8.4874e+01	3.0105	51.140417	0.000790	7.904191	1.339006	-0.000158
 855	8.4973e+01	2.9891	50.999117	0.000709	7.093505	1.201672	-0.000142
 856	8.5073e+01	2.9705	50.853780	0.000730	7.296176	1.236006	-0.000146
 857	8.5172e+01	2.9513	50.696332	0.000790	7.904191	1.339006	-0.000158
 858	8.5272e+01	2.9302	50.575218	0.000608	6.080147	1.030005	-0.000122
 859	8.5371e+01	2.9107	50.385473	0.000953	9.525563	1.613674	-0.000191
 860	8.5471e+01	2.8904	50.219950	0.000831	8.309534	1.407673	-0.000166
 861	8.5570e+01	2.8704	50.086725	0.000669	6.688161	1.133005	-0.000134
 862	8.5669e+01	2.8515	49.949462	0.000689	6.890833	1.167339	-0.000138
 863	8.5769e+01	2.8313	49.775865	0.000871	8.714877	1.476340	-0.000174
 864	8.5868e+01	2.8112	49.606305	0.000851	8.512205	1.442007	-0.000170
 865	8.5968e+01	2.7910	49.452894	0.000770	7.701519	1.304673	-0.000154
 866	8.6067e+01	2.7709	49.291409	0.000811	8.106862	1.373340	-0.000162
 867	8.6167e+01	2.7511	49.133960	0.000790	7.904191	1.339006	-0.000158
 868	8.6266e+01	2.7320	48.996698	0.000689	6.890833	1.167339	-0.000138
 869	8.6366e+01	2.7123	48.843287	0.000770	7.701519	1.304673	-0.000154
 870	8.6466e+01	2.6916	48.665653	0.000892	8.917549	1.510674	-0.000179
 871	8.6565e+01	2.6719	48.520316	0.000730	7.296176	1.236006	-0.000146
 872	8.6665e+01	2.6513	48.326533	0.000973	9.728235	1.648008	-0.000195
 873	8.6764e+01	2.6328	48.189271	0.000689	6.890833	1.167339	-0.000138
 874	8.6864e+01	2.6118	48.031822	0.000790	7.904191	1.339006	-0.000158
 875	8.6963e+01	2.5915	47.838040	0.000973	9.728235	1.648008	-0.000195
 876	8.7063e+01	2.5721	47.704814	0.000669	6.688161	1.133005	-0.000134
 877	8.7162e+01	2.5515	47.515069	0.000953	9.525563	1.613674	-0.000191
 878	8.7261e+01	2.5311	47.381844	0.000669	6.688161	1.133005	-0.000134
 879	8.7361e+01	2.5121	47.212284	0.000851	8.512205	1.442007	-0.000170
 880	8.7460e+01	2.4926	47.030613	0.000912	9.120220	1.545007	-0.000183
 881	8.7560e+01	2.4724	46.881239	0.000750	7.498848	1.270339	-0.000150
 882	8.7659e+01	2.4520	46.739939	0.000709	7.093505	1.201672	-0.000142
 883	8.7759e+01	2.4326	46.558268	0.000912	9.120220	1.545007	-0.000183
 884	8.7859e+01	2.4133	46.388708	0.000851	8.512205	1.442007	-0.000170
 885	8.7958e+01	2.3913	46.223186	0.000831	8.309534	1.407673	-0.000166
 886	8.8058e+01	2.3727	46.102072	0.000608	6.080147	1.030005	-0.000122
 887	8.8157e+01	2.3534	45.940586	0.000811	8.106862	1.373340	-0.000162
 888	8.8257e+01	2.3327	45.762952	0.000892	8.917549	1.510674	-0.000179
 889	8.8356e+01	2.3122	45.565133	0.000993	9.930906	1.682341	-0.000199
 890	8.8456e+01	2.2929	45.411721	0.000770	7.701519	1.304673	-0.000154
 891	8.8555e+01	2.2727	45.226013	0.000932	9.322892	1.579341	-0.000187
 892	8.8654e+01	2.2536	45.064528	0.000811	8.106862	1.373340	-0.000162
 893	8.8754e+01	2.2332	44.915154	0.000750	7.498848	1.270339	-0.000150
 894	8.8853e+01	2.2124	44.733483	0.000912	9.120220	1.545007	-0.000183
 895	8.8953e+01	2.1925	44.604294	0.000649	6.485490	1.098672	-0.000130
 896	8.9052e+01	2.1740	44.406475	0.000993	9.930906	1.682341	-0.000199
 897	8.9152e+01	2.1542	44.236915	0.000851	8.512205	1.442007	-0.000170
 898	8.9251e+01	2.1337	44.039095	0.000993	9.930906	1.682341	-0.000199
 899	8.9351e+01	2.1133	43.897795	0.000709	7.093505	1.201672	-0.000142
 900	8.9451e+01	2.0925	43.724199	0.000871	8.714877	1.476340	-0.000174
 901	8.9550e+01	2.0728	43.550602	0.000871	8.714877	1.476340	-0.000174
 902	8.9650e+01	2.0546	43.413339	0.000689	6.890833	1.167339	-0.000138
 903	8.9749e+01	2.0345	43.227631	0.000932	9.322892	1.579341	-0.000187
 904	8.9849e+01	2.0139	43.054034	0.000871	8.714877	1.476340	-0.000174
 905	8.9948e+01	1.9936	42.904660	0.000750	7.498848	1.270339	-0.000150
 906	9.0047e+01	1.9744	42.751249	0.000770	7.701519	1.304673	-0.000154
 907	9.0147e+01	1.9543	42.553429	0.000993	9.930906	1.682341	-0.000199
 908	9.0246e+01	1.9338	42.343498	0.001054	10.538921	1.785342	-0.000211
 909	9.0346e+01	1.9138	42.222384	0.000608	6.080147	1.030005	-0.000122
 910	9.0445e+01	1.8942	42.056862	0.000831	8.309534	1.407673	-0.000166
 911	9.0545e+01	1.8752	41.867116	0.000953	9.525563	1.613674	-0.000191
 912	9.0644e+01	1.8546	41.709668	0.000790	7.904191	1.339006	-0.000158
 913	9.0744e+01	1.8349	41.556257	0.000770	7.701519	1.304673	-0.000154
 914	9.0844e+01	1.8143	41.366511	0.000953	9.525563	1.613674	-0.000191
 915	9.0943e+01	1.7953	41.176766	0.000953	9.525563	1.613674	-0.000191
 916	9.1043e+01	1.7744	41.047578	0.000649	6.485490	1.098672	-0.000130
 917	9.1142e+01	1.7542	40.829572	0.001094	10.944264	1.854009	-0.000219
 918	9.1242e+01	1.7344	40.680198	0.000750	7.498848	1.270339	-0.000150
 919	9.1341e+01	1.7146	40.514676	0.000831	8.309534	1.407673	-0.000166
 920	9.1441e+01	1.6946	40.349153	0.000831	8.309534	1.407673	-0.000166
 921	9.1540e+01	1.6751	40.151333	0.000993	9.930906	1.682341	-0.000199
 922	9.1639e+01	1.6561	39.981774	0.000851	8.512205	1.442007	-0.000170
 923	9.1739e+01	1.6348	39.808177	0.000871	8.714877	1.476340	-0.000174
 924	9.1838e+01	1.6140	39.638617	0.000851	8.512205	1.442007	-0.000170
 925	9.1938e+01	1.5951	39.444835	0.000973	9.728235	1.648008	-0.000195
 926	9.2037e+01	1.5752	39.291424	0.000770	7.701519	1.304673	-0.000154
 927	9.2137e+01	1.5553	39.117827	0.000871	8.714877	1.476340	-0.000174
 928	9.2237e+01	1.5350	38.920007	0.000993	9.930906	1.682341	-0.000199
 929	9.2336e+01	1.5154	38.722187	0.000993	9.930906	1.682341	-0.000199
 930	9.2436e+01	1.4950	38.592999	0.000649	6.485490	1.098672	-0.000130
 931	9.2535e+01	1.4747	38.366919	0.001135	11.349607	1.922676	-0.000227
 932	9.2635e+01	1.4565	38.201397	0.000831	8.309534	1.407673	-0.000166
 933	9.2734e+01	1.4364	38.023763	0.000892	8.917549	1.510674	-0.000179
 934	9.2834e+01	1.4157	37.838055	0.000932	9.322892	1.579341	-0.000187
 935	9.2933e+01	1.3958	37.672532	0.000831	8.309534	1.407673	-0.000166
 936	9.3032e+01	1.3757	37.482787	0.000953	9.525563	1.613674	-0.000191
 937	9.3132e+01	1.3564	37.317264	0.000831	8.309534	1.407673	-0.000166
 938	9.3231e+01	1.3358	37.151742	0.000831	8.309534	1.407673	-0.000166
 939	9.3331e+01	1.3161	36.949885	0.001013	10.133578	1.716675	-0.000203
 940	9.3430e+01	1.2959	36.752065	0.000993	9.930906	1.682341	-0.000199
 941	9.3530e+01	1.2762	36.590580	0.000811	8.106862	1.373340	-0.000162
 942	9.3629e+01	1.2573	36.433131	0.000790	7.904191	1.339006	-0.000158
 943	9.3729e+01	1.2371	36.247423	0.000932	9.322892	1.579341	-0.000187
 944	9.3829e+01	1.2173	36.065752	0.000912	9.120220	1.545007	-0.000183
 945	9.3928e+01	1.1964	35.892155	0.000871	8.714877	1.476340	-0.000174
 946	9.4028e+01	1.1770	35.686261	0.001034	10.336249	1.751008	-0.000207
 947	9.4127e+01	1.1578	35.512665	0.000871	8.714877	1.476340	-0.000174
 948	9.4227e+01	1.1379	35.383476	0.000649	6.485490	1.098672	-0.000130
 949	9.4326e+01	1.1174	35.169508	0.001074	10.741593	1.819675	-0.000215
 950	9.4425e+01	1.0972	35.020134	0.000750	7.498848	1.270339	-0.000150
 951	9.4525e+01	1.0777	34.830389	0.000953	9.525563	1.613674	-0.000191
 952	9.4624e+01	1.0581	34.644680	0.000932	9.322892	1.579341	-0.000187
 953	9.4724e+01	1.0369	34.450898	0.000973	9.728235	1.648008	-0.000195
 954	9.4823e+01	1.0180	34.293450	0.000790	7.904191	1.339006	-0.000158
 955	9.4923e+01	0.9980	34.144076	0.000750	7.498848	1.270339	-0.000150
 956	9.5022e+01	0.9788	33.958367	0.000932	9.322892	1.579341	-0.000187
 957	9.5122e+01	0.9577	33.764585	0.000973	9.728235	1.648008	-0.000195
 958	9.5222e+01	0.9382	33.578877	0.000932	9.322892	1.579341	-0.000187
 959	9.5321e+01	0.9195	33.401243	0.000892	8.917549	1.510674	-0.000179
 960	9.5421e+01	0.8983	33.219571	0.000912	9.120220	1.545007	-0.000183
 961	9.5520e+01	0.8784	33.033863	0.000932	9.322892	1.579341	-0.000187
 962	9.5620e+01	0.8585	32.860266	0.000871	8.714877	1.476340	-0.000174
 963	9.5719e+01	0.8385	32.686670	0.000871	8.714877	1.476340	-0.000174
 964	9.5819e+01	0.8179	32.476738	0.001054	10.538921	1.785342	-0.000211
 965	9.5918e+01	0.7983	32.299104	0.000892	8.917549	1.510674	-0.000179
 966	9.6017e+01	0.7783	32.161842	0.000689	6.890833	1.167339	-0.000138
 967	9.6117e+01	0.7577	31.939799	0.001115	11.146936	1.888342	-0.000223
 968	9.6216e+01	0.7392	31.798500	0.000709	7.093505	1.201672	-0.000142
 969	9.6316e+01	0.7188	31.608754	0.000953	9.525563	1.613674	-0.000191
 970	9.6415e+01	0.6993	31.435157	0.000871	8.714877	1.476340	-0.000174
 971	9.6515e+01	0.6791	31.209078	0.001135	11.349607	1.922676	-0.000227
 972	9.6615e+01	0.6586	31.039518	0.000851	8.512205	1.442007	-0.000170
 973	9.6714e+01	0.6390	30.878033	0.000811	8.106862	1.373340	-0.000162
 974	9.6814e+01	0.6188	30.696362	0.000912	9.120220	1.545007	-0.000183
 975	9.6913e+01	0.5988	30.502579	0.000973	9.728235	1.648008	-0.000195
 976	9.7013e+01	0.5790	30.316871	0.000932	9.322892	1.579341	-0.000187
 977	9.7112e+01	0.5587	30.171534	0.000730	7.296176	1.236006	-0.000146
 978	9.7212e+01	0.5399	29.981789	0.000953	9.525563	1.613674	-0.000191
 979	9.7311e+01	0.5189	29.808192	0.000871	8.714877	1.476340	-0.000174
 980	9.7410e+01	0.4997	29.634595	0.000871	8.714877	1.476340	-0.000174
 981	9.7510e+01	0.4795	29.432738	0.001013	10.133578	1.716675	-0.000203
 982	9.7609e+01	0.4600	29.247030	0.000932	9.322892	1.579341	-0.000187
 983	9.7709e+01	0.4387	29.053247	0.000973	9.728235	1.648008	-0.000195
 984	9.7808e+01	0.4205	28.883688	0.000851	8.512205	1.442007	-0.000170
 985	9.7908e+01	0.4008	28.702017	0.000912	9.120220	1.545007	-0.000183
 986	9.8007e+01	0.3796	28.516308	0.000932	9.322892	1.579341	-0.000187
 987	9.8107e+01	0.3588	28.326563	0.000953	9.525563	1.613674	-0.000191
 988	9.8207e+01	0.3397	28.173152	0.000770	7.701519	1.304673	-0.000154
 989	9.8306e+01	0.3198	27.963221	0.001054	10.538921	1.785342	-0.000211
 990	9.8406e+01	0.2997	27.797698	0.000831	8.309534	1.407673	-0.000166
 991	9.8505e+01	0.2795	27.579693	0.001094	10.944264	1.854009	-0.000219
 992	9.8605e+01	0.2594	27.478764	0.000507	5.066789	0.858337	-0.000101
 993	9.8704e+01	0.2386	27.276908	0.001013	10.133578	1.716675	-0.000203
 994	9.8803e+01	0.2197	27.062939	0.001074	10.741593	1.819675	-0.000215
 995	9.8903e+01	0.2011	26.869157	0.000973	9.728235	1.648008	-0.000195
 996	9.9002e+01	0.1798	26.715746	0.000770	7.701519	1.304673	-0.000154
 997	9.9102e+01	0.1604	26.509852	0.001034	10.336249	1.751008	-0.000207
 998	9.9201e+01	0.1400	26.344329	0.000831	8.309534	1.407673	-0.000166
 999	9.9301e+01	0.1205	26.174770	0.000851	8.512205	1.442007	-0.000170
1000	9.9400e+01	0.1003	25.940616	0.001175	11.754950	1.991343	-0.000235
1001	9.9500e+01	0.0809	25.803353	0.000689	6.890833	1.167339	-0.000138
1002	9.9600e+01	0.0605	25.613608	0.000953	9.525563	1.613674	-0.000191
1003	9.9699e+01	0.0417	25.411751	0.001013	10.133578	1.716675	-0.000203
1004	9.9799e+01	0.0203	25.222006	0.000953	9.525563	1.613674	-0.000191
1005	9.9898e+01	0.0014	25.076669	0.000730	7.296176	1.236006	-0.000146
1006	9.9998e+01	-0.0177	24.870775	0.001034	10.336249	1.751008	-0.000207
1007	1.0010e+02	-0.0367	24.672955	0.000993	9.930906	1.682341	-0.000199
1008	1.0020e+02	-0.0565	24.535692	0.000689	6.890833	1.167339	-0.000138
1009	1.0030e+02	-0.0772	24.321724	0.001074	10.741593	1.819675	-0.000215
1010	1.0040e+02	-0.0974	24.148127	0.000871	8.714877	1.476340	-0.000174
1011	1.0050e+02	-0.1177	23.970493	0.000892	8.917549	1.510674	-0.000179
1012	1.0059e+02	-0.1372	23.796897	0.000871	8.714877	1.476340	-0.000174
1013	1.0069e+02	-0.1555	23.627337	0.000851	8.512205	1.442007	-0.000170
1014	1.0079e+02	-0.1763	23.421443	0.001034	10.336249	1.751008	-0.000207
1015	1.0089e+02	-0.1969	23.235735	0.000932	9.322892	1.579341	-0.000187
1016	1.0099e+02	-0.2164	23.090398	0.000730	7.296176	1.236006	-0.000146
1017	1.0109e+02	-0.2365	22.884504	0.001034	10.336249	1.751008	-0.000207
1018	1.0119e+02	-0.2562	22.702833	0.000912	9.120220	1.545007	-0.000183
1019	1.0129e+02	-0.2760	22.521162	0.000912	9.120220	1.545007	-0.000183
1020	1.0139e+02	-0.2968	22.327379	0.000973	9.728235	1.648008	-0.000195
1021	1.0149e+02	-0.3163	22.149745	0.000892	8.917549	1.510674	-0.000179
1022	1.0159e+02	-0.3355	21.943851	0.001034	10.336249	1.751008	-0.000207
1023	1.0169e+02	-0.3537	21.774292	0.000851	8.512205	1.442007	-0.000170
1024	1.0179e+02	-0.3760	21.612806	0.000811	8.106862	1.373340	-0.000162
1025	1.0189e+02	-0.3963	21.427098	0.000932	9.322892	1.579341	-0.000187
1026	1.0199e+02	-0.4160	21.209093	0.001094	10.944264	1.854009	-0.000219
1027	1.0209e+02	-0.4364	21.063756	0.000730	7.296176	1.236006	-0.000146
1028	1.0219e+02	-0.4549	20.849788	0.001074	10.741593	1.819675	-0.000215
1029	1.0229e+02	-0.4760	20.676191	0.000871	8.714877	1.476340	-0.000174
1030	1.0239e+02	-0.4953	20.466260	0.001054	10.538921	1.785342	-0.000211
1031	1.0248e+02	-0.5151	20.312848	0.000770	7.701519	1.304673	-0.000154
1032	1.0258e+02	-0.5357	20.094843	0.001094	10.944264	1.854009	-0.000219
1033	1.0268e+02	-0.5552	19.949506	0.000730	7.296176	1.236006	-0.000146
1034	1.0278e+02	-0.5758	19.715352	0.001175	11.754950	1.991343	-0.000235
1035	1.0288e+02	-0.5949	19.509458	0.001034	10.336249	1.751008	-0.000207
1036	1.0298e+02	-0.6152	19.376233	0.000669	6.688161	1.133005	-0.000134
1037	1.0308e+02	-0.6358	19.129968	0.001236	12.362965	2.094343	-0.000248
1038	1.0318e+02	-0.6543	18.968482	0.000811	8.106862	1.373340	-0.000162
1039	1.0328e+02	-0.6760	18.758551	0.001054	10.538921	1.785342	-0.000211
1040	1.0338e+02	-0.6952	18.580917	0.000892	8.917549	1.510674	-0.000179
1041	1.0348e+02	-0.7156	18.399246	0.000912	9.120220	1.545007	-0.000183
1042	1.0358e+02	-0.7348	18.181241	0.001094	10.944264	1.854009	-0.000219
1043	1.0368e+02	-0.7552	18.003607	0.000892	8.917549	1.510674	-0.000179
1044	1.0378e+02	-0.7757	17.805787	0.000993	9.930906	1.682341	-0.000199
1045	1.0388e+02	-0.7941	17.616042	0.000953	9.525563	1.613674	-0.000191
1046	1.0398e+02	-0.8154	17.450519	0.000831	8.309534	1.407673	-0.000166
1047	1.0408e+02	-0.8348	17.264811	0.000932	9.322892	1.579341	-0.000187
1048	1.0418e+02	-0.8546	17.046806	0.001094	10.944264	1.854009	-0.000219
1049	1.0428e+02	-0.8743	16.885320	0.000811	8.106862	1.373340	-0.000162
1050	1.0438e+02	-0.8938	16.695575	0.000953	9.525563	1.613674	-0.000191
1051	1.0447e+02	-0.9143	16.485644	0.001054	10.538921	1.785342	-0.000211
1052	1.0457e+02	-0.9348	16.287824	0.000993	9.930906	1.682341	-0.000199
1053	1.0467e+02	-0.9541	16.110190	0.000892	8.917549	1.510674	-0.000179
1054	1.0477e+02	-0.9737	15.900259	0.001054	10.538921	1.785342	-0.000211
1055	1.0487e+02	-0.9943	15.706477	0.000973	9.728235	1.648008	-0.000195
1056	1.0497e+02	-1.0141	15.540954	0.000831	8.309534	1.407673	-0.000166
1057	1.0507e+02	-1.0345	15.339097	0.001013	10.133578	1.716675	-0.000203
1058	1.0517e+02	-1.0542	15.153389	0.000932	9.322892	1.579341	-0.000187
1059	1.0527e+02	-1.0745	14.959606	0.000973	9.728235	1.648008	-0.000195
1060	1.0537e+02	-1.0941	14.749675	0.001054	10.538921	1.785342	-0.000211
1061	1.0547e+02	-1.1137	14.612413	0.000689	6.890833	1.167339	-0.000138
1062	1.0557e+02	-1.1340	14.362110	0.001257	12.565637	2.128676	-0.000252
1063	1.0567e+02	-1.1541	14.184476	0.000892	8.917549	1.510674	-0.000179
1064	1.0577e+02	-1.1729	13.962434	0.001115	11.146936	1.888342	-0.000223
1065	1.0587e+02	-1.1937	13.780763	0.000912	9.120220	1.545007	-0.000183
1066	1.0597e+02	-1.2132	13.586980	0.000973	9.728235	1.648008	-0.000195
1067	1.0607e+02	-1.2335	13.397235	0.000953	9.525563	1.613674	-0.000191
1068	1.0617e+02	-1.2533	13.227675	0.000851	8.512205	1.442007	-0.000170
1069	1.0627e+02	-1.2729	13.013707	0.001074	10.741593	1.819675	-0.000215
1070	1.0637e+02	-1.2929	12.832036	0.000912	9.120220	1.545007	-0.000183
1071	1.0647e+02	-1.3121	12.630179	0.001013	10.133578	1.716675	-0.000203
1072	1.0656e+02	-1.3324	12.460619	0.000851	8.512205	1.442007	-0.000170
1073	1.0666e+02	-1.3525	12.242614	0.001094	10.944264	1.854009	-0.000219
1074	1.0676e+02	-1.3718	12.032683	0.001054	10.538921	1.785342	-0.000211
1075	1.0686e+02	-1.3922	11.842938	0.000953	9.525563	1.613674	-0.000191
1076	1.0696e+02	-1.4126	11.661267	0.000912	9.120220	1.545007	-0.000183
1077	1.0706e+02	-1.4330	11.511893	0.000750	7.498848	1.270339	-0.000150
1078	1.0716e+02	-1.4528	11.261590	0.001257	12.565637	2.128676	-0.000252
1079	1.0726e+02	-1.4716	11.079919	0.000912	9.120220	1.545007	-0.000183
1080	1.0736e+02	-1.4911	10.902285	0.000892	8.917549	1.510674	-0.000179
1081	1.0746e+02	-1.5125	10.651983	0.001257	12.565637	2.128676	-0.000252
1082	1.0756e+02	-1.5327	10.486460	0.000831	8.309534	1.407673	-0.000166
1083	1.0766e+02	-1.5519	10.320938	0.000831	8.309534	1.407673	-0.000166
1084	1.0776e+02	-1.5717	10.102932	0.001094	10.944264	1.854009	-0.000219
1085	1.0786e+02	-1.5909	9.941447	0.000811	8.106862	1.373340	-0.000162
1086	1.0796e+02	-1.6118	9.763813	0.000892	8.917549	1.510674	-0.000179
1087	1.0806e+02	-1.6315	9.525622	0.001196	11.957622	2.025676	-0.000239
1088	1.0816e+02	-1.6514	9.335876	0.000953	9.525563	1.613674	-0.000191
1089	1.0826e+02	-1.6718	9.142094	0.000973	9.728235	1.648008	-0.000195
1090	1.0836e+02	-1.6919	8.980608	0.000811	8.106862	1.373340	-0.000162
1091	1.0845e+02	-1.7108	8.762603	0.001094	10.944264	1.854009	-0.000219
1092	1.0855e+02	-1.7309	8.556709	0.001034	10.336249	1.751008	-0.000207
1093	1.0865e+02	-1.7514	8.383112	0.000871	8.714877	1.476340	-0.000174
1094	1.0875e+02	-1.7711	8.201441	0.000912	9.120220	1.545007	-0.000183
1095	1.0885e+02	-1.7914	7.959213	0.001216	12.160294	2.060009	-0.000243
1096	1.0895e+02	-1.8108	7.805802	0.000770	7.701519	1.304673	-0.000154
1097	1.0905e+02	-1.8310	7.599908	0.001034	10.336249	1.751008	-0.000207
1098	1.0915e+02	-1.8506	7.406126	0.000973	9.728235	1.648008	-0.000195
1099	1.0925e+02	-1.8726	7.171972	0.001175	11.754950	1.991343	-0.000235
1100	1.0935e+02	-1.8903	7.006449	0.000831	8.309534	1.407673	-0.000166
1101	1.0945e+02	-1.9113	6.828815	0.000892	8.917549	1.510674	-0.000179
1102	1.0955e+02	-1.9307	6.594661	0.001175	11.754950	1.991343	-0.000235
1103	1.0965e+02	-1.9510	6.396842	0.000993	9.930906	1.682341	-0.000199
1104	1.0975e+02	-1.9708	6.166725	0.001155	11.552279	1.957009	-0.000231
1105	1.0985e+02	-1.9907	6.053685	0.000567	5.674804	0.961338	-0.000114
1106	1.0995e+02	-2.0097	5.795308	0.001297	12.970980	2.197343	-0.000260
1107	1.1005e+02	-2.0306	5.625749	0.000851	8.512205	1.442007	-0.000170
1108	1.1015e+02	-2.0506	5.452152	0.000871	8.714877	1.476340	-0.000174
1109	1.1025e+02	-2.0706	5.254332	0.000993	9.930906	1.682341	-0.000199
1110	1.1035e+02	-2.0902	5.060550	0.000973	9.728235	1.648008	-0.000195
1111	1.1044e+02	-2.1106	4.866767	0.000973	9.728235	1.648008	-0.000195
1112	1.1054e+02	-2.1300	4.693170	0.000871	8.714877	1.476340	-0.000174
1113	1.1064e+02	-2.1502	4.495351	0.000993	9.930906	1.682341	-0.000199
1114	1.1074e+02	-2.1704	4.281382	0.001074	10.741593	1.819675	-0.000215
1115	1.1084e+02	-2.1893	4.071451	0.001054	10.538921	1.785342	-0.000211
1116	1.1094e+02	-2.2106	3.909966	0.000811	8.106862	1.373340	-0.000162
1117	1.1104e+02	-2.2293	3.748481	0.000811	8.106862	1.373340	-0.000162
1118	1.1114e+02	-2.2501	3.538549	0.001054	10.538921	1.785342	-0.000211
1119	1.1124e+02	-2.2688	3.316507	0.001115	11.146936	1.888342	-0.000223
1120	1.1134e+02	-2.2894	3.130799	0.000932	9.322892	1.579341	-0.000187
1121	1.1144e+02	-2.3099	2.941053	0.000953	9.525563	1.613674	-0.000191
1122	1.1154e+02	-2.3302	2.763419	0.000892	8.917549	1.510674	-0.000179
1123	1.1164e+02	-2.3502	2.569637	0.000973	9.728235	1.648008	-0.000195
1124	1.1174e+02	-2.3697	2.387966	0.000912	9.120220	1.545007	-0.000183
1125	1.1184e+02	-2.3888	2.169960	0.001094	10.944264	1.854009	-0.000219
1126	1.1194e+02	-2.4104	1.996364	0.000871	8.714877	1.476340	-0.000174
1127	1.1204e+02	-2.4292	1.814693	0.000912	9.120220	1.545007	-0.000183
1128	1.1214e+02	-2.4490	1.596687	0.001094	10.944264	1.854009	-0.000219
1129	1.1224e+02	-2.4675	1.439239	0.000790	7.904191	1.339006	-0.000158
1130	1.1234e+02	-2.4887	1.245456	0.000973	9.728235	1.648008	-0.000195
1131	1.1244e+02	-2.5089	1.067822	0.000892	8.917549	1.510674	-0.000179
1132	1.1253e+02	-2.5281	0.898263	0.000851	8.512205	1.442007	-0.000170
1133	1.1263e+02	-2.5487	0.672183	0.001135	11.349607	1.922676	-0.000227
1134	1.1273e+02	-2.5684	0.486475	0.000932	9.322892	1.579341	-0.000187
1135	1.1283e+02	-2.5885	0.337101	0.000750	7.498848	1.270339	-0.000150
1136	1.1293e+02	-2.6083	0.106984	0.001155	11.552279	1.957009	-0.000231
1137	1.1303e+02	-2.6273	-0.058538	0.000831	8.309534	1.407673	-0.000166
1138	1.1313e+02	-2.6480	-0.236172	0.000892	8.917549	1.510674	-0.000179
1139	1.1323e+02	-2.6678	-0.433992	0.000993	9.930906	1.682341	-0.000199
1140	1.1333e+02	-2.6868	-0.615663	0.000912	9.120220	1.545007	-0.000183
1141	1.1343e+02	-2.7087	-0.813483	0.000993	9.930906	1.682341	-0.000199
1142	1.1353e+02	-2.7275	-0.991117	0.000892	8.917549	1.510674	-0.000179
1143	1.1363e+02	-2.7481	-1.184899	0.000973	9.728235	1.648008	-0.000195
1144	1.1373e+02	-2.7676	-1.362533	0.000892	8.917549	1.510674	-0.000179
1145	1.1383e+02	-2.7873	-1.584576	0.001115	11.146936	1.888342	-0.000223
1146	1.1393e+02	-2.8075	-1.733950	0.000750	7.498848	1.270339	-0.000150
1147	1.1403e+02	-2.8275	-1.907547	0.000871	8.714877	1.476340	-0.000174
1148	1.1413e+02	-2.8469	-2.105366	0.000993	9.930906	1.682341	-0.000199
1149	1.1423e+02	-2.8674	-2.315297	0.001054	10.538921	1.785342	-0.000211
1150	1.1433e+02	-2.8873	-2.436411	0.000608	6.080147	1.030005	-0.000122
1151	1.1442e+02	-2.9074	-2.674602	0.001196	11.957622	2.025676	-0.000239
1152	1.1452e+02	-2.9266	-2.880496	0.001034	10.336249	1.751008	-0.000207
1153	1.1462e+02	-2.9469	-2.993536	0.000567	5.674804	0.961338	-0.000114
1154	1.1472e+02	-2.9666	-3.211541	0.001094	10.944264	1.854009	-0.000219
1155	1.1482e+02	-2.9871	-3.373027	0.000811	8.106862	1.373340	-0.000162
1156	1.1492e+02	-3.0072	-3.586995	0.001074	10.741593	1.819675	-0.000215
1157	1.1502e+02	-3.0267	-3.776740	0.000953	9.525563	1.613674	-0.000191
1158	1.1512e+02	-3.0461	-3.946300	0.000851	8.512205	1.442007	-0.000170
1159	1.1522e+02	-3.0670	-4.123934	0.000892	8.917549	1.510674	-0.000179
1160	1.1532e+02	-3.0869	-4.313680	0.000953	9.525563	1.613674	-0.000191
1161	1.1542e+02	-3.1067	-4.491314	0.000892	8.917549	1.510674	-0.000179
1162	1.1552e+02	-3.1262	-4.656836	0.000831	8.309534	1.407673	-0.000166
1163	1.1562e+02	-3.1467	-4.854656	0.000993	9.930906	1.682341	-0.000199
1164	1.1572e+02	-3.1659	-5.072661	0.001094	10.944264	1.854009	-0.000219
1165	1.1582e+02	-3.1863	-5.258369	0.000932	9.322892	1.579341	-0.000187
1166	1.1592e+02	-3.2050	-5.371409	0.000567	5.674804	0.961338	-0.000114
1167	1.1602e+02	-3.2265	-5.601526	0.001155	11.552279	1.957009	-0.000231
1168	1.1612e+02	-3.2455	-5.758974	0.000790	7.904191	1.339006	-0.000158
1169	1.1622e+02	-3.2666	-5.989091	0.001155	11.552279	1.957009	-0.000231
1170	1.1632e+02	-3.2858	-6.126353	0.000689	6.890833	1.167339	-0.000138
1171	1.1642e+02	-3.3063	-6.328210	0.001013	10.133578	1.716675	-0.000203
1172	1.1651e+02	-3.3258	-6.509881	0.000912	9.120220	1.545007	-0.000183
1173	1.1661e+02	-3.3458	-6.671367	0.000811	8.106862	1.373340	-0.000162
1174	1.1671e+02	-3.3653	-6.873224	0.001013	10.133578	1.716675	-0.000203
1175	1.1681e+02	-3.3855	-7.067006	0.000973	9.728235	1.648008	-0.000195
1176	1.1691e+02	-3.4048	-7.224454	0.000790	7.904191	1.339006	-0.000158
1177	1.1701e+02	-3.4250	-7.402088	0.000892	8.917549	1.510674	-0.000179
1178	1.1711e+02	-3.4454	-7.579722	0.000892	8.917549	1.510674	-0.000179
1179	1.1721e+02	-3.4651	-7.737171	0.000790	7.904191	1.339006	-0.000158
1180	1.1731e+02	-3.4845	-7.934990	0.000993	9.930906	1.682341	-0.000199
1181	1.1741e+02	-3.5052	-8.104550	0.000851	8.512205	1.442007	-0.000170
1182	1.1751e+02	-3.5246	-8.302370	0.000993	9.930906	1.682341	-0.000199
1183	1.1761e+02	-3.5455	-8.463855	0.000811	8.106862	1.373340	-0.000162
1184	1.1771e+02	-3.5657	-8.633415	0.000851	8.512205	1.442007	-0.000170
1185	1.1781e+02	-3.5840	-8.802974	0.000851	8.512205	1.442007	-0.000170
1186	1.1791e+02	-3.6050	-8.980608	0.000892	8.917549	1.510674	-0.000179
1187	1.1801e+02	-3.6248	-9.194577	0.001074	10.741593	1.819675	-0.000215
1188	1.1811e+02	-3.6450	-9.352025	0.000790	7.904191	1.339006	-0.000158
1189	1.1821e+02	-3.6649	-9.529659	0.000892	8.917549	1.510674	-0.000179
1190	1.1831e+02	-3.6838	-9.711330	0.000912	9.120220	1.545007	-0.000183
1191	1.1841e+02	-3.7051	-9.893001	0.000912	9.120220	1.545007	-0.000183
1192	1.1850e+02	-3.7243	-10.034301	0.000709	7.093505	1.201672	-0.000142
1193	1.1860e+02	-3.7445	-10.276529	0.001216	12.160294	2.060009	-0.000243
1194	1.1870e+02	-3.7646	-10.393606	0.000588	5.877475	0.995671	-0.000118
1195	1.1880e+02	-3.7841	-10.591426	0.000993	9.930906	1.682341	-0.000199
1196	1.1890e+02	-3.8037	-10.752911	0.000811	8.106862	1.373340	-0.000162
1197	1.1900e+02	-3.8237	-10.950731	0.000993	9.930906	1.682341	-0.000199
1198	1.1910e+02	-3.8443	-11.168736	0.001094	10.944264	1.854009	-0.000219
1199	1.1920e+02	-3.8638	-11.305999	0.000689	6.890833	1.167339	-0.000138
1200	1.1930e+02	-3.8841	-11.495744	0.000953	9.525563	1.613674	-0.000191
1201	1.1940e+02	-3.9050	-11.693564	0.000993	9.930906	1.682341	-0.000199
1202	1.1950e+02	-3.9240	-11.846975	0.000770	7.701519	1.304673	-0.000154
1203	1.1960e+02	-3.9429	-12.044794	0.000993	9.930906	1.682341	-0.000199
1204	1.1970e+02	-3.9636	-12.218391	0.000871	8.714877	1.476340	-0.000174
1205	1.1980e+02	-3.9844	-12.371802	0.000770	7.701519	1.304673	-0.000154
1206	1.1990e+02	-4.0027	-12.569622	0.000993	9.930906	1.682341	-0.000199
1207	1.2000e+02	-4.0228	-12.739182	0.000851	8.512205	1.442007	-0.000170
1208	1.2010e+02	-4.0437	-12.932964	0.000973	9.728235	1.648008	-0.000195
1209	1.2020e+02	-4.0631	-13.150970	0.001094	10.944264	1.854009	-0.000219
1210	1.2030e+02	-4.0820	-13.288232	0.000689	6.890833	1.167339	-0.000138
1211	1.2039e+02	-4.1016	-13.477978	0.000953	9.525563	1.613674	-0.000191
1212	1.2049e+02	-4.1217	-13.659649	0.000912	9.120220	1.545007	-0.000183
1213	1.2059e+02	-4.1376	-13.849394	0.000953	9.525563	1.613674	-0.000191
1214	1.2069e+02	-4.1620	-14.002805	0.000770	7.701519	1.304673	-0.000154
1215	1.2079e+02	-4.1824	-14.188514	0.000932	9.322892	1.579341	-0.000187
1216	1.2089e+02	-4.2017	-14.398445	0.001054	10.538921	1.785342	-0.000211
1217	1.2099e+02	-4.2223	-14.547819	0.000750	7.498848	1.270339	-0.000150
1218	1.2109e+02	-4.2432	-14.729490	0.000912	9.120220	1.545007	-0.000183
1219	1.2119e+02	-4.2624	-14.907124	0.000892	8.917549	1.510674	-0.000179
1220	1.2129e+02	-4.2828	-15.092832	0.000932	9.322892	1.579341	-0.000187
1221	1.2139e+02	-4.3027	-15.266429	0.000871	8.714877	1.476340	-0.000174
1222	1.2149e+02	-4.3213	-15.452137	0.000932	9.322892	1.579341	-0.000187
1223	1.2159e+02	-4.3425	-15.666105	0.001074	10.741593	1.819675	-0.000215
1224	1.2169e+02	-4.3620	-15.847776	0.000912	9.120220	1.545007	-0.000183
1225	1.2179e+02	-4.3829	-15.989076	0.000709	7.093505	1.201672	-0.000142
1226	1.2189e+02	-4.4020	-16.138450	0.000750	7.498848	1.270339	-0.000150
1227	1.2199e+02	-4.4220	-16.324158	0.000932	9.322892	1.579341	-0.000187
1228	1.2209e+02	-4.4415	-16.509867	0.000932	9.322892	1.579341	-0.000187
1229	1.2219e+02	-4.4615	-16.711723	0.001013	10.133578	1.716675	-0.000203
1230	1.2229e+02	-4.4818	-16.909543	0.000993	9.930906	1.682341	-0.000199
1231	1.2239e+02	-4.5018	-17.091214	0.000912	9.120220	1.545007	-0.000183
1232	1.2248e+02	-4.5206	-17.240588	0.000750	7.498848	1.270339	-0.000150
1233	1.2258e+02	-4.5410	-17.426296	0.000932	9.322892	1.579341	-0.000187
1234	1.2268e+02	-4.5605	-17.616042	0.000953	9.525563	1.613674	-0.000191
1235	1.2278e+02	-4.5804	-17.809824	0.000973	9.728235	1.648008	-0.000195
1236	1.2288e+02	-4.6008	-17.963235	0.000770	7.701519	1.304673	-0.000154
1237	1.2298e+02	-4.6207	-18.185278	0.001115	11.146936	1.888342	-0.000223
1238	1.2308e+02	-4.6411	-18.310429	0.000628	6.282818	1.064338	-0.000126
1239	1.2318e+02	-4.6600	-18.484026	0.000871	8.714877	1.476340	-0.000174
1240	1.2328e+02	-4.6811	-18.673771	0.000953	9.525563	1.613674	-0.000191
1241	1.2338e+02	-4.7006	-18.871591	0.000993	9.930906	1.682341	-0.000199
1242	1.2348e+02	-4.7221	-19.057299	0.000932	9.322892	1.579341	-0.000187
1243	1.2358e+02	-4.7406	-19.230896	0.000871	8.714877	1.476340	-0.000174
1244	1.2368e+02	-4.7601	-19.384307	0.000770	7.701519	1.304673	-0.000154
1245	1.2378e+02	-4.7800	-19.622498	0.001196	11.957622	2.025676	-0.000239
1246	1.2388e+02	-4.8004	-19.759761	0.000689	6.890833	1.167339	-0.000138
1247	1.2398e+02	-4.8203	-19.921246	0.000811	8.106862	1.373340	-0.000162
1248	1.2408e+02	-4.8401	-20.102917	0.000912	9.120220	1.545007	-0.000183
1249	1.2418e+02	-4.8608	-20.304774	0.001013	10.133578	1.716675	-0.000203
1250	1.2428e+02	-4.8804	-20.470297	0.000831	8.309534	1.407673	-0.000166
1251	1.2438e+02	-4.8993	-20.680228	0.001054	10.538921	1.785342	-0.000211
1252	1.2447e+02	-4.9197	-20.829602	0.000750	7.498848	1.270339	-0.000150
1253	1.2457e+02	-4.9405	-21.047607	0.001094	10.944264	1.854009	-0.000219
1254	1.2467e+02	-4.9597	-21.221204	0.000871	8.714877	1.476340	-0.000174
1255	1.2477e+02	-4.9796	-21.394801	0.000871	8.714877	1.476340	-0.000174
1256	1.2487e+02	-5.0000	-21.552249	0.000790	7.904191	1.339006	-0.000158
1257	1.2497e+02	-5.0198	-21.746032	0.000973	9.728235	1.648008	-0.000195
1258	1.2507e+02	-5.0397	-21.931740	0.000932	9.322892	1.579341	-0.000187
1259	1.2517e+02	-5.0586	-22.113411	0.000912	9.120220	1.545007	-0.000183
1260	1.2527e+02	-5.0784	-22.270859	0.000790	7.904191	1.339006	-0.000158
1261	1.2537e+02	-5.0993	-22.500976	0.001155	11.552279	1.957009	-0.000231
1262	1.2547e+02	-5.1189	-22.674573	0.000871	8.714877	1.476340	-0.000174
1263	1.2557e+02	-5.1389	-22.832021	0.000790	7.904191	1.339006	-0.000158
1264	1.2567e+02	-5.1587	-23.021767	0.000953	9.525563	1.613674	-0.000191
1265	1.2577e+02	-5.1794	-23.235735	0.001074	10.741593	1.819675	-0.000215
1266	1.2587e+02	-5.1993	-23.381072	0.000730	7.296176	1.236006	-0.000146
1267	1.2597e+02	-5.2197	-23.542557	0.000811	8.106862	1.373340	-0.000162
1268	1.2607e+02	-5.2390	-23.784785	0.001216	12.160294	2.060009	-0.000243
1269	1.2617e+02	-5.2582	-23.954345	0.000851	8.512205	1.442007	-0.000170
1270	1.2627e+02	-5.2789	-24.144090	0.000953	9.525563	1.613674	-0.000191
1271	1.2636e+02	-5.2991	-24.341910	0.000993	9.930906	1.682341	-0.000199
1272	1.2646e+02	-5.3183	-24.507432	0.000831	8.309534	1.407673	-0.000166
1273	1.2656e+02	-5.3381	-24.701215	0.000973	9.728235	1.648008	-0.000195
1274	1.2666e+02	-5.3583	-24.915183	0.001074	10.741593	1.819675	-0.000215
1275	1.2676e+02	-5.3787	-25.084743	0.000851	8.512205	1.442007	-0.000170
1276	1.2686e+02	-5.3979	-25.262377	0.000892	8.917549	1.510674	-0.000179
1277	1.2696e+02	-5.4181	-25.444048	0.000912	9.120220	1.545007	-0.000183
1278	1.2706e+02	-5.4382	-25.613608	0.000851	8.512205	1.442007	-0.000170
1279	1.2716e+02	-5.4578	-25.795279	0.000912	9.120220	1.545007	-0.000183
1280	1.2726e+02	-5.4773	-26.005210	0.001054	10.538921	1.785342	-0.000211
1281	1.2736e+02	-5.4980	-26.174770	0.000851	8.512205	1.442007	-0.000170
1282	1.2746e+02	-5.5176	-26.332218	0.000790	7.904191	1.339006	-0.000158
1283	1.2756e+02	-5.5383	-26.538112	0.001034	10.336249	1.751008	-0.000207
1284	1.2766e+02	-5.5582	-26.707671	0.000851	8.512205	1.442007	-0.000170
1285	1.2776e+02	-5.5780	-26.885305	0.000892	8.917549	1.510674	-0.000179
1286	1.2786e+02	-5.5975	-27.095237	0.001054	10.538921	1.785342	-0.000211
1287	1.2796e+02	-5.6186	-27.236536	0.000709	7.093505	1.201672	-0.000142
1288	1.2806e+02	-5.6378	-27.446467	0.001054	10.538921	1.785342	-0.000211
1289	1.2816e+02	-5.6567	-27.632176	0.000932	9.322892	1.579341	-0.000187
1290	1.2826e+02	-5.6781	-27.846144	0.001074	10.741593	1.819675	-0.000215
1291	1.2835e+02	-5.6976	-28.035889	0.000953	9.525563	1.613674	-0.000191
1292	1.2845e+02	-5.7177	-28.165077	0.000649	6.485490	1.098672	-0.000130
1293	1.2855e+02	-5.7373	-28.383083	0.001094	10.944264	1.854009	-0.000219
1294	1.2865e+02	-5.7568	-28.564754	0.000912	9.120220	1.545007	-0.000183
1295	1.2875e+02	-5.7776	-28.734314	0.000851	8.512205	1.442007	-0.000170
1296	1.2885e+02	-5.7971	-28.887725	0.000770	7.701519	1.304673	-0.000154
1297	1.2895e+02	-5.8176	-29.085544	0.000993	9.930906	1.682341	-0.000199
1298	1.2905e+02	-5.8374	-29.287401	0.001013	10.133578	1.716675	-0.000203
1299	1.2915e+02	-5.8572	-29.481184	0.000973	9.728235	1.648008	-0.000195
1300	1.2925e+02	-5.8765	-29.658818	0.000892	8.917549	1.510674	-0.000179
1301	1.2935e+02	-5.8960	-29.828377	0.000851	8.512205	1.442007	-0.000170
1302	1.2945e+02	-5.9167	-30.046383	0.001094	10.944264	1.854009	-0.000219
1303	1.2955e+02	-5.9366	-30.203831	0.000790	7.904191	1.339006	-0.000158
1304	1.2965e+02	-5.9570	-30.405688	0.001013	10.133578	1.716675	-0.000203
1305	1.2975e+02	-5.9766	-30.595433	0.000953	9.525563	1.613674	-0.000191
1306	1.2985e+02	-5.9966	-30.764993	0.000851	8.512205	1.442007	-0.000170
1307	1.2995e+02	-6.0156	-30.966850	0.001013	10.133578	1.716675	-0.000203
1308	1.3005e+02	-6.0358	-31.152558	0.000932	9.322892	1.579341	-0.000187
1309	1.3015e+02	-6.0559	-31.301932	0.000750	7.498848	1.270339	-0.000150
1310	1.3025e+02	-6.0760	-31.495714	0.000973	9.728235	1.648008	-0.000195
1311	1.3034e+02	-6.0962	-31.713720	0.001094	10.944264	1.854009	-0.000219
1312	1.3044e+02	-6.1168	-31.895391	0.000912	9.120220	1.545007	-0.000183
1313	1.3054e+02	-6.1362	-32.052839	0.000790	7.904191	1.339006	-0.000158
1314	1.3064e+02	-6.1557	-32.286993	0.001175	11.754950	1.991343	-0.000235
1315	1.3074e+02	-6.1765	-32.448478	0.000811	8.106862	1.373340	-0.000162
1316	1.3084e+02	-6.1957	-32.650335	0.001013	10.133578	1.716675	-0.000203
1317	1.3094e+02	-6.2149	-32.823932	0.000871	8.714877	1.476340	-0.000174
1318	1.3104e+02	-6.2364	-32.989455	0.000831	8.309534	1.407673	-0.000166
1319	1.3114e+02	-6.2573	-33.203423	0.001074	10.741593	1.819675	-0.000215
1320	1.3124e+02	-6.2744	-33.393168	0.000953	9.525563	1.613674	-0.000191
1321	1.3134e+02	-6.2958	-33.599062	0.001034	10.336249	1.751008	-0.000207
1322	1.3144e+02	-6.3153	-33.764585	0.000831	8.309534	1.407673	-0.000166
1323	1.3154e+02	-6.3346	-33.954330	0.000953	9.525563	1.613674	-0.000191
1324	1.3164e+02	-6.3550	-34.123890	0.000851	8.512205	1.442007	-0.000170
1325	1.3174e+02	-6.3751	-34.305561	0.000912	9.120220	1.545007	-0.000183
1326	1.3184e+02	-6.3953	-34.567975	0.001317	13.173651	2.231677	-0.000264
1327	1.3194e+02	-6.4148	-34.701200	0.000669	6.688161	1.133005	-0.000134
1328	1.3204e+02	-6.4355	-34.931317	0.001155	11.552279	1.957009	-0.000231
1329	1.3214e+02	-6.4545	-35.108951	0.000892	8.917549	1.510674	-0.000179
1330	1.3224e+02	-6.4746	-35.278511	0.000851	8.512205	1.442007	-0.000170
1331	1.3234e+02	-6.4944	-35.488442	0.001054	10.538921	1.785342	-0.000211
1332	1.3243e+02	-6.5149	-35.690298	0.001013	10.133578	1.716675	-0.000203
1333	1.3253e+02	-6.5350	-35.892155	0.001013	10.133578	1.716675	-0.000203
1334	1.3263e+02	-6.5540	-36.073826	0.000912	9.120220	1.545007	-0.000183
1335	1.3273e+02	-6.5747	-36.299906	0.001135	11.349607	1.922676	-0.000227
1336	1.3283e+02	-6.5936	-36.416983	0.000588	5.877475	0.995671	-0.000118
1337	1.3293e+02	-6.6144	-36.614803	0.000993	9.930906	1.682341	-0.000199
1338	1.3303e+02	-6.6348	-36.844919	0.001155	11.552279	1.957009	-0.000231
1339	1.3313e+02	-6.6534	-37.034665	0.000953	9.525563	1.613674	-0.000191
1340	1.3323e+02	-6.6730	-37.256707	0.001115	11.146936	1.888342	-0.000223
1341	1.3333e+02	-6.6931	-37.426267	0.000851	8.512205	1.442007	-0.000170
1342	1.3343e+02	-6.7133	-37.644272	0.001094	10.944264	1.854009	-0.000219
1343	1.3353e+02	-6.7334	-37.809795	0.000831	8.309534	1.407673	-0.000166
1344	1.3363e+02	-6.7529	-37.967243	0.000790	7.904191	1.339006	-0.000158
1345	1.3373e+02	-6.7737	-38.197360	0.001155	11.552279	1.957009	-0.000231
1346	1.3383e+02	-6.7926	-38.431514	0.001175	11.754950	1.991343	-0.000235
1347	1.3393e+02	-6.8140	-38.592999	0.000811	8.106862	1.373340	-0.000162
1348	1.3403e+02	-6.8338	-38.782744	0.000953	9.525563	1.613674	-0.000191
1349	1.3413e+02	-6.8542	-38.976527	0.000973	9.728235	1.648008	-0.000195
1350	1.3423e+02	-6.8732	-39.166272	0.000953	9.525563	1.613674	-0.000191
1351	1.3432e+02	-6.8932	-39.396389	0.001155	11.552279	1.957009	-0.000231
1352	1.3442e+02	-6.9128	-39.549800	0.000770	7.701519	1.304673	-0.000154
1353	1.3452e+02	-6.9339	-39.792028	0.001216	12.160294	2.060009	-0.000243
1354	1.3462e+02	-6.9537	-39.981774	0.000953	9.525563	1.613674	-0.000191
1355	1.3472e+02	-6.9727	-40.183631	0.001013	10.133578	1.716675	-0.000203
1356	1.3482e+02	-6.9928	-40.377413	0.000973	9.728235	1.648008	-0.000195
1357	1.3492e+02	-7.0126	-40.603493	0.001135	11.349607	1.922676	-0.000227
1358	1.3502e+02	-7.0325	-40.756904	0.000770	7.701519	1.304673	-0.000154
1359	1.3512e+02	-7.0529	-40.991058	0.001175	11.754950	1.991343	-0.000235
1360	1.3522e+02	-7.0728	-41.184840	0.000973	9.728235	1.648008	-0.000195
1361	1.3532e+02	-7.0959	-41.386697	0.001013	10.133578	1.716675	-0.000203
1362	1.3542e+02	-7.1130	-41.588554	0.001013	10.133578	1.716675	-0.000203
1363	1.3552e+02	-7.1326	-41.786373	0.000993	9.930906	1.682341	-0.000199
1364	1.3562e+02	-7.1521	-41.992267	0.001034	10.336249	1.751008	-0.000207
1365	1.3572e+02	-7.1713	-42.190087	0.000993	9.930906	1.682341	-0.000199
1366	1.3582e+02	-7.1927	-42.404055	0.001074	10.741593	1.819675	-0.000215
1367	1.3592e+02	-7.2116	-42.666469	0.001317	13.173651	2.231677	-0.000264
1368	1.3602e+02	-7.2308	-42.856214	0.000953	9.525563	1.613674	-0.000191
1369	1.3612e+02	-7.2510	-43.037886	0.000912	9.120220	1.545007	-0.000183
1370	1.3622e+02	-7.2723	-43.247817	0.001054	10.538921	1.785342	-0.000211
1371	1.3631e+02	-7.2913	-43.502156	0.001277	12.768308	2.163010	-0.000256
1372	1.3641e+02	-7.3117	-43.699976	0.000993	9.930906	1.682341	-0.000199
1373	1.3651e+02	-7.3328	-43.922018	0.001115	11.146936	1.888342	-0.000223
1374	1.3661e+02	-7.3517	-44.095615	0.000871	8.714877	1.476340	-0.000174
1375	1.3671e+02	-7.3711	-44.313620	0.001094	10.944264	1.854009	-0.000219
1376	1.3681e+02	-7.3907	-44.563923	0.001257	12.565637	2.128676	-0.000252
1377	1.3691e+02	-7.4121	-44.806151	0.001216	12.160294	2.060009	-0.000243
1378	1.3701e+02	-7.4310	-44.959562	0.000770	7.701519	1.304673	-0.000154
1379	1.3711e+02	-7.4512	-45.185642	0.001135	11.349607	1.922676	-0.000227
1380	1.3721e+02	-7.4719	-45.383461	0.000993	9.930906	1.682341	-0.000199
1381	1.3731e+02	-7.4915	-45.653949	0.001358	13.578994	2.300344	-0.000272
1382	1.3741e+02	-7.5113	-45.900215	0.001236	12.362965	2.094343	-0.000248
1383	1.3751e+02	-7.5317	-46.065737	0.000831	8.309534	1.407673	-0.000166
1384	1.3761e+02	-7.5488	-46.259520	0.000973	9.728235	1.648008	-0.000195
1385	1.3771e+02	-7.5702	-46.501748	0.001216	12.160294	2.060009	-0.000243
1386	1.3781e+02	-7.5909	-46.768199	0.001338	13.376323	2.266010	-0.000268
1387	1.3791e+02	-7.6099	-46.974093	0.001034	10.336249	1.751008	-0.000207
1388	1.3801e+02	-7.6312	-47.179987	0.001034	10.336249	1.751008	-0.000207
1389	1.3811e+02	-7.6495	-47.414141	0.001175	11.754950	1.991343	-0.000235
1390	1.3821e+02	-7.6703	-47.668480	0.001277	12.768308	2.163010	-0.000256
1391	1.3831e+02	-7.6891	-47.846114	0.000892	8.917549	1.510674	-0.000179
1392	1.3840e+02	-7.7084	-48.148899	0.001520	15.200367	2.575012	-0.000304
1393	1.3850e+02	-7.7289	-48.322496	0.000871	8.714877	1.476340	-0.000174
1394	1.3860e+02	-7.7490	-48.580873	0.001297	12.970980	2.197343	-0.000260
1395	1.3870e+02	-7.7698	-48.786767	0.001034	10.336249	1.751008	-0.000207
1396	1.3880e+02	-7.7893	-49.033032	0.001236	12.362965	2.094343	-0.000248
1397	1.3890e+02	-7.8094	-49.267186	0.001175	11.754950	1.991343	-0.000235
1398	1.3900e+02	-7.8290	-49.493266	0.001135	11.349607	1.922676	-0.000227
1399	1.3910e+02	-7.8485	-49.719345	0.001135	11.349607	1.922676	-0.000227
1400	1.3920e+02	-7.8693	-49.981759	0.001317	13.173651	2.231677	-0.000264
1401	1.3930e+02	-7.8894	-50.219950	0.001196	11.957622	2.025676	-0.000239
1402	1.3940e+02	-7.9114	-50.462178	0.001216	12.160294	2.060009	-0.000243
1403	1.3950e+02	-7.9294	-50.680183	0.001094	10.944264	1.854009	-0.000219
1404	1.3960e+02	-7.9492	-50.926449	0.001236	12.362965	2.094343	-0.000248
1405	1.3970e+02	-7.9691	-51.156566	0.001155	11.552279	1.957009	-0.000231
1406	1.3980e+02	-7.9883	-51.402831	0.001236	12.362965	2.094343	-0.000248
1407	1.3990e+02	-8.0090	-51.693505	0.001459	14.592352	2.472011	-0.000292
1408	1.4000e+02	-8.0280	-51.871139	0.000892	8.917549	1.510674	-0.000179
1409	1.4010e+02	-8.0475	-52.133552	0.001317	13.173651	2.231677	-0.000264
1410	1.4020e+02	-8.0682	-52.367706	0.001175	11.754950	1.991343	-0.000235
1411	1.4029e+02	-8.0884	-52.642231	0.001378	13.781666	2.334677	-0.000276
1412	1.4039e+02	-8.1085	-52.880422	0.001196	11.957622	2.025676	-0.000239
1413	1.4049e+02	-8.1287	-53.130725	0.001257	12.565637	2.128676	-0.000252
1414	1.4059e+02	-8.1482	-53.397176	0.001338	13.376323	2.266010	-0.000268
1415	1.4069e+02	-8.1689	-53.655553	0.001297	12.970980	2.197343	-0.000260
1416	1.4079e+02	-8.1879	-53.865484	0.001054	10.538921	1.785342	-0.000211
1417	1.4089e+02	-8.2071	-54.140009	0.001378	13.781666	2.334677	-0.000276
1418	1.4099e+02	-8.2281	-54.450868	0.001561	15.605710	2.643679	-0.000312
1419	1.4109e+02	-8.2489	-54.652725	0.001013	10.133578	1.716675	-0.000203
1420	1.4119e+02	-8.2675	-54.935325	0.001419	14.187009	2.403344	-0.000284
1421	1.4129e+02	-8.2874	-55.185627	0.001257	12.565637	2.128676	-0.000252
1422	1.4139e+02	-8.3102	-55.464189	0.001398	13.984338	2.369011	-0.000280
1423	1.4149e+02	-8.3270	-55.706417	0.001216	12.160294	2.060009	-0.000243
1424	1.4159e+02	-8.3484	-55.989017	0.001419	14.187009	2.403344	-0.000284
1425	1.4169e+02	-8.3667	-56.239319	0.001257	12.565637	2.128676	-0.000252
1426	1.4179e+02	-8.3881	-56.517882	0.001398	13.984338	2.369011	-0.000280
1427	1.4189e+02	-8.4070	-56.760110	0.001216	12.160294	2.060009	-0.000243
1428	1.4199e+02	-8.4290	-57.046747	0.001439	14.389681	2.437678	-0.000288
1429	1.4209e+02	-8.4467	-57.345495	0.001500	14.997695	2.540678	-0.000300
1430	1.4219e+02	-8.4656	-57.583686	0.001196	11.957622	2.025676	-0.000239
1431	1.4228e+02	-8.4869	-57.890508	0.001540	15.403038	2.609345	-0.000308
1432	1.4238e+02	-8.5065	-58.165033	0.001378	13.781666	2.334677	-0.000276
1433	1.4248e+02	-8.5272	-58.439558	0.001378	13.781666	2.334677	-0.000276
1434	1.4258e+02	-8.5468	-58.746381	0.001540	15.403038	2.609345	-0.000308
1435	1.4268e+02	-8.5663	-58.972460	0.001135	11.349607	1.922676	-0.000227
1436	1.4278e+02	-8.5858	-59.307543	0.001682	16.821739	2.849680	-0.000337
1437	1.4288e+02	-8.6063	-59.590142	0.001419	14.187009	2.403344	-0.000284
1438	1.4298e+02	-8.6255	-59.905039	0.001581	15.808382	2.678012	-0.000316
1439	1.4308e+02	-8.6459	-60.163415	0.001297	12.970980	2.197343	-0.000260
1440	1.4318e+02	-8.6664	-60.437941	0.001378	13.781666	2.334677	-0.000276
1441	1.4328e+02	-8.6859	-60.764949	0.001642	16.416396	2.781013	-0.000329
1442	1.4338e+02	-8.7054	-61.051585	0.001439	14.389681	2.437678	-0.000288
1443	1.4348e+02	-8.7268	-61.370519	0.001601	16.011053	2.712346	-0.000321
1444	1.4358e+02	-8.7469	-61.632933	0.001317	13.173651	2.231677	-0.000264
1445	1.4368e+02	-8.7659	-61.931681	0.001500	14.997695	2.540678	-0.000300
1446	1.4378e+02	-8.7860	-62.238503	0.001540	15.403038	2.609345	-0.000308
1447	1.4388e+02	-8.8055	-62.585697	0.001743	17.429754	2.952680	-0.000349
1448	1.4398e+02	-8.8263	-62.831962	0.001236	12.362965	2.094343	-0.000248
1449	1.4408e+02	-8.8458	-63.110524	0.001398	13.984338	2.369011	-0.000280
1450	1.4418e+02	-8.8654	-63.421384	0.001561	15.605710	2.643679	-0.000312
1451	1.4428e+02	-8.8855	-63.744355	0.001621	16.213725	2.746679	-0.000325
1452	1.4437e+02	-8.9056	-64.079437	0.001682	16.821739	2.849680	-0.000337
1453	1.4447e+02	-8.9240	-64.414519	0.001682	16.821739	2.849680	-0.000337
1454	1.4457e+02	-8.9441	-64.717304	0.001520	15.200367	2.575012	-0.000304
1455	1.4467e+02	-8.9648	-65.003941	0.001439	14.389681	2.437678	-0.000288
1456	1.4477e+02	-8.9847	-65.330949	0.001642	16.416396	2.781013	-0.000329
1457	1.4487e+02	-9.0051	-65.641809	0.001561	15.605710	2.643679	-0.000312
1458	1.4497e+02	-9.0247	-65.980928	0.001702	17.024411	2.884013	-0.000341
1459	1.4507e+02	-9.0448	-66.291787	0.001561	15.605710	2.643679	-0.000312
1460	1.4517e+02	-9.0649	-66.651092	0.001804	18.037769	3.055681	-0.000361
1461	1.4527e+02	-9.0851	-66.953878	0.001520	15.200367	2.575012	-0.000304
1462	1.4537e+02	-9.1034	-67.313183	0.001804	18.037769	3.055681	-0.000361
1463	1.4547e+02	-9.1248	-67.607894	0.001480	14.795024	2.506345	-0.000296
1464	1.4557e+02	-9.1449	-67.979310	0.001865	18.645783	3.158681	-0.000373
1465	1.4567e+02	-9.1650	-68.290170	0.001561	15.605710	2.643679	-0.000312
1466	1.4577e+02	-9.1830	-68.653512	0.001824	18.240440	3.090014	-0.000365
1467	1.4587e+02	-9.2047	-68.972446	0.001601	16.011053	2.712346	-0.000321
1468	1.4597e+02	-9.2236	-69.351936	0.001905	19.051127	3.227348	-0.000381
1469	1.4607e+02	-9.2438	-69.678944	0.001642	16.416396	2.781013	-0.000329
1470	1.4617e+02	-9.2633	-70.022101	0.001723	17.227082	2.918347	-0.000345
1471	1.4626e+02	-9.2841	-70.405629	0.001925	19.253798	3.261682	-0.000385
1472	1.4636e+02	-9.3036	-70.712451	0.001540	15.403038	2.609345	-0.000308
1473	1.4646e+02	-9.3237	-71.079830	0.001844	18.443112	3.124348	-0.000369
1474	1.4656e+02	-9.3433	-71.459321	0.001905	19.051127	3.227348	-0.000381
1475	1.4666e+02	-9.3640	-71.850923	0.001966	19.659141	3.330349	-0.000394
1476	1.4676e+02	-9.3840	-72.181968	0.001662	16.619068	2.815346	-0.000333
1477	1.4686e+02	-9.4043	-72.541274	0.001804	18.037769	3.055681	-0.000361
1478	1.4696e+02	-9.4232	-72.908653	0.001844	18.443112	3.124348	-0.000369
1479	1.4706e+02	-9.4434	-73.320441	0.002067	20.672499	3.502016	-0.000414
1480	1.4716e+02	-9.4626	-73.679746	0.001804	18.037769	3.055681	-0.000361
1481	1.4726e+02	-9.4830	-74.071348	0.001966	19.659141	3.330349	-0.000394
1482	1.4736e+02	-9.5032	-74.434690	0.001824	18.240440	3.090014	-0.000365
1483	1.4746e+02	-9.5233	-74.850515	0.002088	20.875171	3.536350	-0.000418
1484	1.4756e+02	-9.5435	-75.254229	0.002027	20.267156	3.433349	-0.000406
1485	1.4766e+02	-9.5630	-75.629682	0.001885	18.848455	3.193015	-0.000377
1486	1.4776e+02	-9.5825	-76.033396	0.002027	20.267156	3.433349	-0.000406
1487	1.4786e+02	-9.6014	-76.429035	0.001986	19.861813	3.364682	-0.000398
1488	1.4796e+02	-9.6234	-76.828712	0.002006	20.064484	3.399016	-0.000402
1489	1.4806e+02	-9.6423	-77.240500	0.002067	20.672499	3.502016	-0.000414
1490	1.4816e+02	-9.6625	-77.636139	0.001986	19.861813	3.364682	-0.000398
1491	1.4825e+02	-9.6832	-78.072149	0.002189	21.888528	3.708017	-0.000438
1492	1.4835e+02	-9.7009	-78.467789	0.001986	19.861813	3.364682	-0.000398
1493	1.4845e+02	-9.7223	-78.891688	0.002128	21.280514	3.605017	-0.000426
1494	1.4855e+02	-9.7424	-79.307513	0.002088	20.875171	3.536350	-0.000418
1495	1.4865e+02	-9.7632	-79.771784	0.002331	23.307229	3.948352	-0.000467
1496	1.4875e+02	-9.7827	-80.159349	0.001946	19.456470	3.296015	-0.000390
1497	1.4885e+02	-9.8022	-80.611508	0.002270	22.699215	3.845351	-0.000454
1498	1.4895e+02	-9.8218	-81.051556	0.002209	22.091200	3.742351	-0.000442
1499	1.4905e+02	-9.8419	-81.507752	0.002290	22.901886	3.879685	-0.000458
1500	1.4915e+02	-9.8621	-81.939726	0.002169	21.685857	3.673684	-0.000434
1501	1.4925e+02	-9.8822	-82.355550	0.002088	20.875171	3.536350	-0.000418
1502	1.4935e+02	-9.9005	-82.856155	0.002513	25.131273	4.257353	-0.000503
1503	1.4945e+02	-9.9207	-83.304277	0.002250	22.496543	3.811018	-0.000450
1504	1.4955e+02	-9.9408	-83.760474	0.002290	22.901886	3.879685	-0.000458
1505	1.4965e+02	-9.9628	-84.261079	0.002513	25.131273	4.257353	-0.000503
1506	1.4975e+02	-9.9811	-84.729386	0.002351	23.509901	3.982685	-0.000471
1507	1.4985e+02	-10.0000	-85.209805	0.002412	24.117915	4.085685	-0.000483
1508	1.4995e+02	-9.9811	-85.460108	-0.001257	-12.565637	-2.128676	-0.000252
1509	1.5005e+02	-9.9622	-85.766930	-0.001540	-15.403038	-2.609345	-0.000308
1510	1.5015e+02	-9.9414	-86.041455	-0.001378	-13.781666	-2.334677	-0.000276
1511	1.5025e+02	-9.9213	-86.271572	-0.001155	-11.552279	-1.957009	-0.000231
1512	1.5034e+02	-9.9011	-86.481503	-0.001054	-10.538921	-1.785342	-0.000211
1513	1.5044e+02	-9.8816	-86.683360	-0.001013	-10.133578	-1.716675	-0.000203
1514	1.5054e+02	-9.8615	-86.953848	-0.001358	-13.578994	-2.300344	-0.000272
1515	1.5064e+02	-9.8407	-87.135519	-0.000912	-9.120220	-1.545007	-0.000183
1516	1.5074e+02	-9.8212	-87.365636	-0.001155	-11.552279	-1.957009	-0.000231
1517	1.5084e+02	-9.8022	-87.575567	-0.001054	-10.538921	-1.785342	-0.000211
1518	1.5094e+02	-9.7821	-87.769350	-0.000973	-9.728235	-1.648008	-0.000195
1519	1.5104e+02	-9.7620	-87.942946	-0.000871	-8.714877	-1.476340	-0.000174
1520	1.5114e+02	-9.7418	-88.096358	-0.000770	-7.701519	-1.304673	-0.000154
1521	1.5124e+02	-9.7217	-88.282066	-0.000932	-9.322892	-1.579341	-0.000187
1522	1.5134e+02	-9.7015	-88.451625	-0.000851	-8.512205	-1.442007	-0.000170
1523	1.5144e+02	-9.6838	-88.609074	-0.000790	-7.904191	-1.339006	-0.000158
1524	1.5154e+02	-9.6625	-88.746336	-0.000689	-6.890833	-1.167339	-0.000138
1525	1.5164e+02	-9.6417	-88.887636	-0.000709	-7.093505	-1.201672	-0.000142
1526	1.5174e+02	-9.6228	-89.041047	-0.000770	-7.701519	-1.304673	-0.000154
1527	1.5184e+02	-9.6027	-89.146013	-0.000527	-5.269461	-0.892671	-0.000105
1528	1.5194e+02	-9.5825	-89.315573	-0.000851	-8.512205	-1.442007	-0.000170
1529	1.5204e+02	-9.5618	-89.440724	-0.000628	-6.282818	-1.064338	-0.000126
1530	1.5214e+02	-9.5435	-89.582023	-0.000709	-7.093505	-1.201672	-0.000142
1531	1.5224e+02	-9.5233	-89.682952	-0.000507	-5.066789	-0.858337	-0.000101
1532	1.5233e+02	-9.5032	-89.836363	-0.000770	-7.701519	-1.304673	-0.000154
1533	1.5243e+02	-9.4827	-89.933254	-0.000486	-4.864117	-0.824004	-0.000097
1534	1.5253e+02	-9.4629	-90.001886	-0.000345	-3.445416	-0.583669	-0.000069
1535	1.5263e+02	-9.4427	-90.147222	-0.000730	-7.296176	-1.236006	-0.000146
1536	1.5273e+02	-9.4235	-90.276411	-0.000649	-6.485490	-1.098672	-0.000130
1537	1.5283e+02	-9.4031	-90.345042	-0.000345	-3.445416	-0.583669	-0.000069
1538	1.5293e+02	-9.3842	-90.454045	-0.000547	-5.472132	-0.927004	-0.000110
1539	1.5303e+02	-9.3640	-90.482305	-0.000142	-1.418701	-0.240334	-0.000028
1540	1.5313e+02	-9.3436	-90.631679	-0.000750	-7.498848	-1.270339	-0.000150
1541	1.5323e+02	-9.3237	-90.712421	-0.000405	-4.053431	-0.686670	-0.000081
1542	1.5333e+02	-9.3048	-90.801238	-0.000446	-4.458774	-0.755337	-0.000089
1543	1.5343e+02	-9.2841	-90.865833	-0.000324	-3.242745	-0.549336	-0.000065
1544	1.5353e+02	-9.2639	-90.934464	-0.000345	-3.445416	-0.583669	-0.000069
1545	1.5363e+02	-9.2438	-91.011170	-0.000385	-3.850760	-0.652336	-0.000077
1546	1.5373e+02	-9.2236	-91.079801	-0.000345	-3.445416	-0.583669	-0.000069
1547	1.5383e+02	-9.2035	-91.156506	-0.000385	-3.850760	-0.652336	-0.000077
1548	1.5393e+02	-9.1833	-91.229175	-0.000365	-3.648088	-0.618003	-0.000073
1549	1.5403e+02	-9.1638	-91.269546	-0.000203	-2.026716	-0.343335	-0.000041
1550	1.5413e+02	-9.1449	-91.317992	-0.000243	-2.432059	-0.412002	-0.000049
1551	1.5422e+02	-9.1248	-91.382586	-0.000324	-3.242745	-0.549336	-0.000065
1552	1.5432e+02	-9.1046	-91.422957	-0.000203	-2.026716	-0.343335	-0.000041
1553	1.5442e+02	-9.0857	-91.499663	-0.000385	-3.850760	-0.652336	-0.000077
1554	1.5452e+02	-9.0637	-91.499663	0.000000	0.000000	0.000000	0.000000
1555	1.5462e+02	-9.0451	-91.552146	-0.000263	-2.634730	-0.446335	-0.000053
1556	1.5472e+02	-9.0244	-91.580406	-0.000142	-1.418701	-0.240334	-0.000028
1557	1.5482e+02	-9.0057	-91.600591	-0.000101	-1.013358	-0.171667	-0.000020
1558	1.5492e+02	-8.9850	-91.632888	-0.000162	-1.621372	-0.274668	-0.000032
1559	1.5502e+02	-8.9648	-91.701520	-0.000345	-3.445416	-0.583669	-0.000069
1560	1.5512e+02	-8.9444	-91.725743	-0.000122	-1.216029	-0.206001	-0.000024
1561	1.5522e+02	-8.9252	-91.733817	-0.000041	-0.405343	-0.068667	-0.000008
1562	1.5532e+02	-8.9050	-91.782262	-0.000243	-2.432059	-0.412002	-0.000049
1563	1.5542e+02	-8.8843	-91.822634	-0.000203	-2.026716	-0.343335	-0.000041
1564	1.5552e+02	-8.8647	-91.830708	-0.000041	-0.405343	-0.068667	-0.000008
1565	1.5562e+02	-8.8458	-91.786300	0.000223	2.229387	0.377668	0.000045
1566	1.5572e+02	-8.8263	-91.867042	-0.000405	-4.053431	-0.686670	-0.000081
1567	1.5582e+02	-8.8046	-91.867042	0.000000	0.000000	0.000000	0.000000
1568	1.5592e+02	-8.7854	-91.891265	-0.000122	-1.216029	-0.206001	-0.000024
1569	1.5602e+02	-8.7671	-91.891265	0.000000	0.000000	0.000000	0.000000
1570	1.5612e+02	-8.7463	-91.899339	-0.000041	-0.405343	-0.068667	-0.000008
1571	1.5622e+02	-8.7256	-91.903377	-0.000020	-0.202672	-0.034333	-0.000004
1572	1.5631e+02	-8.7064	-91.915488	-0.000061	-0.608015	-0.103000	-0.000012
1573	1.5641e+02	-8.6865	-91.915488	0.000000	0.000000	0.000000	0.000000
1574	1.5651e+02	-8.6658	-91.927599	-0.000061	-0.608015	-0.103000	-0.000012
1575	1.5661e+02	-8.6456	-91.875117	0.000263	2.634730	0.446335	0.000053
1576	1.5671e+02	-8.6264	-91.923562	-0.000243	-2.432059	-0.412002	-0.000049
1577	1.5681e+02	-8.6072	-91.887228	0.000182	1.824044	0.309001	0.000037
1578	1.5691e+02	-8.5864	-91.891265	-0.000020	-0.202672	-0.034333	-0.000004
1579	1.5701e+02	-8.5669	-91.887228	0.000020	0.202672	0.034333	0.000004
1580	1.5711e+02	-8.5461	-91.903377	-0.000081	-0.810686	-0.137334	-0.000016
1581	1.5721e+02	-8.5278	-91.895302	0.000041	0.405343	0.068667	0.000008
1582	1.5731e+02	-8.5071	-91.863005	0.000162	1.621372	0.274668	0.000032
1583	1.5741e+02	-8.4869	-91.846857	0.000081	0.810686	0.137334	0.000016
1584	1.5751e+02	-8.4662	-91.846857	0.000000	0.000000	0.000000	0.000000
1585	1.5761e+02	-8.4467	-91.790337	0.000284	2.837402	0.480669	0.000057
1586	1.5771e+02	-8.4277	-91.745928	0.000223	2.229387	0.377668	0.000045
1587	1.5781e+02	-8.4076	-91.774188	-0.000142	-1.418701	-0.240334	-0.000028
1588	1.5791e+02	-8.3884	-91.733817	0.000203	2.026716	0.343335	0.000041
1589	1.5801e+02	-8.3676	-91.689408	0.000223	2.229387	0.377668	0.000045
1590	1.5811e+02	-8.3466	-91.677297	0.000061	0.608015	0.103000	0.000012
1591	1.5821e+02	-8.3276	-91.669223	0.000041	0.405343	0.068667	0.000008
1592	1.5830e+02	-8.3073	-91.600591	0.000345	3.445416	0.583669	0.000069
1593	1.5840e+02	-8.2880	-91.576369	0.000122	1.216029	0.206001	0.000024
1594	1.5850e+02	-8.2672	-91.556183	0.000101	1.013358	0.171667	0.000020
1595	1.5860e+02	-8.2477	-91.535997	0.000101	1.013358	0.171667	0.000020
1596	1.5870e+02	-8.2275	-91.527923	0.000041	0.405343	0.068667	0.000008
1597	1.5880e+02	-8.2074	-91.443143	0.000426	4.256103	0.721003	0.000085
1598	1.5890e+02	-8.1873	-91.471403	-0.000142	-1.418701	-0.240334	-0.000028
1599	1.5900e+02	-8.1677	-91.418920	0.000263	2.634730	0.446335	0.000053
1600	1.5910e+02	-8.1470	-91.330103	0.000446	4.458774	0.755337	0.000089
1601	1.5920e+02	-8.1281	-91.326066	0.000020	0.202672	0.034333	0.000004
1602	1.5930e+02	-8.1079	-91.285695	0.000203	2.026716	0.343335	0.000041
1603	1.5940e+02	-8.0884	-91.241286	0.000223	2.229387	0.377668	0.000045
1604	1.5950e+02	-8.0682	-91.213026	0.000142	1.418701	0.240334	0.000028
1605	1.5960e+02	-8.0490	-91.164581	0.000243	2.432059	0.412002	0.000049
1606	1.5970e+02	-8.0292	-91.140358	0.000122	1.216029	0.206001	0.000024
1607	1.5980e+02	-8.0078	-91.140358	0.000000	0.000000	0.000000	0.000000
1608	1.5990e+02	-7.9889	-91.039429	0.000507	5.066789	0.858337	0.000101
1609	1.6000e+02	-7.9694	-91.015207	0.000122	1.216029	0.206001	0.000024
1610	1.6010e+02	-7.9480	-90.986947	0.000142	1.418701	0.240334	0.000028
1611	1.6019e+02	-7.9291	-90.930427	0.000284	2.837402	0.480669	0.000057
1612	1.6029e+02	-7.9095	-90.873907	0.000284	2.837402	0.480669	0.000057
1613	1.6039e+02	-7.8894	-90.817387	0.000284	2.837402	0.480669	0.000057
1614	1.6049e+02	-7.8687	-90.772979	0.000223	2.229387	0.377668	0.000045
1615	1.6059e+02	-7.8503	-90.700310	0.000365	3.648088	0.618003	0.000073
1616	1.6069e+02	-7.8293	-90.672050	0.000142	1.418701	0.240334	0.000028
1617	1.6079e+02	-7.8104	-90.563047	0.000547	5.472132	0.927004	0.000110
1618	1.6089e+02	-7.7890	-90.542862	0.000101	1.013358	0.171667	0.000020
1619	1.6099e+02	-7.7698	-90.454045	0.000446	4.458774	0.755337	0.000089
1620	1.6109e+02	-7.7490	-90.397525	0.000284	2.837402	0.480669	0.000057
1621	1.6119e+02	-7.7301	-90.292559	0.000527	5.269461	0.892671	0.000105
1622	1.6129e+02	-7.7094	-90.276411	0.000081	0.810686	0.137334	0.000016
1623	1.6139e+02	-7.6889	-90.199705	0.000385	3.850760	0.652336	0.000077
1624	1.6149e+02	-7.6697	-90.135111	0.000324	3.242745	0.549336	0.000065
1625	1.6159e+02	-7.6501	-90.070517	0.000324	3.242745	0.549336	0.000065
1626	1.6169e+02	-7.6300	-90.026108	0.000223	2.229387	0.377668	0.000045
1627	1.6179e+02	-7.6093	-89.965551	0.000304	3.040073	0.515002	0.000061
1628	1.6189e+02	-7.5900	-89.888846	0.000385	3.850760	0.652336	0.000077
1629	1.6199e+02	-7.5708	-89.787917	0.000507	5.066789	0.858337	0.000101
1630	1.6209e+02	-7.5507	-89.739472	0.000243	2.432059	0.412002	0.000049
1631	1.6219e+02	-7.5305	-89.670840	0.000345	3.445416	0.583669	0.000069
1632	1.6228e+02	-7.5107	-89.586061	0.000426	4.256103	0.721003	0.000085
1633	1.6238e+02	-7.4921	-89.537615	0.000243	2.432059	0.412002	0.000049
1634	1.6248e+02	-7.4713	-89.444761	0.000466	4.661446	0.789670	0.000093
1635	1.6258e+02	-7.4512	-89.428612	0.000081	0.810686	0.137334	0.000016
1636	1.6268e+02	-7.4304	-89.343832	0.000426	4.256103	0.721003	0.000085
1637	1.6278e+02	-7.4109	-89.230793	0.000567	5.674804	0.961338	0.000114
1638	1.6288e+02	-7.3920	-89.158124	0.000365	3.648088	0.618003	0.000073
1639	1.6298e+02	-7.3717	-89.085456	0.000365	3.648088	0.618003	0.000073
1640	1.6308e+02	-7.3523	-88.988565	0.000486	4.864117	0.824004	0.000097
1641	1.6318e+02	-7.3322	-88.928007	0.000304	3.040073	0.515002	0.000061
1642	1.6328e+02	-7.3114	-88.831116	0.000486	4.864117	0.824004	0.000097
1643	1.6338e+02	-7.2919	-88.746336	0.000426	4.256103	0.721003	0.000085
1644	1.6348e+02	-7.2705	-88.705965	0.000203	2.026716	0.343335	0.000041
1645	1.6358e+02	-7.2522	-88.600999	0.000527	5.269461	0.892671	0.000105
1646	1.6368e+02	-7.2321	-88.532368	0.000345	3.445416	0.583669	0.000069
1647	1.6378e+02	-7.2125	-88.455663	0.000385	3.850760	0.652336	0.000077
1648	1.6388e+02	-7.1918	-88.354734	0.000507	5.066789	0.858337	0.000101
1649	1.6398e+02	-7.1716	-88.257843	0.000486	4.864117	0.824004	0.000097
1650	1.6408e+02	-7.1527	-88.185174	0.000365	3.648088	0.618003	0.000073
1651	1.6418e+02	-7.1320	-88.080209	0.000527	5.269461	0.892671	0.000105
1652	1.6427e+02	-7.1124	-87.999466	0.000405	4.053431	0.686670	0.000081
1653	1.6437e+02	-7.0923	-87.959095	0.000203	2.026716	0.343335	0.000041
1654	1.6447e+02	-7.0715	-87.846055	0.000567	5.674804	0.961338	0.000114
1655	1.6457e+02	-7.0517	-87.724941	0.000608	6.080147	1.030005	0.000122
1656	1.6467e+02	-7.0331	-87.672458	0.000263	2.634730	0.446335	0.000053
1657	1.6477e+02	-7.0123	-87.591716	0.000405	4.053431	0.686670	0.000081
1658	1.6487e+02	-6.9922	-87.478676	0.000567	5.674804	0.961338	0.000114
1659	1.6497e+02	-6.9727	-87.393896	0.000426	4.256103	0.721003	0.000085
1660	1.6507e+02	-6.9531	-87.321227	0.000365	3.648088	0.618003	0.000073
1661	1.6517e+02	-6.9336	-87.204151	0.000588	5.877475	0.995671	0.000118
1662	1.6527e+02	-6.9128	-87.115334	0.000446	4.458774	0.755337	0.000089
1663	1.6537e+02	-6.8927	-87.038628	0.000385	3.850760	0.652336	0.000077
1664	1.6547e+02	-6.8738	-86.929625	0.000547	5.472132	0.927004	0.000110
1665	1.6557e+02	-6.8530	-86.869068	0.000304	3.040073	0.515002	0.000061
1666	1.6567e+02	-6.8335	-86.764103	0.000527	5.269461	0.892671	0.000105
1667	1.6577e+02	-6.8140	-86.687397	0.000385	3.850760	0.652336	0.000077
1668	1.6587e+02	-6.7938	-86.546097	0.000709	7.093505	1.201672	0.000142
1669	1.6597e+02	-6.7734	-86.489577	0.000284	2.837402	0.480669	0.000057
1670	1.6607e+02	-6.7529	-86.348278	0.000709	7.093505	1.201672	0.000142
1671	1.6616e+02	-6.7331	-86.311944	0.000182	1.824044	0.309001	0.000037
1672	1.6626e+02	-6.7142	-86.186792	0.000628	6.282818	1.064338	0.000126
1673	1.6636e+02	-6.6937	-86.077790	0.000547	5.472132	0.927004	0.000110
1674	1.6646e+02	-6.6742	-86.013195	0.000324	3.242745	0.549336	0.000065
1675	1.6656e+02	-6.6528	-85.859784	0.000770	7.701519	1.304673	0.000154
1676	1.6666e+02	-6.6345	-85.795190	0.000324	3.242745	0.549336	0.000065
1677	1.6676e+02	-6.6138	-85.690225	0.000527	5.269461	0.892671	0.000105
1678	1.6686e+02	-6.5942	-85.593333	0.000486	4.864117	0.824004	0.000097
1679	1.6696e+02	-6.5744	-85.472219	0.000608	6.080147	1.030005	0.000122
1680	1.6706e+02	-6.5546	-85.391477	0.000405	4.053431	0.686670	0.000081
1681	1.6716e+02	-6.5350	-85.294585	0.000486	4.864117	0.824004	0.000097
1682	1.6726e+02	-6.5143	-85.209805	0.000426	4.256103	0.721003	0.000085
1683	1.6736e+02	-6.4948	-85.064469	0.000730	7.296176	1.236006	0.000146
1684	1.6746e+02	-6.4749	-84.971614	0.000466	4.661446	0.789670	0.000093
1685	1.6756e+02	-6.4543	-84.878760	0.000466	4.661446	0.789670	0.000093
1686	1.6766e+02	-6.4343	-84.773795	0.000527	5.269461	0.892671	0.000105
1687	1.6776e+02	-6.4148	-84.656718	0.000588	5.877475	0.995671	0.000118
1688	1.6786e+02	-6.3947	-84.555789	0.000507	5.066789	0.858337	0.000101
1689	1.6796e+02	-6.3745	-84.446787	0.000547	5.472132	0.927004	0.000110
1690	1.6806e+02	-6.3562	-84.325673	0.000608	6.080147	1.030005	0.000122
1691	1.6816e+02	-6.3351	-84.240893	0.000426	4.256103	0.721003	0.000085
1692	1.6825e+02	-6.3153	-84.131890	0.000547	5.472132	0.927004	0.000110
1693	1.6835e+02	-6.2952	-84.026925	0.000527	5.269461	0.892671	0.000105
1694	1.6845e+02	-6.2750	-83.889662	0.000689	6.890833	1.167339	0.000138
1695	1.6855e+02	-6.2561	-83.792771	0.000486	4.864117	0.824004	0.000097
1696	1.6865e+02	-6.2354	-83.703954	0.000446	4.458774	0.755337	0.000089
1697	1.6875e+02	-6.2152	-83.578803	0.000628	6.282818	1.064338	0.000126
1698	1.6885e+02	-6.1957	-83.506134	0.000365	3.648088	0.618003	0.000073
1699	1.6895e+02	-6.1749	-83.376946	0.000649	6.485490	1.098672	0.000130
1700	1.6905e+02	-6.1560	-83.284092	0.000466	4.661446	0.789670	0.000093
1701	1.6915e+02	-6.1365	-83.146829	0.000689	6.890833	1.167339	0.000138
1702	1.6925e+02	-6.1157	-83.041864	0.000527	5.269461	0.892671	0.000105
1703	1.6935e+02	-6.0956	-82.949009	0.000466	4.661446	0.789670	0.000093
1704	1.6945e+02	-6.0760	-82.868267	0.000405	4.053431	0.686670	0.000081
1705	1.6955e+02	-6.0559	-82.722930	0.000730	7.296176	1.236006	0.000146
1706	1.6965e+02	-6.0364	-82.617964	0.000527	5.269461	0.892671	0.000105
1707	1.6975e+02	-6.0168	-82.504925	0.000567	5.674804	0.961338	0.000114
1708	1.6985e+02	-5.9967	-82.403996	0.000507	5.066789	0.858337	0.000101
1709	1.6995e+02	-5.9763	-82.266734	0.000689	6.890833	1.167339	0.000138
1710	1.7005e+02	-5.9558	-82.222325	0.000223	2.229387	0.377668	0.000045
1711	1.7015e+02	-5.9361	-82.113322	0.000547	5.472132	0.927004	0.000110
1712	1.7024e+02	-5.9152	-81.988171	0.000628	6.282818	1.064338	0.000126
1713	1.7034e+02	-5.8960	-81.846871	0.000709	7.093505	1.201672	0.000142
1714	1.7044e+02	-5.8765	-81.733832	0.000567	5.674804	0.961338	0.000114
1715	1.7054e+02	-5.8575	-81.649052	0.000426	4.256103	0.721003	0.000085
1716	1.7064e+02	-5.8368	-81.540049	0.000547	5.472132	0.927004	0.000110
1717	1.7074e+02	-5.8173	-81.422972	0.000588	5.877475	0.995671	0.000118
1718	1.7084e+02	-5.7968	-81.338192	0.000426	4.256103	0.721003	0.000085
1719	1.7094e+02	-5.7776	-81.221115	0.000588	5.877475	0.995671	0.000118
1720	1.7104e+02	-5.7568	-81.124224	0.000486	4.864117	0.824004	0.000097
1721	1.7114e+02	-5.7367	-80.999073	0.000628	6.282818	1.064338	0.000126
1722	1.7124e+02	-5.7178	-80.853736	0.000730	7.296176	1.236006	0.000146
1723	1.7134e+02	-5.6976	-80.724548	0.000649	6.485490	1.098672	0.000130
1724	1.7144e+02	-5.6772	-80.659953	0.000324	3.242745	0.549336	0.000065
1725	1.7154e+02	-5.6580	-80.494431	0.000831	8.309534	1.407673	0.000166
1726	1.7164e+02	-5.6384	-80.437911	0.000284	2.837402	0.480669	0.000057
1727	1.7174e+02	-5.6183	-80.288537	0.000750	7.498848	1.270339	0.000150
1728	1.7184e+02	-5.5975	-80.167423	0.000608	6.080147	1.030005	0.000122
1729	1.7194e+02	-5.5774	-80.106866	0.000304	3.040073	0.515002	0.000061
1730	1.7204e+02	-5.5582	-79.961529	0.000730	7.296176	1.236006	0.000146
1731	1.7213e+02	-5.5380	-79.836378	0.000628	6.282818	1.064338	0.000126
1732	1.7223e+02	-5.5173	-79.735449	0.000507	5.066789	0.858337	0.000101
1733	1.7233e+02	-5.4980	-79.622410	0.000567	5.674804	0.961338	0.000114
1734	1.7243e+02	-5.4776	-79.525518	0.000486	4.864117	0.824004	0.000097
1735	1.7253e+02	-5.4575	-79.376144	0.000750	7.498848	1.270339	0.000150
1736	1.7263e+02	-5.4381	-79.234845	0.000709	7.093505	1.201672	0.000142
1737	1.7273e+02	-5.4187	-79.150065	0.000426	4.256103	0.721003	0.000085
1738	1.7283e+02	-5.3992	-79.032988	0.000588	5.877475	0.995671	0.000118
1739	1.7293e+02	-5.3793	-78.936097	0.000486	4.864117	0.824004	0.000097
1740	1.7303e+02	-5.3583	-78.790760	0.000730	7.296176	1.236006	0.000146
1741	1.7313e+02	-5.3391	-78.669646	0.000608	6.080147	1.030005	0.000122
1742	1.7323e+02	-5.3192	-78.524309	0.000730	7.296176	1.236006	0.000146
1743	1.7333e+02	-5.2982	-78.467789	0.000284	2.837402	0.480669	0.000057
1744	1.7343e+02	-5.2786	-78.314378	0.000770	7.701519	1.304673	0.000154
1745	1.7353e+02	-5.2579	-78.221523	0.000466	4.661446	0.789670	0.000093
1746	1.7363e+02	-5.2386	-78.068112	0.000770	7.701519	1.304673	0.000154
1747	1.7373e+02	-5.2179	-77.946998	0.000608	6.080147	1.030005	0.000122
1748	1.7383e+02	-5.1993	-77.866256	0.000405	4.053431	0.686670	0.000081
1749	1.7393e+02	-5.1797	-77.720919	0.000730	7.296176	1.236006	0.000146
1750	1.7403e+02	-5.1587	-77.603842	0.000588	5.877475	0.995671	0.000118
1751	1.7413e+02	-5.1398	-77.527136	0.000385	3.850760	0.652336	0.000077
1752	1.7422e+02	-5.1196	-77.329316	0.000993	9.930906	1.682341	0.000199
1753	1.7432e+02	-5.0995	-77.252611	0.000385	3.850760	0.652336	0.000077
1754	1.7442e+02	-5.0787	-77.143608	0.000547	5.472132	0.927004	0.000110
1755	1.7452e+02	-5.0592	-77.014420	0.000649	6.485490	1.098672	0.000130
1756	1.7462e+02	-5.0394	-76.861009	0.000770	7.701519	1.304673	0.000154
1757	1.7472e+02	-5.0198	-76.747969	0.000567	5.674804	0.961338	0.000114
1758	1.7482e+02	-5.0000	-76.626855	0.000608	6.080147	1.030005	0.000122
1759	1.7492e+02	-4.9805	-76.521889	0.000527	5.269461	0.892671	0.000105
1760	1.7502e+02	-4.9594	-76.396738	0.000628	6.282818	1.064338	0.000126
1761	1.7512e+02	-4.9408	-76.279661	0.000588	5.877475	0.995671	0.000118
1762	1.7522e+02	-4.9194	-76.126250	0.000770	7.701519	1.304673	0.000154
1763	1.7532e+02	-4.9002	-76.013210	0.000567	5.674804	0.961338	0.000114
1764	1.7542e+02	-4.8798	-75.916319	0.000486	4.864117	0.824004	0.000097
1765	1.7552e+02	-4.8602	-75.807316	0.000547	5.472132	0.927004	0.000110
1766	1.7562e+02	-4.8407	-75.641794	0.000831	8.309534	1.407673	0.000166
1767	1.7572e+02	-4.8206	-75.524717	0.000588	5.877475	0.995671	0.000118
1768	1.7582e+02	-4.8010	-75.395528	0.000649	6.485490	1.098672	0.000130
1769	1.7592e+02	-4.7815	-75.294600	0.000507	5.066789	0.858337	0.000101
1770	1.7602e+02	-4.7607	-75.169449	0.000628	6.282818	1.064338	0.000126
1771	1.7612e+02	-4.7412	-75.048335	0.000608	6.080147	1.030005	0.000122
1772	1.7621e+02	-4.7205	-74.935295	0.000567	5.674804	0.961338	0.000114
1773	1.7631e+02	-4.6959	-74.806107	0.000649	6.485490	1.098672	0.000130
1774	1.7641e+02	-4.6808	-74.664807	0.000709	7.093505	1.201672	0.000142
1775	1.7651e+02	-4.6609	-74.535619	0.000649	6.485490	1.098672	0.000130
1776	1.7661e+02	-4.6405	-74.442764	0.000466	4.661446	0.789670	0.000093
1777	1.7671e+02	-4.6210	-74.313576	0.000649	6.485490	1.098672	0.000130
1778	1.7681e+02	-4.6014	-74.152091	0.000811	8.106862	1.373340	0.000162
1779	1.7691e+02	-4.5816	-74.071348	0.000405	4.053431	0.686670	0.000081
1780	1.7701e+02	-4.5618	-73.881603	0.000953	9.525563	1.613674	0.000191
1781	1.7711e+02	-4.5425	-73.800860	0.000405	4.053431	0.686670	0.000081
1782	1.7721e+02	-4.5224	-73.663597	0.000689	6.890833	1.167339	0.000138
1783	1.7731e+02	-4.5012	-73.526335	0.000689	6.890833	1.167339	0.000138
1784	1.7741e+02	-4.4812	-73.380998	0.000730	7.296176	1.236006	0.000146
1785	1.7751e+02	-4.4611	-73.284106	0.000486	4.864117	0.824004	0.000097
1786	1.7761e+02	-4.4415	-73.130695	0.000770	7.701519	1.304673	0.000154
1787	1.7771e+02	-4.4214	-72.977284	0.000770	7.701519	1.304673	0.000154
1788	1.7781e+02	-4.4012	-72.844059	0.000669	6.688161	1.133005	0.000134
1789	1.7791e+02	-4.3823	-72.690648	0.000770	7.701519	1.304673	0.000154
1790	1.7801e+02	-4.3604	-72.585682	0.000527	5.269461	0.892671	0.000105
1791	1.7810e+02	-4.3420	-72.472642	0.000567	5.674804	0.961338	0.000114
1792	1.7820e+02	-4.3219	-72.331342	0.000709	7.093505	1.201672	0.000142
1793	1.7830e+02	-4.3030	-72.181968	0.000750	7.498848	1.270339	0.000150
1794	1.7840e+02	-4.2825	-72.032594	0.000750	7.498848	1.270339	0.000150
1795	1.7850e+02	-4.2624	-71.899369	0.000669	6.688161	1.133005	0.000134
1796	1.7860e+02	-4.2432	-71.766143	0.000669	6.688161	1.133005	0.000134
1797	1.7870e+02	-4.2224	-71.632918	0.000669	6.688161	1.133005	0.000134
1798	1.7880e+02	-4.2029	-71.552175	0.000405	4.053431	0.686670	0.000081
1799	1.7890e+02	-4.1821	-71.358393	0.000973	9.728235	1.648008	0.000195
1800	1.7900e+02	-4.1623	-71.253427	0.000527	5.269461	0.892671	0.000105
1801	1.7910e+02	-4.1432	-71.140387	0.000567	5.674804	0.961338	0.000114
1802	1.7920e+02	-4.1229	-70.970828	0.000851	8.512205	1.442007	0.000170
1803	1.7930e+02	-4.1025	-70.833565	0.000689	6.890833	1.167339	0.000138
1804	1.7940e+02	-4.0823	-70.696302	0.000689	6.890833	1.167339	0.000138
1805	1.7950e+02	-4.0628	-70.526743	0.000851	8.512205	1.442007	0.000170
1806	1.7960e+02	-4.0427	-70.405629	0.000608	6.080147	1.030005	0.000122
1807	1.7970e+02	-4.0231	-70.264329	0.000709	7.093505	1.201672	0.000142
1808	1.7980e+02	-4.0027	-70.147252	0.000588	5.877475	0.995671	0.000118
1809	1.7990e+02	-3.9835	-69.989804	0.000790	7.904191	1.339006	0.000158
1810	1.8000e+02	-3.9630	-69.848504	0.000709	7.093505	1.201672	0.000142
1811	1.8009e+02	-3.9435	-69.703167	0.000730	7.296176	1.236006	0.000146
1812	1.8019e+02	-3.9240	-69.537645	0.000831	8.309534	1.407673	0.000166
1813	1.8029e+02	-3.9032	-69.456902	0.000405	4.053431	0.686670	0.000081
1814	1.8039e+02	-3.8834	-69.234859	0.001115	11.146936	1.888342	0.000223
1815	1.8049e+02	-3.8635	-69.105671	0.000649	6.485490	1.098672	0.000130
1816	1.8059e+02	-3.8434	-68.980520	0.000628	6.282818	1.064338	0.000126
1817	1.8069e+02	-3.8242	-68.859406	0.000608	6.080147	1.030005	0.000122
1818	1.8079e+02	-3.8028	-68.697920	0.000811	8.106862	1.373340	0.000162
1819	1.8089e+02	-3.7830	-68.544509	0.000770	7.701519	1.304673	0.000154
1820	1.8099e+02	-3.7640	-68.411284	0.000669	6.688161	1.133005	0.000134
1821	1.8109e+02	-3.7455	-68.298244	0.000567	5.674804	0.961338	0.000114
1822	1.8119e+02	-3.7244	-68.116573	0.000912	9.120220	1.545007	0.000183
1823	1.8129e+02	-3.7047	-67.995459	0.000608	6.080147	1.030005	0.000122
1824	1.8139e+02	-3.6850	-67.801676	0.000973	9.728235	1.648008	0.000195
1825	1.8149e+02	-3.6652	-67.664414	0.000689	6.890833	1.167339	0.000138
1826	1.8159e+02	-3.6441	-67.515040	0.000750	7.498848	1.270339	0.000150
1827	1.8169e+02	-3.6247	-67.373740	0.000709	7.093505	1.201672	0.000142
1828	1.8179e+02	-3.6050	-67.236477	0.000689	6.890833	1.167339	0.000138
1829	1.8189e+02	-3.5820	-67.119400	0.000588	5.877475	0.995671	0.000118
1830	1.8199e+02	-3.5655	-66.921581	0.000993	9.930906	1.682341	0.000199
1831	1.8209e+02	-3.5449	-66.776244	0.000730	7.296176	1.236006	0.000146
1832	1.8218e+02	-3.5254	-66.659167	0.000588	5.877475	0.995671	0.000118
1833	1.8228e+02	-3.5057	-66.493644	0.000831	8.309534	1.407673	0.000166
1834	1.8238e+02	-3.4844	-66.364456	0.000649	6.485490	1.098672	0.000130
1835	1.8248e+02	-3.4648	-66.166636	0.000993	9.930906	1.682341	0.000199
1836	1.8258e+02	-3.4451	-66.053596	0.000567	5.674804	0.961338	0.000114
1837	1.8268e+02	-3.4265	-65.892111	0.000811	8.106862	1.373340	0.000162
1838	1.8278e+02	-3.4048	-65.775034	0.000588	5.877475	0.995671	0.000118
1839	1.8288e+02	-3.3855	-65.577214	0.000993	9.930906	1.682341	0.000199
1840	1.8298e+02	-3.3649	-65.443989	0.000669	6.688161	1.133005	0.000134
1841	1.8308e+02	-3.3459	-65.302689	0.000709	7.093505	1.201672	0.000142
1842	1.8318e+02	-3.3255	-65.108907	0.000973	9.728235	1.648008	0.000195
1843	1.8328e+02	-3.3066	-64.991830	0.000588	5.877475	0.995671	0.000118
1844	1.8338e+02	-3.2861	-64.818233	0.000871	8.714877	1.476340	0.000174
1845	1.8348e+02	-3.2656	-64.689044	0.000649	6.485490	1.098672	0.000130
1846	1.8358e+02	-3.2462	-64.547745	0.000709	7.093505	1.201672	0.000142
1847	1.8368e+02	-3.2263	-64.374148	0.000871	8.714877	1.476340	0.000174
1848	1.8378e+02	-3.2062	-64.188440	0.000932	9.322892	1.579341	0.000187
1849	1.8388e+02	-3.1857	-64.043103	0.000730	7.296176	1.236006	0.000146
1850	1.8398e+02	-3.1665	-63.861432	0.000912	9.120220	1.545007	0.000183
1851	1.8407e+02	-3.1458	-63.712058	0.000750	7.498848	1.270339	0.000150
1852	1.8417e+02	-3.1259	-63.578832	0.000669	6.688161	1.133005	0.000134
1853	1.8427e+02	-3.1061	-63.413310	0.000831	8.309534	1.407673	0.000166
1854	1.8437e+02	-3.0865	-63.243750	0.000851	8.512205	1.442007	0.000170
1855	1.8447e+02	-3.0667	-63.146859	0.000486	4.864117	0.824004	0.000097
1856	1.8457e+02	-3.0469	-62.957113	0.000953	9.525563	1.613674	0.000191
1857	1.8467e+02	-3.0258	-62.783516	0.000871	8.714877	1.476340	0.000174
1858	1.8477e+02	-3.0058	-62.569548	0.001074	10.741593	1.819675	0.000215
1859	1.8487e+02	-2.9865	-62.444397	0.000628	6.282818	1.064338	0.000126
1860	1.8497e+02	-2.9663	-62.290986	0.000770	7.701519	1.304673	0.000154
1861	1.8507e+02	-2.9489	-62.089129	0.001013	10.133578	1.716675	0.000203
1862	1.8517e+02	-2.9276	-61.980126	0.000547	5.472132	0.927004	0.000110
1863	1.8527e+02	-2.9074	-61.830752	0.000750	7.498848	1.270339	0.000150
1864	1.8537e+02	-2.8870	-61.636970	0.000973	9.728235	1.648008	0.000195
1865	1.8547e+02	-2.8664	-61.491633	0.000730	7.296176	1.236006	0.000146
1866	1.8557e+02	-2.8465	-61.358408	0.000669	6.688161	1.133005	0.000134
1867	1.8567e+02	-2.8268	-61.148476	0.001054	10.538921	1.785342	0.000211
1868	1.8577e+02	-2.8079	-61.011214	0.000689	6.890833	1.167339	0.000138
1869	1.8587e+02	-2.7875	-60.882025	0.000649	6.485490	1.098672	0.000130
1870	1.8597e+02	-2.7679	-60.720540	0.000811	8.106862	1.373340	0.000162
1871	1.8606e+02	-2.7466	-60.555018	0.000831	8.309534	1.407673	0.000166
1872	1.8616e+02	-2.7277	-60.381421	0.000871	8.714877	1.476340	0.000174
1873	1.8626e+02	-2.7072	-60.240121	0.000709	7.093505	1.201672	0.000142
1874	1.8636e+02	-2.6874	-60.046338	0.000973	9.728235	1.648008	0.000195
1875	1.8646e+02	-2.6678	-59.905039	0.000709	7.093505	1.201672	0.000142
1876	1.8656e+02	-2.6471	-59.731442	0.000871	8.714877	1.476340	0.000174
1877	1.8666e+02	-2.6282	-59.598216	0.000669	6.688161	1.133005	0.000134
1878	1.8676e+02	-2.6065	-59.396360	0.001013	10.133578	1.716675	0.000203
1879	1.8686e+02	-2.5879	-59.275245	0.000608	6.080147	1.030005	0.000122
1880	1.8696e+02	-2.5677	-59.077426	0.000993	9.930906	1.682341	0.000199
1881	1.8706e+02	-2.5482	-58.915940	0.000811	8.106862	1.373340	0.000162
1882	1.8716e+02	-2.5284	-58.754455	0.000811	8.106862	1.373340	0.000162
1883	1.8726e+02	-2.5088	-58.568747	0.000932	9.322892	1.579341	0.000187
1884	1.8736e+02	-2.4890	-58.455707	0.000567	5.674804	0.961338	0.000114
1885	1.8746e+02	-2.4689	-58.282110	0.000871	8.714877	1.476340	0.000174
1886	1.8756e+02	-2.4495	-58.116588	0.000831	8.309534	1.407673	0.000166
1887	1.8766e+02	-2.4292	-57.951065	0.000831	8.309534	1.407673	0.000166
1888	1.8776e+02	-2.4094	-57.785542	0.000831	8.309534	1.407673	0.000166
1889	1.8786e+02	-2.3907	-57.624057	0.000811	8.106862	1.373340	0.000162
1890	1.8796e+02	-2.3690	-57.458534	0.000831	8.309534	1.407673	0.000166
1891	1.8806e+02	-2.3489	-57.313198	0.000730	7.296176	1.236006	0.000146
1892	1.8815e+02	-2.3288	-57.115378	0.000993	9.930906	1.682341	0.000199
1893	1.8825e+02	-2.3090	-56.986190	0.000649	6.485490	1.098672	0.000130
1894	1.8835e+02	-2.2900	-56.784333	0.001013	10.133578	1.716675	0.000203
1895	1.8845e+02	-2.2705	-56.659182	0.000628	6.282818	1.064338	0.000126
1896	1.8855e+02	-2.2493	-56.449250	0.001054	10.538921	1.785342	0.000211
1897	1.8865e+02	-2.2293	-56.336211	0.000567	5.674804	0.961338	0.000114
1898	1.8875e+02	-2.2096	-56.150502	0.000932	9.322892	1.579341	0.000187
1899	1.8885e+02	-2.1899	-55.968831	0.000912	9.120220	1.545007	0.000183
1900	1.8895e+02	-2.1698	-55.871940	0.000486	4.864117	0.824004	0.000097
1901	1.8905e+02	-2.1509	-55.657972	0.001074	10.741593	1.819675	0.000215
1902	1.8915e+02	-2.1300	-55.512635	0.000730	7.296176	1.236006	0.000146
1903	1.8925e+02	-2.1097	-55.306741	0.001034	10.336249	1.751008	0.000207
1904	1.8935e+02	-2.0902	-55.153330	0.000770	7.701519	1.304673	0.000154
1905	1.8945e+02	-2.0691	-54.955510	0.000993	9.930906	1.682341	0.000199
1906	1.8955e+02	-2.0512	-54.777876	0.000892	8.917549	1.510674	0.000179
1907	1.8965e+02	-2.0300	-54.648688	0.000649	6.485490	1.098672	0.000130
1908	1.8975e+02	-2.0099	-54.475091	0.000871	8.714877	1.476340	0.000174
1909	1.8985e+02	-1.9902	-54.329754	0.000730	7.296176	1.236006	0.000146
1910	1.8995e+02	-1.9708	-54.127897	0.001013	10.133578	1.716675	0.000203
1911	1.9004e+02	-1.9504	-53.974486	0.000770	7.701519	1.304673	0.000154
1912	1.9014e+02	-1.9302	-53.792815	0.000912	9.120220	1.545007	0.000183
1913	1.9024e+02	-1.9108	-53.643441	0.000750	7.498848	1.270339	0.000150
1914	1.9034e+02	-1.8909	-53.437547	0.001034	10.336249	1.751008	0.000207
1915	1.9044e+02	-1.8716	-53.316433	0.000608	6.080147	1.030005	0.000122
1916	1.9054e+02	-1.8505	-53.098428	0.001094	10.944264	1.854009	0.000219
1917	1.9064e+02	-1.8304	-52.949054	0.000750	7.498848	1.270339	0.000150
1918	1.9074e+02	-1.8120	-52.779494	0.000851	8.512205	1.442007	0.000170
1919	1.9084e+02	-1.7906	-52.630120	0.000750	7.498848	1.270339	0.000150
1920	1.9094e+02	-1.7712	-52.452486	0.000892	8.917549	1.510674	0.000179
1921	1.9104e+02	-1.7503	-52.258704	0.000973	9.728235	1.648008	0.000195
1922	1.9114e+02	-1.7306	-52.085107	0.000871	8.714877	1.476340	0.000174
1923	1.9124e+02	-1.7117	-51.899398	0.000932	9.322892	1.579341	0.000187
1924	1.9134e+02	-1.6915	-51.750024	0.000750	7.498848	1.270339	0.000150
1925	1.9144e+02	-1.6711	-51.552205	0.000993	9.930906	1.682341	0.000199
1926	1.9154e+02	-1.6513	-51.418979	0.000669	6.688161	1.133005	0.000134
1927	1.9164e+02	-1.6305	-51.200974	0.001094	10.944264	1.854009	0.000219
1928	1.9174e+02	-1.6115	-51.039489	0.000811	8.106862	1.373340	0.000162
1929	1.9184e+02	-1.5910	-50.910300	0.000649	6.485490	1.098672	0.000130
1930	1.9194e+02	-1.5733	-50.700369	0.001054	10.538921	1.785342	0.000211
1931	1.9203e+02	-1.5521	-50.542921	0.000790	7.904191	1.339006	0.000158
1932	1.9213e+02	-1.5322	-50.393547	0.000750	7.498848	1.270339	0.000150
1933	1.9223e+02	-1.5118	-50.187653	0.001034	10.336249	1.751008	0.000207
1934	1.9233e+02	-1.4930	-50.018093	0.000851	8.512205	1.442007	0.000170
1935	1.9243e+02	-1.4719	-49.844496	0.000871	8.714877	1.476340	0.000174
1936	1.9253e+02	-1.4514	-49.691085	0.000770	7.701519	1.304673	0.000154
1937	1.9263e+02	-1.4325	-49.493266	0.000993	9.930906	1.682341	0.000199
1938	1.9273e+02	-1.4120	-49.327743	0.000831	8.309534	1.407673	0.000166
1939	1.9283e+02	-1.3925	-49.125886	0.001013	10.133578	1.716675	0.000203
1940	1.9293e+02	-1.3725	-48.932104	0.000973	9.728235	1.648008	0.000195
1941	1.9303e+02	-1.3528	-48.839250	0.000466	4.661446	0.789670	0.000093
1942	1.9313e+02	-1.3332	-48.665653	0.000871	8.714877	1.476340	0.000174
1943	1.9323e+02	-1.3116	-48.439573	0.001135	11.349607	1.922676	0.000227
1944	1.9333e+02	-1.2927	-48.314422	0.000628	6.282818	1.064338	0.000126
1945	1.9343e+02	-1.2732	-48.116602	0.000993	9.930906	1.682341	0.000199
1946	1.9353e+02	-1.2537	-47.951080	0.000831	8.309534	1.407673	0.000166
1947	1.9363e+02	-1.2338	-47.741149	0.001054	10.538921	1.785342	0.000211
1948	1.9373e+02	-1.2139	-47.575626	0.000831	8.309534	1.407673	0.000166
1949	1.9383e+02	-1.1932	-47.385881	0.000953	9.525563	1.613674	0.000191
1950	1.9393e+02	-1.1735	-47.224395	0.000811	8.106862	1.373340	0.000162
1951	1.9403e+02	-1.1539	-47.050798	0.000871	8.714877	1.476340	0.000174
1952	1.9412e+02	-1.1332	-46.889313	0.000811	8.106862	1.373340	0.000162
1953	1.9422e+02	-1.1143	-46.687456	0.001013	10.133578	1.716675	0.000203
1954	1.9432e+02	-1.0938	-46.513859	0.000871	8.714877	1.476340	0.000174
1955	1.9442e+02	-1.0744	-46.344300	0.000851	8.512205	1.442007	0.000170
1956	1.9452e+02	-1.0537	-46.170703	0.000871	8.714877	1.476340	0.000174
1957	1.9462e+02	-1.0329	-45.948660	0.001115	11.146936	1.888342	0.000223
1958	1.9472e+02	-1.0144	-45.779101	0.000851	8.512205	1.442007	0.000170
1959	1.9482e+02	-0.9945	-45.605504	0.000871	8.714877	1.476340	0.000174
1960	1.9492e+02	-0.9747	-45.399610	0.001034	10.336249	1.751008	0.000207
1961	1.9502e+02	-0.9538	-45.209865	0.000953	9.525563	1.613674	0.000191
1962	1.9512e+02	-0.9335	-45.040305	0.000851	8.512205	1.442007	0.000170
1963	1.9522e+02	-0.9151	-44.842485	0.000993	9.930906	1.682341	0.000199
1964	1.9532e+02	-0.8942	-44.676963	0.000831	8.309534	1.407673	0.000166
1965	1.9542e+02	-0.8746	-44.487217	0.000953	9.525563	1.613674	0.000191
1966	1.9552e+02	-0.8538	-44.297472	0.000953	9.525563	1.613674	0.000191
1967	1.9562e+02	-0.8347	-44.095615	0.001013	10.133578	1.716675	0.000203
1968	1.9572e+02	-0.8147	-43.901833	0.000973	9.728235	1.648008	0.000195
1969	1.9582e+02	-0.7952	-43.699976	0.001013	10.133578	1.716675	0.000203
1970	1.9592e+02	-0.7742	-43.546565	0.000770	7.701519	1.304673	0.000154
1971	1.9601e+02	-0.7551	-43.397191	0.000750	7.498848	1.270339	0.000150
1972	1.9611e+02	-0.7347	-43.150925	0.001236	12.362965	2.094343	0.000248
1973	1.9621e+02	-0.7148	-43.017700	0.000669	6.688161	1.133005	0.000134
1974	1.9631e+02	-0.6951	-42.807769	0.001054	10.538921	1.785342	0.000211
1975	1.9641e+02	-0.6750	-42.589763	0.001094	10.944264	1.854009	0.000219
1976	1.9651e+02	-0.6543	-42.436352	0.000770	7.701519	1.304673	0.000154
1977	1.9661e+02	-0.6351	-42.242570	0.000973	9.728235	1.648008	0.000195
1978	1.9671e+02	-0.6150	-42.101270	0.000709	7.093505	1.201672	0.000142
1979	1.9681e+02	-0.5951	-41.879228	0.001115	11.146936	1.888342	0.000223
1980	1.9691e+02	-0.5757	-41.636999	0.001216	12.160294	2.060009	0.000243
1981	1.9701e+02	-0.5559	-41.479551	0.000790	7.904191	1.339006	0.000158
1982	1.9711e+02	-0.5352	-41.253472	0.001135	11.349607	1.922676	0.000227
1983	1.9721e+02	-0.5153	-41.075838	0.000892	8.917549	1.510674	0.000179
1984	1.9731e+02	-0.4950	-40.910315	0.000831	8.309534	1.407673	0.000166
1985	1.9741e+02	-0.4765	-40.692310	0.001094	10.944264	1.854009	0.000219
1986	1.9751e+02	-0.4556	-40.514676	0.000892	8.917549	1.510674	0.000179
1987	1.9761e+02	-0.4358	-40.296670	0.001094	10.944264	1.854009	0.000219
1988	1.9771e+02	-0.4160	-40.114999	0.000912	9.120220	1.545007	0.000183
1989	1.9781e+02	-0.3968	-39.945440	0.000851	8.512205	1.442007	0.000170
1990	1.9791e+02	-0.3758	-39.751657	0.000973	9.728235	1.648008	0.000195
1991	1.9800e+02	-0.3561	-39.525577	0.001135	11.349607	1.922676	0.000227
1992	1.9810e+02	-0.3364	-39.343906	0.000912	9.120220	1.545007	0.000183
1993	1.9820e+02	-0.3156	-39.178384	0.000831	8.309534	1.407673	0.000166
1994	1.9830e+02	-0.2958	-38.968453	0.001054	10.538921	1.785342	0.000211
1995	1.9840e+02	-0.2763	-38.782744	0.000932	9.322892	1.579341	0.000187
1996	1.9850e+02	-0.2561	-38.601073	0.000912	9.120220	1.545007	0.000183
1997	1.9860e+02	-0.2361	-38.395179	0.001034	10.336249	1.751008	0.000207
1998	1.9870e+02	-0.2161	-38.189286	0.001034	10.336249	1.751008	0.000207
1999	1.9880e+02	-0.1968	-37.999540	0.000953	9.525563	1.613674	0.000191
2000	1.9890e+02	-0.1764	-37.825943	0.000871	8.714877	1.476340	0.000174
2001	1.9900e+02	-0.1572	-37.620049	0.001034	10.336249	1.751008	0.000207
2002	1.9910e+02	-0.1357	-37.410118	0.001054	10.538921	1.785342	0.000211
2003	1.9920e+02	-0.1173	-37.276893	0.000669	6.688161	1.133005	0.000134
2004	1.9930e+02	-0.0963	-37.042739	0.001175	11.754950	1.991343	0.000235
2005	1.9940e+02	-0.0771	-36.840882	0.001013	10.133578	1.716675	0.000203
2006	1.9950e+02	-0.0569	-36.639025	0.001013	10.133578	1.716675	0.000203
2007	1.9960e+02	-0.0367	-36.461391	0.000892	8.917549	1.510674	0.000179
2008	1.9970e+02	-0.0172	-36.259535	0.001013	10.133578	1.716675	0.000203
2009	1.9980e+02	0.0008	-36.089975	0.001013	10.133578	1.716675	0.000170

PMax (uC/cm2):	7.84e+01
Pr (uC/cm2):	1.15e+01
-Pr (uC/cm2):	-4.97e+01
PLoss (uC/cm2):	-4.97e+01
-Vc:	-1.21e+00
C (Max-Eff) (nF):	7.84e-01
K (Eff):	1.33e+03
Vert. (+/-Pr) Shift (uC/cm2):	-1.91e+01
Offset (uC/cm2):	-1.36e+01

A (Loop Area - uC/cm2·Volts):	-2.76e-01



Hysteresis Version: 5.48.1 - Radiant Technologies, Inc., 1999 - 9/12/24

