»»»»»»»»»»»»»»»»»»»»»»»»»»»»»»»»»»»» Hysteresis ««««««««««««««««««««««««««««««««««««
»»»  Executed Version:	5.48.1
»»»  Vision Version:	5.48.4 (R)
»»»  Vision Compiled:	9/18/24
»»»  Driver Version:	5.47.0
»»»  Windows Version:	Windows 8 or 8.1
»»»  Processor Information:	x86 (AMD or Intel) - 32 Processors
»»»  Tester Name:	PMF21124-494 (100V)
»»»  Tester S/N:	PMF21124-494
»»»  Internal Amp Type:	100V RevK 270k
»»»  Internal Amp S/N:	iAB2-596/K     
»»»  Execution Count:	1
»»»»»»»»»»»»»»»»»»»»»»»»»»»»»»»»»»»»»»»»»»««««««««««««««««««««««««««««««««««««««««««

Stored:	7/2/2025 - 13:44:33
Configured:	07/02/25 01:35:59 PM
Executed:	07/02/25 01:43:33 PM

»»»»»»»»»»»»»»»»»»»»»»»»»»»»»»»»»»» Sample Info ««««««««««««««««««««««««««««««««««««
Sample Name:	
Lot Name:	
Wafer Name:	
Die Row/Column:	0/0
Capacitor Number:	0
Sample Area (cm2):	1.00e-04
Sample Thickness (microns):	1.50e-01

Amplifier:	Internal

»»»»»»»»»»»»»»»»»»»»»»»»»»»»»»»»»»» Tester Info «««««««««««««««««««««««««««««««««««
Tester Name:	PMF21124-494 (100V)
Tester Serial Number:	PMF21124-494
Return Signal Amp. Level:	0.19 [Index: 3]

»»»»»»»»»»»»»»»»»»»»»»»»»»»»»»»» Hysteresis Info ««««««««««««««««««««««««««««««««««
Task Name:	Hyst-220
Volts:	10.00
Field:	666.67 (kV/cm)
DCBias:	0.00
DCField:	0.00 (kV/cm)
Hysteresis Period (ms):	2.00e+02
Preset:	Enabled
Preset Delay (ms):	1.00e+03
Profile:	Standard Bipolar

»»»»»»»»»»»»»»»»»»»»»»»»»»»»»»»»»»»»»» Data «««««««««««««««««««««««««««««««««««««««
Points:	2009

Valid Data

Point	Time (ms)	Drive Voltage	Measured Polarization (uC/cm2)	Capacitance (uF)	Normalized Capacitance (uF/cm2)	Dielectric Constant	Instantaneous Current (mA)
   1	0.0000e+00	0.0024	19.394400	0.000770	7.701490	1.304668	0.000154
   2	9.9500e-02	0.0211	19.547811	0.000770	7.701490	1.304668	0.000154
   3	1.9900e-01	0.0411	19.713334	0.000831	8.309502	1.407668	0.000166
   4	2.9850e-01	0.0598	19.866745	0.000770	7.701490	1.304668	0.000154
   5	3.9800e-01	0.0801	20.012082	0.000730	7.296148	1.236001	0.000146
   6	4.9750e-01	0.1005	20.185679	0.000871	8.714844	1.476335	0.000174
   7	5.9700e-01	0.1209	20.298718	0.000567	5.674782	0.961334	0.000114
   8	6.9650e-01	0.1405	20.492501	0.000973	9.728198	1.648001	0.000195
   9	7.9600e-01	0.1583	20.670135	0.000892	8.917515	1.510668	0.000179
  10	8.9550e-01	0.1807	20.803360	0.000669	6.688136	1.133001	0.000134
  11	9.9500e-01	0.2003	20.968883	0.000831	8.309502	1.407668	0.000166
  12	1.0945e+00	0.2201	21.126331	0.000790	7.904161	1.339001	0.000158
  13	1.1940e+00	0.2401	21.312040	0.000932	9.322856	1.579335	0.000187
  14	1.2935e+00	0.2599	21.469488	0.000790	7.904161	1.339001	0.000158
  15	1.3930e+00	0.2805	21.614825	0.000730	7.296148	1.236001	0.000146
  16	1.4925e+00	0.2998	21.764199	0.000750	7.498819	1.270334	0.000150
  17	1.5920e+00	0.3201	21.925684	0.000811	8.106831	1.373334	0.000162
  18	1.6915e+00	0.3392	22.087170	0.000811	8.106831	1.373334	0.000162
  19	1.7910e+00	0.3596	22.244618	0.000790	7.904161	1.339001	0.000158
  20	1.8905e+00	0.3795	22.414178	0.000851	8.512173	1.442001	0.000170
  21	1.9900e+00	0.3993	22.535292	0.000608	6.080124	1.030001	0.000122
  22	2.0895e+00	0.4193	22.696777	0.000811	8.106831	1.373334	0.000162
  23	2.1890e+00	0.4390	22.886522	0.000953	9.525527	1.613668	0.000191
  24	2.2885e+00	0.4597	23.076268	0.000953	9.525527	1.613668	0.000191
  25	2.3880e+00	0.4787	23.185271	0.000547	5.472111	0.927001	0.000110
  26	2.4875e+00	0.4990	23.362905	0.000892	8.917515	1.510668	0.000179
  27	2.5870e+00	0.5194	23.532464	0.000851	8.512173	1.442001	0.000170
  28	2.6865e+00	0.5389	23.697987	0.000831	8.309502	1.407668	0.000166
  29	2.7860e+00	0.5598	23.851398	0.000770	7.701490	1.304668	0.000154
  30	2.8855e+00	0.5787	24.037106	0.000932	9.322856	1.579335	0.000187
  31	2.9850e+00	0.5987	24.182443	0.000730	7.296148	1.236001	0.000146
  32	3.0845e+00	0.6193	24.364114	0.000912	9.120185	1.545001	0.000183
  33	3.1840e+00	0.6396	24.537711	0.000871	8.714844	1.476335	0.000174
  34	3.2835e+00	0.6583	24.679011	0.000709	7.093477	1.201668	0.000142
  35	3.3830e+00	0.6786	24.856645	0.000892	8.917515	1.510668	0.000179
  36	3.4825e+00	0.6983	24.993907	0.000689	6.890807	1.167334	0.000138
  37	3.5820e+00	0.7183	25.191727	0.000993	9.930868	1.682335	0.000199
  38	3.6815e+00	0.7377	25.361287	0.000851	8.512173	1.442001	0.000170
  39	3.7810e+00	0.7582	25.510661	0.000750	7.498819	1.270334	0.000150
  40	3.8805e+00	0.7779	25.680220	0.000851	8.512173	1.442001	0.000170
  41	3.9800e+00	0.7977	25.865929	0.000932	9.322856	1.579335	0.000187
  42	4.0795e+00	0.8181	26.015303	0.000750	7.498819	1.270334	0.000150
  43	4.1790e+00	0.8382	26.196974	0.000912	9.120185	1.545001	0.000183
  44	4.2785e+00	0.8579	26.354422	0.000790	7.904161	1.339001	0.000158
  45	4.3780e+00	0.8782	26.528019	0.000871	8.714844	1.476335	0.000174
  46	4.4775e+00	0.8976	26.741987	0.001074	10.741552	1.819668	0.000215
  47	4.5770e+00	0.9178	26.867138	0.000628	6.282794	1.064334	0.000126
  48	4.6765e+00	0.9371	27.040735	0.000871	8.714844	1.476335	0.000174
  49	4.7760e+00	0.9576	27.190109	0.000750	7.498819	1.270334	0.000150
  50	4.8755e+00	0.9778	27.347557	0.000790	7.904161	1.339001	0.000158
  51	4.9750e+00	0.9969	27.581711	0.001175	11.754906	1.991335	0.000235
  52	5.0745e+00	1.0177	27.759345	0.000892	8.917515	1.510668	0.000179
  53	5.1740e+00	1.0379	27.928905	0.000851	8.512173	1.442001	0.000170
  54	5.2735e+00	1.0567	28.070205	0.000709	7.093477	1.201668	0.000142
  55	5.3730e+00	1.0769	28.268024	0.000993	9.930868	1.682335	0.000199
  56	5.4725e+00	1.0969	28.441621	0.000871	8.714844	1.476335	0.000174
  57	5.5720e+00	1.1181	28.590995	0.000750	7.498819	1.270334	0.000150
  58	5.6715e+00	1.1371	28.780741	0.000953	9.525527	1.613668	0.000191
  59	5.7710e+00	1.1581	28.897818	0.000588	5.877453	0.995667	0.000118
  60	5.8705e+00	1.1771	29.075452	0.000892	8.917515	1.510668	0.000179
  61	5.9700e+00	1.1977	29.261160	0.000932	9.322856	1.579335	0.000187
  62	6.0695e+00	1.2160	29.454942	0.000973	9.728198	1.648001	0.000195
  63	6.1690e+00	1.2362	29.652762	0.000993	9.930868	1.682335	0.000199
  64	6.2685e+00	1.2569	29.806173	0.000770	7.701490	1.304668	0.000154
  65	6.3680e+00	1.2756	29.967659	0.000811	8.106831	1.373334	0.000162
  66	6.4675e+00	1.2962	30.145293	0.000892	8.917515	1.510668	0.000179
  67	6.5670e+00	1.3152	30.318889	0.000871	8.714844	1.476335	0.000174
  68	6.6665e+00	1.3356	30.496523	0.000892	8.917515	1.510668	0.000179
  69	6.7660e+00	1.3560	30.710492	0.001074	10.741552	1.819668	0.000215
  70	6.8655e+00	1.3754	30.876014	0.000831	8.309502	1.407668	0.000166
  71	6.9650e+00	1.3964	31.017314	0.000709	7.093477	1.201668	0.000142
  72	7.0645e+00	1.4152	31.207059	0.000953	9.525527	1.613668	0.000191
  73	7.1640e+00	1.4358	31.388730	0.000912	9.120185	1.545001	0.000183
  74	7.2635e+00	1.4552	31.578476	0.000953	9.525527	1.613668	0.000191
  75	7.3630e+00	1.4748	31.748035	0.000851	8.512173	1.442001	0.000170
  76	7.4625e+00	1.4960	31.929707	0.000912	9.120185	1.545001	0.000183
  77	7.5620e+00	1.5148	32.131563	0.001013	10.133539	1.716668	0.000203
  78	7.6615e+00	1.5346	32.268826	0.000689	6.890807	1.167334	0.000138
  79	7.7610e+00	1.5549	32.458571	0.000953	9.525527	1.613668	0.000191
  80	7.8605e+00	1.5752	32.640242	0.000912	9.120185	1.545001	0.000183
  81	7.9600e+00	1.5954	32.842099	0.001013	10.133539	1.716668	0.000203
  82	8.0595e+00	1.6146	32.975325	0.000669	6.688136	1.133001	0.000134
  83	8.1590e+00	1.6351	33.177181	0.001013	10.133539	1.716668	0.000203
  84	8.2585e+00	1.6546	33.387113	0.001054	10.538881	1.785335	0.000211
  85	8.3580e+00	1.6746	33.544561	0.000790	7.904161	1.339001	0.000158
  86	8.4575e+00	1.6943	33.718158	0.000871	8.714844	1.476335	0.000174
  87	8.5570e+00	1.7147	33.863495	0.000730	7.296148	1.236001	0.000146
  88	8.6565e+00	1.7348	34.057277	0.000973	9.728198	1.648001	0.000195
  89	8.7560e+00	1.7537	34.259134	0.001013	10.133539	1.716668	0.000203
  90	8.8555e+00	1.7739	34.420619	0.000811	8.106831	1.373334	0.000162
  91	8.9550e+00	1.7944	34.606328	0.000932	9.322856	1.579335	0.000187
  92	9.0545e+00	1.8149	34.759739	0.000770	7.701490	1.304668	0.000154
  93	9.1540e+00	1.8345	35.001967	0.001216	12.160247	2.060002	0.000243
  94	9.2535e+00	1.8542	35.175564	0.000871	8.714844	1.476335	0.000174
  95	9.3530e+00	1.8743	35.341086	0.000831	8.309502	1.407668	0.000166
  96	9.4525e+00	1.8929	35.506609	0.000831	8.309502	1.407668	0.000166
  97	9.5520e+00	1.9143	35.708466	0.001013	10.133539	1.716668	0.000203
  98	9.6515e+00	1.9341	35.914360	0.001034	10.336210	1.751001	0.000207
  99	9.7510e+00	1.9529	36.059696	0.000730	7.296148	1.236001	0.000146
 100	9.8505e+00	1.9738	36.237330	0.000892	8.917515	1.510668	0.000179
 101	9.9500e+00	1.9933	36.443224	0.001034	10.336210	1.751001	0.000207
 102	1.0050e+01	2.0124	36.620858	0.000892	8.917515	1.510668	0.000179
 103	1.0149e+01	2.0330	36.802529	0.000912	9.120185	1.545001	0.000183
 104	1.0248e+01	2.0544	37.008423	0.001034	10.336210	1.751001	0.000207
 105	1.0348e+01	2.0730	37.145686	0.000689	6.890807	1.167334	0.000138
 106	1.0447e+01	2.0948	37.359654	0.001074	10.741552	1.819668	0.000215
 107	1.0547e+01	2.1133	37.496917	0.000689	6.890807	1.167334	0.000138
 108	1.0646e+01	2.1331	37.666476	0.000851	8.512173	1.442001	0.000170
 109	1.0746e+01	2.1526	37.872370	0.001034	10.336210	1.751001	0.000207
 110	1.0845e+01	2.1731	38.082301	0.001054	10.538881	1.785335	0.000211
 111	1.0945e+01	2.1941	38.247824	0.000831	8.309502	1.407668	0.000166
 112	1.1044e+01	2.2132	38.449681	0.001013	10.133539	1.716668	0.000203
 113	1.1144e+01	2.2321	38.607129	0.000790	7.904161	1.339001	0.000158
 114	1.1243e+01	2.2529	38.784763	0.000892	8.917515	1.510668	0.000179
 115	1.1343e+01	2.2727	38.994694	0.001054	10.538881	1.785335	0.000211
 116	1.1443e+01	2.2929	39.156180	0.000811	8.106831	1.373334	0.000162
 117	1.1542e+01	2.3116	39.341888	0.000932	9.322856	1.579335	0.000187
 118	1.1642e+01	2.3322	39.507410	0.000831	8.309502	1.407668	0.000166
 119	1.1741e+01	2.3524	39.709267	0.001013	10.133539	1.716668	0.000203
 120	1.1841e+01	2.3724	39.866715	0.000790	7.904161	1.339001	0.000158
 121	1.1940e+01	2.3918	40.068572	0.001013	10.133539	1.716668	0.000203
 122	1.2040e+01	2.4126	40.197761	0.000649	6.485465	1.098668	0.000130
 123	1.2139e+01	2.4322	40.399617	0.001013	10.133539	1.716668	0.000203
 124	1.2239e+01	2.4520	40.613586	0.001074	10.741552	1.819668	0.000215
 125	1.2338e+01	2.4707	40.783145	0.000851	8.512173	1.442001	0.000170
 126	1.2438e+01	2.4920	40.964816	0.000912	9.120185	1.545001	0.000183
 127	1.2537e+01	2.5118	41.138413	0.000871	8.714844	1.476335	0.000174
 128	1.2636e+01	2.5328	41.303936	0.000831	8.309502	1.407668	0.000166
 129	1.2736e+01	2.5515	41.513867	0.001054	10.538881	1.785335	0.000211
 130	1.2835e+01	2.5713	41.647092	0.000669	6.688136	1.133001	0.000134
 131	1.2935e+01	2.5912	41.844912	0.000993	9.930868	1.682335	0.000199
 132	1.3034e+01	2.6110	42.018509	0.000871	8.714844	1.476335	0.000174
 133	1.3134e+01	2.6305	42.167883	0.000750	7.498819	1.270334	0.000150
 134	1.3233e+01	2.6513	42.373777	0.001034	10.336210	1.751001	0.000207
 135	1.3333e+01	2.6705	42.486817	0.000567	5.674782	0.961334	0.000114
 136	1.3432e+01	2.6910	42.688673	0.001013	10.133539	1.716668	0.000203
 137	1.3532e+01	2.7108	42.890530	0.001013	10.133539	1.716668	0.000203
 138	1.3632e+01	2.7308	43.080275	0.000953	9.525527	1.613668	0.000191
 139	1.3731e+01	2.7509	43.253872	0.000871	8.714844	1.476335	0.000174
 140	1.3831e+01	2.7709	43.419395	0.000831	8.309502	1.407668	0.000166
 141	1.3930e+01	2.7911	43.617215	0.000993	9.930868	1.682335	0.000199
 142	1.4030e+01	2.8123	43.802923	0.000932	9.322856	1.579335	0.000187
 143	1.4129e+01	2.8307	43.964408	0.000811	8.106831	1.373334	0.000162
 144	1.4229e+01	2.8509	44.158191	0.000973	9.728198	1.648001	0.000195
 145	1.4328e+01	2.8692	44.299490	0.000709	7.093477	1.201668	0.000142
 146	1.4428e+01	2.8902	44.497310	0.000993	9.930868	1.682335	0.000199
 147	1.4527e+01	2.9105	44.678981	0.000912	9.120185	1.545001	0.000183
 148	1.4627e+01	2.9305	44.852578	0.000871	8.714844	1.476335	0.000174
 149	1.4726e+01	2.9504	44.997915	0.000730	7.296148	1.236001	0.000146
 150	1.4825e+01	2.9702	45.187660	0.000953	9.525527	1.613668	0.000191
 151	1.4925e+01	2.9893	45.373369	0.000932	9.322856	1.579335	0.000187
 152	1.5024e+01	3.0105	45.551003	0.000892	8.917515	1.510668	0.000179
 153	1.5124e+01	3.0296	45.740748	0.000953	9.525527	1.613668	0.000191
 154	1.5223e+01	3.0497	45.886085	0.000730	7.296148	1.236001	0.000146
 155	1.5323e+01	3.0694	46.079867	0.000973	9.728198	1.648001	0.000195
 156	1.5422e+01	3.0892	46.241353	0.000811	8.106831	1.373334	0.000162
 157	1.5522e+01	3.1106	46.398801	0.000790	7.904161	1.339001	0.000158
 158	1.5621e+01	3.1298	46.604695	0.001034	10.336210	1.751001	0.000207
 159	1.5721e+01	3.1507	46.733883	0.000649	6.485465	1.098668	0.000130
 160	1.5820e+01	3.1686	46.943814	0.001054	10.538881	1.785335	0.000211
 161	1.5920e+01	3.1887	47.133560	0.000953	9.525527	1.613668	0.000191
 162	1.6020e+01	3.2084	47.282934	0.000750	7.498819	1.270334	0.000150
 163	1.6119e+01	3.2285	47.456531	0.000871	8.714844	1.476335	0.000174
 164	1.6218e+01	3.2497	47.577645	0.000608	6.080124	1.030001	0.000122
 165	1.6318e+01	3.2693	47.751242	0.000871	8.714844	1.476335	0.000174
 166	1.6418e+01	3.2891	47.977321	0.001135	11.349564	1.922668	0.000227
 167	1.6517e+01	3.3062	48.090361	0.000567	5.674782	0.961334	0.000114
 168	1.6616e+01	3.3294	48.296255	0.001034	10.336210	1.751001	0.000207
 169	1.6716e+01	3.3489	48.441592	0.000730	7.296148	1.236001	0.000146
 170	1.6816e+01	3.3691	48.607114	0.000831	8.309502	1.407668	0.000166
 171	1.6915e+01	3.3889	48.813008	0.001034	10.336210	1.751001	0.000207
 172	1.7015e+01	3.4078	48.966419	0.000770	7.701490	1.304668	0.000154
 173	1.7114e+01	3.4289	49.168276	0.001013	10.133539	1.716668	0.000203
 174	1.7213e+01	3.4488	49.337836	0.000851	8.512173	1.442001	0.000170
 175	1.7313e+01	3.4686	49.446839	0.000547	5.472111	0.927001	0.000110
 176	1.7413e+01	3.4887	49.644658	0.000993	9.930868	1.682335	0.000199
 177	1.7512e+01	3.5082	49.781921	0.000689	6.890807	1.167334	0.000138
 178	1.7611e+01	3.5278	49.975703	0.000973	9.728198	1.648001	0.000195
 179	1.7711e+01	3.5479	50.125077	0.000750	7.498819	1.270334	0.000150
 180	1.7811e+01	3.5680	50.274451	0.000750	7.498819	1.270334	0.000150
 181	1.7910e+01	3.5882	50.431900	0.000790	7.904161	1.339001	0.000158
 182	1.8009e+01	3.6074	50.617608	0.000932	9.322856	1.579335	0.000187
 183	1.8109e+01	3.6279	50.787168	0.000851	8.512173	1.442001	0.000170
 184	1.8209e+01	3.6480	50.980950	0.000973	9.728198	1.648001	0.000195
 185	1.8308e+01	3.6681	51.122250	0.000709	7.093477	1.201668	0.000142
 186	1.8407e+01	3.6886	51.291810	0.000851	8.512173	1.442001	0.000170
 187	1.8507e+01	3.7081	51.392738	0.000507	5.066770	0.858334	0.000101
 188	1.8607e+01	3.7283	51.590558	0.000993	9.930868	1.682335	0.000199
 189	1.8706e+01	3.7481	51.800489	0.001054	10.538881	1.785335	0.000211
 190	1.8805e+01	3.7676	51.937751	0.000689	6.890807	1.167334	0.000138
 191	1.8905e+01	3.7868	52.095200	0.000790	7.904161	1.339001	0.000158
 192	1.9005e+01	3.8070	52.260722	0.000831	8.309502	1.407668	0.000166
 193	1.9104e+01	3.8280	52.389910	0.000649	6.485465	1.098668	0.000130
 194	1.9203e+01	3.8464	52.575619	0.000932	9.322856	1.579335	0.000187
 195	1.9303e+01	3.8670	52.777476	0.001013	10.133539	1.716668	0.000203
 196	1.9402e+01	3.8860	52.906664	0.000649	6.485465	1.098668	0.000130
 197	1.9502e+01	3.9062	53.060075	0.000770	7.701490	1.304668	0.000154
 198	1.9602e+01	3.9263	53.185226	0.000628	6.282794	1.064334	0.000126
 199	1.9701e+01	3.9465	53.383046	0.000993	9.930868	1.682335	0.000199
 200	1.9800e+01	3.9672	53.528383	0.000730	7.296148	1.236001	0.000146
 201	1.9900e+01	3.9867	53.718128	0.000953	9.525527	1.613668	0.000191
 202	2.0000e+01	4.0063	53.863465	0.000730	7.296148	1.236001	0.000146
 203	2.0099e+01	4.0258	54.000728	0.000689	6.890807	1.167334	0.000138
 204	2.0198e+01	4.0453	54.162213	0.000811	8.106831	1.373334	0.000162
 205	2.0298e+01	4.0661	54.335810	0.000871	8.714844	1.476335	0.000174
 206	2.0398e+01	4.0859	54.525555	0.000953	9.525527	1.613668	0.000191
 207	2.0497e+01	4.1058	54.670892	0.000730	7.296148	1.236001	0.000146
 208	2.0596e+01	4.1257	54.792006	0.000608	6.080124	1.030001	0.000122
 209	2.0696e+01	4.1460	54.949455	0.000790	7.904161	1.339001	0.000158
 210	2.0796e+01	4.1653	55.163423	0.001074	10.741552	1.819668	0.000215
 211	2.0895e+01	4.1850	55.304722	0.000709	7.093477	1.201668	0.000142
 212	2.0994e+01	4.2059	55.502542	0.000993	9.930868	1.682335	0.000199
 213	2.1094e+01	4.2248	55.623656	0.000608	6.080124	1.030001	0.000122
 214	2.1194e+01	4.2434	55.760919	0.000689	6.890807	1.167334	0.000138
 215	2.1293e+01	4.2654	55.954701	0.000973	9.728198	1.648001	0.000195
 216	2.1392e+01	4.2858	56.104075	0.000750	7.498819	1.270334	0.000150
 217	2.1492e+01	4.3060	56.261524	0.000790	7.904161	1.339001	0.000158
 218	2.1591e+01	4.3243	56.394749	0.000669	6.688136	1.133001	0.000134
 219	2.1691e+01	4.3459	56.568346	0.000871	8.714844	1.476335	0.000174
 220	2.1791e+01	4.3649	56.750017	0.000912	9.120185	1.545001	0.000183
 221	2.1890e+01	4.3853	56.859020	0.000547	5.472111	0.927001	0.000110
 222	2.1989e+01	4.4053	57.056839	0.000993	9.930868	1.682335	0.000199
 223	2.2089e+01	4.4247	57.181991	0.000628	6.282794	1.064334	0.000126
 224	2.2189e+01	4.4448	57.359625	0.000892	8.917515	1.510668	0.000179
 225	2.2288e+01	4.4640	57.464590	0.000527	5.269440	0.892667	0.000105
 226	2.2387e+01	4.4845	57.654335	0.000953	9.525527	1.613668	0.000191
 227	2.2487e+01	4.5049	57.827932	0.000871	8.714844	1.476335	0.000174
 228	2.2587e+01	4.5245	57.969232	0.000709	7.093477	1.201668	0.000142
 229	2.2686e+01	4.5444	58.126680	0.000790	7.904161	1.339001	0.000158
 230	2.2785e+01	4.5647	58.288166	0.000811	8.106831	1.373334	0.000162
 231	2.2885e+01	4.5846	58.441577	0.000770	7.701490	1.304668	0.000154
 232	2.2985e+01	4.6038	58.558654	0.000588	5.877453	0.995667	0.000118
 233	2.3084e+01	4.6252	58.716102	0.000790	7.904161	1.339001	0.000158
 234	2.3183e+01	4.6435	58.881625	0.000831	8.309502	1.407668	0.000166
 235	2.3283e+01	4.6636	59.026962	0.000730	7.296148	1.236001	0.000146
 236	2.3383e+01	4.6844	59.164224	0.000689	6.890807	1.167334	0.000138
 237	2.3482e+01	4.7045	59.305524	0.000709	7.093477	1.201668	0.000142
 238	2.3581e+01	4.7247	59.515455	0.001054	10.538881	1.785335	0.000211
 239	2.3681e+01	4.7433	59.660792	0.000730	7.296148	1.236001	0.000146
 240	2.3780e+01	4.7643	59.802092	0.000709	7.093477	1.201668	0.000142
 241	2.3880e+01	4.7820	59.947429	0.000730	7.296148	1.236001	0.000146
 242	2.3980e+01	4.8034	60.100840	0.000770	7.701490	1.304668	0.000154
 243	2.4079e+01	4.8241	60.294622	0.000973	9.728198	1.648001	0.000195
 244	2.4178e+01	4.8431	60.411699	0.000588	5.877453	0.995667	0.000118
 245	2.4278e+01	4.8637	60.589333	0.000892	8.917515	1.510668	0.000179
 246	2.4378e+01	4.8833	60.690262	0.000507	5.066770	0.858334	0.000101
 247	2.4477e+01	4.9035	60.867896	0.000892	8.917515	1.510668	0.000179
 248	2.4576e+01	4.9230	61.029381	0.000811	8.106831	1.373334	0.000162
 249	2.4676e+01	4.9432	61.162606	0.000669	6.688136	1.133001	0.000134
 250	2.4776e+01	4.9633	61.328129	0.000831	8.309502	1.407668	0.000166
 251	2.4875e+01	4.9828	61.445206	0.000588	5.877453	0.995667	0.000118
 252	2.4974e+01	5.0030	61.626877	0.000912	9.120185	1.545001	0.000183
 253	2.5074e+01	5.0234	61.784325	0.000790	7.904161	1.339001	0.000158
 254	2.5174e+01	5.0433	61.909477	0.000628	6.282794	1.064334	0.000126
 255	2.5273e+01	5.0619	62.074999	0.000831	8.309502	1.407668	0.000166
 256	2.5372e+01	5.0817	62.240522	0.000831	8.309502	1.407668	0.000166
 257	2.5472e+01	5.1031	62.389896	0.000750	7.498819	1.270334	0.000150
 258	2.5572e+01	5.1214	62.543307	0.000770	7.701490	1.304668	0.000154
 259	2.5671e+01	5.1427	62.737089	0.000973	9.728198	1.648001	0.000195
 260	2.5770e+01	5.1615	62.866278	0.000649	6.485465	1.098668	0.000130
 261	2.5870e+01	5.1823	62.967206	0.000507	5.066770	0.858334	0.000101
 262	2.5970e+01	5.2013	63.116580	0.000750	7.498819	1.270334	0.000150
 263	2.6069e+01	5.2206	63.278066	0.000811	8.106831	1.373334	0.000162
 264	2.6169e+01	5.2422	63.423402	0.000730	7.296148	1.236001	0.000146
 265	2.6268e+01	5.2624	63.601036	0.000892	8.917515	1.510668	0.000179
 266	2.6367e+01	5.2808	63.746373	0.000730	7.296148	1.236001	0.000146
 267	2.6467e+01	5.3008	63.891710	0.000730	7.296148	1.236001	0.000146
 268	2.6567e+01	5.3216	64.069344	0.000892	8.917515	1.510668	0.000179
 269	2.6666e+01	5.3414	64.190458	0.000608	6.080124	1.030001	0.000122
 270	2.6765e+01	5.3622	64.343869	0.000770	7.701490	1.304668	0.000154
 271	2.6865e+01	5.3814	64.489206	0.000730	7.296148	1.236001	0.000146
 272	2.6965e+01	5.4020	64.634543	0.000730	7.296148	1.236001	0.000146
 273	2.7064e+01	5.4202	64.767769	0.000669	6.688136	1.133001	0.000134
 274	2.7163e+01	5.4406	64.929254	0.000811	8.106831	1.373334	0.000162
 275	2.7263e+01	5.4603	65.026145	0.000486	4.864099	0.824001	0.000097
 276	2.7363e+01	5.4808	65.256262	0.001155	11.552235	1.957002	0.000231
 277	2.7462e+01	5.5003	65.389488	0.000669	6.688136	1.133001	0.000134
 278	2.7561e+01	5.5199	65.498490	0.000547	5.472111	0.927001	0.000110
 279	2.7661e+01	5.5419	65.692273	0.000973	9.728198	1.648001	0.000195
 280	2.7761e+01	5.5608	65.873944	0.000912	9.120185	1.545001	0.000183
 281	2.7860e+01	5.5816	65.991021	0.000588	5.877453	0.995667	0.000118
 282	2.7959e+01	5.6010	66.140395	0.000750	7.498819	1.270334	0.000150
 283	2.8059e+01	5.6214	66.297843	0.000790	7.904161	1.339001	0.000158
 284	2.8159e+01	5.6420	66.439143	0.000709	7.093477	1.201668	0.000142
 285	2.8258e+01	5.6600	66.588517	0.000750	7.498819	1.270334	0.000150
 286	2.8358e+01	5.6799	66.737891	0.000750	7.498819	1.270334	0.000150
 287	2.8457e+01	5.7006	66.822671	0.000426	4.256086	0.721001	0.000085
 288	2.8556e+01	5.7195	67.036639	0.001074	10.741552	1.819668	0.000215
 289	2.8656e+01	5.7415	67.133530	0.000486	4.864099	0.824001	0.000097
 290	2.8756e+01	5.7586	67.274830	0.000709	7.093477	1.201668	0.000142
 291	2.8855e+01	5.7796	67.432278	0.000790	7.904161	1.339001	0.000158
 292	2.8954e+01	5.7992	67.585689	0.000770	7.701490	1.304668	0.000154
 293	2.9054e+01	5.8196	67.706803	0.000608	6.080124	1.030001	0.000122
 294	2.9154e+01	5.8398	67.856177	0.000750	7.498819	1.270334	0.000150
 295	2.9253e+01	5.8605	68.009589	0.000770	7.701490	1.304668	0.000154
 296	2.9352e+01	5.8801	68.142814	0.000669	6.688136	1.133001	0.000134
 297	2.9452e+01	5.8996	68.284114	0.000709	7.093477	1.201668	0.000142
 298	2.9552e+01	5.9191	68.437525	0.000770	7.701490	1.304668	0.000154
 299	2.9651e+01	5.9386	68.607085	0.000851	8.512173	1.442001	0.000170
 300	2.9750e+01	5.9594	68.716087	0.000547	5.472111	0.927001	0.000110
 301	2.9850e+01	5.9792	68.849313	0.000669	6.688136	1.133001	0.000134
 302	2.9950e+01	5.9997	69.039058	0.000953	9.525527	1.613668	0.000191
 303	3.0049e+01	6.0192	69.168247	0.000649	6.485465	1.098668	0.000130
 304	3.0148e+01	6.0394	69.313583	0.000730	7.296148	1.236001	0.000146
 305	3.0248e+01	6.0589	69.450846	0.000689	6.890807	1.167334	0.000138
 306	3.0348e+01	6.0784	69.567923	0.000588	5.877453	0.995667	0.000118
 307	3.0447e+01	6.0990	69.721334	0.000770	7.701490	1.304668	0.000154
 308	3.0547e+01	6.1184	69.866671	0.000730	7.296148	1.236001	0.000146
 309	3.0646e+01	6.1395	69.983748	0.000588	5.877453	0.995667	0.000118
 310	3.0745e+01	6.1584	70.145233	0.000811	8.106831	1.373334	0.000162
 311	3.0845e+01	6.1782	70.266348	0.000608	6.080124	1.030001	0.000122
 312	3.0945e+01	6.1980	70.435907	0.000851	8.512173	1.442001	0.000170
 313	3.1044e+01	6.2185	70.544910	0.000547	5.472111	0.927001	0.000110
 314	3.1143e+01	6.2383	70.702358	0.000790	7.904161	1.339001	0.000158
 315	3.1243e+01	6.2585	70.835584	0.000669	6.688136	1.133001	0.000134
 316	3.1343e+01	6.2780	70.968809	0.000669	6.688136	1.133001	0.000134
 317	3.1442e+01	6.2988	71.118183	0.000750	7.498819	1.270334	0.000150
 318	3.1541e+01	6.3171	71.287743	0.000851	8.512173	1.442001	0.000170
 319	3.1641e+01	6.3369	71.400783	0.000567	5.674782	0.961334	0.000114
 320	3.1741e+01	6.3573	71.538045	0.000689	6.890807	1.167334	0.000138
 321	3.1840e+01	6.3769	71.663196	0.000628	6.282794	1.064334	0.000126
 322	3.1939e+01	6.3975	71.812571	0.000750	7.498819	1.270334	0.000150
 323	3.2039e+01	6.4172	71.965982	0.000770	7.701490	1.304668	0.000154
 324	3.2139e+01	6.4379	72.091133	0.000628	6.282794	1.064334	0.000126
 325	3.2238e+01	6.4568	72.220321	0.000649	6.485465	1.098668	0.000130
 326	3.2337e+01	6.4773	72.341435	0.000608	6.080124	1.030001	0.000122
 327	3.2437e+01	6.4962	72.486772	0.000730	7.296148	1.236001	0.000146
 328	3.2536e+01	6.5170	72.628072	0.000709	7.093477	1.201668	0.000142
 329	3.2636e+01	6.5366	72.765335	0.000689	6.890807	1.167334	0.000138
 330	3.2736e+01	6.5563	72.914709	0.000750	7.498819	1.270334	0.000150
 331	3.2835e+01	6.5762	73.056008	0.000709	7.093477	1.201668	0.000142
 332	3.2934e+01	6.5960	73.177122	0.000608	6.080124	1.030001	0.000122
 333	3.3034e+01	6.6158	73.318422	0.000709	7.093477	1.201668	0.000142
 334	3.3133e+01	6.6367	73.471833	0.000770	7.701490	1.304668	0.000154
 335	3.3233e+01	6.6569	73.572762	0.000507	5.066770	0.858334	0.000101
 336	3.3333e+01	6.6766	73.738284	0.000831	8.309502	1.407668	0.000166
 337	3.3432e+01	6.6961	73.835176	0.000486	4.864099	0.824001	0.000097
 338	3.3532e+01	6.7162	73.988587	0.000770	7.701490	1.304668	0.000154
 339	3.3631e+01	6.7364	74.085478	0.000486	4.864099	0.824001	0.000097
 340	3.3730e+01	6.7559	74.238889	0.000770	7.701490	1.304668	0.000154
 341	3.3830e+01	6.7764	74.343855	0.000527	5.269440	0.892667	0.000105
 342	3.3929e+01	6.7959	74.505340	0.000811	8.106831	1.373334	0.000162
 343	3.4029e+01	6.8154	74.654714	0.000750	7.498819	1.270334	0.000150
 344	3.4129e+01	6.8359	74.800051	0.000730	7.296148	1.236001	0.000146
 345	3.4228e+01	6.8566	74.921165	0.000608	6.080124	1.030001	0.000122
 346	3.4328e+01	6.8758	75.018056	0.000486	4.864099	0.824001	0.000097
 347	3.4427e+01	6.8945	75.187616	0.000851	8.512173	1.442001	0.000170
 348	3.4526e+01	6.9149	75.280470	0.000466	4.661428	0.789667	0.000093
 349	3.4626e+01	6.9347	75.450030	0.000851	8.512173	1.442001	0.000170
 350	3.4725e+01	6.9549	75.587292	0.000689	6.890807	1.167334	0.000138
 351	3.4825e+01	6.9750	75.692258	0.000527	5.269440	0.892667	0.000105
 352	3.4925e+01	6.9944	75.837595	0.000730	7.296148	1.236001	0.000146
 353	3.5024e+01	7.0150	75.966783	0.000649	6.485465	1.098668	0.000130
 354	3.5123e+01	7.0342	76.087897	0.000608	6.080124	1.030001	0.000122
 355	3.5223e+01	7.0544	76.225160	0.000689	6.890807	1.167334	0.000138
 356	3.5322e+01	7.0745	76.322051	0.000486	4.864099	0.824001	0.000097
 357	3.5422e+01	7.0953	76.467388	0.000730	7.296148	1.236001	0.000146
 358	3.5522e+01	7.1148	76.556205	0.000446	4.458757	0.755334	0.000089
 359	3.5621e+01	7.1337	76.709616	0.000770	7.701490	1.304668	0.000154
 360	3.5721e+01	7.1535	76.826693	0.000588	5.877453	0.995667	0.000118
 361	3.5820e+01	7.1743	76.988179	0.000811	8.106831	1.373334	0.000162
 362	3.5919e+01	7.1941	77.089107	0.000507	5.066770	0.858334	0.000101
 363	3.6019e+01	7.2140	77.214258	0.000628	6.282794	1.064334	0.000126
 364	3.6118e+01	7.2332	77.347484	0.000669	6.688136	1.133001	0.000134
 365	3.6218e+01	7.2552	77.484746	0.000689	6.890807	1.167334	0.000138
 366	3.6318e+01	7.2741	77.617972	0.000669	6.688136	1.133001	0.000134
 367	3.6417e+01	7.2942	77.702752	0.000426	4.256086	0.721001	0.000085
 368	3.6517e+01	7.3147	77.880386	0.000892	8.917515	1.510668	0.000179
 369	3.6616e+01	7.3333	77.985351	0.000527	5.269440	0.892667	0.000105
 370	3.6715e+01	7.3534	78.070131	0.000426	4.256086	0.721001	0.000085
 371	3.6815e+01	7.3730	78.247765	0.000892	8.917515	1.510668	0.000179
 372	3.6914e+01	7.3931	78.376953	0.000649	6.485465	1.098668	0.000130
 373	3.7014e+01	7.4139	78.514216	0.000689	6.890807	1.167334	0.000138
 374	3.7114e+01	7.4322	78.607070	0.000466	4.661428	0.789667	0.000093
 375	3.7213e+01	7.4538	78.764518	0.000790	7.904161	1.339001	0.000158
 376	3.7313e+01	7.4712	78.877558	0.000567	5.674782	0.961334	0.000114
 377	3.7412e+01	7.4932	79.039043	0.000811	8.106831	1.373334	0.000162
 378	3.7511e+01	7.5127	79.135935	0.000486	4.864099	0.824001	0.000097
 379	3.7611e+01	7.5317	79.281272	0.000730	7.296148	1.236001	0.000146
 380	3.7711e+01	7.5530	79.414497	0.000669	6.688136	1.133001	0.000134
 381	3.7810e+01	7.5738	79.539648	0.000628	6.282794	1.064334	0.000126
 382	3.7910e+01	7.5927	79.624428	0.000426	4.256086	0.721001	0.000085
 383	3.8009e+01	7.6134	79.757654	0.000669	6.688136	1.133001	0.000134
 384	3.8108e+01	7.6330	79.902991	0.000730	7.296148	1.236001	0.000146
 385	3.8208e+01	7.6531	80.007956	0.000527	5.269440	0.892667	0.000105
 386	3.8307e+01	7.6723	80.169441	0.000811	8.106831	1.373334	0.000162
 387	3.8407e+01	7.6910	80.286518	0.000588	5.877453	0.995667	0.000118
 388	3.8507e+01	7.7117	80.387447	0.000507	5.066770	0.858334	0.000101
 389	3.8606e+01	7.7325	80.508561	0.000608	6.080124	1.030001	0.000122
 390	3.8706e+01	7.7520	80.637749	0.000649	6.485465	1.098668	0.000130
 391	3.8805e+01	7.7721	80.762900	0.000628	6.282794	1.064334	0.000126
 392	3.8904e+01	7.7923	80.884015	0.000608	6.080124	1.030001	0.000122
 393	3.9004e+01	7.8112	81.009166	0.000628	6.282794	1.064334	0.000126
 394	3.9103e+01	7.8307	81.142391	0.000669	6.688136	1.133001	0.000134
 395	3.9203e+01	7.8515	81.283691	0.000709	7.093477	1.201668	0.000142
 396	3.9303e+01	7.8722	81.376545	0.000466	4.661428	0.789667	0.000093
 397	3.9402e+01	7.8912	81.501696	0.000628	6.282794	1.064334	0.000126
 398	3.9502e+01	7.9113	81.622810	0.000608	6.080124	1.030001	0.000122
 399	3.9601e+01	7.9311	81.772184	0.000750	7.498819	1.270334	0.000150
 400	3.9700e+01	7.9516	81.877150	0.000527	5.269440	0.892667	0.000105
 401	3.9800e+01	7.9705	82.006338	0.000649	6.485465	1.098668	0.000130
 402	3.9900e+01	7.9910	82.111304	0.000527	5.269440	0.892667	0.000105
 403	3.9999e+01	8.0102	82.256641	0.000730	7.296148	1.236001	0.000146
 404	4.0099e+01	8.0297	82.373718	0.000588	5.877453	0.995667	0.000118
 405	4.0198e+01	8.0505	82.515017	0.000709	7.093477	1.201668	0.000142
 406	4.0297e+01	8.0721	82.619983	0.000527	5.269440	0.892667	0.000105
 407	4.0397e+01	8.0920	82.749171	0.000649	6.485465	1.098668	0.000130
 408	4.0496e+01	8.1112	82.866248	0.000588	5.877453	0.995667	0.000118
 409	4.0596e+01	8.1313	82.979288	0.000567	5.674782	0.961334	0.000114
 410	4.0696e+01	8.1506	83.116551	0.000689	6.890807	1.167334	0.000138
 411	4.0795e+01	8.1707	83.217479	0.000507	5.066770	0.858334	0.000101
 412	4.0895e+01	8.1930	83.338593	0.000608	6.080124	1.030001	0.000122
 413	4.0994e+01	8.2104	83.467781	0.000649	6.485465	1.098668	0.000130
 414	4.1093e+01	8.2299	83.633304	0.000831	8.309502	1.407668	0.000166
 415	4.1193e+01	8.2500	83.710010	0.000385	3.850745	0.652334	0.000077
 416	4.1292e+01	8.2696	83.863421	0.000770	7.701490	1.304668	0.000154
 417	4.1392e+01	8.2894	83.964349	0.000507	5.066770	0.858334	0.000101
 418	4.1492e+01	8.3105	84.105649	0.000709	7.093477	1.201668	0.000142
 419	4.1591e+01	8.3300	84.230800	0.000628	6.282794	1.064334	0.000126
 420	4.1691e+01	8.3501	84.323654	0.000466	4.661428	0.789667	0.000093
 421	4.1790e+01	8.3697	84.456880	0.000669	6.688136	1.133001	0.000134
 422	4.1889e+01	8.3898	84.561845	0.000527	5.269440	0.892667	0.000105
 423	4.1989e+01	8.4100	84.695071	0.000669	6.688136	1.133001	0.000134
 424	4.2089e+01	8.4301	84.832333	0.000689	6.890807	1.167334	0.000138
 425	4.2188e+01	8.4502	84.973633	0.000709	7.093477	1.201668	0.000142
 426	4.2288e+01	8.4698	85.078599	0.000527	5.269440	0.892667	0.000105
 427	4.2387e+01	8.4896	85.203750	0.000628	6.282794	1.064334	0.000126
 428	4.2486e+01	8.5094	85.304678	0.000507	5.066770	0.858334	0.000101
 429	4.2586e+01	8.5296	85.454052	0.000750	7.498819	1.270334	0.000150
 430	4.2685e+01	8.5482	85.563055	0.000547	5.472111	0.927001	0.000110
 431	4.2785e+01	8.5693	85.704355	0.000709	7.093477	1.201668	0.000142
 432	4.2885e+01	8.5888	85.801246	0.000486	4.864099	0.824001	0.000097
 433	4.2984e+01	8.6083	85.938508	0.000689	6.890807	1.167334	0.000138
 434	4.3084e+01	8.6285	86.091920	0.000770	7.701490	1.304668	0.000154
 435	4.3183e+01	8.6480	86.184774	0.000466	4.661428	0.789667	0.000093
 436	4.3282e+01	8.6681	86.309925	0.000628	6.282794	1.064334	0.000126
 437	4.3382e+01	8.6889	86.422965	0.000567	5.674782	0.961334	0.000114
 438	4.3481e+01	8.7078	86.560227	0.000689	6.890807	1.167334	0.000138
 439	4.3581e+01	8.7286	86.701527	0.000709	7.093477	1.201668	0.000142
 440	4.3681e+01	8.7484	86.814567	0.000567	5.674782	0.961334	0.000114
 441	4.3780e+01	8.7682	86.927607	0.000567	5.674782	0.961334	0.000114
 442	4.3880e+01	8.7890	87.048721	0.000608	6.080124	1.030001	0.000122
 443	4.3979e+01	8.8073	87.177909	0.000649	6.485465	1.098668	0.000130
 444	4.4078e+01	8.8280	87.294986	0.000588	5.877453	0.995667	0.000118
 445	4.4178e+01	8.8470	87.412063	0.000588	5.877453	0.995667	0.000118
 446	4.4278e+01	8.8665	87.541251	0.000649	6.485465	1.098668	0.000130
 447	4.4377e+01	8.8866	87.654291	0.000567	5.674782	0.961334	0.000114
 448	4.4477e+01	8.9065	87.819814	0.000831	8.309502	1.407668	0.000166
 449	4.4576e+01	8.9266	87.908631	0.000446	4.458757	0.755334	0.000089
 450	4.4675e+01	8.9465	88.029745	0.000608	6.080124	1.030001	0.000122
 451	4.4775e+01	8.9663	88.154896	0.000628	6.282794	1.064334	0.000126
 452	4.4874e+01	8.9874	88.255824	0.000507	5.066770	0.858334	0.000101
 453	4.4974e+01	9.0063	88.413273	0.000790	7.904161	1.339001	0.000158
 454	4.5074e+01	9.0264	88.510164	0.000486	4.864099	0.824001	0.000097
 455	4.5173e+01	9.0466	88.651464	0.000709	7.093477	1.201668	0.000142
 456	4.5273e+01	9.0664	88.744318	0.000466	4.661428	0.789667	0.000093
 457	4.5372e+01	9.0868	88.881580	0.000689	6.890807	1.167334	0.000138
 458	4.5471e+01	9.1058	88.982509	0.000507	5.066770	0.858334	0.000101
 459	4.5571e+01	9.1271	89.107660	0.000628	6.282794	1.064334	0.000126
 460	4.5670e+01	9.1473	89.252997	0.000730	7.296148	1.236001	0.000146
 461	4.5770e+01	9.1656	89.382185	0.000649	6.485465	1.098668	0.000130
 462	4.5870e+01	9.1857	89.471002	0.000446	4.458757	0.755334	0.000089
 463	4.5969e+01	9.2059	89.584042	0.000567	5.674782	0.961334	0.000114
 464	4.6069e+01	9.2254	89.741490	0.000790	7.904161	1.339001	0.000158
 465	4.6168e+01	9.2461	89.838382	0.000486	4.864099	0.824001	0.000097
 466	4.6267e+01	9.2651	89.955459	0.000588	5.877453	0.995667	0.000118
 467	4.6367e+01	9.2864	90.068498	0.000567	5.674782	0.961334	0.000114
 468	4.6467e+01	9.3053	90.181538	0.000567	5.674782	0.961334	0.000114
 469	4.6566e+01	9.3255	90.330912	0.000750	7.498819	1.270334	0.000150
 470	4.6666e+01	9.3456	90.468175	0.000689	6.890807	1.167334	0.000138
 471	4.6765e+01	9.3655	90.548917	0.000405	4.053416	0.686667	0.000081
 472	4.6864e+01	9.3859	90.670032	0.000608	6.080124	1.030001	0.000122
 473	4.6964e+01	9.4048	90.783071	0.000567	5.674782	0.961334	0.000114
 474	4.7063e+01	9.4238	90.908223	0.000628	6.282794	1.064334	0.000126
 475	4.7163e+01	9.4451	91.061634	0.000770	7.701490	1.304668	0.000154
 476	4.7263e+01	9.4640	91.158525	0.000486	4.864099	0.824001	0.000097
 477	4.7362e+01	9.4842	91.291750	0.000669	6.688136	1.133001	0.000134
 478	4.7462e+01	9.5055	91.408827	0.000588	5.877453	0.995667	0.000118
 479	4.7561e+01	9.5257	91.521867	0.000567	5.674782	0.961334	0.000114
 480	4.7660e+01	9.5449	91.630870	0.000547	5.472111	0.927001	0.000110
 481	4.7760e+01	9.5638	91.751984	0.000608	6.080124	1.030001	0.000122
 482	4.7859e+01	9.5831	91.844838	0.000466	4.661428	0.789667	0.000093
 483	4.7959e+01	9.6044	91.990175	0.000730	7.296148	1.236001	0.000146
 484	4.8059e+01	9.6246	92.103215	0.000567	5.674782	0.961334	0.000114
 485	4.8158e+01	9.6435	92.260663	0.000790	7.904161	1.339001	0.000158
 486	4.8258e+01	9.6655	92.337369	0.000385	3.850745	0.652334	0.000077
 487	4.8357e+01	9.6832	92.478668	0.000709	7.093477	1.201668	0.000142
 488	4.8456e+01	9.7039	92.579597	0.000507	5.066770	0.858334	0.000101
 489	4.8556e+01	9.7240	92.720896	0.000709	7.093477	1.201668	0.000142
 490	4.8656e+01	9.7436	92.858159	0.000689	6.890807	1.167334	0.000138
 491	4.8755e+01	9.7643	92.963125	0.000527	5.269440	0.892667	0.000105
 492	4.8855e+01	9.7839	93.068090	0.000527	5.269440	0.892667	0.000105
 493	4.8954e+01	9.8034	93.197279	0.000649	6.485465	1.098668	0.000130
 494	4.9053e+01	9.8223	93.326467	0.000649	6.485465	1.098668	0.000130
 495	4.9153e+01	9.8437	93.459692	0.000669	6.688136	1.133001	0.000134
 496	4.9252e+01	9.8629	93.520249	0.000304	3.040062	0.515000	0.000061
 497	4.9352e+01	9.8833	93.665586	0.000730	7.296148	1.236001	0.000146
 498	4.9452e+01	9.9035	93.786700	0.000608	6.080124	1.030001	0.000122
 499	4.9551e+01	9.9236	93.887629	0.000507	5.066770	0.858334	0.000101
 500	4.9651e+01	9.9422	94.000669	0.000567	5.674782	0.961334	0.000114
 501	4.9750e+01	9.9639	94.133894	0.000669	6.688136	1.133001	0.000134
 502	4.9849e+01	9.9822	94.287305	0.000770	7.701490	1.304668	0.000154
 503	4.9949e+01	9.9999	94.376122	0.000446	4.458757	0.755334	0.000089
 504	5.0048e+01	9.9827	94.295379	0.000405	4.053416	0.686667	-0.000081
 505	5.0148e+01	9.9627	94.242897	0.000263	2.634720	0.446334	-0.000053
 506	5.0248e+01	9.9419	94.186377	0.000284	2.837391	0.480667	-0.000057
 507	5.0347e+01	9.9230	94.113708	0.000365	3.648074	0.618000	-0.000073
 508	5.0447e+01	9.9029	94.073337	0.000203	2.026708	0.343334	-0.000041
 509	5.0546e+01	9.8824	93.940111	0.000669	6.688136	1.133001	-0.000134
 510	5.0645e+01	9.8626	93.891666	0.000243	2.432049	0.412000	-0.000049
 511	5.0745e+01	9.8431	93.818997	0.000365	3.648074	0.618000	-0.000073
 512	5.0844e+01	9.8235	93.730180	0.000446	4.458757	0.755334	-0.000089
 513	5.0944e+01	9.8028	93.645401	0.000426	4.256086	0.721001	-0.000085
 514	5.1044e+01	9.7820	93.605029	0.000203	2.026708	0.343334	-0.000041
 515	5.1143e+01	9.7637	93.487952	0.000588	5.877453	0.995667	-0.000118
 516	5.1242e+01	9.7436	93.451618	0.000182	1.824037	0.309000	-0.000037
 517	5.1342e+01	9.7234	93.350690	0.000507	5.066770	0.858334	-0.000101
 518	5.1441e+01	9.7027	93.265910	0.000426	4.256086	0.721001	-0.000085
 519	5.1541e+01	9.6838	93.221501	0.000223	2.229379	0.377667	-0.000045
 520	5.1641e+01	9.6655	93.116536	0.000527	5.269440	0.892667	-0.000105
 521	5.1740e+01	9.6447	93.019645	0.000486	4.864099	0.824001	-0.000097
 522	5.1840e+01	9.6239	92.946976	0.000365	3.648074	0.618000	-0.000073
 523	5.1939e+01	9.6032	92.862196	0.000426	4.256086	0.721001	-0.000085
 524	5.2038e+01	9.5843	92.801639	0.000304	3.040062	0.515000	-0.000061
 525	5.2138e+01	9.5644	92.696674	0.000527	5.269440	0.892667	-0.000105
 526	5.2237e+01	9.5440	92.595745	0.000507	5.066770	0.858334	-0.000101
 527	5.2337e+01	9.5248	92.531151	0.000324	3.242733	0.549334	-0.000065
 528	5.2437e+01	9.5037	92.426186	0.000527	5.269440	0.892667	-0.000105
 529	5.2536e+01	9.4848	92.345443	0.000405	4.053416	0.686667	-0.000081
 530	5.2636e+01	9.4634	92.220292	0.000628	6.282794	1.064334	-0.000126
 531	5.2735e+01	9.4451	92.151660	0.000345	3.445403	0.583667	-0.000069
 532	5.2834e+01	9.4250	92.095140	0.000284	2.837391	0.480667	-0.000057
 533	5.2934e+01	9.4036	91.982101	0.000567	5.674782	0.961334	-0.000114
 534	5.3033e+01	9.3858	91.901358	0.000405	4.053416	0.686667	-0.000081
 535	5.3133e+01	9.3645	91.796392	0.000527	5.269440	0.892667	-0.000105
 536	5.3233e+01	9.3450	91.731798	0.000324	3.242733	0.549334	-0.000065
 537	5.3332e+01	9.3255	91.659130	0.000365	3.648074	0.618000	-0.000073
 538	5.3431e+01	9.3053	91.598573	0.000304	3.040062	0.515000	-0.000061
 539	5.3531e+01	9.2858	91.485533	0.000567	5.674782	0.961334	-0.000114
 540	5.3630e+01	9.2651	91.408827	0.000385	3.850745	0.652334	-0.000077
 541	5.3730e+01	9.2449	91.315973	0.000466	4.661428	0.789667	-0.000093
 542	5.3830e+01	9.2263	91.219082	0.000486	4.864099	0.824001	-0.000097
 543	5.3929e+01	9.2052	91.134302	0.000426	4.256086	0.721001	-0.000085
 544	5.4029e+01	9.1854	91.033374	0.000507	5.066770	0.858334	-0.000101
 545	5.4128e+01	9.1650	90.952631	0.000405	4.053416	0.686667	-0.000081
 546	5.4227e+01	9.1460	90.871888	0.000405	4.053416	0.686667	-0.000081
 547	5.4327e+01	9.1271	90.791146	0.000405	4.053416	0.686667	-0.000081
 548	5.4426e+01	9.1045	90.682143	0.000547	5.472111	0.927001	-0.000110
 549	5.4526e+01	9.0856	90.609475	0.000365	3.648074	0.618000	-0.000073
 550	5.4626e+01	9.0661	90.496435	0.000567	5.674782	0.961334	-0.000114
 551	5.4725e+01	9.0462	90.403581	0.000466	4.661428	0.789667	-0.000093
 552	5.4825e+01	9.0264	90.302652	0.000507	5.066770	0.858334	-0.000101
 553	5.4924e+01	9.0051	90.217872	0.000426	4.256086	0.721001	-0.000085
 554	5.5023e+01	8.9861	90.149241	0.000345	3.445403	0.583667	-0.000069
 555	5.5123e+01	8.9678	90.024090	0.000628	6.282794	1.064334	-0.000126
 556	5.5222e+01	8.9455	89.959496	0.000324	3.242733	0.549334	-0.000065
 557	5.5322e+01	8.9263	89.886827	0.000365	3.648074	0.618000	-0.000073
 558	5.5422e+01	8.9062	89.798010	0.000446	4.458757	0.755334	-0.000089
 559	5.5521e+01	8.8873	89.668822	0.000649	6.485465	1.098668	-0.000130
 560	5.5620e+01	8.8671	89.588079	0.000405	4.053416	0.686667	-0.000081
 561	5.5720e+01	8.8476	89.479076	0.000547	5.472111	0.927001	-0.000110
 562	5.5819e+01	8.8280	89.390260	0.000446	4.458757	0.755334	-0.000089
 563	5.5919e+01	8.8079	89.301443	0.000446	4.458757	0.755334	-0.000089
 564	5.6019e+01	8.7884	89.212626	0.000446	4.458757	0.755334	-0.000089
 565	5.6118e+01	8.7682	89.143994	0.000345	3.445403	0.583667	-0.000069
 566	5.6218e+01	8.7487	89.026917	0.000588	5.877453	0.995667	-0.000118
 567	5.6317e+01	8.7283	88.954249	0.000365	3.648074	0.618000	-0.000073
 568	5.6416e+01	8.7078	88.829098	0.000628	6.282794	1.064334	-0.000126
 569	5.6516e+01	8.6883	88.732206	0.000486	4.864099	0.824001	-0.000097
 570	5.6615e+01	8.6684	88.655501	0.000385	3.850745	0.652334	-0.000077
 571	5.6715e+01	8.6483	88.558610	0.000486	4.864099	0.824001	-0.000097
 572	5.6815e+01	8.6285	88.477867	0.000405	4.053416	0.686667	-0.000081
 573	5.6914e+01	8.6083	88.352716	0.000628	6.282794	1.064334	-0.000126
 574	5.7014e+01	8.5882	88.223527	0.000649	6.485465	1.098668	-0.000130
 575	5.7113e+01	8.5686	88.150859	0.000365	3.648074	0.618000	-0.000073
 576	5.7212e+01	8.5488	88.033782	0.000588	5.877453	0.995667	-0.000118
 577	5.7312e+01	8.5296	87.961113	0.000365	3.648074	0.618000	-0.000073
 578	5.7411e+01	8.5101	87.888445	0.000365	3.648074	0.618000	-0.000073
 579	5.7511e+01	8.4893	87.779442	0.000547	5.472111	0.927001	-0.000110
 580	5.7611e+01	8.4692	87.694663	0.000426	4.256086	0.721001	-0.000085
 581	5.7710e+01	8.4496	87.581623	0.000567	5.674782	0.961334	-0.000114
 582	5.7809e+01	8.4295	87.492806	0.000446	4.458757	0.755334	-0.000089
 583	5.7909e+01	8.4097	87.387840	0.000527	5.269440	0.892667	-0.000105
 584	5.8008e+01	8.3898	87.303060	0.000426	4.256086	0.721001	-0.000085
 585	5.8108e+01	8.3691	87.169835	0.000669	6.688136	1.133001	-0.000134
 586	5.8208e+01	8.3498	87.085055	0.000426	4.256086	0.721001	-0.000085
 587	5.8307e+01	8.3294	87.028535	0.000284	2.837391	0.480667	-0.000057
 588	5.8407e+01	8.3086	86.915495	0.000567	5.674782	0.961334	-0.000114
 589	5.8506e+01	8.2897	86.814567	0.000507	5.066770	0.858334	-0.000101
 590	5.8605e+01	8.2696	86.697490	0.000588	5.877453	0.995667	-0.000118
 591	5.8705e+01	8.2500	86.669230	0.000142	1.418695	0.240334	-0.000028
 592	5.8804e+01	8.2299	86.511782	0.000790	7.904161	1.339001	-0.000158
 593	5.8904e+01	8.2104	86.418928	0.000466	4.661428	0.789667	-0.000093
 594	5.9004e+01	8.1890	86.322036	0.000486	4.864099	0.824001	-0.000097
 595	5.9103e+01	8.1707	86.253405	0.000345	3.445403	0.583667	-0.000069
 596	5.9203e+01	8.1512	86.132291	0.000608	6.080124	1.030001	-0.000122
 597	5.9302e+01	8.1307	86.035400	0.000486	4.864099	0.824001	-0.000097
 598	5.9401e+01	8.1112	85.926397	0.000547	5.472111	0.927001	-0.000110
 599	5.9501e+01	8.0907	85.829506	0.000486	4.864099	0.824001	-0.000097
 600	5.9600e+01	8.0700	85.781060	0.000243	2.432049	0.412000	-0.000049
 601	5.9700e+01	8.0511	85.627649	0.000770	7.701490	1.304668	-0.000154
 602	5.9800e+01	8.0309	85.542869	0.000426	4.256086	0.721001	-0.000085
 603	5.9899e+01	8.0114	85.445978	0.000486	4.864099	0.824001	-0.000097
 604	5.9998e+01	7.9910	85.349087	0.000486	4.864099	0.824001	-0.000097
 605	6.0098e+01	7.9714	85.256233	0.000466	4.661428	0.789667	-0.000093
 606	6.0197e+01	7.9510	85.147230	0.000547	5.472111	0.927001	-0.000110
 607	6.0297e+01	7.9311	85.066487	0.000405	4.053416	0.686667	-0.000081
 608	6.0397e+01	7.9092	84.969596	0.000486	4.864099	0.824001	-0.000097
 609	6.0496e+01	7.8912	84.868667	0.000507	5.066770	0.858334	-0.000101
 610	6.0596e+01	7.8716	84.763702	0.000527	5.269440	0.892667	-0.000105
 611	6.0695e+01	7.8518	84.646625	0.000588	5.877453	0.995667	-0.000118
 612	6.0794e+01	7.8326	84.565882	0.000405	4.053416	0.686667	-0.000081
 613	6.0894e+01	7.8124	84.481102	0.000426	4.256086	0.721001	-0.000085
 614	6.0993e+01	7.7917	84.364026	0.000588	5.877453	0.995667	-0.000118
 615	6.1093e+01	7.7728	84.271171	0.000466	4.661428	0.789667	-0.000093
 616	6.1193e+01	7.7514	84.182354	0.000446	4.458757	0.755334	-0.000089
 617	6.1292e+01	7.7316	84.065277	0.000588	5.877453	0.995667	-0.000118
 618	6.1392e+01	7.7114	83.980498	0.000426	4.256086	0.721001	-0.000085
 619	6.1491e+01	7.6922	83.875532	0.000527	5.269440	0.892667	-0.000105
 620	6.1590e+01	7.6727	83.782678	0.000466	4.661428	0.789667	-0.000093
 621	6.1690e+01	7.6522	83.673675	0.000547	5.472111	0.927001	-0.000110
 622	6.1789e+01	7.6333	83.596970	0.000385	3.850745	0.652334	-0.000077
 623	6.1889e+01	7.6128	83.443559	0.000770	7.701490	1.304668	-0.000154
 624	6.1989e+01	7.5921	83.350704	0.000466	4.661428	0.789667	-0.000093
 625	6.2088e+01	7.5729	83.273999	0.000385	3.850745	0.652334	-0.000077
 626	6.2188e+01	7.5530	83.152885	0.000608	6.080124	1.030001	-0.000122
 627	6.2287e+01	7.5329	83.064068	0.000446	4.458757	0.755334	-0.000089
 628	6.2386e+01	7.5124	82.975251	0.000446	4.458757	0.755334	-0.000089
 629	6.2486e+01	7.4935	82.874322	0.000507	5.066770	0.858334	-0.000101
 630	6.2586e+01	7.4725	82.761283	0.000567	5.674782	0.961334	-0.000114
 631	6.2685e+01	7.4548	82.644206	0.000588	5.877453	0.995667	-0.000118
 632	6.2785e+01	7.4334	82.543277	0.000507	5.066770	0.858334	-0.000101
 633	6.2884e+01	7.4139	82.454460	0.000446	4.458757	0.755334	-0.000089
 634	6.2983e+01	7.3931	82.333346	0.000608	6.080124	1.030001	-0.000122
 635	6.3083e+01	7.3730	82.236455	0.000486	4.864099	0.824001	-0.000097
 636	6.3182e+01	7.3537	82.103230	0.000669	6.688136	1.133001	-0.000134
 637	6.3282e+01	7.3345	82.034598	0.000345	3.445403	0.583667	-0.000069
 638	6.3382e+01	7.3132	81.925596	0.000547	5.472111	0.927001	-0.000110
 639	6.3481e+01	7.2942	81.816593	0.000547	5.472111	0.927001	-0.000110
 640	6.3581e+01	7.2741	81.711627	0.000527	5.269440	0.892667	-0.000105
 641	6.3680e+01	7.2533	81.590513	0.000608	6.080124	1.030001	-0.000122
 642	6.3779e+01	7.2338	81.473436	0.000588	5.877453	0.995667	-0.000118
 643	6.3879e+01	7.2134	81.424991	0.000243	2.432049	0.412000	-0.000049
 644	6.3978e+01	7.1941	81.271580	0.000770	7.701490	1.304668	-0.000154
 645	6.4078e+01	7.1746	81.158540	0.000567	5.674782	0.961334	-0.000114
 646	6.4177e+01	7.1545	81.085871	0.000365	3.648074	0.618000	-0.000073
 647	6.4277e+01	7.1343	80.960720	0.000628	6.282794	1.064334	-0.000126
 648	6.4376e+01	7.1151	80.863829	0.000486	4.864099	0.824001	-0.000097
 649	6.4476e+01	7.0953	80.762900	0.000507	5.066770	0.858334	-0.000101
 650	6.4576e+01	7.0739	80.674083	0.000446	4.458757	0.755334	-0.000089
 651	6.4675e+01	7.0544	80.548932	0.000628	6.282794	1.064334	-0.000126
 652	6.4775e+01	7.0287	80.443967	0.000527	5.269440	0.892667	-0.000105
 653	6.4874e+01	7.0150	80.314778	0.000649	6.485465	1.098668	-0.000130
 654	6.4974e+01	6.9946	80.205776	0.000547	5.472111	0.927001	-0.000110
 655	6.5073e+01	6.9753	80.120996	0.000426	4.256086	0.721001	-0.000085
 656	6.5172e+01	6.9549	80.024105	0.000486	4.864099	0.824001	-0.000097
 657	6.5272e+01	6.9353	79.923176	0.000507	5.066770	0.858334	-0.000101
 658	6.5371e+01	6.9152	79.773802	0.000750	7.498819	1.270334	-0.000150
 659	6.5471e+01	6.8961	79.656725	0.000588	5.877453	0.995667	-0.000118
 660	6.5570e+01	6.8755	79.547723	0.000547	5.472111	0.927001	-0.000110
 661	6.5670e+01	6.8557	79.479091	0.000345	3.445403	0.583667	-0.000069
 662	6.5769e+01	6.8359	79.366051	0.000567	5.674782	0.961334	-0.000114
 663	6.5869e+01	6.8157	79.248975	0.000588	5.877453	0.995667	-0.000118
 664	6.5969e+01	6.7959	79.144009	0.000527	5.269440	0.892667	-0.000105
 665	6.6068e+01	6.7760	78.998672	0.000730	7.296148	1.236001	-0.000146
 666	6.6168e+01	6.7550	78.889669	0.000547	5.472111	0.927001	-0.000110
 667	6.6267e+01	6.7364	78.772593	0.000588	5.877453	0.995667	-0.000118
 668	6.6367e+01	6.7150	78.691850	0.000405	4.053416	0.686667	-0.000081
 669	6.6466e+01	6.6952	78.578810	0.000567	5.674782	0.961334	-0.000114
 670	6.6566e+01	6.6756	78.469807	0.000547	5.472111	0.927001	-0.000110
 671	6.6665e+01	6.6558	78.364842	0.000527	5.269440	0.892667	-0.000105
 672	6.6764e+01	6.6369	78.211431	0.000770	7.701490	1.304668	-0.000154
 673	6.6864e+01	6.6161	78.118577	0.000466	4.661428	0.789667	-0.000093
 674	6.6963e+01	6.5987	78.029760	0.000446	4.458757	0.755334	-0.000089
 675	6.7063e+01	6.5755	77.872311	0.000790	7.904161	1.339001	-0.000158
 676	6.7162e+01	6.5554	77.763309	0.000547	5.472111	0.927001	-0.000110
 677	6.7262e+01	6.5365	77.634120	0.000649	6.485465	1.098668	-0.000130
 678	6.7362e+01	6.5173	77.553378	0.000405	4.053416	0.686667	-0.000081
 679	6.7461e+01	6.4965	77.420152	0.000669	6.688136	1.133001	-0.000134
 680	6.7561e+01	6.4776	77.347484	0.000365	3.648074	0.618000	-0.000073
 681	6.7660e+01	6.4568	77.210221	0.000689	6.890807	1.167334	-0.000138
 682	6.7760e+01	6.4376	77.097181	0.000567	5.674782	0.961334	-0.000114
 683	6.7859e+01	6.4165	76.959919	0.000689	6.890807	1.167334	-0.000138
 684	6.7959e+01	6.3970	76.863027	0.000486	4.864099	0.824001	-0.000097
 685	6.8058e+01	6.3769	76.741913	0.000608	6.080124	1.030001	-0.000122
 686	6.8157e+01	6.3575	76.624836	0.000588	5.877453	0.995667	-0.000118
 687	6.8257e+01	6.3372	76.479499	0.000730	7.296148	1.236001	-0.000146
 688	6.8356e+01	6.3171	76.382608	0.000486	4.864099	0.824001	-0.000097
 689	6.8456e+01	6.2988	76.233234	0.000750	7.498819	1.270334	-0.000150
 690	6.8555e+01	6.2774	76.144417	0.000446	4.458757	0.755334	-0.000089
 691	6.8655e+01	6.2579	76.015229	0.000649	6.485465	1.098668	-0.000130
 692	6.8754e+01	6.2389	75.930449	0.000426	4.256086	0.721001	-0.000085
 693	6.8854e+01	6.2194	75.760889	0.000851	8.512173	1.442001	-0.000170
 694	6.8954e+01	6.1980	75.668035	0.000466	4.661428	0.789667	-0.000093
 695	6.9053e+01	6.1785	75.542884	0.000628	6.282794	1.064334	-0.000126
 696	6.9153e+01	6.1590	75.417733	0.000628	6.282794	1.064334	-0.000126
 697	6.9252e+01	6.1382	75.284507	0.000669	6.688136	1.133001	-0.000134
 698	6.9352e+01	6.1187	75.175505	0.000547	5.472111	0.927001	-0.000110
 699	6.9451e+01	6.0998	75.042279	0.000669	6.688136	1.133001	-0.000134
 700	6.9550e+01	6.0784	74.921165	0.000608	6.080124	1.030001	-0.000122
 701	6.9650e+01	6.0589	74.763717	0.000790	7.904161	1.339001	-0.000158
 702	6.9749e+01	6.0387	74.703160	0.000304	3.040062	0.515000	-0.000061
 703	6.9849e+01	6.0180	74.569934	0.000669	6.688136	1.133001	-0.000134
 704	6.9948e+01	5.9996	74.464969	0.000527	5.269440	0.892667	-0.000105
 705	7.0048e+01	5.9783	74.364040	0.000507	5.066770	0.858334	-0.000101
 706	7.0147e+01	5.9591	74.222741	0.000709	7.093477	1.201668	-0.000142
 707	7.0247e+01	5.9391	74.121812	0.000507	5.066770	0.858334	-0.000101
 708	7.0347e+01	5.9197	73.992624	0.000649	6.485465	1.098668	-0.000130
 709	7.0446e+01	5.8996	73.819027	0.000871	8.714844	1.476335	-0.000174
 710	7.0546e+01	5.8793	73.742321	0.000385	3.850745	0.652334	-0.000077
 711	7.0645e+01	5.8599	73.617170	0.000628	6.282794	1.064334	-0.000126
 712	7.0745e+01	5.8389	73.500093	0.000588	5.877453	0.995667	-0.000118
 713	7.0844e+01	5.8202	73.350719	0.000750	7.498819	1.270334	-0.000150
 714	7.0944e+01	5.8000	73.245754	0.000527	5.269440	0.892667	-0.000105
 715	7.1043e+01	5.7793	73.128677	0.000588	5.877453	0.995667	-0.000118
 716	7.1142e+01	5.7592	73.031786	0.000486	4.864099	0.824001	-0.000097
 717	7.1242e+01	5.7406	72.894523	0.000689	6.890807	1.167334	-0.000138
 718	7.1341e+01	5.7200	72.749186	0.000730	7.296148	1.236001	-0.000146
 719	7.1441e+01	5.7000	72.619998	0.000649	6.485465	1.098668	-0.000130
 720	7.1540e+01	5.6805	72.494846	0.000628	6.282794	1.064334	-0.000126
 721	7.1640e+01	5.6600	72.410067	0.000426	4.256086	0.721001	-0.000085
 722	7.1740e+01	5.6399	72.272804	0.000689	6.890807	1.167334	-0.000138
 723	7.1839e+01	5.6207	72.123430	0.000750	7.498819	1.270334	-0.000150
 724	7.1939e+01	5.5999	72.018464	0.000527	5.269440	0.892667	-0.000105
 725	7.2038e+01	5.5810	71.856979	0.000811	8.106831	1.373334	-0.000162
 726	7.2138e+01	5.5608	71.760088	0.000486	4.864099	0.824001	-0.000097
 727	7.2237e+01	5.5407	71.675308	0.000426	4.256086	0.721001	-0.000085
 728	7.2337e+01	5.5206	71.493637	0.000912	9.120185	1.545001	-0.000183
 729	7.2436e+01	5.5010	71.400783	0.000466	4.661428	0.789667	-0.000093
 730	7.2535e+01	5.4809	71.275631	0.000628	6.282794	1.064334	-0.000126
 731	7.2635e+01	5.4607	71.154517	0.000608	6.080124	1.030001	-0.000122
 732	7.2734e+01	5.4412	71.021292	0.000669	6.688136	1.133001	-0.000134
 733	7.2834e+01	5.4217	70.879992	0.000709	7.093477	1.201668	-0.000142
 734	7.2933e+01	5.4009	70.779064	0.000507	5.066770	0.858334	-0.000101
 735	7.3033e+01	5.3814	70.621615	0.000790	7.904161	1.339001	-0.000158
 736	7.3132e+01	5.3619	70.512613	0.000547	5.472111	0.927001	-0.000110
 737	7.3232e+01	5.3411	70.355165	0.000790	7.904161	1.339001	-0.000158
 738	7.3332e+01	5.3216	70.258273	0.000486	4.864099	0.824001	-0.000097
 739	7.3431e+01	5.3014	70.129085	0.000649	6.485465	1.098668	-0.000130
 740	7.3531e+01	5.2795	69.995859	0.000669	6.688136	1.133001	-0.000134
 741	7.3630e+01	5.2618	69.870708	0.000628	6.282794	1.064334	-0.000126
 742	7.3730e+01	5.2416	69.725371	0.000730	7.296148	1.236001	-0.000146
 743	7.3829e+01	5.2219	69.600220	0.000628	6.282794	1.064334	-0.000126
 744	7.3928e+01	5.2020	69.491217	0.000547	5.472111	0.927001	-0.000110
 745	7.4028e+01	5.1818	69.366066	0.000628	6.282794	1.064334	-0.000126
 746	7.4127e+01	5.1611	69.224767	0.000709	7.093477	1.201668	-0.000142
 747	7.4227e+01	5.1415	69.091541	0.000669	6.688136	1.133001	-0.000134
 748	7.4326e+01	5.1223	68.978501	0.000567	5.674782	0.961334	-0.000114
 749	7.4426e+01	5.1029	68.869499	0.000547	5.472111	0.927001	-0.000110
 750	7.4525e+01	5.0823	68.675716	0.000973	9.728198	1.648001	-0.000195
 751	7.4625e+01	5.0628	68.550565	0.000628	6.282794	1.064334	-0.000126
 752	7.4725e+01	5.0433	68.445599	0.000527	5.269440	0.892667	-0.000105
 753	7.4824e+01	5.0231	68.328522	0.000588	5.877453	0.995667	-0.000118
 754	7.4924e+01	5.0030	68.227594	0.000507	5.066770	0.858334	-0.000101
 755	7.5023e+01	4.9834	68.070146	0.000790	7.904161	1.339001	-0.000158
 756	7.5123e+01	4.9645	67.949032	0.000608	6.080124	1.030001	-0.000122
 757	7.5222e+01	4.9432	67.823880	0.000628	6.282794	1.064334	-0.000126
 758	7.5322e+01	4.9236	67.710841	0.000567	5.674782	0.961334	-0.000114
 759	7.5421e+01	4.9029	67.573578	0.000689	6.890807	1.167334	-0.000138
 760	7.5520e+01	4.8840	67.424204	0.000750	7.498819	1.270334	-0.000150
 761	7.5620e+01	4.8637	67.290978	0.000669	6.688136	1.133001	-0.000134
 762	7.5719e+01	4.8429	67.173902	0.000588	5.877453	0.995667	-0.000118
 763	7.5819e+01	4.8232	67.068936	0.000527	5.269440	0.892667	-0.000105
 764	7.5918e+01	4.8040	66.915525	0.000770	7.701490	1.304668	-0.000154
 765	7.6018e+01	4.7836	66.802485	0.000567	5.674782	0.961334	-0.000114
 766	7.6118e+01	4.7637	66.649074	0.000770	7.701490	1.304668	-0.000154
 767	7.6217e+01	4.7436	66.556220	0.000466	4.661428	0.789667	-0.000093
 768	7.6317e+01	4.7240	66.414920	0.000709	7.093477	1.201668	-0.000142
 769	7.6416e+01	4.7030	66.261509	0.000770	7.701490	1.304668	-0.000154
 770	7.6516e+01	4.6847	66.148469	0.000567	5.674782	0.961334	-0.000114
 771	7.6615e+01	4.6636	66.015244	0.000669	6.688136	1.133001	-0.000134
 772	7.6715e+01	4.6447	65.861832	0.000770	7.701490	1.304668	-0.000154
 773	7.6814e+01	4.6256	65.760904	0.000507	5.066770	0.858334	-0.000101
 774	7.6913e+01	4.6044	65.623641	0.000689	6.890807	1.167334	-0.000138
 775	7.7013e+01	4.5831	65.474267	0.000750	7.498819	1.270334	-0.000150
 776	7.7112e+01	4.5641	65.389488	0.000426	4.256086	0.721001	-0.000085
 777	7.7212e+01	4.5440	65.240114	0.000750	7.498819	1.270334	-0.000150
 778	7.7311e+01	4.5245	65.062480	0.000892	8.917515	1.510668	-0.000179
 779	7.7411e+01	4.5049	64.945403	0.000588	5.877453	0.995667	-0.000118
 780	7.7510e+01	4.4839	64.824289	0.000608	6.080124	1.030001	-0.000122
 781	7.7610e+01	4.4639	64.691063	0.000669	6.688136	1.133001	-0.000134
 782	7.7710e+01	4.4445	64.553800	0.000689	6.890807	1.167334	-0.000138
 783	7.7809e+01	4.4244	64.432686	0.000608	6.080124	1.030001	-0.000122
 784	7.7909e+01	4.4045	64.299461	0.000669	6.688136	1.133001	-0.000134
 785	7.8008e+01	4.3859	64.162198	0.000689	6.890807	1.167334	-0.000138
 786	7.8108e+01	4.3645	64.057233	0.000527	5.269440	0.892667	-0.000105
 787	7.8207e+01	4.3450	63.875562	0.000912	9.120185	1.545001	-0.000183
 788	7.8306e+01	4.3249	63.766559	0.000547	5.472111	0.927001	-0.000110
 789	7.8406e+01	4.3059	63.641408	0.000628	6.282794	1.064334	-0.000126
 790	7.8505e+01	4.2858	63.512219	0.000649	6.485465	1.098668	-0.000130
 791	7.8605e+01	4.2651	63.387068	0.000628	6.282794	1.064334	-0.000126
 792	7.8704e+01	4.2455	63.205397	0.000912	9.120185	1.545001	-0.000183
 793	7.8804e+01	4.2254	63.112543	0.000466	4.661428	0.789667	-0.000093
 794	7.8903e+01	4.2059	62.951058	0.000811	8.106831	1.373334	-0.000162
 795	7.9003e+01	4.1848	62.817832	0.000669	6.688136	1.133001	-0.000134
 796	7.9103e+01	4.1656	62.688644	0.000649	6.485465	1.098668	-0.000130
 797	7.9202e+01	4.1454	62.539270	0.000750	7.498819	1.270334	-0.000150
 798	7.9302e+01	4.1256	62.389896	0.000750	7.498819	1.270334	-0.000150
 799	7.9401e+01	4.1064	62.309153	0.000405	4.053416	0.686667	-0.000081
 800	7.9501e+01	4.0859	62.171890	0.000689	6.890807	1.167334	-0.000138
 801	7.9600e+01	4.0655	61.994256	0.000892	8.917515	1.510668	-0.000179
 802	7.9700e+01	4.0453	61.869105	0.000628	6.282794	1.064334	-0.000126
 803	7.9799e+01	4.0258	61.707620	0.000811	8.106831	1.373334	-0.000162
 804	7.9898e+01	4.0067	61.586506	0.000608	6.080124	1.030001	-0.000122
 805	7.9998e+01	3.9861	61.465392	0.000608	6.080124	1.030001	-0.000122
 806	8.0097e+01	3.9657	61.307943	0.000790	7.904161	1.339001	-0.000158
 807	8.0197e+01	3.9468	61.162606	0.000730	7.296148	1.236001	-0.000146
 808	8.0296e+01	3.9275	61.037455	0.000628	6.282794	1.064334	-0.000126
 809	8.0396e+01	3.9062	60.900193	0.000689	6.890807	1.167334	-0.000138
 810	8.0496e+01	3.8863	60.746781	0.000770	7.701490	1.304668	-0.000154
 811	8.0595e+01	3.8671	60.601445	0.000730	7.296148	1.236001	-0.000146
 812	8.0695e+01	3.8467	60.464182	0.000689	6.890807	1.167334	-0.000138
 813	8.0794e+01	3.8268	60.355179	0.000547	5.472111	0.927001	-0.000110
 814	8.0894e+01	3.8064	60.197731	0.000790	7.904161	1.339001	-0.000158
 815	8.0993e+01	3.7872	60.036246	0.000811	8.106831	1.373334	-0.000162
 816	8.1093e+01	3.7661	59.923206	0.000567	5.674782	0.961334	-0.000114
 817	8.1192e+01	3.7475	59.777869	0.000730	7.296148	1.236001	-0.000146
 818	8.1291e+01	3.7276	59.620421	0.000790	7.904161	1.339001	-0.000158
 819	8.1391e+01	3.7081	59.499307	0.000608	6.080124	1.030001	-0.000122
 820	8.1490e+01	3.6883	59.341858	0.000790	7.904161	1.339001	-0.000158
 821	8.1590e+01	3.6689	59.196521	0.000730	7.296148	1.236001	-0.000146
 822	8.1689e+01	3.6477	59.071370	0.000628	6.282794	1.064334	-0.000126
 823	8.1789e+01	3.6285	58.950256	0.000608	6.080124	1.030001	-0.000122
 824	8.1888e+01	3.6071	58.825105	0.000628	6.282794	1.064334	-0.000126
 825	8.1988e+01	3.5879	58.619211	0.001034	10.336210	1.751001	-0.000207
 826	8.2088e+01	3.5677	58.490023	0.000649	6.485465	1.098668	-0.000130
 827	8.2187e+01	3.5455	58.348723	0.000709	7.093477	1.201668	-0.000142
 828	8.2287e+01	3.5281	58.183200	0.000831	8.309502	1.407668	-0.000166
 829	8.2386e+01	3.5082	58.066123	0.000588	5.877453	0.995667	-0.000118
 830	8.2486e+01	3.4893	57.904638	0.000811	8.106831	1.373334	-0.000162
 831	8.2585e+01	3.4682	57.739115	0.000831	8.309502	1.407668	-0.000166
 832	8.2684e+01	3.4493	57.626076	0.000567	5.674782	0.961334	-0.000114
 833	8.2784e+01	3.4295	57.476702	0.000750	7.498819	1.270334	-0.000150
 834	8.2883e+01	3.4090	57.323290	0.000770	7.701490	1.304668	-0.000154
 835	8.2983e+01	3.3883	57.153731	0.000851	8.512173	1.442001	-0.000170
 836	8.3082e+01	3.3685	57.036654	0.000588	5.877453	0.995667	-0.000118
 837	8.3182e+01	3.3492	56.879205	0.000790	7.904161	1.339001	-0.000158
 838	8.3281e+01	3.3294	56.717720	0.000811	8.106831	1.373334	-0.000162
 839	8.3381e+01	3.3086	56.584495	0.000669	6.688136	1.133001	-0.000134
 840	8.3481e+01	3.2891	56.414935	0.000851	8.512173	1.442001	-0.000170
 841	8.3580e+01	3.2693	56.261524	0.000770	7.701490	1.304668	-0.000154
 842	8.3680e+01	3.2496	56.144447	0.000588	5.877453	0.995667	-0.000118
 843	8.3779e+01	3.2290	55.950664	0.000973	9.728198	1.648001	-0.000195
 844	8.3879e+01	3.2082	55.837624	0.000567	5.674782	0.961334	-0.000114
 845	8.3978e+01	3.1889	55.643842	0.000973	9.728198	1.648001	-0.000195
 846	8.4078e+01	3.1695	55.522728	0.000608	6.080124	1.030001	-0.000122
 847	8.4177e+01	3.1504	55.401614	0.000608	6.080124	1.030001	-0.000122
 848	8.4276e+01	3.1303	55.240128	0.000811	8.106831	1.373334	-0.000162
 849	8.4376e+01	3.1100	55.074606	0.000831	8.309502	1.407668	-0.000166
 850	8.4475e+01	3.0893	54.913120	0.000811	8.106831	1.373334	-0.000162
 851	8.4575e+01	3.0709	54.747598	0.000831	8.309502	1.407668	-0.000166
 852	8.4674e+01	3.0492	54.634558	0.000567	5.674782	0.961334	-0.000114
 853	8.4774e+01	3.0297	54.485184	0.000750	7.498819	1.270334	-0.000150
 854	8.4874e+01	3.0108	54.335810	0.000750	7.498819	1.270334	-0.000150
 855	8.4973e+01	2.9903	54.178362	0.000790	7.904161	1.339001	-0.000158
 856	8.5073e+01	2.9705	54.016876	0.000811	8.106831	1.373334	-0.000162
 857	8.5172e+01	2.9504	53.867502	0.000750	7.498819	1.270334	-0.000150
 858	8.5272e+01	2.9308	53.689868	0.000892	8.917515	1.510668	-0.000179
 859	8.5371e+01	2.9108	53.548568	0.000709	7.093477	1.201668	-0.000142
 860	8.5471e+01	2.8905	53.415343	0.000669	6.688136	1.133001	-0.000134
 861	8.5570e+01	2.8707	53.225598	0.000953	9.525527	1.613668	-0.000191
 862	8.5669e+01	2.8509	53.084298	0.000709	7.093477	1.201668	-0.000142
 863	8.5769e+01	2.8307	52.934924	0.000750	7.498819	1.270334	-0.000150
 864	8.5868e+01	2.8104	52.773438	0.000811	8.106831	1.373334	-0.000162
 865	8.5968e+01	2.7905	52.591767	0.000912	9.120185	1.545001	-0.000183
 866	8.6067e+01	2.7712	52.454505	0.000689	6.890807	1.167334	-0.000138
 867	8.6167e+01	2.7518	52.260722	0.000973	9.728198	1.648001	-0.000195
 868	8.6266e+01	2.7299	52.123460	0.000689	6.890807	1.167334	-0.000138
 869	8.6366e+01	2.7111	51.990234	0.000669	6.688136	1.133001	-0.000134
 870	8.6466e+01	2.6911	51.812600	0.000892	8.917515	1.510668	-0.000179
 871	8.6565e+01	2.6717	51.651115	0.000811	8.106831	1.373334	-0.000162
 872	8.6665e+01	2.6504	51.501741	0.000750	7.498819	1.270334	-0.000150
 873	8.6764e+01	2.6311	51.376589	0.000628	6.282794	1.064334	-0.000126
 874	8.6864e+01	2.6110	51.170695	0.001034	10.336210	1.751001	-0.000207
 875	8.6963e+01	2.5909	51.041507	0.000649	6.485465	1.098668	-0.000130
 876	8.7063e+01	2.5721	50.888096	0.000770	7.701490	1.304668	-0.000154
 877	8.7162e+01	2.5513	50.738722	0.000750	7.498819	1.270334	-0.000150
 878	8.7261e+01	2.5316	50.569162	0.000851	8.512173	1.442001	-0.000170
 879	8.7361e+01	2.5121	50.407677	0.000811	8.106831	1.373334	-0.000162
 880	8.7460e+01	2.4917	50.238117	0.000851	8.512173	1.442001	-0.000170
 881	8.7560e+01	2.4717	50.125077	0.000567	5.674782	0.961334	-0.000114
 882	8.7659e+01	2.4511	49.919183	0.001034	10.336210	1.751001	-0.000207
 883	8.7759e+01	2.4323	49.761735	0.000790	7.904161	1.339001	-0.000158
 884	8.7859e+01	2.4117	49.628510	0.000669	6.688136	1.133001	-0.000134
 885	8.7958e+01	2.3917	49.450876	0.000892	8.917515	1.510668	-0.000179
 886	8.8058e+01	2.3722	49.305539	0.000730	7.296148	1.236001	-0.000146
 887	8.8157e+01	2.3525	49.144053	0.000811	8.106831	1.373334	-0.000162
 888	8.8257e+01	2.3321	48.974494	0.000851	8.512173	1.442001	-0.000170
 889	8.8356e+01	2.3125	48.800897	0.000871	8.714844	1.476335	-0.000174
 890	8.8456e+01	2.2927	48.651523	0.000750	7.498819	1.270334	-0.000150
 891	8.8555e+01	2.2717	48.506186	0.000730	7.296148	1.236001	-0.000146
 892	8.8654e+01	2.2530	48.336626	0.000851	8.512173	1.442001	-0.000170
 893	8.8754e+01	2.2332	48.175141	0.000811	8.106831	1.373334	-0.000162
 894	8.8853e+01	2.2128	48.025767	0.000750	7.498819	1.270334	-0.000150
 895	8.8953e+01	2.1932	47.844096	0.000912	9.120185	1.545001	-0.000183
 896	8.9052e+01	2.1740	47.654350	0.000953	9.525527	1.613668	-0.000191
 897	8.9152e+01	2.1529	47.517088	0.000689	6.890807	1.167334	-0.000138
 898	8.9251e+01	2.1335	47.355602	0.000811	8.106831	1.373334	-0.000162
 899	8.9351e+01	2.1136	47.177968	0.000892	8.917515	1.510668	-0.000179
 900	8.9451e+01	2.0933	47.040706	0.000689	6.890807	1.167334	-0.000138
 901	8.9550e+01	2.0735	46.879220	0.000811	8.106831	1.373334	-0.000162
 902	8.9650e+01	2.0536	46.721772	0.000790	7.904161	1.339001	-0.000158
 903	8.9749e+01	2.0336	46.536064	0.000932	9.322856	1.579335	-0.000187
 904	8.9849e+01	2.0126	46.370541	0.000831	8.309502	1.407668	-0.000166
 905	8.9948e+01	1.9936	46.209056	0.000811	8.106831	1.373334	-0.000162
 906	9.0047e+01	1.9736	46.055644	0.000770	7.701490	1.304668	-0.000154
 907	9.0147e+01	1.9543	45.865899	0.000953	9.525527	1.613668	-0.000191
 908	9.0246e+01	1.9335	45.716525	0.000750	7.498819	1.270334	-0.000150
 909	9.0346e+01	1.9139	45.551003	0.000831	8.309502	1.407668	-0.000166
 910	9.0445e+01	1.8929	45.397591	0.000770	7.701490	1.304668	-0.000154
 911	9.0545e+01	1.8738	45.211883	0.000932	9.322856	1.579335	-0.000187
 912	9.0644e+01	1.8542	45.066546	0.000730	7.296148	1.236001	-0.000146
 913	9.0744e+01	1.8340	44.913135	0.000770	7.701490	1.304668	-0.000154
 914	9.0844e+01	1.8151	44.763761	0.000750	7.498819	1.270334	-0.000150
 915	9.0943e+01	1.7936	44.578053	0.000932	9.322856	1.579335	-0.000187
 916	9.1043e+01	1.7737	44.400419	0.000892	8.917515	1.510668	-0.000179
 917	9.1142e+01	1.7544	44.259119	0.000709	7.093477	1.201668	-0.000142
 918	9.1242e+01	1.7348	44.069374	0.000953	9.525527	1.613668	-0.000191
 919	9.1341e+01	1.7144	43.920000	0.000750	7.498819	1.270334	-0.000150
 920	9.1441e+01	1.6949	43.742366	0.000892	8.917515	1.510668	-0.000179
 921	9.1540e+01	1.6747	43.576843	0.000831	8.309502	1.407668	-0.000166
 922	9.1639e+01	1.6553	43.407283	0.000851	8.512173	1.442001	-0.000170
 923	9.1739e+01	1.6338	43.249835	0.000790	7.904161	1.339001	-0.000158
 924	9.1838e+01	1.6143	43.047978	0.001013	10.133539	1.716668	-0.000203
 925	9.1938e+01	1.5943	42.914753	0.000669	6.688136	1.133001	-0.000134
 926	9.2037e+01	1.5750	42.773453	0.000709	7.093477	1.201668	-0.000142
 927	9.2137e+01	1.5551	42.611968	0.000811	8.106831	1.373334	-0.000162
 928	9.2237e+01	1.5357	42.450482	0.000811	8.106831	1.373334	-0.000162
 929	9.2336e+01	1.5144	42.264774	0.000932	9.322856	1.579335	-0.000187
 930	9.2436e+01	1.4957	42.119437	0.000730	7.296148	1.236001	-0.000146
 931	9.2535e+01	1.4751	41.893358	0.001135	11.349564	1.922668	-0.000227
 932	9.2635e+01	1.4547	41.756095	0.000689	6.890807	1.167334	-0.000138
 933	9.2734e+01	1.4353	41.586535	0.000851	8.512173	1.442001	-0.000170
 934	9.2834e+01	1.4153	41.400827	0.000932	9.322856	1.579335	-0.000187
 935	9.2933e+01	1.3956	41.287787	0.000567	5.674782	0.961334	-0.000114
 936	9.3032e+01	1.3744	41.077856	0.001054	10.538881	1.785335	-0.000211
 937	9.3132e+01	1.3554	40.948668	0.000649	6.485465	1.098668	-0.000130
 938	9.3231e+01	1.3355	40.779108	0.000851	8.512173	1.442001	-0.000170
 939	9.3331e+01	1.3158	40.593400	0.000932	9.322856	1.579335	-0.000187
 940	9.3430e+01	1.2972	40.423840	0.000851	8.512173	1.442001	-0.000170
 941	9.3530e+01	1.2752	40.278503	0.000730	7.296148	1.236001	-0.000146
 942	9.3629e+01	1.2560	40.092795	0.000932	9.322856	1.579335	-0.000187
 943	9.3729e+01	1.2370	39.927272	0.000831	8.309502	1.407668	-0.000166
 944	9.3829e+01	1.2170	39.741564	0.000932	9.322856	1.579335	-0.000187
 945	9.3928e+01	1.1966	39.600264	0.000709	7.093477	1.201668	-0.000142
 946	9.4028e+01	1.1763	39.422630	0.000892	8.917515	1.510668	-0.000179
 947	9.4127e+01	1.1573	39.253071	0.000851	8.512173	1.442001	-0.000170
 948	9.4227e+01	1.1376	39.131957	0.000608	6.080124	1.030001	-0.000122
 949	9.4326e+01	1.1167	38.922026	0.001054	10.538881	1.785335	-0.000211
 950	9.4425e+01	1.0974	38.764577	0.000790	7.904161	1.339001	-0.000158
 951	9.4525e+01	1.0772	38.615203	0.000750	7.498819	1.270334	-0.000150
 952	9.4624e+01	1.0581	38.429495	0.000932	9.322856	1.579335	-0.000187
 953	9.4724e+01	1.0381	38.243787	0.000932	9.322856	1.579335	-0.000187
 954	9.4823e+01	1.0175	38.106524	0.000689	6.890807	1.167334	-0.000138
 955	9.4923e+01	0.9971	37.949076	0.000790	7.904161	1.339001	-0.000158
 956	9.5022e+01	0.9775	37.751256	0.000993	9.930868	1.682335	-0.000199
 957	9.5122e+01	0.9573	37.569585	0.000912	9.120185	1.545001	-0.000183
 958	9.5222e+01	0.9380	37.404063	0.000831	8.309502	1.407668	-0.000166
 959	9.5321e+01	0.9180	37.258726	0.000730	7.296148	1.236001	-0.000146
 960	9.5421e+01	0.8979	37.056869	0.001013	10.133539	1.716668	-0.000203
 961	9.5520e+01	0.8781	36.907495	0.000750	7.498819	1.270334	-0.000150
 962	9.5620e+01	0.8578	36.729861	0.000892	8.917515	1.510668	-0.000179
 963	9.5719e+01	0.8379	36.544153	0.000932	9.322856	1.579335	-0.000187
 964	9.5819e+01	0.8186	36.378630	0.000831	8.309502	1.407668	-0.000166
 965	9.5918e+01	0.7978	36.200996	0.000892	8.917515	1.510668	-0.000179
 966	9.6017e+01	0.7791	36.051622	0.000750	7.498819	1.270334	-0.000150
 967	9.6117e+01	0.7580	35.857840	0.000973	9.728198	1.648001	-0.000195
 968	9.6216e+01	0.7383	35.680206	0.000892	8.917515	1.510668	-0.000179
 969	9.6316e+01	0.7173	35.514683	0.000831	8.309502	1.407668	-0.000166
 970	9.6415e+01	0.6989	35.337049	0.000892	8.917515	1.510668	-0.000179
 971	9.6515e+01	0.6787	35.163452	0.000871	8.714844	1.476335	-0.000174
 972	9.6615e+01	0.6579	34.985818	0.000892	8.917515	1.510668	-0.000179
 973	9.6714e+01	0.6386	34.824333	0.000811	8.106831	1.373334	-0.000162
 974	9.6814e+01	0.6187	34.650736	0.000871	8.714844	1.476335	-0.000174
 975	9.6913e+01	0.5983	34.485213	0.000831	8.309502	1.407668	-0.000166
 976	9.7013e+01	0.5789	34.303542	0.000912	9.120185	1.545001	-0.000183
 977	9.7112e+01	0.5592	34.125908	0.000892	8.917515	1.510668	-0.000179
 978	9.7212e+01	0.5389	33.948274	0.000892	8.917515	1.510668	-0.000179
 979	9.7311e+01	0.5192	33.782752	0.000831	8.309502	1.407668	-0.000166
 980	9.7410e+01	0.4998	33.629341	0.000770	7.701490	1.304668	-0.000154
 981	9.7510e+01	0.4801	33.455744	0.000871	8.714844	1.476335	-0.000174
 982	9.7609e+01	0.4599	33.245813	0.001054	10.538881	1.785335	-0.000211
 983	9.7709e+01	0.4398	33.088365	0.000790	7.904161	1.339001	-0.000158
 984	9.7808e+01	0.4191	32.906693	0.000912	9.120185	1.545001	-0.000183
 985	9.7908e+01	0.3993	32.696762	0.001054	10.538881	1.785335	-0.000211
 986	9.8007e+01	0.3793	32.547388	0.000750	7.498819	1.270334	-0.000150
 987	9.8107e+01	0.3601	32.393977	0.000770	7.701490	1.304668	-0.000154
 988	9.8207e+01	0.3396	32.236529	0.000790	7.904161	1.339001	-0.000158
 989	9.8306e+01	0.3190	32.062932	0.000871	8.714844	1.476335	-0.000174
 990	9.8406e+01	0.2999	31.869150	0.000973	9.728198	1.648001	-0.000195
 991	9.8505e+01	0.2803	31.675367	0.000973	9.728198	1.648001	-0.000195
 992	9.8605e+01	0.2603	31.481584	0.000973	9.728198	1.648001	-0.000195
 993	9.8704e+01	0.2400	31.303951	0.000892	8.917515	1.510668	-0.000179
 994	9.8803e+01	0.2200	31.154576	0.000750	7.498819	1.270334	-0.000150
 995	9.8903e+01	0.1998	30.972905	0.000912	9.120185	1.545001	-0.000183
 996	9.9002e+01	0.1802	30.783160	0.000953	9.525527	1.613668	-0.000191
 997	9.9102e+01	0.1601	30.629749	0.000770	7.701490	1.304668	-0.000154
 998	9.9201e+01	0.1400	30.452115	0.000892	8.917515	1.510668	-0.000179
 999	9.9301e+01	0.1208	30.254295	0.000993	9.930868	1.682335	-0.000199
1000	9.9400e+01	0.1009	30.092810	0.000811	8.106831	1.373334	-0.000162
1001	9.9500e+01	0.0803	29.894990	0.000993	9.930868	1.682335	-0.000199
1002	9.9600e+01	0.0605	29.713319	0.000912	9.120185	1.545001	-0.000183
1003	9.9699e+01	0.0399	29.551834	0.000811	8.106831	1.373334	-0.000162
1004	9.9799e+01	0.0201	29.341903	0.001054	10.538881	1.785335	-0.000211
1005	9.9898e+01	0.0006	29.168306	0.000871	8.714844	1.476335	-0.000174
1006	9.9998e+01	-0.0180	29.014895	0.000770	7.701490	1.304668	-0.000154
1007	1.0010e+02	-0.0371	28.861483	0.000770	7.701490	1.304668	-0.000154
1008	1.0020e+02	-0.0570	28.655589	0.001034	10.336210	1.751001	-0.000207
1009	1.0030e+02	-0.0774	28.465844	0.000953	9.525527	1.613668	-0.000191
1010	1.0040e+02	-0.0974	28.272062	0.000973	9.728198	1.648001	-0.000195
1011	1.0050e+02	-0.1170	28.122688	0.000750	7.498819	1.270334	-0.000150
1012	1.0059e+02	-0.1362	27.949091	0.000871	8.714844	1.476335	-0.000174
1013	1.0069e+02	-0.1576	27.723011	0.001135	11.349564	1.922668	-0.000227
1014	1.0079e+02	-0.1774	27.581711	0.000709	7.093477	1.201668	-0.000142
1015	1.0089e+02	-0.1970	27.412152	0.000851	8.512173	1.442001	-0.000170
1016	1.0099e+02	-0.2167	27.222406	0.000953	9.525527	1.613668	-0.000191
1017	1.0109e+02	-0.2365	27.012475	0.001054	10.538881	1.785335	-0.000211
1018	1.0119e+02	-0.2565	26.826767	0.000932	9.322856	1.579335	-0.000187
1019	1.0129e+02	-0.2760	26.645096	0.000912	9.120185	1.545001	-0.000183
1020	1.0139e+02	-0.2965	26.475536	0.000851	8.512173	1.442001	-0.000170
1021	1.0149e+02	-0.3161	26.289828	0.000932	9.322856	1.579335	-0.000187
1022	1.0159e+02	-0.3372	26.128342	0.000811	8.106831	1.373334	-0.000162
1023	1.0169e+02	-0.3563	25.926486	0.001013	10.133539	1.716668	-0.000203
1024	1.0179e+02	-0.3770	25.765000	0.000811	8.106831	1.373334	-0.000162
1025	1.0189e+02	-0.3960	25.559106	0.001034	10.336210	1.751001	-0.000207
1026	1.0199e+02	-0.4163	25.341101	0.001094	10.944222	1.854001	-0.000219
1027	1.0209e+02	-0.4363	25.171541	0.000851	8.512173	1.442001	-0.000170
1028	1.0219e+02	-0.4562	24.977759	0.000973	9.728198	1.648001	-0.000195
1029	1.0229e+02	-0.4765	24.812236	0.000831	8.309502	1.407668	-0.000166
1030	1.0239e+02	-0.4956	24.594231	0.001094	10.944222	1.854001	-0.000219
1031	1.0248e+02	-0.5154	24.424671	0.000851	8.512173	1.442001	-0.000170
1032	1.0258e+02	-0.5351	24.263186	0.000811	8.106831	1.373334	-0.000162
1033	1.0268e+02	-0.5551	24.057292	0.001034	10.336210	1.751001	-0.000207
1034	1.0278e+02	-0.5762	23.883695	0.000871	8.714844	1.476335	-0.000174
1035	1.0288e+02	-0.5956	23.706061	0.000892	8.917515	1.510668	-0.000179
1036	1.0298e+02	-0.6160	23.540538	0.000831	8.309502	1.407668	-0.000166
1037	1.0308e+02	-0.6360	23.314459	0.001135	11.349564	1.922668	-0.000227
1038	1.0318e+02	-0.6555	23.112602	0.001013	10.133539	1.716668	-0.000203
1039	1.0328e+02	-0.6763	22.930931	0.000912	9.120185	1.545001	-0.000183
1040	1.0338e+02	-0.6957	22.773483	0.000790	7.904161	1.339001	-0.000158
1041	1.0348e+02	-0.7159	22.567589	0.001034	10.336210	1.751001	-0.000207
1042	1.0358e+02	-0.7345	22.414178	0.000770	7.701490	1.304668	-0.000154
1043	1.0368e+02	-0.7550	22.196172	0.001094	10.944222	1.854001	-0.000219
1044	1.0378e+02	-0.7751	22.046798	0.000750	7.498819	1.270334	-0.000150
1045	1.0388e+02	-0.7947	21.844941	0.001013	10.133539	1.716668	-0.000203
1046	1.0398e+02	-0.8144	21.683456	0.000811	8.106831	1.373334	-0.000162
1047	1.0408e+02	-0.8349	21.477562	0.001034	10.336210	1.751001	-0.000207
1048	1.0418e+02	-0.8547	21.291854	0.000932	9.322856	1.579335	-0.000187
1049	1.0428e+02	-0.8749	21.130368	0.000811	8.106831	1.373334	-0.000162
1050	1.0438e+02	-0.8948	20.932549	0.000993	9.930868	1.682335	-0.000199
1051	1.0447e+02	-0.9143	20.742803	0.000953	9.525527	1.613668	-0.000191
1052	1.0457e+02	-0.9338	20.553058	0.000953	9.525527	1.613668	-0.000191
1053	1.0467e+02	-0.9546	20.375424	0.000892	8.917515	1.510668	-0.000179
1054	1.0477e+02	-0.9743	20.209902	0.000831	8.309502	1.407668	-0.000166
1055	1.0487e+02	-0.9936	20.004008	0.001034	10.336210	1.751001	-0.000207
1056	1.0497e+02	-1.0135	19.842522	0.000811	8.106831	1.373334	-0.000162
1057	1.0507e+02	-1.0339	19.660851	0.000912	9.120185	1.545001	-0.000183
1058	1.0517e+02	-1.0541	19.454957	0.001034	10.336210	1.751001	-0.000207
1059	1.0527e+02	-1.0745	19.293472	0.000811	8.106831	1.373334	-0.000162
1060	1.0537e+02	-1.0941	19.111801	0.000912	9.120185	1.545001	-0.000183
1061	1.0547e+02	-1.1138	18.897832	0.001074	10.741552	1.819668	-0.000215
1062	1.0557e+02	-1.1338	18.708087	0.000953	9.525527	1.613668	-0.000191
1063	1.0567e+02	-1.1539	18.526416	0.000912	9.120185	1.545001	-0.000183
1064	1.0577e+02	-1.1741	18.324559	0.001013	10.133539	1.716668	-0.000203
1065	1.0587e+02	-1.1932	18.150962	0.000871	8.714844	1.476335	-0.000174
1066	1.0597e+02	-1.2140	17.965254	0.000932	9.322856	1.579335	-0.000187
1067	1.0607e+02	-1.2328	17.751286	0.001074	10.741552	1.819668	-0.000215
1068	1.0617e+02	-1.2538	17.545392	0.001034	10.336210	1.751001	-0.000207
1069	1.0627e+02	-1.2724	17.400055	0.000730	7.296148	1.236001	-0.000146
1070	1.0637e+02	-1.2935	17.222421	0.000892	8.917515	1.510668	-0.000179
1071	1.0647e+02	-1.3129	17.069010	0.000770	7.701490	1.304668	-0.000154
1072	1.0656e+02	-1.3329	16.851005	0.001094	10.944222	1.854001	-0.000219
1073	1.0666e+02	-1.3527	16.665296	0.000932	9.322856	1.579335	-0.000187
1074	1.0676e+02	-1.3721	16.475551	0.000953	9.525527	1.613668	-0.000191
1075	1.0686e+02	-1.3921	16.281768	0.000973	9.728198	1.648001	-0.000195
1076	1.0696e+02	-1.4120	16.120283	0.000811	8.106831	1.373334	-0.000162
1077	1.0706e+02	-1.4327	15.942649	0.000892	8.917515	1.510668	-0.000179
1078	1.0716e+02	-1.4523	15.744829	0.000993	9.930868	1.682335	-0.000199
1079	1.0726e+02	-1.4720	15.575270	0.000851	8.512173	1.442001	-0.000170
1080	1.0736e+02	-1.4917	15.389561	0.000932	9.322856	1.579335	-0.000187
1081	1.0746e+02	-1.5121	15.167519	0.001115	11.146893	1.888335	-0.000223
1082	1.0756e+02	-1.5317	15.006034	0.000811	8.106831	1.373334	-0.000162
1083	1.0766e+02	-1.5521	14.852622	0.000770	7.701490	1.304668	-0.000154
1084	1.0776e+02	-1.5723	14.618469	0.001175	11.754906	1.991335	-0.000235
1085	1.0786e+02	-1.5916	14.461020	0.000790	7.904161	1.339001	-0.000158
1086	1.0796e+02	-1.6116	14.279349	0.000912	9.120185	1.545001	-0.000183
1087	1.0806e+02	-1.6312	14.081529	0.000993	9.930868	1.682335	-0.000199
1088	1.0816e+02	-1.6513	13.899858	0.000912	9.120185	1.545001	-0.000183
1089	1.0826e+02	-1.6726	13.726262	0.000871	8.714844	1.476335	-0.000174
1090	1.0836e+02	-1.6921	13.556702	0.000851	8.512173	1.442001	-0.000170
1091	1.0845e+02	-1.7111	13.387142	0.000851	8.512173	1.442001	-0.000170
1092	1.0855e+02	-1.7307	13.128765	0.001297	12.970930	2.197335	-0.000260
1093	1.0865e+02	-1.7510	12.987466	0.000709	7.093477	1.201668	-0.000142
1094	1.0875e+02	-1.7714	12.817906	0.000851	8.512173	1.442001	-0.000170
1095	1.0885e+02	-1.7908	12.648346	0.000851	8.512173	1.442001	-0.000170
1096	1.0895e+02	-1.8115	12.446489	0.001013	10.133539	1.716668	-0.000203
1097	1.0905e+02	-1.8304	12.276930	0.000851	8.512173	1.442001	-0.000170
1098	1.0915e+02	-1.8500	12.079110	0.000993	9.930868	1.682335	-0.000199
1099	1.0925e+02	-1.8719	11.909550	0.000851	8.512173	1.442001	-0.000170
1100	1.0935e+02	-1.8907	11.683471	0.001135	11.349564	1.922668	-0.000227
1101	1.0945e+02	-1.9107	11.534097	0.000750	7.498819	1.270334	-0.000150
1102	1.0955e+02	-1.9302	11.308017	0.001135	11.349564	1.922668	-0.000227
1103	1.0965e+02	-1.9507	11.186903	0.000608	6.080124	1.030001	-0.000122
1104	1.0975e+02	-1.9710	10.993121	0.000973	9.728198	1.648001	-0.000195
1105	1.0985e+02	-1.9905	10.799338	0.000973	9.728198	1.648001	-0.000195
1106	1.0995e+02	-2.0097	10.637853	0.000811	8.106831	1.373334	-0.000162
1107	1.1005e+02	-2.0302	10.444070	0.000973	9.728198	1.648001	-0.000195
1108	1.1015e+02	-2.0510	10.302770	0.000709	7.093477	1.201668	-0.000142
1109	1.1025e+02	-2.0703	10.092839	0.001054	10.538881	1.785335	-0.000211
1110	1.1035e+02	-2.0903	9.935391	0.000790	7.904161	1.339001	-0.000158
1111	1.1044e+02	-2.1103	9.737571	0.000993	9.930868	1.682335	-0.000199
1112	1.1054e+02	-2.1294	9.555900	0.000912	9.120185	1.545001	-0.000183
1113	1.1064e+02	-2.1497	9.378266	0.000892	8.917515	1.510668	-0.000179
1114	1.1074e+02	-2.1698	9.188521	0.000953	9.525527	1.613668	-0.000191
1115	1.1084e+02	-2.1912	9.031073	0.000790	7.904161	1.339001	-0.000158
1116	1.1094e+02	-2.2101	8.837290	0.000973	9.728198	1.648001	-0.000195
1117	1.1104e+02	-2.2299	8.687916	0.000750	7.498819	1.270334	-0.000150
1118	1.1114e+02	-2.2503	8.490096	0.000993	9.930868	1.682335	-0.000199
1119	1.1124e+02	-2.2696	8.288240	0.001013	10.133539	1.716668	-0.000203
1120	1.1134e+02	-2.2894	8.138866	0.000750	7.498819	1.270334	-0.000150
1121	1.1144e+02	-2.3093	7.945083	0.000973	9.728198	1.648001	-0.000195
1122	1.1154e+02	-2.3302	7.771486	0.000871	8.714844	1.476335	-0.000174
1123	1.1164e+02	-2.3492	7.585778	0.000932	9.322856	1.579335	-0.000187
1124	1.1174e+02	-2.3691	7.424293	0.000811	8.106831	1.373334	-0.000162
1125	1.1184e+02	-2.3904	7.242622	0.000912	9.120185	1.545001	-0.000183
1126	1.1194e+02	-2.4102	7.028653	0.001074	10.741552	1.819668	-0.000215
1127	1.1204e+02	-2.4292	6.846982	0.000912	9.120185	1.545001	-0.000183
1128	1.1214e+02	-2.4492	6.717794	0.000649	6.485465	1.098668	-0.000130
1129	1.1224e+02	-2.4695	6.528048	0.000953	9.525527	1.613668	-0.000191
1130	1.1234e+02	-2.4890	6.330229	0.000993	9.930868	1.682335	-0.000199
1131	1.1244e+02	-2.5087	6.128372	0.001013	10.133539	1.716668	-0.000203
1132	1.1253e+02	-2.5281	6.003221	0.000628	6.282794	1.064334	-0.000126
1133	1.1263e+02	-2.5491	5.773104	0.001155	11.552235	1.957002	-0.000231
1134	1.1273e+02	-2.5677	5.615656	0.000790	7.904161	1.339001	-0.000158
1135	1.1283e+02	-2.5881	5.442059	0.000871	8.714844	1.476335	-0.000174
1136	1.1293e+02	-2.6071	5.240202	0.001013	10.133539	1.716668	-0.000203
1137	1.1303e+02	-2.6280	5.115051	0.000628	6.282794	1.064334	-0.000126
1138	1.1313e+02	-2.6474	4.917231	0.000993	9.930868	1.682335	-0.000199
1139	1.1323e+02	-2.6675	4.739597	0.000892	8.917515	1.510668	-0.000179
1140	1.1333e+02	-2.6871	4.537741	0.001013	10.133539	1.716668	-0.000203
1141	1.1343e+02	-2.7077	4.388367	0.000750	7.498819	1.270334	-0.000150
1142	1.1353e+02	-2.7277	4.186510	0.001013	10.133539	1.716668	-0.000203
1143	1.1363e+02	-2.7473	4.016950	0.000851	8.512173	1.442001	-0.000170
1144	1.1373e+02	-2.7681	3.790870	0.001135	11.349564	1.922668	-0.000227
1145	1.1383e+02	-2.7878	3.669756	0.000608	6.080124	1.030001	-0.000122
1146	1.1393e+02	-2.8082	3.463862	0.001034	10.336210	1.751001	-0.000207
1147	1.1403e+02	-2.8270	3.286228	0.000892	8.917515	1.510668	-0.000179
1148	1.1413e+02	-2.8479	3.080335	0.001034	10.336210	1.751001	-0.000207
1149	1.1423e+02	-2.8674	2.922886	0.000790	7.904161	1.339001	-0.000158
1150	1.1433e+02	-2.8880	2.761401	0.000811	8.106831	1.373334	-0.000162
1151	1.1442e+02	-2.9079	2.603953	0.000790	7.904161	1.339001	-0.000158
1152	1.1452e+02	-2.9272	2.430356	0.000871	8.714844	1.476335	-0.000174
1153	1.1462e+02	-2.9465	2.272907	0.000790	7.904161	1.339001	-0.000158
1154	1.1472e+02	-2.9675	2.058939	0.001074	10.741552	1.819668	-0.000215
1155	1.1482e+02	-2.9865	1.889380	0.000851	8.512173	1.442001	-0.000170
1156	1.1492e+02	-3.0069	1.695597	0.000973	9.728198	1.648001	-0.000195
1157	1.1502e+02	-3.0266	1.554297	0.000709	7.093477	1.201668	-0.000142
1158	1.1512e+02	-3.0460	1.356478	0.000993	9.930868	1.682335	-0.000199
1159	1.1522e+02	-3.0673	1.178844	0.000892	8.917515	1.510668	-0.000179
1160	1.1532e+02	-3.0865	1.017358	0.000811	8.106831	1.373334	-0.000162
1161	1.1542e+02	-3.1067	0.831650	0.000932	9.322856	1.579335	-0.000187
1162	1.1552e+02	-3.1262	0.658053	0.000871	8.714844	1.476335	-0.000174
1163	1.1562e+02	-3.1464	0.492531	0.000831	8.309502	1.407668	-0.000166
1164	1.1572e+02	-3.1671	0.286637	0.001034	10.336210	1.751001	-0.000207
1165	1.1582e+02	-3.1860	0.088817	0.000993	9.930868	1.682335	-0.000199
1166	1.1592e+02	-3.2062	-0.044408	0.000669	6.688136	1.133001	-0.000134
1167	1.1602e+02	-3.2262	-0.201857	0.000790	7.904161	1.339001	-0.000158
1168	1.1612e+02	-3.2457	-0.423899	0.001115	11.146893	1.888335	-0.000223
1169	1.1622e+02	-3.2652	-0.569236	0.000730	7.296148	1.236001	-0.000146
1170	1.1632e+02	-3.2858	-0.746870	0.000892	8.917515	1.510668	-0.000179
1171	1.1642e+02	-3.3061	-0.932578	0.000932	9.322856	1.579335	-0.000187
1172	1.1651e+02	-3.3261	-1.118287	0.000932	9.322856	1.579335	-0.000187
1173	1.1661e+02	-3.3466	-1.308032	0.000953	9.525527	1.613668	-0.000191
1174	1.1671e+02	-3.3659	-1.453369	0.000730	7.296148	1.236001	-0.000146
1175	1.1681e+02	-3.3859	-1.643114	0.000953	9.525527	1.613668	-0.000191
1176	1.1691e+02	-3.4055	-1.861120	0.001094	10.944222	1.854001	-0.000219
1177	1.1701e+02	-3.4258	-2.018568	0.000790	7.904161	1.339001	-0.000158
1178	1.1711e+02	-3.4459	-2.208313	0.000953	9.525527	1.613668	-0.000191
1179	1.1721e+02	-3.4659	-2.357687	0.000750	7.498819	1.270334	-0.000150
1180	1.1731e+02	-3.4845	-2.535321	0.000892	8.917515	1.510668	-0.000179
1181	1.1741e+02	-3.5049	-2.664510	0.000649	6.485465	1.098668	-0.000130
1182	1.1751e+02	-3.5254	-2.910775	0.001236	12.362918	2.094335	-0.000248
1183	1.1761e+02	-3.5449	-3.072260	0.000811	8.106831	1.373334	-0.000162
1184	1.1771e+02	-3.5663	-3.229709	0.000790	7.904161	1.339001	-0.000158
1185	1.1781e+02	-3.5852	-3.451751	0.001115	11.146893	1.888335	-0.000223
1186	1.1791e+02	-3.6041	-3.617274	0.000831	8.309502	1.407668	-0.000166
1187	1.1801e+02	-3.6243	-3.782796	0.000831	8.309502	1.407668	-0.000166
1188	1.1811e+02	-3.6447	-3.976579	0.000973	9.728198	1.648001	-0.000195
1189	1.1821e+02	-3.6642	-4.166324	0.000953	9.525527	1.613668	-0.000191
1190	1.1831e+02	-3.6853	-4.335884	0.000851	8.512173	1.442001	-0.000170
1191	1.1841e+02	-3.7047	-4.525629	0.000953	9.525527	1.613668	-0.000191
1192	1.1850e+02	-3.7244	-4.662892	0.000689	6.890807	1.167334	-0.000138
1193	1.1860e+02	-3.7442	-4.880897	0.001094	10.944222	1.854001	-0.000219
1194	1.1870e+02	-3.7646	-5.054494	0.000871	8.714844	1.476335	-0.000174
1195	1.1880e+02	-3.7836	-5.236165	0.000912	9.120185	1.545001	-0.000183
1196	1.1890e+02	-3.8037	-5.417836	0.000912	9.120185	1.545001	-0.000183
1197	1.1900e+02	-3.8232	-5.551062	0.000669	6.688136	1.133001	-0.000134
1198	1.1910e+02	-3.8433	-5.797327	0.001236	12.362918	2.094335	-0.000248
1199	1.1920e+02	-3.8638	-5.991109	0.000973	9.728198	1.648001	-0.000195
1200	1.1930e+02	-3.8799	-6.156632	0.000831	8.309502	1.407668	-0.000166
1201	1.1940e+02	-3.9038	-6.301969	0.000730	7.296148	1.236001	-0.000146
1202	1.1950e+02	-3.9230	-6.483640	0.000912	9.120185	1.545001	-0.000183
1203	1.1960e+02	-3.9432	-6.645125	0.000811	8.106831	1.373334	-0.000162
1204	1.1970e+02	-3.9648	-6.867168	0.001115	11.146893	1.888335	-0.000223
1205	1.1980e+02	-3.9832	-7.032690	0.000831	8.309502	1.407668	-0.000166
1206	1.1990e+02	-4.0033	-7.202250	0.000851	8.512173	1.442001	-0.000170
1207	1.2000e+02	-4.0257	-7.387958	0.000932	9.322856	1.579335	-0.000187
1208	1.2010e+02	-4.0436	-7.577704	0.000953	9.525527	1.613668	-0.000191
1209	1.2020e+02	-4.0630	-7.735152	0.000790	7.904161	1.339001	-0.000158
1210	1.2030e+02	-4.0836	-7.932972	0.000993	9.930868	1.682335	-0.000199
1211	1.2039e+02	-4.1028	-8.106569	0.000871	8.714844	1.476335	-0.000174
1212	1.2049e+02	-4.1235	-8.264017	0.000790	7.904161	1.339001	-0.000158
1213	1.2059e+02	-4.1425	-8.441651	0.000892	8.917515	1.510668	-0.000179
1214	1.2069e+02	-4.1623	-8.611211	0.000851	8.512173	1.442001	-0.000170
1215	1.2079e+02	-4.1830	-8.809030	0.000993	9.930868	1.682335	-0.000199
1216	1.2089e+02	-4.2023	-8.978590	0.000851	8.512173	1.442001	-0.000170
1217	1.2099e+02	-4.2224	-9.184484	0.001034	10.336210	1.751001	-0.000207
1218	1.2109e+02	-4.2418	-9.345969	0.000811	8.106831	1.373334	-0.000162
1219	1.2119e+02	-4.2633	-9.535715	0.000953	9.525527	1.613668	-0.000191
1220	1.2129e+02	-4.2825	-9.697200	0.000811	8.106831	1.373334	-0.000162
1221	1.2139e+02	-4.3024	-9.838500	0.000709	7.093477	1.201668	-0.000142
1222	1.2149e+02	-4.3211	-10.024208	0.000932	9.322856	1.579335	-0.000187
1223	1.2159e+02	-4.3420	-10.230102	0.001034	10.336210	1.751001	-0.000207
1224	1.2169e+02	-4.3616	-10.395625	0.000831	8.309502	1.407668	-0.000166
1225	1.2179e+02	-4.3823	-10.573258	0.000892	8.917515	1.510668	-0.000179
1226	1.2189e+02	-4.4018	-10.738781	0.000831	8.309502	1.407668	-0.000166
1227	1.2199e+02	-4.4220	-10.940638	0.001013	10.133539	1.716668	-0.000203
1228	1.2209e+02	-4.4427	-11.142495	0.001013	10.133539	1.716668	-0.000203
1229	1.2219e+02	-4.4617	-11.267646	0.000628	6.282794	1.064334	-0.000126
1230	1.2229e+02	-4.4821	-11.509874	0.001216	12.160247	2.060002	-0.000243
1231	1.2239e+02	-4.5026	-11.675397	0.000831	8.309502	1.407668	-0.000166
1232	1.2248e+02	-4.5219	-11.853031	0.000892	8.917515	1.510668	-0.000179
1233	1.2258e+02	-4.5422	-12.046813	0.000973	9.728198	1.648001	-0.000195
1234	1.2268e+02	-4.5612	-12.184076	0.000689	6.890807	1.167334	-0.000138
1235	1.2278e+02	-4.5807	-12.357672	0.000871	8.714844	1.476335	-0.000174
1236	1.2288e+02	-4.6008	-12.523195	0.000831	8.309502	1.407668	-0.000166
1237	1.2298e+02	-4.6210	-12.692755	0.000851	8.512173	1.442001	-0.000170
1238	1.2308e+02	-4.6402	-12.914797	0.001115	11.146893	1.888335	-0.000223
1239	1.2318e+02	-4.6611	-13.108580	0.000973	9.728198	1.648001	-0.000195
1240	1.2328e+02	-4.6807	-13.257954	0.000750	7.498819	1.270334	-0.000150
1241	1.2338e+02	-4.7006	-13.471922	0.001074	10.741552	1.819668	-0.000215
1242	1.2348e+02	-4.7208	-13.645519	0.000871	8.714844	1.476335	-0.000174
1243	1.2358e+02	-4.7405	-13.778744	0.000669	6.688136	1.133001	-0.000134
1244	1.2368e+02	-4.7610	-13.976564	0.000993	9.930868	1.682335	-0.000199
1245	1.2378e+02	-4.7809	-14.194569	0.001094	10.944222	1.854001	-0.000219
1246	1.2388e+02	-4.8010	-14.347980	0.000770	7.701490	1.304668	-0.000154
1247	1.2398e+02	-4.8206	-14.513503	0.000831	8.309502	1.407668	-0.000166
1248	1.2408e+02	-4.8401	-14.699211	0.000932	9.322856	1.579335	-0.000187
1249	1.2418e+02	-4.8618	-14.856660	0.000790	7.904161	1.339001	-0.000158
1250	1.2428e+02	-4.8799	-15.054479	0.000993	9.930868	1.682335	-0.000199
1251	1.2438e+02	-4.8997	-15.203853	0.000750	7.498819	1.270334	-0.000150
1252	1.2447e+02	-4.9200	-15.413784	0.001054	10.538881	1.785335	-0.000211
1253	1.2457e+02	-4.9402	-15.607567	0.000973	9.728198	1.648001	-0.000195
1254	1.2467e+02	-4.9585	-15.801349	0.000973	9.728198	1.648001	-0.000195
1255	1.2477e+02	-4.9796	-15.934575	0.000669	6.688136	1.133001	-0.000134
1256	1.2487e+02	-4.9994	-16.128357	0.000973	9.728198	1.648001	-0.000195
1257	1.2497e+02	-5.0195	-16.297917	0.000851	8.512173	1.442001	-0.000170
1258	1.2507e+02	-5.0391	-16.459402	0.000811	8.106831	1.373334	-0.000162
1259	1.2517e+02	-5.0589	-16.681445	0.001115	11.146893	1.888335	-0.000223
1260	1.2527e+02	-5.0784	-16.838893	0.000790	7.904161	1.339001	-0.000158
1261	1.2537e+02	-5.0989	-17.020564	0.000912	9.120185	1.545001	-0.000183
1262	1.2547e+02	-5.1190	-17.190124	0.000851	8.512173	1.442001	-0.000170
1263	1.2557e+02	-5.1392	-17.387944	0.000993	9.930868	1.682335	-0.000199
1264	1.2567e+02	-5.1590	-17.545392	0.000790	7.904161	1.339001	-0.000158
1265	1.2577e+02	-5.1788	-17.735137	0.000953	9.525527	1.613668	-0.000191
1266	1.2587e+02	-5.1996	-17.900660	0.000831	8.309502	1.407668	-0.000166
1267	1.2597e+02	-5.2191	-18.074257	0.000871	8.714844	1.476335	-0.000174
1268	1.2607e+02	-5.2383	-18.239779	0.000831	8.309502	1.407668	-0.000166
1269	1.2617e+02	-5.2588	-18.461822	0.001115	11.146893	1.888335	-0.000223
1270	1.2627e+02	-5.2777	-18.631381	0.000851	8.512173	1.442001	-0.000170
1271	1.2636e+02	-5.2982	-18.804978	0.000871	8.714844	1.476335	-0.000174
1272	1.2646e+02	-5.3192	-18.974538	0.000851	8.512173	1.442001	-0.000170
1273	1.2656e+02	-5.3386	-19.144098	0.000851	8.512173	1.442001	-0.000170
1274	1.2666e+02	-5.3587	-19.309620	0.000831	8.309502	1.407668	-0.000166
1275	1.2676e+02	-5.3775	-19.515514	0.001034	10.336210	1.751001	-0.000207
1276	1.2686e+02	-5.3986	-19.701222	0.000932	9.322856	1.579335	-0.000187
1277	1.2696e+02	-5.4184	-19.854634	0.000770	7.701490	1.304668	-0.000154
1278	1.2706e+02	-5.4382	-20.044379	0.000953	9.525527	1.613668	-0.000191
1279	1.2716e+02	-5.4584	-20.238161	0.000973	9.728198	1.648001	-0.000195
1280	1.2726e+02	-5.4782	-20.435981	0.000993	9.930868	1.682335	-0.000199
1281	1.2736e+02	-5.4974	-20.597467	0.000811	8.106831	1.373334	-0.000162
1282	1.2746e+02	-5.5173	-20.795286	0.000993	9.930868	1.682335	-0.000199
1283	1.2756e+02	-5.5371	-20.916400	0.000608	6.080124	1.030001	-0.000122
1284	1.2766e+02	-5.5579	-21.158628	0.001216	12.160247	2.060002	-0.000243
1285	1.2776e+02	-5.5774	-21.287817	0.000649	6.485465	1.098668	-0.000130
1286	1.2786e+02	-5.5980	-21.473525	0.000932	9.322856	1.579335	-0.000187
1287	1.2796e+02	-5.6174	-21.695567	0.001115	11.146893	1.888335	-0.000223
1288	1.2806e+02	-5.6382	-21.873201	0.000892	8.917515	1.510668	-0.000179
1289	1.2816e+02	-5.6586	-22.030650	0.000790	7.904161	1.339001	-0.000158
1290	1.2826e+02	-5.6781	-22.248655	0.001094	10.944222	1.854001	-0.000219
1291	1.2835e+02	-5.6976	-22.414178	0.000831	8.309502	1.407668	-0.000166
1292	1.2845e+02	-5.7182	-22.628146	0.001074	10.741552	1.819668	-0.000215
1293	1.2855e+02	-5.7373	-22.733111	0.000527	5.269440	0.892667	-0.000105
1294	1.2865e+02	-5.7562	-23.011674	0.001398	13.984284	2.369002	-0.000280
1295	1.2875e+02	-5.7767	-23.124714	0.000567	5.674782	0.961334	-0.000114
1296	1.2885e+02	-5.7977	-23.318496	0.000973	9.728198	1.648001	-0.000195
1297	1.2895e+02	-5.8170	-23.524390	0.001034	10.336210	1.751001	-0.000207
1298	1.2905e+02	-5.8371	-23.693950	0.000851	8.512173	1.442001	-0.000170
1299	1.2915e+02	-5.8569	-23.883695	0.000953	9.525527	1.613668	-0.000191
1300	1.2925e+02	-5.8765	-24.053255	0.000851	8.512173	1.442001	-0.000170
1301	1.2935e+02	-5.8966	-24.267223	0.001074	10.741552	1.819668	-0.000215
1302	1.2945e+02	-5.9161	-24.465043	0.000993	9.930868	1.682335	-0.000199
1303	1.2955e+02	-5.9363	-24.670936	0.001034	10.336210	1.751001	-0.000207
1304	1.2965e+02	-5.9558	-24.800125	0.000649	6.485465	1.098668	-0.000130
1305	1.2975e+02	-5.9753	-25.018130	0.001094	10.944222	1.854001	-0.000219
1306	1.2985e+02	-5.9967	-25.219987	0.001013	10.133539	1.716668	-0.000203
1307	1.2995e+02	-6.0168	-25.417807	0.000993	9.930868	1.682335	-0.000199
1308	1.3005e+02	-6.0364	-25.571218	0.000770	7.701490	1.304668	-0.000154
1309	1.3015e+02	-6.0568	-25.756926	0.000932	9.322856	1.579335	-0.000187
1310	1.3025e+02	-6.0757	-26.007228	0.001257	12.565589	2.128668	-0.000252
1311	1.3034e+02	-6.0962	-26.160640	0.000770	7.701490	1.304668	-0.000154
1312	1.3044e+02	-6.1151	-26.342311	0.000912	9.120185	1.545001	-0.000183
1313	1.3054e+02	-6.1359	-26.536093	0.000973	9.728198	1.648001	-0.000195
1314	1.3064e+02	-6.1548	-26.729876	0.000973	9.728198	1.648001	-0.000195
1315	1.3074e+02	-6.1755	-26.939807	0.001054	10.538881	1.785335	-0.000211
1316	1.3084e+02	-6.1957	-27.141664	0.001013	10.133539	1.716668	-0.000203
1317	1.3094e+02	-6.2155	-27.311223	0.000851	8.512173	1.442001	-0.000170
1318	1.3104e+02	-6.2360	-27.480783	0.000851	8.512173	1.442001	-0.000170
1319	1.3114e+02	-6.2549	-27.686677	0.001034	10.336210	1.751001	-0.000207
1320	1.3124e+02	-6.2762	-27.900645	0.001074	10.741552	1.819668	-0.000215
1321	1.3134e+02	-6.2970	-28.074242	0.000871	8.714844	1.476335	-0.000174
1322	1.3144e+02	-6.3150	-28.268024	0.000973	9.728198	1.648001	-0.000195
1323	1.3154e+02	-6.3370	-28.465844	0.000993	9.930868	1.682335	-0.000199
1324	1.3164e+02	-6.3538	-28.679812	0.001074	10.741552	1.819668	-0.000215
1325	1.3174e+02	-6.3739	-28.869558	0.000953	9.525527	1.613668	-0.000191
1326	1.3184e+02	-6.3956	-29.059303	0.000953	9.525527	1.613668	-0.000191
1327	1.3194e+02	-6.4148	-29.236937	0.000892	8.917515	1.510668	-0.000179
1328	1.3204e+02	-6.4343	-29.418608	0.000912	9.120185	1.545001	-0.000183
1329	1.3214e+02	-6.4551	-29.664873	0.001236	12.362918	2.094335	-0.000248
1330	1.3224e+02	-6.4740	-29.886916	0.001115	11.146893	1.888335	-0.000223
1331	1.3234e+02	-6.4935	-30.024178	0.000689	6.890807	1.167334	-0.000138
1332	1.3243e+02	-6.5147	-30.282555	0.001297	12.970930	2.197335	-0.000260
1333	1.3253e+02	-6.5338	-30.464226	0.000912	9.120185	1.545001	-0.000183
1334	1.3263e+02	-6.5540	-30.653972	0.000953	9.525527	1.613668	-0.000191
1335	1.3273e+02	-6.5729	-30.867940	0.001074	10.741552	1.819668	-0.000215
1336	1.3283e+02	-6.5936	-31.089982	0.001115	11.146893	1.888335	-0.000223
1337	1.3293e+02	-6.6138	-31.263579	0.000871	8.714844	1.476335	-0.000174
1338	1.3303e+02	-6.6333	-31.505807	0.001216	12.160247	2.060002	-0.000243
1339	1.3313e+02	-6.6534	-31.703627	0.000993	9.930868	1.682335	-0.000199
1340	1.3323e+02	-6.6736	-31.901447	0.000993	9.930868	1.682335	-0.000199
1341	1.3333e+02	-6.6937	-32.083118	0.000912	9.120185	1.545001	-0.000183
1342	1.3343e+02	-6.7133	-32.280937	0.000993	9.930868	1.682335	-0.000199
1343	1.3353e+02	-6.7331	-32.531240	0.001257	12.565589	2.128668	-0.000252
1344	1.3363e+02	-6.7535	-32.720985	0.000953	9.525527	1.613668	-0.000191
1345	1.3373e+02	-6.7731	-32.918805	0.000993	9.930868	1.682335	-0.000199
1346	1.3383e+02	-6.7932	-33.100476	0.000912	9.120185	1.545001	-0.000183
1347	1.3393e+02	-6.8137	-33.395187	0.001479	14.794967	2.506335	-0.000296
1348	1.3403e+02	-6.8335	-33.540524	0.000730	7.296148	1.236001	-0.000146
1349	1.3413e+02	-6.8530	-33.738343	0.000993	9.930868	1.682335	-0.000199
1350	1.3423e+02	-6.8726	-33.968460	0.001155	11.552235	1.957002	-0.000231
1351	1.3432e+02	-6.8933	-34.214725	0.001236	12.362918	2.094335	-0.000248
1352	1.3442e+02	-6.9135	-34.396396	0.000912	9.120185	1.545001	-0.000183
1353	1.3452e+02	-6.9324	-34.586142	0.000953	9.525527	1.613668	-0.000191
1354	1.3462e+02	-6.9519	-34.856630	0.001358	13.578943	2.300335	-0.000272
1355	1.3472e+02	-6.9727	-35.034264	0.000892	8.917515	1.510668	-0.000179
1356	1.3482e+02	-6.9928	-35.219972	0.000932	9.322856	1.579335	-0.000187
1357	1.3492e+02	-7.0129	-35.474312	0.001277	12.768259	2.163002	-0.000256
1358	1.3502e+02	-7.0319	-35.696354	0.001115	11.146893	1.888335	-0.000223
1359	1.3512e+02	-7.0514	-35.882062	0.000932	9.322856	1.579335	-0.000187
1360	1.3522e+02	-7.0721	-36.124291	0.001216	12.160247	2.060002	-0.000243
1361	1.3532e+02	-7.0917	-36.338259	0.001074	10.741552	1.819668	-0.000215
1362	1.3542e+02	-7.1124	-36.580487	0.001216	12.160247	2.060002	-0.000243
1363	1.3552e+02	-7.1313	-36.790418	0.001054	10.538881	1.785335	-0.000211
1364	1.3562e+02	-7.1539	-37.020535	0.001155	11.552235	1.957002	-0.000231
1365	1.3572e+02	-7.1722	-37.270837	0.001257	12.565589	2.128668	-0.000252
1366	1.3582e+02	-7.1924	-37.444434	0.000871	8.714844	1.476335	-0.000174
1367	1.3592e+02	-7.2119	-37.670514	0.001135	11.349564	1.922668	-0.000227
1368	1.3602e+02	-7.2318	-37.936965	0.001338	13.376272	2.266002	-0.000268
1369	1.3612e+02	-7.2522	-38.154970	0.001094	10.944222	1.854001	-0.000219
1370	1.3622e+02	-7.2711	-38.360864	0.001034	10.336210	1.751001	-0.000207
1371	1.3631e+02	-7.2919	-38.586943	0.001135	11.349564	1.922668	-0.000227
1372	1.3641e+02	-7.3126	-38.821097	0.001175	11.754906	1.991335	-0.000235
1373	1.3651e+02	-7.3318	-39.047177	0.001135	11.349564	1.922668	-0.000227
1374	1.3661e+02	-7.3517	-39.277294	0.001155	11.552235	1.957002	-0.000231
1375	1.3671e+02	-7.3712	-39.531633	0.001277	12.768259	2.163002	-0.000256
1376	1.3681e+02	-7.3917	-39.749638	0.001094	10.944222	1.854001	-0.000219
1377	1.3691e+02	-7.4115	-39.967644	0.001094	10.944222	1.854001	-0.000219
1378	1.3701e+02	-7.4316	-40.169501	0.001013	10.133539	1.716668	-0.000203
1379	1.3711e+02	-7.4506	-40.423840	0.001277	12.768259	2.163002	-0.000256
1380	1.3721e+02	-7.4713	-40.645883	0.001115	11.146893	1.888335	-0.000223
1381	1.3731e+02	-7.4908	-40.916371	0.001358	13.578943	2.300335	-0.000272
1382	1.3741e+02	-7.5107	-41.162636	0.001236	12.362918	2.094335	-0.000248
1383	1.3751e+02	-7.5305	-41.360456	0.000993	9.930868	1.682335	-0.000199
1384	1.3761e+02	-7.5500	-41.618832	0.001297	12.970930	2.197335	-0.000260
1385	1.3771e+02	-7.5708	-41.861060	0.001216	12.160247	2.060002	-0.000243
1386	1.3781e+02	-7.5891	-42.050806	0.000953	9.525527	1.613668	-0.000191
1387	1.3791e+02	-7.6105	-42.321294	0.001358	13.578943	2.300335	-0.000272
1388	1.3801e+02	-7.6300	-42.539299	0.001094	10.944222	1.854001	-0.000219
1389	1.3811e+02	-7.6501	-42.797676	0.001297	12.970930	2.197335	-0.000260
1390	1.3821e+02	-7.6703	-43.052016	0.001277	12.768259	2.163002	-0.000256
1391	1.3831e+02	-7.6892	-43.245798	0.000973	9.728198	1.648001	-0.000195
1392	1.3840e+02	-7.7100	-43.548583	0.001520	15.200309	2.575002	-0.000304
1393	1.3850e+02	-7.7295	-43.798886	0.001257	12.565589	2.128668	-0.000252
1394	1.3860e+02	-7.7489	-44.029002	0.001155	11.552235	1.957002	-0.000231
1395	1.3870e+02	-7.7698	-44.271231	0.001216	12.160247	2.060002	-0.000243
1396	1.3880e+02	-7.7893	-44.497310	0.001135	11.349564	1.922668	-0.000227
1397	1.3890e+02	-7.8094	-44.747613	0.001257	12.565589	2.128668	-0.000252
1398	1.3900e+02	-7.8293	-45.001952	0.001277	12.768259	2.163002	-0.000256
1399	1.3910e+02	-7.8491	-45.272440	0.001358	13.578943	2.300335	-0.000272
1400	1.3920e+02	-7.8687	-45.530817	0.001297	12.970930	2.197335	-0.000260
1401	1.3930e+02	-7.8888	-45.756896	0.001135	11.349564	1.922668	-0.000227
1402	1.3940e+02	-7.9083	-46.047570	0.001459	14.592297	2.472002	-0.000292
1403	1.3950e+02	-7.9285	-46.273650	0.001135	11.349564	1.922668	-0.000227
1404	1.3960e+02	-7.9497	-46.564324	0.001459	14.592297	2.472002	-0.000292
1405	1.3970e+02	-7.9684	-46.810589	0.001236	12.362918	2.094335	-0.000248
1406	1.3980e+02	-7.9883	-47.081077	0.001358	13.578943	2.300335	-0.000272
1407	1.3990e+02	-8.0084	-47.363676	0.001419	14.186955	2.403335	-0.000284
1408	1.4000e+02	-8.0286	-47.581682	0.001094	10.944222	1.854001	-0.000219
1409	1.4010e+02	-8.0481	-47.888504	0.001540	15.402980	2.609335	-0.000308
1410	1.4020e+02	-8.0688	-48.154955	0.001338	13.376272	2.266002	-0.000268
1411	1.4029e+02	-8.0896	-48.405257	0.001257	12.565589	2.128668	-0.000252
1412	1.4039e+02	-8.1085	-48.675746	0.001358	13.578943	2.300335	-0.000272
1413	1.4049e+02	-8.1274	-48.970457	0.001479	14.794967	2.506335	-0.000296
1414	1.4059e+02	-8.1479	-49.192499	0.001115	11.146893	1.888335	-0.000223
1415	1.4069e+02	-8.1677	-49.511433	0.001601	16.010992	2.712335	-0.000321
1416	1.4079e+02	-8.1885	-49.749624	0.001196	11.957576	2.025668	-0.000239
1417	1.4089e+02	-8.2068	-50.072595	0.001621	16.213663	2.746669	-0.000325
1418	1.4099e+02	-8.2275	-50.318860	0.001236	12.362918	2.094335	-0.000248
1419	1.4109e+02	-8.2480	-50.589348	0.001358	13.578943	2.300335	-0.000272
1420	1.4119e+02	-8.2672	-50.855799	0.001338	13.376272	2.266002	-0.000268
1421	1.4129e+02	-8.2874	-51.118213	0.001317	13.173601	2.231668	-0.000264
1422	1.4139e+02	-8.3075	-51.425035	0.001540	15.402980	2.609335	-0.000308
1423	1.4149e+02	-8.3276	-51.691486	0.001338	13.376272	2.266002	-0.000268
1424	1.4159e+02	-8.3466	-51.953900	0.001317	13.173601	2.231668	-0.000264
1425	1.4169e+02	-8.3667	-52.268796	0.001581	15.808321	2.678002	-0.000316
1426	1.4179e+02	-8.3862	-52.591767	0.001621	16.213663	2.746669	-0.000325
1427	1.4189e+02	-8.4076	-52.874367	0.001419	14.186955	2.403335	-0.000284
1428	1.4199e+02	-8.4277	-53.140818	0.001338	13.376272	2.266002	-0.000268
1429	1.4209e+02	-8.4467	-53.439566	0.001500	14.997638	2.540669	-0.000300
1430	1.4219e+02	-8.4668	-53.730240	0.001459	14.592297	2.472002	-0.000292
1431	1.4228e+02	-8.4869	-54.016876	0.001439	14.389626	2.437669	-0.000288
1432	1.4238e+02	-8.5071	-54.335810	0.001601	16.010992	2.712335	-0.000321
1433	1.4248e+02	-8.5266	-54.626484	0.001459	14.592297	2.472002	-0.000292
1434	1.4258e+02	-8.5468	-54.949455	0.001621	16.213663	2.746669	-0.000325
1435	1.4268e+02	-8.5669	-55.296648	0.001743	17.429688	2.952669	-0.000349
1436	1.4278e+02	-8.5870	-55.510616	0.001074	10.741552	1.819668	-0.000215
1437	1.4288e+02	-8.6066	-55.837624	0.001642	16.416334	2.781002	-0.000329
1438	1.4298e+02	-8.6267	-56.164632	0.001642	16.416334	2.781002	-0.000329
1439	1.4308e+02	-8.6475	-56.479529	0.001581	15.808321	2.678002	-0.000316
1440	1.4318e+02	-8.6664	-56.774240	0.001479	14.794967	2.506335	-0.000296
1441	1.4328e+02	-8.6865	-57.089136	0.001581	15.808321	2.678002	-0.000316
1442	1.4338e+02	-8.7061	-57.432293	0.001723	17.227017	2.918336	-0.000345
1443	1.4348e+02	-8.7262	-57.702781	0.001358	13.578943	2.300335	-0.000272
1444	1.4358e+02	-8.7468	-58.037863	0.001682	16.821675	2.849669	-0.000337
1445	1.4368e+02	-8.7653	-58.356797	0.001601	16.010992	2.712335	-0.000321
1446	1.4378e+02	-8.7854	-58.683805	0.001642	16.416334	2.781002	-0.000329
1447	1.4388e+02	-8.8062	-59.006776	0.001621	16.213663	2.746669	-0.000325
1448	1.4398e+02	-8.8263	-59.374155	0.001844	18.443041	3.124336	-0.000369
1449	1.4408e+02	-8.8446	-59.733460	0.001804	18.037700	3.055669	-0.000361
1450	1.4418e+02	-8.8660	-60.020097	0.001439	14.389626	2.437669	-0.000288
1451	1.4428e+02	-8.8843	-60.395551	0.001885	18.848383	3.193003	-0.000377
1452	1.4437e+02	-8.9044	-60.694299	0.001500	14.997638	2.540669	-0.000300
1453	1.4447e+02	-8.9240	-61.017270	0.001621	16.213663	2.746669	-0.000325
1454	1.4457e+02	-8.9435	-61.384649	0.001844	18.443041	3.124336	-0.000369
1455	1.4467e+02	-8.9636	-61.743954	0.001804	18.037700	3.055669	-0.000361
1456	1.4477e+02	-8.9850	-62.079036	0.001682	16.821675	2.849669	-0.000337
1457	1.4487e+02	-9.0045	-62.414119	0.001682	16.821675	2.849669	-0.000337
1458	1.4497e+02	-9.0247	-62.785535	0.001865	18.645712	3.158669	-0.000373
1459	1.4507e+02	-9.0448	-63.181174	0.001986	19.861737	3.364669	-0.000398
1460	1.4517e+02	-9.0649	-63.540479	0.001804	18.037700	3.055669	-0.000361
1461	1.4527e+02	-9.0845	-63.879599	0.001702	17.024346	2.884002	-0.000341
1462	1.4537e+02	-9.1040	-64.222755	0.001723	17.227017	2.918336	-0.000345
1463	1.4547e+02	-9.1245	-64.646655	0.002128	21.280432	3.605003	-0.000426
1464	1.4557e+02	-9.1443	-65.022108	0.001885	18.848383	3.193003	-0.000377
1465	1.4567e+02	-9.1638	-65.377376	0.001784	17.835029	3.021336	-0.000357
1466	1.4577e+02	-9.1840	-65.797238	0.002108	21.077762	3.570669	-0.000422
1467	1.4587e+02	-9.2047	-66.140395	0.001723	17.227017	2.918336	-0.000345
1468	1.4597e+02	-9.2242	-66.519886	0.001905	19.051054	3.227336	-0.000381
1469	1.4607e+02	-9.2432	-66.911488	0.001966	19.659066	3.330336	-0.000394
1470	1.4617e+02	-9.2639	-67.311164	0.002006	20.064408	3.399003	-0.000402
1471	1.4626e+02	-9.2834	-67.726989	0.002088	20.875091	3.536336	-0.000418
1472	1.4636e+02	-9.3030	-68.150888	0.002128	21.280432	3.605003	-0.000426
1473	1.4646e+02	-9.3231	-68.546528	0.001986	19.861737	3.364669	-0.000398
1474	1.4656e+02	-9.3427	-68.934093	0.001946	19.456395	3.296003	-0.000390
1475	1.4666e+02	-9.3634	-69.329732	0.001986	19.861737	3.364669	-0.000398
1476	1.4676e+02	-9.3832	-69.757668	0.002148	21.483103	3.639336	-0.000430
1477	1.4686e+02	-9.4037	-70.209828	0.002270	22.699128	3.845336	-0.000454
1478	1.4696e+02	-9.4220	-70.569133	0.001804	18.037700	3.055669	-0.000361
1479	1.4706e+02	-9.4434	-70.980921	0.002067	20.672420	3.502003	-0.000414
1480	1.4716e+02	-9.4623	-71.433080	0.002270	22.699128	3.845336	-0.000454
1481	1.4726e+02	-9.4827	-71.865053	0.002169	21.685774	3.673670	-0.000434
1482	1.4736e+02	-9.5026	-72.284915	0.002108	21.077762	3.570669	-0.000422
1483	1.4746e+02	-9.5233	-72.708815	0.002128	21.280432	3.605003	-0.000426
1484	1.4756e+02	-9.5422	-73.185197	0.002392	23.915153	4.051337	-0.000479
1485	1.4766e+02	-9.5618	-73.637356	0.002270	22.699128	3.845336	-0.000454
1486	1.4776e+02	-9.5819	-74.061255	0.002128	21.280432	3.605003	-0.000426
1487	1.4786e+02	-9.6014	-74.533600	0.002371	23.712482	4.017003	-0.000475
1488	1.4796e+02	-9.6219	-74.977685	0.002229	22.293786	3.776670	-0.000446
1489	1.4806e+02	-9.6411	-75.445993	0.002351	23.509811	3.982670	-0.000471
1490	1.4816e+02	-9.6613	-75.918338	0.002371	23.712482	4.017003	-0.000475
1491	1.4825e+02	-9.6820	-76.366460	0.002250	22.496457	3.811003	-0.000450
1492	1.4835e+02	-9.7015	-76.834767	0.002351	23.509811	3.982670	-0.000471
1493	1.4845e+02	-9.7214	-77.351521	0.002594	25.941861	4.394670	-0.000519
1494	1.4855e+02	-9.7424	-77.807717	0.002290	22.901799	3.879670	-0.000458
1495	1.4865e+02	-9.7620	-78.312359	0.002533	25.333848	4.291670	-0.000507
1496	1.4875e+02	-9.7821	-78.808927	0.002493	24.928507	4.223003	-0.000499
1497	1.4885e+02	-9.8029	-79.297420	0.002452	24.523165	4.154337	-0.000491
1498	1.4895e+02	-9.8212	-79.810136	0.002574	25.739190	4.360337	-0.000515
1499	1.4905e+02	-9.8413	-80.298630	0.002452	24.523165	4.154337	-0.000491
1500	1.4915e+02	-9.8621	-80.827495	0.002655	26.549873	4.497670	-0.000532
1501	1.4925e+02	-9.8810	-81.372508	0.002736	27.360556	4.635004	-0.000548
1502	1.4935e+02	-9.9011	-81.881187	0.002554	25.536519	4.326003	-0.000511
1503	1.4945e+02	-9.9207	-82.414089	0.002675	26.752544	4.532004	-0.000536
1504	1.4955e+02	-9.9408	-82.975251	0.002817	28.171239	4.772337	-0.000564
1505	1.4965e+02	-9.9622	-83.479893	0.002533	25.333848	4.291670	-0.000507
1506	1.4975e+02	-9.9811	-84.037018	0.002797	27.968568	4.738004	-0.000560
1507	1.4985e+02	-10.0000	-84.598179	0.002817	28.171239	4.772337	-0.000564
1508	1.4995e+02	-9.9805	-84.961522	-0.001824	-18.240371	-3.090002	-0.000365
1509	1.5005e+02	-9.9622	-85.353124	-0.001966	-19.659066	-3.330336	-0.000394
1510	1.5015e+02	-9.9402	-85.591315	-0.001196	-11.957576	-2.025668	-0.000239
1511	1.5025e+02	-9.9213	-85.954657	-0.001824	-18.240371	-3.090002	-0.000365
1512	1.5034e+02	-9.9005	-86.261479	-0.001540	-15.402980	-2.609335	-0.000308
1513	1.5044e+02	-9.8816	-86.560227	-0.001500	-14.997638	-2.540669	-0.000300
1514	1.5054e+02	-9.8608	-86.786307	-0.001135	-11.349564	-1.922668	-0.000227
1515	1.5064e+02	-9.8407	-87.072944	-0.001439	-14.389626	-2.437669	-0.000288
1516	1.5074e+02	-9.8212	-87.343432	-0.001358	-13.578943	-2.300335	-0.000272
1517	1.5084e+02	-9.8019	-87.646217	-0.001520	-15.200309	-2.575002	-0.000304
1518	1.5094e+02	-9.7806	-87.892482	-0.001236	-12.362918	-2.094335	-0.000248
1519	1.5104e+02	-9.7614	-88.130673	-0.001196	-11.957576	-2.025668	-0.000239
1520	1.5114e+02	-9.7424	-88.372901	-0.001216	-12.160247	-2.060002	-0.000243
1521	1.5124e+02	-9.7211	-88.603018	-0.001155	-11.552235	-1.957002	-0.000231
1522	1.5134e+02	-9.7028	-88.812949	-0.001054	-10.538881	-1.785335	-0.000211
1523	1.5144e+02	-9.6820	-89.034992	-0.001115	-11.146893	-1.888335	-0.000223
1524	1.5154e+02	-9.6628	-89.261071	-0.001135	-11.349564	-1.922668	-0.000227
1525	1.5164e+02	-9.6417	-89.479076	-0.001094	-10.944222	-1.854001	-0.000219
1526	1.5174e+02	-9.6219	-89.632488	-0.000770	-7.701490	-1.304668	-0.000154
1527	1.5184e+02	-9.6021	-89.878753	-0.001236	-12.362918	-2.094335	-0.000248
1528	1.5194e+02	-9.5825	-90.068498	-0.000953	-9.525527	-1.613668	-0.000191
1529	1.5204e+02	-9.5621	-90.242095	-0.000871	-8.714844	-1.476335	-0.000174
1530	1.5214e+02	-9.5422	-90.435878	-0.000973	-9.728198	-1.648001	-0.000195
1531	1.5224e+02	-9.5215	-90.552955	-0.000588	-5.877453	-0.995667	-0.000118
1532	1.5233e+02	-9.5020	-90.779034	-0.001135	-11.349564	-1.922668	-0.000227
1533	1.5243e+02	-9.4818	-90.920334	-0.000709	-7.093477	-1.201668	-0.000142
1534	1.5253e+02	-9.4629	-91.053559	-0.000669	-6.688136	-1.133001	-0.000134
1535	1.5263e+02	-9.4434	-91.227156	-0.000871	-8.714844	-1.476335	-0.000174
1536	1.5273e+02	-9.4223	-91.380567	-0.000770	-7.701490	-1.304668	-0.000154
1537	1.5283e+02	-9.4025	-91.509756	-0.000649	-6.485465	-1.098668	-0.000130
1538	1.5293e+02	-9.3835	-91.671241	-0.000811	-8.106831	-1.373334	-0.000162
1539	1.5303e+02	-9.3628	-91.760058	-0.000446	-4.458757	-0.755334	-0.000089
1540	1.5313e+02	-9.3430	-91.921544	-0.000811	-8.106831	-1.373334	-0.000162
1541	1.5323e+02	-9.3231	-92.054769	-0.000669	-6.688136	-1.133001	-0.000134
1542	1.5333e+02	-9.3036	-92.179920	-0.000628	-6.282794	-1.064334	-0.000126
1543	1.5343e+02	-9.2828	-92.280849	-0.000507	-5.066770	-0.858334	-0.000101
1544	1.5353e+02	-9.2639	-92.377740	-0.000486	-4.864099	-0.824001	-0.000097
1545	1.5363e+02	-9.2438	-92.510965	-0.000669	-6.688136	-1.133001	-0.000134
1546	1.5373e+02	-9.2249	-92.595745	-0.000426	-4.256086	-0.721001	-0.000085
1547	1.5383e+02	-9.2035	-92.688599	-0.000466	-4.661428	-0.789667	-0.000093
1548	1.5393e+02	-9.1830	-92.769342	-0.000405	-4.053416	-0.686667	-0.000081
1549	1.5403e+02	-9.1638	-92.878345	-0.000547	-5.472111	-0.927001	-0.000110
1550	1.5413e+02	-9.1434	-92.971199	-0.000466	-4.661428	-0.789667	-0.000093
1551	1.5422e+02	-9.1235	-93.051942	-0.000405	-4.053416	-0.686667	-0.000081
1552	1.5432e+02	-9.1046	-93.144796	-0.000466	-4.661428	-0.789667	-0.000093
1553	1.5442e+02	-9.0839	-93.241687	-0.000486	-4.864099	-0.824001	-0.000097
1554	1.5452e+02	-9.0643	-93.314355	-0.000365	-3.648074	-0.618000	-0.000073
1555	1.5462e+02	-9.0442	-93.362801	-0.000243	-2.432049	-0.412000	-0.000049
1556	1.5472e+02	-9.0253	-93.475841	-0.000567	-5.674782	-0.961334	-0.000114
1557	1.5482e+02	-9.0033	-93.524287	-0.000243	-2.432049	-0.412000	-0.000049
1558	1.5492e+02	-8.9844	-93.556584	-0.000162	-1.621366	-0.274667	-0.000032
1559	1.5502e+02	-8.9642	-93.649438	-0.000466	-4.661428	-0.789667	-0.000093
1560	1.5512e+02	-8.9441	-93.665586	-0.000081	-0.810683	-0.137333	-0.000016
1561	1.5522e+02	-8.9246	-93.722106	-0.000284	-2.837391	-0.480667	-0.000057
1562	1.5532e+02	-8.9050	-93.839183	-0.000588	-5.877453	-0.995667	-0.000118
1563	1.5542e+02	-8.8843	-93.855332	-0.000081	-0.810683	-0.137333	-0.000016
1564	1.5552e+02	-8.8658	-93.903777	-0.000243	-2.432049	-0.412000	-0.000049
1565	1.5562e+02	-8.8455	-93.968371	-0.000324	-3.242733	-0.549334	-0.000065
1566	1.5572e+02	-8.8257	-94.012780	-0.000223	-2.229379	-0.377667	-0.000045
1567	1.5582e+02	-8.8049	-94.032966	-0.000101	-1.013354	-0.171667	-0.000020
1568	1.5592e+02	-8.7854	-94.057188	-0.000122	-1.216025	-0.206000	-0.000024
1569	1.5602e+02	-8.7665	-94.089486	-0.000162	-1.621366	-0.274667	-0.000032
1570	1.5612e+02	-8.7454	-94.158117	-0.000345	-3.445403	-0.583667	-0.000069
1571	1.5622e+02	-8.7256	-94.162154	-0.000020	-0.202671	-0.034333	-0.000004
1572	1.5631e+02	-8.7061	-94.170228	-0.000041	-0.405342	-0.068667	-0.000008
1573	1.5641e+02	-8.6868	-94.202525	-0.000162	-1.621366	-0.274667	-0.000032
1574	1.5651e+02	-8.6670	-94.226748	-0.000122	-1.216025	-0.206000	-0.000024
1575	1.5661e+02	-8.6462	-94.271157	-0.000223	-2.229379	-0.377667	-0.000045
1576	1.5671e+02	-8.6255	-94.263082	0.000041	0.405342	0.068667	0.000008
1577	1.5681e+02	-8.6066	-94.299417	-0.000182	-1.824037	-0.309000	-0.000037
1578	1.5691e+02	-8.5852	-94.303454	-0.000020	-0.202671	-0.034333	-0.000004
1579	1.5701e+02	-8.5660	-94.376122	-0.000365	-3.648074	-0.618000	-0.000073
1580	1.5711e+02	-8.5474	-94.283268	0.000466	4.661428	0.789667	0.000093
1581	1.5721e+02	-8.5266	-94.331714	-0.000243	-2.432049	-0.412000	-0.000049
1582	1.5731e+02	-8.5065	-94.355936	-0.000122	-1.216025	-0.206000	-0.000024
1583	1.5741e+02	-8.4863	-94.323639	0.000162	1.621366	0.274667	0.000032
1584	1.5751e+02	-8.4671	-94.364011	-0.000203	-2.026708	-0.343334	-0.000041
1585	1.5761e+02	-8.4473	-94.351899	0.000061	0.608012	0.103000	0.000012
1586	1.5771e+02	-8.4265	-94.327677	0.000122	1.216025	0.206000	0.000024
1587	1.5781e+02	-8.4064	-94.315565	0.000061	0.608012	0.103000	0.000012
1588	1.5791e+02	-8.3868	-94.311528	0.000020	0.202671	0.034333	0.000004
1589	1.5801e+02	-8.3664	-94.287305	0.000122	1.216025	0.206000	0.000024
1590	1.5811e+02	-8.3469	-94.283268	0.000020	0.202671	0.034333	0.000004
1591	1.5821e+02	-8.3267	-94.291342	-0.000041	-0.405342	-0.068667	-0.000008
1592	1.5830e+02	-8.3066	-94.283268	0.000041	0.405342	0.068667	0.000008
1593	1.5840e+02	-8.2870	-94.267119	0.000081	0.810683	0.137333	0.000016
1594	1.5850e+02	-8.2687	-94.230785	0.000182	1.824037	0.309000	0.000037
1595	1.5860e+02	-8.2477	-94.198488	0.000162	1.621366	0.274667	0.000032
1596	1.5870e+02	-8.2268	-94.214637	-0.000081	-0.810683	-0.137333	-0.000016
1597	1.5880e+02	-8.2080	-94.150043	0.000324	3.242733	0.549334	0.000065
1598	1.5890e+02	-8.1879	-94.162154	-0.000061	-0.608012	-0.103000	-0.000012
1599	1.5900e+02	-8.1674	-94.109671	0.000263	2.634720	0.446334	0.000053
1600	1.5910e+02	-8.1482	-94.085448	0.000122	1.216025	0.206000	0.000024
1601	1.5920e+02	-8.1268	-94.085448	0.000000	0.000000	0.000000	0.000000
1602	1.5930e+02	-8.1079	-94.004706	0.000405	4.053416	0.686667	0.000081
1603	1.5940e+02	-8.0884	-94.008743	-0.000020	-0.202671	-0.034333	-0.000004
1604	1.5950e+02	-8.0682	-93.944149	0.000324	3.242733	0.549334	0.000065
1605	1.5960e+02	-8.0478	-93.948186	-0.000020	-0.202671	-0.034333	-0.000004
1606	1.5970e+02	-8.0280	-93.919926	0.000142	1.418695	0.240334	0.000028
1607	1.5980e+02	-8.0084	-93.814960	0.000527	5.269440	0.892667	0.000105
1608	1.5990e+02	-7.9883	-93.839183	-0.000122	-1.216025	-0.206000	-0.000024
1609	1.6000e+02	-7.9681	-93.762478	0.000385	3.850745	0.652334	0.000077
1610	1.6010e+02	-7.9483	-93.714032	0.000243	2.432049	0.412000	0.000049
1611	1.6019e+02	-7.9279	-93.681735	0.000162	1.621366	0.274667	0.000032
1612	1.6029e+02	-7.9074	-93.633289	0.000243	2.432049	0.412000	0.000049
1613	1.6039e+02	-7.8886	-93.572732	0.000304	3.040062	0.515000	0.000061
1614	1.6049e+02	-7.8674	-93.548509	0.000122	1.216025	0.206000	0.000024
1615	1.6059e+02	-7.8485	-93.483915	0.000324	3.242733	0.549334	0.000065
1616	1.6069e+02	-7.8290	-93.443544	0.000203	2.026708	0.343334	0.000041
1617	1.6079e+02	-7.8101	-93.399135	0.000223	2.229379	0.377667	0.000045
1618	1.6089e+02	-7.7893	-93.346653	0.000263	2.634720	0.446334	0.000053
1619	1.6099e+02	-7.7692	-93.265910	0.000405	4.053416	0.686667	0.000081
1620	1.6109e+02	-7.7496	-93.237650	0.000142	1.418695	0.240334	0.000028
1621	1.6119e+02	-7.7295	-93.173056	0.000324	3.242733	0.549334	0.000065
1622	1.6129e+02	-7.7094	-93.144796	0.000142	1.418695	0.240334	0.000028
1623	1.6139e+02	-7.6892	-93.031756	0.000567	5.674782	0.961334	0.000114
1624	1.6149e+02	-7.6703	-93.015607	0.000081	0.810683	0.137333	0.000016
1625	1.6159e+02	-7.6495	-92.918716	0.000486	4.864099	0.824001	0.000097
1626	1.6169e+02	-7.6294	-92.886419	0.000162	1.621366	0.274667	0.000032
1627	1.6179e+02	-7.6096	-92.809713	0.000385	3.850745	0.652334	0.000077
1628	1.6189e+02	-7.5891	-92.761268	0.000243	2.432049	0.412000	0.000049
1629	1.6199e+02	-7.5702	-92.696674	0.000324	3.242733	0.549334	0.000065
1630	1.6209e+02	-7.5507	-92.611894	0.000426	4.256086	0.721001	0.000085
1631	1.6219e+02	-7.5311	-92.595745	0.000081	0.810683	0.137333	0.000016
1632	1.6228e+02	-7.5101	-92.535188	0.000304	3.040062	0.515000	0.000061
1633	1.6238e+02	-7.4915	-92.454446	0.000405	4.053416	0.686667	0.000081
1634	1.6248e+02	-7.4707	-92.373703	0.000405	4.053416	0.686667	0.000081
1635	1.6258e+02	-7.4518	-92.292960	0.000405	4.053416	0.686667	0.000081
1636	1.6268e+02	-7.4327	-92.236440	0.000284	2.837391	0.480667	0.000057
1637	1.6278e+02	-7.4103	-92.175883	0.000304	3.040062	0.515000	0.000061
1638	1.6288e+02	-7.3907	-92.115326	0.000304	3.040062	0.515000	0.000061
1639	1.6298e+02	-7.3706	-92.042658	0.000365	3.648074	0.618000	0.000073
1640	1.6308e+02	-7.3517	-91.941729	0.000507	5.066770	0.858334	0.000101
1641	1.6318e+02	-7.3322	-91.901358	0.000203	2.026708	0.343334	0.000041
1642	1.6328e+02	-7.3114	-91.812541	0.000446	4.458757	0.755334	0.000089
1643	1.6338e+02	-7.2913	-91.768132	0.000223	2.229379	0.377667	0.000045
1644	1.6348e+02	-7.2723	-91.727761	0.000203	2.026708	0.343334	0.000041
1645	1.6358e+02	-7.2513	-91.610684	0.000588	5.877453	0.995667	0.000118
1646	1.6368e+02	-7.2308	-91.550127	0.000304	3.040062	0.515000	0.000061
1647	1.6378e+02	-7.2125	-91.477459	0.000365	3.648074	0.618000	0.000073
1648	1.6388e+02	-7.1921	-91.368456	0.000547	5.472111	0.927001	0.000110
1649	1.6398e+02	-7.1716	-91.324048	0.000223	2.229379	0.377667	0.000045
1650	1.6408e+02	-7.1509	-91.243305	0.000405	4.053416	0.686667	0.000081
1651	1.6418e+02	-7.1313	-91.138339	0.000527	5.269440	0.892667	0.000105
1652	1.6427e+02	-7.1124	-91.069708	0.000345	3.445403	0.583667	0.000069
1653	1.6437e+02	-7.0923	-90.972817	0.000486	4.864099	0.824001	0.000097
1654	1.6447e+02	-7.0728	-90.904185	0.000345	3.445403	0.583667	0.000069
1655	1.6457e+02	-7.0526	-90.803257	0.000507	5.066770	0.858334	0.000101
1656	1.6467e+02	-7.0325	-90.730589	0.000365	3.648074	0.618000	0.000073
1657	1.6477e+02	-7.0120	-90.670032	0.000304	3.040062	0.515000	0.000061
1658	1.6487e+02	-6.9922	-90.593326	0.000385	3.850745	0.652334	0.000077
1659	1.6497e+02	-6.9730	-90.524695	0.000345	3.445403	0.583667	0.000069
1660	1.6507e+02	-6.9531	-90.391469	0.000669	6.688136	1.133001	0.000134
1661	1.6517e+02	-6.9315	-90.302652	0.000446	4.458757	0.755334	0.000089
1662	1.6527e+02	-6.9116	-90.221909	0.000405	4.053416	0.686667	0.000081
1663	1.6537e+02	-6.8939	-90.137130	0.000426	4.256086	0.721001	0.000085
1664	1.6547e+02	-6.8738	-90.092721	0.000223	2.229379	0.377667	0.000045
1665	1.6557e+02	-6.8536	-90.007941	0.000426	4.256086	0.721001	0.000085
1666	1.6567e+02	-6.8335	-89.919124	0.000446	4.458757	0.755334	0.000089
1667	1.6577e+02	-6.8137	-89.789936	0.000649	6.485465	1.098668	0.000130
1668	1.6587e+02	-6.7932	-89.757639	0.000162	1.621366	0.274667	0.000032
1669	1.6597e+02	-6.7734	-89.648636	0.000547	5.472111	0.927001	0.000110
1670	1.6607e+02	-6.7535	-89.547708	0.000507	5.066770	0.858334	0.000101
1671	1.6616e+02	-6.7334	-89.491188	0.000284	2.837391	0.480667	0.000057
1672	1.6626e+02	-6.7139	-89.374111	0.000588	5.877453	0.995667	0.000118
1673	1.6636e+02	-6.6925	-89.277220	0.000486	4.864099	0.824001	0.000097
1674	1.6646e+02	-6.6737	-89.160143	0.000588	5.877453	0.995667	0.000118
1675	1.6656e+02	-6.6534	-89.139957	0.000101	1.013354	0.171667	0.000020
1676	1.6666e+02	-6.6339	-89.018843	0.000608	6.080124	1.030001	0.000122
1677	1.6676e+02	-6.6138	-88.942137	0.000385	3.850745	0.652334	0.000077
1678	1.6686e+02	-6.5936	-88.861395	0.000405	4.053416	0.686667	0.000081
1679	1.6696e+02	-6.5741	-88.764503	0.000486	4.864099	0.824001	0.000097
1680	1.6706e+02	-6.5546	-88.675686	0.000446	4.458757	0.755334	0.000089
1681	1.6716e+02	-6.5344	-88.562647	0.000567	5.674782	0.961334	0.000114
1682	1.6726e+02	-6.5154	-88.461718	0.000507	5.066770	0.858334	0.000101
1683	1.6736e+02	-6.4941	-88.389050	0.000365	3.648074	0.618000	0.000073
1684	1.6746e+02	-6.4752	-88.304270	0.000426	4.256086	0.721001	0.000085
1685	1.6756e+02	-6.4551	-88.167007	0.000689	6.890807	1.167334	0.000138
1686	1.6766e+02	-6.4343	-88.090302	0.000385	3.850745	0.652334	0.000077
1687	1.6776e+02	-6.4148	-88.001485	0.000446	4.458757	0.755334	0.000089
1688	1.6786e+02	-6.3940	-87.920742	0.000405	4.053416	0.686667	0.000081
1689	1.6796e+02	-6.3751	-87.779442	0.000709	7.093477	1.201668	0.000142
1690	1.6806e+02	-6.3547	-87.718885	0.000304	3.040062	0.515000	0.000061
1691	1.6816e+02	-6.3348	-87.638143	0.000405	4.053416	0.686667	0.000081
1692	1.6825e+02	-6.3147	-87.529140	0.000547	5.472111	0.927001	0.000110
1693	1.6835e+02	-6.2949	-87.468583	0.000304	3.040062	0.515000	0.000061
1694	1.6845e+02	-6.2741	-87.367655	0.000507	5.066770	0.858334	0.000101
1695	1.6855e+02	-6.2543	-87.282875	0.000426	4.256086	0.721001	0.000085
1696	1.6865e+02	-6.2358	-87.165798	0.000588	5.877453	0.995667	0.000118
1697	1.6875e+02	-6.2161	-87.072944	0.000466	4.661428	0.789667	0.000093
1698	1.6885e+02	-6.1954	-86.951830	0.000608	6.080124	1.030001	0.000122
1699	1.6895e+02	-6.1761	-86.854938	0.000486	4.864099	0.824001	0.000097
1700	1.6905e+02	-6.1560	-86.754010	0.000507	5.066770	0.858334	0.000101
1701	1.6915e+02	-6.1359	-86.677304	0.000385	3.850745	0.652334	0.000077
1702	1.6925e+02	-6.1166	-86.572339	0.000527	5.269440	0.892667	0.000105
1703	1.6935e+02	-6.0968	-86.471410	0.000507	5.066770	0.858334	0.000101
1704	1.6945e+02	-6.0760	-86.402779	0.000345	3.445403	0.583667	0.000069
1705	1.6955e+02	-6.0565	-86.293776	0.000547	5.472111	0.927001	0.000110
1706	1.6965e+02	-6.0362	-86.164588	0.000649	6.485465	1.098668	0.000130
1707	1.6975e+02	-6.0155	-86.095957	0.000345	3.445403	0.583667	0.000069
1708	1.6985e+02	-5.9961	-85.922360	0.000871	8.714844	1.476335	0.000174
1709	1.6995e+02	-5.9766	-85.881989	0.000203	2.026708	0.343334	0.000041
1710	1.7005e+02	-5.9567	-85.748763	0.000669	6.688136	1.133001	0.000134
1711	1.7015e+02	-5.9367	-85.680132	0.000345	3.445403	0.583667	0.000069
1712	1.7024e+02	-5.9171	-85.571129	0.000547	5.472111	0.927001	0.000110
1713	1.7034e+02	-5.8966	-85.437904	0.000669	6.688136	1.133001	0.000134
1714	1.7044e+02	-5.8774	-85.357161	0.000405	4.053416	0.686667	0.000081
1715	1.7054e+02	-5.8563	-85.256233	0.000507	5.066770	0.858334	0.000101
1716	1.7064e+02	-5.8368	-85.167416	0.000446	4.458757	0.755334	0.000089
1717	1.7074e+02	-5.8170	-85.034190	0.000669	6.688136	1.133001	0.000134
1718	1.7084e+02	-5.7962	-84.929225	0.000527	5.269440	0.892667	0.000105
1719	1.7094e+02	-5.7764	-84.779850	0.000750	7.498819	1.270334	0.000150
1720	1.7104e+02	-5.7574	-84.719293	0.000304	3.040062	0.515000	0.000061
1721	1.7114e+02	-5.7373	-84.626439	0.000466	4.661428	0.789667	0.000093
1722	1.7124e+02	-5.7169	-84.505325	0.000608	6.080124	1.030001	0.000122
1723	1.7134e+02	-5.6973	-84.444768	0.000304	3.040062	0.515000	0.000061
1724	1.7144e+02	-5.6775	-84.315580	0.000649	6.485465	1.098668	0.000130
1725	1.7154e+02	-5.6580	-84.202540	0.000567	5.674782	0.961334	0.000114
1726	1.7164e+02	-5.6369	-84.069315	0.000669	6.688136	1.133001	0.000134
1727	1.7174e+02	-5.6181	-84.004720	0.000324	3.242733	0.549334	0.000065
1728	1.7184e+02	-5.5975	-83.835161	0.000851	8.512173	1.442001	0.000170
1729	1.7194e+02	-5.5774	-83.738269	0.000486	4.864099	0.824001	0.000097
1730	1.7204e+02	-5.5569	-83.613118	0.000628	6.282794	1.064334	0.000126
1731	1.7213e+02	-5.5380	-83.512190	0.000507	5.066770	0.858334	0.000101
1732	1.7223e+02	-5.5179	-83.383002	0.000649	6.485465	1.098668	0.000130
1733	1.7233e+02	-5.4993	-83.298222	0.000426	4.256086	0.721001	0.000085
1734	1.7243e+02	-5.4778	-83.197293	0.000507	5.066770	0.858334	0.000101
1735	1.7253e+02	-5.4572	-83.051956	0.000730	7.296148	1.236001	0.000146
1736	1.7263e+02	-5.4376	-82.955065	0.000486	4.864099	0.824001	0.000097
1737	1.7273e+02	-5.4175	-82.850100	0.000527	5.269440	0.892667	0.000105
1738	1.7283e+02	-5.3989	-82.737060	0.000567	5.674782	0.961334	0.000114
1739	1.7293e+02	-5.3790	-82.603834	0.000669	6.688136	1.133001	0.000134
1740	1.7303e+02	-5.3583	-82.498869	0.000527	5.269440	0.892667	0.000105
1741	1.7313e+02	-5.3387	-82.397940	0.000507	5.066770	0.858334	0.000101
1742	1.7323e+02	-5.3180	-82.292975	0.000527	5.269440	0.892667	0.000105
1743	1.7333e+02	-5.2985	-82.196084	0.000486	4.864099	0.824001	0.000097
1744	1.7343e+02	-5.2789	-82.074970	0.000608	6.080124	1.030001	0.000122
1745	1.7353e+02	-5.2588	-81.949818	0.000628	6.282794	1.064334	0.000126
1746	1.7363e+02	-5.2393	-81.832741	0.000588	5.877453	0.995667	0.000118
1747	1.7373e+02	-5.2191	-81.719702	0.000567	5.674782	0.961334	0.000114
1748	1.7383e+02	-5.1990	-81.586476	0.000669	6.688136	1.133001	0.000134
1749	1.7393e+02	-5.1782	-81.485548	0.000507	5.066770	0.858334	0.000101
1750	1.7403e+02	-5.1590	-81.352322	0.000669	6.688136	1.133001	0.000134
1751	1.7413e+02	-5.1390	-81.247357	0.000527	5.269440	0.892667	0.000105
1752	1.7422e+02	-5.1184	-81.126243	0.000608	6.080124	1.030001	0.000122
1753	1.7432e+02	-5.0995	-81.005129	0.000608	6.080124	1.030001	0.000122
1754	1.7442e+02	-5.0790	-80.888052	0.000588	5.877453	0.995667	0.000118
1755	1.7452e+02	-5.0598	-80.742715	0.000730	7.296148	1.236001	0.000146
1756	1.7462e+02	-5.0392	-80.649861	0.000466	4.661428	0.789667	0.000093
1757	1.7472e+02	-5.0204	-80.532784	0.000588	5.877453	0.995667	0.000118
1758	1.7482e+02	-4.9997	-80.379373	0.000770	7.701490	1.304668	0.000154
1759	1.7492e+02	-4.9802	-80.258258	0.000608	6.080124	1.030001	0.000122
1760	1.7502e+02	-4.9603	-80.165404	0.000466	4.661428	0.789667	0.000093
1761	1.7512e+02	-4.9408	-80.007956	0.000790	7.904161	1.339001	0.000158
1762	1.7522e+02	-4.9194	-79.886842	0.000608	6.080124	1.030001	0.000122
1763	1.7532e+02	-4.9004	-79.798025	0.000446	4.458757	0.755334	0.000089
1764	1.7542e+02	-4.8804	-79.676911	0.000608	6.080124	1.030001	0.000122
1765	1.7552e+02	-4.8607	-79.567908	0.000547	5.472111	0.927001	0.000110
1766	1.7562e+02	-4.8401	-79.410460	0.000790	7.904161	1.339001	0.000158
1767	1.7572e+02	-4.8209	-79.285309	0.000628	6.282794	1.064334	0.000126
1768	1.7582e+02	-4.8001	-79.164195	0.000608	6.080124	1.030001	0.000122
1769	1.7592e+02	-4.7806	-79.059229	0.000527	5.269440	0.892667	0.000105
1770	1.7602e+02	-4.7610	-78.921967	0.000689	6.890807	1.167334	0.000138
1771	1.7612e+02	-4.7400	-78.772593	0.000750	7.498819	1.270334	0.000150
1772	1.7621e+02	-4.7205	-78.675701	0.000486	4.864099	0.824001	0.000097
1773	1.7631e+02	-4.7006	-78.526327	0.000750	7.498819	1.270334	0.000150
1774	1.7641e+02	-4.6814	-78.405213	0.000608	6.080124	1.030001	0.000122
1775	1.7651e+02	-4.6613	-78.276025	0.000649	6.485465	1.098668	0.000130
1776	1.7661e+02	-4.6411	-78.167022	0.000547	5.472111	0.927001	0.000110
1777	1.7671e+02	-4.6210	-78.021685	0.000730	7.296148	1.236001	0.000146
1778	1.7681e+02	-4.6014	-77.908645	0.000567	5.674782	0.961334	0.000114
1779	1.7691e+02	-4.5816	-77.771383	0.000689	6.890807	1.167334	0.000138
1780	1.7701e+02	-4.5605	-77.634120	0.000689	6.890807	1.167334	0.000138
1781	1.7711e+02	-4.5422	-77.517043	0.000588	5.877453	0.995667	0.000118
1782	1.7721e+02	-4.5215	-77.379781	0.000689	6.890807	1.167334	0.000138
1783	1.7731e+02	-4.5019	-77.234444	0.000730	7.296148	1.236001	0.000146
1784	1.7741e+02	-4.4815	-77.117367	0.000588	5.877453	0.995667	0.000118
1785	1.7751e+02	-4.4617	-76.959919	0.000790	7.904161	1.339001	0.000158
1786	1.7761e+02	-4.4412	-76.834767	0.000628	6.282794	1.064334	0.000126
1787	1.7771e+02	-4.4214	-76.709616	0.000628	6.282794	1.064334	0.000126
1788	1.7781e+02	-4.4014	-76.536019	0.000871	8.714844	1.476335	0.000174
1789	1.7791e+02	-4.3820	-76.443165	0.000466	4.661428	0.789667	0.000093
1790	1.7801e+02	-4.3610	-76.285717	0.000790	7.904161	1.339001	0.000158
1791	1.7810e+02	-4.3427	-76.184789	0.000507	5.066770	0.858334	0.000101
1792	1.7820e+02	-4.3219	-76.027340	0.000790	7.904161	1.339001	0.000158
1793	1.7830e+02	-4.3024	-75.934486	0.000466	4.661428	0.789667	0.000093
1794	1.7840e+02	-4.2827	-75.752815	0.000912	9.120185	1.545001	0.000183
1795	1.7850e+02	-4.2631	-75.627664	0.000628	6.282794	1.064334	0.000126
1796	1.7860e+02	-4.2426	-75.506550	0.000608	6.080124	1.030001	0.000122
1797	1.7870e+02	-4.2223	-75.373324	0.000669	6.688136	1.133001	0.000134
1798	1.7880e+02	-4.2026	-75.248173	0.000628	6.282794	1.064334	0.000126
1799	1.7890e+02	-4.1830	-75.114948	0.000669	6.688136	1.133001	0.000134
1800	1.7900e+02	-4.1623	-74.961536	0.000770	7.701490	1.304668	0.000154
1801	1.7910e+02	-4.1425	-74.864645	0.000486	4.864099	0.824001	0.000097
1802	1.7920e+02	-4.1228	-74.719308	0.000730	7.296148	1.236001	0.000146
1803	1.7930e+02	-4.1028	-74.565897	0.000770	7.701490	1.304668	0.000154
1804	1.7940e+02	-4.0826	-74.420560	0.000730	7.296148	1.236001	0.000146
1805	1.7950e+02	-4.0622	-74.299446	0.000608	6.080124	1.030001	0.000122
1806	1.7960e+02	-4.0429	-74.170258	0.000649	6.485465	1.098668	0.000130
1807	1.7970e+02	-4.0228	-74.032995	0.000689	6.890807	1.167334	0.000138
1808	1.7980e+02	-4.0039	-73.859398	0.000871	8.714844	1.476335	0.000174
1809	1.7990e+02	-3.9835	-73.758470	0.000507	5.066770	0.858334	0.000101
1810	1.8000e+02	-3.9633	-73.621207	0.000689	6.890807	1.167334	0.000138
1811	1.8009e+02	-3.9423	-73.455685	0.000831	8.309502	1.407668	0.000166
1812	1.8019e+02	-3.9233	-73.354756	0.000507	5.066770	0.858334	0.000101
1813	1.8029e+02	-3.9032	-73.209419	0.000730	7.296148	1.236001	0.000146
1814	1.8039e+02	-3.8821	-73.051971	0.000790	7.904161	1.339001	0.000158
1815	1.8049e+02	-3.8635	-72.942969	0.000547	5.472111	0.927001	0.000110
1816	1.8059e+02	-3.8437	-72.809743	0.000669	6.688136	1.133001	0.000134
1817	1.8069e+02	-3.8242	-72.660369	0.000750	7.498819	1.270334	0.000150
1818	1.8079e+02	-3.8031	-72.490809	0.000851	8.512173	1.442001	0.000170
1819	1.8089e+02	-3.7842	-72.365658	0.000628	6.282794	1.064334	0.000126
1820	1.8099e+02	-3.7643	-72.220321	0.000730	7.296148	1.236001	0.000146
1821	1.8109e+02	-3.7442	-72.070947	0.000750	7.498819	1.270334	0.000150
1822	1.8119e+02	-3.7234	-71.909462	0.000811	8.106831	1.373334	0.000162
1823	1.8129e+02	-3.7036	-71.764125	0.000730	7.296148	1.236001	0.000146
1824	1.8139e+02	-3.6850	-71.667234	0.000486	4.864099	0.824001	0.000097
1825	1.8149e+02	-3.6655	-71.509785	0.000790	7.904161	1.339001	0.000158
1826	1.8159e+02	-3.6444	-71.360411	0.000750	7.498819	1.270334	0.000150
1827	1.8169e+02	-3.6248	-71.227186	0.000669	6.688136	1.133001	0.000134
1828	1.8179e+02	-3.6060	-71.097997	0.000649	6.485465	1.098668	0.000130
1829	1.8189e+02	-3.5854	-70.916326	0.000912	9.120185	1.545001	0.000183
1830	1.8199e+02	-3.5651	-70.807324	0.000547	5.472111	0.927001	0.000110
1831	1.8209e+02	-3.5443	-70.637764	0.000851	8.512173	1.442001	0.000170
1832	1.8218e+02	-3.5254	-70.504539	0.000669	6.688136	1.133001	0.000134
1833	1.8228e+02	-3.5043	-70.359202	0.000730	7.296148	1.236001	0.000146
1834	1.8238e+02	-3.4846	-70.213865	0.000730	7.296148	1.236001	0.000146
1835	1.8248e+02	-3.4650	-70.096788	0.000588	5.877453	0.995667	0.000118
1836	1.8258e+02	-3.4454	-69.943377	0.000770	7.701490	1.304668	0.000154
1837	1.8268e+02	-3.4253	-69.769780	0.000871	8.714844	1.476335	0.000174
1838	1.8278e+02	-3.4058	-69.648666	0.000608	6.080124	1.030001	0.000122
1839	1.8288e+02	-3.3856	-69.503329	0.000730	7.296148	1.236001	0.000146
1840	1.8298e+02	-3.3655	-69.382215	0.000608	6.080124	1.030001	0.000122
1841	1.8308e+02	-3.3456	-69.204581	0.000892	8.917515	1.510668	0.000179
1842	1.8318e+02	-3.3253	-69.071355	0.000669	6.688136	1.133001	0.000134
1843	1.8328e+02	-3.3063	-68.954278	0.000588	5.877453	0.995667	0.000118
1844	1.8338e+02	-3.2861	-68.780682	0.000871	8.714844	1.476335	0.000174
1845	1.8348e+02	-3.2654	-68.623233	0.000790	7.904161	1.339001	0.000158
1846	1.8358e+02	-3.2454	-68.465785	0.000790	7.904161	1.339001	0.000158
1847	1.8368e+02	-3.2263	-68.316411	0.000750	7.498819	1.270334	0.000150
1848	1.8378e+02	-3.2066	-68.146851	0.000851	8.512173	1.442001	0.000170
1849	1.8388e+02	-3.1860	-68.045923	0.000507	5.066770	0.858334	0.000101
1850	1.8398e+02	-3.1656	-67.896549	0.000750	7.498819	1.270334	0.000150
1851	1.8407e+02	-3.1467	-67.775435	0.000608	6.080124	1.030001	0.000122
1852	1.8417e+02	-3.1268	-67.634135	0.000709	7.093477	1.201668	0.000142
1853	1.8427e+02	-3.1070	-67.460538	0.000871	8.714844	1.476335	0.000174
1854	1.8437e+02	-3.0872	-67.327313	0.000669	6.688136	1.133001	0.000134
1855	1.8447e+02	-3.0664	-67.153716	0.000871	8.714844	1.476335	0.000174
1856	1.8457e+02	-3.0467	-67.004342	0.000750	7.498819	1.270334	0.000150
1857	1.8467e+02	-3.0261	-66.879191	0.000628	6.282794	1.064334	0.000126
1858	1.8477e+02	-3.0077	-66.745965	0.000669	6.688136	1.133001	0.000134
1859	1.8487e+02	-2.9868	-66.604665	0.000709	7.093477	1.201668	0.000142
1860	1.8497e+02	-2.9657	-66.439143	0.000831	8.309502	1.407668	0.000166
1861	1.8507e+02	-2.9469	-66.313992	0.000628	6.282794	1.064334	0.000126
1862	1.8517e+02	-2.9266	-66.164618	0.000750	7.498819	1.270334	0.000150
1863	1.8527e+02	-2.9071	-66.023318	0.000709	7.093477	1.201668	0.000142
1864	1.8537e+02	-2.8876	-65.821461	0.001013	10.133539	1.716668	0.000203
1865	1.8547e+02	-2.8674	-65.720533	0.000507	5.066770	0.858334	0.000101
1866	1.8557e+02	-2.8473	-65.575196	0.000730	7.296148	1.236001	0.000146
1867	1.8567e+02	-2.8271	-65.397562	0.000892	8.917515	1.510668	0.000179
1868	1.8577e+02	-2.8073	-65.260299	0.000689	6.890807	1.167334	0.000138
1869	1.8587e+02	-2.7875	-65.070554	0.000953	9.525527	1.613668	0.000191
1870	1.8597e+02	-2.7667	-64.965588	0.000527	5.269440	0.892667	0.000105
1871	1.8606e+02	-2.7475	-64.787954	0.000892	8.917515	1.510668	0.000179
1872	1.8616e+02	-2.7279	-64.678952	0.000547	5.472111	0.927001	0.000110
1873	1.8626e+02	-2.7074	-64.509392	0.000851	8.512173	1.442001	0.000170
1874	1.8636e+02	-2.6881	-64.376166	0.000669	6.688136	1.133001	0.000134
1875	1.8646e+02	-2.6672	-64.190458	0.000932	9.322856	1.579335	0.000187
1876	1.8656e+02	-2.6483	-64.041084	0.000750	7.498819	1.270334	0.000150
1877	1.8666e+02	-2.6282	-63.895747	0.000730	7.296148	1.236001	0.000146
1878	1.8676e+02	-2.6085	-63.722150	0.000871	8.714844	1.476335	0.000174
1879	1.8686e+02	-2.5876	-63.605074	0.000588	5.877453	0.995667	0.000118
1880	1.8696e+02	-2.5681	-63.459737	0.000730	7.296148	1.236001	0.000146
1881	1.8706e+02	-2.5493	-63.249806	0.001054	10.538881	1.785335	0.000211
1882	1.8716e+02	-2.5281	-63.132729	0.000588	5.877453	0.995667	0.000118
1883	1.8726e+02	-2.5094	-62.942983	0.000953	9.525527	1.613668	0.000191
1884	1.8736e+02	-2.4887	-62.805721	0.000689	6.890807	1.167334	0.000138
1885	1.8746e+02	-2.4693	-62.668458	0.000689	6.890807	1.167334	0.000138
1886	1.8756e+02	-2.4484	-62.482750	0.000932	9.322856	1.579335	0.000187
1887	1.8766e+02	-2.4292	-62.349524	0.000669	6.688136	1.133001	0.000134
1888	1.8776e+02	-2.4115	-62.200150	0.000750	7.498819	1.270334	0.000150
1889	1.8786e+02	-2.3892	-61.978108	0.001115	11.146893	1.888335	0.000223
1890	1.8796e+02	-2.3697	-61.873142	0.000527	5.269440	0.892667	0.000105
1891	1.8806e+02	-2.3488	-61.719731	0.000770	7.701490	1.304668	0.000154
1892	1.8815e+02	-2.3286	-61.546134	0.000871	8.714844	1.476335	0.000174
1893	1.8825e+02	-2.3095	-61.384649	0.000811	8.106831	1.373334	0.000162
1894	1.8835e+02	-2.2897	-61.243349	0.000709	7.093477	1.201668	0.000142
1895	1.8845e+02	-2.2696	-61.069752	0.000871	8.714844	1.476335	0.000174
1896	1.8855e+02	-2.2502	-60.920378	0.000750	7.498819	1.270334	0.000150
1897	1.8865e+02	-2.2296	-60.766967	0.000770	7.701490	1.304668	0.000154
1898	1.8875e+02	-2.2112	-60.629705	0.000689	6.890807	1.167334	0.000138
1899	1.8885e+02	-2.1901	-60.468219	0.000811	8.106831	1.373334	0.000162
1900	1.8895e+02	-2.1709	-60.270399	0.000993	9.930868	1.682335	0.000199
1901	1.8905e+02	-2.1500	-60.161397	0.000547	5.472111	0.927001	0.000110
1902	1.8915e+02	-2.1303	-60.007986	0.000770	7.701490	1.304668	0.000154
1903	1.8925e+02	-2.1104	-59.806129	0.001013	10.133539	1.716668	0.000203
1904	1.8935e+02	-2.0906	-59.652718	0.000770	7.701490	1.304668	0.000154
1905	1.8945e+02	-2.0703	-59.507381	0.000730	7.296148	1.236001	0.000146
1906	1.8955e+02	-2.0514	-59.362044	0.000730	7.296148	1.236001	0.000146
1907	1.8965e+02	-2.0300	-59.184410	0.000892	8.917515	1.510668	0.000179
1908	1.8975e+02	-2.0108	-58.998702	0.000932	9.322856	1.579335	0.000187
1909	1.8985e+02	-1.9904	-58.837216	0.000811	8.106831	1.373334	0.000162
1910	1.8995e+02	-1.9702	-58.699954	0.000689	6.890807	1.167334	0.000138
1911	1.9004e+02	-1.9514	-58.530394	0.000851	8.512173	1.442001	0.000170
1912	1.9014e+02	-1.9302	-58.328537	0.001013	10.133539	1.716668	0.000203
1913	1.9024e+02	-1.9112	-58.171089	0.000790	7.904161	1.339001	0.000158
1914	1.9034e+02	-1.8907	-58.049975	0.000608	6.080124	1.030001	0.000122
1915	1.9044e+02	-1.8713	-57.856192	0.000973	9.728198	1.648001	0.000195
1916	1.9054e+02	-1.8508	-57.718930	0.000689	6.890807	1.167334	0.000138
1917	1.9064e+02	-1.8311	-57.565518	0.000770	7.701490	1.304668	0.000154
1918	1.9074e+02	-1.8126	-57.391922	0.000871	8.714844	1.476335	0.000174
1919	1.9084e+02	-1.7914	-57.202176	0.000953	9.525527	1.613668	0.000191
1920	1.9094e+02	-1.7715	-57.056839	0.000730	7.296148	1.236001	0.000146
1921	1.9104e+02	-1.7521	-56.879205	0.000892	8.917515	1.510668	0.000179
1922	1.9114e+02	-1.7312	-56.689460	0.000953	9.525527	1.613668	0.000191
1923	1.9124e+02	-1.7119	-56.564309	0.000628	6.282794	1.064334	0.000126
1924	1.9134e+02	-1.6925	-56.382638	0.000912	9.120185	1.545001	0.000183
1925	1.9144e+02	-1.6724	-56.217115	0.000831	8.309502	1.407668	0.000166
1926	1.9154e+02	-1.6524	-56.039481	0.000892	8.917515	1.510668	0.000179
1927	1.9164e+02	-1.6317	-55.898181	0.000709	7.093477	1.201668	0.000142
1928	1.9174e+02	-1.6119	-55.692288	0.001034	10.336210	1.751001	0.000207
1929	1.9184e+02	-1.5921	-55.538876	0.000770	7.701490	1.304668	0.000154
1930	1.9194e+02	-1.5726	-55.369317	0.000851	8.512173	1.442001	0.000170
1931	1.9203e+02	-1.5518	-55.211868	0.000790	7.904161	1.339001	0.000158
1932	1.9213e+02	-1.5320	-55.022123	0.000953	9.525527	1.613668	0.000191
1933	1.9223e+02	-1.5121	-54.864675	0.000790	7.904161	1.339001	0.000158
1934	1.9233e+02	-1.4923	-54.715301	0.000750	7.498819	1.270334	0.000150
1935	1.9243e+02	-1.4723	-54.497295	0.001094	10.944222	1.854001	0.000219
1936	1.9253e+02	-1.4517	-54.372144	0.000628	6.282794	1.064334	0.000126
1937	1.9263e+02	-1.4331	-54.170287	0.001013	10.133539	1.716668	0.000203
1938	1.9273e+02	-1.4125	-53.996690	0.000871	8.714844	1.476335	0.000174
1939	1.9283e+02	-1.3919	-53.810982	0.000932	9.322856	1.579335	0.000187
1940	1.9293e+02	-1.3722	-53.617200	0.000973	9.728198	1.648001	0.000195
1941	1.9303e+02	-1.3524	-53.475900	0.000709	7.093477	1.201668	0.000142
1942	1.9313e+02	-1.3323	-53.298266	0.000892	8.917515	1.510668	0.000179
1943	1.9323e+02	-1.3126	-53.120632	0.000892	8.917515	1.510668	0.000179
1944	1.9333e+02	-1.2917	-52.975295	0.000730	7.296148	1.236001	0.000146
1945	1.9343e+02	-1.2730	-52.777476	0.000993	9.930868	1.682335	0.000199
1946	1.9353e+02	-1.2530	-52.599842	0.000892	8.917515	1.510668	0.000179
1947	1.9363e+02	-1.2324	-52.410096	0.000953	9.525527	1.613668	0.000191
1948	1.9373e+02	-1.2132	-52.228425	0.000912	9.120185	1.545001	0.000183
1949	1.9383e+02	-1.1935	-52.079051	0.000750	7.498819	1.270334	0.000150
1950	1.9393e+02	-1.1731	-51.885269	0.000973	9.728198	1.648001	0.000195
1951	1.9403e+02	-1.1542	-51.711672	0.000871	8.714844	1.476335	0.000174
1952	1.9412e+02	-1.1340	-51.542112	0.000851	8.512173	1.442001	0.000170
1953	1.9422e+02	-1.1136	-51.372552	0.000851	8.512173	1.442001	0.000170
1954	1.9432e+02	-1.0941	-51.231253	0.000709	7.093477	1.201668	0.000142
1955	1.9442e+02	-1.0736	-51.061693	0.000851	8.512173	1.442001	0.000170
1956	1.9452e+02	-1.0545	-50.823502	0.001196	11.957576	2.025668	0.000239
1957	1.9462e+02	-1.0346	-50.629719	0.000973	9.728198	1.648001	0.000195
1958	1.9472e+02	-1.0143	-50.508605	0.000608	6.080124	1.030001	0.000122
1959	1.9482e+02	-0.9937	-50.294637	0.001074	10.741552	1.819668	0.000215
1960	1.9492e+02	-0.9743	-50.121040	0.000871	8.714844	1.476335	0.000174
1961	1.9502e+02	-0.9549	-49.931295	0.000953	9.525527	1.613668	0.000191
1962	1.9512e+02	-0.9344	-49.769809	0.000811	8.106831	1.373334	0.000162
1963	1.9522e+02	-0.9148	-49.612361	0.000790	7.904161	1.339001	0.000158
1964	1.9532e+02	-0.8951	-49.402430	0.001054	10.538881	1.785335	0.000211
1965	1.9542e+02	-0.8748	-49.220759	0.000912	9.120185	1.545001	0.000183
1966	1.9552e+02	-0.8552	-49.087533	0.000669	6.688136	1.133001	0.000134
1967	1.9562e+02	-0.8347	-48.901825	0.000932	9.322856	1.579335	0.000187
1968	1.9572e+02	-0.8143	-48.695931	0.001034	10.336210	1.751001	0.000207
1969	1.9582e+02	-0.7945	-48.486000	0.001054	10.538881	1.785335	0.000211
1970	1.9592e+02	-0.7750	-48.332589	0.000770	7.701490	1.304668	0.000154
1971	1.9601e+02	-0.7547	-48.154955	0.000892	8.917515	1.510668	0.000179
1972	1.9611e+02	-0.7353	-48.013655	0.000709	7.093477	1.201668	0.000142
1973	1.9621e+02	-0.7153	-47.807761	0.001034	10.336210	1.751001	0.000207
1974	1.9631e+02	-0.6954	-47.618016	0.000953	9.525527	1.613668	0.000191
1975	1.9641e+02	-0.6758	-47.468642	0.000750	7.498819	1.270334	0.000150
1976	1.9651e+02	-0.6560	-47.246600	0.001115	11.146893	1.888335	0.000223
1977	1.9661e+02	-0.6359	-47.085114	0.000811	8.106831	1.373334	0.000162
1978	1.9671e+02	-0.6157	-46.919592	0.000831	8.309502	1.407668	0.000166
1979	1.9681e+02	-0.5949	-46.741958	0.000892	8.917515	1.510668	0.000179
1980	1.9691e+02	-0.5756	-46.580472	0.000811	8.106831	1.373334	0.000162
1981	1.9701e+02	-0.5556	-46.358430	0.001115	11.146893	1.888335	0.000223
1982	1.9711e+02	-0.5361	-46.200981	0.000790	7.904161	1.339001	0.000158
1983	1.9721e+02	-0.5151	-45.999125	0.001013	10.133539	1.716668	0.000203
1984	1.9731e+02	-0.4962	-45.809379	0.000953	9.525527	1.613668	0.000191
1985	1.9741e+02	-0.4750	-45.643857	0.000831	8.309502	1.407668	0.000166
1986	1.9751e+02	-0.4570	-45.421814	0.001115	11.146893	1.888335	0.000223
1987	1.9761e+02	-0.4356	-45.268403	0.000770	7.701490	1.304668	0.000154
1988	1.9771e+02	-0.4165	-45.078658	0.000953	9.525527	1.613668	0.000191
1989	1.9781e+02	-0.3954	-44.905061	0.000871	8.714844	1.476335	0.000174
1990	1.9791e+02	-0.3759	-44.743575	0.000811	8.106831	1.373334	0.000162
1991	1.9800e+02	-0.3564	-44.517496	0.001135	11.349564	1.922668	0.000227
1992	1.9810e+02	-0.3361	-44.351973	0.000831	8.309502	1.407668	0.000166
1993	1.9820e+02	-0.3161	-44.182414	0.000851	8.512173	1.442001	0.000170
1994	1.9830e+02	-0.2965	-43.932111	0.001257	12.565589	2.128668	0.000252
1995	1.9840e+02	-0.2768	-43.806960	0.000628	6.282794	1.064334	0.000126
1996	1.9850e+02	-0.2567	-43.621252	0.000932	9.322856	1.579335	0.000187
1997	1.9860e+02	-0.2371	-43.435543	0.000932	9.322856	1.579335	0.000187
1998	1.9870e+02	-0.2167	-43.249835	0.000932	9.322856	1.579335	0.000187
1999	1.9880e+02	-0.1966	-43.031830	0.001094	10.944222	1.854001	0.000219
2000	1.9890e+02	-0.1769	-42.882456	0.000750	7.498819	1.270334	0.000150
2001	1.9900e+02	-0.1575	-42.700785	0.000912	9.120185	1.545001	0.000183
2002	1.9910e+02	-0.1374	-42.502965	0.000993	9.930868	1.682335	0.000199
2003	1.9920e+02	-0.1165	-42.329368	0.000871	8.714844	1.476335	0.000174
2004	1.9930e+02	-0.0975	-42.119437	0.001054	10.538881	1.785335	0.000211
2005	1.9940e+02	-0.0774	-41.974100	0.000730	7.296148	1.236001	0.000146
2006	1.9950e+02	-0.0573	-41.796466	0.000892	8.917515	1.510668	0.000179
2007	1.9960e+02	-0.0375	-41.562312	0.001175	11.754906	1.991335	0.000235
2008	1.9970e+02	-0.0171	-41.421013	0.000709	7.093477	1.201668	0.000142
2009	1.9980e+02	0.0013	-41.259527	0.000709	7.093477	1.201668	0.000162

PMax (uC/cm2):	7.50e+01
Pr (uC/cm2):	9.76e+00
-Pr (uC/cm2):	-6.07e+01
PLoss (uC/cm2):	-6.07e+01
-Vc:	-1.06e+00
C (Max-Eff) (nF):	7.50e-01
K (Eff):	1.27e+03
Vert. (+/-Pr) Shift (uC/cm2):	-2.55e+01
Offset (uC/cm2):	-1.94e+01

A (Loop Area - uC/cm2·Volts):	-3.88e-01



Hysteresis Version: 5.48.1 - Radiant Technologies, Inc., 1999 - 9/12/24

