»»»»»»»»»»»»»»»»»»»»»»»»»»»»»»»»»»»» Hysteresis ««««««««««««««««««««««««««««««««««««
»»»  Executed Version:	5.48.1
»»»  Vision Version:	5.48.4 (R)
»»»  Vision Compiled:	9/18/24
»»»  Driver Version:	5.47.0
»»»  Windows Version:	Windows 8 or 8.1
»»»  Processor Information:	x86 (AMD or Intel) - 32 Processors
»»»  Tester Name:	PMF21124-494 (100V)
»»»  Tester S/N:	PMF21124-494
»»»  Internal Amp Type:	100V RevK 270k
»»»  Internal Amp S/N:	iAB2-596/K     
»»»  Execution Count:	1
»»»»»»»»»»»»»»»»»»»»»»»»»»»»»»»»»»»»»»»»»»««««««««««««««««««««««««««««««««««««««««««

Stored:	7/2/2025 - 13:48:16
Configured:	07/02/25 01:35:59 PM
Executed:	07/02/25 01:47:43 PM

»»»»»»»»»»»»»»»»»»»»»»»»»»»»»»»»»»» Sample Info ««««««««««««««««««««««««««««««««««««
Sample Name:	
Lot Name:	
Wafer Name:	
Die Row/Column:	0/0
Capacitor Number:	0
Sample Area (cm2):	1.00e-04
Sample Thickness (microns):	1.50e-01

Amplifier:	Internal

»»»»»»»»»»»»»»»»»»»»»»»»»»»»»»»»»»» Tester Info «««««««««««««««««««««««««««««««««««
Tester Name:	PMF21124-494 (100V)
Tester Serial Number:	PMF21124-494
Return Signal Amp. Level:	0.19 [Index: 3]

»»»»»»»»»»»»»»»»»»»»»»»»»»»»»»»» Hysteresis Info ««««««««««««««««««««««««««««««««««
Task Name:	Hyst-220
Volts:	10.00
Field:	666.67 (kV/cm)
DCBias:	0.00
DCField:	0.00 (kV/cm)
Hysteresis Period (ms):	2.00e+02
Preset:	Enabled
Preset Delay (ms):	1.00e+03
Profile:	Standard Bipolar

»»»»»»»»»»»»»»»»»»»»»»»»»»»»»»»»»»»»»» Data «««««««««««««««««««««««««««««««««««««««
Points:	2009

Valid Data

Point	Time (ms)	Drive Voltage	Measured Polarization (uC/cm2)	Capacitance (uF)	Normalized Capacitance (uF/cm2)	Dielectric Constant	Instantaneous Current (mA)
   1	0.0000e+00	0.0014	-2.052884	0.000608	6.079938	1.029969	0.000122
   2	9.9500e-02	0.0208	-1.931769	0.000608	6.079938	1.029969	0.000122
   3	1.9900e-01	0.0410	-1.750098	0.000912	9.119907	1.544954	0.000183
   4	2.9850e-01	0.0600	-1.624947	0.000628	6.282603	1.064302	0.000126
   5	3.9800e-01	0.0806	-1.479610	0.000730	7.295926	1.235963	0.000146
   6	4.9750e-01	0.1007	-1.366570	0.000567	5.674609	0.961305	0.000114
   7	5.9700e-01	0.1204	-1.209122	0.000790	7.903919	1.338960	0.000158
   8	6.9650e-01	0.1399	-1.063785	0.000730	7.295926	1.235963	0.000146
   9	7.9600e-01	0.1610	-0.886151	0.000892	8.917242	1.510622	0.000179
  10	8.9550e-01	0.1796	-0.748889	0.000689	6.890596	1.167299	0.000138
  11	9.9500e-01	0.1996	-0.599515	0.000750	7.498590	1.270296	0.000150
  12	1.0945e+00	0.2197	-0.442066	0.000790	7.903919	1.338960	0.000158
  13	1.1940e+00	0.2409	-0.353249	0.000446	4.458621	0.755311	0.000089
  14	1.2935e+00	0.2593	-0.224061	0.000649	6.485267	1.098634	0.000130
  15	1.3930e+00	0.2806	0.002019	0.001135	11.349218	1.922610	0.000227
  16	1.4925e+00	0.3007	0.102947	0.000507	5.066615	0.858308	0.000101
  17	1.5920e+00	0.3188	0.264432	0.000811	8.106584	1.373293	0.000162
  18	1.6915e+00	0.3402	0.401695	0.000689	6.890596	1.167299	0.000138
  19	1.7910e+00	0.3594	0.547032	0.000730	7.295926	1.235963	0.000146
  20	1.8905e+00	0.3799	0.708517	0.000811	8.106584	1.373293	0.000162
  21	1.9900e+00	0.4000	0.825594	0.000588	5.877273	0.995637	0.000118
  22	2.0895e+00	0.4192	0.983043	0.000790	7.903919	1.338960	0.000158
  23	2.1890e+00	0.4397	1.140491	0.000790	7.903919	1.338960	0.000158
  24	2.2885e+00	0.4606	1.322162	0.000912	9.119907	1.544954	0.000183
  25	2.3880e+00	0.4793	1.435202	0.000567	5.674609	0.961305	0.000114
  26	2.4875e+00	0.4995	1.572464	0.000689	6.890596	1.167299	0.000138
  27	2.5870e+00	0.5200	1.742024	0.000851	8.511913	1.441957	0.000170
  28	2.6865e+00	0.5385	1.899472	0.000790	7.903919	1.338960	0.000158
  29	2.7860e+00	0.5596	2.004438	0.000527	5.269280	0.892640	0.000105
  30	2.8855e+00	0.5794	2.165923	0.000811	8.106584	1.373293	0.000162
  31	2.9850e+00	0.5981	2.363743	0.000993	9.930565	1.682283	0.000199
  32	3.0845e+00	0.6191	2.492931	0.000649	6.485267	1.098634	0.000130
  33	3.1840e+00	0.6395	2.658454	0.000831	8.309249	1.407625	0.000166
  34	3.2835e+00	0.6586	2.783605	0.000628	6.282603	1.064302	0.000126
  35	3.3830e+00	0.6788	2.969313	0.000932	9.322572	1.579286	0.000187
  36	3.4825e+00	0.6985	3.126762	0.000790	7.903919	1.338960	0.000158
  37	3.5820e+00	0.7186	3.255950	0.000649	6.485267	1.098634	0.000130
  38	3.6815e+00	0.7388	3.437621	0.000912	9.119907	1.544954	0.000183
  39	3.7810e+00	0.7585	3.599107	0.000811	8.106584	1.373293	0.000162
  40	3.8805e+00	0.7788	3.744443	0.000730	7.295926	1.235963	0.000146
  41	3.9800e+00	0.7984	3.849409	0.000527	5.269280	0.892640	0.000105
  42	4.0795e+00	0.8182	4.027043	0.000892	8.917242	1.510622	0.000179
  43	4.1790e+00	0.8385	4.168343	0.000709	7.093261	1.201631	0.000142
  44	4.2785e+00	0.8575	4.329828	0.000811	8.106584	1.373293	0.000162
  45	4.3780e+00	0.8768	4.499388	0.000851	8.511913	1.441957	0.000170
  46	4.4775e+00	0.8975	4.656836	0.000790	7.903919	1.338960	0.000158
  47	4.5770e+00	0.9191	4.830433	0.000871	8.714578	1.476289	0.000174
  48	4.6765e+00	0.9370	4.975770	0.000730	7.295926	1.235963	0.000146
  49	4.7760e+00	0.9579	5.129181	0.000770	7.701255	1.304628	0.000154
  50	4.8755e+00	0.9775	5.286629	0.000790	7.903919	1.338960	0.000158
  51	4.9750e+00	0.9972	5.460226	0.000871	8.714578	1.476289	0.000174
  52	5.0745e+00	1.0170	5.633823	0.000871	8.714578	1.476289	0.000174
  53	5.1740e+00	1.0367	5.771086	0.000689	6.890596	1.167299	0.000138
  54	5.2735e+00	1.0577	5.936608	0.000831	8.309249	1.407625	0.000166
  55	5.3730e+00	1.0769	6.098094	0.000811	8.106584	1.373293	0.000162
  56	5.4725e+00	1.0979	6.259579	0.000811	8.106584	1.373293	0.000162
  57	5.5720e+00	1.1164	6.449324	0.000953	9.525236	1.613619	0.000191
  58	5.6715e+00	1.1380	6.590624	0.000709	7.093261	1.201631	0.000142
  59	5.7710e+00	1.1573	6.715775	0.000628	6.282603	1.064302	0.000126
  60	5.8705e+00	1.1772	6.877261	0.000811	8.106584	1.373293	0.000162
  61	5.9700e+00	1.1970	7.067006	0.000953	9.525236	1.613619	0.000191
  62	6.0695e+00	1.2173	7.224454	0.000790	7.903919	1.338960	0.000158
  63	6.1690e+00	1.2370	7.394014	0.000851	8.511913	1.441957	0.000170
  64	6.2685e+00	1.2571	7.559537	0.000831	8.309249	1.407625	0.000166
  65	6.3680e+00	1.2759	7.708911	0.000750	7.498590	1.270296	0.000150
  66	6.4675e+00	1.2954	7.850210	0.000709	7.093261	1.201631	0.000142
  67	6.5670e+00	1.3156	8.060142	0.001054	10.538559	1.785280	0.000211
  68	6.6665e+00	1.3361	8.205478	0.000730	7.295926	1.235963	0.000146
  69	6.7660e+00	1.3545	8.375038	0.000851	8.511913	1.441957	0.000170
  70	6.8655e+00	1.3757	8.528449	0.000770	7.701255	1.304628	0.000154
  71	6.9650e+00	1.3951	8.726269	0.000993	9.930565	1.682283	0.000199
  72	7.0645e+00	1.4150	8.835272	0.000547	5.471944	0.926972	0.000110
  73	7.1640e+00	1.4362	9.025017	0.000953	9.525236	1.613619	0.000191
  74	7.2635e+00	1.4550	9.190540	0.000831	8.309249	1.407625	0.000166
  75	7.3630e+00	1.4763	9.315691	0.000628	6.282603	1.064302	0.000126
  76	7.4625e+00	1.4947	9.497362	0.000912	9.119907	1.544954	0.000183
  77	7.5620e+00	1.5154	9.650773	0.000770	7.701255	1.304628	0.000154
  78	7.6615e+00	1.5351	9.832444	0.000912	9.119907	1.544954	0.000183
  79	7.7610e+00	1.5545	9.985855	0.000770	7.701255	1.304628	0.000154
  80	7.8605e+00	1.5752	10.135229	0.000750	7.498590	1.270296	0.000150
  81	7.9600e+00	1.5942	10.324975	0.000953	9.525236	1.613619	0.000191
  82	8.0595e+00	1.6143	10.466274	0.000709	7.093261	1.201631	0.000142
  83	8.1590e+00	1.6343	10.651983	0.000932	9.322572	1.579286	0.000187
  84	8.2585e+00	1.6546	10.797320	0.000730	7.295926	1.235963	0.000146
  85	8.3580e+00	1.6744	10.978991	0.000912	9.119907	1.544954	0.000183
  86	8.4575e+00	1.6943	11.120290	0.000709	7.093261	1.201631	0.000142
  87	8.5570e+00	1.7153	11.265627	0.000730	7.295926	1.235963	0.000146
  88	8.6565e+00	1.7345	11.455373	0.000953	9.525236	1.613619	0.000191
  89	8.7560e+00	1.7544	11.592635	0.000689	6.890596	1.167299	0.000138
  90	8.8555e+00	1.7742	11.794492	0.001013	10.133230	1.716616	0.000203
  91	8.9550e+00	1.7930	11.943866	0.000750	7.498590	1.270296	0.000150
  92	9.0545e+00	1.8147	12.093240	0.000750	7.498590	1.270296	0.000150
  93	9.1540e+00	1.8340	12.287023	0.000973	9.727901	1.647951	0.000195
  94	9.2535e+00	1.8542	12.476768	0.000953	9.525236	1.613619	0.000191
  95	9.3530e+00	1.8739	12.614031	0.000689	6.890596	1.167299	0.000138
  96	9.4525e+00	1.8926	12.763405	0.000750	7.498590	1.270296	0.000150
  97	9.5520e+00	1.9144	12.912779	0.000750	7.498590	1.270296	0.000150
  98	9.6515e+00	1.9335	13.122710	0.001054	10.538559	1.785280	0.000211
  99	9.7510e+00	1.9546	13.259972	0.000689	6.890596	1.167299	0.000138
 100	9.8505e+00	1.9738	13.490089	0.001155	11.551882	1.956942	0.000231
 101	9.9500e+00	1.9930	13.627352	0.000689	6.890596	1.167299	0.000138
 102	1.0050e+01	2.0132	13.792874	0.000831	8.309249	1.407625	0.000166
 103	1.0149e+01	2.0333	13.974545	0.000912	9.119907	1.544954	0.000183
 104	1.0248e+01	2.0531	14.148142	0.000871	8.714578	1.476289	0.000174
 105	1.0348e+01	2.0728	14.265219	0.000588	5.877273	0.995637	0.000118
 106	1.0447e+01	2.0936	14.463039	0.000993	9.930565	1.682283	0.000199
 107	1.0547e+01	2.1134	14.656821	0.000973	9.727901	1.647951	0.000195
 108	1.0646e+01	2.1325	14.834455	0.000892	8.917242	1.510622	0.000179
 109	1.0746e+01	2.1526	14.943458	0.000547	5.471944	0.926972	0.000110
 110	1.0845e+01	2.1732	15.177612	0.001175	11.754547	1.991274	0.000235
 111	1.0945e+01	2.1930	15.298726	0.000608	6.079938	1.029969	0.000122
 112	1.1044e+01	2.2131	15.460211	0.000811	8.106584	1.373293	0.000162
 113	1.1144e+01	2.2334	15.625734	0.000831	8.309249	1.407625	0.000166
 114	1.1243e+01	2.2521	15.803368	0.000892	8.917242	1.510622	0.000179
 115	1.1343e+01	2.2728	15.948705	0.000730	7.295926	1.235963	0.000146
 116	1.1443e+01	2.2930	16.142487	0.000973	9.727901	1.647951	0.000195
 117	1.1542e+01	2.3124	16.303973	0.000811	8.106584	1.373293	0.000162
 118	1.1642e+01	2.3324	16.477570	0.000871	8.714578	1.476289	0.000174
 119	1.1741e+01	2.3522	16.639055	0.000811	8.106584	1.373293	0.000162
 120	1.1841e+01	2.3716	16.812652	0.000871	8.714578	1.476289	0.000174
 121	1.1940e+01	2.3919	16.962026	0.000750	7.498590	1.270296	0.000150
 122	1.2040e+01	2.4124	17.131586	0.000851	8.511913	1.441957	0.000170
 123	1.2139e+01	2.4322	17.276922	0.000730	7.295926	1.235963	0.000146
 124	1.2239e+01	2.4528	17.482816	0.001034	10.335895	1.750948	0.000207
 125	1.2338e+01	2.4718	17.624116	0.000709	7.093261	1.201631	0.000142
 126	1.2438e+01	2.4923	17.773490	0.000750	7.498590	1.270296	0.000150
 127	1.2537e+01	2.5124	17.922864	0.000750	7.498590	1.270296	0.000150
 128	1.2636e+01	2.5317	18.140869	0.001094	10.943888	1.853945	0.000219
 129	1.2736e+01	2.5524	18.294281	0.000770	7.701255	1.304628	0.000154
 130	1.2835e+01	2.5712	18.455766	0.000811	8.106584	1.373293	0.000162
 131	1.2935e+01	2.5903	18.601103	0.000730	7.295926	1.235963	0.000146
 132	1.3034e+01	2.6113	18.762588	0.000811	8.106584	1.373293	0.000162
 133	1.3134e+01	2.6315	18.968482	0.001034	10.335895	1.750948	0.000207
 134	1.3233e+01	2.6517	19.089596	0.000608	6.079938	1.029969	0.000122
 135	1.3333e+01	2.6714	19.251082	0.000811	8.106584	1.373293	0.000162
 136	1.3432e+01	2.6913	19.396419	0.000730	7.295926	1.235963	0.000146
 137	1.3532e+01	2.7105	19.553867	0.000790	7.903919	1.338960	0.000158
 138	1.3632e+01	2.7318	19.763798	0.001054	10.538559	1.785280	0.000211
 139	1.3731e+01	2.7502	19.925283	0.000811	8.106584	1.373293	0.000162
 140	1.3831e+01	2.7711	20.062546	0.000689	6.890596	1.167299	0.000138
 141	1.3930e+01	2.7905	20.244217	0.000912	9.119907	1.544954	0.000183
 142	1.4030e+01	2.8107	20.405703	0.000811	8.106584	1.373293	0.000162
 143	1.4129e+01	2.8310	20.567188	0.000811	8.106584	1.373293	0.000162
 144	1.4229e+01	2.8460	20.696376	0.000649	6.485267	1.098634	0.000130
 145	1.4328e+01	2.8703	20.841713	0.000730	7.295926	1.235963	0.000146
 146	1.4428e+01	2.8899	21.011273	0.000851	8.511913	1.441957	0.000170
 147	1.4527e+01	2.9098	21.192944	0.000912	9.119907	1.544954	0.000183
 148	1.4627e+01	2.9299	21.358467	0.000831	8.309249	1.407625	0.000166
 149	1.4726e+01	2.9501	21.548212	0.000953	9.525236	1.613619	0.000191
 150	1.4825e+01	2.9705	21.685475	0.000689	6.890596	1.167299	0.000138
 151	1.4925e+01	2.9894	21.850997	0.000831	8.309249	1.407625	0.000166
 152	1.5024e+01	3.0096	22.028631	0.000892	8.917242	1.510622	0.000179
 153	1.5124e+01	3.0297	22.161857	0.000669	6.687932	1.132966	0.000134
 154	1.5223e+01	3.0502	22.327379	0.000831	8.309249	1.407625	0.000166
 155	1.5323e+01	3.0703	22.468679	0.000709	7.093261	1.201631	0.000142
 156	1.5422e+01	3.0901	22.642276	0.000871	8.714578	1.476289	0.000174
 157	1.5522e+01	3.1089	22.832021	0.000953	9.525236	1.613619	0.000191
 158	1.5621e+01	3.1289	22.981395	0.000750	7.498590	1.270296	0.000150
 159	1.5721e+01	3.1503	23.146918	0.000831	8.309249	1.407625	0.000166
 160	1.5820e+01	3.1698	23.316477	0.000851	8.511913	1.441957	0.000170
 161	1.5920e+01	3.1889	23.461814	0.000730	7.295926	1.235963	0.000146
 162	1.6020e+01	3.2098	23.595040	0.000669	6.687932	1.132966	0.000134
 163	1.6119e+01	3.2290	23.784785	0.000953	9.525236	1.613619	0.000191
 164	1.6218e+01	3.2493	23.913974	0.000649	6.485267	1.098634	0.000130
 165	1.6318e+01	3.2687	24.079496	0.000831	8.309249	1.407625	0.000166
 166	1.6418e+01	3.2879	24.265204	0.000932	9.322572	1.579286	0.000187
 167	1.6517e+01	3.3088	24.410541	0.000730	7.295926	1.235963	0.000146
 168	1.6616e+01	3.3297	24.576064	0.000831	8.309249	1.407625	0.000166
 169	1.6716e+01	3.3480	24.709289	0.000669	6.687932	1.132966	0.000134
 170	1.6816e+01	3.3687	24.882886	0.000871	8.714578	1.476289	0.000174
 171	1.6915e+01	3.3889	25.052446	0.000851	8.511913	1.441957	0.000170
 172	1.7015e+01	3.4087	25.238154	0.000932	9.322572	1.579286	0.000187
 173	1.7114e+01	3.4289	25.363305	0.000628	6.282603	1.064302	0.000126
 174	1.7213e+01	3.4483	25.516716	0.000770	7.701255	1.304628	0.000154
 175	1.7313e+01	3.4679	25.686276	0.000851	8.511913	1.441957	0.000170
 176	1.7413e+01	3.4875	25.839687	0.000770	7.701255	1.304628	0.000154
 177	1.7512e+01	3.5076	26.005210	0.000831	8.309249	1.407625	0.000166
 178	1.7611e+01	3.5282	26.174770	0.000851	8.511913	1.441957	0.000170
 179	1.7711e+01	3.5485	26.320106	0.000730	7.295926	1.235963	0.000146
 180	1.7811e+01	3.5674	26.429109	0.000547	5.471944	0.926972	0.000110
 181	1.7910e+01	3.5876	26.602706	0.000871	8.714578	1.476289	0.000174
 182	1.8009e+01	3.6073	26.780340	0.000892	8.917242	1.510622	0.000179
 183	1.8109e+01	3.6275	26.909528	0.000649	6.485267	1.098634	0.000130
 184	1.8209e+01	3.6474	27.054865	0.000730	7.295926	1.235963	0.000146
 185	1.8308e+01	3.6681	27.232499	0.000892	8.917242	1.510622	0.000179
 186	1.8407e+01	3.6880	27.353613	0.000608	6.079938	1.029969	0.000122
 187	1.8507e+01	3.7084	27.482802	0.000649	6.485267	1.098634	0.000130
 188	1.8607e+01	3.7270	27.676584	0.000973	9.727901	1.647951	0.000195
 189	1.8706e+01	3.7473	27.825958	0.000750	7.498590	1.270296	0.000150
 190	1.8805e+01	3.7673	27.975332	0.000750	7.498590	1.270296	0.000150
 191	1.8905e+01	3.7864	28.128743	0.000770	7.701255	1.304628	0.000154
 192	1.9005e+01	3.8059	28.245820	0.000588	5.877273	0.995637	0.000118
 193	1.9104e+01	3.8268	28.435566	0.000953	9.525236	1.613619	0.000191
 194	1.9203e+01	3.8467	28.552643	0.000588	5.877273	0.995637	0.000118
 195	1.9303e+01	3.8662	28.714128	0.000811	8.106584	1.373293	0.000162
 196	1.9402e+01	3.8860	28.883688	0.000851	8.511913	1.441957	0.000170
 197	1.9502e+01	3.9068	29.012876	0.000649	6.485267	1.098634	0.000130
 198	1.9602e+01	3.9268	29.174361	0.000811	8.106584	1.373293	0.000162
 199	1.9701e+01	3.9471	29.315661	0.000709	7.093261	1.201631	0.000142
 200	1.9800e+01	3.9665	29.501369	0.000932	9.322572	1.579286	0.000187
 201	1.9900e+01	3.9867	29.594224	0.000466	4.661286	0.789643	0.000093
 202	2.0000e+01	4.0061	29.767820	0.000871	8.714578	1.476289	0.000174
 203	2.0099e+01	4.0258	29.925269	0.000790	7.903919	1.338960	0.000158
 204	2.0198e+01	4.0459	30.078680	0.000770	7.701255	1.304628	0.000154
 205	2.0298e+01	4.0661	30.260351	0.000912	9.119907	1.544954	0.000183
 206	2.0398e+01	4.0859	30.365316	0.000527	5.269280	0.892640	0.000105
 207	2.0497e+01	4.1058	30.522765	0.000790	7.903919	1.338960	0.000158
 208	2.0596e+01	4.1261	30.684250	0.000811	8.106584	1.373293	0.000162
 209	2.0696e+01	4.1454	30.809401	0.000628	6.282603	1.064302	0.000126
 210	2.0796e+01	4.1662	30.946664	0.000689	6.890596	1.167299	0.000138
 211	2.0895e+01	4.1827	31.096038	0.000750	7.498590	1.270296	0.000150
 212	2.0994e+01	4.2059	31.269635	0.000871	8.714578	1.476289	0.000174
 213	2.1094e+01	4.2257	31.398823	0.000649	6.485267	1.098634	0.000130
 214	2.1194e+01	4.2460	31.523974	0.000628	6.282603	1.064302	0.000126
 215	2.1293e+01	4.2651	31.729868	0.001034	10.335895	1.750948	0.000207
 216	2.1392e+01	4.2858	31.850982	0.000608	6.079938	1.029969	0.000122
 217	2.1492e+01	4.3055	31.996319	0.000730	7.295926	1.235963	0.000146
 218	2.1591e+01	4.3255	32.125508	0.000649	6.485267	1.098634	0.000130
 219	2.1691e+01	4.3453	32.270845	0.000730	7.295926	1.235963	0.000146
 220	2.1791e+01	4.3647	32.436367	0.000831	8.309249	1.407625	0.000166
 221	2.1890e+01	4.3859	32.577667	0.000709	7.093261	1.201631	0.000142
 222	2.1989e+01	4.4045	32.723004	0.000730	7.295926	1.235963	0.000146
 223	2.2089e+01	4.4241	32.900638	0.000892	8.917242	1.510622	0.000179
 224	2.2189e+01	4.4439	32.997529	0.000486	4.863950	0.823976	0.000097
 225	2.2288e+01	4.4637	33.126717	0.000649	6.485267	1.098634	0.000130
 226	2.2387e+01	4.4848	33.272054	0.000730	7.295926	1.235963	0.000146
 227	2.2487e+01	4.5046	33.449688	0.000892	8.917242	1.510622	0.000179
 228	2.2587e+01	4.5251	33.607136	0.000790	7.903919	1.338960	0.000158
 229	2.2686e+01	4.5446	33.728251	0.000608	6.079938	1.029969	0.000122
 230	2.2785e+01	4.5663	33.869550	0.000709	7.093261	1.201631	0.000142
 231	2.2885e+01	4.5837	34.043147	0.000871	8.714578	1.476289	0.000174
 232	2.2985e+01	4.6041	34.160224	0.000588	5.877273	0.995637	0.000118
 233	2.3084e+01	4.6244	34.297487	0.000689	6.890596	1.167299	0.000138
 234	2.3183e+01	4.6447	34.471083	0.000871	8.714578	1.476289	0.000174
 235	2.3283e+01	4.6645	34.584123	0.000567	5.674609	0.961305	0.000114
 236	2.3383e+01	4.6828	34.745609	0.000811	8.106584	1.373293	0.000162
 237	2.3482e+01	4.7039	34.907094	0.000811	8.106584	1.373293	0.000162
 238	2.3581e+01	4.7247	35.048394	0.000709	7.093261	1.201631	0.000142
 239	2.3681e+01	4.7442	35.185657	0.000689	6.890596	1.167299	0.000138
 240	2.3780e+01	4.7637	35.330993	0.000730	7.295926	1.235963	0.000146
 241	2.3880e+01	4.7832	35.464219	0.000669	6.687932	1.132966	0.000134
 242	2.3980e+01	4.8034	35.585333	0.000608	6.079938	1.029969	0.000122
 243	2.4079e+01	4.8223	35.754893	0.000851	8.511913	1.441957	0.000170
 244	2.4178e+01	4.8440	35.867932	0.000567	5.674609	0.961305	0.000114
 245	2.4278e+01	4.8629	36.029418	0.000811	8.106584	1.373293	0.000162
 246	2.4378e+01	4.8833	36.178792	0.000750	7.498590	1.270296	0.000150
 247	2.4477e+01	4.9023	36.312017	0.000669	6.687932	1.132966	0.000134
 248	2.4576e+01	4.9233	36.449280	0.000689	6.890596	1.167299	0.000138
 249	2.4676e+01	4.9438	36.610765	0.000811	8.106584	1.373293	0.000162
 250	2.4776e+01	4.9639	36.739954	0.000649	6.485267	1.098634	0.000130
 251	2.4875e+01	4.9822	36.901439	0.000811	8.106584	1.373293	0.000162
 252	2.4974e+01	5.0033	37.030628	0.000649	6.485267	1.098634	0.000130
 253	2.5074e+01	5.0231	37.167890	0.000689	6.890596	1.167299	0.000138
 254	2.5174e+01	5.0420	37.272856	0.000527	5.269280	0.892640	0.000105
 255	2.5273e+01	5.0628	37.422230	0.000750	7.498590	1.270296	0.000150
 256	2.5372e+01	5.0817	37.571604	0.000750	7.498590	1.270296	0.000150
 257	2.5472e+01	5.1024	37.725015	0.000770	7.701255	1.304628	0.000154
 258	2.5572e+01	5.1214	37.842092	0.000588	5.877273	0.995637	0.000118
 259	2.5671e+01	5.1415	38.003577	0.000811	8.106584	1.373293	0.000162
 260	2.5770e+01	5.1611	38.136803	0.000669	6.687932	1.132966	0.000134
 261	2.5870e+01	5.1812	38.274065	0.000689	6.890596	1.167299	0.000138
 262	2.5970e+01	5.2020	38.427477	0.000770	7.701255	1.304628	0.000154
 263	2.6069e+01	5.2215	38.552628	0.000628	6.282603	1.064302	0.000126
 264	2.6169e+01	5.2421	38.693927	0.000709	7.093261	1.201631	0.000142
 265	2.6268e+01	5.2612	38.855413	0.000811	8.106584	1.373293	0.000162
 266	2.6367e+01	5.2822	38.988638	0.000669	6.687932	1.132966	0.000134
 267	2.6467e+01	5.3008	39.125901	0.000689	6.890596	1.167299	0.000138
 268	2.6567e+01	5.3222	39.279312	0.000770	7.701255	1.304628	0.000154
 269	2.6666e+01	5.3417	39.424649	0.000730	7.295926	1.235963	0.000146
 270	2.6765e+01	5.3609	39.574023	0.000750	7.498590	1.270296	0.000150
 271	2.6865e+01	5.3820	39.731471	0.000790	7.903919	1.338960	0.000158
 272	2.6965e+01	5.4011	39.880845	0.000750	7.498590	1.270296	0.000150
 273	2.7064e+01	5.4208	39.997922	0.000588	5.877273	0.995637	0.000118
 274	2.7163e+01	5.4412	40.147296	0.000750	7.498590	1.270296	0.000150
 275	2.7263e+01	5.4597	40.296670	0.000750	7.498590	1.270296	0.000150
 276	2.7363e+01	5.4800	40.433933	0.000689	6.890596	1.167299	0.000138
 277	2.7462e+01	5.4998	40.583307	0.000750	7.498590	1.270296	0.000150
 278	2.7561e+01	5.5212	40.672124	0.000446	4.458621	0.755311	0.000089
 279	2.7661e+01	5.5407	40.873981	0.001013	10.133230	1.716616	0.000203
 280	2.7761e+01	5.5602	41.011243	0.000689	6.890596	1.167299	0.000138
 281	2.7860e+01	5.5801	41.124283	0.000567	5.674609	0.961305	0.000114
 282	2.7959e+01	5.5999	41.281731	0.000790	7.903919	1.338960	0.000158
 283	2.8059e+01	5.6207	41.398808	0.000588	5.877273	0.995637	0.000118
 284	2.8159e+01	5.6400	41.552220	0.000770	7.701255	1.304628	0.000154
 285	2.8258e+01	5.6594	41.721779	0.000851	8.511913	1.441957	0.000170
 286	2.8358e+01	5.6799	41.842893	0.000608	6.079938	1.029969	0.000122
 287	2.8457e+01	5.7000	41.992267	0.000750	7.498590	1.270296	0.000150
 288	2.8556e+01	5.7198	42.101270	0.000547	5.471944	0.926972	0.000110
 289	2.8656e+01	5.7397	42.246607	0.000730	7.295926	1.235963	0.000146
 290	2.8756e+01	5.7592	42.363684	0.000588	5.877273	0.995637	0.000118
 291	2.8855e+01	5.7800	42.521132	0.000790	7.903919	1.338960	0.000158
 292	2.8954e+01	5.8001	42.670506	0.000750	7.498590	1.270296	0.000150
 293	2.9054e+01	5.8190	42.787583	0.000588	5.877273	0.995637	0.000118
 294	2.9154e+01	5.8398	42.949069	0.000811	8.106584	1.373293	0.000162
 295	2.9253e+01	5.8593	43.074220	0.000628	6.282603	1.064302	0.000126
 296	2.9352e+01	5.8822	43.235705	0.000811	8.106584	1.373293	0.000162
 297	2.9452e+01	5.9002	43.368931	0.000669	6.687932	1.132966	0.000134
 298	2.9552e+01	5.9191	43.481970	0.000567	5.674609	0.961305	0.000114
 299	2.9651e+01	5.9368	43.611159	0.000649	6.485267	1.098634	0.000130
 300	2.9750e+01	5.9594	43.768607	0.000790	7.903919	1.338960	0.000158
 301	2.9850e+01	5.9789	43.942204	0.000871	8.714578	1.476289	0.000174
 302	2.9950e+01	5.9997	44.051207	0.000547	5.471944	0.926972	0.000110
 303	3.0049e+01	6.0192	44.172321	0.000608	6.079938	1.029969	0.000122
 304	3.0148e+01	6.0387	44.333806	0.000811	8.106584	1.373293	0.000162
 305	3.0248e+01	6.0583	44.446846	0.000567	5.674609	0.961305	0.000114
 306	3.0348e+01	6.0783	44.576034	0.000649	6.485267	1.098634	0.000130
 307	3.0447e+01	6.0983	44.753668	0.000892	8.917242	1.510622	0.000179
 308	3.0547e+01	6.1190	44.862671	0.000547	5.471944	0.926972	0.000110
 309	3.0646e+01	6.1382	45.008008	0.000730	7.295926	1.235963	0.000146
 310	3.0745e+01	6.1588	45.129122	0.000608	6.079938	1.029969	0.000122
 311	3.0845e+01	6.1779	45.302719	0.000871	8.714578	1.476289	0.000174
 312	3.0945e+01	6.1980	45.387499	0.000426	4.255957	0.720979	0.000085
 313	3.1044e+01	6.2186	45.548984	0.000811	8.106584	1.373293	0.000162
 314	3.1143e+01	6.2380	45.718544	0.000851	8.511913	1.441957	0.000170
 315	3.1243e+01	6.2572	45.831583	0.000567	5.674609	0.961305	0.000114
 316	3.1343e+01	6.2772	45.960772	0.000649	6.485267	1.098634	0.000130
 317	3.1442e+01	6.2981	46.118220	0.000790	7.903919	1.338960	0.000158
 318	3.1541e+01	6.3165	46.231260	0.000567	5.674609	0.961305	0.000114
 319	3.1641e+01	6.3375	46.408894	0.000892	8.917242	1.510622	0.000179
 320	3.1741e+01	6.3573	46.534045	0.000628	6.282603	1.064302	0.000126
 321	3.1840e+01	6.3775	46.655159	0.000608	6.079938	1.029969	0.000122
 322	3.1939e+01	6.3961	46.764162	0.000547	5.471944	0.926972	0.000110
 323	3.2039e+01	6.4169	46.961981	0.000993	9.930565	1.682283	0.000199
 324	3.2139e+01	6.4370	47.083096	0.000608	6.079938	1.029969	0.000122
 325	3.2238e+01	6.4577	47.159801	0.000385	3.850627	0.652314	0.000077
 326	3.2337e+01	6.4764	47.333398	0.000871	8.714578	1.476289	0.000174
 327	3.2437e+01	6.4965	47.490846	0.000790	7.903919	1.338960	0.000158
 328	3.2536e+01	6.5166	47.615997	0.000628	6.282603	1.064302	0.000126
 329	3.2636e+01	6.5368	47.729037	0.000567	5.674609	0.961305	0.000114
 330	3.2736e+01	6.5569	47.890523	0.000811	8.106584	1.373293	0.000162
 331	3.2835e+01	6.5771	48.031822	0.000709	7.093261	1.201631	0.000142
 332	3.2934e+01	6.5966	48.177159	0.000730	7.295926	1.235963	0.000146
 333	3.3034e+01	6.6155	48.290199	0.000567	5.674609	0.961305	0.000114
 334	3.3133e+01	6.6360	48.415350	0.000628	6.282603	1.064302	0.000126
 335	3.3233e+01	6.6563	48.576836	0.000811	8.106584	1.373293	0.000162
 336	3.3333e+01	6.6756	48.742358	0.000831	8.309249	1.407625	0.000166
 337	3.3432e+01	6.6961	48.875584	0.000669	6.687932	1.132966	0.000134
 338	3.3532e+01	6.7156	48.984586	0.000547	5.471944	0.926972	0.000110
 339	3.3631e+01	6.7364	49.142035	0.000790	7.903919	1.338960	0.000158
 340	3.3730e+01	6.7550	49.255075	0.000567	5.674609	0.961305	0.000114
 341	3.3830e+01	6.7760	49.440783	0.000932	9.322572	1.579286	0.000187
 342	3.3929e+01	6.7956	49.545748	0.000527	5.269280	0.892640	0.000105
 343	3.4029e+01	6.8169	49.691085	0.000730	7.295926	1.235963	0.000146
 344	3.4129e+01	6.8349	49.804125	0.000567	5.674609	0.961305	0.000114
 345	3.4228e+01	6.8554	49.941388	0.000689	6.890596	1.167299	0.000138
 346	3.4328e+01	6.8754	50.098836	0.000790	7.903919	1.338960	0.000158
 347	3.4427e+01	6.8951	50.199764	0.000507	5.066615	0.858308	0.000101
 348	3.4526e+01	6.9158	50.369324	0.000851	8.511913	1.441957	0.000170
 349	3.4626e+01	6.9353	50.482364	0.000567	5.674609	0.961305	0.000114
 350	3.4725e+01	6.9543	50.623664	0.000709	7.093261	1.201631	0.000142
 351	3.4825e+01	6.9744	50.736703	0.000567	5.674609	0.961305	0.000114
 352	3.4925e+01	6.9939	50.898189	0.000811	8.106584	1.373293	0.000162
 353	3.5024e+01	7.0141	50.995080	0.000486	4.863950	0.823976	0.000097
 354	3.5123e+01	7.0348	51.116194	0.000608	6.079938	1.029969	0.000122
 355	3.5223e+01	7.0544	51.297865	0.000912	9.119907	1.544954	0.000183
 356	3.5322e+01	7.0736	51.451276	0.000770	7.701255	1.304628	0.000154
 357	3.5422e+01	7.0940	51.556242	0.000527	5.269280	0.892640	0.000105
 358	3.5522e+01	7.1142	51.681393	0.000628	6.282603	1.064302	0.000126
 359	3.5621e+01	7.1348	51.838841	0.000790	7.903919	1.338960	0.000158
 360	3.5721e+01	7.1545	51.996290	0.000790	7.903919	1.338960	0.000158
 361	3.5820e+01	7.1746	52.081070	0.000426	4.255957	0.720979	0.000085
 362	3.5919e+01	7.1947	52.242555	0.000811	8.106584	1.373293	0.000162
 363	3.6019e+01	7.2134	52.347521	0.000527	5.269280	0.892640	0.000105
 364	3.6118e+01	7.2338	52.492857	0.000730	7.295926	1.235963	0.000146
 365	3.6218e+01	7.2533	52.609934	0.000588	5.877273	0.995637	0.000118
 366	3.6318e+01	7.2738	52.747197	0.000689	6.890596	1.167299	0.000138
 367	3.6417e+01	7.2930	52.876385	0.000649	6.485267	1.098634	0.000130
 368	3.6517e+01	7.3136	53.049982	0.000871	8.714578	1.476289	0.000174
 369	3.6616e+01	7.3336	53.142836	0.000466	4.661286	0.789643	0.000093
 370	3.6715e+01	7.3547	53.340656	0.000993	9.930565	1.682283	0.000199
 371	3.6815e+01	7.3736	53.433510	0.000466	4.661286	0.789643	0.000093
 372	3.6914e+01	7.3907	53.558661	0.000628	6.282603	1.064302	0.000126
 373	3.7014e+01	7.4133	53.720147	0.000811	8.106584	1.373293	0.000162
 374	3.7114e+01	7.4334	53.845298	0.000628	6.282603	1.064302	0.000126
 375	3.7213e+01	7.4529	53.990635	0.000730	7.295926	1.235963	0.000146
 376	3.7313e+01	7.4731	54.095600	0.000527	5.269280	0.892640	0.000105
 377	3.7412e+01	7.4932	54.253049	0.000790	7.903919	1.338960	0.000158
 378	3.7511e+01	7.5127	54.390311	0.000689	6.890596	1.167299	0.000138
 379	3.7611e+01	7.5323	54.523537	0.000669	6.687932	1.132966	0.000134
 380	3.7711e+01	7.5521	54.640614	0.000588	5.877273	0.995637	0.000118
 381	3.7810e+01	7.5729	54.826322	0.000932	9.322572	1.579286	0.000187
 382	3.7910e+01	7.5925	54.923213	0.000486	4.863950	0.823976	0.000097
 383	3.8009e+01	7.6119	55.080661	0.000790	7.903919	1.338960	0.000158
 384	3.8108e+01	7.6324	55.185627	0.000527	5.269280	0.892640	0.000105
 385	3.8208e+01	7.6531	55.326927	0.000709	7.093261	1.201631	0.000142
 386	3.8307e+01	7.6727	55.468226	0.000709	7.093261	1.201631	0.000142
 387	3.8407e+01	7.6916	55.565118	0.000486	4.863950	0.823976	0.000097
 388	3.8507e+01	7.7120	55.746789	0.000912	9.119907	1.544954	0.000183
 389	3.8606e+01	7.7325	55.871940	0.000628	6.282603	1.064302	0.000126
 390	3.8706e+01	7.7514	56.001128	0.000649	6.485267	1.098634	0.000130
 391	3.8805e+01	7.7709	56.170688	0.000851	8.511913	1.441957	0.000170
 392	3.8904e+01	7.7917	56.263542	0.000466	4.661286	0.789643	0.000093
 393	3.9004e+01	7.8118	56.433102	0.000851	8.511913	1.441957	0.000170
 394	3.9103e+01	7.8320	56.550179	0.000588	5.877273	0.995637	0.000118
 395	3.9203e+01	7.8515	56.703590	0.000770	7.701255	1.304628	0.000154
 396	3.9303e+01	7.8722	56.812593	0.000547	5.471944	0.926972	0.000110
 397	3.9402e+01	7.8918	56.949855	0.000689	6.890596	1.167299	0.000138
 398	3.9502e+01	7.9113	57.139601	0.000953	9.525236	1.613619	0.000191
 399	3.9601e+01	7.9317	57.272826	0.000669	6.687932	1.132966	0.000134
 400	3.9700e+01	7.9516	57.406052	0.000669	6.687932	1.132966	0.000134
 401	3.9800e+01	7.9711	57.531203	0.000628	6.282603	1.064302	0.000126
 402	3.9900e+01	7.9906	57.660391	0.000649	6.485267	1.098634	0.000130
 403	3.9999e+01	8.0102	57.801691	0.000709	7.093261	1.201631	0.000142
 404	4.0099e+01	8.0303	57.947028	0.000730	7.295926	1.235963	0.000146
 405	4.0198e+01	8.0505	58.068142	0.000608	6.079938	1.029969	0.000122
 406	4.0297e+01	8.0712	58.249813	0.000912	9.119907	1.544954	0.000183
 407	4.0397e+01	8.0910	58.346704	0.000486	4.863950	0.823976	0.000097
 408	4.0496e+01	8.1109	58.500115	0.000770	7.701255	1.304628	0.000154
 409	4.0596e+01	8.1304	58.645452	0.000730	7.295926	1.235963	0.000146
 410	4.0696e+01	8.1506	58.770604	0.000628	6.282603	1.064302	0.000126
 411	4.0795e+01	8.1701	58.895755	0.000628	6.282603	1.064302	0.000126
 412	4.0895e+01	8.1907	59.069352	0.000871	8.714578	1.476289	0.000174
 413	4.0994e+01	8.2104	59.210651	0.000709	7.093261	1.201631	0.000142
 414	4.1093e+01	8.2305	59.347914	0.000689	6.890596	1.167299	0.000138
 415	4.1193e+01	8.2497	59.448842	0.000507	5.066615	0.858308	0.000101
 416	4.1292e+01	8.2702	59.630513	0.000912	9.119907	1.544954	0.000183
 417	4.1392e+01	8.2897	59.747590	0.000588	5.877273	0.995637	0.000118
 418	4.1492e+01	8.3099	59.905039	0.000790	7.903919	1.338960	0.000158
 419	4.1591e+01	8.3294	60.022116	0.000588	5.877273	0.995637	0.000118
 420	4.1691e+01	8.3501	60.143230	0.000608	6.079938	1.029969	0.000122
 421	4.1790e+01	8.3681	60.304715	0.000811	8.106584	1.373293	0.000162
 422	4.1889e+01	8.3892	60.441978	0.000689	6.890596	1.167299	0.000138
 423	4.1989e+01	8.4098	60.571166	0.000649	6.485267	1.098634	0.000130
 424	4.2089e+01	8.4295	60.716503	0.000730	7.295926	1.235963	0.000146
 425	4.2188e+01	8.4490	60.861840	0.000730	7.295926	1.235963	0.000146
 426	4.2288e+01	8.4692	61.011214	0.000750	7.498590	1.270296	0.000150
 427	4.2387e+01	8.4881	61.120217	0.000547	5.471944	0.926972	0.000110
 428	4.2486e+01	8.5088	61.318036	0.000993	9.930565	1.682283	0.000199
 429	4.2586e+01	8.5296	61.479522	0.000811	8.106584	1.373293	0.000162
 430	4.2685e+01	8.5491	61.636970	0.000790	7.903919	1.338960	0.000158
 431	4.2785e+01	8.5697	61.766158	0.000649	6.485267	1.098634	0.000130
 432	4.2885e+01	8.5882	61.903421	0.000689	6.890596	1.167299	0.000138
 433	4.2984e+01	8.6083	62.097203	0.000973	9.727901	1.647951	0.000195
 434	4.3084e+01	8.6280	62.258689	0.000811	8.106584	1.373293	0.000162
 435	4.3183e+01	8.6480	62.404026	0.000730	7.295926	1.235963	0.000146
 436	4.3282e+01	8.6675	62.553400	0.000750	7.498590	1.270296	0.000150
 437	4.3382e+01	8.6883	62.698737	0.000730	7.295926	1.235963	0.000146
 438	4.3481e+01	8.7090	62.908668	0.001054	10.538559	1.785280	0.000211
 439	4.3581e+01	8.7286	63.078227	0.000851	8.511913	1.441957	0.000170
 440	4.3681e+01	8.7487	63.235676	0.000790	7.903919	1.338960	0.000158
 441	4.3780e+01	8.7682	63.389087	0.000770	7.701255	1.304628	0.000154
 442	4.3880e+01	8.7884	63.554609	0.000831	8.309249	1.407625	0.000166
 443	4.3979e+01	8.8049	63.764540	0.001054	10.538559	1.785280	0.000211
 444	4.4078e+01	8.8284	63.913914	0.000750	7.498590	1.270296	0.000150
 445	4.4178e+01	8.8467	64.115771	0.001013	10.133230	1.716616	0.000203
 446	4.4278e+01	8.8659	64.281294	0.000831	8.309249	1.407625	0.000166
 447	4.4377e+01	8.8860	64.402408	0.000608	6.079938	1.029969	0.000122
 448	4.4477e+01	8.9068	64.612339	0.001054	10.538559	1.785280	0.000211
 449	4.4576e+01	8.9263	64.802084	0.000953	9.525236	1.613619	0.000191
 450	4.4675e+01	8.9452	64.939347	0.000689	6.890596	1.167299	0.000138
 451	4.4775e+01	8.9660	65.125055	0.000932	9.322572	1.579286	0.000187
 452	4.4874e+01	8.9861	65.310763	0.000932	9.322572	1.579286	0.000187
 453	4.4974e+01	9.0063	65.520694	0.001054	10.538559	1.785280	0.000211
 454	4.5074e+01	9.0264	65.710440	0.000953	9.525236	1.613619	0.000191
 455	4.5173e+01	9.0459	65.884037	0.000871	8.714578	1.476289	0.000174
 456	4.5273e+01	9.0658	66.098005	0.001074	10.741224	1.819613	0.000215
 457	4.5372e+01	9.0862	66.255453	0.000790	7.903919	1.338960	0.000158
 458	4.5471e+01	9.1058	66.461347	0.001034	10.335895	1.750948	0.000207
 459	4.5571e+01	9.1253	66.630907	0.000851	8.511913	1.441957	0.000170
 460	4.5670e+01	9.1467	66.877172	0.001236	12.362541	2.094271	0.000248
 461	4.5770e+01	9.1653	67.014435	0.000689	6.890596	1.167299	0.000138
 462	4.5870e+01	9.1851	67.183994	0.000851	8.511913	1.441957	0.000170
 463	4.5969e+01	9.2065	67.410074	0.001135	11.349218	1.922610	0.000227
 464	4.6069e+01	9.2260	67.567522	0.000790	7.903919	1.338960	0.000158
 465	4.6168e+01	9.2464	67.793602	0.001135	11.349218	1.922610	0.000227
 466	4.6267e+01	9.2648	67.967199	0.000871	8.714578	1.476289	0.000174
 467	4.6367e+01	9.2852	68.201353	0.001175	11.754547	1.991274	0.000235
 468	4.6467e+01	9.3044	68.370912	0.000851	8.511913	1.441957	0.000170
 469	4.6566e+01	9.3249	68.520286	0.000750	7.498590	1.270296	0.000150
 470	4.6666e+01	9.3455	68.750403	0.001155	11.551882	1.956942	0.000231
 471	4.6765e+01	9.3645	68.960334	0.001054	10.538559	1.785280	0.000211
 472	4.6864e+01	9.3847	69.166228	0.001034	10.335895	1.750948	0.000207
 473	4.6964e+01	9.4036	69.319639	0.000770	7.701255	1.304628	0.000154
 474	4.7063e+01	9.4250	69.529570	0.001054	10.538559	1.785280	0.000211
 475	4.7163e+01	9.4451	69.719316	0.000953	9.525236	1.613619	0.000191
 476	4.7263e+01	9.4640	69.989804	0.001358	13.578528	2.300265	0.000272
 477	4.7362e+01	9.4848	70.143215	0.000770	7.701255	1.304628	0.000154
 478	4.7462e+01	9.5043	70.361220	0.001094	10.943888	1.853945	0.000219
 479	4.7561e+01	9.5245	70.611523	0.001257	12.565205	2.128603	0.000252
 480	4.7660e+01	9.5440	70.805305	0.000973	9.727901	1.647951	0.000195
 481	4.7760e+01	9.5635	70.991013	0.000932	9.322572	1.579286	0.000187
 482	4.7859e+01	9.5843	71.253427	0.001317	13.173199	2.231600	0.000264
 483	4.7959e+01	9.6032	71.414913	0.000811	8.106584	1.373293	0.000162
 484	4.8059e+01	9.6239	71.620807	0.001034	10.335895	1.750948	0.000207
 485	4.8158e+01	9.6441	71.838812	0.001094	10.943888	1.853945	0.000219
 486	4.8258e+01	9.6636	72.072966	0.001175	11.754547	1.991274	0.000235
 487	4.8357e+01	9.6841	72.319231	0.001236	12.362541	2.094271	0.000248
 488	4.8456e+01	9.7036	72.537236	0.001094	10.943888	1.853945	0.000219
 489	4.8556e+01	9.7234	72.718907	0.000912	9.119907	1.544954	0.000183
 490	4.8656e+01	9.7436	73.001507	0.001419	14.186522	2.403262	0.000284
 491	4.8755e+01	9.7631	73.167030	0.000831	8.309249	1.407625	0.000166
 492	4.8855e+01	9.7826	73.425406	0.001297	12.970534	2.197268	0.000260
 493	4.8954e+01	9.8034	73.599003	0.000871	8.714578	1.476289	0.000174
 494	4.9053e+01	9.8229	73.829120	0.001155	11.551882	1.956942	0.000231
 495	4.9153e+01	9.8418	74.063274	0.001175	11.754547	1.991274	0.000235
 496	4.9252e+01	9.8626	74.297428	0.001175	11.754547	1.991274	0.000235
 497	4.9352e+01	9.8827	74.511396	0.001074	10.741224	1.819613	0.000215
 498	4.9452e+01	9.9023	74.721327	0.001054	10.538559	1.785280	0.000211
 499	4.9551e+01	9.9224	74.935295	0.001074	10.741224	1.819613	0.000215
 500	4.9651e+01	9.9416	75.173486	0.001196	11.957211	2.025606	0.000239
 501	4.9750e+01	9.9621	75.411677	0.001196	11.957211	2.025606	0.000239
 502	4.9849e+01	9.9828	75.609497	0.000993	9.930565	1.682283	0.000199
 503	4.9949e+01	9.9999	75.884022	0.001378	13.781193	2.334597	0.000276
 504	5.0048e+01	9.9810	75.964765	-0.000405	-4.053292	-0.686646	0.000081
 505	5.0148e+01	9.9633	76.041470	-0.000385	-3.850627	-0.652314	0.000077
 506	5.0248e+01	9.9416	76.118176	-0.000385	-3.850627	-0.652314	0.000077
 507	5.0347e+01	9.9224	76.166621	-0.000243	-2.431975	-0.411988	0.000049
 508	5.0447e+01	9.9035	76.247364	-0.000405	-4.053292	-0.686646	0.000081
 509	5.0546e+01	9.8821	76.307921	-0.000304	-3.039969	-0.514985	0.000061
 510	5.0645e+01	9.8626	76.360404	-0.000263	-2.634640	-0.446320	0.000053
 511	5.0745e+01	9.8437	76.412887	-0.000263	-2.634640	-0.446320	0.000053
 512	5.0844e+01	9.8223	76.477481	-0.000324	-3.242634	-0.549317	0.000065
 513	5.0944e+01	9.8028	76.546112	-0.000345	-3.445298	-0.583649	0.000069
 514	5.1044e+01	9.7820	76.659152	-0.000567	-5.674609	-0.961305	0.000114
 515	5.1143e+01	9.7631	76.679338	-0.000101	-1.013323	-0.171662	0.000020
 516	5.1242e+01	9.7424	76.735858	-0.000284	-2.837304	-0.480652	0.000057
 517	5.1342e+01	9.7228	76.824675	-0.000446	-4.458621	-0.755311	0.000089
 518	5.1441e+01	9.7033	76.844860	-0.000101	-1.013323	-0.171662	0.000020
 519	5.1541e+01	9.6832	76.941751	-0.000486	-4.863950	-0.823976	0.000097
 520	5.1641e+01	9.6636	76.978086	-0.000182	-1.823981	-0.308991	0.000037
 521	5.1740e+01	9.6441	77.018457	-0.000203	-2.026646	-0.343323	0.000041
 522	5.1840e+01	9.6227	77.087088	-0.000345	-3.445298	-0.583649	0.000069
 523	5.1939e+01	9.6044	77.123423	-0.000182	-1.823981	-0.308991	0.000037
 524	5.2038e+01	9.5846	77.183980	-0.000304	-3.039969	-0.514985	0.000061
 525	5.2138e+01	9.5638	77.256648	-0.000365	-3.647963	-0.617982	0.000073
 526	5.2237e+01	9.5440	77.292982	-0.000182	-1.823981	-0.308991	0.000037
 527	5.2337e+01	9.5242	77.361614	-0.000345	-3.445298	-0.583649	0.000069
 528	5.2437e+01	9.5043	77.361614	-0.000000	-0.000000	-0.000000	0.000000
 529	5.2536e+01	9.4842	77.430245	-0.000345	-3.445298	-0.583649	0.000069
 530	5.2636e+01	9.4634	77.462542	-0.000162	-1.621317	-0.274659	0.000032
 531	5.2735e+01	9.4439	77.515025	-0.000263	-2.634640	-0.446320	0.000053
 532	5.2834e+01	9.4247	77.579619	-0.000324	-3.242634	-0.549317	0.000065
 533	5.2934e+01	9.4048	77.595767	-0.000081	-0.810658	-0.137329	0.000016
 534	5.3033e+01	9.3853	77.628065	-0.000162	-1.621317	-0.274659	0.000032
 535	5.3133e+01	9.3639	77.712844	-0.000426	-4.255957	-0.720979	0.000085
 536	5.3233e+01	9.3432	77.720919	-0.000041	-0.405329	-0.068665	0.000008
 537	5.3332e+01	9.3249	77.797624	-0.000385	-3.850627	-0.652314	0.000077
 538	5.3431e+01	9.3060	77.842033	-0.000223	-2.229311	-0.377655	0.000045
 539	5.3531e+01	9.2870	77.914701	-0.000365	-3.647963	-0.617982	0.000073
 540	5.3630e+01	9.2651	77.951035	-0.000182	-1.823981	-0.308991	0.000037
 541	5.3730e+01	9.2449	77.959110	-0.000041	-0.405329	-0.068665	0.000008
 542	5.3830e+01	9.2242	78.003518	-0.000223	-2.229311	-0.377655	0.000045
 543	5.3929e+01	9.2059	78.027741	-0.000122	-1.215988	-0.205994	0.000024
 544	5.4029e+01	9.1851	78.039852	-0.000061	-0.607994	-0.102997	0.000012
 545	5.4128e+01	9.1644	78.108484	-0.000345	-3.445298	-0.583649	0.000069
 546	5.4227e+01	9.1467	78.136744	-0.000142	-1.418652	-0.240326	0.000028
 547	5.4327e+01	9.1253	78.132707	0.000020	0.202665	0.034332	-0.000004
 548	5.4426e+01	9.1064	78.169041	-0.000182	-1.823981	-0.308991	0.000037
 549	5.4526e+01	9.0856	78.205375	-0.000182	-1.823981	-0.308991	0.000037
 550	5.4626e+01	9.0649	78.201338	0.000020	0.202665	0.034332	-0.000004
 551	5.4725e+01	9.0466	78.253821	-0.000263	-2.634640	-0.446320	0.000053
 552	5.4825e+01	9.0258	78.302266	-0.000243	-2.431975	-0.411988	0.000049
 553	5.4924e+01	9.0063	78.318415	-0.000081	-0.810658	-0.137329	0.000016
 554	5.5023e+01	8.9855	78.314378	0.000020	0.202665	0.034332	-0.000004
 555	5.5123e+01	8.9663	78.362823	-0.000243	-2.431975	-0.411988	0.000049
 556	5.5222e+01	8.9465	78.391083	-0.000142	-1.418652	-0.240326	0.000028
 557	5.5322e+01	8.9263	78.370898	0.000101	1.013323	0.171662	-0.000020
 558	5.5422e+01	8.9068	78.411269	-0.000203	-2.026646	-0.343323	0.000041
 559	5.5521e+01	8.8866	78.443566	-0.000162	-1.621317	-0.274659	0.000032
 560	5.5620e+01	8.8668	78.439529	0.000020	0.202665	0.034332	-0.000004
 561	5.5720e+01	8.8464	78.467789	-0.000142	-1.418652	-0.240326	0.000028
 562	5.5819e+01	8.8287	78.463752	0.000020	0.202665	0.034332	-0.000004
 563	5.5919e+01	8.8078	78.483937	-0.000101	-1.013323	-0.171662	0.000020
 564	5.6019e+01	8.7872	78.492012	-0.000041	-0.405329	-0.068665	0.000008
 565	5.6118e+01	8.7685	78.528346	-0.000182	-1.823981	-0.308991	0.000037
 566	5.6218e+01	8.7481	78.516234	0.000061	0.607994	0.102997	-0.000012
 567	5.6317e+01	8.7292	78.528346	-0.000061	-0.607994	-0.102997	0.000012
 568	5.6416e+01	8.7078	78.552569	-0.000122	-1.215988	-0.205994	0.000024
 569	5.6516e+01	8.6871	78.568717	-0.000081	-0.810658	-0.137329	0.000016
 570	5.6615e+01	8.6669	78.564680	0.000020	0.202665	0.034332	-0.000004
 571	5.6715e+01	8.6480	78.588903	-0.000122	-1.215988	-0.205994	0.000024
 572	5.6815e+01	8.6285	78.609089	-0.000101	-1.013323	-0.171662	0.000020
 573	5.6914e+01	8.6080	78.584866	0.000122	1.215988	0.205994	-0.000024
 574	5.7014e+01	8.5876	78.625237	-0.000203	-2.026646	-0.343323	0.000041
 575	5.7113e+01	8.5686	78.613126	0.000061	0.607994	0.102997	-0.000012
 576	5.7212e+01	8.5491	78.609089	0.000020	0.202665	0.034332	-0.000004
 577	5.7312e+01	8.5290	78.621200	-0.000061	-0.607994	-0.102997	0.000012
 578	5.7411e+01	8.5079	78.592940	0.000142	1.418652	0.240326	-0.000028
 579	5.7511e+01	8.4887	78.592940	-0.000000	-0.000000	-0.000000	0.000000
 580	5.7611e+01	8.4686	78.572754	0.000101	1.013323	0.171662	-0.000020
 581	5.7710e+01	8.4493	78.592940	-0.000101	-1.013323	-0.171662	0.000020
 582	5.7809e+01	8.4283	78.560643	0.000162	1.621317	0.274659	-0.000032
 583	5.7909e+01	8.4103	78.580829	-0.000101	-1.013323	-0.171662	0.000020
 584	5.8008e+01	8.3892	78.544494	0.000182	1.823981	0.308991	-0.000037
 585	5.8108e+01	8.3709	78.588903	-0.000223	-2.229311	-0.377655	0.000045
 586	5.8208e+01	8.3495	78.552569	0.000182	1.823981	0.308991	-0.000037
 587	5.8307e+01	8.3288	78.528346	0.000122	1.215988	0.205994	-0.000024
 588	5.8407e+01	8.3096	78.520272	0.000041	0.405329	0.068665	-0.000008
 589	5.8506e+01	8.2897	78.532383	-0.000061	-0.607994	-0.102997	0.000012
 590	5.8605e+01	8.2693	78.471826	0.000304	3.039969	0.514985	-0.000061
 591	5.8705e+01	8.2494	78.463752	0.000041	0.405329	0.068665	-0.000008
 592	5.8804e+01	8.2302	78.459715	0.000020	0.202665	0.034332	-0.000004
 593	5.8904e+01	8.2104	78.463752	-0.000020	-0.202665	-0.034332	0.000004
 594	5.9004e+01	8.1902	78.419343	0.000223	2.229311	0.377655	-0.000045
 595	5.9103e+01	8.1704	78.407232	0.000061	0.607994	0.102997	-0.000012
 596	5.9203e+01	8.1503	78.395120	0.000061	0.607994	0.102997	-0.000012
 597	5.9302e+01	8.1310	78.378972	0.000081	0.810658	0.137329	-0.000016
 598	5.9401e+01	8.1109	78.342638	0.000182	1.823981	0.308991	-0.000037
 599	5.9501e+01	8.0910	78.330526	0.000061	0.607994	0.102997	-0.000012
 600	5.9600e+01	8.0703	78.290155	0.000203	2.026646	0.343323	-0.000041
 601	5.9700e+01	8.0511	78.294192	-0.000020	-0.202665	-0.034332	0.000004
 602	5.9800e+01	8.0309	78.237672	0.000284	2.837304	0.480652	-0.000057
 603	5.9899e+01	8.0102	78.229598	0.000041	0.405329	0.068665	-0.000008
 604	5.9998e+01	7.9913	78.201338	0.000142	1.418652	0.240326	-0.000028
 605	6.0098e+01	7.9711	78.185189	0.000081	0.810658	0.137329	-0.000016
 606	6.0197e+01	7.9516	78.177115	0.000041	0.405329	0.068665	-0.000008
 607	6.0297e+01	7.9314	78.128669	0.000243	2.431975	0.411988	-0.000049
 608	6.0397e+01	7.9113	78.100409	0.000142	1.418652	0.240326	-0.000028
 609	6.0496e+01	7.8915	78.096372	0.000020	0.202665	0.034332	-0.000004
 610	6.0596e+01	7.8719	77.999481	0.000486	4.863950	0.823976	-0.000097
 611	6.0695e+01	7.8518	78.007555	-0.000041	-0.405329	-0.068665	0.000008
 612	6.0794e+01	7.8310	77.991407	0.000081	0.810658	0.137329	-0.000016
 613	6.0894e+01	7.8123	77.979295	0.000061	0.607994	0.102997	-0.000012
 614	6.0993e+01	7.7914	77.930850	0.000243	2.431975	0.411988	-0.000049
 615	6.1093e+01	7.7715	77.906627	0.000122	1.215988	0.205994	-0.000024
 616	6.1193e+01	7.7514	77.882404	0.000122	1.215988	0.205994	-0.000024
 617	6.1292e+01	7.7319	77.821847	0.000304	3.039969	0.514985	-0.000061
 618	6.1392e+01	7.7123	77.805699	0.000081	0.810658	0.137329	-0.000016
 619	6.1491e+01	7.6922	77.749179	0.000284	2.837304	0.480652	-0.000057
 620	6.1590e+01	7.6720	77.704770	0.000223	2.229311	0.377655	-0.000045
 621	6.1690e+01	7.6525	77.656324	0.000243	2.431975	0.411988	-0.000049
 622	6.1789e+01	7.6318	77.652287	0.000020	0.202665	0.034332	-0.000004
 623	6.1889e+01	7.6116	77.615953	0.000182	1.823981	0.308991	-0.000037
 624	6.1989e+01	7.5921	77.559433	0.000284	2.837304	0.480652	-0.000057
 625	6.2088e+01	7.5732	77.502913	0.000284	2.837304	0.480652	-0.000057
 626	6.2188e+01	7.5481	77.454468	0.000243	2.431975	0.411988	-0.000049
 627	6.2287e+01	7.5326	77.414096	0.000203	2.026646	0.343323	-0.000041
 628	6.2386e+01	7.5134	77.369688	0.000223	2.229311	0.377655	-0.000045
 629	6.2486e+01	7.4926	77.333354	0.000182	1.823981	0.308991	-0.000037
 630	6.2586e+01	7.4728	77.321242	0.000061	0.607994	0.102997	-0.000012
 631	6.2685e+01	7.4535	77.268759	0.000263	2.634640	0.446320	-0.000053
 632	6.2785e+01	7.4346	77.216277	0.000263	2.634640	0.446320	-0.000053
 633	6.2884e+01	7.4133	77.183980	0.000162	1.621317	0.274659	-0.000032
 634	6.2983e+01	7.3937	77.103237	0.000405	4.053292	0.686646	-0.000081
 635	6.3083e+01	7.3733	77.066903	0.000182	1.823981	0.308991	-0.000037
 636	6.3182e+01	7.3544	77.026531	0.000203	2.026646	0.343323	-0.000041
 637	6.3282e+01	7.3333	76.974049	0.000263	2.634640	0.446320	-0.000053
 638	6.3382e+01	7.3141	76.941751	0.000162	1.621317	0.274659	-0.000032
 639	6.3481e+01	7.2945	76.873120	0.000345	3.445298	0.583649	-0.000069
 640	6.3581e+01	7.2747	76.816600	0.000284	2.837304	0.480652	-0.000057
 641	6.3680e+01	7.2533	76.804489	0.000061	0.607994	0.102997	-0.000012
 642	6.3779e+01	7.2338	76.743932	0.000304	3.039969	0.514985	-0.000061
 643	6.3879e+01	7.2143	76.651078	0.000466	4.661286	0.789643	-0.000093
 644	6.3978e+01	7.1940	76.606669	0.000223	2.229311	0.377655	-0.000045
 645	6.4078e+01	7.1731	76.574372	0.000162	1.621317	0.274659	-0.000032
 646	6.4177e+01	7.1545	76.513815	0.000304	3.039969	0.514985	-0.000061
 647	6.4277e+01	7.1348	76.469407	0.000223	2.229311	0.377655	-0.000045
 648	6.4376e+01	7.1142	76.433072	0.000182	1.823981	0.308991	-0.000037
 649	6.4476e+01	7.0943	76.364441	0.000345	3.445298	0.583649	-0.000069
 650	6.4576e+01	7.0739	76.263513	0.000507	5.066615	0.858308	-0.000101
 651	6.4675e+01	7.0541	76.251401	0.000061	0.607994	0.102997	-0.000012
 652	6.4775e+01	7.0358	76.170659	0.000405	4.053292	0.686646	-0.000081
 653	6.4874e+01	7.0144	76.077804	0.000466	4.661286	0.789643	-0.000093
 654	6.4974e+01	6.9946	76.025322	0.000263	2.634640	0.446320	-0.000053
 655	6.5073e+01	6.9744	75.984950	0.000203	2.026646	0.343323	-0.000041
 656	6.5172e+01	6.9552	75.924393	0.000304	3.039969	0.514985	-0.000061
 657	6.5272e+01	6.9353	75.859799	0.000324	3.242634	0.549317	-0.000065
 658	6.5371e+01	6.9155	75.787131	0.000365	3.647963	0.617982	-0.000073
 659	6.5471e+01	6.8955	75.718499	0.000345	3.445298	0.583649	-0.000069
 660	6.5570e+01	6.8749	75.666017	0.000263	2.634640	0.446320	-0.000053
 661	6.5670e+01	6.8554	75.593348	0.000365	3.647963	0.617982	-0.000073
 662	6.5769e+01	6.8363	75.536828	0.000284	2.837304	0.480652	-0.000057
 663	6.5869e+01	6.8160	75.464160	0.000365	3.647963	0.617982	-0.000073
 664	6.5969e+01	6.7956	75.371306	0.000466	4.661286	0.789643	-0.000093
 665	6.6068e+01	6.7757	75.326897	0.000223	2.229311	0.377655	-0.000045
 666	6.6168e+01	6.7553	75.250192	0.000385	3.850627	0.652314	-0.000077
 667	6.6267e+01	6.7348	75.197709	0.000263	2.634640	0.446320	-0.000053
 668	6.6367e+01	6.7153	75.133115	0.000324	3.242634	0.549317	-0.000065
 669	6.6466e+01	6.6953	75.068520	0.000324	3.242634	0.549317	-0.000065
 670	6.6566e+01	6.6759	74.983741	0.000426	4.255957	0.720979	-0.000085
 671	6.6665e+01	6.6564	74.931258	0.000263	2.634640	0.446320	-0.000053
 672	6.6764e+01	6.6372	74.862627	0.000345	3.445298	0.583649	-0.000069
 673	6.6864e+01	6.6161	74.749587	0.000567	5.674609	0.961305	-0.000114
 674	6.6963e+01	6.5960	74.717290	0.000162	1.621317	0.274659	-0.000032
 675	6.7063e+01	6.5765	74.628473	0.000446	4.458621	0.755311	-0.000089
 676	6.7162e+01	6.5563	74.539656	0.000446	4.458621	0.755311	-0.000089
 677	6.7262e+01	6.5362	74.487173	0.000263	2.634640	0.446320	-0.000053
 678	6.7362e+01	6.5166	74.426616	0.000304	3.039969	0.514985	-0.000061
 679	6.7461e+01	6.4974	74.301465	0.000628	6.282603	1.064302	-0.000126
 680	6.7561e+01	6.4758	74.273205	0.000142	1.418652	0.240326	-0.000028
 681	6.7660e+01	6.4562	74.200536	0.000365	3.647963	0.617982	-0.000073
 682	6.7760e+01	6.4370	74.111719	0.000446	4.458621	0.755311	-0.000089
 683	6.7859e+01	6.4167	74.006754	0.000527	5.269280	0.892640	-0.000105
 684	6.7959e+01	6.3970	73.917937	0.000446	4.458621	0.755311	-0.000089
 685	6.8058e+01	6.3763	73.873528	0.000223	2.229311	0.377655	-0.000045
 686	6.8157e+01	6.3573	73.780674	0.000466	4.661286	0.789643	-0.000093
 687	6.8257e+01	6.3372	73.663597	0.000588	5.877273	0.995637	-0.000118
 688	6.8356e+01	6.3171	73.590929	0.000365	3.647963	0.617982	-0.000073
 689	6.8456e+01	6.2978	73.550557	0.000203	2.026646	0.343323	-0.000041
 690	6.8555e+01	6.2774	73.433481	0.000588	5.877273	0.995637	-0.000118
 691	6.8655e+01	6.2572	73.356775	0.000385	3.850627	0.652314	-0.000077
 692	6.8754e+01	6.2386	73.255847	0.000507	5.066615	0.858308	-0.000101
 693	6.8854e+01	6.2188	73.175104	0.000405	4.053292	0.686646	-0.000081
 694	6.8954e+01	6.1980	73.102435	0.000365	3.647963	0.617982	-0.000073
 695	6.9053e+01	6.1791	72.993433	0.000547	5.471944	0.926972	-0.000110
 696	6.9153e+01	6.1590	72.908653	0.000426	4.255957	0.720979	-0.000085
 697	6.9252e+01	6.1385	72.819836	0.000446	4.458621	0.755311	-0.000089
 698	6.9352e+01	6.1181	72.722945	0.000486	4.863950	0.823976	-0.000097
 699	6.9451e+01	6.0986	72.642202	0.000405	4.053292	0.686646	-0.000081
 700	6.9550e+01	6.0806	72.529162	0.000567	5.674609	0.961305	-0.000114
 701	6.9650e+01	6.0574	72.484754	0.000223	2.229311	0.377655	-0.000045
 702	6.9749e+01	6.0394	72.387862	0.000486	4.863950	0.823976	-0.000097
 703	6.9849e+01	6.0192	72.242525	0.000730	7.295926	1.235963	-0.000146
 704	6.9948e+01	5.9988	72.202154	0.000203	2.026646	0.343323	-0.000041
 705	7.0048e+01	5.9789	72.105263	0.000486	4.863950	0.823976	-0.000097
 706	7.0147e+01	5.9591	72.016446	0.000446	4.458621	0.755311	-0.000089
 707	7.0247e+01	5.9399	71.947815	0.000345	3.445298	0.583649	-0.000069
 708	7.0347e+01	5.9191	71.830738	0.000588	5.877273	0.995637	-0.000118
 709	7.0446e+01	5.8987	71.705586	0.000628	6.282603	1.064302	-0.000126
 710	7.0546e+01	5.8797	71.645029	0.000304	3.039969	0.514985	-0.000061
 711	7.0645e+01	5.8593	71.548138	0.000486	4.863950	0.823976	-0.000097
 712	7.0745e+01	5.8401	71.431061	0.000588	5.877273	0.995637	-0.000118
 713	7.0844e+01	5.8196	71.318021	0.000567	5.674609	0.961305	-0.000114
 714	7.0944e+01	5.7995	71.245353	0.000365	3.647963	0.617982	-0.000073
 715	7.1043e+01	5.7793	71.140387	0.000527	5.269280	0.892640	-0.000105
 716	7.1142e+01	5.7592	71.083868	0.000284	2.837304	0.480652	-0.000057
 717	7.1242e+01	5.7391	70.950642	0.000669	6.687932	1.132966	-0.000134
 718	7.1341e+01	5.7201	70.857788	0.000466	4.661286	0.789643	-0.000093
 719	7.1441e+01	5.7006	70.764934	0.000466	4.661286	0.789643	-0.000093
 720	7.1540e+01	5.6802	70.655931	0.000547	5.471944	0.926972	-0.000110
 721	7.1640e+01	5.6613	70.575188	0.000405	4.053292	0.686646	-0.000081
 722	7.1740e+01	5.6402	70.482334	0.000466	4.661286	0.789643	-0.000093
 723	7.1839e+01	5.6207	70.389480	0.000466	4.661286	0.789643	-0.000093
 724	7.1939e+01	5.5993	70.296626	0.000466	4.661286	0.789643	-0.000093
 725	7.2038e+01	5.5802	70.159363	0.000689	6.890596	1.167299	-0.000138
 726	7.2138e+01	5.5605	70.078621	0.000405	4.053292	0.686646	-0.000081
 727	7.2237e+01	5.5401	69.981729	0.000486	4.863950	0.823976	-0.000097
 728	7.2337e+01	5.5212	69.868690	0.000567	5.674609	0.961305	-0.000114
 729	7.2436e+01	5.4998	69.796021	0.000365	3.647963	0.617982	-0.000073
 730	7.2535e+01	5.4809	69.699130	0.000486	4.863950	0.823976	-0.000097
 731	7.2635e+01	5.4632	69.598202	0.000507	5.066615	0.858308	-0.000101
 732	7.2734e+01	5.4417	69.436716	0.000811	8.106584	1.373293	-0.000162
 733	7.2834e+01	5.4208	69.412493	0.000122	1.215988	0.205994	-0.000024
 734	7.2933e+01	5.4015	69.267156	0.000730	7.295926	1.235963	-0.000146
 735	7.3033e+01	5.3808	69.186414	0.000405	4.053292	0.686646	-0.000081
 736	7.3132e+01	5.3616	69.049151	0.000689	6.890596	1.167299	-0.000138
 737	7.3232e+01	5.3414	68.964371	0.000426	4.255957	0.720979	-0.000085
 738	7.3332e+01	5.3210	68.843257	0.000608	6.079938	1.029969	-0.000122
 739	7.3431e+01	5.3014	68.766552	0.000385	3.850627	0.652314	-0.000077
 740	7.3531e+01	5.2819	68.645438	0.000608	6.079938	1.029969	-0.000122
 741	7.3630e+01	5.2618	68.536435	0.000547	5.471944	0.926972	-0.000110
 742	7.3730e+01	5.2416	68.463766	0.000365	3.647963	0.617982	-0.000073
 743	7.3829e+01	5.2224	68.350727	0.000567	5.674609	0.961305	-0.000114
 744	7.3928e+01	5.2013	68.193278	0.000790	7.903919	1.338960	-0.000158
 745	7.4028e+01	5.1820	68.080239	0.000567	5.674609	0.961305	-0.000114
 746	7.4127e+01	5.1620	67.987384	0.000466	4.661286	0.789643	-0.000093
 747	7.4227e+01	5.1415	67.874345	0.000567	5.674609	0.961305	-0.000114
 748	7.4326e+01	5.1211	67.761305	0.000567	5.674609	0.961305	-0.000114
 749	7.4426e+01	5.1019	67.676525	0.000426	4.255957	0.720979	-0.000085
 750	7.4525e+01	5.0823	67.531188	0.000730	7.295926	1.235963	-0.000146
 751	7.4625e+01	5.0616	67.446408	0.000426	4.255957	0.720979	-0.000085
 752	7.4725e+01	5.0426	67.353554	0.000466	4.661286	0.789643	-0.000093
 753	7.4824e+01	5.0231	67.167846	0.000932	9.322572	1.579286	-0.000187
 754	7.4924e+01	5.0027	67.099215	0.000345	3.445298	0.583649	-0.000069
 755	7.5023e+01	4.9825	66.949841	0.000750	7.498590	1.270296	-0.000150
 756	7.5123e+01	4.9627	66.873135	0.000385	3.850627	0.652314	-0.000077
 757	7.5222e+01	4.9436	66.772207	0.000507	5.066615	0.858308	-0.000101
 758	7.5322e+01	4.9236	66.655130	0.000588	5.877273	0.995637	-0.000118
 759	7.5421e+01	4.9030	66.546127	0.000547	5.471944	0.926972	-0.000110
 760	7.5520e+01	4.8827	66.437124	0.000547	5.471944	0.926972	-0.000110
 761	7.5620e+01	4.8635	66.279676	0.000790	7.903919	1.338960	-0.000158
 762	7.5719e+01	4.8428	66.170673	0.000547	5.471944	0.926972	-0.000110
 763	7.5819e+01	4.8244	66.085893	0.000426	4.255957	0.720979	-0.000085
 764	7.5918e+01	4.8031	65.936519	0.000750	7.498590	1.270296	-0.000150
 765	7.6018e+01	4.7836	65.831554	0.000527	5.269280	0.892640	-0.000105
 766	7.6118e+01	4.7637	65.750811	0.000405	4.053292	0.686646	-0.000081
 767	7.6217e+01	4.7436	65.621623	0.000649	6.485267	1.098634	-0.000130
 768	7.6317e+01	4.7240	65.496472	0.000628	6.282603	1.064302	-0.000126
 769	7.6416e+01	4.7033	65.395543	0.000507	5.066615	0.858308	-0.000101
 770	7.6516e+01	4.6844	65.250206	0.000730	7.295926	1.235963	-0.000146
 771	7.6615e+01	4.6642	65.137167	0.000567	5.674609	0.961305	-0.000114
 772	7.6715e+01	4.6444	65.056424	0.000405	4.053292	0.686646	-0.000081
 773	7.6814e+01	4.6233	64.935310	0.000608	6.079938	1.029969	-0.000122
 774	7.6913e+01	4.6050	64.834381	0.000507	5.066615	0.858308	-0.000101
 775	7.7013e+01	4.5843	64.685007	0.000750	7.498590	1.270296	-0.000150
 776	7.7112e+01	4.5635	64.592153	0.000466	4.661286	0.789643	-0.000093
 777	7.7212e+01	4.5454	64.422594	0.000851	8.511913	1.441957	-0.000170
 778	7.7311e+01	4.5245	64.305517	0.000588	5.877273	0.995637	-0.000118
 779	7.7411e+01	4.5043	64.240922	0.000324	3.242634	0.549317	-0.000065
 780	7.7510e+01	4.4845	64.099623	0.000709	7.093261	1.201631	-0.000142
 781	7.7610e+01	4.4645	63.994657	0.000527	5.269280	0.892640	-0.000105
 782	7.7710e+01	4.4448	63.881617	0.000567	5.674609	0.961305	-0.000114
 783	7.7809e+01	4.4238	63.776652	0.000527	5.269280	0.892640	-0.000105
 784	7.7909e+01	4.4048	63.671686	0.000527	5.269280	0.892640	-0.000105
 785	7.8008e+01	4.3851	63.538461	0.000669	6.687932	1.132966	-0.000134
 786	7.8108e+01	4.3655	63.389087	0.000750	7.498590	1.270296	-0.000150
 787	7.8207e+01	4.3450	63.259898	0.000649	6.485267	1.098634	-0.000130
 788	7.8306e+01	4.3241	63.138784	0.000608	6.079938	1.029969	-0.000122
 789	7.8406e+01	4.3056	63.017670	0.000608	6.079938	1.029969	-0.000122
 790	7.8505e+01	4.2855	62.888482	0.000649	6.485267	1.098634	-0.000130
 791	7.8605e+01	4.2660	62.771405	0.000588	5.877273	0.995637	-0.000118
 792	7.8704e+01	4.2455	62.662402	0.000547	5.471944	0.926972	-0.000110
 793	7.8804e+01	4.2254	62.553400	0.000547	5.471944	0.926972	-0.000110
 794	7.8903e+01	4.2059	62.420174	0.000669	6.687932	1.132966	-0.000134
 795	7.9003e+01	4.1851	62.323283	0.000486	4.863950	0.823976	-0.000097
 796	7.9103e+01	4.1656	62.149686	0.000871	8.714578	1.476289	-0.000174
 797	7.9202e+01	4.1459	62.056832	0.000466	4.661286	0.789643	-0.000093
 798	7.9302e+01	4.1253	61.943792	0.000567	5.674609	0.961305	-0.000114
 799	7.9401e+01	4.1064	61.806530	0.000689	6.890596	1.167299	-0.000138
 800	7.9501e+01	4.0845	61.669267	0.000689	6.890596	1.167299	-0.000138
 801	7.9600e+01	4.0661	61.544116	0.000628	6.282603	1.064302	-0.000126
 802	7.9700e+01	4.0459	61.427039	0.000588	5.877273	0.995637	-0.000118
 803	7.9799e+01	4.0262	61.305925	0.000608	6.079938	1.029969	-0.000122
 804	7.9898e+01	4.0064	61.180774	0.000628	6.282603	1.064302	-0.000126
 805	7.9998e+01	3.9855	61.091957	0.000446	4.458621	0.755311	-0.000089
 806	8.0097e+01	3.9669	60.938545	0.000770	7.701255	1.304628	-0.000154
 807	8.0197e+01	3.9458	60.785134	0.000770	7.701255	1.304628	-0.000154
 808	8.0296e+01	3.9266	60.651909	0.000669	6.687932	1.132966	-0.000134
 809	8.0396e+01	3.9074	60.510609	0.000709	7.093261	1.201631	-0.000142
 810	8.0496e+01	3.8863	60.409681	0.000507	5.066615	0.858308	-0.000101
 811	8.0595e+01	3.8665	60.264344	0.000730	7.295926	1.235963	-0.000146
 812	8.0695e+01	3.8464	60.135155	0.000649	6.485267	1.098634	-0.000130
 813	8.0794e+01	3.8264	60.018078	0.000588	5.877273	0.995637	-0.000118
 814	8.0894e+01	3.8067	59.880816	0.000689	6.890596	1.167299	-0.000138
 815	8.0993e+01	3.7868	59.755665	0.000628	6.282603	1.064302	-0.000126
 816	8.1093e+01	3.7676	59.642625	0.000567	5.674609	0.961305	-0.000114
 817	8.1192e+01	3.7469	59.493251	0.000750	7.498590	1.270296	-0.000150
 818	8.1291e+01	3.7280	59.355988	0.000689	6.890596	1.167299	-0.000138
 819	8.1391e+01	3.7075	59.255060	0.000507	5.066615	0.858308	-0.000101
 820	8.1490e+01	3.6880	59.101649	0.000770	7.701255	1.304628	-0.000154
 821	8.1590e+01	3.6685	59.008795	0.000466	4.661286	0.789643	-0.000093
 822	8.1689e+01	3.6486	58.851346	0.000790	7.903919	1.338960	-0.000158
 823	8.1789e+01	3.6272	58.734269	0.000588	5.877273	0.995637	-0.000118
 824	8.1888e+01	3.6076	58.592970	0.000709	7.093261	1.201631	-0.000142
 825	8.1988e+01	3.5869	58.471855	0.000608	6.079938	1.029969	-0.000122
 826	8.2088e+01	3.5668	58.334593	0.000689	6.890596	1.167299	-0.000138
 827	8.2187e+01	3.5484	58.181182	0.000770	7.701255	1.304628	-0.000154
 828	8.2287e+01	3.5278	58.096402	0.000426	4.255957	0.720979	-0.000085
 829	8.2386e+01	3.5073	57.914731	0.000912	9.119907	1.544954	-0.000183
 830	8.2486e+01	3.4884	57.797654	0.000588	5.877273	0.995637	-0.000118
 831	8.2585e+01	3.4679	57.700763	0.000486	4.863950	0.823976	-0.000097
 832	8.2684e+01	3.4490	57.527166	0.000871	8.714578	1.476289	-0.000174
 833	8.2784e+01	3.4292	57.410089	0.000588	5.877273	0.995637	-0.000118
 834	8.2883e+01	3.4081	57.268789	0.000709	7.093261	1.201631	-0.000142
 835	8.2983e+01	3.3889	57.127489	0.000709	7.093261	1.201631	-0.000142
 836	8.3082e+01	3.3685	56.974078	0.000770	7.701255	1.304628	-0.000154
 837	8.3182e+01	3.3486	56.901410	0.000365	3.647963	0.617982	-0.000073
 838	8.3281e+01	3.3285	56.747999	0.000770	7.701255	1.304628	-0.000154
 839	8.3381e+01	3.3086	56.614773	0.000669	6.687932	1.132966	-0.000134
 840	8.3481e+01	3.2891	56.465399	0.000750	7.498590	1.270296	-0.000150
 841	8.3580e+01	3.2696	56.332174	0.000669	6.687932	1.132966	-0.000134
 842	8.3680e+01	3.2494	56.190874	0.000709	7.093261	1.201631	-0.000142
 843	8.3779e+01	3.2287	56.073797	0.000588	5.877273	0.995637	-0.000118
 844	8.3879e+01	3.2085	55.928460	0.000730	7.295926	1.235963	-0.000146
 845	8.3978e+01	3.1887	55.779086	0.000750	7.498590	1.270296	-0.000150
 846	8.4078e+01	3.1692	55.657972	0.000608	6.079938	1.029969	-0.000122
 847	8.4177e+01	3.1503	55.508598	0.000750	7.498590	1.270296	-0.000150
 848	8.4276e+01	3.1287	55.355187	0.000770	7.701255	1.304628	-0.000154
 849	8.4376e+01	3.1097	55.250221	0.000527	5.269280	0.892640	-0.000105
 850	8.4475e+01	3.0889	55.088736	0.000811	8.106584	1.373293	-0.000162
 851	8.4575e+01	3.0694	54.951473	0.000689	6.890596	1.167299	-0.000138
 852	8.4674e+01	3.0499	54.802099	0.000750	7.498590	1.270296	-0.000150
 853	8.4774e+01	3.0299	54.693096	0.000547	5.471944	0.926972	-0.000110
 854	8.4874e+01	3.0100	54.539685	0.000770	7.701255	1.304628	-0.000154
 855	8.4973e+01	2.9903	54.406460	0.000669	6.687932	1.132966	-0.000134
 856	8.5073e+01	2.9694	54.240937	0.000831	8.309249	1.407625	-0.000166
 857	8.5172e+01	2.9491	54.099637	0.000709	7.093261	1.201631	-0.000142
 858	8.5272e+01	2.9302	53.926041	0.000871	8.714578	1.476289	-0.000174
 859	8.5371e+01	2.9101	53.804927	0.000608	6.079938	1.029969	-0.000122
 860	8.5471e+01	2.8899	53.695924	0.000547	5.471944	0.926972	-0.000110
 861	8.5570e+01	2.8719	53.522327	0.000871	8.714578	1.476289	-0.000174
 862	8.5669e+01	2.8497	53.360842	0.000811	8.106584	1.373293	-0.000162
 863	8.5769e+01	2.8295	53.223579	0.000689	6.890596	1.167299	-0.000138
 864	8.5868e+01	2.8097	53.098428	0.000628	6.282603	1.064302	-0.000126
 865	8.5968e+01	2.7909	52.949054	0.000750	7.498590	1.270296	-0.000150
 866	8.6067e+01	2.7706	52.815828	0.000669	6.687932	1.132966	-0.000134
 867	8.6167e+01	2.7496	52.666454	0.000750	7.498590	1.270296	-0.000150
 868	8.6266e+01	2.7312	52.517080	0.000750	7.498590	1.270296	-0.000150
 869	8.6366e+01	2.7110	52.347521	0.000851	8.511913	1.441957	-0.000170
 870	8.6466e+01	2.6913	52.226406	0.000608	6.079938	1.029969	-0.000122
 871	8.6565e+01	2.6717	52.089144	0.000689	6.890596	1.167299	-0.000138
 872	8.6665e+01	2.6513	51.959956	0.000649	6.485267	1.098634	-0.000130
 873	8.6764e+01	2.6309	51.794433	0.000831	8.309249	1.407625	-0.000166
 874	8.6864e+01	2.6112	51.653133	0.000709	7.093261	1.201631	-0.000142
 875	8.6963e+01	2.5907	51.519908	0.000669	6.687932	1.132966	-0.000134
 876	8.7063e+01	2.5712	51.358422	0.000811	8.106584	1.373293	-0.000162
 877	8.7162e+01	2.5511	51.209048	0.000750	7.498590	1.270296	-0.000150
 878	8.7261e+01	2.5317	51.055637	0.000770	7.701255	1.304628	-0.000154
 879	8.7361e+01	2.5121	50.902226	0.000770	7.701255	1.304628	-0.000154
 880	8.7460e+01	2.4919	50.756889	0.000730	7.295926	1.235963	-0.000146
 881	8.7560e+01	2.4723	50.591367	0.000831	8.309249	1.407625	-0.000166
 882	8.7659e+01	2.4520	50.478327	0.000567	5.674609	0.961305	-0.000114
 883	8.7759e+01	2.4323	50.328953	0.000750	7.498590	1.270296	-0.000150
 884	8.7859e+01	2.4114	50.195727	0.000669	6.687932	1.132966	-0.000134
 885	8.7958e+01	2.3924	50.022130	0.000871	8.714578	1.476289	-0.000174
 886	8.8058e+01	2.3721	49.888905	0.000669	6.687932	1.132966	-0.000134
 887	8.8157e+01	2.3525	49.767791	0.000608	6.079938	1.029969	-0.000122
 888	8.8257e+01	2.3321	49.602268	0.000831	8.309249	1.407625	-0.000166
 889	8.8356e+01	2.3119	49.460968	0.000709	7.093261	1.201631	-0.000142
 890	8.8456e+01	2.2921	49.323706	0.000689	6.890596	1.167299	-0.000138
 891	8.8555e+01	2.2723	49.150109	0.000871	8.714578	1.476289	-0.000174
 892	8.8654e+01	2.2527	49.008809	0.000709	7.093261	1.201631	-0.000142
 893	8.8754e+01	2.2324	48.887695	0.000608	6.079938	1.029969	-0.000122
 894	8.8853e+01	2.2126	48.722173	0.000831	8.309249	1.407625	-0.000166
 895	8.8953e+01	2.1933	48.552613	0.000851	8.511913	1.441957	-0.000170
 896	8.9052e+01	2.1726	48.435536	0.000588	5.877273	0.995637	-0.000118
 897	8.9152e+01	2.1537	48.278088	0.000790	7.903919	1.338960	-0.000158
 898	8.9251e+01	2.1325	48.104491	0.000871	8.714578	1.476289	-0.000174
 899	8.9351e+01	2.1135	47.975303	0.000649	6.485267	1.098634	-0.000130
 900	8.9451e+01	2.0935	47.817854	0.000790	7.903919	1.338960	-0.000158
 901	8.9550e+01	2.0736	47.660406	0.000790	7.903919	1.338960	-0.000158
 902	8.9650e+01	2.0541	47.515069	0.000730	7.295926	1.235963	-0.000146
 903	8.9749e+01	2.0335	47.365695	0.000750	7.498590	1.270296	-0.000150
 904	8.9849e+01	2.0132	47.260730	0.000527	5.269280	0.892640	-0.000105
 905	8.9948e+01	1.9930	47.075021	0.000932	9.322572	1.579286	-0.000187
 906	9.0047e+01	1.9738	46.913536	0.000811	8.106584	1.373293	-0.000162
 907	9.0147e+01	1.9533	46.739939	0.000871	8.714578	1.476289	-0.000174
 908	9.0246e+01	1.9338	46.622862	0.000588	5.877273	0.995637	-0.000118
 909	9.0346e+01	1.9137	46.469451	0.000770	7.701255	1.304628	-0.000154
 910	9.0445e+01	1.8934	46.303928	0.000831	8.309249	1.407625	-0.000166
 911	9.0545e+01	1.8745	46.182814	0.000608	6.079938	1.029969	-0.000122
 912	9.0644e+01	1.8535	45.972883	0.001054	10.538559	1.785280	-0.000211
 913	9.0744e+01	1.8348	45.827546	0.000730	7.295926	1.235963	-0.000146
 914	9.0844e+01	1.8139	45.686247	0.000709	7.093261	1.201631	-0.000142
 915	9.0943e+01	1.7933	45.500538	0.000932	9.322572	1.579286	-0.000187
 916	9.1043e+01	1.7742	45.363276	0.000689	6.890596	1.167299	-0.000138
 917	9.1142e+01	1.7550	45.197753	0.000831	8.309249	1.407625	-0.000166
 918	9.1242e+01	1.7346	45.064528	0.000669	6.687932	1.132966	-0.000134
 919	9.1341e+01	1.7142	44.939376	0.000628	6.282603	1.064302	-0.000126
 920	9.1441e+01	1.6943	44.781928	0.000790	7.903919	1.338960	-0.000158
 921	9.1540e+01	1.6747	44.612368	0.000851	8.511913	1.441957	-0.000170
 922	9.1639e+01	1.6549	44.426660	0.000932	9.322572	1.579286	-0.000187
 923	9.1739e+01	1.6351	44.281323	0.000730	7.295926	1.235963	-0.000146
 924	9.1838e+01	1.6149	44.115801	0.000831	8.309249	1.407625	-0.000166
 925	9.1938e+01	1.5954	44.014872	0.000507	5.066615	0.858308	-0.000101
 926	9.2037e+01	1.5749	43.837238	0.000892	8.917242	1.510622	-0.000179
 927	9.2137e+01	1.5552	43.683827	0.000770	7.701255	1.304628	-0.000154
 928	9.2237e+01	1.5347	43.538490	0.000730	7.295926	1.235963	-0.000146
 929	9.2336e+01	1.5150	43.364894	0.000871	8.714578	1.476289	-0.000174
 930	9.2436e+01	1.4944	43.199371	0.000831	8.309249	1.407625	-0.000166
 931	9.2535e+01	1.4745	43.058071	0.000709	7.093261	1.201631	-0.000142
 932	9.2635e+01	1.4561	42.928883	0.000649	6.485267	1.098634	-0.000130
 933	9.2734e+01	1.4355	42.722989	0.001034	10.335895	1.750948	-0.000207
 934	9.2834e+01	1.4154	42.597838	0.000628	6.282603	1.064302	-0.000126
 935	9.2933e+01	1.3952	42.428278	0.000851	8.511913	1.441957	-0.000170
 936	9.3032e+01	1.3754	42.291015	0.000689	6.890596	1.167299	-0.000138
 937	9.3132e+01	1.3555	42.169901	0.000608	6.079938	1.029969	-0.000122
 938	9.3231e+01	1.3358	41.988230	0.000912	9.119907	1.544954	-0.000183
 939	9.3331e+01	1.3152	41.818671	0.000851	8.511913	1.441957	-0.000170
 940	9.3430e+01	1.2962	41.645074	0.000871	8.714578	1.476289	-0.000174
 941	9.3530e+01	1.2754	41.503774	0.000709	7.093261	1.201631	-0.000142
 942	9.3629e+01	1.2560	41.362474	0.000709	7.093261	1.201631	-0.000142
 943	9.3729e+01	1.2367	41.196952	0.000831	8.309249	1.407625	-0.000166
 944	9.3829e+01	1.2174	41.035466	0.000811	8.106584	1.373293	-0.000162
 945	9.3928e+01	1.1967	40.918389	0.000588	5.877273	0.995637	-0.000118
 946	9.4028e+01	1.1765	40.781127	0.000689	6.890596	1.167299	-0.000138
 947	9.4127e+01	1.1575	40.591381	0.000953	9.525236	1.613619	-0.000191
 948	9.4227e+01	1.1375	40.429896	0.000811	8.106584	1.373293	-0.000162
 949	9.4326e+01	1.1179	40.292633	0.000689	6.890596	1.167299	-0.000138
 950	9.4425e+01	1.0976	40.110962	0.000912	9.119907	1.544954	-0.000183
 951	9.4525e+01	1.0772	39.981774	0.000649	6.485267	1.098634	-0.000130
 952	9.4624e+01	1.0575	39.812214	0.000851	8.511913	1.441957	-0.000170
 953	9.4724e+01	1.0373	39.687063	0.000628	6.282603	1.064302	-0.000126
 954	9.4823e+01	1.0177	39.497317	0.000953	9.525236	1.613619	-0.000191
 955	9.4923e+01	0.9978	39.335832	0.000811	8.106584	1.373293	-0.000162
 956	9.5022e+01	0.9789	39.206644	0.000649	6.485267	1.098634	-0.000130
 957	9.5122e+01	0.9583	39.029010	0.000892	8.917242	1.510622	-0.000179
 958	9.5222e+01	0.9364	38.879636	0.000750	7.498590	1.270296	-0.000150
 959	9.5321e+01	0.9187	38.754485	0.000628	6.282603	1.064302	-0.000126
 960	9.5421e+01	0.8983	38.560702	0.000973	9.727901	1.647951	-0.000195
 961	9.5520e+01	0.8781	38.391142	0.000851	8.511913	1.441957	-0.000170
 962	9.5620e+01	0.8580	38.245805	0.000730	7.295926	1.235963	-0.000146
 963	9.5719e+01	0.8379	38.084320	0.000811	8.106584	1.373293	-0.000162
 964	9.5819e+01	0.8179	37.918797	0.000831	8.309249	1.407625	-0.000166
 965	9.5918e+01	0.7977	37.781535	0.000689	6.890596	1.167299	-0.000138
 966	9.6017e+01	0.7780	37.599864	0.000912	9.119907	1.544954	-0.000183
 967	9.6117e+01	0.7592	37.470675	0.000649	6.485267	1.098634	-0.000130
 968	9.6216e+01	0.7382	37.276893	0.000973	9.727901	1.647951	-0.000195
 969	9.6316e+01	0.7182	37.111370	0.000831	8.309249	1.407625	-0.000166
 970	9.6415e+01	0.6980	36.941811	0.000851	8.511913	1.441957	-0.000170
 971	9.6515e+01	0.6797	36.776288	0.000831	8.309249	1.407625	-0.000166
 972	9.6615e+01	0.6584	36.630951	0.000730	7.295926	1.235963	-0.000146
 973	9.6714e+01	0.6396	36.453317	0.000892	8.917242	1.510622	-0.000179
 974	9.6814e+01	0.6184	36.324129	0.000649	6.485267	1.098634	-0.000130
 975	9.6913e+01	0.6004	36.118235	0.001034	10.335895	1.750948	-0.000207
 976	9.7013e+01	0.5784	35.989047	0.000649	6.485267	1.098634	-0.000130
 977	9.7112e+01	0.5584	35.827561	0.000811	8.106584	1.373293	-0.000162
 978	9.7212e+01	0.5390	35.649927	0.000892	8.917242	1.510622	-0.000179
 979	9.7311e+01	0.5190	35.508627	0.000709	7.093261	1.201631	-0.000142
 980	9.7410e+01	0.4994	35.330993	0.000892	8.917242	1.510622	-0.000179
 981	9.7510e+01	0.4791	35.161434	0.000851	8.511913	1.441957	-0.000170
 982	9.7609e+01	0.4592	35.003985	0.000790	7.903919	1.338960	-0.000158
 983	9.7709e+01	0.4398	34.842500	0.000811	8.106584	1.373293	-0.000162
 984	9.7808e+01	0.4186	34.685052	0.000790	7.903919	1.338960	-0.000158
 985	9.7908e+01	0.3994	34.523566	0.000811	8.106584	1.373293	-0.000162
 986	9.8007e+01	0.3796	34.345932	0.000892	8.917242	1.510622	-0.000179
 987	9.8107e+01	0.3600	34.204633	0.000709	7.093261	1.201631	-0.000142
 988	9.8207e+01	0.3401	34.018924	0.000932	9.322572	1.579286	-0.000187
 989	9.8306e+01	0.3194	33.861476	0.000790	7.903919	1.338960	-0.000158
 990	9.8406e+01	0.2996	33.683842	0.000892	8.917242	1.510622	-0.000179
 991	9.8505e+01	0.2798	33.506208	0.000892	8.917242	1.510622	-0.000179
 992	9.8605e+01	0.2605	33.381057	0.000628	6.282603	1.064302	-0.000126
 993	9.8704e+01	0.2394	33.219571	0.000811	8.106584	1.373293	-0.000162
 994	9.8803e+01	0.2199	33.050012	0.000851	8.511913	1.441957	-0.000170
 995	9.8903e+01	0.1994	32.876415	0.000871	8.714578	1.476289	-0.000174
 996	9.9002e+01	0.1799	32.718967	0.000790	7.903919	1.338960	-0.000158
 997	9.9102e+01	0.1604	32.537295	0.000912	9.119907	1.544954	-0.000183
 998	9.9201e+01	0.1402	32.404070	0.000669	6.687932	1.132966	-0.000134
 999	9.9301e+01	0.1209	32.202213	0.001013	10.133230	1.716616	-0.000203
1000	9.9400e+01	0.0999	32.077062	0.000628	6.282603	1.064302	-0.000126
1001	9.9500e+01	0.0803	31.891354	0.000932	9.322572	1.579286	-0.000187
1002	9.9600e+01	0.0610	31.725831	0.000831	8.309249	1.407625	-0.000166
1003	9.9699e+01	0.0399	31.560309	0.000831	8.309249	1.407625	-0.000166
1004	9.9799e+01	0.0207	31.390749	0.000851	8.511913	1.441957	-0.000170
1005	9.9898e+01	0.0008	31.221189	0.000851	8.511913	1.441957	-0.000170
1006	9.9998e+01	-0.0166	31.124298	0.000486	4.863950	0.823976	-0.000097
1007	1.0010e+02	-0.0372	30.914367	0.001054	10.538559	1.785280	-0.000211
1008	1.0020e+02	-0.0571	30.773067	0.000709	7.093261	1.201631	-0.000142
1009	1.0030e+02	-0.0764	30.583322	0.000953	9.525236	1.613619	-0.000191
1010	1.0040e+02	-0.0969	30.413762	0.000851	8.511913	1.441957	-0.000170
1011	1.0050e+02	-0.1161	30.280537	0.000669	6.687932	1.132966	-0.000134
1012	1.0059e+02	-0.1369	30.131163	0.000750	7.498590	1.270296	-0.000150
1013	1.0069e+02	-0.1568	29.953529	0.000892	8.917242	1.510622	-0.000179
1014	1.0079e+02	-0.1767	29.759746	0.000973	9.727901	1.647951	-0.000195
1015	1.0089e+02	-0.1971	29.586149	0.000871	8.714578	1.476289	-0.000174
1016	1.0099e+02	-0.2162	29.420627	0.000831	8.309249	1.407625	-0.000166
1017	1.0109e+02	-0.2368	29.259141	0.000811	8.106584	1.373293	-0.000162
1018	1.0119e+02	-0.2570	29.109767	0.000750	7.498590	1.270296	-0.000150
1019	1.0129e+02	-0.2761	28.928096	0.000912	9.119907	1.544954	-0.000183
1020	1.0139e+02	-0.2969	28.758536	0.000851	8.511913	1.441957	-0.000170
1021	1.0149e+02	-0.3174	28.580902	0.000892	8.917242	1.510622	-0.000179
1022	1.0159e+02	-0.3354	28.387120	0.000973	9.727901	1.647951	-0.000195
1023	1.0169e+02	-0.3561	28.282154	0.000527	5.269280	0.892640	-0.000105
1024	1.0179e+02	-0.3762	28.076260	0.001034	10.335895	1.750948	-0.000207
1025	1.0189e+02	-0.3963	27.894589	0.000912	9.119907	1.544954	-0.000183
1026	1.0199e+02	-0.4154	27.737141	0.000790	7.903919	1.338960	-0.000158
1027	1.0209e+02	-0.4350	27.547396	0.000953	9.525236	1.613619	-0.000191
1028	1.0219e+02	-0.4563	27.393985	0.000770	7.701255	1.304628	-0.000154
1029	1.0229e+02	-0.4760	27.224425	0.000851	8.511913	1.441957	-0.000170
1030	1.0239e+02	-0.4958	27.071014	0.000770	7.701255	1.304628	-0.000154
1031	1.0248e+02	-0.5153	26.885305	0.000932	9.322572	1.579286	-0.000187
1032	1.0258e+02	-0.5361	26.703634	0.000912	9.119907	1.544954	-0.000183
1033	1.0268e+02	-0.5554	26.558297	0.000730	7.295926	1.235963	-0.000146
1034	1.0278e+02	-0.5757	26.360478	0.000993	9.930565	1.682283	-0.000199
1035	1.0288e+02	-0.5954	26.194955	0.000831	8.309249	1.407625	-0.000166
1036	1.0298e+02	-0.6153	26.033470	0.000811	8.106584	1.373293	-0.000162
1037	1.0308e+02	-0.6354	25.839687	0.000973	9.727901	1.647951	-0.000195
1038	1.0318e+02	-0.6559	25.666090	0.000871	8.714578	1.476289	-0.000174
1039	1.0328e+02	-0.6754	25.488456	0.000892	8.917242	1.510622	-0.000179
1040	1.0338e+02	-0.6949	25.367342	0.000608	6.079938	1.029969	-0.000122
1041	1.0348e+02	-0.7159	25.169523	0.000993	9.930565	1.682283	-0.000199
1042	1.0358e+02	-0.7349	25.028223	0.000709	7.093261	1.201631	-0.000142
1043	1.0368e+02	-0.7552	24.798106	0.001155	11.551882	1.956942	-0.000231
1044	1.0378e+02	-0.7747	24.681029	0.000588	5.877273	0.995637	-0.000118
1045	1.0388e+02	-0.7948	24.467061	0.001074	10.741224	1.819613	-0.000215
1046	1.0398e+02	-0.8145	24.321724	0.000730	7.295926	1.235963	-0.000146
1047	1.0408e+02	-0.8344	24.115830	0.001034	10.335895	1.750948	-0.000207
1048	1.0418e+02	-0.8550	23.934159	0.000912	9.119907	1.544954	-0.000183
1049	1.0428e+02	-0.8745	23.821119	0.000567	5.674609	0.961305	-0.000114
1050	1.0438e+02	-0.8940	23.655597	0.000831	8.309249	1.407625	-0.000166
1051	1.0447e+02	-0.9151	23.465851	0.000953	9.525236	1.613619	-0.000191
1052	1.0457e+02	-0.9341	23.308403	0.000790	7.903919	1.338960	-0.000158
1053	1.0467e+02	-0.9550	23.138843	0.000851	8.511913	1.441957	-0.000170
1054	1.0477e+02	-0.9743	22.920838	0.001094	10.943888	1.853945	-0.000219
1055	1.0487e+02	-0.9940	22.747241	0.000871	8.714578	1.476289	-0.000174
1056	1.0497e+02	-1.0136	22.601904	0.000730	7.295926	1.235963	-0.000146
1057	1.0507e+02	-1.0292	22.448493	0.000770	7.701255	1.304628	-0.000154
1058	1.0517e+02	-1.0544	22.246636	0.001013	10.133230	1.716616	-0.000203
1059	1.0527e+02	-1.0739	22.101300	0.000730	7.295926	1.235963	-0.000146
1060	1.0537e+02	-1.0934	21.943851	0.000790	7.903919	1.338960	-0.000158
1061	1.0547e+02	-1.1139	21.746032	0.000993	9.930565	1.682283	-0.000199
1062	1.0557e+02	-1.1340	21.600695	0.000730	7.295926	1.235963	-0.000146
1063	1.0567e+02	-1.1528	21.423061	0.000892	8.917242	1.510622	-0.000179
1064	1.0577e+02	-1.1735	21.237353	0.000932	9.322572	1.579286	-0.000187
1065	1.0587e+02	-1.1934	21.075867	0.000811	8.106584	1.373293	-0.000162
1066	1.0597e+02	-1.2138	20.902270	0.000871	8.714578	1.476289	-0.000174
1067	1.0607e+02	-1.2334	20.712525	0.000953	9.525236	1.613619	-0.000191
1068	1.0617e+02	-1.2530	20.555077	0.000790	7.903919	1.338960	-0.000158
1069	1.0627e+02	-1.2726	20.397628	0.000790	7.903919	1.338960	-0.000158
1070	1.0637e+02	-1.2932	20.228069	0.000851	8.511913	1.441957	-0.000170
1071	1.0647e+02	-1.3123	20.066583	0.000811	8.106584	1.373293	-0.000162
1072	1.0656e+02	-1.3319	19.880875	0.000932	9.322572	1.579286	-0.000187
1073	1.0666e+02	-1.3519	19.691130	0.000953	9.525236	1.613619	-0.000191
1074	1.0676e+02	-1.3727	19.533681	0.000790	7.903919	1.338960	-0.000158
1075	1.0686e+02	-1.3924	19.388344	0.000730	7.295926	1.235963	-0.000146
1076	1.0696e+02	-1.4130	19.190525	0.000993	9.930565	1.682283	-0.000199
1077	1.0706e+02	-1.4328	19.041151	0.000750	7.498590	1.270296	-0.000150
1078	1.0716e+02	-1.4519	18.859480	0.000912	9.119907	1.544954	-0.000183
1079	1.0726e+02	-1.4722	18.693957	0.000831	8.309249	1.407625	-0.000166
1080	1.0736e+02	-1.4917	18.516323	0.000892	8.917242	1.510622	-0.000179
1081	1.0746e+02	-1.5123	18.358875	0.000790	7.903919	1.338960	-0.000158
1082	1.0756e+02	-1.5325	18.173167	0.000932	9.322572	1.579286	-0.000187
1083	1.0766e+02	-1.5515	18.007644	0.000831	8.309249	1.407625	-0.000166
1084	1.0776e+02	-1.5719	17.842121	0.000831	8.309249	1.407625	-0.000166
1085	1.0786e+02	-1.5915	17.672562	0.000851	8.511913	1.441957	-0.000170
1086	1.0796e+02	-1.6122	17.494928	0.000892	8.917242	1.510622	-0.000179
1087	1.0806e+02	-1.6318	17.329405	0.000831	8.309249	1.407625	-0.000166
1088	1.0816e+02	-1.6519	17.196180	0.000669	6.687932	1.132966	-0.000134
1089	1.0826e+02	-1.6718	16.949914	0.001236	12.362541	2.094271	-0.000248
1090	1.0836e+02	-1.6913	16.816689	0.000669	6.687932	1.132966	-0.000134
1091	1.0845e+02	-1.7103	16.606758	0.001054	10.538559	1.785280	-0.000211
1092	1.0855e+02	-1.7319	16.477570	0.000649	6.485267	1.098634	-0.000130
1093	1.0865e+02	-1.7508	16.271676	0.001034	10.335895	1.750948	-0.000207
1094	1.0875e+02	-1.7707	16.102116	0.000851	8.511913	1.441957	-0.000170
1095	1.0885e+02	-1.7908	15.952742	0.000750	7.498590	1.270296	-0.000150
1096	1.0895e+02	-1.8110	15.771071	0.000912	9.119907	1.544954	-0.000183
1097	1.0905e+02	-1.8304	15.645920	0.000628	6.282603	1.064302	-0.000126
1098	1.0915e+02	-1.8511	15.448100	0.000993	9.930565	1.682283	-0.000199
1099	1.0925e+02	-1.8713	15.258355	0.000953	9.525236	1.613619	-0.000191
1100	1.0935e+02	-1.8906	15.088795	0.000851	8.511913	1.441957	-0.000170
1101	1.0945e+02	-1.9112	14.935384	0.000770	7.701255	1.304628	-0.000154
1102	1.0955e+02	-1.9307	14.781973	0.000770	7.701255	1.304628	-0.000154
1103	1.0965e+02	-1.9507	14.604339	0.000892	8.917242	1.510622	-0.000179
1104	1.0975e+02	-1.9705	14.442853	0.000811	8.106584	1.373293	-0.000162
1105	1.0985e+02	-1.9897	14.265219	0.000892	8.917242	1.510622	-0.000179
1106	1.0995e+02	-2.0108	14.087585	0.000892	8.917242	1.510622	-0.000179
1107	1.1005e+02	-2.0297	13.938211	0.000750	7.498590	1.270296	-0.000150
1108	1.1015e+02	-2.0512	13.784800	0.000770	7.701255	1.304628	-0.000154
1109	1.1025e+02	-2.0709	13.607166	0.000892	8.917242	1.510622	-0.000179
1110	1.1035e+02	-2.0889	13.449718	0.000790	7.903919	1.338960	-0.000158
1111	1.1044e+02	-2.1092	13.239787	0.001054	10.538559	1.785280	-0.000211
1112	1.1054e+02	-2.1297	13.130784	0.000547	5.471944	0.926972	-0.000110
1113	1.1064e+02	-2.1503	12.932964	0.000993	9.930565	1.682283	-0.000199
1114	1.1074e+02	-2.1704	12.783590	0.000750	7.498590	1.270296	-0.000150
1115	1.1084e+02	-2.1906	12.581734	0.001013	10.133230	1.716616	-0.000203
1116	1.1094e+02	-2.2131	12.436397	0.000730	7.295926	1.235963	-0.000146
1117	1.1104e+02	-2.2292	12.274911	0.000811	8.106584	1.373293	-0.000162
1118	1.1114e+02	-2.2491	12.089203	0.000932	9.322572	1.579286	-0.000187
1119	1.1124e+02	-2.2697	11.927718	0.000811	8.106584	1.373293	-0.000162
1120	1.1134e+02	-2.2899	11.818715	0.000547	5.471944	0.926972	-0.000110
1121	1.1144e+02	-2.3096	11.608784	0.001054	10.538559	1.785280	-0.000211
1122	1.1154e+02	-2.3285	11.415001	0.000973	9.727901	1.647951	-0.000195
1123	1.1164e+02	-2.3499	11.265627	0.000750	7.498590	1.270296	-0.000150
1124	1.1174e+02	-2.3691	11.124328	0.000709	7.093261	1.201631	-0.000142
1125	1.1184e+02	-2.3896	10.938619	0.000932	9.322572	1.579286	-0.000187
1126	1.1194e+02	-2.4091	10.756948	0.000912	9.119907	1.544954	-0.000183
1127	1.1204e+02	-2.4302	10.627760	0.000649	6.485267	1.098634	-0.000130
1128	1.1214e+02	-2.4492	10.433977	0.000973	9.727901	1.647951	-0.000195
1129	1.1224e+02	-2.4699	10.244232	0.000953	9.525236	1.613619	-0.000191
1130	1.1234e+02	-2.4886	10.102932	0.000709	7.093261	1.201631	-0.000142
1131	1.1244e+02	-2.5092	9.961632	0.000709	7.093261	1.201631	-0.000142
1132	1.1253e+02	-2.5275	9.763813	0.000993	9.930565	1.682283	-0.000199
1133	1.1263e+02	-2.5482	9.598290	0.000831	8.309249	1.407625	-0.000166
1134	1.1273e+02	-2.5677	9.440842	0.000790	7.903919	1.338960	-0.000158
1135	1.1283e+02	-2.5879	9.295505	0.000730	7.295926	1.235963	-0.000146
1136	1.1293e+02	-2.6077	9.105760	0.000953	9.525236	1.613619	-0.000191
1137	1.1303e+02	-2.6279	8.940237	0.000831	8.309249	1.407625	-0.000166
1138	1.1313e+02	-2.6497	8.778752	0.000811	8.106584	1.373293	-0.000162
1139	1.1323e+02	-2.6675	8.617266	0.000811	8.106584	1.373293	-0.000162
1140	1.1333e+02	-2.6874	8.484041	0.000669	6.687932	1.132966	-0.000134
1141	1.1343e+02	-2.7072	8.306407	0.000892	8.917242	1.510622	-0.000179
1142	1.1353e+02	-2.7275	8.108587	0.000993	9.930565	1.682283	-0.000199
1143	1.1363e+02	-2.7467	7.934990	0.000871	8.714578	1.476289	-0.000174
1144	1.1373e+02	-2.7686	7.773505	0.000811	8.106584	1.373293	-0.000162
1145	1.1383e+02	-2.7867	7.664502	0.000547	5.471944	0.926972	-0.000110
1146	1.1393e+02	-2.8072	7.458608	0.001034	10.335895	1.750948	-0.000207
1147	1.1403e+02	-2.8265	7.305197	0.000770	7.701255	1.304628	-0.000154
1148	1.1413e+02	-2.8467	7.127563	0.000892	8.917242	1.510622	-0.000179
1149	1.1423e+02	-2.8682	6.953966	0.000871	8.714578	1.476289	-0.000174
1150	1.1433e+02	-2.8874	6.800555	0.000770	7.701255	1.304628	-0.000154
1151	1.1442e+02	-2.9065	6.655218	0.000730	7.295926	1.235963	-0.000146
1152	1.1452e+02	-2.9275	6.485659	0.000851	8.511913	1.441957	-0.000170
1153	1.1462e+02	-2.9463	6.320136	0.000831	8.309249	1.407625	-0.000166
1154	1.1472e+02	-2.9663	6.158651	0.000811	8.106584	1.373293	-0.000162
1155	1.1482e+02	-2.9861	5.952757	0.001034	10.335895	1.750948	-0.000207
1156	1.1492e+02	-3.0072	5.815494	0.000689	6.890596	1.167299	-0.000138
1157	1.1502e+02	-3.0260	5.690343	0.000628	6.282603	1.064302	-0.000126
1158	1.1512e+02	-3.0460	5.504635	0.000932	9.322572	1.579286	-0.000187
1159	1.1522e+02	-3.0664	5.339112	0.000831	8.309249	1.407625	-0.000166
1160	1.1532e+02	-3.0859	5.141292	0.000993	9.930565	1.682283	-0.000199
1161	1.1542e+02	-3.1070	5.004030	0.000689	6.890596	1.167299	-0.000138
1162	1.1552e+02	-3.1268	4.814284	0.000953	9.525236	1.613619	-0.000191
1163	1.1562e+02	-3.1461	4.693170	0.000608	6.079938	1.029969	-0.000122
1164	1.1572e+02	-3.1660	4.491314	0.001013	10.133230	1.716616	-0.000203
1165	1.1582e+02	-3.1860	4.394422	0.000486	4.863950	0.823976	-0.000097
1166	1.1592e+02	-3.2051	4.212751	0.000912	9.119907	1.544954	-0.000183
1167	1.1602e+02	-3.2262	4.006857	0.001034	10.335895	1.750948	-0.000207
1168	1.1612e+02	-3.2458	3.869595	0.000689	6.890596	1.167299	-0.000138
1169	1.1622e+02	-3.2651	3.708109	0.000811	8.106584	1.373293	-0.000162
1170	1.1632e+02	-3.2849	3.522401	0.000932	9.322572	1.579286	-0.000187
1171	1.1642e+02	-3.3057	3.377064	0.000730	7.295926	1.235963	-0.000146
1172	1.1651e+02	-3.3252	3.247876	0.000649	6.485267	1.098634	-0.000130
1173	1.1661e+02	-3.3453	3.029870	0.001094	10.943888	1.853945	-0.000219
1174	1.1671e+02	-3.3652	2.840125	0.000953	9.525236	1.613619	-0.000191
1175	1.1681e+02	-3.3855	2.702862	0.000689	6.890596	1.167299	-0.000138
1176	1.1691e+02	-3.4056	2.545414	0.000790	7.903919	1.338960	-0.000158
1177	1.1701e+02	-3.4265	2.379892	0.000831	8.309249	1.407625	-0.000166
1178	1.1711e+02	-3.4454	2.214369	0.000831	8.309249	1.407625	-0.000166
1179	1.1721e+02	-3.4651	2.048846	0.000831	8.309249	1.407625	-0.000166
1180	1.1731e+02	-3.4853	1.911584	0.000689	6.890596	1.167299	-0.000138
1181	1.1741e+02	-3.5049	1.750098	0.000811	8.106584	1.373293	-0.000162
1182	1.1751e+02	-3.5251	1.600724	0.000750	7.498590	1.270296	-0.000150
1183	1.1761e+02	-3.5443	1.423090	0.000892	8.917242	1.510622	-0.000179
1184	1.1771e+02	-3.5645	1.261605	0.000811	8.106584	1.373293	-0.000162
1185	1.1781e+02	-3.5844	1.112231	0.000750	7.498590	1.270296	-0.000150
1186	1.1791e+02	-3.6047	0.910374	0.001013	10.133230	1.716616	-0.000203
1187	1.1801e+02	-3.6248	0.777149	0.000669	6.687932	1.132966	-0.000134
1188	1.1811e+02	-3.6449	0.591440	0.000932	9.322572	1.579286	-0.000187
1189	1.1821e+02	-3.6652	0.433992	0.000790	7.903919	1.338960	-0.000158
1190	1.1831e+02	-3.6850	0.304804	0.000649	6.485267	1.098634	-0.000130
1191	1.1841e+02	-3.7038	0.086798	0.001094	10.943888	1.853945	-0.000219
1192	1.1850e+02	-3.7242	-0.090836	0.000892	8.917242	1.510622	-0.000179
1193	1.1860e+02	-3.7439	-0.244247	0.000770	7.701255	1.304628	-0.000154
1194	1.1870e+02	-3.7669	-0.389584	0.000730	7.295926	1.235963	-0.000146
1195	1.1880e+02	-3.7840	-0.538958	0.000750	7.498590	1.270296	-0.000150
1196	1.1890e+02	-3.8046	-0.728703	0.000953	9.525236	1.613619	-0.000191
1197	1.1900e+02	-3.8237	-0.910374	0.000912	9.119907	1.544954	-0.000183
1198	1.1910e+02	-3.8434	-1.075897	0.000831	8.309249	1.407625	-0.000166
1199	1.1920e+02	-3.8625	-1.221234	0.000730	7.295926	1.235963	-0.000146
1200	1.1930e+02	-3.8831	-1.406942	0.000932	9.322572	1.579286	-0.000187
1201	1.1940e+02	-3.9038	-1.548242	0.000709	7.093261	1.201631	-0.000142
1202	1.1950e+02	-3.9230	-1.713764	0.000831	8.309249	1.407625	-0.000166
1203	1.1960e+02	-3.9432	-1.891398	0.000892	8.917242	1.510622	-0.000179
1204	1.1970e+02	-3.9642	-2.069032	0.000892	8.917242	1.510622	-0.000179
1205	1.1980e+02	-3.9825	-2.214369	0.000730	7.295926	1.235963	-0.000146
1206	1.1990e+02	-4.0036	-2.408151	0.000973	9.727901	1.647951	-0.000195
1207	1.2000e+02	-4.0234	-2.521191	0.000567	5.674609	0.961305	-0.000114
1208	1.2010e+02	-4.0429	-2.747271	0.001135	11.349218	1.922610	-0.000227
1209	1.2020e+02	-4.0637	-2.884533	0.000689	6.890596	1.167299	-0.000138
1210	1.2030e+02	-4.0833	-3.029870	0.000730	7.295926	1.235963	-0.000146
1211	1.2039e+02	-4.1025	-3.227690	0.000993	9.930565	1.682283	-0.000199
1212	1.2049e+02	-4.1222	-3.409361	0.000912	9.119907	1.544954	-0.000183
1213	1.2059e+02	-4.1431	-3.546624	0.000689	6.890596	1.167299	-0.000138
1214	1.2069e+02	-4.1620	-3.687923	0.000709	7.093261	1.201631	-0.000142
1215	1.2079e+02	-4.1830	-3.841335	0.000770	7.701255	1.304628	-0.000154
1216	1.2089e+02	-4.2026	-4.043191	0.001013	10.133230	1.716616	-0.000203
1217	1.2099e+02	-4.2227	-4.216788	0.000871	8.714578	1.476289	-0.000174
1218	1.2109e+02	-4.2430	-4.370199	0.000770	7.701255	1.304628	-0.000154
1219	1.2119e+02	-4.2609	-4.491314	0.000608	6.079938	1.029969	-0.000122
1220	1.2129e+02	-4.2819	-4.721430	0.001155	11.551882	1.956942	-0.000231
1221	1.2139e+02	-4.3027	-4.882916	0.000811	8.106584	1.373293	-0.000162
1222	1.2149e+02	-4.3219	-5.012104	0.000649	6.485267	1.098634	-0.000130
1223	1.2159e+02	-4.3420	-5.197812	0.000932	9.322572	1.579286	-0.000187
1224	1.2169e+02	-4.3616	-5.331038	0.000669	6.687932	1.132966	-0.000134
1225	1.2179e+02	-4.3820	-5.500597	0.000851	8.511913	1.441957	-0.000170
1226	1.2189e+02	-4.4019	-5.666120	0.000831	8.309249	1.407625	-0.000166
1227	1.2199e+02	-4.4182	-5.811457	0.000730	7.295926	1.235963	-0.000146
1228	1.2209e+02	-4.4415	-6.009277	0.000993	9.930565	1.682283	-0.000199
1229	1.2219e+02	-4.4611	-6.134428	0.000628	6.282603	1.064302	-0.000126
1230	1.2229e+02	-4.4812	-6.344359	0.001054	10.538559	1.785280	-0.000211
1231	1.2239e+02	-4.5010	-6.485659	0.000709	7.093261	1.201631	-0.000142
1232	1.2248e+02	-4.5209	-6.643107	0.000790	7.903919	1.338960	-0.000158
1233	1.2258e+02	-4.5404	-6.808629	0.000831	8.309249	1.407625	-0.000166
1234	1.2268e+02	-4.5609	-6.978189	0.000851	8.511913	1.441957	-0.000170
1235	1.2278e+02	-4.5810	-7.123526	0.000730	7.295926	1.235963	-0.000146
1236	1.2288e+02	-4.6014	-7.317309	0.000973	9.727901	1.647951	-0.000195
1237	1.2298e+02	-4.6207	-7.478794	0.000811	8.106584	1.373293	-0.000162
1238	1.2308e+02	-4.6414	-7.640279	0.000811	8.106584	1.373293	-0.000162
1239	1.2318e+02	-4.6611	-7.793691	0.000770	7.701255	1.304628	-0.000154
1240	1.2328e+02	-4.6808	-7.951139	0.000790	7.903919	1.338960	-0.000158
1241	1.2338e+02	-4.7003	-8.084364	0.000669	6.687932	1.132966	-0.000134
1242	1.2348e+02	-4.7208	-8.274110	0.000953	9.525236	1.613619	-0.000191
1243	1.2358e+02	-4.7406	-8.447707	0.000871	8.714578	1.476289	-0.000174
1244	1.2368e+02	-4.7598	-8.589006	0.000709	7.093261	1.201631	-0.000142
1245	1.2378e+02	-4.7803	-8.774715	0.000932	9.322572	1.579286	-0.000187
1246	1.2388e+02	-4.7998	-8.968497	0.000973	9.727901	1.647951	-0.000195
1247	1.2398e+02	-4.8212	-9.093648	0.000628	6.282603	1.064302	-0.000126
1248	1.2408e+02	-4.8409	-9.299542	0.001034	10.335895	1.750948	-0.000207
1249	1.2418e+02	-4.8602	-9.416619	0.000588	5.877273	0.995637	-0.000118
1250	1.2428e+02	-4.8792	-9.626550	0.001054	10.538559	1.785280	-0.000211
1251	1.2438e+02	-4.9004	-9.755739	0.000649	6.485267	1.098634	-0.000130
1252	1.2447e+02	-4.9206	-9.909150	0.000770	7.701255	1.304628	-0.000154
1253	1.2457e+02	-4.9411	-10.086784	0.000892	8.917242	1.510622	-0.000179
1254	1.2467e+02	-4.9597	-10.256343	0.000851	8.511913	1.441957	-0.000170
1255	1.2477e+02	-4.9823	-10.429940	0.000871	8.714578	1.476289	-0.000174
1256	1.2487e+02	-5.0000	-10.583351	0.000770	7.701255	1.304628	-0.000154
1257	1.2497e+02	-5.0201	-10.765022	0.000912	9.119907	1.544954	-0.000183
1258	1.2507e+02	-5.0391	-10.930545	0.000831	8.309249	1.407625	-0.000166
1259	1.2517e+02	-5.0583	-11.104142	0.000871	8.714578	1.476289	-0.000174
1260	1.2527e+02	-5.0781	-11.261590	0.000790	7.903919	1.338960	-0.000158
1261	1.2537e+02	-5.0992	-11.443261	0.000912	9.119907	1.544954	-0.000183
1262	1.2547e+02	-5.1178	-11.576487	0.000669	6.687932	1.132966	-0.000134
1263	1.2557e+02	-5.1398	-11.717786	0.000709	7.093261	1.201631	-0.000142
1264	1.2567e+02	-5.1585	-11.951940	0.001175	11.754547	1.991274	-0.000235
1265	1.2577e+02	-5.1785	-12.101314	0.000750	7.498590	1.270296	-0.000150
1266	1.2587e+02	-5.1993	-12.238577	0.000689	6.890596	1.167299	-0.000138
1267	1.2597e+02	-5.2190	-12.424285	0.000932	9.322572	1.579286	-0.000187
1268	1.2607e+02	-5.2399	-12.569622	0.000730	7.295926	1.235963	-0.000146
1269	1.2617e+02	-5.2594	-12.714959	0.000730	7.295926	1.235963	-0.000146
1270	1.2627e+02	-5.2783	-12.912779	0.000993	9.930565	1.682283	-0.000199
1271	1.2636e+02	-5.2979	-13.025818	0.000567	5.674609	0.961305	-0.000114
1272	1.2646e+02	-5.3183	-13.255935	0.001155	11.551882	1.956942	-0.000231
1273	1.2656e+02	-5.3380	-13.417421	0.000811	8.106584	1.373293	-0.000162
1274	1.2666e+02	-5.3571	-13.586980	0.000851	8.511913	1.441957	-0.000170
1275	1.2676e+02	-5.3778	-13.748466	0.000811	8.106584	1.373293	-0.000162
1276	1.2686e+02	-5.3979	-13.889766	0.000709	7.093261	1.201631	-0.000142
1277	1.2696e+02	-5.4181	-14.071437	0.000912	9.119907	1.544954	-0.000183
1278	1.2706e+02	-5.4376	-14.212736	0.000709	7.093261	1.201631	-0.000142
1279	1.2716e+02	-5.4575	-14.414593	0.001013	10.133230	1.716616	-0.000203
1280	1.2726e+02	-5.4779	-14.551856	0.000689	6.890596	1.167299	-0.000138
1281	1.2736e+02	-5.4974	-14.757750	0.001034	10.335895	1.750948	-0.000207
1282	1.2746e+02	-5.5176	-14.899049	0.000709	7.093261	1.201631	-0.000142
1283	1.2756e+02	-5.5383	-15.068609	0.000851	8.511913	1.441957	-0.000170
1284	1.2766e+02	-5.5576	-15.234132	0.000831	8.309249	1.407625	-0.000166
1285	1.2776e+02	-5.5762	-15.407729	0.000871	8.714578	1.476289	-0.000174
1286	1.2786e+02	-5.5978	-15.520768	0.000567	5.674609	0.961305	-0.000114
1287	1.2796e+02	-5.6174	-15.706477	0.000932	9.322572	1.579286	-0.000187
1288	1.2806e+02	-5.6372	-15.896222	0.000953	9.525236	1.613619	-0.000191
1289	1.2816e+02	-5.6573	-16.033485	0.000689	6.890596	1.167299	-0.000138
1290	1.2826e+02	-5.6769	-16.207081	0.000871	8.714578	1.476289	-0.000174
1291	1.2835e+02	-5.6963	-16.384715	0.000892	8.917242	1.510622	-0.000179
1292	1.2845e+02	-5.7162	-16.558312	0.000871	8.714578	1.476289	-0.000174
1293	1.2855e+02	-5.7361	-16.731909	0.000871	8.714578	1.476289	-0.000174
1294	1.2865e+02	-5.7565	-16.877246	0.000730	7.295926	1.235963	-0.000146
1295	1.2875e+02	-5.7770	-17.058917	0.000912	9.119907	1.544954	-0.000183
1296	1.2885e+02	-5.7971	-17.252700	0.000973	9.727901	1.647951	-0.000195
1297	1.2895e+02	-5.8165	-17.389962	0.000689	6.890596	1.167299	-0.000138
1298	1.2905e+02	-5.8356	-17.555485	0.000831	8.309249	1.407625	-0.000166
1299	1.2915e+02	-5.8560	-17.777527	0.001115	11.146553	1.888277	-0.000223
1300	1.2925e+02	-5.8765	-17.898641	0.000608	6.079938	1.029969	-0.000122
1301	1.2935e+02	-5.8960	-18.092424	0.000973	9.727901	1.647951	-0.000195
1302	1.2945e+02	-5.9164	-18.278132	0.000932	9.322572	1.579286	-0.000187
1303	1.2955e+02	-5.9367	-18.415395	0.000689	6.890596	1.167299	-0.000138
1304	1.2965e+02	-5.9558	-18.605140	0.000953	9.525236	1.613619	-0.000191
1305	1.2975e+02	-5.9760	-18.758551	0.000770	7.701255	1.304628	-0.000154
1306	1.2985e+02	-5.9958	-18.940222	0.000912	9.119907	1.544954	-0.000183
1307	1.2995e+02	-6.0150	-19.134005	0.000973	9.727901	1.647951	-0.000195
1308	1.3005e+02	-6.0355	-19.287416	0.000770	7.701255	1.304628	-0.000154
1309	1.3015e+02	-6.0553	-19.477161	0.000953	9.525236	1.613619	-0.000191
1310	1.3025e+02	-6.0754	-19.638647	0.000811	8.106584	1.373293	-0.000162
1311	1.3034e+02	-6.0956	-19.796095	0.000790	7.903919	1.338960	-0.000158
1312	1.3044e+02	-6.1156	-19.953543	0.000790	7.903919	1.338960	-0.000158
1313	1.3054e+02	-6.1353	-20.151363	0.000993	9.930565	1.682283	-0.000199
1314	1.3064e+02	-6.1552	-20.312848	0.000811	8.106584	1.373293	-0.000162
1315	1.3074e+02	-6.1755	-20.490482	0.000892	8.917242	1.510622	-0.000179
1316	1.3084e+02	-6.1957	-20.656005	0.000831	8.309249	1.407625	-0.000166
1317	1.3094e+02	-6.2163	-20.869973	0.001074	10.741224	1.819613	-0.000215
1318	1.3104e+02	-6.2354	-21.039533	0.000851	8.511913	1.441957	-0.000170
1319	1.3114e+02	-6.2555	-21.217167	0.000892	8.917242	1.510622	-0.000179
1320	1.3124e+02	-6.2750	-21.382689	0.000831	8.309249	1.407625	-0.000166
1321	1.3134e+02	-6.2952	-21.580509	0.000993	9.930565	1.682283	-0.000199
1322	1.3144e+02	-6.3150	-21.733920	0.000770	7.701255	1.304628	-0.000154
1323	1.3154e+02	-6.3345	-21.923666	0.000953	9.525236	1.613619	-0.000191
1324	1.3164e+02	-6.3548	-22.097262	0.000871	8.714578	1.476289	-0.000174
1325	1.3174e+02	-6.3733	-22.282971	0.000932	9.322572	1.579286	-0.000187
1326	1.3184e+02	-6.3934	-22.452530	0.000851	8.511913	1.441957	-0.000170
1327	1.3194e+02	-6.4139	-22.666499	0.001074	10.741224	1.819613	-0.000215
1328	1.3204e+02	-6.4343	-22.811835	0.000730	7.295926	1.235963	-0.000146
1329	1.3214e+02	-6.4554	-23.017729	0.001034	10.335895	1.750948	-0.000207
1330	1.3224e+02	-6.4743	-23.187289	0.000851	8.511913	1.441957	-0.000170
1331	1.3234e+02	-6.4944	-23.340700	0.000770	7.701255	1.304628	-0.000154
1332	1.3243e+02	-6.5143	-23.546594	0.001034	10.335895	1.750948	-0.000207
1333	1.3253e+02	-6.5347	-23.720191	0.000871	8.714578	1.476289	-0.000174
1334	1.3263e+02	-6.5530	-23.885714	0.000831	8.309249	1.407625	-0.000166
1335	1.3273e+02	-6.5738	-24.071422	0.000932	9.322572	1.579286	-0.000187
1336	1.3283e+02	-6.5939	-24.277316	0.001034	10.335895	1.750948	-0.000207
1337	1.3293e+02	-6.6141	-24.454950	0.000892	8.917242	1.510622	-0.000179
1338	1.3303e+02	-6.6339	-24.648732	0.000973	9.727901	1.647951	-0.000195
1339	1.3313e+02	-6.6531	-24.773883	0.000628	6.282603	1.064302	-0.000126
1340	1.3323e+02	-6.6733	-24.975740	0.001013	10.133230	1.716616	-0.000203
1341	1.3333e+02	-6.6937	-25.169523	0.000973	9.727901	1.647951	-0.000195
1342	1.3343e+02	-6.7136	-25.343120	0.000871	8.714578	1.476289	-0.000174
1343	1.3353e+02	-6.7334	-25.532865	0.000953	9.525236	1.613619	-0.000191
1344	1.3363e+02	-6.7532	-25.738759	0.001034	10.335895	1.750948	-0.000207
1345	1.3373e+02	-6.7731	-25.880059	0.000709	7.093261	1.201631	-0.000142
1346	1.3383e+02	-6.7931	-26.069804	0.000953	9.525236	1.613619	-0.000191
1347	1.3393e+02	-6.8137	-26.283772	0.001074	10.741224	1.819613	-0.000215
1348	1.3403e+02	-6.8332	-26.493703	0.001054	10.538559	1.785280	-0.000211
1349	1.3413e+02	-6.8530	-26.651152	0.000790	7.903919	1.338960	-0.000158
1350	1.3423e+02	-6.8729	-26.865120	0.001074	10.741224	1.819613	-0.000215
1351	1.3432e+02	-6.8921	-27.046791	0.000912	9.119907	1.544954	-0.000183
1352	1.3442e+02	-6.9128	-27.224425	0.000892	8.917242	1.510622	-0.000179
1353	1.3452e+02	-6.9324	-27.369762	0.000730	7.295926	1.235963	-0.000146
1354	1.3462e+02	-6.9522	-27.628138	0.001297	12.970534	2.197268	-0.000260
1355	1.3472e+02	-6.9733	-27.842107	0.001074	10.741224	1.819613	-0.000215
1356	1.3482e+02	-6.9922	-27.943035	0.000507	5.066615	0.858308	-0.000101
1357	1.3492e+02	-7.0114	-28.189300	0.001236	12.362541	2.094271	-0.000248
1358	1.3502e+02	-7.0325	-28.366934	0.000892	8.917242	1.510622	-0.000179
1359	1.3512e+02	-7.0523	-28.580902	0.001074	10.741224	1.819613	-0.000215
1360	1.3522e+02	-7.0712	-28.786796	0.001034	10.335895	1.750948	-0.000207
1361	1.3532e+02	-7.0929	-28.956356	0.000851	8.511913	1.441957	-0.000170
1362	1.3542e+02	-7.1121	-29.186473	0.001155	11.551882	1.956942	-0.000231
1363	1.3552e+02	-7.1320	-29.364107	0.000892	8.917242	1.510622	-0.000179
1364	1.3562e+02	-7.1515	-29.586149	0.001115	11.146553	1.888277	-0.000223
1365	1.3572e+02	-7.1710	-29.783969	0.000993	9.930565	1.682283	-0.000199
1366	1.3582e+02	-7.1918	-29.965640	0.000912	9.119907	1.544954	-0.000183
1367	1.3592e+02	-7.2119	-30.155385	0.000953	9.525236	1.613619	-0.000191
1368	1.3602e+02	-7.2314	-30.365316	0.001054	10.538559	1.785280	-0.000211
1369	1.3612e+02	-7.2510	-30.611582	0.001236	12.362541	2.094271	-0.000248
1370	1.3622e+02	-7.2710	-30.769030	0.000790	7.903919	1.338960	-0.000158
1371	1.3631e+02	-7.2913	-30.982998	0.001074	10.741224	1.819613	-0.000215
1372	1.3641e+02	-7.3106	-31.176781	0.000973	9.727901	1.647951	-0.000195
1373	1.3651e+02	-7.3315	-31.398823	0.001115	11.146553	1.888277	-0.000223
1374	1.3661e+02	-7.3517	-31.596643	0.000993	9.930565	1.682283	-0.000199
1375	1.3671e+02	-7.3712	-31.770240	0.000871	8.714578	1.476289	-0.000174
1376	1.3681e+02	-7.3911	-31.992282	0.001115	11.146553	1.888277	-0.000223
1377	1.3691e+02	-7.4121	-32.214325	0.001115	11.146553	1.888277	-0.000223
1378	1.3701e+02	-7.4301	-32.440404	0.001135	11.349218	1.922610	-0.000227
1379	1.3711e+02	-7.4518	-32.597853	0.000790	7.903919	1.338960	-0.000158
1380	1.3721e+02	-7.4701	-32.864303	0.001338	13.375864	2.265933	-0.000268
1381	1.3731e+02	-7.4905	-33.029826	0.000831	8.309249	1.407625	-0.000166
1382	1.3741e+02	-7.5104	-33.276091	0.001236	12.362541	2.094271	-0.000248
1383	1.3751e+02	-7.5308	-33.457762	0.000912	9.119907	1.544954	-0.000183
1384	1.3761e+02	-7.5507	-33.667693	0.001054	10.538559	1.785280	-0.000211
1385	1.3771e+02	-7.5696	-33.857439	0.000953	9.525236	1.613619	-0.000191
1386	1.3781e+02	-7.5891	-34.095630	0.001196	11.957211	2.025606	-0.000239
1387	1.3791e+02	-7.6080	-34.305561	0.001054	10.538559	1.785280	-0.000211
1388	1.3801e+02	-7.6291	-34.471083	0.000831	8.309249	1.407625	-0.000166
1389	1.3811e+02	-7.6489	-34.749646	0.001398	13.983857	2.368930	-0.000280
1390	1.3821e+02	-7.6694	-34.919206	0.000851	8.511913	1.441957	-0.000170
1391	1.3831e+02	-7.6892	-35.133174	0.001074	10.741224	1.819613	-0.000215
1392	1.3840e+02	-7.7094	-35.411736	0.001398	13.983857	2.368930	-0.000280
1393	1.3850e+02	-7.7295	-35.569184	0.000790	7.903919	1.338960	-0.000158
1394	1.3860e+02	-7.7496	-35.819487	0.001257	12.565205	2.128603	-0.000252
1395	1.3870e+02	-7.7698	-36.017306	0.000993	9.930565	1.682283	-0.000199
1396	1.3880e+02	-7.7892	-36.231275	0.001074	10.741224	1.819613	-0.000215
1397	1.3890e+02	-7.8088	-36.461391	0.001155	11.551882	1.956942	-0.000231
1398	1.3900e+02	-7.8290	-36.735917	0.001378	13.781193	2.334597	-0.000276
1399	1.3910e+02	-7.8491	-36.929699	0.000973	9.727901	1.647951	-0.000195
1400	1.3920e+02	-7.8683	-37.111370	0.000912	9.119907	1.544954	-0.000183
1401	1.3930e+02	-7.8882	-37.369747	0.001297	12.970534	2.197268	-0.000260
1402	1.3940e+02	-7.9080	-37.555455	0.000932	9.322572	1.579286	-0.000187
1403	1.3950e+02	-7.9291	-37.829980	0.001378	13.781193	2.334597	-0.000276
1404	1.3960e+02	-7.9486	-38.031837	0.001013	10.133230	1.716616	-0.000203
1405	1.3970e+02	-7.9681	-38.270028	0.001196	11.957211	2.025606	-0.000239
1406	1.3980e+02	-7.9883	-38.467848	0.000993	9.930565	1.682283	-0.000199
1407	1.3990e+02	-8.0084	-38.742373	0.001378	13.781193	2.334597	-0.000276
1408	1.4000e+02	-8.0280	-38.964416	0.001115	11.146553	1.888277	-0.000223
1409	1.4010e+02	-8.0475	-39.178384	0.001074	10.741224	1.819613	-0.000215
1410	1.4020e+02	-8.0676	-39.416575	0.001196	11.957211	2.025606	-0.000239
1411	1.4029e+02	-8.0872	-39.634580	0.001094	10.943888	1.853945	-0.000219
1412	1.4039e+02	-8.1079	-39.917180	0.001419	14.186522	2.403262	-0.000284
1413	1.4049e+02	-8.1277	-40.119036	0.001013	10.133230	1.716616	-0.000203
1414	1.4059e+02	-8.1479	-40.409710	0.001459	14.591851	2.471927	-0.000292
1415	1.4069e+02	-8.1671	-40.595418	0.000932	9.322572	1.579286	-0.000187
1416	1.4079e+02	-8.1876	-40.857832	0.001317	13.173199	2.231600	-0.000264
1417	1.4089e+02	-8.2074	-41.108135	0.001257	12.565205	2.128603	-0.000252
1418	1.4099e+02	-8.2275	-41.358437	0.001257	12.565205	2.128603	-0.000252
1419	1.4109e+02	-8.2471	-41.596628	0.001196	11.957211	2.025606	-0.000239
1420	1.4119e+02	-8.2666	-41.859042	0.001317	13.173199	2.231600	-0.000264
1421	1.4129e+02	-8.2861	-42.105307	0.001236	12.362541	2.094271	-0.000248
1422	1.4139e+02	-8.3072	-42.351572	0.001236	12.362541	2.094271	-0.000248
1423	1.4149e+02	-8.3270	-42.593801	0.001216	12.159876	2.059939	-0.000243
1424	1.4159e+02	-8.3478	-42.844103	0.001257	12.565205	2.128603	-0.000252
1425	1.4169e+02	-8.3667	-43.118628	0.001378	13.781193	2.334597	-0.000276
1426	1.4179e+02	-8.3871	-43.352782	0.001175	11.754547	1.991274	-0.000235
1427	1.4189e+02	-8.4064	-43.615196	0.001317	13.173199	2.231600	-0.000264
1428	1.4199e+02	-8.4271	-43.869535	0.001277	12.767870	2.162936	-0.000256
1429	1.4209e+02	-8.4460	-44.115801	0.001236	12.362541	2.094271	-0.000248
1430	1.4219e+02	-8.4656	-44.386289	0.001358	13.578528	2.300265	-0.000272
1431	1.4228e+02	-8.4872	-44.640628	0.001277	12.767870	2.162936	-0.000256
1432	1.4238e+02	-8.5059	-44.907079	0.001338	13.375864	2.265933	-0.000268
1433	1.4248e+02	-8.5254	-45.181605	0.001378	13.781193	2.334597	-0.000276
1434	1.4258e+02	-8.5461	-45.480353	0.001500	14.997180	2.540591	-0.000300
1435	1.4268e+02	-8.5663	-45.698358	0.001094	10.943888	1.853945	-0.000219
1436	1.4278e+02	-8.5852	-45.960772	0.001317	13.173199	2.231600	-0.000264
1437	1.4288e+02	-8.6063	-46.263557	0.001520	15.199845	2.574923	-0.000304
1438	1.4298e+02	-8.6261	-46.550194	0.001439	14.389187	2.437594	-0.000288
1439	1.4308e+02	-8.6450	-46.760125	0.001054	10.538559	1.785280	-0.000211
1440	1.4318e+02	-8.6658	-47.075021	0.001581	15.807839	2.677920	-0.000316
1441	1.4328e+02	-8.6853	-47.329361	0.001277	12.767870	2.162936	-0.000256
1442	1.4338e+02	-8.7042	-47.615997	0.001439	14.389187	2.437594	-0.000288
1443	1.4348e+02	-8.7250	-47.842077	0.001135	11.349218	1.922610	-0.000227
1444	1.4358e+02	-8.7451	-48.169085	0.001642	16.415833	2.780917	-0.000329
1445	1.4368e+02	-8.7646	-48.443610	0.001378	13.781193	2.334597	-0.000276
1446	1.4378e+02	-8.7848	-48.738321	0.001479	14.794516	2.506259	-0.000296
1447	1.4388e+02	-8.8052	-49.024958	0.001439	14.389187	2.437594	-0.000288
1448	1.4398e+02	-8.8251	-49.299483	0.001378	13.781193	2.334597	-0.000276
1449	1.4408e+02	-8.8443	-49.594194	0.001479	14.794516	2.506259	-0.000296
1450	1.4418e+02	-8.8647	-49.925239	0.001662	16.618497	2.815250	-0.000333
1451	1.4428e+02	-8.8843	-50.191690	0.001338	13.375864	2.265933	-0.000268
1452	1.4437e+02	-8.9056	-50.478327	0.001439	14.389187	2.437594	-0.000288
1453	1.4447e+02	-8.9252	-50.789186	0.001561	15.605174	2.643588	-0.000312
1454	1.4457e+02	-8.9438	-51.063711	0.001378	13.781193	2.334597	-0.000276
1455	1.4467e+02	-8.9633	-51.374571	0.001561	15.605174	2.643588	-0.000312
1456	1.4477e+02	-8.9832	-51.685430	0.001561	15.605174	2.643588	-0.000312
1457	1.4487e+02	-9.0045	-51.988215	0.001520	15.199845	2.574923	-0.000304
1458	1.4497e+02	-9.0240	-52.274852	0.001439	14.389187	2.437594	-0.000288
1459	1.4507e+02	-9.0430	-52.613972	0.001702	17.023826	2.883914	-0.000341
1460	1.4517e+02	-9.0643	-52.928868	0.001581	15.807839	2.677920	-0.000316
1461	1.4527e+02	-9.0842	-53.251839	0.001621	16.213168	2.746585	-0.000325
1462	1.4537e+02	-9.1040	-53.550587	0.001500	14.997180	2.540591	-0.000300
1463	1.4547e+02	-9.1235	-53.897781	0.001743	17.429156	2.952579	-0.000349
1464	1.4557e+02	-9.1437	-54.224789	0.001642	16.415833	2.780917	-0.000329
1465	1.4567e+02	-9.1638	-54.535648	0.001561	15.605174	2.643588	-0.000312
1466	1.4577e+02	-9.1833	-54.894953	0.001804	18.037149	3.055576	-0.000361
1467	1.4587e+02	-9.2029	-55.213887	0.001601	16.010503	2.712253	-0.000321
1468	1.4597e+02	-9.2236	-55.540895	0.001642	16.415833	2.780917	-0.000329
1469	1.4607e+02	-9.2426	-55.859829	0.001601	16.010503	2.712253	-0.000321
1470	1.4617e+02	-9.2636	-56.194911	0.001682	16.821162	2.849582	-0.000337
1471	1.4626e+02	-9.2834	-56.542105	0.001743	17.429156	2.952579	-0.000349
1472	1.4636e+02	-9.3033	-56.917558	0.001885	18.847808	3.192905	-0.000377
1473	1.4646e+02	-9.3231	-57.268789	0.001763	17.631820	2.986911	-0.000353
1474	1.4656e+02	-9.3427	-57.563500	0.001479	14.794516	2.506259	-0.000296
1475	1.4666e+02	-9.3628	-57.942991	0.001905	19.050472	3.227237	-0.000381
1476	1.4676e+02	-9.3823	-58.306333	0.001824	18.239814	3.089908	-0.000365
1477	1.4686e+02	-9.4025	-58.665638	0.001804	18.037149	3.055576	-0.000361
1478	1.4696e+02	-9.4220	-59.000720	0.001682	16.821162	2.849582	-0.000337
1479	1.4706e+02	-9.4418	-59.420582	0.002108	21.077118	3.570561	-0.000422
1480	1.4716e+02	-9.4611	-59.763739	0.001723	17.226491	2.918247	-0.000345
1481	1.4726e+02	-9.4824	-60.167452	0.002027	20.266460	3.433231	-0.000406
1482	1.4736e+02	-9.5013	-60.490423	0.001621	16.213168	2.746585	-0.000325
1483	1.4746e+02	-9.5227	-60.914323	0.002128	21.279783	3.604893	-0.000426
1484	1.4756e+02	-9.5422	-61.269591	0.001783	17.834485	3.021244	-0.000357
1485	1.4766e+02	-9.5624	-61.681378	0.002067	20.671789	3.501896	-0.000414
1486	1.4776e+02	-9.5813	-62.056832	0.001885	18.847808	3.192905	-0.000377
1487	1.4786e+02	-9.6017	-62.436323	0.001905	19.050472	3.227237	-0.000381
1488	1.4796e+02	-9.6222	-62.835999	0.002006	20.063795	3.398899	-0.000402
1489	1.4806e+02	-9.6417	-63.203379	0.001844	18.442479	3.124240	-0.000369
1490	1.4816e+02	-9.6619	-63.611129	0.002047	20.469125	3.467564	-0.000410
1491	1.4825e+02	-9.6814	-64.043103	0.002169	21.685112	3.673557	-0.000434
1492	1.4835e+02	-9.7009	-64.422594	0.001905	19.050472	3.227237	-0.000381
1493	1.4845e+02	-9.7217	-64.854567	0.002169	21.685112	3.673557	-0.000434
1494	1.4855e+02	-9.7415	-65.266355	0.002067	20.671789	3.501896	-0.000414
1495	1.4865e+02	-9.7614	-65.698328	0.002169	21.685112	3.673557	-0.000434
1496	1.4875e+02	-9.7815	-66.110116	0.002067	20.671789	3.501896	-0.000414
1497	1.4885e+02	-9.8016	-66.517867	0.002047	20.469125	3.467564	-0.000410
1498	1.4895e+02	-9.8212	-66.970026	0.002270	22.698435	3.845219	-0.000454
1499	1.4905e+02	-9.8413	-67.430260	0.002310	23.103764	3.913884	-0.000463
1500	1.4915e+02	-9.8615	-67.821862	0.001966	19.658466	3.330234	-0.000394
1501	1.4925e+02	-9.8804	-68.326504	0.002533	25.333075	4.291539	-0.000507
1502	1.4935e+02	-9.8993	-68.762514	0.002189	21.887777	3.707890	-0.000438
1503	1.4945e+02	-9.9210	-69.210637	0.002250	22.495771	3.810887	-0.000450
1504	1.4955e+02	-9.9396	-69.646647	0.002189	21.887777	3.707890	-0.000438
1505	1.4965e+02	-9.9622	-70.110918	0.002331	23.306429	3.948216	-0.000467
1506	1.4975e+02	-9.9799	-70.534817	0.002128	21.279783	3.604893	-0.000426
1507	1.4985e+02	-10.0000	-71.031385	0.002493	24.927746	4.222874	-0.000499
1508	1.4995e+02	-9.9805	-71.322059	-0.001459	-14.591851	-2.471927	-0.000292
1509	1.5005e+02	-9.9609	-71.632918	-0.001561	-15.605174	-2.643588	-0.000312
1510	1.5015e+02	-9.9402	-71.895332	-0.001317	-13.173199	-2.231600	-0.000264
1511	1.5025e+02	-9.9213	-72.141597	-0.001236	-12.362541	-2.094271	-0.000248
1512	1.5034e+02	-9.9005	-72.399974	-0.001297	-12.970534	-2.197268	-0.000260
1513	1.5044e+02	-9.8816	-72.650276	-0.001257	-12.565205	-2.128603	-0.000252
1514	1.5054e+02	-9.8608	-72.860207	-0.001054	-10.538559	-1.785280	-0.000211
1515	1.5064e+02	-9.8413	-73.090324	-0.001155	-11.551882	-1.956942	-0.000231
1516	1.5074e+02	-9.8206	-73.296218	-0.001034	-10.335895	-1.750948	-0.000207
1517	1.5084e+02	-9.8022	-73.530372	-0.001175	-11.754547	-1.991274	-0.000235
1518	1.5094e+02	-9.7815	-73.703969	-0.000871	-8.714578	-1.476289	-0.000174
1519	1.5104e+02	-9.7610	-73.938122	-0.001175	-11.754547	-1.991274	-0.000235
1520	1.5114e+02	-9.7412	-74.139979	-0.001013	-10.133230	-1.716616	-0.000203
1521	1.5124e+02	-9.7223	-74.277242	-0.000689	-6.890596	-1.167299	-0.000138
1522	1.5134e+02	-9.7009	-74.479099	-0.001013	-10.133230	-1.716616	-0.000203
1523	1.5144e+02	-9.6808	-74.648658	-0.000851	-8.511913	-1.441957	-0.000170
1524	1.5154e+02	-9.6631	-74.810144	-0.000811	-8.106584	-1.373293	-0.000162
1525	1.5164e+02	-9.6420	-74.971629	-0.000811	-8.106584	-1.373293	-0.000162
1526	1.5174e+02	-9.6216	-75.125040	-0.000770	-7.701255	-1.304628	-0.000154
1527	1.5184e+02	-9.6017	-75.310749	-0.000932	-9.322572	-1.579286	-0.000187
1528	1.5194e+02	-9.5816	-75.472234	-0.000811	-8.106584	-1.373293	-0.000162
1529	1.5204e+02	-9.5612	-75.609497	-0.000689	-6.890596	-1.167299	-0.000138
1530	1.5214e+02	-9.5416	-75.746759	-0.000689	-6.890596	-1.167299	-0.000138
1531	1.5224e+02	-9.5221	-75.892096	-0.000730	-7.295926	-1.235963	-0.000146
1532	1.5233e+02	-9.5026	-75.980913	-0.000446	-4.458621	-0.755311	-0.000089
1533	1.5243e+02	-9.4818	-76.154510	-0.000871	-8.714578	-1.476289	-0.000174
1534	1.5253e+02	-9.4617	-76.255438	-0.000507	-5.066615	-0.858308	-0.000101
1535	1.5263e+02	-9.4427	-76.388664	-0.000669	-6.687932	-1.132966	-0.000134
1536	1.5273e+02	-9.4226	-76.513815	-0.000628	-6.282603	-1.064302	-0.000126
1537	1.5283e+02	-9.4025	-76.586484	-0.000365	-3.647963	-0.617982	-0.000073
1538	1.5293e+02	-9.3835	-76.747969	-0.000811	-8.106584	-1.373293	-0.000162
1539	1.5303e+02	-9.3622	-76.881194	-0.000669	-6.687932	-1.132966	-0.000134
1540	1.5313e+02	-9.3436	-76.913492	-0.000162	-1.621317	-0.274659	-0.000032
1541	1.5323e+02	-9.3225	-77.030568	-0.000588	-5.877273	-0.995637	-0.000118
1542	1.5333e+02	-9.3030	-77.111311	-0.000405	-4.053292	-0.686646	-0.000081
1543	1.5343e+02	-9.2841	-77.224351	-0.000567	-5.674609	-0.961305	-0.000114
1544	1.5353e+02	-9.2633	-77.284908	-0.000304	-3.039969	-0.514985	-0.000061
1545	1.5363e+02	-9.2438	-77.361614	-0.000385	-3.850627	-0.652314	-0.000077
1546	1.5373e+02	-9.2224	-77.486765	-0.000628	-6.282603	-1.064302	-0.000126
1547	1.5383e+02	-9.2035	-77.575582	-0.000446	-4.458621	-0.755311	-0.000089
1548	1.5393e+02	-9.1840	-77.587693	-0.000061	-0.607994	-0.102997	-0.000012
1549	1.5403e+02	-9.1632	-77.656324	-0.000345	-3.445298	-0.583649	-0.000069
1550	1.5413e+02	-9.1437	-77.720919	-0.000324	-3.242634	-0.549317	-0.000065
1551	1.5422e+02	-9.1235	-77.837996	-0.000588	-5.877273	-0.995637	-0.000118
1552	1.5432e+02	-9.1034	-77.878367	-0.000203	-2.026646	-0.343323	-0.000041
1553	1.5442e+02	-9.0845	-77.946998	-0.000345	-3.445298	-0.583649	-0.000069
1554	1.5452e+02	-9.0640	-77.999481	-0.000263	-2.634640	-0.446320	-0.000053
1555	1.5462e+02	-9.0439	-77.999481	0.000000	0.000000	0.000000	0.000000
1556	1.5472e+02	-9.0234	-78.100409	-0.000507	-5.066615	-0.858308	-0.000101
1557	1.5482e+02	-9.0057	-78.136744	-0.000182	-1.823981	-0.308991	-0.000037
1558	1.5492e+02	-8.9838	-78.205375	-0.000345	-3.445298	-0.583649	-0.000069
1559	1.5502e+02	-8.9642	-78.237672	-0.000162	-1.621317	-0.274659	-0.000032
1560	1.5512e+02	-8.9447	-78.249783	-0.000061	-0.607994	-0.102997	-0.000012
1561	1.5522e+02	-8.9243	-78.294192	-0.000223	-2.229311	-0.377655	-0.000045
1562	1.5532e+02	-8.9044	-78.346675	-0.000263	-2.634640	-0.446320	-0.000053
1563	1.5542e+02	-8.8849	-78.366860	-0.000101	-1.013323	-0.171662	-0.000020
1564	1.5552e+02	-8.8635	-78.407232	-0.000203	-2.026646	-0.343323	-0.000041
1565	1.5562e+02	-8.8443	-78.411269	-0.000020	-0.202665	-0.034332	-0.000004
1566	1.5572e+02	-8.8245	-78.475863	-0.000324	-3.242634	-0.549317	-0.000065
1567	1.5582e+02	-8.8049	-78.496049	-0.000101	-1.013323	-0.171662	-0.000020
1568	1.5592e+02	-8.7848	-78.524309	-0.000142	-1.418652	-0.240326	-0.000028
1569	1.5602e+02	-8.7656	-78.568717	-0.000223	-2.229311	-0.377655	-0.000045
1570	1.5612e+02	-8.7451	-78.548531	0.000101	1.013323	0.171662	0.000020
1571	1.5622e+02	-8.7250	-78.572754	-0.000122	-1.215988	-0.205994	-0.000024
1572	1.5631e+02	-8.7048	-78.584866	-0.000061	-0.607994	-0.102997	-0.000012
1573	1.5641e+02	-8.6853	-78.596977	-0.000061	-0.607994	-0.102997	-0.000012
1574	1.5651e+02	-8.6652	-78.580829	0.000081	0.810658	0.137329	0.000016
1575	1.5661e+02	-8.6444	-78.592940	-0.000061	-0.607994	-0.102997	-0.000012
1576	1.5671e+02	-8.6255	-78.580829	0.000061	0.607994	0.102997	0.000012
1577	1.5681e+02	-8.6057	-78.572754	0.000041	0.405329	0.068665	0.000008
1578	1.5691e+02	-8.5858	-78.625237	-0.000263	-2.634640	-0.446320	-0.000053
1579	1.5701e+02	-8.5663	-78.617163	0.000041	0.405329	0.068665	0.000008
1580	1.5711e+02	-8.5461	-78.609089	0.000041	0.405329	0.068665	0.000008
1581	1.5721e+02	-8.5272	-78.609089	0.000000	0.000000	0.000000	0.000000
1582	1.5731e+02	-8.5059	-78.609089	0.000000	0.000000	0.000000	0.000000
1583	1.5741e+02	-8.4863	-78.584866	0.000122	1.215988	0.205994	0.000024
1584	1.5751e+02	-8.4662	-78.588903	-0.000020	-0.202665	-0.034332	-0.000004
1585	1.5761e+02	-8.4460	-78.596977	-0.000041	-0.405329	-0.068665	-0.000008
1586	1.5771e+02	-8.4268	-78.592940	0.000020	0.202665	0.034332	0.000004
1587	1.5781e+02	-8.4070	-78.596977	-0.000020	-0.202665	-0.034332	-0.000004
1588	1.5791e+02	-8.3868	-78.572754	0.000122	1.215988	0.205994	0.000024
1589	1.5801e+02	-8.3676	-78.528346	0.000223	2.229311	0.377655	0.000045
1590	1.5811e+02	-8.3472	-78.508160	0.000101	1.013323	0.171662	0.000020
1591	1.5821e+02	-8.3264	-78.500086	0.000041	0.405329	0.068665	0.000008
1592	1.5830e+02	-8.3072	-78.496049	0.000020	0.202665	0.034332	0.000004
1593	1.5840e+02	-8.2874	-78.467789	0.000142	1.418652	0.240326	0.000028
1594	1.5850e+02	-8.2666	-78.423380	0.000223	2.229311	0.377655	0.000045
1595	1.5860e+02	-8.2477	-78.451640	-0.000142	-1.418652	-0.240326	-0.000028
1596	1.5870e+02	-8.2269	-78.403195	0.000243	2.431975	0.411988	0.000049
1597	1.5880e+02	-8.2080	-78.383009	0.000101	1.013323	0.171662	0.000020
1598	1.5890e+02	-8.1866	-78.342638	0.000203	2.026646	0.343323	0.000041
1599	1.5900e+02	-8.1671	-78.334563	0.000041	0.405329	0.068665	0.000008
1600	1.5910e+02	-8.1470	-78.302266	0.000162	1.621317	0.274659	0.000032
1601	1.5920e+02	-8.1274	-78.261895	0.000203	2.026646	0.343323	0.000041
1602	1.5930e+02	-8.1079	-78.249783	0.000061	0.607994	0.102997	0.000012
1603	1.5940e+02	-8.0869	-78.193264	0.000284	2.837304	0.480652	0.000057
1604	1.5950e+02	-8.0676	-78.136744	0.000284	2.837304	0.480652	0.000057
1605	1.5960e+02	-8.0487	-78.136744	0.000000	0.000000	0.000000	0.000000
1606	1.5970e+02	-8.0280	-78.068112	0.000345	3.445298	0.583649	0.000069
1607	1.5980e+02	-8.0081	-78.043890	0.000122	1.215988	0.205994	0.000024
1608	1.5990e+02	-7.9880	-77.999481	0.000223	2.229311	0.377655	0.000045
1609	1.6000e+02	-7.9681	-77.951035	0.000243	2.431975	0.411988	0.000049
1610	1.6010e+02	-7.9485	-77.922775	0.000142	1.418652	0.240326	0.000028
1611	1.6019e+02	-7.9279	-77.850107	0.000365	3.647963	0.617982	0.000073
1612	1.6029e+02	-7.9083	-77.785513	0.000324	3.242634	0.549317	0.000065
1613	1.6039e+02	-7.8857	-77.773401	0.000061	0.607994	0.102997	0.000012
1614	1.6049e+02	-7.8687	-77.749179	0.000122	1.215988	0.205994	0.000024
1615	1.6059e+02	-7.8491	-77.684584	0.000324	3.242634	0.549317	0.000065
1616	1.6069e+02	-7.8284	-77.640176	0.000223	2.229311	0.377655	0.000045
1617	1.6079e+02	-7.8091	-77.583656	0.000284	2.837304	0.480652	0.000057
1618	1.6089e+02	-7.7899	-77.535210	0.000243	2.431975	0.411988	0.000049
1619	1.6099e+02	-7.7679	-77.474653	0.000304	3.039969	0.514985	0.000061
1620	1.6109e+02	-7.7481	-77.397948	0.000385	3.850627	0.652314	0.000077
1621	1.6119e+02	-7.7292	-77.349502	0.000243	2.431975	0.411988	0.000049
1622	1.6129e+02	-7.7094	-77.301057	0.000243	2.431975	0.411988	0.000049
1623	1.6139e+02	-7.6886	-77.252611	0.000243	2.431975	0.411988	0.000049
1624	1.6149e+02	-7.6691	-77.204165	0.000243	2.431975	0.411988	0.000049
1625	1.6159e+02	-7.6501	-77.163794	0.000203	2.026646	0.343323	0.000041
1626	1.6169e+02	-7.6300	-77.074977	0.000446	4.458621	0.755311	0.000089
1627	1.6179e+02	-7.6093	-77.058828	0.000081	0.810658	0.137329	0.000016
1628	1.6189e+02	-7.5903	-76.961937	0.000486	4.863950	0.823976	0.000097
1629	1.6199e+02	-7.5693	-76.901380	0.000304	3.039969	0.514985	0.000061
1630	1.6209e+02	-7.5507	-76.856972	0.000223	2.229311	0.377655	0.000045
1631	1.6219e+02	-7.5304	-76.772192	0.000426	4.255957	0.720979	0.000085
1632	1.6228e+02	-7.5104	-76.719709	0.000263	2.634640	0.446320	0.000053
1633	1.6238e+02	-7.4918	-76.667226	0.000263	2.634640	0.446320	0.000053
1634	1.6248e+02	-7.4701	-76.626855	0.000203	2.026646	0.343323	0.000041
1635	1.6258e+02	-7.4515	-76.546112	0.000405	4.053292	0.686646	0.000081
1636	1.6268e+02	-7.4310	-76.465369	0.000405	4.053292	0.686646	0.000081
1637	1.6278e+02	-7.4115	-76.380590	0.000426	4.255957	0.720979	0.000085
1638	1.6288e+02	-7.3900	-76.315995	0.000324	3.242634	0.549317	0.000065
1639	1.6298e+02	-7.3700	-76.271587	0.000223	2.229311	0.377655	0.000045
1640	1.6308e+02	-7.3508	-76.215067	0.000284	2.837304	0.480652	0.000057
1641	1.6318e+02	-7.3312	-76.154510	0.000304	3.039969	0.514985	0.000061
1642	1.6328e+02	-7.3108	-76.057619	0.000486	4.863950	0.823976	0.000097
1643	1.6338e+02	-7.2913	-76.013210	0.000223	2.229311	0.377655	0.000045
1644	1.6348e+02	-7.2717	-75.944579	0.000345	3.445298	0.583649	0.000069
1645	1.6358e+02	-7.2516	-75.827502	0.000588	5.877273	0.995637	0.000118
1646	1.6368e+02	-7.2314	-75.815391	0.000061	0.607994	0.102997	0.000012
1647	1.6378e+02	-7.2113	-75.734648	0.000405	4.053292	0.686646	0.000081
1648	1.6388e+02	-7.1912	-75.645831	0.000446	4.458621	0.755311	0.000089
1649	1.6398e+02	-7.1722	-75.573162	0.000365	3.647963	0.617982	0.000073
1650	1.6408e+02	-7.1521	-75.516643	0.000284	2.837304	0.480652	0.000057
1651	1.6418e+02	-7.1326	-75.448011	0.000345	3.445298	0.583649	0.000069
1652	1.6427e+02	-7.1118	-75.359194	0.000446	4.458621	0.755311	0.000089
1653	1.6437e+02	-7.0923	-75.266340	0.000466	4.661286	0.789643	0.000093
1654	1.6447e+02	-7.0721	-75.242117	0.000122	1.215988	0.205994	0.000024
1655	1.6457e+02	-7.0520	-75.116966	0.000628	6.282603	1.064302	0.000126
1656	1.6467e+02	-7.0325	-75.064483	0.000263	2.634640	0.446320	0.000053
1657	1.6477e+02	-7.0111	-74.995852	0.000345	3.445298	0.583649	0.000069
1658	1.6487e+02	-6.9916	-74.886849	0.000547	5.471944	0.926972	0.000110
1659	1.6497e+02	-6.9724	-74.870701	0.000081	0.810658	0.137329	0.000016
1660	1.6507e+02	-6.9519	-74.773810	0.000486	4.863950	0.823976	0.000097
1661	1.6517e+02	-6.9318	-74.664807	0.000547	5.471944	0.926972	0.000110
1662	1.6527e+02	-6.9128	-74.592138	0.000365	3.647963	0.617982	0.000073
1663	1.6537e+02	-6.8930	-74.503321	0.000446	4.458621	0.755311	0.000089
1664	1.6547e+02	-6.8729	-74.426616	0.000385	3.850627	0.652314	0.000077
1665	1.6557e+02	-6.8529	-74.317613	0.000547	5.471944	0.926972	0.000110
1666	1.6567e+02	-6.8323	-74.281279	0.000182	1.823981	0.308991	0.000037
1667	1.6577e+02	-6.8127	-74.188425	0.000466	4.661286	0.789643	0.000093
1668	1.6587e+02	-6.7935	-74.095571	0.000466	4.661286	0.789643	0.000093
1669	1.6597e+02	-6.7735	-74.018865	0.000385	3.850627	0.652314	0.000077
1670	1.6607e+02	-6.7523	-73.966382	0.000263	2.634640	0.446320	0.000053
1671	1.6616e+02	-6.7337	-73.869491	0.000486	4.863950	0.823976	0.000097
1672	1.6626e+02	-6.7133	-73.748377	0.000608	6.079938	1.029969	0.000122
1673	1.6636e+02	-6.6931	-73.667634	0.000405	4.053292	0.686646	0.000081
1674	1.6646e+02	-6.6739	-73.586892	0.000405	4.053292	0.686646	0.000081
1675	1.6656e+02	-6.6525	-73.534409	0.000263	2.634640	0.446320	0.000053
1676	1.6666e+02	-6.6330	-73.441555	0.000466	4.661286	0.789643	0.000093
1677	1.6676e+02	-6.6144	-73.393109	0.000243	2.431975	0.411988	0.000049
1678	1.6686e+02	-6.5930	-73.263921	0.000649	6.485267	1.098634	0.000130
1679	1.6696e+02	-6.5741	-73.162992	0.000507	5.066615	0.858308	0.000101
1680	1.6706e+02	-6.5552	-73.082250	0.000405	4.053292	0.686646	0.000081
1681	1.6716e+02	-6.5338	-72.977284	0.000527	5.269280	0.892640	0.000105
1682	1.6726e+02	-6.5146	-72.912690	0.000324	3.242634	0.549317	0.000065
1683	1.6736e+02	-6.4941	-72.835984	0.000385	3.850627	0.652314	0.000077
1684	1.6746e+02	-6.4737	-72.743130	0.000466	4.661286	0.789643	0.000093
1685	1.6756e+02	-6.4542	-72.658350	0.000426	4.255957	0.720979	0.000085
1686	1.6766e+02	-6.4349	-72.565496	0.000466	4.661286	0.789643	0.000093
1687	1.6776e+02	-6.4145	-72.492828	0.000365	3.647963	0.617982	0.000073
1688	1.6786e+02	-6.3940	-72.367677	0.000628	6.282603	1.064302	0.000126
1689	1.6796e+02	-6.3742	-72.295008	0.000365	3.647963	0.617982	0.000073
1690	1.6806e+02	-6.3550	-72.198117	0.000486	4.863950	0.823976	0.000097
1691	1.6816e+02	-6.3347	-72.129486	0.000345	3.445298	0.583649	0.000069
1692	1.6825e+02	-6.3147	-72.012409	0.000588	5.877273	0.995637	0.000118
1693	1.6835e+02	-6.2946	-71.959926	0.000263	2.634640	0.446320	0.000053
1694	1.6845e+02	-6.2747	-71.899369	0.000304	3.039969	0.514985	0.000061
1695	1.6855e+02	-6.2549	-71.770181	0.000649	6.485267	1.098634	0.000130
1696	1.6865e+02	-6.2347	-71.669252	0.000507	5.066615	0.858308	0.000101
1697	1.6875e+02	-6.2158	-71.592547	0.000385	3.850627	0.652314	0.000077
1698	1.6885e+02	-6.1957	-71.487581	0.000527	5.269280	0.892640	0.000105
1699	1.6895e+02	-6.1755	-71.402801	0.000426	4.255957	0.720979	0.000085
1700	1.6905e+02	-6.1554	-71.293799	0.000547	5.471944	0.926972	0.000110
1701	1.6915e+02	-6.1353	-71.221130	0.000365	3.647963	0.617982	0.000073
1702	1.6925e+02	-6.1163	-71.120202	0.000507	5.066615	0.858308	0.000101
1703	1.6935e+02	-6.0956	-71.019273	0.000507	5.066615	0.858308	0.000101
1704	1.6945e+02	-6.0759	-70.954679	0.000324	3.242634	0.549317	0.000065
1705	1.6955e+02	-6.0553	-70.837602	0.000588	5.877273	0.995637	0.000118
1706	1.6965e+02	-6.0358	-70.744748	0.000466	4.661286	0.789643	0.000093
1707	1.6975e+02	-6.0156	-70.651894	0.000466	4.661286	0.789643	0.000093
1708	1.6985e+02	-5.9967	-70.571151	0.000405	4.053292	0.686646	0.000081
1709	1.6995e+02	-5.9750	-70.470223	0.000507	5.066615	0.858308	0.000101
1710	1.7005e+02	-5.9558	-70.421777	0.000243	2.431975	0.411988	0.000049
1711	1.7015e+02	-5.9361	-70.276440	0.000730	7.295926	1.235963	0.000146
1712	1.7024e+02	-5.9161	-70.207809	0.000345	3.445298	0.583649	0.000069
1713	1.7034e+02	-5.8965	-70.086695	0.000608	6.079938	1.029969	0.000122
1714	1.7044e+02	-5.8774	-69.985767	0.000507	5.066615	0.858308	0.000101
1715	1.7054e+02	-5.8563	-69.921172	0.000324	3.242634	0.549317	0.000065
1716	1.7064e+02	-5.8368	-69.828318	0.000466	4.661286	0.789643	0.000093
1717	1.7074e+02	-5.8163	-69.687019	0.000709	7.093261	1.201631	0.000142
1718	1.7084e+02	-5.7959	-69.614350	0.000365	3.647963	0.617982	0.000073
1719	1.7094e+02	-5.7776	-69.517459	0.000486	4.863950	0.823976	0.000097
1720	1.7104e+02	-5.7568	-69.376159	0.000709	7.093261	1.201631	0.000142
1721	1.7114e+02	-5.7370	-69.295416	0.000405	4.053292	0.686646	0.000081
1722	1.7124e+02	-5.7172	-69.218711	0.000385	3.850627	0.652314	0.000077
1723	1.7134e+02	-5.6958	-69.101634	0.000588	5.877273	0.995637	0.000118
1724	1.7144e+02	-5.6769	-68.992631	0.000547	5.471944	0.926972	0.000110
1725	1.7154e+02	-5.6570	-68.932074	0.000304	3.039969	0.514985	0.000061
1726	1.7164e+02	-5.6378	-68.778663	0.000770	7.701255	1.304628	0.000154
1727	1.7174e+02	-5.6183	-68.714069	0.000324	3.242634	0.549317	0.000065
1728	1.7184e+02	-5.5975	-68.633326	0.000405	4.053292	0.686646	0.000081
1729	1.7194e+02	-5.5768	-68.487989	0.000730	7.295926	1.235963	0.000146
1730	1.7204e+02	-5.5569	-68.415321	0.000365	3.647963	0.617982	0.000073
1731	1.7213e+02	-5.5383	-68.245761	0.000851	8.511913	1.441957	0.000170
1732	1.7223e+02	-5.5182	-68.193278	0.000263	2.634640	0.446320	0.000053
1733	1.7233e+02	-5.4977	-68.112536	0.000405	4.053292	0.686646	0.000081
1734	1.7243e+02	-5.4770	-67.987384	0.000628	6.282603	1.064302	0.000126
1735	1.7253e+02	-5.4578	-67.890493	0.000486	4.863950	0.823976	0.000097
1736	1.7263e+02	-5.4379	-67.781490	0.000547	5.471944	0.926972	0.000110
1737	1.7273e+02	-5.4184	-67.672488	0.000547	5.471944	0.926972	0.000110
1738	1.7283e+02	-5.3979	-67.559448	0.000567	5.674609	0.961305	0.000114
1739	1.7293e+02	-5.3781	-67.470631	0.000446	4.458621	0.755311	0.000089
1740	1.7303e+02	-5.3577	-67.325294	0.000730	7.295926	1.235963	0.000146
1741	1.7313e+02	-5.3387	-67.244551	0.000405	4.053292	0.686646	0.000081
1742	1.7323e+02	-5.3174	-67.111326	0.000669	6.687932	1.132966	0.000134
1743	1.7333e+02	-5.2989	-67.050769	0.000304	3.039969	0.514985	0.000061
1744	1.7343e+02	-5.2782	-66.905432	0.000730	7.295926	1.235963	0.000146
1745	1.7353e+02	-5.2588	-66.808541	0.000486	4.863950	0.823976	0.000097
1746	1.7363e+02	-5.2399	-66.699538	0.000547	5.471944	0.926972	0.000110
1747	1.7373e+02	-5.2191	-66.622833	0.000385	3.850627	0.652314	0.000077
1748	1.7383e+02	-5.1988	-66.509793	0.000567	5.674609	0.961305	0.000114
1749	1.7393e+02	-5.1788	-66.376567	0.000669	6.687932	1.132966	0.000134
1750	1.7403e+02	-5.1587	-66.267565	0.000547	5.471944	0.926972	0.000110
1751	1.7413e+02	-5.1385	-66.182785	0.000426	4.255957	0.720979	0.000085
1752	1.7422e+02	-5.1190	-66.033411	0.000750	7.498590	1.270296	0.000150
1753	1.7432e+02	-5.0986	-65.960742	0.000365	3.647963	0.617982	0.000073
1754	1.7442e+02	-5.0787	-65.819443	0.000709	7.093261	1.201631	0.000142
1755	1.7452e+02	-5.0592	-65.750811	0.000345	3.445298	0.583649	0.000069
1756	1.7462e+02	-5.0392	-65.625660	0.000628	6.282603	1.064302	0.000126
1757	1.7472e+02	-5.0198	-65.508583	0.000588	5.877273	0.995637	0.000118
1758	1.7482e+02	-4.9994	-65.363246	0.000730	7.295926	1.235963	0.000146
1759	1.7492e+02	-4.9789	-65.302689	0.000304	3.039969	0.514985	0.000061
1760	1.7502e+02	-4.9597	-65.205798	0.000486	4.863950	0.823976	0.000097
1761	1.7512e+02	-4.9405	-65.052387	0.000770	7.701255	1.304628	0.000154
1762	1.7522e+02	-4.9200	-64.987793	0.000324	3.242634	0.549317	0.000065
1763	1.7532e+02	-4.9002	-64.866678	0.000608	6.079938	1.029969	0.000122
1764	1.7542e+02	-4.8801	-64.773824	0.000466	4.661286	0.789643	0.000093
1765	1.7552e+02	-4.8602	-64.612339	0.000811	8.106584	1.373293	0.000162
1766	1.7562e+02	-4.8392	-64.491225	0.000608	6.079938	1.029969	0.000122
1767	1.7572e+02	-4.8204	-64.418556	0.000365	3.647963	0.617982	0.000073
1768	1.7582e+02	-4.8001	-64.285331	0.000669	6.687932	1.132966	0.000134
1769	1.7592e+02	-4.7797	-64.131920	0.000770	7.701255	1.304628	0.000154
1770	1.7602e+02	-4.7610	-64.051177	0.000405	4.053292	0.686646	0.000081
1771	1.7612e+02	-4.7400	-63.970434	0.000405	4.053292	0.686646	0.000081
1772	1.7621e+02	-4.7208	-63.817023	0.000770	7.701255	1.304628	0.000154
1773	1.7631e+02	-4.7003	-63.687835	0.000649	6.485267	1.098634	0.000130
1774	1.7641e+02	-4.6805	-63.582869	0.000527	5.269280	0.892640	0.000105
1775	1.7651e+02	-4.6609	-63.473867	0.000547	5.471944	0.926972	0.000110
1776	1.7661e+02	-4.6399	-63.356790	0.000588	5.877273	0.995637	0.000118
1777	1.7671e+02	-4.6213	-63.243750	0.000567	5.674609	0.961305	0.000114
1778	1.7681e+02	-4.6008	-63.110524	0.000669	6.687932	1.132966	0.000134
1779	1.7691e+02	-4.5801	-62.973262	0.000689	6.890596	1.167299	0.000138
1780	1.7701e+02	-4.5587	-62.840036	0.000669	6.687932	1.132966	0.000134
1781	1.7711e+02	-4.5404	-62.767368	0.000365	3.647963	0.617982	0.000073
1782	1.7721e+02	-4.5220	-62.638180	0.000649	6.485267	1.098634	0.000130
1783	1.7731e+02	-4.5007	-62.504954	0.000669	6.687932	1.132966	0.000134
1784	1.7741e+02	-4.4812	-62.387877	0.000588	5.877273	0.995637	0.000118
1785	1.7751e+02	-4.4620	-62.286949	0.000507	5.066615	0.858308	0.000101
1786	1.7761e+02	-4.4415	-62.137575	0.000750	7.498590	1.270296	0.000150
1787	1.7771e+02	-4.4220	-61.996275	0.000709	7.093261	1.201631	0.000142
1788	1.7781e+02	-4.4022	-61.883235	0.000567	5.674609	0.961305	0.000114
1789	1.7791e+02	-4.3828	-61.766158	0.000588	5.877273	0.995637	0.000118
1790	1.7801e+02	-4.3625	-61.649081	0.000588	5.877273	0.995637	0.000118
1791	1.7810e+02	-4.3423	-61.511819	0.000689	6.890596	1.167299	0.000138
1792	1.7820e+02	-4.3213	-61.398779	0.000567	5.674609	0.961305	0.000114
1793	1.7830e+02	-4.3021	-61.281702	0.000588	5.877273	0.995637	0.000118
1794	1.7840e+02	-4.2833	-61.156551	0.000628	6.282603	1.064302	0.000126
1795	1.7850e+02	-4.2632	-61.087919	0.000345	3.445298	0.583649	0.000069
1796	1.7860e+02	-4.2429	-60.950657	0.000689	6.890596	1.167299	0.000138
1797	1.7870e+02	-4.2218	-60.821468	0.000649	6.485267	1.098634	0.000130
1798	1.7880e+02	-4.2026	-60.708429	0.000567	5.674609	0.961305	0.000114
1799	1.7890e+02	-4.1821	-60.591352	0.000588	5.877273	0.995637	0.000118
1800	1.7900e+02	-4.1626	-60.446015	0.000730	7.295926	1.235963	0.000146
1801	1.7910e+02	-4.1431	-60.280492	0.000831	8.309249	1.407625	0.000166
1802	1.7920e+02	-4.1228	-60.191675	0.000446	4.458621	0.755311	0.000089
1803	1.7930e+02	-4.1022	-60.038264	0.000770	7.701255	1.304628	0.000154
1804	1.7940e+02	-4.0839	-59.921187	0.000588	5.877273	0.995637	0.000118
1805	1.7950e+02	-4.0628	-59.824296	0.000486	4.863950	0.823976	0.000097
1806	1.7960e+02	-4.0429	-59.682996	0.000709	7.093261	1.201631	0.000142
1807	1.7970e+02	-4.0231	-59.553808	0.000649	6.485267	1.098634	0.000130
1808	1.7980e+02	-4.0030	-59.436731	0.000588	5.877273	0.995637	0.000118
1809	1.7990e+02	-3.9835	-59.343877	0.000466	4.661286	0.789643	0.000093
1810	1.8000e+02	-3.9641	-59.186428	0.000790	7.903919	1.338960	0.000158
1811	1.8009e+02	-3.9434	-59.049166	0.000689	6.890596	1.167299	0.000138
1812	1.8019e+02	-3.9233	-58.960349	0.000446	4.458621	0.755311	0.000089
1813	1.8029e+02	-3.9043	-58.786752	0.000871	8.714578	1.476289	0.000174
1814	1.8039e+02	-3.8831	-58.669675	0.000588	5.877273	0.995637	0.000118
1815	1.8049e+02	-3.8632	-58.516264	0.000770	7.701255	1.304628	0.000154
1816	1.8059e+02	-3.8431	-58.427447	0.000446	4.458621	0.755311	0.000089
1817	1.8069e+02	-3.8235	-58.274036	0.000770	7.701255	1.304628	0.000154
1818	1.8079e+02	-3.8042	-58.156959	0.000588	5.877273	0.995637	0.000118
1819	1.8089e+02	-3.7836	-58.056030	0.000507	5.066615	0.858308	0.000101
1820	1.8099e+02	-3.7637	-57.898582	0.000790	7.903919	1.338960	0.000158
1821	1.8109e+02	-3.7448	-57.765357	0.000669	6.687932	1.132966	0.000134
1822	1.8119e+02	-3.7250	-57.676540	0.000446	4.458621	0.755311	0.000089
1823	1.8129e+02	-3.7041	-57.531203	0.000730	7.295926	1.235963	0.000146
1824	1.8139e+02	-3.6847	-57.373755	0.000790	7.903919	1.338960	0.000158
1825	1.8149e+02	-3.6652	-57.301086	0.000365	3.647963	0.617982	0.000073
1826	1.8159e+02	-3.6447	-57.111341	0.000953	9.525236	1.613619	0.000191
1827	1.8169e+02	-3.6243	-57.002338	0.000547	5.471944	0.926972	0.000110
1828	1.8179e+02	-3.6064	-56.865075	0.000689	6.890596	1.167299	0.000138
1829	1.8189e+02	-3.5846	-56.784333	0.000405	4.053292	0.686646	0.000081
1830	1.8199e+02	-3.5641	-56.602662	0.000912	9.119907	1.544954	0.000183
1831	1.8209e+02	-3.5449	-56.481548	0.000608	6.079938	1.029969	0.000122
1832	1.8218e+02	-3.5245	-56.364471	0.000588	5.877273	0.995637	0.000118
1833	1.8228e+02	-3.5039	-56.227208	0.000689	6.890596	1.167299	0.000138
1834	1.8238e+02	-3.4854	-56.098020	0.000649	6.485267	1.098634	0.000130
1835	1.8248e+02	-3.4650	-55.956720	0.000709	7.093261	1.201631	0.000142
1836	1.8258e+02	-3.4460	-55.815420	0.000709	7.093261	1.201631	0.000142
1837	1.8268e+02	-3.4253	-55.641823	0.000871	8.714578	1.476289	0.000174
1838	1.8278e+02	-3.4056	-55.548969	0.000466	4.661286	0.789643	0.000093
1839	1.8288e+02	-3.3859	-55.444004	0.000527	5.269280	0.892640	0.000105
1840	1.8298e+02	-3.3655	-55.294630	0.000750	7.498590	1.270296	0.000150
1841	1.8308e+02	-3.3453	-55.177553	0.000588	5.877273	0.995637	0.000118
1842	1.8318e+02	-3.3252	-55.024142	0.000770	7.701255	1.304628	0.000154
1843	1.8328e+02	-3.3057	-54.894953	0.000649	6.485267	1.098634	0.000130
1844	1.8338e+02	-3.2855	-54.745579	0.000750	7.498590	1.270296	0.000150
1845	1.8348e+02	-3.2647	-54.584094	0.000811	8.106584	1.373293	0.000162
1846	1.8358e+02	-3.2465	-54.479128	0.000527	5.269280	0.892640	0.000105
1847	1.8368e+02	-3.2263	-54.333791	0.000730	7.295926	1.235963	0.000146
1848	1.8378e+02	-3.2059	-54.180380	0.000770	7.701255	1.304628	0.000154
1849	1.8388e+02	-3.1862	-54.026969	0.000770	7.701255	1.304628	0.000154
1850	1.8398e+02	-3.1659	-53.897781	0.000649	6.485267	1.098634	0.000130
1851	1.8407e+02	-3.1468	-53.768592	0.000649	6.485267	1.098634	0.000130
1852	1.8417e+02	-3.1256	-53.651515	0.000588	5.877273	0.995637	0.000118
1853	1.8427e+02	-3.1072	-53.510216	0.000709	7.093261	1.201631	0.000142
1854	1.8437e+02	-3.0868	-53.352767	0.000790	7.903919	1.338960	0.000158
1855	1.8447e+02	-3.0669	-53.199356	0.000770	7.701255	1.304628	0.000154
1856	1.8457e+02	-3.0469	-53.134762	0.000324	3.242634	0.549317	0.000065
1857	1.8467e+02	-3.0261	-52.957128	0.000892	8.917242	1.510622	0.000179
1858	1.8477e+02	-3.0070	-52.803717	0.000770	7.701255	1.304628	0.000154
1859	1.8487e+02	-2.9869	-52.682603	0.000608	6.079938	1.029969	0.000122
1860	1.8497e+02	-2.9669	-52.597823	0.000426	4.255957	0.720979	0.000085
1861	1.8507e+02	-2.9466	-52.452486	0.000730	7.295926	1.235963	0.000146
1862	1.8517e+02	-2.9272	-52.250629	0.001013	10.133230	1.716616	0.000203
1863	1.8527e+02	-2.9068	-52.125478	0.000628	6.282603	1.064302	0.000126
1864	1.8537e+02	-2.8870	-51.972067	0.000770	7.701255	1.304628	0.000154
1865	1.8547e+02	-2.8674	-51.895361	0.000385	3.850627	0.652314	0.000077
1866	1.8557e+02	-2.8473	-51.721765	0.000871	8.714578	1.476289	0.000174
1867	1.8567e+02	-2.8271	-51.592576	0.000649	6.485267	1.098634	0.000130
1868	1.8577e+02	-2.8073	-51.463388	0.000649	6.485267	1.098634	0.000130
1869	1.8587e+02	-2.7881	-51.293828	0.000851	8.511913	1.441957	0.000170
1870	1.8597e+02	-2.7673	-51.209048	0.000426	4.255957	0.720979	0.000085
1871	1.8606e+02	-2.7481	-51.047563	0.000811	8.106584	1.373293	0.000162
1872	1.8616e+02	-2.7280	-50.890115	0.000790	7.903919	1.338960	0.000158
1873	1.8626e+02	-2.7072	-50.764963	0.000628	6.282603	1.064302	0.000126
1874	1.8636e+02	-2.6874	-50.635775	0.000649	6.485267	1.098634	0.000130
1875	1.8646e+02	-2.6665	-50.498512	0.000689	6.890596	1.167299	0.000138
1876	1.8656e+02	-2.6470	-50.332990	0.000831	8.309249	1.407625	0.000166
1877	1.8666e+02	-2.6270	-50.199764	0.000669	6.687932	1.132966	0.000134
1878	1.8676e+02	-2.6074	-50.086725	0.000567	5.674609	0.961305	0.000114
1879	1.8686e+02	-2.5885	-49.965610	0.000608	6.079938	1.029969	0.000122
1880	1.8696e+02	-2.5687	-49.743568	0.001115	11.146553	1.888277	0.000223
1881	1.8706e+02	-2.5478	-49.650714	0.000466	4.661286	0.789643	0.000093
1882	1.8716e+02	-2.5285	-49.509414	0.000709	7.093261	1.201631	0.000142
1883	1.8726e+02	-2.5092	-49.388300	0.000608	6.079938	1.029969	0.000122
1884	1.8736e+02	-2.4890	-49.222777	0.000831	8.309249	1.407625	0.000166
1885	1.8746e+02	-2.4698	-49.077441	0.000730	7.295926	1.235963	0.000146
1886	1.8756e+02	-2.4495	-48.940178	0.000689	6.890596	1.167299	0.000138
1887	1.8766e+02	-2.4303	-48.730247	0.001054	10.538559	1.785280	0.000211
1888	1.8776e+02	-2.4094	-48.649504	0.000405	4.053292	0.686646	0.000081
1889	1.8786e+02	-2.3883	-48.512242	0.000689	6.890596	1.167299	0.000138
1890	1.8796e+02	-2.3694	-48.326533	0.000932	9.322572	1.579286	0.000187
1891	1.8806e+02	-2.3492	-48.225605	0.000507	5.066615	0.858308	0.000101
1892	1.8815e+02	-2.3294	-48.043934	0.000912	9.119907	1.544954	0.000183
1893	1.8825e+02	-2.3088	-47.902634	0.000709	7.093261	1.201631	0.000142
1894	1.8835e+02	-2.2898	-47.781520	0.000608	6.079938	1.029969	0.000122
1895	1.8845e+02	-2.2690	-47.632146	0.000750	7.498590	1.270296	0.000150
1896	1.8855e+02	-2.2508	-47.482772	0.000750	7.498590	1.270296	0.000150
1897	1.8865e+02	-2.2294	-47.329361	0.000770	7.701255	1.304628	0.000154
1898	1.8875e+02	-2.2091	-47.204210	0.000628	6.282603	1.064302	0.000126
1899	1.8885e+02	-2.1912	-47.030613	0.000871	8.714578	1.476289	0.000174
1900	1.8895e+02	-2.1704	-46.865090	0.000831	8.309249	1.407625	0.000166
1901	1.8905e+02	-2.1506	-46.780310	0.000426	4.255957	0.720979	0.000085
1902	1.8915e+02	-2.1300	-46.606714	0.000871	8.714578	1.476289	0.000174
1903	1.8925e+02	-2.1101	-46.445228	0.000811	8.106584	1.373293	0.000162
1904	1.8935e+02	-2.0898	-46.324114	0.000608	6.079938	1.029969	0.000122
1905	1.8945e+02	-2.0706	-46.122257	0.001013	10.133230	1.716616	0.000203
1906	1.8955e+02	-2.0502	-45.968846	0.000770	7.701255	1.304628	0.000154
1907	1.8965e+02	-2.0296	-45.855806	0.000567	5.674609	0.961305	0.000114
1908	1.8975e+02	-2.0108	-45.706432	0.000750	7.498590	1.270296	0.000150
1909	1.8985e+02	-1.9901	-45.520724	0.000932	9.322572	1.579286	0.000187
1910	1.8995e+02	-1.9705	-45.419796	0.000507	5.066615	0.858308	0.000101
1911	1.9004e+02	-1.9498	-45.242162	0.000892	8.917242	1.510622	0.000179
1912	1.9014e+02	-1.9308	-45.108936	0.000669	6.687932	1.132966	0.000134
1913	1.9024e+02	-1.9104	-44.919191	0.000953	9.525236	1.613619	0.000191
1914	1.9034e+02	-1.8912	-44.802114	0.000588	5.877273	0.995637	0.000118
1915	1.9044e+02	-1.8710	-44.636591	0.000831	8.309249	1.407625	0.000166
1916	1.9054e+02	-1.8508	-44.479143	0.000790	7.903919	1.338960	0.000158
1917	1.9064e+02	-1.8311	-44.337843	0.000709	7.093261	1.201631	0.000142
1918	1.9074e+02	-1.8112	-44.188469	0.000750	7.498590	1.270296	0.000150
1919	1.9084e+02	-1.7917	-44.018910	0.000851	8.511913	1.441957	0.000170
1920	1.9094e+02	-1.7705	-43.881647	0.000689	6.890596	1.167299	0.000138
1921	1.9104e+02	-1.7505	-43.740347	0.000709	7.093261	1.201631	0.000142
1922	1.9114e+02	-1.7310	-43.582899	0.000790	7.903919	1.338960	0.000158
1923	1.9124e+02	-1.7108	-43.425451	0.000790	7.903919	1.338960	0.000158
1924	1.9134e+02	-1.6912	-43.284151	0.000709	7.093261	1.201631	0.000142
1925	1.9144e+02	-1.6719	-43.183222	0.000507	5.066615	0.858308	0.000101
1926	1.9154e+02	-1.6525	-42.997514	0.000932	9.322572	1.579286	0.000187
1927	1.9164e+02	-1.6318	-42.803732	0.000973	9.727901	1.647951	0.000195
1928	1.9174e+02	-1.6113	-42.658395	0.000730	7.295926	1.235963	0.000146
1929	1.9184e+02	-1.5915	-42.488835	0.000851	8.511913	1.441957	0.000170
1930	1.9194e+02	-1.5723	-42.367721	0.000608	6.079938	1.029969	0.000122
1931	1.9203e+02	-1.5511	-42.230458	0.000689	6.890596	1.167299	0.000138
1932	1.9213e+02	-1.5316	-42.060899	0.000851	8.511913	1.441957	0.000170
1933	1.9223e+02	-1.5116	-41.903450	0.000790	7.903919	1.338960	0.000158
1934	1.9233e+02	-1.4919	-41.766188	0.000689	6.890596	1.167299	0.000138
1935	1.9243e+02	-1.4733	-41.580480	0.000932	9.322572	1.579286	0.000187
1936	1.9253e+02	-1.4517	-41.447254	0.000669	6.687932	1.132966	0.000134
1937	1.9263e+02	-1.4325	-41.273657	0.000871	8.714578	1.476289	0.000174
1938	1.9273e+02	-1.4124	-41.100060	0.000871	8.714578	1.476289	0.000174
1939	1.9283e+02	-1.3937	-40.974909	0.000628	6.282603	1.064302	0.000126
1940	1.9293e+02	-1.3721	-40.789201	0.000932	9.322572	1.579286	0.000187
1941	1.9303e+02	-1.3528	-40.647901	0.000709	7.093261	1.201631	0.000142
1942	1.9313e+02	-1.3327	-40.478341	0.000851	8.511913	1.441957	0.000170
1943	1.9323e+02	-1.3121	-40.280522	0.000993	9.930565	1.682283	0.000199
1944	1.9333e+02	-1.2926	-40.171519	0.000547	5.471944	0.926972	0.000110
1945	1.9343e+02	-1.2727	-39.965625	0.001034	10.335895	1.750948	0.000207
1946	1.9353e+02	-1.2531	-39.848548	0.000588	5.877273	0.995637	0.000118
1947	1.9363e+02	-1.2338	-39.674951	0.000871	8.714578	1.476289	0.000174
1948	1.9373e+02	-1.2130	-39.489243	0.000932	9.322572	1.579286	0.000187
1949	1.9383e+02	-1.1943	-39.343906	0.000730	7.295926	1.235963	0.000146
1950	1.9393e+02	-1.1728	-39.182421	0.000811	8.106584	1.373293	0.000162
1951	1.9403e+02	-1.1540	-39.008824	0.000871	8.714578	1.476289	0.000174
1952	1.9412e+02	-1.1333	-38.863487	0.000730	7.295926	1.235963	0.000146
1953	1.9422e+02	-1.1140	-38.669705	0.000973	9.727901	1.647951	0.000195
1954	1.9432e+02	-1.0938	-38.504182	0.000831	8.309249	1.407625	0.000166
1955	1.9442e+02	-1.0739	-38.358845	0.000730	7.295926	1.235963	0.000146
1956	1.9452e+02	-1.0533	-38.229657	0.000649	6.485267	1.098634	0.000130
1957	1.9462e+02	-1.0291	-38.027800	0.001013	10.133230	1.716616	0.000203
1958	1.9472e+02	-1.0150	-37.862278	0.000831	8.309249	1.407625	0.000166
1959	1.9482e+02	-0.9949	-37.720978	0.000709	7.093261	1.201631	0.000142
1960	1.9492e+02	-0.9747	-37.547381	0.000871	8.714578	1.476289	0.000174
1961	1.9502e+02	-0.9536	-37.418193	0.000649	6.485267	1.098634	0.000130
1962	1.9512e+02	-0.9343	-37.216336	0.001013	10.133230	1.716616	0.000203
1963	1.9522e+02	-0.9146	-37.062925	0.000770	7.701255	1.304628	0.000154
1964	1.9532e+02	-0.8936	-36.881254	0.000912	9.119907	1.544954	0.000183
1965	1.9542e+02	-0.8749	-36.711694	0.000851	8.511913	1.441957	0.000170
1966	1.9552e+02	-0.8549	-36.546171	0.000831	8.309249	1.407625	0.000166
1967	1.9562e+02	-0.8355	-36.404872	0.000709	7.093261	1.201631	0.000142
1968	1.9572e+02	-0.8145	-36.215126	0.000953	9.525236	1.613619	0.000191
1969	1.9582e+02	-0.7941	-36.077864	0.000689	6.890596	1.167299	0.000138
1970	1.9592e+02	-0.7758	-35.916378	0.000811	8.106584	1.373293	0.000162
1971	1.9601e+02	-0.7536	-35.758930	0.000790	7.903919	1.338960	0.000158
1972	1.9611e+02	-0.7357	-35.569184	0.000953	9.525236	1.613619	0.000191
1973	1.9621e+02	-0.7153	-35.403662	0.000831	8.309249	1.407625	0.000166
1974	1.9631e+02	-0.6950	-35.270436	0.000669	6.687932	1.132966	0.000134
1975	1.9641e+02	-0.6749	-35.121062	0.000750	7.498590	1.270296	0.000150
1976	1.9651e+02	-0.6530	-34.907094	0.001074	10.741224	1.819613	0.000215
1977	1.9661e+02	-0.6352	-34.785980	0.000608	6.079938	1.029969	0.000122
1978	1.9671e+02	-0.6156	-34.596235	0.000953	9.525236	1.613619	0.000191
1979	1.9681e+02	-0.5957	-34.426675	0.000851	8.511913	1.441957	0.000170
1980	1.9691e+02	-0.5763	-34.249041	0.000892	8.917242	1.510622	0.000179
1981	1.9701e+02	-0.5557	-34.103704	0.000730	7.295926	1.235963	0.000146
1982	1.9711e+02	-0.5356	-33.934144	0.000851	8.511913	1.441957	0.000170
1983	1.9721e+02	-0.5157	-33.724213	0.001054	10.538559	1.785280	0.000211
1984	1.9731e+02	-0.4964	-33.599062	0.000628	6.282603	1.064302	0.000126
1985	1.9741e+02	-0.4762	-33.393168	0.001034	10.335895	1.750948	0.000207
1986	1.9751e+02	-0.4553	-33.288203	0.000527	5.269280	0.892640	0.000105
1987	1.9761e+02	-0.4361	-33.122680	0.000831	8.309249	1.407625	0.000166
1988	1.9771e+02	-0.4154	-32.924861	0.000993	9.930565	1.682283	0.000199
1989	1.9781e+02	-0.3962	-32.767412	0.000790	7.903919	1.338960	0.000158
1990	1.9791e+02	-0.3760	-32.609964	0.000790	7.903919	1.338960	0.000158
1991	1.9800e+02	-0.3568	-32.420219	0.000953	9.525236	1.613619	0.000191
1992	1.9810e+02	-0.3368	-32.274882	0.000730	7.295926	1.235963	0.000146
1993	1.9820e+02	-0.3164	-32.109359	0.000831	8.309249	1.407625	0.000166
1994	1.9830e+02	-0.2960	-31.907502	0.001013	10.133230	1.716616	0.000203
1995	1.9840e+02	-0.2761	-31.750054	0.000790	7.903919	1.338960	0.000158
1996	1.9850e+02	-0.2560	-31.576457	0.000871	8.714578	1.476289	0.000174
1997	1.9860e+02	-0.2377	-31.410935	0.000831	8.309249	1.407625	0.000166
1998	1.9870e+02	-0.2165	-31.261561	0.000750	7.498590	1.270296	0.000150
1999	1.9880e+02	-0.1971	-31.067778	0.000973	9.727901	1.647951	0.000195
2000	1.9890e+02	-0.1765	-30.869958	0.000993	9.930565	1.682283	0.000199
2001	1.9900e+02	-0.1575	-30.704436	0.000831	8.309249	1.407625	0.000166
2002	1.9910e+02	-0.1366	-30.534876	0.000851	8.511913	1.441957	0.000170
2003	1.9920e+02	-0.1173	-30.389539	0.000730	7.295926	1.235963	0.000146
2004	1.9930e+02	-0.0972	-30.195757	0.000973	9.727901	1.647951	0.000195
2005	1.9940e+02	-0.0773	-30.090791	0.000527	5.269280	0.892640	0.000105
2006	1.9950e+02	-0.0571	-29.909120	0.000912	9.119907	1.544954	0.000183
2007	1.9960e+02	-0.0370	-29.674966	0.001175	11.754547	1.991274	0.000235
2008	1.9970e+02	-0.0172	-29.541741	0.000669	6.687932	1.132966	0.000134
2009	1.9980e+02	0.0014	-29.388330	0.000669	6.687932	1.132966	0.000154

PMax (uC/cm2):	7.80e+01
Pr (uC/cm2):	3.33e+01
-Pr (uC/cm2):	-2.73e+01
PLoss (uC/cm2):	-2.73e+01
-Vc:	-3.96e+00
C (Max-Eff) (nF):	7.80e-01
K (Eff):	1.32e+03
Vert. (+/-Pr) Shift (uC/cm2):	2.99e+00
Offset (uC/cm2):	2.07e+00

A (Loop Area - uC/cm2·Volts):	-1.73e-01



Hysteresis Version: 5.48.1 - Radiant Technologies, Inc., 1999 - 9/12/24

