»»»»»»»»»»»»»»»»»»»»»»»»»»»»»»»»»»»» Hysteresis ««««««««««««««««««««««««««««««««««««
»»»  Executed Version:	5.48.1
»»»  Vision Version:	5.48.4 (R)
»»»  Vision Compiled:	9/18/24
»»»  Driver Version:	5.47.0
»»»  Windows Version:	Windows 8 or 8.1
»»»  Processor Information:	x86 (AMD or Intel) - 32 Processors
»»»  Tester Name:	PMF21124-494 (100V)
»»»  Tester S/N:	PMF21124-494
»»»  Internal Amp Type:	100V RevK 270k
»»»  Internal Amp S/N:	iAB2-596/K     
»»»  Execution Count:	1
»»»»»»»»»»»»»»»»»»»»»»»»»»»»»»»»»»»»»»»»»»««««««««««««««««««««««««««««««««««««««««««

Stored:	7/2/2025 - 14:38:9
Configured:	07/02/25 01:35:59 PM
Executed:	07/02/25 02:36:55 PM

»»»»»»»»»»»»»»»»»»»»»»»»»»»»»»»»»»» Sample Info ««««««««««««««««««««««««««««««««««««
Sample Name:	
Lot Name:	
Wafer Name:	
Die Row/Column:	0/0
Capacitor Number:	0
Sample Area (cm2):	1.00e-04
Sample Thickness (microns):	1.50e-01

Amplifier:	Internal

»»»»»»»»»»»»»»»»»»»»»»»»»»»»»»»»»»» Tester Info «««««««««««««««««««««««««««««««««««
Tester Name:	PMF21124-494 (100V)
Tester Serial Number:	PMF21124-494
Return Signal Amp. Level:	0.19 [Index: 3]

»»»»»»»»»»»»»»»»»»»»»»»»»»»»»»»» Hysteresis Info ««««««««««««««««««««««««««««««««««
Task Name:	Hyst-220
Volts:	10.00
Field:	666.67 (kV/cm)
DCBias:	0.00
DCField:	0.00 (kV/cm)
Hysteresis Period (ms):	2.00e+02
Preset:	Enabled
Preset Delay (ms):	1.00e+03
Profile:	Standard Bipolar

»»»»»»»»»»»»»»»»»»»»»»»»»»»»»»»»»»»»»» Data «««««««««««««««««««««««««««««««««««««««
Points:	2009

Valid Data

Point	Time (ms)	Drive Voltage	Measured Polarization (uC/cm2)	Capacitance (uF)	Normalized Capacitance (uF/cm2)	Dielectric Constant	Instantaneous Current (mA)
   1	0.0000e+00	-0.0007	25.415788	0.000730	7.296413	1.236046	0.000146
   2	9.9500e-02	0.0194	25.561125	0.000730	7.296413	1.236046	0.000146
   3	1.9900e-01	0.0384	25.649942	0.000446	4.458919	0.755361	0.000089
   4	2.9850e-01	0.0592	25.754907	0.000527	5.269631	0.892700	0.000105
   5	3.9800e-01	0.0786	25.916393	0.000811	8.107125	1.373384	0.000162
   6	4.9750e-01	0.0991	26.057693	0.000709	7.093735	1.201711	0.000142
   7	5.9700e-01	0.1176	26.190918	0.000669	6.688378	1.133042	0.000134
   8	6.9650e-01	0.1384	26.328181	0.000689	6.891056	1.167377	0.000138
   9	7.9600e-01	0.1592	26.469480	0.000709	7.093735	1.201711	0.000142
  10	8.9550e-01	0.1786	26.566372	0.000486	4.864275	0.824031	0.000097
  11	9.9500e-01	0.1994	26.744006	0.000892	8.917838	1.510723	0.000179
  12	1.0945e+00	0.2186	26.853008	0.000547	5.472310	0.927034	0.000110
  13	1.1940e+00	0.2391	26.982197	0.000649	6.485700	1.098707	0.000130
  14	1.2935e+00	0.2583	27.143682	0.000811	8.107125	1.373384	0.000162
  15	1.3930e+00	0.2779	27.208276	0.000324	3.242850	0.549354	0.000065
  16	1.4925e+00	0.2982	27.422245	0.001074	10.741941	1.819734	0.000215
  17	1.5920e+00	0.3182	27.539321	0.000588	5.877666	0.995704	0.000118
  18	1.6915e+00	0.3382	27.648324	0.000547	5.472310	0.927034	0.000110
  19	1.7910e+00	0.3586	27.805772	0.000790	7.904447	1.339050	0.000158
  20	1.8905e+00	0.3777	27.930924	0.000628	6.283022	1.064373	0.000126
  21	1.9900e+00	0.3983	28.068186	0.000689	6.891056	1.167377	0.000138
  22	2.0895e+00	0.4179	28.233709	0.000831	8.309803	1.407719	0.000166
  23	2.1890e+00	0.4380	28.370971	0.000689	6.891056	1.167377	0.000138
  24	2.2885e+00	0.4581	28.504197	0.000669	6.688378	1.133042	0.000134
  25	2.3880e+00	0.4781	28.669719	0.000831	8.309803	1.407719	0.000166
  26	2.4875e+00	0.4982	28.762574	0.000466	4.661597	0.789696	0.000093
  27	2.5870e+00	0.5173	28.887725	0.000628	6.283022	1.064373	0.000126
  28	2.6865e+00	0.5375	29.061322	0.000872	8.715160	1.476388	0.000174
  29	2.7860e+00	0.5585	29.226844	0.000831	8.309803	1.407719	0.000166
  30	2.8855e+00	0.5776	29.347958	0.000608	6.080344	1.030038	0.000122
  31	2.9850e+00	0.5971	29.481184	0.000669	6.688378	1.133042	0.000134
  32	3.0845e+00	0.6150	29.626521	0.000730	7.296413	1.236046	0.000146
  33	3.1840e+00	0.6375	29.783969	0.000790	7.904447	1.339050	0.000158
  34	3.2835e+00	0.6576	29.905083	0.000608	6.080344	1.030038	0.000122
  35	3.3830e+00	0.6767	30.058494	0.000770	7.701769	1.304715	0.000154
  36	3.4825e+00	0.6968	30.203831	0.000730	7.296413	1.236046	0.000146
  37	3.5820e+00	0.7171	30.349168	0.000730	7.296413	1.236046	0.000146
  38	3.6815e+00	0.7361	30.486431	0.000689	6.891056	1.167377	0.000138
  39	3.7810e+00	0.7575	30.631767	0.000730	7.296413	1.236046	0.000146
  40	3.8805e+00	0.7775	30.760956	0.000649	6.485700	1.098707	0.000130
  41	3.9800e+00	0.7965	30.950701	0.000953	9.525872	1.613726	0.000191
  42	4.0795e+00	0.8167	31.063741	0.000567	5.674988	0.961369	0.000114
  43	4.1790e+00	0.8363	31.213115	0.000750	7.499091	1.270380	0.000150
  44	4.2785e+00	0.8564	31.354415	0.000709	7.093735	1.201711	0.000142
  45	4.3780e+00	0.8766	31.515900	0.000811	8.107125	1.373384	0.000162
  46	4.4775e+00	0.8972	31.624903	0.000547	5.472310	0.927034	0.000110
  47	4.5770e+00	0.9164	31.762165	0.000689	6.891056	1.167377	0.000138
  48	4.6765e+00	0.9360	31.955948	0.000973	9.728550	1.648061	0.000195
  49	4.7760e+00	0.9559	32.105322	0.000750	7.499091	1.270380	0.000150
  50	4.8755e+00	0.9761	32.198176	0.000466	4.661597	0.789696	0.000093
  51	4.9750e+00	0.9953	32.331402	0.000669	6.688378	1.133042	0.000134
  52	5.0745e+00	1.0154	32.525184	0.000973	9.728550	1.648061	0.000195
  53	5.1740e+00	1.0355	32.654372	0.000649	6.485700	1.098707	0.000130
  54	5.2735e+00	1.0559	32.751264	0.000486	4.864275	0.824031	0.000097
  55	5.3730e+00	1.0754	32.949083	0.000993	9.931228	1.682396	0.000199
  56	5.4725e+00	1.0955	33.062123	0.000567	5.674988	0.961369	0.000114
  57	5.5720e+00	1.1158	33.263980	0.001013	10.133907	1.716730	0.000203
  58	5.6715e+00	1.1346	33.377020	0.000567	5.674988	0.961369	0.000114
  59	5.7710e+00	1.1550	33.546579	0.000851	8.512481	1.442053	0.000170
  60	5.8705e+00	1.1753	33.671731	0.000628	6.283022	1.064373	0.000126
  61	5.9700e+00	1.1956	33.841290	0.000851	8.512481	1.442053	0.000170
  62	6.0695e+00	1.2151	33.994701	0.000770	7.701769	1.304715	0.000154
  63	6.1690e+00	1.2351	34.107741	0.000567	5.674988	0.961369	0.000114
  64	6.2685e+00	1.2548	34.245004	0.000689	6.891056	1.167377	0.000138
  65	6.3680e+00	1.2740	34.410526	0.000831	8.309803	1.407719	0.000166
  66	6.4675e+00	1.2941	34.543752	0.000669	6.688378	1.133042	0.000134
  67	6.5670e+00	1.3142	34.672940	0.000649	6.485700	1.098707	0.000130
  68	6.6665e+00	1.3342	34.834426	0.000811	8.107125	1.373384	0.000162
  69	6.7660e+00	1.3546	35.012060	0.000892	8.917838	1.510723	0.000179
  70	6.8655e+00	1.3740	35.145285	0.000669	6.688378	1.133042	0.000134
  71	6.9650e+00	1.3940	35.278511	0.000669	6.688378	1.133042	0.000134
  72	7.0645e+00	1.4140	35.448070	0.000851	8.512481	1.442053	0.000170
  73	7.1640e+00	1.4339	35.601482	0.000770	7.701769	1.304715	0.000154
  74	7.2635e+00	1.4533	35.718558	0.000588	5.877666	0.995704	0.000118
  75	7.3630e+00	1.4733	35.851784	0.000669	6.688378	1.133042	0.000134
  76	7.4625e+00	1.4941	36.013269	0.000811	8.107125	1.373384	0.000162
  77	7.5620e+00	1.5139	36.207052	0.000973	9.728550	1.648061	0.000195
  78	7.6615e+00	1.5331	36.332203	0.000628	6.283022	1.064373	0.000126
  79	7.7610e+00	1.5525	36.465429	0.000669	6.688378	1.133042	0.000134
  80	7.8605e+00	1.5724	36.647100	0.000912	9.120516	1.545057	0.000183
  81	7.9600e+00	1.5940	36.776288	0.000649	6.485700	1.098707	0.000130
  82	8.0595e+00	1.6130	36.917588	0.000709	7.093735	1.201711	0.000142
  83	8.1590e+00	1.6325	37.050813	0.000669	6.688378	1.133042	0.000134
  84	8.2585e+00	1.6531	37.240559	0.000953	9.525872	1.613726	0.000191
  85	8.3580e+00	1.6735	37.373784	0.000669	6.688378	1.133042	0.000134
  86	8.4575e+00	1.6931	37.547381	0.000872	8.715160	1.476388	0.000174
  87	8.5570e+00	1.7127	37.644272	0.000486	4.864275	0.824031	0.000097
  88	8.6565e+00	1.7333	37.817869	0.000872	8.715160	1.476388	0.000174
  89	8.7560e+00	1.7519	37.943020	0.000628	6.283022	1.064373	0.000126
  90	8.8555e+00	1.7718	38.096431	0.000770	7.701769	1.304715	0.000154
  91	8.9550e+00	1.7927	38.294251	0.000993	9.931228	1.682396	0.000199
  92	9.0545e+00	1.8129	38.379031	0.000426	4.256241	0.721027	0.000085
  93	9.1540e+00	1.8330	38.564739	0.000932	9.323194	1.579392	0.000187
  94	9.2535e+00	1.8519	38.689890	0.000628	6.283022	1.064373	0.000126
  95	9.3530e+00	1.8723	38.863487	0.000872	8.715160	1.476388	0.000174
  96	9.4525e+00	1.8918	39.041121	0.000892	8.917838	1.510723	0.000179
  97	9.5520e+00	1.9116	39.186458	0.000730	7.296413	1.236046	0.000146
  98	9.6515e+00	1.9318	39.319684	0.000669	6.688378	1.133042	0.000134
  99	9.7510e+00	1.9512	39.469058	0.000750	7.499091	1.270380	0.000150
 100	9.8505e+00	1.9711	39.666877	0.000993	9.931228	1.682396	0.000199
 101	9.9500e+00	1.9913	39.808177	0.000709	7.093735	1.201711	0.000142
 102	1.0050e+01	2.0116	39.945440	0.000689	6.891056	1.167377	0.000138
 103	1.0149e+01	2.0318	40.114999	0.000851	8.512481	1.442053	0.000170
 104	1.0248e+01	2.0519	40.244188	0.000649	6.485700	1.098707	0.000130
 105	1.0348e+01	2.0707	40.389524	0.000730	7.296413	1.236046	0.000146
 106	1.0447e+01	2.0904	40.514676	0.000628	6.283022	1.064373	0.000126
 107	1.0547e+01	2.1107	40.676161	0.000811	8.107125	1.373384	0.000162
 108	1.0646e+01	2.1311	40.813424	0.000689	6.891056	1.167377	0.000138
 109	1.0746e+01	2.1510	41.003169	0.000953	9.525872	1.613726	0.000191
 110	1.0845e+01	2.1709	41.116209	0.000567	5.674988	0.961369	0.000114
 111	1.0945e+01	2.1913	41.277694	0.000811	8.107125	1.373384	0.000162
 112	1.1044e+01	2.2112	41.406883	0.000649	6.485700	1.098707	0.000130
 113	1.1144e+01	2.2304	41.608739	0.001013	10.133907	1.716730	0.000203
 114	1.1243e+01	2.2517	41.733891	0.000628	6.283022	1.064373	0.000126
 115	1.1343e+01	2.2709	41.899413	0.000831	8.309803	1.407719	0.000166
 116	1.1443e+01	2.2906	42.032639	0.000669	6.688378	1.133042	0.000134
 117	1.1542e+01	2.3111	42.157790	0.000628	6.283022	1.064373	0.000126
 118	1.1642e+01	2.3310	42.311201	0.000770	7.701769	1.304715	0.000154
 119	1.1741e+01	2.3486	42.468649	0.000790	7.904447	1.339050	0.000158
 120	1.1841e+01	2.3704	42.609949	0.000709	7.093735	1.201711	0.000142
 121	1.1940e+01	2.3900	42.787583	0.000892	8.917838	1.510723	0.000179
 122	1.2040e+01	2.4103	42.868326	0.000405	4.053563	0.686692	0.000081
 123	1.2139e+01	2.4295	43.033848	0.000831	8.309803	1.407719	0.000166
 124	1.2239e+01	2.4496	43.171111	0.000689	6.891056	1.167377	0.000138
 125	1.2338e+01	2.4699	43.324522	0.000770	7.701769	1.304715	0.000154
 126	1.2438e+01	2.4895	43.481970	0.000790	7.904447	1.339050	0.000158
 127	1.2537e+01	2.5086	43.651530	0.000851	8.512481	1.442053	0.000170
 128	1.2636e+01	2.5293	43.760533	0.000547	5.472310	0.927034	0.000110
 129	1.2736e+01	2.5501	43.946241	0.000932	9.323194	1.579392	0.000187
 130	1.2835e+01	2.5688	44.071392	0.000628	6.283022	1.064373	0.000126
 131	1.2935e+01	2.5896	44.180395	0.000547	5.472310	0.927034	0.000110
 132	1.3034e+01	2.6041	44.353992	0.000872	8.715160	1.476388	0.000174
 133	1.3134e+01	2.6292	44.515477	0.000811	8.107125	1.373384	0.000162
 134	1.3233e+01	2.6485	44.668888	0.000770	7.701769	1.304715	0.000154
 135	1.3333e+01	2.6695	44.790002	0.000608	6.080344	1.030038	0.000122
 136	1.3432e+01	2.6883	44.979748	0.000953	9.525872	1.613726	0.000191
 137	1.3532e+01	2.7089	45.088750	0.000547	5.472310	0.927034	0.000110
 138	1.3632e+01	2.7287	45.242162	0.000770	7.701769	1.304715	0.000154
 139	1.3731e+01	2.7491	45.399610	0.000790	7.904447	1.339050	0.000158
 140	1.3831e+01	2.7664	45.536873	0.000689	6.891056	1.167377	0.000138
 141	1.3930e+01	2.7885	45.690284	0.000770	7.701769	1.304715	0.000154
 142	1.4030e+01	2.8081	45.859843	0.000851	8.512481	1.442053	0.000170
 143	1.4129e+01	2.8277	45.940586	0.000405	4.053563	0.686692	0.000081
 144	1.4229e+01	2.8484	46.085923	0.000730	7.296413	1.236046	0.000146
 145	1.4328e+01	2.8683	46.291817	0.001034	10.336585	1.751065	0.000207
 146	1.4428e+01	2.8878	46.433117	0.000709	7.093735	1.201711	0.000142
 147	1.4527e+01	2.9072	46.562305	0.000649	6.485700	1.098707	0.000130
 148	1.4627e+01	2.9281	46.663233	0.000507	5.066953	0.858365	0.000101
 149	1.4726e+01	2.9479	46.800496	0.000689	6.891056	1.167377	0.000138
 150	1.4825e+01	2.9675	46.970056	0.000851	8.512481	1.442053	0.000170
 151	1.4925e+01	2.9884	47.107318	0.000689	6.891056	1.167377	0.000138
 152	1.5024e+01	3.0083	47.288989	0.000912	9.120516	1.545057	0.000183
 153	1.5124e+01	3.0277	47.438363	0.000750	7.499091	1.270380	0.000150
 154	1.5223e+01	3.0470	47.571589	0.000669	6.688378	1.133042	0.000134
 155	1.5323e+01	3.0674	47.725000	0.000770	7.701769	1.304715	0.000154
 156	1.5422e+01	3.0874	47.866300	0.000709	7.093735	1.201711	0.000142
 157	1.5522e+01	3.1081	47.979340	0.000567	5.674988	0.961369	0.000114
 158	1.5621e+01	3.1276	48.140825	0.000811	8.107125	1.373384	0.000162
 159	1.5721e+01	3.1475	48.257902	0.000588	5.877666	0.995704	0.000118
 160	1.5820e+01	3.1670	48.431499	0.000872	8.715160	1.476388	0.000174
 161	1.5920e+01	3.1866	48.572799	0.000709	7.093735	1.201711	0.000142
 162	1.6020e+01	3.2062	48.710061	0.000689	6.891056	1.167377	0.000138
 163	1.6119e+01	3.2275	48.859435	0.000750	7.499091	1.270380	0.000150
 164	1.6218e+01	3.2473	48.996698	0.000689	6.891056	1.167377	0.000138
 165	1.6318e+01	3.2668	49.133960	0.000689	6.891056	1.167377	0.000138
 166	1.6418e+01	3.2861	49.271223	0.000689	6.891056	1.167377	0.000138
 167	1.6517e+01	3.3065	49.428671	0.000790	7.904447	1.339050	0.000158
 168	1.6616e+01	3.3257	49.578045	0.000750	7.499091	1.270380	0.000150
 169	1.6716e+01	3.3463	49.703197	0.000628	6.283022	1.064373	0.000126
 170	1.6816e+01	3.3659	49.868719	0.000831	8.309803	1.407719	0.000166
 171	1.6915e+01	3.3862	49.993870	0.000628	6.283022	1.064373	0.000126
 172	1.7015e+01	3.4057	50.119022	0.000628	6.283022	1.064373	0.000126
 173	1.7114e+01	3.4254	50.292618	0.000872	8.715160	1.476388	0.000174
 174	1.7213e+01	3.4466	50.417770	0.000628	6.283022	1.064373	0.000126
 175	1.7313e+01	3.4655	50.579255	0.000811	8.107125	1.373384	0.000162
 176	1.7413e+01	3.4859	50.696332	0.000588	5.877666	0.995704	0.000118
 177	1.7512e+01	3.5056	50.861855	0.000831	8.309803	1.407719	0.000166
 178	1.7611e+01	3.5270	50.995080	0.000669	6.688378	1.133042	0.000134
 179	1.7711e+01	3.5452	51.124268	0.000649	6.485700	1.098707	0.000130
 180	1.7811e+01	3.5617	51.257494	0.000669	6.688378	1.133042	0.000134
 181	1.7910e+01	3.5853	51.402831	0.000730	7.296413	1.236046	0.000146
 182	1.8009e+01	3.6057	51.515871	0.000567	5.674988	0.961369	0.000114
 183	1.8109e+01	3.6249	51.669282	0.000770	7.701769	1.304715	0.000154
 184	1.8209e+01	3.6454	51.806544	0.000689	6.891056	1.167377	0.000138
 185	1.8308e+01	3.6663	51.968030	0.000811	8.107125	1.373384	0.000162
 186	1.8407e+01	3.6852	52.101255	0.000669	6.688378	1.133042	0.000134
 187	1.8507e+01	3.7062	52.218332	0.000588	5.877666	0.995704	0.000118
 188	1.8607e+01	3.7251	52.327335	0.000547	5.472310	0.927034	0.000110
 189	1.8706e+01	3.7454	52.504969	0.000892	8.917838	1.510723	0.000179
 190	1.8805e+01	3.7657	52.662417	0.000790	7.904447	1.339050	0.000158
 191	1.8905e+01	3.7854	52.775457	0.000567	5.674988	0.961369	0.000114
 192	1.9005e+01	3.8052	52.924831	0.000750	7.499091	1.270380	0.000150
 193	1.9104e+01	3.8247	53.033834	0.000547	5.472310	0.927034	0.000110
 194	1.9203e+01	3.8439	53.175133	0.000709	7.093735	1.201711	0.000142
 195	1.9303e+01	3.8648	53.320470	0.000730	7.296413	1.236046	0.000146
 196	1.9402e+01	3.8831	53.465807	0.000730	7.296413	1.236046	0.000146
 197	1.9502e+01	3.9045	53.647478	0.000912	9.120516	1.545057	0.000183
 198	1.9602e+01	3.9249	53.724184	0.000385	3.850884	0.652357	0.000077
 199	1.9701e+01	3.9439	53.885669	0.000811	8.107125	1.373384	0.000162
 200	1.9800e+01	3.9648	54.059266	0.000872	8.715160	1.476388	0.000174
 201	1.9900e+01	3.9844	54.156157	0.000486	4.864275	0.824031	0.000097
 202	2.0000e+01	4.0034	54.293420	0.000689	6.891056	1.167377	0.000138
 203	2.0099e+01	4.0237	54.442794	0.000750	7.499091	1.270380	0.000150
 204	2.0198e+01	4.0436	54.576019	0.000669	6.688378	1.133042	0.000134
 205	2.0298e+01	4.0630	54.705208	0.000649	6.485700	1.098707	0.000130
 206	2.0398e+01	4.0842	54.862656	0.000790	7.904447	1.339050	0.000158
 207	2.0497e+01	4.1029	55.007993	0.000730	7.296413	1.236046	0.000146
 208	2.0596e+01	4.1236	55.104884	0.000486	4.864275	0.824031	0.000097
 209	2.0696e+01	4.1439	55.270407	0.000831	8.309803	1.407719	0.000166
 210	2.0796e+01	4.1631	55.399595	0.000649	6.485700	1.098707	0.000130
 211	2.0895e+01	4.1822	55.512635	0.000567	5.674988	0.961369	0.000114
 212	2.0994e+01	4.2033	55.678158	0.000831	8.309803	1.407719	0.000166
 213	2.1094e+01	4.2229	55.775049	0.000486	4.864275	0.824031	0.000097
 214	2.1194e+01	4.2435	55.912311	0.000689	6.891056	1.167377	0.000138
 215	2.1293e+01	4.2629	56.057648	0.000730	7.296413	1.236046	0.000146
 216	2.1392e+01	4.2831	56.198948	0.000709	7.093735	1.201711	0.000142
 217	2.1492e+01	4.3022	56.324099	0.000628	6.283022	1.064373	0.000126
 218	2.1591e+01	4.3227	56.473473	0.000750	7.499091	1.270380	0.000150
 219	2.1691e+01	4.3426	56.602662	0.000649	6.485700	1.098707	0.000130
 220	2.1791e+01	4.3629	56.715701	0.000567	5.674988	0.961369	0.000114
 221	2.1890e+01	4.3836	56.885261	0.000851	8.512481	1.442053	0.000170
 222	2.1989e+01	4.4024	57.002338	0.000588	5.877666	0.995704	0.000118
 223	2.2089e+01	4.4222	57.131526	0.000649	6.485700	1.098707	0.000130
 224	2.2189e+01	4.4429	57.256678	0.000628	6.283022	1.064373	0.000126
 225	2.2288e+01	4.4616	57.393940	0.000689	6.891056	1.167377	0.000138
 226	2.2387e+01	4.4810	57.523129	0.000649	6.485700	1.098707	0.000130
 227	2.2487e+01	4.5027	57.664428	0.000709	7.093735	1.201711	0.000142
 228	2.2587e+01	4.5217	57.809765	0.000730	7.296413	1.236046	0.000146
 229	2.2686e+01	4.5415	57.951065	0.000709	7.093735	1.201711	0.000142
 230	2.2785e+01	4.5612	58.051993	0.000507	5.066953	0.858365	0.000101
 231	2.2885e+01	4.5815	58.201367	0.000750	7.499091	1.270380	0.000150
 232	2.2985e+01	4.6016	58.310370	0.000547	5.472310	0.927034	0.000110
 233	2.3084e+01	4.6218	58.459744	0.000750	7.499091	1.270380	0.000150
 234	2.3183e+01	4.6416	58.621229	0.000811	8.107125	1.373384	0.000162
 235	2.3283e+01	4.6609	58.730232	0.000547	5.472310	0.927034	0.000110
 236	2.3383e+01	4.6812	58.839235	0.000547	5.472310	0.927034	0.000110
 237	2.3482e+01	4.7016	58.992646	0.000770	7.701769	1.304715	0.000154
 238	2.3581e+01	4.7210	59.081463	0.000446	4.458919	0.755361	0.000089
 239	2.3681e+01	4.7408	59.230837	0.000750	7.499091	1.270380	0.000150
 240	2.3780e+01	4.7613	59.376174	0.000730	7.296413	1.236046	0.000146
 241	2.3880e+01	4.7811	59.469028	0.000466	4.661597	0.789696	0.000093
 242	2.3980e+01	4.8000	59.606291	0.000689	6.891056	1.167377	0.000138
 243	2.4079e+01	4.8208	59.755665	0.000750	7.499091	1.270380	0.000150
 244	2.4178e+01	4.8399	59.864667	0.000547	5.472310	0.927034	0.000110
 245	2.4278e+01	4.8602	60.005967	0.000709	7.093735	1.201711	0.000142
 246	2.4378e+01	4.8797	60.123044	0.000588	5.877666	0.995704	0.000118
 247	2.4477e+01	4.9006	60.264344	0.000709	7.093735	1.201711	0.000142
 248	2.4576e+01	4.9206	60.409681	0.000730	7.296413	1.236046	0.000146
 249	2.4676e+01	4.9401	60.506572	0.000486	4.864275	0.824031	0.000097
 250	2.4776e+01	4.9615	60.631723	0.000628	6.283022	1.064373	0.000126
 251	2.4875e+01	4.9804	60.781097	0.000750	7.499091	1.270380	0.000150
 252	2.4974e+01	5.0005	60.894137	0.000567	5.674988	0.961369	0.000114
 253	2.5074e+01	5.0214	61.039474	0.000730	7.296413	1.236046	0.000146
 254	2.5174e+01	5.0399	61.180774	0.000709	7.093735	1.201711	0.000142
 255	2.5273e+01	5.0597	61.281702	0.000507	5.066953	0.858365	0.000101
 256	2.5372e+01	5.0782	61.394742	0.000567	5.674988	0.961369	0.000114
 257	2.5472e+01	5.0993	61.523930	0.000649	6.485700	1.098707	0.000130
 258	2.5572e+01	5.1196	61.665230	0.000709	7.093735	1.201711	0.000142
 259	2.5671e+01	5.1392	61.790381	0.000628	6.283022	1.064373	0.000126
 260	2.5770e+01	5.1585	61.903421	0.000567	5.674988	0.961369	0.000114
 261	2.5870e+01	5.1792	62.048758	0.000730	7.296413	1.236046	0.000146
 262	2.5970e+01	5.1996	62.169872	0.000608	6.080344	1.030038	0.000122
 263	2.6069e+01	5.2193	62.282912	0.000567	5.674988	0.961369	0.000114
 264	2.6169e+01	5.2393	62.404026	0.000608	6.080344	1.030038	0.000122
 265	2.6268e+01	5.2584	62.533214	0.000649	6.485700	1.098707	0.000130
 266	2.6367e+01	5.2789	62.666439	0.000669	6.688378	1.133042	0.000134
 267	2.6467e+01	5.2990	62.807739	0.000709	7.093735	1.201711	0.000142
 268	2.6567e+01	5.3182	62.912705	0.000527	5.269631	0.892700	0.000105
 269	2.6666e+01	5.3391	63.049967	0.000689	6.891056	1.167377	0.000138
 270	2.6765e+01	5.3585	63.158970	0.000547	5.472310	0.927034	0.000110
 271	2.6865e+01	5.3783	63.292196	0.000669	6.688378	1.133042	0.000134
 272	2.6965e+01	5.3982	63.417347	0.000628	6.283022	1.064373	0.000126
 273	2.7064e+01	5.4183	63.538461	0.000608	6.080344	1.030038	0.000122
 274	2.7163e+01	5.4375	63.659575	0.000608	6.080344	1.030038	0.000122
 275	2.7263e+01	5.4575	63.756466	0.000486	4.864275	0.824031	0.000097
 276	2.7363e+01	5.4777	63.930063	0.000872	8.715160	1.476388	0.000174
 277	2.7462e+01	5.4972	63.978509	0.000243	2.432138	0.412015	0.000049
 278	2.7561e+01	5.5178	64.160180	0.000912	9.120516	1.545057	0.000183
 279	2.7661e+01	5.5386	64.285331	0.000628	6.283022	1.064373	0.000126
 280	2.7761e+01	5.5576	64.382222	0.000486	4.864275	0.824031	0.000097
 281	2.7860e+01	5.5779	64.519485	0.000689	6.891056	1.167377	0.000138
 282	2.7959e+01	5.5975	64.612339	0.000466	4.661597	0.789696	0.000093
 283	2.8059e+01	5.6181	64.765750	0.000770	7.701769	1.304715	0.000154
 284	2.8159e+01	5.6380	64.858604	0.000466	4.661597	0.789696	0.000093
 285	2.8258e+01	5.6570	65.003941	0.000730	7.296413	1.236046	0.000146
 286	2.8358e+01	5.6763	65.108907	0.000527	5.269631	0.892700	0.000105
 287	2.8457e+01	5.6969	65.217909	0.000547	5.472310	0.927034	0.000110
 288	2.8556e+01	5.7168	65.334986	0.000588	5.877666	0.995704	0.000118
 289	2.8656e+01	5.7366	65.492435	0.000790	7.904447	1.339050	0.000158
 290	2.8756e+01	5.7565	65.565103	0.000365	3.648206	0.618023	0.000073
 291	2.8855e+01	5.7767	65.698328	0.000669	6.688378	1.133042	0.000134
 292	2.8954e+01	5.7964	65.807331	0.000547	5.472310	0.927034	0.000110
 293	2.9054e+01	5.8166	65.980928	0.000872	8.715160	1.476388	0.000174
 294	2.9154e+01	5.8373	66.077819	0.000486	4.864275	0.824031	0.000097
 295	2.9253e+01	5.8572	66.211045	0.000669	6.688378	1.133042	0.000134
 296	2.9352e+01	5.8772	66.299862	0.000446	4.458919	0.755361	0.000089
 297	2.9452e+01	5.8959	66.416939	0.000588	5.877666	0.995704	0.000118
 298	2.9552e+01	5.9158	66.562275	0.000730	7.296413	1.236046	0.000146
 299	2.9651e+01	5.9362	66.687427	0.000628	6.283022	1.064373	0.000126
 300	2.9750e+01	5.9562	66.788355	0.000507	5.066953	0.858365	0.000101
 301	2.9850e+01	5.9768	66.885246	0.000486	4.864275	0.824031	0.000097
 302	2.9950e+01	5.9963	67.042695	0.000790	7.904447	1.339050	0.000158
 303	3.0049e+01	6.0162	67.119400	0.000385	3.850884	0.652357	0.000077
 304	3.0148e+01	6.0352	67.268774	0.000750	7.499091	1.270380	0.000150
 305	3.0248e+01	6.0550	67.365665	0.000486	4.864275	0.824031	0.000097
 306	3.0348e+01	6.0754	67.515040	0.000750	7.499091	1.270380	0.000150
 307	3.0447e+01	6.0961	67.611931	0.000486	4.864275	0.824031	0.000097
 308	3.0547e+01	6.1153	67.724971	0.000567	5.674988	0.961369	0.000114
 309	3.0646e+01	6.1358	67.846085	0.000608	6.080344	1.030038	0.000122
 310	3.0745e+01	6.1544	67.963162	0.000588	5.877666	0.995704	0.000118
 311	3.0845e+01	6.1761	68.096387	0.000669	6.688378	1.133042	0.000134
 312	3.0945e+01	6.1958	68.213464	0.000588	5.877666	0.995704	0.000118
 313	3.1044e+01	6.2149	68.318430	0.000527	5.269631	0.892700	0.000105
 314	3.1143e+01	6.2350	68.427432	0.000547	5.472310	0.927034	0.000110
 315	3.1243e+01	6.2551	68.576806	0.000750	7.499091	1.270380	0.000150
 316	3.1343e+01	6.2756	68.665623	0.000446	4.458919	0.755361	0.000089
 317	3.1442e+01	6.2954	68.806923	0.000709	7.093735	1.201711	0.000142
 318	3.1541e+01	6.3136	68.871517	0.000324	3.242850	0.549354	0.000065
 319	3.1641e+01	6.3335	69.037040	0.000831	8.309803	1.407719	0.000166
 320	3.1741e+01	6.3546	69.121820	0.000426	4.256241	0.721027	0.000085
 321	3.1840e+01	6.3756	69.226785	0.000527	5.269631	0.892700	0.000105
 322	3.1939e+01	6.3937	69.347899	0.000608	6.080344	1.030038	0.000122
 323	3.2039e+01	6.4141	69.456902	0.000547	5.472310	0.927034	0.000110
 324	3.2139e+01	6.4339	69.573979	0.000588	5.877666	0.995704	0.000118
 325	3.2238e+01	6.4538	69.695093	0.000608	6.080344	1.030038	0.000122
 326	3.2337e+01	6.4739	69.808133	0.000567	5.674988	0.961369	0.000114
 327	3.2437e+01	6.4939	69.957507	0.000750	7.499091	1.270380	0.000150
 328	3.2536e+01	6.5133	70.046324	0.000446	4.458919	0.755361	0.000089
 329	3.2636e+01	6.5342	70.155326	0.000547	5.472310	0.927034	0.000110
 330	3.2736e+01	6.5533	70.312775	0.000790	7.904447	1.339050	0.000158
 331	3.2835e+01	6.5727	70.409666	0.000486	4.864275	0.824031	0.000097
 332	3.2934e+01	6.5935	70.506557	0.000486	4.864275	0.824031	0.000097
 333	3.3034e+01	6.6141	70.623634	0.000588	5.877666	0.995704	0.000118
 334	3.3133e+01	6.6328	70.712451	0.000446	4.458919	0.755361	0.000089
 335	3.3233e+01	6.6531	70.797231	0.000426	4.256241	0.721027	0.000085
 336	3.3333e+01	6.6728	70.946605	0.000750	7.499091	1.270380	0.000150
 337	3.3432e+01	6.6926	71.079830	0.000669	6.688378	1.133042	0.000134
 338	3.3532e+01	6.7126	71.188833	0.000547	5.472310	0.927034	0.000110
 339	3.3631e+01	6.7323	71.301873	0.000567	5.674988	0.961369	0.000114
 340	3.3730e+01	6.7534	71.418950	0.000588	5.877666	0.995704	0.000118
 341	3.3830e+01	6.7728	71.519878	0.000507	5.066953	0.858365	0.000101
 342	3.3929e+01	6.7917	71.632918	0.000567	5.674988	0.961369	0.000114
 343	3.4029e+01	6.8124	71.717698	0.000426	4.256241	0.721027	0.000085
 344	3.4129e+01	6.8325	71.858998	0.000709	7.093735	1.201711	0.000142
 345	3.4228e+01	6.8536	71.992223	0.000669	6.688378	1.133042	0.000134
 346	3.4328e+01	6.8726	72.056817	0.000324	3.242850	0.549354	0.000065
 347	3.4427e+01	6.8923	72.214266	0.000790	7.904447	1.339050	0.000158
 348	3.4526e+01	6.9119	72.323268	0.000547	5.472310	0.927034	0.000110
 349	3.4626e+01	6.9320	72.436308	0.000567	5.674988	0.961369	0.000114
 350	3.4725e+01	6.9521	72.541274	0.000527	5.269631	0.892700	0.000105
 351	3.4825e+01	6.9720	72.617979	0.000385	3.850884	0.652357	0.000077
 352	3.4925e+01	6.9910	72.767353	0.000750	7.499091	1.270380	0.000150
 353	3.5024e+01	7.0117	72.852133	0.000426	4.256241	0.721027	0.000085
 354	3.5123e+01	7.0318	72.969210	0.000588	5.877666	0.995704	0.000118
 355	3.5223e+01	7.0527	73.090324	0.000608	6.080344	1.030038	0.000122
 356	3.5322e+01	7.0705	73.195289	0.000527	5.269631	0.892700	0.000105
 357	3.5422e+01	7.0927	73.316404	0.000608	6.080344	1.030038	0.000122
 358	3.5522e+01	7.1116	73.417332	0.000507	5.066953	0.858365	0.000101
 359	3.5621e+01	7.1314	73.542483	0.000628	6.283022	1.064373	0.000126
 360	3.5721e+01	7.1510	73.635337	0.000466	4.661597	0.789696	0.000093
 361	3.5820e+01	7.1709	73.736266	0.000507	5.066953	0.858365	0.000101
 362	3.5919e+01	7.1912	73.845268	0.000547	5.472310	0.927034	0.000110
 363	3.6019e+01	7.2105	73.966382	0.000608	6.080344	1.030038	0.000122
 364	3.6118e+01	7.2301	74.083459	0.000588	5.877666	0.995704	0.000118
 365	3.6218e+01	7.2510	74.200536	0.000588	5.877666	0.995704	0.000118
 366	3.6318e+01	7.2707	74.293390	0.000466	4.661597	0.789696	0.000093
 367	3.6417e+01	7.2909	74.446802	0.000770	7.701769	1.304715	0.000154
 368	3.6517e+01	7.3106	74.535619	0.000446	4.458919	0.755361	0.000089
 369	3.6616e+01	7.3302	74.656733	0.000608	6.080344	1.030038	0.000122
 370	3.6715e+01	7.3492	74.761698	0.000527	5.269631	0.892700	0.000105
 371	3.6815e+01	7.3691	74.878775	0.000588	5.877666	0.995704	0.000118
 372	3.6914e+01	7.3901	74.983741	0.000527	5.269631	0.892700	0.000105
 373	3.7014e+01	7.4096	75.096780	0.000567	5.674988	0.961369	0.000114
 374	3.7114e+01	7.4300	75.189635	0.000466	4.661597	0.789696	0.000093
 375	3.7213e+01	7.4498	75.306711	0.000588	5.877666	0.995704	0.000118
 376	3.7313e+01	7.4697	75.399566	0.000466	4.661597	0.789696	0.000093
 377	3.7412e+01	7.4877	75.520680	0.000608	6.080344	1.030038	0.000122
 378	3.7511e+01	7.5091	75.605460	0.000426	4.256241	0.721027	0.000085
 379	3.7611e+01	7.5297	75.754834	0.000750	7.499091	1.270380	0.000150
 380	3.7711e+01	7.5454	75.831539	0.000385	3.850884	0.652357	0.000077
 381	3.7810e+01	7.5694	75.940542	0.000547	5.472310	0.927034	0.000110
 382	3.7910e+01	7.5904	76.069730	0.000649	6.485700	1.098707	0.000130
 383	3.8009e+01	7.6099	76.194881	0.000628	6.283022	1.064373	0.000126
 384	3.8108e+01	7.6297	76.299847	0.000527	5.269631	0.892700	0.000105
 385	3.8208e+01	7.6497	76.388664	0.000446	4.458919	0.755361	0.000089
 386	3.8307e+01	7.6691	76.481518	0.000466	4.661597	0.789696	0.000093
 387	3.8407e+01	7.6890	76.614743	0.000669	6.688378	1.133042	0.000134
 388	3.8507e+01	7.7085	76.695486	0.000405	4.053563	0.686692	0.000081
 389	3.8606e+01	7.7300	76.800452	0.000527	5.269631	0.892700	0.000105
 390	3.8706e+01	7.7482	76.941751	0.000709	7.093735	1.201711	0.000142
 391	3.8805e+01	7.7692	77.034606	0.000466	4.661597	0.789696	0.000093
 392	3.8904e+01	7.7878	77.135534	0.000507	5.066953	0.858365	0.000101
 393	3.9004e+01	7.8088	77.228388	0.000466	4.661597	0.789696	0.000093
 394	3.9103e+01	7.8275	77.361614	0.000669	6.688378	1.133042	0.000134
 395	3.9203e+01	7.8480	77.462542	0.000507	5.066953	0.858365	0.000101
 396	3.9303e+01	7.8681	77.583656	0.000608	6.080344	1.030038	0.000122
 397	3.9402e+01	7.8880	77.672473	0.000446	4.458919	0.755361	0.000089
 398	3.9502e+01	7.9084	77.749179	0.000385	3.850884	0.652357	0.000077
 399	3.9601e+01	7.9281	77.874330	0.000628	6.283022	1.064373	0.000126
 400	3.9700e+01	7.9470	77.999481	0.000628	6.283022	1.064373	0.000126
 401	3.9800e+01	7.9678	78.124632	0.000628	6.283022	1.064373	0.000126
 402	3.9900e+01	7.9871	78.221523	0.000486	4.864275	0.824031	0.000097
 403	3.9999e+01	8.0079	78.310340	0.000446	4.458919	0.755361	0.000089
 404	4.0099e+01	8.0274	78.443566	0.000669	6.688378	1.133042	0.000134
 405	4.0198e+01	8.0480	78.492012	0.000243	2.432138	0.412015	0.000049
 406	4.0297e+01	8.0676	78.629274	0.000689	6.891056	1.167377	0.000138
 407	4.0397e+01	8.0873	78.770574	0.000709	7.093735	1.201711	0.000142
 408	4.0496e+01	8.1069	78.843242	0.000365	3.648206	0.618023	0.000073
 409	4.0596e+01	8.1274	78.919948	0.000385	3.850884	0.652357	0.000077
 410	4.0696e+01	8.1474	79.073359	0.000770	7.701769	1.304715	0.000154
 411	4.0795e+01	8.1672	79.141990	0.000345	3.445528	0.583688	0.000069
 412	4.0895e+01	8.1866	79.271179	0.000649	6.485700	1.098707	0.000130
 413	4.0994e+01	8.2063	79.372107	0.000507	5.066953	0.858365	0.000101
 414	4.1093e+01	8.2268	79.436701	0.000324	3.242850	0.549354	0.000065
 415	4.1193e+01	8.2471	79.569927	0.000669	6.688378	1.133042	0.000134
 416	4.1292e+01	8.2672	79.678929	0.000547	5.472310	0.927034	0.000110
 417	4.1392e+01	8.2869	79.775821	0.000486	4.864275	0.824031	0.000097
 418	4.1492e+01	8.3067	79.864638	0.000446	4.458919	0.755361	0.000089
 419	4.1591e+01	8.3252	80.038235	0.000872	8.715160	1.476388	0.000174
 420	4.1691e+01	8.3455	80.098792	0.000304	3.040172	0.515019	0.000061
 421	4.1790e+01	8.3662	80.215869	0.000588	5.877666	0.995704	0.000118
 422	4.1889e+01	8.3859	80.292574	0.000385	3.850884	0.652357	0.000077
 423	4.1989e+01	8.4044	80.385428	0.000466	4.661597	0.789696	0.000093
 424	4.2089e+01	8.4255	80.530765	0.000730	7.296413	1.236046	0.000146
 425	4.2188e+01	8.4454	80.591322	0.000304	3.040172	0.515019	0.000061
 426	4.2288e+01	8.4651	80.736659	0.000730	7.296413	1.236046	0.000146
 427	4.2387e+01	8.4863	80.829513	0.000466	4.661597	0.789696	0.000093
 428	4.2486e+01	8.5061	80.918330	0.000446	4.458919	0.755361	0.000089
 429	4.2586e+01	8.5259	81.023296	0.000527	5.269631	0.892700	0.000105
 430	4.2685e+01	8.5455	81.120187	0.000486	4.864275	0.824031	0.000097
 431	4.2785e+01	8.5645	81.253412	0.000669	6.688378	1.133042	0.000134
 432	4.2885e+01	8.5850	81.350304	0.000486	4.864275	0.824031	0.000097
 433	4.2984e+01	8.6047	81.443158	0.000466	4.661597	0.789696	0.000093
 434	4.3084e+01	8.6248	81.556198	0.000567	5.674988	0.961369	0.000114
 435	4.3183e+01	8.6440	81.705572	0.000750	7.499091	1.270380	0.000150
 436	4.3282e+01	8.6650	81.749980	0.000223	2.229459	0.377681	0.000045
 437	4.3382e+01	8.6851	81.858983	0.000547	5.472310	0.927034	0.000110
 438	4.3481e+01	8.7049	81.992208	0.000669	6.688378	1.133042	0.000134
 439	4.3581e+01	8.7247	82.089100	0.000486	4.864275	0.824031	0.000097
 440	4.3681e+01	8.7444	82.206176	0.000588	5.877666	0.995704	0.000118
 441	4.3780e+01	8.7653	82.303068	0.000486	4.864275	0.824031	0.000097
 442	4.3880e+01	8.7844	82.403996	0.000507	5.066953	0.858365	0.000101
 443	4.3979e+01	8.8049	82.468590	0.000324	3.242850	0.549354	0.000065
 444	4.4078e+01	8.8242	82.553370	0.000426	4.256241	0.721027	0.000085
 445	4.4178e+01	8.8438	82.674484	0.000608	6.080344	1.030038	0.000122
 446	4.4278e+01	8.8630	82.783487	0.000547	5.472310	0.927034	0.000110
 447	4.4377e+01	8.8825	82.896527	0.000567	5.674988	0.961369	0.000114
 448	4.4477e+01	8.9034	83.013604	0.000588	5.877666	0.995704	0.000118
 449	4.4576e+01	8.9230	83.078198	0.000324	3.242850	0.549354	0.000065
 450	4.4675e+01	8.9429	83.207386	0.000649	6.485700	1.098707	0.000130
 451	4.4775e+01	8.9625	83.288129	0.000405	4.053563	0.686692	0.000081
 452	4.4874e+01	8.9831	83.433466	0.000730	7.296413	1.236046	0.000146
 453	4.4974e+01	9.0026	83.485948	0.000263	2.634816	0.446350	0.000053
 454	4.5074e+01	9.0206	83.623211	0.000689	6.891056	1.167377	0.000138
 455	4.5173e+01	9.0424	83.720102	0.000486	4.864275	0.824031	0.000097
 456	4.5273e+01	9.0625	83.776622	0.000284	2.837494	0.480684	0.000057
 457	4.5372e+01	9.0824	83.897736	0.000608	6.080344	1.030038	0.000122
 458	4.5471e+01	9.1019	84.022888	0.000628	6.283022	1.064373	0.000126
 459	4.5571e+01	9.1235	84.131890	0.000547	5.472310	0.927034	0.000110
 460	4.5670e+01	9.1422	84.180336	0.000243	2.432138	0.412015	0.000049
 461	4.5770e+01	9.1631	84.329710	0.000750	7.499091	1.270380	0.000150
 462	4.5870e+01	9.1824	84.398341	0.000345	3.445528	0.583688	0.000069
 463	4.5969e+01	9.2020	84.519455	0.000608	6.080344	1.030038	0.000122
 464	4.6069e+01	9.2218	84.612309	0.000466	4.661597	0.789696	0.000093
 465	4.6168e+01	9.2417	84.705163	0.000466	4.661597	0.789696	0.000093
 466	4.6267e+01	9.2616	84.826278	0.000608	6.080344	1.030038	0.000122
 467	4.6367e+01	9.2815	84.927206	0.000507	5.066953	0.858365	0.000101
 468	4.6467e+01	9.3018	85.048320	0.000608	6.080344	1.030038	0.000122
 469	4.6566e+01	9.3216	85.129063	0.000405	4.053563	0.686692	0.000081
 470	4.6666e+01	9.3415	85.217880	0.000446	4.458919	0.755361	0.000089
 471	4.6765e+01	9.3546	85.334957	0.000588	5.877666	0.995704	0.000118
 472	4.6864e+01	9.3813	85.435885	0.000507	5.066953	0.858365	0.000101
 473	4.6964e+01	9.4017	85.532776	0.000486	4.864275	0.824031	0.000097
 474	4.7063e+01	9.4215	85.629668	0.000486	4.864275	0.824031	0.000097
 475	4.7163e+01	9.4419	85.730596	0.000507	5.066953	0.858365	0.000101
 476	4.7263e+01	9.4605	85.807302	0.000385	3.850884	0.652357	0.000077
 477	4.7362e+01	9.4807	85.936490	0.000649	6.485700	1.098707	0.000130
 478	4.7462e+01	9.5005	86.001084	0.000324	3.242850	0.549354	0.000065
 479	4.7561e+01	9.5205	86.126235	0.000628	6.283022	1.064373	0.000126
 480	4.7660e+01	9.5413	86.243312	0.000588	5.877666	0.995704	0.000118
 481	4.7760e+01	9.5606	86.332129	0.000446	4.458919	0.755361	0.000089
 482	4.7859e+01	9.5802	86.429020	0.000486	4.864275	0.824031	0.000097
 483	4.7959e+01	9.6012	86.529949	0.000507	5.066953	0.858365	0.000101
 484	4.8059e+01	9.6207	86.675286	0.000730	7.296413	1.236046	0.000146
 485	4.8158e+01	9.6399	86.743917	0.000345	3.445528	0.583688	0.000069
 486	4.8258e+01	9.6609	86.856957	0.000567	5.674988	0.961369	0.000114
 487	4.8357e+01	9.6803	86.949811	0.000466	4.661597	0.789696	0.000093
 488	4.8456e+01	9.6998	87.070925	0.000608	6.080344	1.030038	0.000122
 489	4.8556e+01	9.7205	87.155705	0.000426	4.256241	0.721027	0.000085
 490	4.8656e+01	9.7395	87.256633	0.000507	5.066953	0.858365	0.000101
 491	4.8755e+01	9.7597	87.321227	0.000324	3.242850	0.549354	0.000065
 492	4.8855e+01	9.7791	87.446379	0.000628	6.283022	1.064373	0.000126
 493	4.8954e+01	9.7998	87.583641	0.000689	6.891056	1.167377	0.000138
 494	4.9053e+01	9.8205	87.688607	0.000527	5.269631	0.892700	0.000105
 495	4.9153e+01	9.8395	87.753201	0.000324	3.242850	0.549354	0.000065
 496	4.9252e+01	9.8600	87.902575	0.000750	7.499091	1.270380	0.000150
 497	4.9352e+01	9.8793	87.983318	0.000405	4.053563	0.686692	0.000081
 498	4.9452e+01	9.8981	88.051949	0.000345	3.445528	0.583688	0.000069
 499	4.9551e+01	9.9194	88.160952	0.000547	5.472310	0.927034	0.000110
 500	4.9651e+01	9.9383	88.269954	0.000547	5.472310	0.927034	0.000110
 501	4.9750e+01	9.9586	88.387031	0.000588	5.877666	0.995704	0.000118
 502	4.9849e+01	9.9780	88.491997	0.000527	5.269631	0.892700	0.000105
 503	4.9949e+01	9.9991	88.584851	0.000466	4.661597	0.789696	0.000093
 504	5.0048e+01	9.9792	88.544480	0.000203	2.026781	0.343346	-0.000041
 505	5.0148e+01	9.9592	88.471811	0.000365	3.648206	0.618023	-0.000073
 506	5.0248e+01	9.9390	88.407217	0.000324	3.242850	0.549354	-0.000065
 507	5.0347e+01	9.9200	88.326474	0.000405	4.053563	0.686692	-0.000081
 508	5.0447e+01	9.8998	88.273991	0.000263	2.634816	0.446350	-0.000053
 509	5.0546e+01	9.8789	88.278029	-0.000020	-0.202678	-0.034335	0.000004
 510	5.0645e+01	9.8588	88.181137	0.000486	4.864275	0.824031	-0.000097
 511	5.0745e+01	9.8396	88.124617	0.000284	2.837494	0.480684	-0.000057
 512	5.0844e+01	9.8196	88.080209	0.000223	2.229459	0.377681	-0.000045
 513	5.0944e+01	9.8002	87.991392	0.000446	4.458919	0.755361	-0.000089
 514	5.1044e+01	9.7803	87.930835	0.000304	3.040172	0.515019	-0.000061
 515	5.1143e+01	9.7598	87.854129	0.000385	3.850884	0.652357	-0.000077
 516	5.1242e+01	9.7400	87.785498	0.000345	3.445528	0.583688	-0.000069
 517	5.1342e+01	9.7194	87.684570	0.000507	5.066953	0.858365	-0.000101
 518	5.1441e+01	9.6997	87.672458	0.000061	0.608034	0.103004	-0.000012
 519	5.1541e+01	9.6793	87.591716	0.000405	4.053563	0.686692	-0.000081
 520	5.1641e+01	9.6595	87.523084	0.000345	3.445528	0.583688	-0.000069
 521	5.1740e+01	9.6399	87.454453	0.000345	3.445528	0.583688	-0.000069
 522	5.1840e+01	9.6201	87.389859	0.000324	3.242850	0.549354	-0.000065
 523	5.1939e+01	9.5996	87.313153	0.000385	3.850884	0.652357	-0.000077
 524	5.2038e+01	9.5802	87.272782	0.000203	2.026781	0.343346	-0.000041
 525	5.2138e+01	9.5592	87.192039	0.000405	4.053563	0.686692	-0.000081
 526	5.2237e+01	9.5420	87.123408	0.000345	3.445528	0.583688	-0.000069
 527	5.2337e+01	9.5215	87.042665	0.000405	4.053563	0.686692	-0.000081
 528	5.2437e+01	9.5007	86.957885	0.000426	4.256241	0.721027	-0.000085
 529	5.2536e+01	9.4813	86.897328	0.000304	3.040172	0.515019	-0.000061
 530	5.2636e+01	9.4608	86.856957	0.000203	2.026781	0.343346	-0.000041
 531	5.2735e+01	9.4409	86.760066	0.000486	4.864275	0.824031	-0.000097
 532	5.2834e+01	9.4206	86.699509	0.000304	3.040172	0.515019	-0.000061
 533	5.2934e+01	9.4009	86.618766	0.000405	4.053563	0.686692	-0.000081
 534	5.3033e+01	9.3808	86.586469	0.000162	1.621425	0.274677	-0.000032
 535	5.3133e+01	9.3590	86.489577	0.000486	4.864275	0.824031	-0.000097
 536	5.3233e+01	9.3409	86.424983	0.000324	3.242850	0.549354	-0.000065
 537	5.3332e+01	9.3204	86.344241	0.000405	4.053563	0.686692	-0.000081
 538	5.3431e+01	9.3018	86.279646	0.000324	3.242850	0.549354	-0.000065
 539	5.3531e+01	9.2817	86.202941	0.000385	3.850884	0.652357	-0.000077
 540	5.3630e+01	9.2615	86.126235	0.000385	3.850884	0.652357	-0.000077
 541	5.3730e+01	9.2409	86.106050	0.000101	1.013391	0.171673	-0.000020
 542	5.3830e+01	9.2220	86.001084	0.000527	5.269631	0.892700	-0.000105
 543	5.3929e+01	9.2026	85.928416	0.000365	3.648206	0.618023	-0.000073
 544	5.4029e+01	9.1824	85.851710	0.000385	3.850884	0.652357	-0.000077
 545	5.4128e+01	9.1633	85.766930	0.000426	4.256241	0.721027	-0.000085
 546	5.4227e+01	9.1418	85.674076	0.000466	4.661597	0.789696	-0.000093
 547	5.4327e+01	9.1219	85.617556	0.000284	2.837494	0.480684	-0.000057
 548	5.4426e+01	9.1019	85.532776	0.000426	4.256241	0.721027	-0.000085
 549	5.4526e+01	9.0822	85.435885	0.000486	4.864275	0.824031	-0.000097
 550	5.4626e+01	9.0627	85.407625	0.000142	1.418747	0.240342	-0.000028
 551	5.4725e+01	9.0418	85.314771	0.000466	4.661597	0.789696	-0.000093
 552	5.4825e+01	9.0218	85.262288	0.000263	2.634816	0.446350	-0.000053
 553	5.4924e+01	9.0028	85.185583	0.000385	3.850884	0.652357	-0.000077
 554	5.5023e+01	8.9830	85.068506	0.000588	5.877666	0.995704	-0.000118
 555	5.5123e+01	8.9636	85.003912	0.000324	3.242850	0.549354	-0.000065
 556	5.5222e+01	8.9419	84.947392	0.000284	2.837494	0.480684	-0.000057
 557	5.5322e+01	8.9227	84.874723	0.000365	3.648206	0.618023	-0.000073
 558	5.5422e+01	8.9022	84.785906	0.000446	4.458919	0.755361	-0.000089
 559	5.5521e+01	8.8824	84.668829	0.000588	5.877666	0.995704	-0.000118
 560	5.5620e+01	8.8641	84.608272	0.000304	3.040172	0.515019	-0.000061
 561	5.5720e+01	8.8441	84.555789	0.000263	2.634816	0.446350	-0.000053
 562	5.5819e+01	8.8248	84.491195	0.000324	3.242850	0.549354	-0.000065
 563	5.5919e+01	8.8050	84.406415	0.000426	4.256241	0.721027	-0.000085
 564	5.6019e+01	8.7843	84.317598	0.000446	4.458919	0.755361	-0.000089
 565	5.6118e+01	8.7647	84.224744	0.000466	4.661597	0.789696	-0.000093
 566	5.6218e+01	8.7451	84.160150	0.000324	3.242850	0.549354	-0.000065
 567	5.6317e+01	8.7249	84.079407	0.000405	4.053563	0.686692	-0.000081
 568	5.6416e+01	8.7043	83.974442	0.000527	5.269631	0.892700	-0.000105
 569	5.6516e+01	8.6848	83.930033	0.000223	2.229459	0.377681	-0.000045
 570	5.6615e+01	8.6646	83.861402	0.000345	3.445528	0.583688	-0.000069
 571	5.6715e+01	8.6451	83.740288	0.000608	6.080344	1.030038	-0.000122
 572	5.6815e+01	8.6263	83.695880	0.000223	2.229459	0.377681	-0.000045
 573	5.6914e+01	8.6054	83.619174	0.000385	3.850884	0.652357	-0.000077
 574	5.7014e+01	8.5862	83.534394	0.000426	4.256241	0.721027	-0.000085
 575	5.7113e+01	8.5654	83.449614	0.000426	4.256241	0.721027	-0.000085
 576	5.7212e+01	8.5453	83.356760	0.000466	4.661597	0.789696	-0.000093
 577	5.7312e+01	8.5256	83.288129	0.000345	3.445528	0.583688	-0.000069
 578	5.7411e+01	8.5046	83.219498	0.000345	3.445528	0.583688	-0.000069
 579	5.7511e+01	8.4855	83.142792	0.000385	3.850884	0.652357	-0.000077
 580	5.7611e+01	8.4650	83.037826	0.000527	5.269631	0.892700	-0.000105
 581	5.7710e+01	8.4461	82.928824	0.000547	5.472310	0.927034	-0.000110
 582	5.7809e+01	8.4258	82.872304	0.000284	2.837494	0.480684	-0.000057
 583	5.7909e+01	8.4061	82.787524	0.000426	4.256241	0.721027	-0.000085
 584	5.8008e+01	8.3857	82.706781	0.000405	4.053563	0.686692	-0.000081
 585	5.8108e+01	8.3663	82.609890	0.000486	4.864275	0.824031	-0.000097
 586	5.8208e+01	8.3469	82.577593	0.000162	1.621425	0.274677	-0.000032
 587	5.8307e+01	8.3264	82.488776	0.000446	4.458919	0.755361	-0.000089
 588	5.8407e+01	8.3066	82.395922	0.000466	4.661597	0.789696	-0.000093
 589	5.8506e+01	8.2862	82.278845	0.000588	5.877666	0.995704	-0.000118
 590	5.8605e+01	8.2666	82.214251	0.000324	3.242850	0.549354	-0.000065
 591	5.8705e+01	8.2459	82.121397	0.000466	4.661597	0.789696	-0.000093
 592	5.8804e+01	8.2257	82.044691	0.000385	3.850884	0.652357	-0.000077
 593	5.8904e+01	8.2067	81.972023	0.000365	3.648206	0.618023	-0.000073
 594	5.9004e+01	8.1874	81.850909	0.000608	6.080344	1.030038	-0.000122
 595	5.9103e+01	8.1673	81.810537	0.000203	2.026781	0.343346	-0.000041
 596	5.9203e+01	8.1463	81.729794	0.000405	4.053563	0.686692	-0.000081
 597	5.9302e+01	8.1272	81.624829	0.000527	5.269631	0.892700	-0.000105
 598	5.9401e+01	8.1072	81.556198	0.000345	3.445528	0.583688	-0.000069
 599	5.9501e+01	8.0871	81.463343	0.000466	4.661597	0.789696	-0.000093
 600	5.9600e+01	8.0676	81.358378	0.000527	5.269631	0.892700	-0.000105
 601	5.9700e+01	8.0469	81.318007	0.000203	2.026781	0.343346	-0.000041
 602	5.9800e+01	8.0278	81.213041	0.000527	5.269631	0.892700	-0.000105
 603	5.9899e+01	8.0070	81.128261	0.000426	4.256241	0.721027	-0.000085
 604	5.9998e+01	7.9865	81.055593	0.000365	3.648206	0.618023	-0.000073
 605	6.0098e+01	7.9673	80.966776	0.000446	4.458919	0.755361	-0.000089
 606	6.0197e+01	7.9478	80.853736	0.000567	5.674988	0.961369	-0.000114
 607	6.0297e+01	7.9279	80.829513	0.000122	1.216069	0.206008	-0.000024
 608	6.0397e+01	7.9074	80.720511	0.000547	5.472310	0.927034	-0.000110
 609	6.0496e+01	7.8877	80.627656	0.000466	4.661597	0.789696	-0.000093
 610	6.0596e+01	7.8674	80.554988	0.000365	3.648206	0.618023	-0.000073
 611	6.0695e+01	7.8474	80.450022	0.000527	5.269631	0.892700	-0.000105
 612	6.0794e+01	7.8280	80.365243	0.000426	4.256241	0.721027	-0.000085
 613	6.0894e+01	7.8082	80.284500	0.000405	4.053563	0.686692	-0.000081
 614	6.0993e+01	7.7891	80.179534	0.000527	5.269631	0.892700	-0.000105
 615	6.1093e+01	7.7686	80.106866	0.000365	3.648206	0.618023	-0.000073
 616	6.1193e+01	7.7488	80.014012	0.000466	4.661597	0.789696	-0.000093
 617	6.1292e+01	7.7300	79.913083	0.000507	5.066953	0.858365	-0.000101
 618	6.1392e+01	7.7093	79.844452	0.000345	3.445528	0.583688	-0.000069
 619	6.1491e+01	7.6892	79.751598	0.000466	4.661597	0.789696	-0.000093
 620	6.1590e+01	7.6685	79.642595	0.000547	5.472310	0.927034	-0.000110
 621	6.1690e+01	7.6490	79.557815	0.000426	4.256241	0.721027	-0.000085
 622	6.1789e+01	7.6291	79.464961	0.000466	4.661597	0.789696	-0.000093
 623	6.1889e+01	7.6089	79.376144	0.000446	4.458919	0.755361	-0.000089
 624	6.1989e+01	7.5890	79.283290	0.000466	4.661597	0.789696	-0.000093
 625	6.2088e+01	7.5703	79.182362	0.000507	5.066953	0.858365	-0.000101
 626	6.2188e+01	7.5488	79.137953	0.000223	2.229459	0.377681	-0.000045
 627	6.2287e+01	7.5298	79.032988	0.000527	5.269631	0.892700	-0.000105
 628	6.2386e+01	7.5101	78.911874	0.000608	6.080344	1.030038	-0.000122
 629	6.2486e+01	7.4895	78.835168	0.000385	3.850884	0.652357	-0.000077
 630	6.2586e+01	7.4699	78.746351	0.000446	4.458919	0.755361	-0.000089
 631	6.2685e+01	7.4496	78.661571	0.000426	4.256241	0.721027	-0.000085
 632	6.2785e+01	7.4297	78.584866	0.000385	3.850884	0.652357	-0.000077
 633	6.2884e+01	7.4100	78.487974	0.000486	4.864275	0.824031	-0.000097
 634	6.2983e+01	7.3895	78.378972	0.000547	5.472310	0.927034	-0.000110
 635	6.3083e+01	7.3696	78.326489	0.000263	2.634816	0.446350	-0.000053
 636	6.3182e+01	7.3502	78.229598	0.000486	4.864275	0.824031	-0.000097
 637	6.3282e+01	7.3302	78.136744	0.000466	4.661597	0.789696	-0.000093
 638	6.3382e+01	7.3103	78.060038	0.000385	3.850884	0.652357	-0.000077
 639	6.3481e+01	7.2915	77.975258	0.000426	4.256241	0.721027	-0.000085
 640	6.3581e+01	7.2710	77.862218	0.000567	5.674988	0.961369	-0.000114
 641	6.3680e+01	7.2512	77.781476	0.000405	4.053563	0.686692	-0.000081
 642	6.3779e+01	7.2303	77.656324	0.000628	6.283022	1.064373	-0.000126
 643	6.3879e+01	7.2110	77.571545	0.000426	4.256241	0.721027	-0.000085
 644	6.3978e+01	7.1905	77.515025	0.000284	2.837494	0.480684	-0.000057
 645	6.4078e+01	7.1709	77.401985	0.000567	5.674988	0.961369	-0.000114
 646	6.4177e+01	7.1509	77.301057	0.000507	5.066953	0.858365	-0.000101
 647	6.4277e+01	7.1323	77.204165	0.000486	4.864275	0.824031	-0.000097
 648	6.4376e+01	7.1124	77.127460	0.000385	3.850884	0.652357	-0.000077
 649	6.4476e+01	7.0907	77.026531	0.000507	5.066953	0.858365	-0.000101
 650	6.4576e+01	7.0708	76.933677	0.000466	4.661597	0.789696	-0.000093
 651	6.4675e+01	7.0513	76.840823	0.000466	4.661597	0.789696	-0.000093
 652	6.4775e+01	7.0315	76.723746	0.000588	5.877666	0.995704	-0.000118
 653	6.4874e+01	7.0121	76.643003	0.000405	4.053563	0.686692	-0.000081
 654	6.4974e+01	6.9912	76.546112	0.000486	4.864275	0.824031	-0.000097
 655	6.5073e+01	6.9715	76.465369	0.000405	4.053563	0.686692	-0.000081
 656	6.5172e+01	6.9511	76.352330	0.000567	5.674988	0.961369	-0.000114
 657	6.5272e+01	6.9321	76.287735	0.000324	3.242850	0.549354	-0.000065
 658	6.5371e+01	6.9125	76.202956	0.000426	4.256241	0.721027	-0.000085
 659	6.5471e+01	6.8911	76.093953	0.000547	5.472310	0.927034	-0.000110
 660	6.5570e+01	6.8715	75.988987	0.000527	5.269631	0.892700	-0.000105
 661	6.5670e+01	6.8530	75.875948	0.000567	5.674988	0.961369	-0.000114
 662	6.5769e+01	6.8319	75.831539	0.000223	2.229459	0.377681	-0.000045
 663	6.5869e+01	6.8127	75.706388	0.000628	6.283022	1.064373	-0.000126
 664	6.5969e+01	6.7930	75.601422	0.000527	5.269631	0.892700	-0.000105
 665	6.6068e+01	6.7727	75.520680	0.000405	4.053563	0.686692	-0.000081
 666	6.6168e+01	6.7534	75.435900	0.000426	4.256241	0.721027	-0.000085
 667	6.6267e+01	6.7321	75.318823	0.000588	5.877666	0.995704	-0.000118
 668	6.6367e+01	6.7125	75.254229	0.000324	3.242850	0.549354	-0.000065
 669	6.6466e+01	6.6924	75.157337	0.000486	4.864275	0.824031	-0.000097
 670	6.6566e+01	6.6729	75.072558	0.000426	4.256241	0.721027	-0.000085
 671	6.6665e+01	6.6525	74.963555	0.000547	5.472310	0.927034	-0.000110
 672	6.6764e+01	6.6327	74.830329	0.000669	6.688378	1.133042	-0.000134
 673	6.6864e+01	6.6131	74.781884	0.000243	2.432138	0.412015	-0.000049
 674	6.6963e+01	6.5926	74.693067	0.000446	4.458919	0.755361	-0.000089
 675	6.7063e+01	6.5727	74.600213	0.000466	4.661597	0.789696	-0.000093
 676	6.7162e+01	6.5536	74.491210	0.000547	5.472310	0.927034	-0.000110
 677	6.7262e+01	6.5334	74.386245	0.000527	5.269631	0.892700	-0.000105
 678	6.7362e+01	6.5132	74.273205	0.000567	5.674988	0.961369	-0.000114
 679	6.7461e+01	6.4931	74.180351	0.000466	4.661597	0.789696	-0.000093
 680	6.7561e+01	6.4741	74.091534	0.000446	4.458919	0.755361	-0.000089
 681	6.7660e+01	6.4541	74.002717	0.000446	4.458919	0.755361	-0.000089
 682	6.7760e+01	6.4346	73.885640	0.000588	5.877666	0.995704	-0.000118
 683	6.7859e+01	6.4132	73.768563	0.000588	5.877666	0.995704	-0.000118
 684	6.7959e+01	6.3937	73.712043	0.000284	2.837494	0.480684	-0.000057
 685	6.8058e+01	6.3738	73.582855	0.000649	6.485700	1.098707	-0.000130
 686	6.8157e+01	6.3548	73.522297	0.000304	3.040172	0.515019	-0.000061
 687	6.8257e+01	6.3332	73.389072	0.000669	6.688378	1.133042	-0.000134
 688	6.8356e+01	6.3143	73.284106	0.000527	5.269631	0.892700	-0.000105
 689	6.8456e+01	6.2945	73.219512	0.000324	3.242850	0.549354	-0.000065
 690	6.8555e+01	6.2756	73.110510	0.000547	5.472310	0.927034	-0.000110
 691	6.8655e+01	6.2549	73.005544	0.000527	5.269631	0.892700	-0.000105
 692	6.8754e+01	6.2348	72.924801	0.000405	4.053563	0.686692	-0.000081
 693	6.8854e+01	6.2150	72.759279	0.000831	8.309803	1.407719	-0.000166
 694	6.8954e+01	6.1950	72.706796	0.000263	2.634816	0.446350	-0.000053
 695	6.9053e+01	6.1751	72.589719	0.000588	5.877666	0.995704	-0.000118
 696	6.9153e+01	6.1562	72.525125	0.000324	3.242850	0.549354	-0.000065
 697	6.9252e+01	6.1349	72.428234	0.000486	4.864275	0.824031	-0.000097
 698	6.9352e+01	6.1155	72.335380	0.000466	4.661597	0.789696	-0.000093
 699	6.9451e+01	6.0956	72.206191	0.000649	6.485700	1.098707	-0.000130
 700	6.9550e+01	6.0753	72.125449	0.000405	4.053563	0.686692	-0.000081
 701	6.9650e+01	6.0555	72.028557	0.000486	4.864275	0.824031	-0.000097
 702	6.9749e+01	6.0351	71.919555	0.000547	5.472310	0.927034	-0.000110
 703	6.9849e+01	6.0163	71.850923	0.000345	3.445528	0.583688	-0.000069
 704	6.9948e+01	5.9971	71.705586	0.000730	7.296413	1.236046	-0.000146
 705	7.0048e+01	5.9757	71.584472	0.000608	6.080344	1.030038	-0.000122
 706	7.0147e+01	5.9559	71.523915	0.000304	3.040172	0.515019	-0.000061
 707	7.0247e+01	5.9370	71.459321	0.000324	3.242850	0.549354	-0.000065
 708	7.0347e+01	5.9173	71.326096	0.000669	6.688378	1.133042	-0.000134
 709	7.0446e+01	5.8965	71.237279	0.000446	4.458919	0.755361	-0.000089
 710	7.0546e+01	5.8767	71.120202	0.000588	5.877666	0.995704	-0.000118
 711	7.0645e+01	5.8566	71.035422	0.000426	4.256241	0.721027	-0.000085
 712	7.0745e+01	5.8369	70.934493	0.000507	5.066953	0.858365	-0.000101
 713	7.0844e+01	5.8171	70.837602	0.000486	4.864275	0.824031	-0.000097
 714	7.0944e+01	5.7964	70.740711	0.000486	4.864275	0.824031	-0.000097
 715	7.1043e+01	5.7767	70.623634	0.000588	5.877666	0.995704	-0.000118
 716	7.1142e+01	5.7558	70.518669	0.000527	5.269631	0.892700	-0.000105
 717	7.1242e+01	5.7369	70.429852	0.000446	4.458919	0.755361	-0.000089
 718	7.1341e+01	5.7172	70.316812	0.000567	5.674988	0.961369	-0.000114
 719	7.1441e+01	5.6968	70.187623	0.000649	6.485700	1.098707	-0.000130
 720	7.1540e+01	5.6767	70.106881	0.000405	4.053563	0.686692	-0.000081
 721	7.1640e+01	5.6530	69.997878	0.000547	5.472310	0.927034	-0.000110
 722	7.1740e+01	5.6376	69.864653	0.000669	6.688378	1.133042	-0.000134
 723	7.1839e+01	5.6177	69.791984	0.000365	3.648206	0.618023	-0.000073
 724	7.1939e+01	5.5978	69.703167	0.000446	4.458919	0.755361	-0.000089
 725	7.2038e+01	5.5778	69.598202	0.000527	5.269631	0.892700	-0.000105
 726	7.2138e+01	5.5573	69.505347	0.000466	4.661597	0.789696	-0.000093
 727	7.2237e+01	5.5376	69.388270	0.000588	5.877666	0.995704	-0.000118
 728	7.2337e+01	5.5175	69.307528	0.000405	4.053563	0.686692	-0.000081
 729	7.2436e+01	5.4990	69.137968	0.000851	8.512481	1.442053	-0.000170
 730	7.2535e+01	5.4780	69.077411	0.000304	3.040172	0.515019	-0.000061
 731	7.2635e+01	5.4577	68.964371	0.000567	5.674988	0.961369	-0.000114
 732	7.2734e+01	5.4379	68.855369	0.000547	5.472310	0.927034	-0.000110
 733	7.2834e+01	5.4180	68.750403	0.000527	5.269631	0.892700	-0.000105
 734	7.2933e+01	5.3981	68.673697	0.000385	3.850884	0.652357	-0.000077
 735	7.3033e+01	5.3782	68.516249	0.000790	7.904447	1.339050	-0.000158
 736	7.3132e+01	5.3582	68.447618	0.000345	3.445528	0.583688	-0.000069
 737	7.3232e+01	5.3385	68.334578	0.000567	5.674988	0.961369	-0.000114
 738	7.3332e+01	5.3185	68.205390	0.000649	6.485700	1.098707	-0.000130
 739	7.3431e+01	5.2981	68.120610	0.000426	4.256241	0.721027	-0.000085
 740	7.3531e+01	5.2784	68.031793	0.000446	4.458919	0.755361	-0.000089
 741	7.3630e+01	5.2586	67.938939	0.000466	4.661597	0.789696	-0.000093
 742	7.3730e+01	5.2390	67.789565	0.000750	7.499091	1.270380	-0.000150
 743	7.3829e+01	5.2186	67.712859	0.000385	3.850884	0.652357	-0.000077
 744	7.3928e+01	5.1994	67.595782	0.000588	5.877666	0.995704	-0.000118
 745	7.4028e+01	5.1785	67.482742	0.000567	5.674988	0.961369	-0.000114
 746	7.4127e+01	5.1588	67.397963	0.000426	4.256241	0.721027	-0.000085
 747	7.4227e+01	5.1398	67.288960	0.000547	5.472310	0.927034	-0.000110
 748	7.4326e+01	5.1186	67.179957	0.000547	5.472310	0.927034	-0.000110
 749	7.4426e+01	5.0994	67.074992	0.000527	5.269631	0.892700	-0.000105
 750	7.4525e+01	5.0796	66.901395	0.000872	8.715160	1.476388	-0.000174
 751	7.4625e+01	5.0597	66.844875	0.000284	2.837494	0.480684	-0.000057
 752	7.4725e+01	5.0393	66.727798	0.000588	5.877666	0.995704	-0.000118
 753	7.4824e+01	5.0201	66.618795	0.000547	5.472310	0.927034	-0.000110
 754	7.4924e+01	4.9996	66.497681	0.000608	6.080344	1.030038	-0.000122
 755	7.5023e+01	4.9807	66.376567	0.000608	6.080344	1.030038	-0.000122
 756	7.5123e+01	4.9605	66.271602	0.000527	5.269631	0.892700	-0.000105
 757	7.5222e+01	4.9409	66.194896	0.000385	3.850884	0.652357	-0.000077
 758	7.5322e+01	4.9211	66.041485	0.000770	7.701769	1.304715	-0.000154
 759	7.5421e+01	4.9007	65.944594	0.000486	4.864275	0.824031	-0.000097
 760	7.5520e+01	4.8797	65.847702	0.000486	4.864275	0.824031	-0.000097
 761	7.5620e+01	4.8606	65.726588	0.000608	6.080344	1.030038	-0.000122
 762	7.5719e+01	4.8402	65.629697	0.000486	4.864275	0.824031	-0.000097
 763	7.5819e+01	4.8211	65.512620	0.000588	5.877666	0.995704	-0.000118
 764	7.5918e+01	4.8002	65.415729	0.000486	4.864275	0.824031	-0.000097
 765	7.6018e+01	4.7802	65.310763	0.000527	5.269631	0.892700	-0.000105
 766	7.6118e+01	4.7604	65.165427	0.000730	7.296413	1.236046	-0.000146
 767	7.6217e+01	4.7413	65.088721	0.000385	3.850884	0.652357	-0.000077
 768	7.6317e+01	4.7211	64.959533	0.000649	6.485700	1.098707	-0.000130
 769	7.6416e+01	4.7015	64.858604	0.000507	5.066953	0.858365	-0.000101
 770	7.6516e+01	4.6806	64.757676	0.000507	5.066953	0.858365	-0.000101
 771	7.6615e+01	4.6619	64.628487	0.000649	6.485700	1.098707	-0.000130
 772	7.6715e+01	4.6410	64.527559	0.000507	5.066953	0.858365	-0.000101
 773	7.6814e+01	4.6215	64.442779	0.000426	4.256241	0.721027	-0.000085
 774	7.6913e+01	4.6008	64.293405	0.000750	7.499091	1.270380	-0.000150
 775	7.7013e+01	4.5809	64.184403	0.000547	5.472310	0.927034	-0.000110
 776	7.7112e+01	4.5605	64.075400	0.000547	5.472310	0.927034	-0.000110
 777	7.7212e+01	4.5422	63.946212	0.000649	6.485700	1.098707	-0.000130
 778	7.7311e+01	4.5215	63.833172	0.000567	5.674988	0.961369	-0.000114
 779	7.7411e+01	4.5020	63.728206	0.000527	5.269631	0.892700	-0.000105
 780	7.7510e+01	4.4814	63.623241	0.000527	5.269631	0.892700	-0.000105
 781	7.7610e+01	4.4616	63.494052	0.000649	6.485700	1.098707	-0.000130
 782	7.7710e+01	4.4416	63.360827	0.000669	6.688378	1.133042	-0.000134
 783	7.7809e+01	4.4224	63.276047	0.000426	4.256241	0.721027	-0.000085
 784	7.7909e+01	4.4022	63.146859	0.000649	6.485700	1.098707	-0.000130
 785	7.8008e+01	4.3822	63.025745	0.000608	6.080344	1.030038	-0.000122
 786	7.8108e+01	4.3627	62.908668	0.000588	5.877666	0.995704	-0.000118
 787	7.8207e+01	4.3420	62.795628	0.000567	5.674988	0.961369	-0.000114
 788	7.8306e+01	4.3224	62.702774	0.000466	4.661597	0.789696	-0.000093
 789	7.8406e+01	4.3037	62.585697	0.000588	5.877666	0.995704	-0.000118
 790	7.8505e+01	4.2831	62.480731	0.000527	5.269631	0.892700	-0.000105
 791	7.8605e+01	4.2635	62.363654	0.000588	5.877666	0.995704	-0.000118
 792	7.8704e+01	4.2437	62.234466	0.000649	6.485700	1.098707	-0.000130
 793	7.8804e+01	4.2230	62.137575	0.000486	4.864275	0.824031	-0.000097
 794	7.8903e+01	4.2027	62.000312	0.000689	6.891056	1.167377	-0.000138
 795	7.9003e+01	4.1824	61.883235	0.000588	5.877666	0.995704	-0.000118
 796	7.9103e+01	4.1627	61.774232	0.000547	5.472310	0.927034	-0.000110
 797	7.9202e+01	4.1440	61.669267	0.000527	5.269631	0.892700	-0.000105
 798	7.9302e+01	4.1237	61.499707	0.000851	8.512481	1.442053	-0.000170
 799	7.9401e+01	4.1030	61.414927	0.000426	4.256241	0.721027	-0.000085
 800	7.9501e+01	4.0831	61.285739	0.000649	6.485700	1.098707	-0.000130
 801	7.9600e+01	4.0632	61.168662	0.000588	5.877666	0.995704	-0.000118
 802	7.9700e+01	4.0433	61.051585	0.000588	5.877666	0.995704	-0.000118
 803	7.9799e+01	4.0236	60.906248	0.000730	7.296413	1.236046	-0.000146
 804	7.9898e+01	4.0029	60.825506	0.000405	4.053563	0.686692	-0.000081
 805	7.9998e+01	3.9837	60.664020	0.000811	8.107125	1.373384	-0.000162
 806	8.0097e+01	3.9645	60.563092	0.000507	5.066953	0.858365	-0.000101
 807	8.0197e+01	3.9443	60.498498	0.000324	3.242850	0.549354	-0.000065
 808	8.0296e+01	3.9232	60.320864	0.000892	8.917838	1.510723	-0.000179
 809	8.0396e+01	3.9040	60.223972	0.000486	4.864275	0.824031	-0.000097
 810	8.0496e+01	3.8842	60.102858	0.000608	6.080344	1.030038	-0.000122
 811	8.0595e+01	3.8644	59.961559	0.000709	7.093735	1.201711	-0.000142
 812	8.0695e+01	3.8442	59.860630	0.000507	5.066953	0.858365	-0.000101
 813	8.0794e+01	3.8242	59.767776	0.000466	4.661597	0.789696	-0.000093
 814	8.0894e+01	3.8045	59.614365	0.000770	7.701769	1.304715	-0.000154
 815	8.0993e+01	3.7847	59.489214	0.000628	6.283022	1.064373	-0.000126
 816	8.1093e+01	3.7646	59.376174	0.000567	5.674988	0.961369	-0.000114
 817	8.1192e+01	3.7454	59.275245	0.000507	5.066953	0.858365	-0.000101
 818	8.1291e+01	3.7246	59.117797	0.000790	7.904447	1.339050	-0.000158
 819	8.1391e+01	3.7045	59.012832	0.000527	5.269631	0.892700	-0.000105
 820	8.1490e+01	3.6854	58.887680	0.000628	6.283022	1.064373	-0.000126
 821	8.1590e+01	3.6658	58.758492	0.000649	6.485700	1.098707	-0.000130
 822	8.1689e+01	3.6455	58.653527	0.000527	5.269631	0.892700	-0.000105
 823	8.1789e+01	3.6263	58.540487	0.000567	5.674988	0.961369	-0.000114
 824	8.1888e+01	3.6048	58.407261	0.000669	6.688378	1.133042	-0.000134
 825	8.1988e+01	3.5851	58.274036	0.000669	6.688378	1.133042	-0.000134
 826	8.2088e+01	3.5655	58.128699	0.000730	7.296413	1.236046	-0.000146
 827	8.2187e+01	3.5461	58.023733	0.000527	5.269631	0.892700	-0.000105
 828	8.2287e+01	3.5256	57.914731	0.000547	5.472310	0.927034	-0.000110
 829	8.2386e+01	3.5061	57.797654	0.000588	5.877666	0.995704	-0.000118
 830	8.2486e+01	3.4866	57.656354	0.000709	7.093735	1.201711	-0.000142
 831	8.2585e+01	3.4665	57.547351	0.000547	5.472310	0.927034	-0.000110
 832	8.2684e+01	3.4458	57.377792	0.000851	8.512481	1.442053	-0.000170
 833	8.2784e+01	3.4274	57.317235	0.000304	3.040172	0.515019	-0.000061
 834	8.2883e+01	3.4060	57.184009	0.000669	6.688378	1.133042	-0.000134
 835	8.2983e+01	3.3875	57.034635	0.000750	7.499091	1.270380	-0.000150
 836	8.3082e+01	3.3661	56.889298	0.000730	7.296413	1.236046	-0.000146
 837	8.3182e+01	3.3465	56.836815	0.000263	2.634816	0.446350	-0.000053
 838	8.3281e+01	3.3265	56.647070	0.000953	9.525872	1.613726	-0.000191
 839	8.3381e+01	3.3092	56.513845	0.000669	6.688378	1.133042	-0.000134
 840	8.3481e+01	3.2868	56.449250	0.000324	3.242850	0.549354	-0.000065
 841	8.3580e+01	3.2668	56.275654	0.000872	8.715160	1.476388	-0.000174
 842	8.3680e+01	3.2462	56.162614	0.000567	5.674988	0.961369	-0.000114
 843	8.3779e+01	3.2261	56.053611	0.000547	5.472310	0.927034	-0.000110
 844	8.3879e+01	3.2063	55.924423	0.000649	6.485700	1.098707	-0.000130
 845	8.3978e+01	3.1869	55.819457	0.000527	5.269631	0.892700	-0.000105
 846	8.4078e+01	3.1676	55.662009	0.000790	7.904447	1.339050	-0.000158
 847	8.4177e+01	3.1475	55.524746	0.000689	6.891056	1.167377	-0.000138
 848	8.4276e+01	3.1274	55.387484	0.000689	6.891056	1.167377	-0.000138
 849	8.4376e+01	3.1080	55.250221	0.000689	6.891056	1.167377	-0.000138
 850	8.4475e+01	3.0868	55.133144	0.000588	5.877666	0.995704	-0.000118
 851	8.4575e+01	3.0672	54.999919	0.000669	6.688378	1.133042	-0.000134
 852	8.4674e+01	3.0474	54.874768	0.000628	6.283022	1.064373	-0.000126
 853	8.4774e+01	3.0273	54.753653	0.000608	6.080344	1.030038	-0.000122
 854	8.4874e+01	3.0067	54.616391	0.000689	6.891056	1.167377	-0.000138
 855	8.4973e+01	2.9873	54.507388	0.000547	5.472310	0.927034	-0.000110
 856	8.5073e+01	2.9684	54.378200	0.000649	6.485700	1.098707	-0.000130
 857	8.5172e+01	2.9484	54.253049	0.000628	6.283022	1.064373	-0.000126
 858	8.5272e+01	2.9273	54.099637	0.000770	7.701769	1.304715	-0.000154
 859	8.5371e+01	2.9082	54.006783	0.000466	4.661597	0.789696	-0.000093
 860	8.5471e+01	2.8873	53.853372	0.000770	7.701769	1.304715	-0.000154
 861	8.5570e+01	2.8681	53.728221	0.000628	6.283022	1.064373	-0.000126
 862	8.5669e+01	2.8471	53.635367	0.000466	4.661597	0.789696	-0.000093
 863	8.5769e+01	2.8277	53.465807	0.000851	8.512481	1.442053	-0.000170
 864	8.5868e+01	2.8082	53.312396	0.000770	7.701769	1.304715	-0.000154
 865	8.5968e+01	2.7885	53.199356	0.000567	5.674988	0.961369	-0.000114
 866	8.6067e+01	2.7688	53.086316	0.000567	5.674988	0.961369	-0.000114
 867	8.6167e+01	2.7483	52.940980	0.000730	7.296413	1.236046	-0.000146
 868	8.6266e+01	2.7288	52.799680	0.000709	7.093735	1.201711	-0.000142
 869	8.6366e+01	2.7084	52.682603	0.000588	5.877666	0.995704	-0.000118
 870	8.6466e+01	2.6888	52.549377	0.000669	6.688378	1.133042	-0.000134
 871	8.6565e+01	2.6658	52.468635	0.000405	4.053563	0.686692	-0.000081
 872	8.6665e+01	2.6489	52.307149	0.000811	8.107125	1.373384	-0.000162
 873	8.6764e+01	2.6286	52.149701	0.000790	7.904447	1.339050	-0.000158
 874	8.6864e+01	2.6095	52.044735	0.000527	5.269631	0.892700	-0.000105
 875	8.6963e+01	2.5893	51.939770	0.000527	5.269631	0.892700	-0.000105
 876	8.7063e+01	2.5692	51.774247	0.000831	8.309803	1.407719	-0.000166
 877	8.7162e+01	2.5500	51.645059	0.000649	6.485700	1.098707	-0.000130
 878	8.7261e+01	2.5294	51.503759	0.000709	7.093735	1.201711	-0.000142
 879	8.7361e+01	2.5092	51.386682	0.000588	5.877666	0.995704	-0.000118
 880	8.7460e+01	2.4895	51.261531	0.000628	6.283022	1.064373	-0.000126
 881	8.7560e+01	2.4695	51.176751	0.000426	4.256241	0.721027	-0.000085
 882	8.7659e+01	2.4499	50.991043	0.000932	9.323194	1.579392	-0.000187
 883	8.7759e+01	2.4304	50.894152	0.000486	4.864275	0.824031	-0.000097
 884	8.7859e+01	2.4101	50.716518	0.000892	8.917838	1.510723	-0.000179
 885	8.7958e+01	2.3905	50.607515	0.000547	5.472310	0.927034	-0.000110
 886	8.8058e+01	2.3705	50.409695	0.000993	9.931228	1.682396	-0.000199
 887	8.8157e+01	2.3502	50.320878	0.000446	4.458919	0.755361	-0.000089
 888	8.8257e+01	2.3301	50.223987	0.000486	4.864275	0.824031	-0.000097
 889	8.8356e+01	2.3101	50.054427	0.000851	8.512481	1.442053	-0.000170
 890	8.8456e+01	2.2904	49.937351	0.000588	5.877666	0.995704	-0.000118
 891	8.8555e+01	2.2717	49.808162	0.000649	6.485700	1.098707	-0.000130
 892	8.8654e+01	2.2511	49.670900	0.000689	6.891056	1.167377	-0.000138
 893	8.8754e+01	2.2311	49.565934	0.000527	5.269631	0.892700	-0.000105
 894	8.8853e+01	2.2105	49.404449	0.000811	8.107125	1.373384	-0.000162
 895	8.8953e+01	2.1912	49.255075	0.000750	7.499091	1.270380	-0.000150
 896	8.9052e+01	2.1703	49.101663	0.000770	7.701769	1.304715	-0.000154
 897	8.9152e+01	2.1517	48.960364	0.000709	7.093735	1.201711	-0.000142
 898	8.9251e+01	2.1311	48.847324	0.000567	5.674988	0.961369	-0.000114
 899	8.9351e+01	2.1108	48.697950	0.000750	7.499091	1.270380	-0.000150
 900	8.9451e+01	2.0914	48.580873	0.000588	5.877666	0.995704	-0.000118
 901	8.9550e+01	2.0710	48.411313	0.000851	8.512481	1.442053	-0.000170
 902	8.9650e+01	2.0513	48.338645	0.000365	3.648206	0.618023	-0.000073
 903	8.9749e+01	2.0317	48.156974	0.000912	9.120516	1.545057	-0.000183
 904	8.9849e+01	2.0115	48.027785	0.000649	6.485700	1.098707	-0.000130
 905	8.9948e+01	1.9912	47.878411	0.000750	7.499091	1.270380	-0.000150
 906	9.0047e+01	1.9718	47.741149	0.000689	6.891056	1.167377	-0.000138
 907	9.0147e+01	1.9512	47.583700	0.000790	7.904447	1.339050	-0.000158
 908	9.0246e+01	1.9320	47.482772	0.000507	5.066953	0.858365	-0.000101
 909	9.0346e+01	1.9127	47.321287	0.000811	8.107125	1.373384	-0.000162
 910	9.0445e+01	1.8919	47.184024	0.000689	6.891056	1.167377	-0.000138
 911	9.0545e+01	1.8717	47.066947	0.000588	5.877666	0.995704	-0.000118
 912	9.0644e+01	1.8531	46.953907	0.000567	5.674988	0.961369	-0.000114
 913	9.0744e+01	1.8316	46.800496	0.000770	7.701769	1.304715	-0.000154
 914	9.0844e+01	1.8125	46.614788	0.000932	9.323194	1.579392	-0.000187
 915	9.0943e+01	1.7928	46.497711	0.000588	5.877666	0.995704	-0.000118
 916	9.1043e+01	1.7723	46.352374	0.000730	7.296413	1.236046	-0.000146
 917	9.1142e+01	1.7530	46.182814	0.000851	8.512481	1.442053	-0.000170
 918	9.1242e+01	1.7333	46.102072	0.000405	4.053563	0.686692	-0.000081
 919	9.1341e+01	1.7130	45.912326	0.000953	9.525872	1.613726	-0.000191
 920	9.1441e+01	1.6927	45.803324	0.000547	5.472310	0.927034	-0.000110
 921	9.1540e+01	1.6732	45.666061	0.000689	6.891056	1.167377	-0.000138
 922	9.1639e+01	1.6531	45.553021	0.000567	5.674988	0.961369	-0.000114
 923	9.1739e+01	1.6331	45.367313	0.000932	9.323194	1.579392	-0.000187
 924	9.1838e+01	1.6128	45.209865	0.000790	7.904447	1.339050	-0.000158
 925	9.1938e+01	1.5926	45.068565	0.000709	7.093735	1.201711	-0.000142
 926	9.2037e+01	1.5733	44.987822	0.000405	4.053563	0.686692	-0.000081
 927	9.2137e+01	1.5533	44.822300	0.000831	8.309803	1.407719	-0.000166
 928	9.2237e+01	1.5341	44.685037	0.000689	6.891056	1.167377	-0.000138
 929	9.2336e+01	1.5147	44.555849	0.000649	6.485700	1.098707	-0.000130
 930	9.2436e+01	1.4928	44.402437	0.000770	7.701769	1.304715	-0.000154
 931	9.2535e+01	1.4734	44.253063	0.000750	7.499091	1.270380	-0.000150
 932	9.2635e+01	1.4536	44.083504	0.000851	8.512481	1.442053	-0.000170
 933	9.2734e+01	1.4340	43.994687	0.000446	4.458919	0.755361	-0.000089
 934	9.2834e+01	1.4136	43.829164	0.000831	8.309803	1.407719	-0.000166
 935	9.2933e+01	1.3937	43.695939	0.000669	6.688378	1.133042	-0.000134
 936	9.3032e+01	1.3737	43.562713	0.000669	6.688378	1.133042	-0.000134
 937	9.3132e+01	1.3548	43.397191	0.000831	8.309803	1.407719	-0.000166
 938	9.3231e+01	1.3339	43.280114	0.000588	5.877666	0.995704	-0.000118
 939	9.3331e+01	1.3151	43.098443	0.000912	9.120516	1.545057	-0.000183
 940	9.3430e+01	1.2939	43.001551	0.000486	4.864275	0.824031	-0.000097
 941	9.3530e+01	1.2740	42.823917	0.000892	8.917838	1.510723	-0.000179
 942	9.3629e+01	1.2551	42.686655	0.000689	6.891056	1.167377	-0.000138
 943	9.3729e+01	1.2342	42.553429	0.000669	6.688378	1.133042	-0.000134
 944	9.3829e+01	1.2153	42.408092	0.000730	7.296413	1.236046	-0.000146
 945	9.3928e+01	1.1956	42.230458	0.000892	8.917838	1.510723	-0.000179
 946	9.4028e+01	1.1745	42.133567	0.000486	4.864275	0.824031	-0.000097
 947	9.4127e+01	1.1555	41.976119	0.000790	7.904447	1.339050	-0.000158
 948	9.4227e+01	1.1350	41.830782	0.000730	7.296413	1.236046	-0.000146
 949	9.4326e+01	1.1153	41.673334	0.000790	7.904447	1.339050	-0.000158
 950	9.4425e+01	1.0957	41.523960	0.000750	7.499091	1.270380	-0.000150
 951	9.4525e+01	1.0750	41.362474	0.000811	8.107125	1.373384	-0.000162
 952	9.4624e+01	1.0555	41.241360	0.000608	6.080344	1.030038	-0.000122
 953	9.4724e+01	1.0351	41.091986	0.000750	7.499091	1.270380	-0.000150
 954	9.4823e+01	1.0159	40.958761	0.000669	6.688378	1.133042	-0.000134
 955	9.4923e+01	0.9967	40.797275	0.000811	8.107125	1.373384	-0.000162
 956	9.5022e+01	0.9770	40.615604	0.000912	9.120516	1.545057	-0.000183
 957	9.5122e+01	0.9560	40.502564	0.000567	5.674988	0.961369	-0.000114
 958	9.5222e+01	0.9367	40.361265	0.000709	7.093735	1.201711	-0.000142
 959	9.5321e+01	0.9170	40.183631	0.000892	8.917838	1.510723	-0.000179
 960	9.5421e+01	0.8958	40.058479	0.000628	6.283022	1.064373	-0.000126
 961	9.5520e+01	0.8770	39.941402	0.000588	5.877666	0.995704	-0.000118
 962	9.5620e+01	0.8572	39.808177	0.000669	6.688378	1.133042	-0.000134
 963	9.5719e+01	0.8366	39.658803	0.000750	7.499091	1.270380	-0.000150
 964	9.5819e+01	0.8156	39.473095	0.000932	9.323194	1.579392	-0.000187
 965	9.5918e+01	0.7967	39.319684	0.000770	7.701769	1.304715	-0.000154
 966	9.6017e+01	0.7773	39.170309	0.000750	7.499091	1.270380	-0.000150
 967	9.6117e+01	0.7564	39.000750	0.000851	8.512481	1.442053	-0.000170
 968	9.6216e+01	0.7365	38.851376	0.000750	7.499091	1.270380	-0.000150
 969	9.6316e+01	0.7166	38.706039	0.000730	7.296413	1.236046	-0.000146
 970	9.6415e+01	0.6959	38.552628	0.000770	7.701769	1.304715	-0.000154
 971	9.6515e+01	0.6779	38.407291	0.000730	7.296413	1.236046	-0.000146
 972	9.6615e+01	0.6564	38.270028	0.000689	6.891056	1.167377	-0.000138
 973	9.6714e+01	0.6368	38.152951	0.000588	5.877666	0.995704	-0.000118
 974	9.6814e+01	0.6166	38.007614	0.000730	7.296413	1.236046	-0.000146
 975	9.6913e+01	0.5973	37.793646	0.001074	10.741941	1.819734	-0.000215
 976	9.7013e+01	0.5770	37.672532	0.000608	6.080344	1.030038	-0.000122
 977	9.7112e+01	0.5571	37.543344	0.000649	6.485700	1.098707	-0.000130
 978	9.7212e+01	0.5378	37.393970	0.000750	7.499091	1.270380	-0.000150
 979	9.7311e+01	0.5181	37.268819	0.000628	6.283022	1.064373	-0.000126
 980	9.7410e+01	0.4974	37.079073	0.000953	9.525872	1.613726	-0.000191
 981	9.7510e+01	0.4780	36.925662	0.000770	7.701769	1.304715	-0.000154
 982	9.7609e+01	0.4582	36.800511	0.000628	6.283022	1.064373	-0.000126
 983	9.7709e+01	0.4358	36.659211	0.000709	7.093735	1.201711	-0.000142
 984	9.7808e+01	0.4176	36.489651	0.000851	8.512481	1.442053	-0.000170
 985	9.7908e+01	0.3989	36.283757	0.001034	10.336585	1.751065	-0.000207
 986	9.8007e+01	0.3783	36.198978	0.000426	4.256241	0.721027	-0.000085
 987	9.8107e+01	0.3585	36.005195	0.000973	9.728550	1.648061	-0.000195
 988	9.8207e+01	0.3380	35.847747	0.000790	7.904447	1.339050	-0.000158
 989	9.8306e+01	0.3193	35.702410	0.000730	7.296413	1.236046	-0.000146
 990	9.8406e+01	0.2979	35.585333	0.000588	5.877666	0.995704	-0.000118
 991	9.8505e+01	0.2782	35.419810	0.000831	8.309803	1.407719	-0.000166
 992	9.8605e+01	0.2583	35.258325	0.000811	8.107125	1.373384	-0.000162
 993	9.8704e+01	0.2387	35.104914	0.000770	7.701769	1.304715	-0.000154
 994	9.8803e+01	0.2187	34.975725	0.000649	6.485700	1.098707	-0.000130
 995	9.8903e+01	0.1990	34.858649	0.000588	5.877666	0.995704	-0.000118
 996	9.9002e+01	0.1781	34.656792	0.001013	10.133907	1.716730	-0.000203
 997	9.9102e+01	0.1585	34.519529	0.000689	6.891056	1.167377	-0.000138
 998	9.9201e+01	0.1384	34.362081	0.000790	7.904447	1.339050	-0.000158
 999	9.9301e+01	0.1192	34.196558	0.000831	8.309803	1.407719	-0.000166
1000	9.9400e+01	0.0992	34.063333	0.000669	6.688378	1.133042	-0.000134
1001	9.9500e+01	0.0794	33.909922	0.000770	7.701769	1.304715	-0.000154
1002	9.9600e+01	0.0582	33.748436	0.000811	8.107125	1.373384	-0.000162
1003	9.9699e+01	0.0391	33.590988	0.000790	7.904447	1.339050	-0.000158
1004	9.9799e+01	0.0187	33.465837	0.000628	6.283022	1.064373	-0.000126
1005	9.9898e+01	-0.0004	33.308388	0.000790	7.904447	1.339050	-0.000158
1006	9.9998e+01	-0.0189	33.134792	0.000872	8.715160	1.476388	-0.000174
1007	1.0010e+02	-0.0384	33.037900	0.000486	4.864275	0.824031	-0.000097
1008	1.0020e+02	-0.0577	32.860266	0.000892	8.917838	1.510723	-0.000179
1009	1.0030e+02	-0.0786	32.698781	0.000811	8.107125	1.373384	-0.000162
1010	1.0040e+02	-0.0980	32.561518	0.000689	6.891056	1.167377	-0.000138
1011	1.0050e+02	-0.1186	32.440404	0.000608	6.080344	1.030038	-0.000122
1012	1.0059e+02	-0.1389	32.250659	0.000953	9.525872	1.613726	-0.000191
1013	1.0069e+02	-0.1581	32.109359	0.000709	7.093735	1.201711	-0.000142
1014	1.0079e+02	-0.1785	31.968059	0.000709	7.093735	1.201711	-0.000142
1015	1.0089e+02	-0.1975	31.750054	0.001094	10.944619	1.854069	-0.000219
1016	1.0099e+02	-0.2174	31.624903	0.000628	6.283022	1.064373	-0.000126
1017	1.0109e+02	-0.2387	31.435157	0.000953	9.525872	1.613726	-0.000191
1018	1.0119e+02	-0.2573	31.293858	0.000709	7.093735	1.201711	-0.000142
1019	1.0129e+02	-0.2783	31.168706	0.000628	6.283022	1.064373	-0.000126
1020	1.0139e+02	-0.2979	31.003184	0.000831	8.309803	1.407719	-0.000166
1021	1.0149e+02	-0.3175	30.845736	0.000790	7.904447	1.339050	-0.000158
1022	1.0159e+02	-0.3380	30.712510	0.000669	6.688378	1.133042	-0.000134
1023	1.0169e+02	-0.3574	30.530839	0.000912	9.120516	1.545057	-0.000183
1024	1.0179e+02	-0.3781	30.389539	0.000709	7.093735	1.201711	-0.000142
1025	1.0189e+02	-0.3967	30.228054	0.000811	8.107125	1.373384	-0.000162
1026	1.0199e+02	-0.4173	30.066568	0.000811	8.107125	1.373384	-0.000162
1027	1.0209e+02	-0.4371	29.888934	0.000892	8.917838	1.510723	-0.000179
1028	1.0219e+02	-0.4565	29.747635	0.000709	7.093735	1.201711	-0.000142
1029	1.0229e+02	-0.4780	29.602298	0.000730	7.296413	1.236046	-0.000146
1030	1.0239e+02	-0.4972	29.404478	0.000993	9.931228	1.682396	-0.000199
1031	1.0248e+02	-0.5168	29.291438	0.000567	5.674988	0.961369	-0.000114
1032	1.0258e+02	-0.5379	29.129953	0.000811	8.107125	1.373384	-0.000162
1033	1.0268e+02	-0.5581	28.996727	0.000669	6.688378	1.133042	-0.000134
1034	1.0278e+02	-0.5773	28.831205	0.000831	8.309803	1.407719	-0.000166
1035	1.0288e+02	-0.5960	28.649534	0.000912	9.120516	1.545057	-0.000183
1036	1.0298e+02	-0.6173	28.508234	0.000709	7.093735	1.201711	-0.000142
1037	1.0308e+02	-0.6357	28.366934	0.000709	7.093735	1.201711	-0.000142
1038	1.0318e+02	-0.6559	28.229672	0.000689	6.891056	1.167377	-0.000138
1039	1.0328e+02	-0.6760	28.056075	0.000872	8.715160	1.476388	-0.000174
1040	1.0338e+02	-0.6957	27.926886	0.000649	6.485700	1.098707	-0.000130
1041	1.0348e+02	-0.7163	27.741178	0.000932	9.323194	1.579392	-0.000187
1042	1.0358e+02	-0.7365	27.595841	0.000730	7.296413	1.236046	-0.000146
1043	1.0368e+02	-0.7561	27.454542	0.000709	7.093735	1.201711	-0.000142
1044	1.0378e+02	-0.7770	27.280945	0.000872	8.715160	1.476388	-0.000174
1045	1.0388e+02	-0.7959	27.119459	0.000811	8.107125	1.373384	-0.000162
1046	1.0398e+02	-0.8157	26.994308	0.000628	6.283022	1.064373	-0.000126
1047	1.0408e+02	-0.8363	26.848971	0.000730	7.296413	1.236046	-0.000146
1048	1.0418e+02	-0.8555	26.687486	0.000811	8.107125	1.373384	-0.000162
1049	1.0428e+02	-0.8755	26.497740	0.000953	9.525872	1.613726	-0.000191
1050	1.0438e+02	-0.8963	26.368552	0.000649	6.485700	1.098707	-0.000130
1051	1.0447e+02	-0.9164	26.186881	0.000912	9.120516	1.545057	-0.000183
1052	1.0457e+02	-0.9357	26.045581	0.000709	7.093735	1.201711	-0.000142
1053	1.0467e+02	-0.9545	25.888133	0.000790	7.904447	1.339050	-0.000158
1054	1.0477e+02	-0.9750	25.734722	0.000770	7.701769	1.304715	-0.000154
1055	1.0487e+02	-0.9950	25.581311	0.000770	7.701769	1.304715	-0.000154
1056	1.0497e+02	-1.0155	25.440011	0.000709	7.093735	1.201711	-0.000142
1057	1.0507e+02	-1.0353	25.254303	0.000932	9.323194	1.579392	-0.000187
1058	1.0517e+02	-1.0557	25.113003	0.000709	7.093735	1.201711	-0.000142
1059	1.0527e+02	-1.0759	24.943443	0.000851	8.512481	1.442053	-0.000170
1060	1.0537e+02	-1.0947	24.781958	0.000811	8.107125	1.373384	-0.000162
1061	1.0547e+02	-1.1152	24.640658	0.000709	7.093735	1.201711	-0.000142
1062	1.0557e+02	-1.1356	24.483210	0.000790	7.904447	1.339050	-0.000158
1063	1.0567e+02	-1.1559	24.345947	0.000689	6.891056	1.167377	-0.000138
1064	1.0577e+02	-1.1751	24.152165	0.000973	9.728550	1.648061	-0.000195
1065	1.0587e+02	-1.1944	24.031050	0.000608	6.080344	1.030038	-0.000122
1066	1.0597e+02	-1.2144	23.849379	0.000912	9.120516	1.545057	-0.000183
1067	1.0607e+02	-1.2341	23.704042	0.000730	7.296413	1.236046	-0.000146
1068	1.0617e+02	-1.2553	23.550631	0.000770	7.701769	1.304715	-0.000154
1069	1.0627e+02	-1.2737	23.397220	0.000770	7.701769	1.304715	-0.000154
1070	1.0637e+02	-1.2935	23.235735	0.000811	8.107125	1.373384	-0.000162
1071	1.0647e+02	-1.3129	23.074249	0.000811	8.107125	1.373384	-0.000162
1072	1.0656e+02	-1.3339	22.945061	0.000649	6.485700	1.098707	-0.000130
1073	1.0666e+02	-1.3538	22.743204	0.001013	10.133907	1.716730	-0.000203
1074	1.0676e+02	-1.3725	22.593830	0.000750	7.499091	1.270380	-0.000150
1075	1.0686e+02	-1.3935	22.460605	0.000669	6.688378	1.133042	-0.000134
1076	1.0696e+02	-1.4132	22.295082	0.000831	8.309803	1.407719	-0.000166
1077	1.0706e+02	-1.4333	22.173968	0.000608	6.080344	1.030038	-0.000122
1078	1.0716e+02	-1.4534	22.008445	0.000831	8.309803	1.407719	-0.000166
1079	1.0726e+02	-1.4721	21.830812	0.000892	8.917838	1.510723	-0.000179
1080	1.0736e+02	-1.4930	21.661252	0.000851	8.512481	1.442053	-0.000170
1081	1.0746e+02	-1.5131	21.499766	0.000811	8.107125	1.373384	-0.000162
1082	1.0756e+02	-1.5340	21.322132	0.000892	8.917838	1.510723	-0.000179
1083	1.0766e+02	-1.5523	21.176796	0.000730	7.296413	1.236046	-0.000146
1084	1.0776e+02	-1.5729	21.015310	0.000811	8.107125	1.373384	-0.000162
1085	1.0786e+02	-1.5927	20.869973	0.000730	7.296413	1.236046	-0.000146
1086	1.0796e+02	-1.6136	20.732711	0.000689	6.891056	1.167377	-0.000138
1087	1.0806e+02	-1.6324	20.591411	0.000709	7.093735	1.201711	-0.000142
1088	1.0816e+02	-1.6529	20.409740	0.000912	9.120516	1.545057	-0.000183
1089	1.0826e+02	-1.6726	20.244217	0.000831	8.309803	1.407719	-0.000166
1090	1.0836e+02	-1.6922	20.115029	0.000649	6.485700	1.098707	-0.000130
1091	1.0845e+02	-1.7123	19.937395	0.000892	8.917838	1.510723	-0.000179
1092	1.0855e+02	-1.7322	19.747649	0.000953	9.525872	1.613726	-0.000191
1093	1.0865e+02	-1.7519	19.626535	0.000608	6.080344	1.030038	-0.000122
1094	1.0875e+02	-1.7720	19.448901	0.000892	8.917838	1.510723	-0.000179
1095	1.0885e+02	-1.7924	19.311639	0.000689	6.891056	1.167377	-0.000138
1096	1.0895e+02	-1.8125	19.170339	0.000709	7.093735	1.201711	-0.000142
1097	1.0905e+02	-1.8321	19.020965	0.000750	7.499091	1.270380	-0.000150
1098	1.0915e+02	-1.8517	18.843331	0.000892	8.917838	1.510723	-0.000179
1099	1.0925e+02	-1.8721	18.641474	0.001013	10.133907	1.716730	-0.000203
1100	1.0935e+02	-1.8915	18.524397	0.000588	5.877666	0.995704	-0.000118
1101	1.0945e+02	-1.9113	18.419432	0.000527	5.269631	0.892700	-0.000105
1102	1.0955e+02	-1.9305	18.209501	0.001054	10.539263	1.785399	-0.000211
1103	1.0965e+02	-1.9513	18.039941	0.000851	8.512481	1.442053	-0.000170
1104	1.0975e+02	-1.9711	17.894604	0.000730	7.296413	1.236046	-0.000146
1105	1.0985e+02	-1.9902	17.777527	0.000588	5.877666	0.995704	-0.000118
1106	1.0995e+02	-2.0110	17.587782	0.000953	9.525872	1.613726	-0.000191
1107	1.1005e+02	-2.0303	17.442445	0.000730	7.296413	1.236046	-0.000146
1108	1.1015e+02	-2.0523	17.248662	0.000973	9.728550	1.648061	-0.000195
1109	1.1025e+02	-2.0721	17.091214	0.000790	7.904447	1.339050	-0.000158
1110	1.1035e+02	-2.0911	16.933766	0.000790	7.904447	1.339050	-0.000158
1111	1.1044e+02	-2.1114	16.788429	0.000730	7.296413	1.236046	-0.000146
1112	1.1054e+02	-2.1307	16.630981	0.000790	7.904447	1.339050	-0.000158
1113	1.1064e+02	-2.1518	16.517941	0.000567	5.674988	0.961369	-0.000114
1114	1.1074e+02	-2.1714	16.328195	0.000953	9.525872	1.613726	-0.000191
1115	1.1084e+02	-2.1912	16.174784	0.000770	7.701769	1.304715	-0.000154
1116	1.1094e+02	-2.2103	16.041559	0.000669	6.688378	1.133042	-0.000134
1117	1.1104e+02	-2.2299	15.888148	0.000770	7.701769	1.304715	-0.000154
1118	1.1114e+02	-2.2525	15.730699	0.000790	7.904447	1.339050	-0.000158
1119	1.1124e+02	-2.2704	15.520768	0.001054	10.539263	1.785399	-0.000211
1120	1.1134e+02	-2.2910	15.407729	0.000567	5.674988	0.961369	-0.000114
1121	1.1144e+02	-2.3093	15.238169	0.000851	8.512481	1.442053	-0.000170
1122	1.1154e+02	-2.3322	15.080721	0.000790	7.904447	1.339050	-0.000158
1123	1.1164e+02	-2.3502	14.943458	0.000689	6.891056	1.167377	-0.000138
1124	1.1174e+02	-2.3696	14.761787	0.000912	9.120516	1.545057	-0.000183
1125	1.1184e+02	-2.3901	14.632598	0.000649	6.485700	1.098707	-0.000130
1126	1.1194e+02	-2.4097	14.438816	0.000973	9.728550	1.648061	-0.000195
1127	1.1204e+02	-2.4301	14.249071	0.000953	9.525872	1.613726	-0.000191
1128	1.1214e+02	-2.4490	14.140068	0.000547	5.472310	0.927034	-0.000110
1129	1.1224e+02	-2.4692	13.982620	0.000790	7.904447	1.339050	-0.000158
1130	1.1234e+02	-2.4890	13.813060	0.000851	8.512481	1.442053	-0.000170
1131	1.1244e+02	-2.5085	13.671760	0.000709	7.093735	1.201711	-0.000142
1132	1.1253e+02	-2.5288	13.490089	0.000912	9.120516	1.545057	-0.000183
1133	1.1263e+02	-2.5485	13.360901	0.000649	6.485700	1.098707	-0.000130
1134	1.1273e+02	-2.5690	13.191341	0.000851	8.512481	1.442053	-0.000170
1135	1.1283e+02	-2.5896	13.058116	0.000669	6.688378	1.133042	-0.000134
1136	1.1293e+02	-2.6086	12.892593	0.000831	8.309803	1.407719	-0.000166
1137	1.1303e+02	-2.6286	12.731108	0.000811	8.107125	1.373384	-0.000162
1138	1.1313e+02	-2.6483	12.541362	0.000953	9.525872	1.613726	-0.000191
1139	1.1323e+02	-2.6682	12.420248	0.000608	6.080344	1.030038	-0.000122
1140	1.1333e+02	-2.6881	12.238577	0.000912	9.120516	1.545057	-0.000183
1141	1.1343e+02	-2.7080	12.089203	0.000750	7.499091	1.270380	-0.000150
1142	1.1353e+02	-2.7274	11.980200	0.000547	5.472310	0.927034	-0.000110
1143	1.1363e+02	-2.7481	11.806603	0.000872	8.715160	1.476388	-0.000174
1144	1.1373e+02	-2.7686	11.604747	0.001013	10.133907	1.716730	-0.000203
1145	1.1383e+02	-2.7879	11.475558	0.000649	6.485700	1.098707	-0.000130
1146	1.1393e+02	-2.8078	11.350407	0.000628	6.283022	1.064373	-0.000126
1147	1.1403e+02	-2.8271	11.184885	0.000831	8.309803	1.407719	-0.000166
1148	1.1413e+02	-2.8474	11.039548	0.000730	7.296413	1.236046	-0.000146
1149	1.1423e+02	-2.8677	10.869988	0.000851	8.512481	1.442053	-0.000170
1150	1.1433e+02	-2.8873	10.684280	0.000932	9.323194	1.579392	-0.000187
1151	1.1442e+02	-2.9082	10.510683	0.000872	8.715160	1.476388	-0.000174
1152	1.1452e+02	-2.9276	10.377457	0.000669	6.688378	1.133042	-0.000134
1153	1.1462e+02	-2.9471	10.220009	0.000790	7.904447	1.339050	-0.000158
1154	1.1472e+02	-2.9668	10.094858	0.000628	6.283022	1.064373	-0.000126
1155	1.1482e+02	-2.9874	9.884927	0.001054	10.539263	1.785399	-0.000211
1156	1.1492e+02	-3.0075	9.800147	0.000426	4.256241	0.721027	-0.000085
1157	1.1502e+02	-3.0271	9.574067	0.001135	11.349975	1.922738	-0.000227
1158	1.1512e+02	-3.0473	9.456990	0.000588	5.877666	0.995704	-0.000118
1159	1.1522e+02	-3.0670	9.279356	0.000892	8.917838	1.510723	-0.000179
1160	1.1532e+02	-3.0870	9.162280	0.000588	5.877666	0.995704	-0.000118
1161	1.1542e+02	-3.1073	8.984646	0.000892	8.917838	1.510723	-0.000179
1162	1.1552e+02	-3.1264	8.827197	0.000790	7.904447	1.339050	-0.000158
1163	1.1562e+02	-3.1468	8.657638	0.000851	8.512481	1.442053	-0.000170
1164	1.1572e+02	-3.1665	8.496152	0.000811	8.107125	1.373384	-0.000162
1165	1.1582e+02	-3.1857	8.354852	0.000709	7.093735	1.201711	-0.000142
1166	1.1592e+02	-3.2060	8.197404	0.000790	7.904447	1.339050	-0.000158
1167	1.1602e+02	-3.2263	8.068216	0.000649	6.485700	1.098707	-0.000130
1168	1.1612e+02	-3.2460	7.890582	0.000892	8.917838	1.510723	-0.000179
1169	1.1622e+02	-3.2647	7.741208	0.000750	7.499091	1.270380	-0.000150
1170	1.1632e+02	-3.2864	7.575685	0.000831	8.309803	1.407719	-0.000166
1171	1.1642e+02	-3.3063	7.442460	0.000669	6.688378	1.133042	-0.000134
1172	1.1651e+02	-3.3260	7.264826	0.000892	8.917838	1.510723	-0.000179
1173	1.1661e+02	-3.3455	7.103340	0.000811	8.107125	1.373384	-0.000162
1174	1.1671e+02	-3.3661	6.958003	0.000730	7.296413	1.236046	-0.000146
1175	1.1681e+02	-3.3864	6.768258	0.000953	9.525872	1.613726	-0.000191
1176	1.1691e+02	-3.4053	6.618884	0.000750	7.499091	1.270380	-0.000150
1177	1.1701e+02	-3.4260	6.497770	0.000608	6.080344	1.030038	-0.000122
1178	1.1711e+02	-3.4454	6.303987	0.000973	9.728550	1.648061	-0.000195
1179	1.1721e+02	-3.4663	6.182873	0.000608	6.080344	1.030038	-0.000122
1180	1.1731e+02	-3.4857	5.993128	0.000953	9.525872	1.613726	-0.000191
1181	1.1741e+02	-3.5048	5.851828	0.000709	7.093735	1.201711	-0.000142
1182	1.1751e+02	-3.5260	5.686306	0.000831	8.309803	1.407719	-0.000166
1183	1.1761e+02	-3.5457	5.528857	0.000790	7.904447	1.339050	-0.000158
1184	1.1771e+02	-3.5655	5.379483	0.000750	7.499091	1.270380	-0.000150
1185	1.1781e+02	-3.5838	5.217998	0.000811	8.107125	1.373384	-0.000162
1186	1.1791e+02	-3.6044	5.044401	0.000872	8.715160	1.476388	-0.000174
1187	1.1801e+02	-3.6247	4.874841	0.000851	8.512481	1.442053	-0.000170
1188	1.1811e+02	-3.6446	4.741616	0.000669	6.688378	1.133042	-0.000134
1189	1.1821e+02	-3.6650	4.616465	0.000628	6.283022	1.064373	-0.000126
1190	1.1831e+02	-3.6849	4.394422	0.001115	11.147297	1.888403	-0.000223
1191	1.1841e+02	-3.7055	4.261197	0.000669	6.688378	1.133042	-0.000134
1192	1.1850e+02	-3.7224	4.071451	0.000953	9.525872	1.613726	-0.000191
1193	1.1860e+02	-3.7444	3.966486	0.000527	5.269631	0.892700	-0.000105
1194	1.1870e+02	-3.7660	3.776740	0.000953	9.525872	1.613726	-0.000191
1195	1.1880e+02	-3.7838	3.619292	0.000790	7.904447	1.339050	-0.000158
1196	1.1890e+02	-3.8029	3.486067	0.000669	6.688378	1.133042	-0.000134
1197	1.1900e+02	-3.8242	3.312470	0.000872	8.715160	1.476388	-0.000174
1198	1.1910e+02	-3.8436	3.142910	0.000851	8.512481	1.442053	-0.000170
1199	1.1920e+02	-3.8641	3.021796	0.000608	6.080344	1.030038	-0.000122
1200	1.1930e+02	-3.8840	2.844162	0.000892	8.917838	1.510723	-0.000179
1201	1.1940e+02	-3.9044	2.710937	0.000669	6.688378	1.133042	-0.000134
1202	1.1950e+02	-3.9233	2.537340	0.000872	8.715160	1.476388	-0.000174
1203	1.1960e+02	-3.9439	2.367780	0.000851	8.512481	1.442053	-0.000170
1204	1.1970e+02	-3.9633	2.242629	0.000628	6.283022	1.064373	-0.000126
1205	1.1980e+02	-3.9828	2.060958	0.000912	9.120516	1.545057	-0.000183
1206	1.1990e+02	-4.0032	1.899472	0.000811	8.107125	1.373384	-0.000162
1207	1.2000e+02	-4.0236	1.774321	0.000628	6.283022	1.064373	-0.000126
1208	1.2010e+02	-4.0431	1.592650	0.000912	9.120516	1.545057	-0.000183
1209	1.2020e+02	-4.0636	1.451350	0.000709	7.093735	1.201711	-0.000142
1210	1.2030e+02	-4.0829	1.269679	0.000912	9.120516	1.545057	-0.000183
1211	1.2039e+02	-4.1025	1.136454	0.000669	6.688378	1.133042	-0.000134
1212	1.2049e+02	-4.1231	0.979005	0.000790	7.904447	1.339050	-0.000158
1213	1.2059e+02	-4.1437	0.805409	0.000872	8.715160	1.476388	-0.000174
1214	1.2069e+02	-4.1629	0.696406	0.000547	5.472310	0.927034	-0.000110
1215	1.2079e+02	-4.1824	0.502623	0.000973	9.728550	1.648061	-0.000195
1216	1.2089e+02	-4.2030	0.345175	0.000790	7.904447	1.339050	-0.000158
1217	1.2099e+02	-4.2218	0.195801	0.000750	7.499091	1.270380	-0.000150
1218	1.2109e+02	-4.2431	-0.022204	0.001094	10.944619	1.854069	-0.000219
1219	1.2119e+02	-4.2630	-0.147355	0.000628	6.283022	1.064373	-0.000126
1220	1.2129e+02	-4.2831	-0.276544	0.000649	6.485700	1.098707	-0.000130
1221	1.2139e+02	-4.3028	-0.454178	0.000892	8.917838	1.510723	-0.000179
1222	1.2149e+02	-4.3222	-0.587403	0.000669	6.688378	1.133042	-0.000134
1223	1.2159e+02	-4.3423	-0.777149	0.000953	9.525872	1.613726	-0.000191
1224	1.2169e+02	-4.3616	-0.974968	0.000993	9.931228	1.682396	-0.000199
1225	1.2179e+02	-4.3826	-1.136454	0.000811	8.107125	1.373384	-0.000162
1226	1.2189e+02	-4.4025	-1.249494	0.000567	5.674988	0.961369	-0.000114
1227	1.2199e+02	-4.4232	-1.447313	0.000993	9.931228	1.682396	-0.000199
1228	1.2209e+02	-4.4415	-1.596687	0.000750	7.499091	1.270380	-0.000150
1229	1.2219e+02	-4.4615	-1.725876	0.000649	6.485700	1.098707	-0.000130
1230	1.2229e+02	-4.4817	-1.867175	0.000709	7.093735	1.201711	-0.000142
1231	1.2239e+02	-4.5006	-2.056921	0.000953	9.525872	1.613726	-0.000191
1232	1.2248e+02	-4.5213	-2.222443	0.000831	8.309803	1.407719	-0.000166
1233	1.2258e+02	-4.5401	-2.387966	0.000831	8.309803	1.407719	-0.000166
1234	1.2268e+02	-4.5615	-2.525228	0.000689	6.891056	1.167377	-0.000138
1235	1.2278e+02	-4.5819	-2.686714	0.000811	8.107125	1.373384	-0.000162
1236	1.2288e+02	-4.6014	-2.840125	0.000770	7.701769	1.304715	-0.000154
1237	1.2298e+02	-4.6207	-3.033908	0.000973	9.728550	1.648061	-0.000195
1238	1.2308e+02	-4.6413	-3.175207	0.000709	7.093735	1.201711	-0.000142
1239	1.2318e+02	-4.6616	-3.368990	0.000973	9.728550	1.648061	-0.000195
1240	1.2328e+02	-4.6810	-3.510290	0.000709	7.093735	1.201711	-0.000142
1241	1.2338e+02	-4.7012	-3.655626	0.000730	7.296413	1.236046	-0.000146
1242	1.2348e+02	-4.7217	-3.853446	0.000993	9.931228	1.682396	-0.000199
1243	1.2358e+02	-4.7411	-4.014931	0.000811	8.107125	1.373384	-0.000162
1244	1.2368e+02	-4.7604	-4.188528	0.000872	8.715160	1.476388	-0.000174
1245	1.2378e+02	-4.7806	-4.321754	0.000669	6.688378	1.133042	-0.000134
1246	1.2388e+02	-4.8006	-4.483239	0.000811	8.107125	1.373384	-0.000162
1247	1.2398e+02	-4.8206	-4.652799	0.000851	8.512481	1.442053	-0.000170
1248	1.2408e+02	-4.8403	-4.814284	0.000811	8.107125	1.373384	-0.000162
1249	1.2418e+02	-4.8610	-4.999993	0.000932	9.323194	1.579392	-0.000187
1250	1.2428e+02	-4.8808	-5.117070	0.000588	5.877666	0.995704	-0.000118
1251	1.2438e+02	-4.8999	-5.322963	0.001034	10.336585	1.751065	-0.000207
1252	1.2447e+02	-4.9200	-5.488486	0.000831	8.309803	1.407719	-0.000166
1253	1.2457e+02	-4.9401	-5.654009	0.000831	8.309803	1.407719	-0.000166
1254	1.2467e+02	-4.9606	-5.807420	0.000770	7.701769	1.304715	-0.000154
1255	1.2477e+02	-4.9800	-5.985054	0.000892	8.917838	1.510723	-0.000179
1256	1.2487e+02	-4.9992	-6.142502	0.000790	7.904447	1.339050	-0.000158
1257	1.2497e+02	-5.0194	-6.295913	0.000770	7.701769	1.304715	-0.000154
1258	1.2507e+02	-5.0397	-6.457399	0.000811	8.107125	1.373384	-0.000162
1259	1.2517e+02	-5.0592	-6.655218	0.000993	9.931228	1.682396	-0.000199
1260	1.2527e+02	-5.0800	-6.800555	0.000730	7.296413	1.236046	-0.000146
1261	1.2537e+02	-5.1034	-6.966078	0.000831	8.309803	1.407719	-0.000166
1262	1.2547e+02	-5.1192	-7.147749	0.000912	9.120516	1.545057	-0.000183
1263	1.2557e+02	-5.1387	-7.289049	0.000709	7.093735	1.201711	-0.000142
1264	1.2567e+02	-5.1587	-7.474757	0.000932	9.323194	1.579392	-0.000187
1265	1.2577e+02	-5.1785	-7.688725	0.001074	10.741941	1.819734	-0.000215
1266	1.2587e+02	-5.1987	-7.781579	0.000466	4.661597	0.789696	-0.000093
1267	1.2597e+02	-5.2194	-8.011696	0.001155	11.552653	1.957072	-0.000231
1268	1.2607e+02	-5.2386	-8.169144	0.000790	7.904447	1.339050	-0.000158
1269	1.2617e+02	-5.2587	-8.310444	0.000709	7.093735	1.201711	-0.000142
1270	1.2627e+02	-5.2782	-8.467892	0.000790	7.904447	1.339050	-0.000158
1271	1.2636e+02	-5.2975	-8.677823	0.001054	10.539263	1.785399	-0.000211
1272	1.2646e+02	-5.3188	-8.798937	0.000608	6.080344	1.030038	-0.000122
1273	1.2656e+02	-5.3392	-9.004831	0.001034	10.336585	1.751065	-0.000207
1274	1.2666e+02	-5.3586	-9.162280	0.000790	7.904447	1.339050	-0.000158
1275	1.2676e+02	-5.3781	-9.347988	0.000932	9.323194	1.579392	-0.000187
1276	1.2686e+02	-5.3984	-9.521585	0.000872	8.715160	1.476388	-0.000174
1277	1.2696e+02	-5.4170	-9.703256	0.000912	9.120516	1.545057	-0.000183
1278	1.2706e+02	-5.4370	-9.844555	0.000709	7.093735	1.201711	-0.000142
1279	1.2716e+02	-5.4581	-10.026227	0.000912	9.120516	1.545057	-0.000183
1280	1.2726e+02	-5.4779	-10.211935	0.000932	9.323194	1.579392	-0.000187
1281	1.2736e+02	-5.4965	-10.393606	0.000912	9.120516	1.545057	-0.000183
1282	1.2746e+02	-5.5176	-10.542980	0.000750	7.499091	1.270380	-0.000150
1283	1.2756e+02	-5.5385	-10.716577	0.000872	8.715160	1.476388	-0.000174
1284	1.2766e+02	-5.5569	-10.890174	0.000872	8.715160	1.476388	-0.000174
1285	1.2776e+02	-5.5771	-11.104142	0.001074	10.741941	1.819734	-0.000215
1286	1.2786e+02	-5.5972	-11.245442	0.000709	7.093735	1.201711	-0.000142
1287	1.2796e+02	-5.6172	-11.427113	0.000912	9.120516	1.545057	-0.000183
1288	1.2806e+02	-5.6369	-11.592635	0.000831	8.309803	1.407719	-0.000166
1289	1.2816e+02	-5.6573	-11.806603	0.001074	10.741941	1.819734	-0.000215
1290	1.2826e+02	-5.6763	-11.943866	0.000689	6.891056	1.167377	-0.000138
1291	1.2835e+02	-5.6979	-12.133611	0.000953	9.525872	1.613726	-0.000191
1292	1.2845e+02	-5.7186	-12.295097	0.000811	8.107125	1.373384	-0.000162
1293	1.2855e+02	-5.7370	-12.529251	0.001176	11.755332	1.991407	-0.000235
1294	1.2865e+02	-5.7568	-12.674588	0.000730	7.296413	1.236046	-0.000146
1295	1.2875e+02	-5.7768	-12.876444	0.001013	10.133907	1.716730	-0.000203
1296	1.2885e+02	-5.7959	-13.090413	0.001074	10.741941	1.819734	-0.000215
1297	1.2895e+02	-5.8165	-13.235750	0.000730	7.296413	1.236046	-0.000146
1298	1.2905e+02	-5.8359	-13.449718	0.001074	10.741941	1.819734	-0.000215
1299	1.2915e+02	-5.8565	-13.611203	0.000811	8.107125	1.373384	-0.000162
1300	1.2925e+02	-5.8769	-13.800949	0.000953	9.525872	1.613726	-0.000191
1301	1.2935e+02	-5.8862	-13.966471	0.000831	8.309803	1.407719	-0.000166
1302	1.2945e+02	-5.9161	-14.160254	0.000973	9.728550	1.648061	-0.000195
1303	1.2955e+02	-5.9357	-14.317702	0.000790	7.904447	1.339050	-0.000158
1304	1.2965e+02	-5.9566	-14.499373	0.000912	9.120516	1.545057	-0.000183
1305	1.2975e+02	-5.9756	-14.701230	0.001013	10.133907	1.716730	-0.000203
1306	1.2985e+02	-5.9964	-14.878864	0.000892	8.917838	1.510723	-0.000179
1307	1.2995e+02	-6.0159	-15.072646	0.000973	9.728550	1.648061	-0.000195
1308	1.3005e+02	-6.0353	-15.254317	0.000912	9.120516	1.545057	-0.000183
1309	1.3015e+02	-6.0550	-15.399654	0.000730	7.296413	1.236046	-0.000146
1310	1.3025e+02	-6.0757	-15.621697	0.001115	11.147297	1.888403	-0.000223
1311	1.3034e+02	-6.0953	-15.839702	0.001094	10.944619	1.854069	-0.000219
1312	1.3044e+02	-6.1157	-16.001187	0.000811	8.107125	1.373384	-0.000162
1313	1.3054e+02	-6.1357	-16.199007	0.000993	9.931228	1.682396	-0.000199
1314	1.3064e+02	-6.1551	-16.388753	0.000953	9.525872	1.613726	-0.000191
1315	1.3074e+02	-6.1757	-16.554275	0.000831	8.309803	1.407719	-0.000166
1316	1.3084e+02	-6.1946	-16.744020	0.000953	9.525872	1.613726	-0.000191
1317	1.3094e+02	-6.2161	-16.929729	0.000932	9.323194	1.579392	-0.000187
1318	1.3104e+02	-6.2369	-17.155808	0.001135	11.349975	1.922738	-0.000227
1319	1.3114e+02	-6.2560	-17.313257	0.000790	7.904447	1.339050	-0.000158
1320	1.3124e+02	-6.2750	-17.507039	0.000973	9.728550	1.648061	-0.000195
1321	1.3134e+02	-6.2953	-17.716970	0.001054	10.539263	1.785399	-0.000211
1322	1.3144e+02	-6.3155	-17.930938	0.001074	10.741941	1.819734	-0.000215
1323	1.3154e+02	-6.3339	-18.096461	0.000831	8.309803	1.407719	-0.000166
1324	1.3164e+02	-6.3539	-18.282169	0.000932	9.323194	1.579392	-0.000187
1325	1.3174e+02	-6.3742	-18.447692	0.000831	8.309803	1.407719	-0.000166
1326	1.3184e+02	-6.3945	-18.689920	0.001216	12.160688	2.060076	-0.000243
1327	1.3194e+02	-6.4141	-18.903888	0.001074	10.741941	1.819734	-0.000215
1328	1.3204e+02	-6.4341	-19.077485	0.000872	8.715160	1.476388	-0.000174
1329	1.3214e+02	-6.4548	-19.275305	0.000993	9.931228	1.682396	-0.000199
1330	1.3224e+02	-6.4737	-19.456976	0.000912	9.120516	1.545057	-0.000183
1331	1.3234e+02	-6.4935	-19.654795	0.000993	9.931228	1.682396	-0.000199
1332	1.3243e+02	-6.5138	-19.828392	0.000872	8.715160	1.476388	-0.000174
1333	1.3253e+02	-6.5336	-20.086769	0.001297	12.971400	2.197415	-0.000260
1334	1.3263e+02	-6.5544	-20.240180	0.000770	7.701769	1.304715	-0.000154
1335	1.3273e+02	-6.5738	-20.446074	0.001034	10.336585	1.751065	-0.000207
1336	1.3283e+02	-6.5938	-20.651968	0.001034	10.336585	1.751065	-0.000207
1337	1.3293e+02	-6.6132	-20.841713	0.000953	9.525872	1.613726	-0.000191
1338	1.3303e+02	-6.6333	-21.051644	0.001054	10.539263	1.785399	-0.000211
1339	1.3313e+02	-6.6522	-21.221204	0.000851	8.512481	1.442053	-0.000170
1340	1.3323e+02	-6.6743	-21.487655	0.001338	13.376757	2.266084	-0.000268
1341	1.3333e+02	-6.6925	-21.632992	0.000730	7.296413	1.236046	-0.000146
1342	1.3343e+02	-6.7139	-21.855034	0.001115	11.147297	1.888403	-0.000223
1343	1.3353e+02	-6.7325	-22.056891	0.001013	10.133907	1.716730	-0.000203
1344	1.3363e+02	-6.7526	-22.274896	0.001094	10.944619	1.854069	-0.000219
1345	1.3373e+02	-6.7725	-22.456568	0.000912	9.120516	1.545057	-0.000183
1346	1.3383e+02	-6.7923	-22.666499	0.001054	10.539263	1.785399	-0.000211
1347	1.3393e+02	-6.8118	-22.880467	0.001074	10.741941	1.819734	-0.000215
1348	1.3403e+02	-6.8323	-23.106546	0.001135	11.349975	1.922738	-0.000227
1349	1.3413e+02	-6.8520	-23.324552	0.001094	10.944619	1.854069	-0.000219
1350	1.3423e+02	-6.8735	-23.514297	0.000953	9.525872	1.613726	-0.000191
1351	1.3432e+02	-6.8921	-23.691931	0.000892	8.917838	1.510723	-0.000179
1352	1.3442e+02	-6.9127	-23.922048	0.001155	11.552653	1.957072	-0.000231
1353	1.3452e+02	-6.9324	-24.160239	0.001196	11.958010	2.025742	-0.000239
1354	1.3462e+02	-6.9533	-24.362096	0.001013	10.133907	1.716730	-0.000203
1355	1.3472e+02	-6.9725	-24.588175	0.001135	11.349975	1.922738	-0.000227
1356	1.3482e+02	-6.9920	-24.777921	0.000953	9.525872	1.613726	-0.000191
1357	1.3492e+02	-7.0119	-25.020149	0.001216	12.160688	2.060076	-0.000243
1358	1.3502e+02	-7.0319	-25.209894	0.000953	9.525872	1.613726	-0.000191
1359	1.3512e+02	-7.0511	-25.411751	0.001013	10.133907	1.716730	-0.000203
1360	1.3522e+02	-7.0715	-25.670128	0.001297	12.971400	2.197415	-0.000260
1361	1.3532e+02	-7.0920	-25.863910	0.000973	9.728550	1.648061	-0.000195
1362	1.3542e+02	-7.1114	-26.057693	0.000973	9.728550	1.648061	-0.000195
1363	1.3552e+02	-7.1320	-26.307995	0.001257	12.566044	2.128745	-0.000252
1364	1.3562e+02	-7.1518	-26.513889	0.001034	10.336585	1.751065	-0.000207
1365	1.3572e+02	-7.1715	-26.739969	0.001135	11.349975	1.922738	-0.000227
1366	1.3582e+02	-7.1916	-26.949900	0.001054	10.539263	1.785399	-0.000211
1367	1.3592e+02	-7.2116	-27.208276	0.001297	12.971400	2.197415	-0.000260
1368	1.3602e+02	-7.2311	-27.402059	0.000973	9.728550	1.648061	-0.000195
1369	1.3612e+02	-7.2517	-27.591804	0.000953	9.525872	1.613726	-0.000191
1370	1.3622e+02	-7.2705	-27.821921	0.001155	11.552653	1.957072	-0.000231
1371	1.3631e+02	-7.2910	-28.080298	0.001297	12.971400	2.197415	-0.000260
1372	1.3641e+02	-7.3111	-28.298303	0.001094	10.944619	1.854069	-0.000219
1373	1.3651e+02	-7.3302	-28.532457	0.001176	11.755332	1.991407	-0.000235
1374	1.3661e+02	-7.3512	-28.726239	0.000973	9.728550	1.648061	-0.000195
1375	1.3671e+02	-7.3711	-28.944245	0.001094	10.944619	1.854069	-0.000219
1376	1.3681e+02	-7.3907	-29.202621	0.001297	12.971400	2.197415	-0.000260
1377	1.3691e+02	-7.4109	-29.380255	0.000892	8.917838	1.510723	-0.000179
1378	1.3701e+02	-7.4307	-29.642669	0.001317	13.174079	2.231749	-0.000264
1379	1.3711e+02	-7.4509	-29.864712	0.001115	11.147297	1.888403	-0.000223
1380	1.3721e+02	-7.4695	-30.102903	0.001196	11.958010	2.025742	-0.000239
1381	1.3731e+02	-7.4908	-30.333019	0.001155	11.552653	1.957072	-0.000231
1382	1.3741e+02	-7.5098	-30.611582	0.001398	13.984791	2.369088	-0.000280
1383	1.3751e+02	-7.5308	-30.825550	0.001074	10.741941	1.819734	-0.000215
1384	1.3761e+02	-7.5504	-31.055667	0.001155	11.552653	1.957072	-0.000231
1385	1.3771e+02	-7.5706	-31.293858	0.001196	11.958010	2.025742	-0.000239
1386	1.3781e+02	-7.5894	-31.528012	0.001176	11.755332	1.991407	-0.000235
1387	1.3791e+02	-7.6086	-31.750054	0.001115	11.147297	1.888403	-0.000223
1388	1.3801e+02	-7.6291	-32.000356	0.001257	12.566044	2.128745	-0.000252
1389	1.3811e+02	-7.6488	-32.222399	0.001115	11.147297	1.888403	-0.000223
1390	1.3821e+02	-7.6695	-32.521147	0.001500	14.998182	2.540761	-0.000300
1391	1.3831e+02	-7.6889	-32.710892	0.000953	9.525872	1.613726	-0.000191
1392	1.3840e+02	-7.7084	-32.989455	0.001398	13.984791	2.369088	-0.000280
1393	1.3850e+02	-7.7295	-33.263980	0.001378	13.782113	2.334753	-0.000276
1394	1.3860e+02	-7.7496	-33.506208	0.001216	12.160688	2.060076	-0.000243
1395	1.3870e+02	-7.7686	-33.732288	0.001135	11.349975	1.922738	-0.000227
1396	1.3880e+02	-7.7879	-33.970479	0.001196	11.958010	2.025742	-0.000239
1397	1.3890e+02	-7.8088	-34.273264	0.001520	15.200860	2.575095	-0.000304
1398	1.3900e+02	-7.8290	-34.475121	0.001013	10.133907	1.716730	-0.000203
1399	1.3910e+02	-7.8481	-34.713312	0.001196	11.958010	2.025742	-0.000239
1400	1.3920e+02	-7.8680	-34.995911	0.001419	14.187469	2.403422	-0.000284
1401	1.3930e+02	-7.8888	-35.213916	0.001094	10.944619	1.854069	-0.000219
1402	1.3940e+02	-7.9077	-35.536887	0.001621	16.214250	2.746768	-0.000325
1403	1.3950e+02	-7.9279	-35.775078	0.001196	11.958010	2.025742	-0.000239
1404	1.3960e+02	-7.9491	-36.021344	0.001236	12.363366	2.094411	-0.000248
1405	1.3970e+02	-7.9681	-36.307980	0.001439	14.390147	2.437757	-0.000288
1406	1.3980e+02	-7.9884	-36.554246	0.001236	12.363366	2.094411	-0.000248
1407	1.3990e+02	-8.0078	-36.788399	0.001176	11.755332	1.991407	-0.000235
1408	1.4000e+02	-8.0281	-37.107333	0.001601	16.011572	2.712434	-0.000321
1409	1.4010e+02	-8.0481	-37.317264	0.001054	10.539263	1.785399	-0.000211
1410	1.4020e+02	-8.0675	-37.640235	0.001621	16.214250	2.746768	-0.000325
1411	1.4029e+02	-8.0884	-37.918797	0.001398	13.984791	2.369088	-0.000280
1412	1.4039e+02	-8.1078	-38.181211	0.001317	13.174079	2.231749	-0.000264
1413	1.4049e+02	-8.1274	-38.431514	0.001257	12.566044	2.128745	-0.000252
1414	1.4059e+02	-8.1479	-38.734299	0.001520	15.200860	2.575095	-0.000304
1415	1.4069e+02	-8.1674	-39.024973	0.001459	14.592825	2.472092	-0.000292
1416	1.4079e+02	-8.1863	-39.307572	0.001419	14.187469	2.403422	-0.000284
1417	1.4089e+02	-8.2062	-39.541726	0.001176	11.755332	1.991407	-0.000235
1418	1.4099e+02	-8.2262	-39.832400	0.001459	14.592825	2.472092	-0.000292
1419	1.4109e+02	-8.2475	-40.151333	0.001601	16.011572	2.712434	-0.000321
1420	1.4119e+02	-8.2683	-40.417784	0.001338	13.376757	2.266084	-0.000268
1421	1.4129e+02	-8.2866	-40.712495	0.001480	14.795504	2.506426	-0.000296
1422	1.4139e+02	-8.3070	-40.991058	0.001398	13.984791	2.369088	-0.000280
1423	1.4149e+02	-8.3264	-41.297880	0.001540	15.403538	2.609430	-0.000308
1424	1.4159e+02	-8.3459	-41.576442	0.001398	13.984791	2.369088	-0.000280
1425	1.4169e+02	-8.3664	-41.927673	0.001763	17.632997	2.987111	-0.000353
1426	1.4179e+02	-8.3862	-42.182013	0.001277	12.768722	2.163080	-0.000256
1427	1.4189e+02	-8.4056	-42.504984	0.001621	16.214250	2.746768	-0.000325
1428	1.4199e+02	-8.4264	-42.759323	0.001277	12.768722	2.163080	-0.000256
1429	1.4209e+02	-8.4467	-43.086331	0.001642	16.416929	2.781103	-0.000329
1430	1.4219e+02	-8.4671	-43.413339	0.001642	16.416929	2.781103	-0.000329
1431	1.4228e+02	-8.4868	-43.732273	0.001601	16.011572	2.712434	-0.000321
1432	1.4238e+02	-8.5053	-43.990650	0.001297	12.971400	2.197415	-0.000260
1433	1.4248e+02	-8.5252	-44.341880	0.001763	17.632997	2.987111	-0.000353
1434	1.4258e+02	-8.5449	-44.596220	0.001277	12.768722	2.163080	-0.000256
1435	1.4268e+02	-8.5655	-44.943414	0.001743	17.430319	2.952776	-0.000349
1436	1.4278e+02	-8.5855	-45.262347	0.001601	16.011572	2.712434	-0.000321
1437	1.4288e+02	-8.6063	-45.548984	0.001439	14.390147	2.437757	-0.000288
1438	1.4298e+02	-8.6252	-45.863881	0.001581	15.808894	2.678099	-0.000316
1439	1.4308e+02	-8.6456	-46.231260	0.001844	18.443710	3.124449	-0.000369
1440	1.4318e+02	-8.6642	-46.546156	0.001581	15.808894	2.678099	-0.000316
1441	1.4328e+02	-8.6841	-46.881239	0.001682	16.822285	2.849772	-0.000337
1442	1.4338e+02	-8.7055	-47.248618	0.001844	18.443710	3.124449	-0.000369
1443	1.4348e+02	-8.7245	-47.571589	0.001621	16.214250	2.746768	-0.000325
1444	1.4358e+02	-8.7450	-47.910708	0.001702	17.024963	2.884107	-0.000341
1445	1.4368e+02	-8.7642	-48.225605	0.001581	15.808894	2.678099	-0.000316
1446	1.4378e+02	-8.7854	-48.568761	0.001723	17.227641	2.918441	-0.000345
1447	1.4388e+02	-8.8046	-48.919992	0.001763	17.632997	2.987111	-0.000353
1448	1.4398e+02	-8.8252	-49.263149	0.001723	17.227641	2.918441	-0.000345
1449	1.4408e+02	-8.8438	-49.598231	0.001682	16.822285	2.849772	-0.000337
1450	1.4418e+02	-8.8644	-49.961573	0.001824	18.241032	3.090114	-0.000365
1451	1.4428e+02	-8.8831	-50.280507	0.001601	16.011572	2.712434	-0.000321
1452	1.4437e+02	-8.9037	-50.659998	0.001905	19.051744	3.227453	-0.000381
1453	1.4447e+02	-8.9240	-51.023340	0.001824	18.241032	3.090114	-0.000365
1454	1.4457e+02	-8.9436	-51.439165	0.002088	20.875847	3.536464	-0.000418
1455	1.4467e+02	-8.9636	-51.741950	0.001520	15.200860	2.575095	-0.000304
1456	1.4477e+02	-8.9836	-52.117404	0.001885	18.849066	3.193118	-0.000377
1457	1.4487e+02	-9.0045	-52.476709	0.001804	18.038354	3.055780	-0.000361
1458	1.4497e+02	-9.0233	-52.920794	0.002229	22.294594	3.776807	-0.000446
1459	1.4507e+02	-9.0396	-53.267987	0.001743	17.430319	2.952776	-0.000349
1460	1.4517e+02	-9.0637	-53.627293	0.001804	18.038354	3.055780	-0.000361
1461	1.4527e+02	-9.0829	-54.031006	0.002027	20.267813	3.433460	-0.000406
1462	1.4537e+02	-9.1034	-54.422608	0.001966	19.659779	3.330457	-0.000394
1463	1.4547e+02	-9.1235	-54.789988	0.001844	18.443710	3.124449	-0.000369
1464	1.4557e+02	-9.1437	-55.209850	0.002108	21.078526	3.570799	-0.000422
1465	1.4567e+02	-9.1631	-55.609526	0.002007	20.065135	3.399126	-0.000402
1466	1.4577e+02	-9.1817	-56.013240	0.002027	20.267813	3.433460	-0.000406
1467	1.4587e+02	-9.2017	-56.400805	0.001946	19.457101	3.296122	-0.000390
1468	1.4597e+02	-9.2224	-56.824704	0.002128	21.281204	3.605134	-0.000426
1469	1.4607e+02	-9.2429	-57.228418	0.002027	20.267813	3.433460	-0.000406
1470	1.4617e+02	-9.2627	-57.640205	0.002067	20.673169	3.502130	-0.000414
1471	1.4626e+02	-9.2833	-58.084290	0.002229	22.294594	3.776807	-0.000446
1472	1.4636e+02	-9.3021	-58.504153	0.002108	21.078526	3.570799	-0.000422
1473	1.4646e+02	-9.3222	-58.919978	0.002088	20.875847	3.536464	-0.000418
1474	1.4656e+02	-9.3425	-59.335803	0.002088	20.875847	3.536464	-0.000418
1475	1.4666e+02	-9.3614	-59.808147	0.002371	23.713341	4.017149	-0.000475
1476	1.4676e+02	-9.3825	-60.256269	0.002250	22.497273	3.811141	-0.000450
1477	1.4686e+02	-9.4019	-60.664020	0.002047	20.470491	3.467795	-0.000410
1478	1.4696e+02	-9.4217	-61.100031	0.002189	21.889238	3.708137	-0.000438
1479	1.4706e+02	-9.4418	-61.556227	0.002290	22.902629	3.879810	-0.000458
1480	1.4716e+02	-9.4624	-62.016461	0.002311	23.105307	3.914145	-0.000463
1481	1.4726e+02	-9.4821	-62.476694	0.002311	23.105307	3.914145	-0.000463
1482	1.4736e+02	-9.5012	-62.912705	0.002189	21.889238	3.708137	-0.000438
1483	1.4746e+02	-9.5215	-63.376975	0.002331	23.307985	3.948480	-0.000467
1484	1.4756e+02	-9.5415	-63.869506	0.002473	24.726732	4.188822	-0.000495
1485	1.4766e+02	-9.5612	-64.325702	0.002290	22.902629	3.879810	-0.000458
1486	1.4776e+02	-9.5810	-64.781899	0.002290	22.902629	3.879810	-0.000458
1487	1.4786e+02	-9.6011	-65.274429	0.002473	24.726732	4.188822	-0.000495
1488	1.4796e+02	-9.6213	-65.795220	0.002615	26.145479	4.429164	-0.000523
1489	1.4806e+02	-9.6417	-66.320047	0.002635	26.348157	4.463499	-0.000527
1490	1.4816e+02	-9.6603	-66.764132	0.002229	22.294594	3.776807	-0.000446
1491	1.4825e+02	-9.6811	-67.284923	0.002615	26.145479	4.429164	-0.000523
1492	1.4835e+02	-9.6993	-67.785528	0.002513	25.132088	4.257491	-0.000503
1493	1.4845e+02	-9.7198	-68.298244	0.002574	25.740123	4.360495	-0.000515
1494	1.4855e+02	-9.7398	-68.806923	0.002554	25.537444	4.326160	-0.000511
1495	1.4865e+02	-9.7602	-69.319639	0.002574	25.740123	4.360495	-0.000515
1496	1.4875e+02	-9.7806	-69.824281	0.002533	25.334766	4.291826	-0.000507
1497	1.4885e+02	-9.8007	-70.353146	0.002655	26.550835	4.497833	-0.000532
1498	1.4895e+02	-9.8209	-70.910271	0.002797	27.969582	4.738175	-0.000560
1499	1.4905e+02	-9.8407	-71.435098	0.002635	26.348157	4.463499	-0.000527
1500	1.4915e+02	-9.8604	-72.024520	0.002959	29.591007	5.012852	-0.000592
1501	1.4925e+02	-9.8799	-72.500902	0.002392	23.916019	4.051483	-0.000479
1502	1.4935e+02	-9.8997	-73.053990	0.002777	27.766904	4.703841	-0.000556
1503	1.4945e+02	-9.9191	-73.647449	0.002979	29.793685	5.047187	-0.000596
1504	1.4955e+02	-9.9400	-74.228796	0.002919	29.185651	4.944183	-0.000584
1505	1.4965e+02	-9.9594	-74.798032	0.002858	28.577616	4.841179	-0.000572
1506	1.4975e+02	-9.9786	-75.375343	0.002898	28.982973	4.909848	-0.000580
1507	1.4985e+02	-9.9991	-75.932468	0.002797	27.969582	4.738175	-0.000560
1508	1.4995e+02	-9.9799	-76.364441	-0.002169	-21.686560	-3.673803	-0.000434
1509	1.5005e+02	-9.9597	-76.743932	-0.001905	-19.051744	-3.227453	-0.000381
1510	1.5015e+02	-9.9394	-77.143608	-0.002007	-20.065135	-3.399126	-0.000402
1511	1.5025e+02	-9.9197	-77.531173	-0.001946	-19.457101	-3.296122	-0.000390
1512	1.5034e+02	-9.9014	-77.882404	-0.001763	-17.632997	-2.987111	-0.000353
1513	1.5044e+02	-9.8790	-78.221523	-0.001702	-17.024963	-2.884107	-0.000341
1514	1.5054e+02	-9.8604	-78.520272	-0.001500	-14.998182	-2.540761	-0.000300
1515	1.5064e+02	-9.8409	-78.855354	-0.001682	-16.822285	-2.849772	-0.000337
1516	1.5074e+02	-9.8199	-79.146028	-0.001459	-14.592825	-2.472092	-0.000292
1517	1.5084e+02	-9.7997	-79.505333	-0.001804	-18.038354	-3.055780	-0.000361
1518	1.5094e+02	-9.7802	-79.804081	-0.001500	-14.998182	-2.540761	-0.000300
1519	1.5104e+02	-9.7602	-80.094754	-0.001459	-14.592825	-2.472092	-0.000292
1520	1.5114e+02	-9.7400	-80.373317	-0.001398	-13.984791	-2.369088	-0.000280
1521	1.5124e+02	-9.7202	-80.639768	-0.001338	-13.376757	-2.266084	-0.000268
1522	1.5134e+02	-9.7002	-80.942553	-0.001520	-15.200860	-2.575095	-0.000304
1523	1.5144e+02	-9.6801	-81.213041	-0.001358	-13.579435	-2.300419	-0.000272
1524	1.5154e+02	-9.6606	-81.471418	-0.001297	-12.971400	-2.197415	-0.000260
1525	1.5164e+02	-9.6417	-81.669237	-0.000993	-9.931228	-1.682396	-0.000199
1526	1.5174e+02	-9.6213	-81.943763	-0.001378	-13.782113	-2.334753	-0.000276
1527	1.5184e+02	-9.6013	-82.129471	-0.000932	-9.323194	-1.579392	-0.000187
1528	1.5194e+02	-9.5818	-82.387848	-0.001297	-12.971400	-2.197415	-0.000260
1529	1.5204e+02	-9.5615	-82.613927	-0.001135	-11.349975	-1.922738	-0.000227
1530	1.5214e+02	-9.5422	-82.852118	-0.001196	-11.958010	-2.025742	-0.000239
1531	1.5224e+02	-9.5219	-83.066086	-0.001074	-10.741941	-1.819734	-0.000215
1532	1.5233e+02	-9.5015	-83.251795	-0.000932	-9.323194	-1.579392	-0.000187
1533	1.5243e+02	-9.4821	-83.453651	-0.001013	-10.133907	-1.716730	-0.000203
1534	1.5253e+02	-9.4612	-83.663582	-0.001054	-10.539263	-1.785399	-0.000211
1535	1.5263e+02	-9.4415	-83.861402	-0.000993	-9.931228	-1.682396	-0.000199
1536	1.5273e+02	-9.4220	-84.043073	-0.000912	-9.120516	-1.545057	-0.000183
1537	1.5283e+02	-9.4009	-84.204559	-0.000811	-8.107125	-1.373384	-0.000162
1538	1.5293e+02	-9.3813	-84.370081	-0.000831	-8.309803	-1.407719	-0.000166
1539	1.5303e+02	-9.3616	-84.535604	-0.000831	-8.309803	-1.407719	-0.000166
1540	1.5313e+02	-9.3428	-84.729386	-0.000973	-9.728550	-1.648061	-0.000195
1541	1.5323e+02	-9.3230	-84.846463	-0.000588	-5.877666	-0.995704	-0.000118
1542	1.5333e+02	-9.3021	-85.016023	-0.000851	-8.512481	-1.442053	-0.000170
1543	1.5343e+02	-9.2827	-85.137137	-0.000608	-6.080344	-1.030038	-0.000122
1544	1.5353e+02	-9.2624	-85.330920	-0.000973	-9.728550	-1.648061	-0.000195
1545	1.5363e+02	-9.2429	-85.447996	-0.000588	-5.877666	-0.995704	-0.000118
1546	1.5373e+02	-9.2234	-85.573148	-0.000628	-6.283022	-1.064373	-0.000126
1547	1.5383e+02	-9.2032	-85.730596	-0.000790	-7.904447	-1.339050	-0.000158
1548	1.5393e+02	-9.1827	-85.855747	-0.000628	-6.283022	-1.064373	-0.000126
1549	1.5403e+02	-9.1645	-86.013195	-0.000790	-7.904447	-1.339050	-0.000158
1550	1.5413e+02	-9.1426	-86.102012	-0.000446	-4.458919	-0.755361	-0.000089
1551	1.5422e+02	-9.1229	-86.235238	-0.000669	-6.688378	-1.133042	-0.000134
1552	1.5432e+02	-9.1026	-86.332129	-0.000486	-4.864275	-0.824031	-0.000097
1553	1.5442e+02	-9.0823	-86.449206	-0.000588	-5.877666	-0.995704	-0.000118
1554	1.5452e+02	-9.0630	-86.586469	-0.000689	-6.891056	-1.167377	-0.000138
1555	1.5462e+02	-9.0430	-86.671249	-0.000426	-4.256241	-0.721027	-0.000085
1556	1.5472e+02	-9.0237	-86.747954	-0.000385	-3.850884	-0.652357	-0.000077
1557	1.5482e+02	-9.0039	-86.881180	-0.000669	-6.688378	-1.133042	-0.000134
1558	1.5492e+02	-8.9838	-86.953848	-0.000365	-3.648206	-0.618023	-0.000073
1559	1.5502e+02	-8.9626	-87.066888	-0.000567	-5.674988	-0.961369	-0.000114
1560	1.5512e+02	-8.9431	-87.115334	-0.000243	-2.432138	-0.412015	-0.000049
1561	1.5522e+02	-8.9240	-87.224336	-0.000547	-5.472310	-0.927034	-0.000110
1562	1.5532e+02	-8.9037	-87.317190	-0.000466	-4.661597	-0.789696	-0.000093
1563	1.5542e+02	-8.8831	-87.373710	-0.000284	-2.837494	-0.480684	-0.000057
1564	1.5552e+02	-8.8635	-87.466564	-0.000466	-4.661597	-0.789696	-0.000093
1565	1.5562e+02	-8.8442	-87.523084	-0.000284	-2.837494	-0.480684	-0.000057
1566	1.5572e+02	-8.8242	-87.619975	-0.000486	-4.864275	-0.824031	-0.000097
1567	1.5582e+02	-8.8043	-87.656310	-0.000182	-1.824103	-0.309011	-0.000037
1568	1.5592e+02	-8.7854	-87.720904	-0.000324	-3.242850	-0.549354	-0.000065
1569	1.5602e+02	-8.7617	-87.809721	-0.000446	-4.458919	-0.755361	-0.000089
1570	1.5612e+02	-8.7446	-87.858166	-0.000243	-2.432138	-0.412015	-0.000049
1571	1.5622e+02	-8.7245	-87.906612	-0.000243	-2.432138	-0.412015	-0.000049
1572	1.5631e+02	-8.7042	-87.971206	-0.000324	-3.242850	-0.549354	-0.000065
1573	1.5641e+02	-8.6855	-87.999466	-0.000142	-1.418747	-0.240342	-0.000028
1574	1.5651e+02	-8.6648	-88.027726	-0.000142	-1.418747	-0.240342	-0.000028
1575	1.5661e+02	-8.6449	-88.100395	-0.000365	-3.648206	-0.618023	-0.000073
1576	1.5671e+02	-8.6260	-88.140766	-0.000203	-2.026781	-0.343346	-0.000041
1577	1.5681e+02	-8.6053	-88.181137	-0.000203	-2.026781	-0.343346	-0.000041
1578	1.5691e+02	-8.5863	-88.241694	-0.000304	-3.040172	-0.515019	-0.000061
1579	1.5701e+02	-8.5657	-88.322437	-0.000405	-4.053563	-0.686692	-0.000081
1580	1.5711e+02	-8.5451	-88.290140	0.000162	1.621425	0.274677	0.000032
1581	1.5721e+02	-8.5265	-88.374920	-0.000426	-4.256241	-0.721027	-0.000085
1582	1.5731e+02	-8.5059	-88.370883	0.000020	0.202678	0.034335	0.000004
1583	1.5741e+02	-8.4851	-88.362808	0.000041	0.405356	0.068669	0.000008
1584	1.5751e+02	-8.4650	-88.427403	-0.000324	-3.242850	-0.549354	-0.000065
1585	1.5761e+02	-8.4457	-88.415291	0.000061	0.608034	0.103004	0.000012
1586	1.5771e+02	-8.4259	-88.435477	-0.000101	-1.013391	-0.171673	-0.000020
1587	1.5781e+02	-8.4053	-88.451625	-0.000081	-0.810713	-0.137338	-0.000016
1588	1.5791e+02	-8.3864	-88.439514	0.000061	0.608034	0.103004	0.000012
1589	1.5801e+02	-8.3662	-88.520257	-0.000405	-4.053563	-0.686692	-0.000081
1590	1.5811e+02	-8.3469	-88.516220	0.000020	0.202678	0.034335	0.000004
1591	1.5821e+02	-8.3264	-88.552554	-0.000182	-1.824103	-0.309011	-0.000037
1592	1.5830e+02	-8.3064	-88.536405	0.000081	0.810713	0.137338	0.000016
1593	1.5840e+02	-8.2867	-88.540442	-0.000020	-0.202678	-0.034335	-0.000004
1594	1.5850e+02	-8.2661	-88.564665	-0.000122	-1.216069	-0.206008	-0.000024
1595	1.5860e+02	-8.2468	-88.584851	-0.000101	-1.013391	-0.171673	-0.000020
1596	1.5870e+02	-8.2271	-88.564665	0.000101	1.013391	0.171673	0.000020
1597	1.5880e+02	-8.2072	-88.584851	-0.000101	-1.013391	-0.171673	-0.000020
1598	1.5890e+02	-8.1880	-88.560628	0.000122	1.216069	0.206008	0.000024
1599	1.5900e+02	-8.1665	-88.572740	-0.000061	-0.608034	-0.103004	-0.000012
1600	1.5910e+02	-8.1479	-88.512182	0.000304	3.040172	0.515019	0.000061
1601	1.5920e+02	-8.1267	-88.548517	-0.000182	-1.824103	-0.309011	-0.000037
1602	1.5930e+02	-8.1067	-88.544480	0.000020	0.202678	0.034335	0.000004
1603	1.5940e+02	-8.0875	-88.536405	0.000041	0.405356	0.068669	0.000008
1604	1.5950e+02	-8.0679	-88.524294	0.000061	0.608034	0.103004	0.000012
1605	1.5960e+02	-8.0472	-88.483923	0.000203	2.026781	0.343346	0.000041
1606	1.5970e+02	-8.0280	-88.487960	-0.000020	-0.202678	-0.034335	-0.000004
1607	1.5980e+02	-8.0078	-88.459700	0.000142	1.418747	0.240342	0.000028
1608	1.5990e+02	-7.9871	-88.451625	0.000041	0.405356	0.068669	0.000008
1609	1.6000e+02	-7.9686	-88.419328	0.000162	1.621425	0.274677	0.000032
1610	1.6010e+02	-7.9475	-88.463737	-0.000223	-2.229459	-0.377681	-0.000045
1611	1.6019e+02	-7.9279	-88.407217	0.000284	2.837494	0.480684	0.000057
1612	1.6029e+02	-7.9076	-88.370883	0.000182	1.824103	0.309011	0.000037
1613	1.6039e+02	-7.8882	-88.399143	-0.000142	-1.418747	-0.240342	-0.000028
1614	1.6049e+02	-7.8682	-88.334549	0.000324	3.242850	0.549354	0.000065
1615	1.6059e+02	-7.8487	-88.306289	0.000142	1.418747	0.240342	0.000028
1616	1.6069e+02	-7.8291	-88.257843	0.000243	2.432138	0.412015	0.000049
1617	1.6079e+02	-7.8090	-88.290140	-0.000162	-1.621425	-0.274677	-0.000032
1618	1.6089e+02	-7.7887	-88.229583	0.000304	3.040172	0.515019	0.000061
1619	1.6099e+02	-7.7672	-88.197286	0.000162	1.621425	0.274677	0.000032
1620	1.6109e+02	-7.7487	-88.201323	-0.000020	-0.202678	-0.034335	-0.000004
1621	1.6119e+02	-7.7292	-88.120580	0.000405	4.053563	0.686692	0.000081
1622	1.6129e+02	-7.7100	-88.132692	-0.000061	-0.608034	-0.103004	-0.000012
1623	1.6139e+02	-7.6889	-88.080209	0.000263	2.634816	0.446350	0.000053
1624	1.6149e+02	-7.6694	-88.047912	0.000162	1.621425	0.274677	0.000032
1625	1.6159e+02	-7.6492	-88.011578	0.000182	1.824103	0.309011	0.000037
1626	1.6169e+02	-7.6286	-87.995429	0.000081	0.810713	0.137338	0.000016
1627	1.6179e+02	-7.6085	-87.918724	0.000385	3.850884	0.652357	0.000077
1628	1.6189e+02	-7.5899	-87.918724	0.000000	0.000000	0.000000	0.000000
1629	1.6199e+02	-7.5696	-87.898538	0.000101	1.013391	0.171673	0.000020
1630	1.6209e+02	-7.5500	-87.817795	0.000405	4.053563	0.686692	0.000081
1631	1.6219e+02	-7.5298	-87.777424	0.000203	2.026781	0.343346	0.000041
1632	1.6228e+02	-7.5101	-87.753201	0.000122	1.216069	0.206008	0.000024
1633	1.6238e+02	-7.4898	-87.712830	0.000203	2.026781	0.343346	0.000041
1634	1.6248e+02	-7.4707	-87.640161	0.000365	3.648206	0.618023	0.000073
1635	1.6258e+02	-7.4510	-87.595753	0.000223	2.229459	0.377681	0.000045
1636	1.6268e+02	-7.4297	-87.543270	0.000263	2.634816	0.446350	0.000053
1637	1.6278e+02	-7.4105	-87.486750	0.000284	2.837494	0.480684	0.000057
1638	1.6288e+02	-7.3907	-87.442342	0.000223	2.229459	0.377681	0.000045
1639	1.6298e+02	-7.3697	-87.478676	-0.000182	-1.824103	-0.309011	-0.000037
1640	1.6308e+02	-7.3514	-87.369673	0.000547	5.472310	0.927034	0.000110
1641	1.6318e+02	-7.3305	-87.333339	0.000182	1.824103	0.309011	0.000037
1642	1.6328e+02	-7.3117	-87.264708	0.000345	3.445528	0.583688	0.000069
1643	1.6338e+02	-7.2909	-87.224336	0.000203	2.026781	0.343346	0.000041
1644	1.6348e+02	-7.2720	-87.171853	0.000263	2.634816	0.446350	0.000053
1645	1.6358e+02	-7.2510	-87.143593	0.000142	1.418747	0.240342	0.000028
1646	1.6368e+02	-7.2310	-87.050739	0.000466	4.661597	0.789696	0.000093
1647	1.6378e+02	-7.2119	-87.042665	0.000041	0.405356	0.068669	0.000008
1648	1.6388e+02	-7.1915	-86.929625	0.000567	5.674988	0.961369	0.000114
1649	1.6398e+02	-7.1709	-86.901365	0.000142	1.418747	0.240342	0.000028
1650	1.6408e+02	-7.1508	-86.780251	0.000608	6.080344	1.030038	0.000122
1651	1.6418e+02	-7.1319	-86.780251	0.000000	0.000000	0.000000	0.000000
1652	1.6427e+02	-7.1124	-86.703546	0.000385	3.850884	0.652357	0.000077
1653	1.6437e+02	-7.0921	-86.618766	0.000426	4.256241	0.721027	0.000085
1654	1.6447e+02	-7.0720	-86.598580	0.000101	1.013391	0.171673	0.000020
1655	1.6457e+02	-7.0518	-86.529949	0.000345	3.445528	0.583688	0.000069
1656	1.6467e+02	-7.0322	-86.441132	0.000446	4.458919	0.755361	0.000089
1657	1.6477e+02	-7.0117	-86.396723	0.000223	2.229459	0.377681	0.000045
1658	1.6487e+02	-6.9925	-86.324055	0.000365	3.648206	0.618023	0.000073
1659	1.6497e+02	-6.9718	-86.303869	0.000101	1.013391	0.171673	0.000020
1660	1.6507e+02	-6.9534	-86.219089	0.000426	4.256241	0.721027	0.000085
1661	1.6517e+02	-6.9323	-86.182755	0.000182	1.824103	0.309011	0.000037
1662	1.6527e+02	-6.9122	-86.065678	0.000588	5.877666	0.995704	0.000118
1663	1.6537e+02	-6.8918	-86.045493	0.000101	1.013391	0.171673	0.000020
1664	1.6547e+02	-6.8726	-85.952638	0.000466	4.661597	0.789696	0.000093
1665	1.6557e+02	-6.8521	-85.863821	0.000446	4.458919	0.755361	0.000089
1666	1.6567e+02	-6.8333	-85.823450	0.000203	2.026781	0.343346	0.000041
1667	1.6577e+02	-6.8130	-85.722522	0.000507	5.066953	0.858365	0.000101
1668	1.6587e+02	-6.7929	-85.645816	0.000385	3.850884	0.652357	0.000077
1669	1.6597e+02	-6.7728	-85.625630	0.000101	1.013391	0.171673	0.000020
1670	1.6607e+02	-6.7528	-85.605445	0.000101	1.013391	0.171673	0.000020
1671	1.6616e+02	-6.7340	-85.472219	0.000669	6.688378	1.133042	0.000134
1672	1.6626e+02	-6.7134	-85.363217	0.000547	5.472310	0.927034	0.000110
1673	1.6636e+02	-6.6931	-85.343031	0.000101	1.013391	0.171673	0.000020
1674	1.6646e+02	-6.6743	-85.282474	0.000304	3.040172	0.515019	0.000061
1675	1.6656e+02	-6.6539	-85.189620	0.000466	4.661597	0.789696	0.000093
1676	1.6666e+02	-6.6335	-85.076580	0.000567	5.674988	0.961369	0.000114
1677	1.6676e+02	-6.6132	-85.036209	0.000203	2.026781	0.343346	0.000041
1678	1.6686e+02	-6.5934	-84.943354	0.000466	4.661597	0.789696	0.000093
1679	1.6696e+02	-6.5735	-84.890872	0.000263	2.634816	0.446350	0.000053
1680	1.6706e+02	-6.5538	-84.785906	0.000527	5.269631	0.892700	0.000105
1681	1.6716e+02	-6.5335	-84.757646	0.000142	1.418747	0.240342	0.000028
1682	1.6726e+02	-6.5140	-84.664792	0.000466	4.661597	0.789696	0.000093
1683	1.6736e+02	-6.4938	-84.575975	0.000446	4.458919	0.755361	0.000089
1684	1.6746e+02	-6.4738	-84.487158	0.000446	4.458919	0.755361	0.000089
1685	1.6756e+02	-6.4542	-84.450824	0.000182	1.824103	0.309011	0.000037
1686	1.6766e+02	-6.4352	-84.378155	0.000365	3.648206	0.618023	0.000073
1687	1.6776e+02	-6.4136	-84.261079	0.000588	5.877666	0.995704	0.000118
1688	1.6786e+02	-6.3940	-84.204559	0.000284	2.837494	0.480684	0.000057
1689	1.6796e+02	-6.3739	-84.123816	0.000405	4.053563	0.686692	0.000081
1690	1.6806e+02	-6.3541	-84.055185	0.000345	3.445528	0.583688	0.000069
1691	1.6816e+02	-6.3339	-83.946182	0.000547	5.472310	0.927034	0.000110
1692	1.6825e+02	-6.3139	-83.897736	0.000243	2.432138	0.412015	0.000049
1693	1.6835e+02	-6.2946	-83.829105	0.000345	3.445528	0.583688	0.000069
1694	1.6845e+02	-6.2743	-83.724140	0.000527	5.269631	0.892700	0.000105
1695	1.6855e+02	-6.2523	-83.623211	0.000507	5.066953	0.858365	0.000101
1696	1.6865e+02	-6.2354	-83.574765	0.000243	2.432138	0.412015	0.000049
1697	1.6875e+02	-6.2158	-83.489986	0.000426	4.256241	0.721027	0.000085
1698	1.6885e+02	-6.1956	-83.405206	0.000426	4.256241	0.721027	0.000085
1699	1.6895e+02	-6.1752	-83.308315	0.000486	4.864275	0.824031	0.000097
1700	1.6905e+02	-6.1552	-83.239683	0.000345	3.445528	0.583688	0.000069
1701	1.6915e+02	-6.1353	-83.130681	0.000547	5.472310	0.927034	0.000110
1702	1.6925e+02	-6.1157	-83.058012	0.000365	3.648206	0.618023	0.000073
1703	1.6935e+02	-6.0968	-82.957084	0.000507	5.066953	0.858365	0.000101
1704	1.6945e+02	-6.0754	-82.868267	0.000446	4.458919	0.755361	0.000089
1705	1.6955e+02	-6.0553	-82.803673	0.000324	3.242850	0.549354	0.000065
1706	1.6965e+02	-6.0353	-82.718893	0.000426	4.256241	0.721027	0.000085
1707	1.6975e+02	-6.0161	-82.597779	0.000608	6.080344	1.030038	0.000122
1708	1.6985e+02	-5.9959	-82.545296	0.000263	2.634816	0.446350	0.000053
1709	1.6995e+02	-5.9752	-82.408033	0.000689	6.891056	1.167377	0.000138
1710	1.7005e+02	-5.9565	-82.339402	0.000345	3.445528	0.583688	0.000069
1711	1.7015e+02	-5.9362	-82.238474	0.000507	5.066953	0.858365	0.000101
1712	1.7024e+02	-5.9155	-82.153694	0.000426	4.256241	0.721027	0.000085
1713	1.7034e+02	-5.8952	-82.097174	0.000284	2.837494	0.480684	0.000057
1714	1.7044e+02	-5.8765	-81.972023	0.000628	6.283022	1.064373	0.000126
1715	1.7054e+02	-5.8568	-81.903391	0.000345	3.445528	0.583688	0.000069
1716	1.7064e+02	-5.8362	-81.802463	0.000507	5.066953	0.858365	0.000101
1717	1.7074e+02	-5.8228	-81.733832	0.000345	3.445528	0.583688	0.000069
1718	1.7084e+02	-5.7967	-81.640977	0.000466	4.661597	0.789696	0.000093
1719	1.7094e+02	-5.7770	-81.495641	0.000730	7.296413	1.236046	0.000146
1720	1.7104e+02	-5.7558	-81.479492	0.000081	0.810713	0.137338	0.000016
1721	1.7114e+02	-5.7365	-81.362415	0.000588	5.877666	0.995704	0.000118
1722	1.7124e+02	-5.7166	-81.261487	0.000507	5.066953	0.858365	0.000101
1723	1.7134e+02	-5.6963	-81.160558	0.000507	5.066953	0.858365	0.000101
1724	1.7144e+02	-5.6772	-81.112113	0.000243	2.432138	0.412015	0.000049
1725	1.7154e+02	-5.6572	-80.954664	0.000790	7.904447	1.339050	0.000158
1726	1.7164e+02	-5.6367	-80.894107	0.000304	3.040172	0.515019	0.000061
1727	1.7174e+02	-5.6174	-80.809328	0.000426	4.256241	0.721027	0.000085
1728	1.7184e+02	-5.5978	-80.696288	0.000567	5.674988	0.961369	0.000114
1729	1.7194e+02	-5.5779	-80.627656	0.000345	3.445528	0.583688	0.000069
1730	1.7204e+02	-5.5572	-80.498468	0.000649	6.485700	1.098707	0.000130
1731	1.7213e+02	-5.5377	-80.409651	0.000446	4.458919	0.755361	0.000089
1732	1.7223e+02	-5.5168	-80.328908	0.000405	4.053563	0.686692	0.000081
1733	1.7233e+02	-5.4907	-80.191646	0.000689	6.891056	1.167377	0.000138
1734	1.7243e+02	-5.4785	-80.127052	0.000324	3.242850	0.549354	0.000065
1735	1.7253e+02	-5.4581	-80.022086	0.000527	5.269631	0.892700	0.000105
1736	1.7263e+02	-5.4381	-79.941343	0.000405	4.053563	0.686692	0.000081
1737	1.7273e+02	-5.4178	-79.832341	0.000547	5.472310	0.927034	0.000110
1738	1.7283e+02	-5.3986	-79.735449	0.000486	4.864275	0.824031	0.000097
1739	1.7293e+02	-5.3787	-79.650670	0.000426	4.256241	0.721027	0.000085
1740	1.7303e+02	-5.3583	-79.553778	0.000486	4.864275	0.824031	0.000097
1741	1.7313e+02	-5.3384	-79.428627	0.000628	6.283022	1.064373	0.000126
1742	1.7323e+02	-5.3185	-79.351921	0.000385	3.850884	0.652357	0.000077
1743	1.7333e+02	-5.2983	-79.263105	0.000446	4.458919	0.755361	0.000089
1744	1.7343e+02	-5.2778	-79.129879	0.000669	6.688378	1.133042	0.000134
1745	1.7353e+02	-5.2585	-79.041062	0.000446	4.458919	0.755361	0.000089
1746	1.7363e+02	-5.2394	-78.940134	0.000507	5.066953	0.858365	0.000101
1747	1.7373e+02	-5.2179	-78.843242	0.000486	4.864275	0.824031	0.000097
1748	1.7383e+02	-5.1987	-78.746351	0.000486	4.864275	0.824031	0.000097
1749	1.7393e+02	-5.1797	-78.653497	0.000466	4.661597	0.789696	0.000093
1750	1.7403e+02	-5.1587	-78.564680	0.000446	4.458919	0.755361	0.000089
1751	1.7413e+02	-5.1398	-78.423380	0.000709	7.093735	1.201711	0.000142
1752	1.7422e+02	-5.1199	-78.346675	0.000385	3.850884	0.652357	0.000077
1753	1.7432e+02	-5.0993	-78.257858	0.000446	4.458919	0.755361	0.000089
1754	1.7442e+02	-5.0786	-78.148855	0.000547	5.472310	0.927034	0.000110
1755	1.7452e+02	-5.0594	-78.047927	0.000507	5.066953	0.858365	0.000101
1756	1.7462e+02	-5.0401	-77.946998	0.000507	5.066953	0.858365	0.000101
1757	1.7472e+02	-5.0195	-77.825884	0.000608	6.080344	1.030038	0.000122
1758	1.7482e+02	-4.9997	-77.745141	0.000405	4.053563	0.686692	0.000081
1759	1.7492e+02	-4.9803	-77.611916	0.000669	6.688378	1.133042	0.000134
1760	1.7502e+02	-4.9603	-77.535210	0.000385	3.850884	0.652357	0.000077
1761	1.7512e+02	-4.9402	-77.397948	0.000689	6.891056	1.167377	0.000138
1762	1.7522e+02	-4.9200	-77.292982	0.000527	5.269631	0.892700	0.000105
1763	1.7532e+02	-4.9004	-77.208202	0.000426	4.256241	0.721027	0.000085
1764	1.7542e+02	-4.8801	-77.079014	0.000649	6.485700	1.098707	0.000130
1765	1.7552e+02	-4.8601	-77.022494	0.000284	2.837494	0.480684	0.000057
1766	1.7562e+02	-4.8404	-76.889269	0.000669	6.688378	1.133042	0.000134
1767	1.7572e+02	-4.8201	-76.820637	0.000345	3.445528	0.583688	0.000069
1768	1.7582e+02	-4.8009	-76.691449	0.000649	6.485700	1.098707	0.000130
1769	1.7592e+02	-4.7810	-76.586484	0.000527	5.269631	0.892700	0.000105
1770	1.7602e+02	-4.7604	-76.481518	0.000527	5.269631	0.892700	0.000105
1771	1.7612e+02	-4.7412	-76.360404	0.000608	6.080344	1.030038	0.000122
1772	1.7621e+02	-4.7211	-76.251401	0.000547	5.472310	0.927034	0.000110
1773	1.7631e+02	-4.7006	-76.122213	0.000649	6.485700	1.098707	0.000130
1774	1.7641e+02	-4.6814	-76.037433	0.000426	4.256241	0.721027	0.000085
1775	1.7651e+02	-4.6613	-75.928430	0.000547	5.472310	0.927034	0.000110
1776	1.7661e+02	-4.6407	-75.799242	0.000649	6.485700	1.098707	0.000130
1777	1.7671e+02	-4.6211	-75.702351	0.000486	4.864275	0.824031	0.000097
1778	1.7681e+02	-4.6017	-75.605460	0.000486	4.864275	0.824031	0.000097
1779	1.7691e+02	-4.5808	-75.500494	0.000527	5.269631	0.892700	0.000105
1780	1.7701e+02	-4.5609	-75.379380	0.000608	6.080344	1.030038	0.000122
1781	1.7711e+02	-4.5410	-75.242117	0.000689	6.891056	1.167377	0.000138
1782	1.7721e+02	-4.5221	-75.153300	0.000446	4.458919	0.755361	0.000089
1783	1.7731e+02	-4.5015	-75.064483	0.000446	4.458919	0.755361	0.000089
1784	1.7741e+02	-4.4831	-74.931258	0.000669	6.688378	1.133042	0.000134
1785	1.7751e+02	-4.4620	-74.834367	0.000486	4.864275	0.824031	0.000097
1786	1.7761e+02	-4.4415	-74.725364	0.000547	5.472310	0.927034	0.000110
1787	1.7771e+02	-4.4220	-74.632510	0.000466	4.661597	0.789696	0.000093
1788	1.7781e+02	-4.4019	-74.515433	0.000588	5.877666	0.995704	0.000118
1789	1.7791e+02	-4.3819	-74.398356	0.000588	5.877666	0.995704	0.000118
1790	1.7801e+02	-4.3616	-74.281279	0.000588	5.877666	0.995704	0.000118
1791	1.7810e+02	-4.3418	-74.176313	0.000527	5.269631	0.892700	0.000105
1792	1.7820e+02	-4.3225	-74.067311	0.000547	5.472310	0.927034	0.000110
1793	1.7830e+02	-4.3044	-73.946197	0.000608	6.080344	1.030038	0.000122
1794	1.7840e+02	-4.2827	-73.849305	0.000486	4.864275	0.824031	0.000097
1795	1.7850e+02	-4.2621	-73.748377	0.000507	5.066953	0.858365	0.000101
1796	1.7860e+02	-4.2433	-73.615152	0.000669	6.688378	1.133042	0.000134
1797	1.7870e+02	-4.2227	-73.526335	0.000446	4.458919	0.755361	0.000089
1798	1.7880e+02	-4.2041	-73.405221	0.000608	6.080344	1.030038	0.000122
1799	1.7890e+02	-4.1824	-73.304292	0.000507	5.066953	0.858365	0.000101
1800	1.7900e+02	-4.1635	-73.158955	0.000730	7.296413	1.236046	0.000146
1801	1.7910e+02	-4.1425	-73.049953	0.000547	5.472310	0.927034	0.000110
1802	1.7920e+02	-4.1234	-72.961136	0.000446	4.458919	0.755361	0.000089
1803	1.7930e+02	-4.1034	-72.807724	0.000770	7.701769	1.304715	0.000154
1804	1.7940e+02	-4.0834	-72.714870	0.000466	4.661597	0.789696	0.000093
1805	1.7950e+02	-4.0638	-72.573571	0.000709	7.093735	1.201711	0.000142
1806	1.7960e+02	-4.0430	-72.521088	0.000263	2.634816	0.446350	0.000053
1807	1.7970e+02	-4.0228	-72.375751	0.000730	7.296413	1.236046	0.000146
1808	1.7980e+02	-4.0039	-72.254637	0.000608	6.080344	1.030038	0.000122
1809	1.7990e+02	-3.9828	-72.137560	0.000588	5.877666	0.995704	0.000118
1810	1.8000e+02	-3.9645	-72.036632	0.000507	5.066953	0.858365	0.000101
1811	1.8009e+02	-3.9436	-71.875146	0.000811	8.107125	1.373384	0.000162
1812	1.8019e+02	-3.9243	-71.798441	0.000385	3.850884	0.652357	0.000077
1813	1.8029e+02	-3.9041	-71.693475	0.000527	5.269631	0.892700	0.000105
1814	1.8039e+02	-3.8835	-71.544101	0.000750	7.499091	1.270380	0.000150
1815	1.8049e+02	-3.8643	-71.410876	0.000669	6.688378	1.133042	0.000134
1816	1.8059e+02	-3.8444	-71.313984	0.000486	4.864275	0.824031	0.000097
1817	1.8069e+02	-3.8245	-71.176722	0.000689	6.891056	1.167377	0.000138
1818	1.8079e+02	-3.8038	-71.051570	0.000628	6.283022	1.064373	0.000126
1819	1.8089e+02	-3.7843	-71.003125	0.000243	2.432138	0.412015	0.000049
1820	1.8099e+02	-3.7640	-70.869899	0.000669	6.688378	1.133042	0.000134
1821	1.8109e+02	-3.7437	-70.724562	0.000730	7.296413	1.236046	0.000146
1822	1.8119e+02	-3.7241	-70.631708	0.000466	4.661597	0.789696	0.000093
1823	1.8129e+02	-3.7048	-70.478297	0.000770	7.701769	1.304715	0.000154
1824	1.8139e+02	-3.6843	-70.385443	0.000466	4.661597	0.789696	0.000093
1825	1.8149e+02	-3.6646	-70.236069	0.000750	7.499091	1.270380	0.000150
1826	1.8159e+02	-3.6442	-70.159363	0.000385	3.850884	0.652357	0.000077
1827	1.8169e+02	-3.6245	-70.001915	0.000790	7.904447	1.339050	0.000158
1828	1.8179e+02	-3.6053	-69.864653	0.000689	6.891056	1.167377	0.000138
1829	1.8189e+02	-3.5851	-69.796021	0.000345	3.445528	0.583688	0.000069
1830	1.8199e+02	-3.5652	-69.662796	0.000669	6.688378	1.133042	0.000134
1831	1.8209e+02	-3.5457	-69.529570	0.000669	6.688378	1.133042	0.000134
1832	1.8218e+02	-3.5260	-69.392308	0.000689	6.891056	1.167377	0.000138
1833	1.8228e+02	-3.5049	-69.311565	0.000405	4.053563	0.686692	0.000081
1834	1.8238e+02	-3.4860	-69.166228	0.000730	7.296413	1.236046	0.000146
1835	1.8248e+02	-3.4648	-69.028965	0.000689	6.891056	1.167377	0.000138
1836	1.8258e+02	-3.4453	-68.940148	0.000446	4.458919	0.755361	0.000089
1837	1.8268e+02	-3.4259	-68.843257	0.000486	4.864275	0.824031	0.000097
1838	1.8278e+02	-3.4055	-68.661586	0.000912	9.120516	1.545057	0.000183
1839	1.8288e+02	-3.3853	-68.556621	0.000527	5.269631	0.892700	0.000105
1840	1.8298e+02	-3.3669	-68.399172	0.000790	7.904447	1.339050	0.000158
1841	1.8308e+02	-3.3470	-68.334578	0.000324	3.242850	0.549354	0.000065
1842	1.8318e+02	-3.3265	-68.201353	0.000669	6.688378	1.133042	0.000134
1843	1.8328e+02	-3.3066	-68.064090	0.000689	6.891056	1.167377	0.000138
1844	1.8338e+02	-3.2851	-67.942976	0.000608	6.080344	1.030038	0.000122
1845	1.8348e+02	-3.2660	-67.789565	0.000770	7.701769	1.304715	0.000154
1846	1.8358e+02	-3.2474	-67.668451	0.000608	6.080344	1.030038	0.000122
1847	1.8368e+02	-3.2256	-67.555411	0.000567	5.674988	0.961369	0.000114
1848	1.8378e+02	-3.2058	-67.466594	0.000446	4.458919	0.755361	0.000089
1849	1.8388e+02	-3.1863	-67.325294	0.000709	7.093735	1.201711	0.000142
1850	1.8398e+02	-3.1676	-67.208217	0.000588	5.877666	0.995704	0.000118
1851	1.8407e+02	-3.1474	-67.091140	0.000588	5.877666	0.995704	0.000118
1852	1.8417e+02	-3.1263	-66.937729	0.000770	7.701769	1.304715	0.000154
1853	1.8427e+02	-3.1070	-66.848912	0.000446	4.458919	0.755361	0.000089
1854	1.8437e+02	-3.0875	-66.707612	0.000709	7.093735	1.201711	0.000142
1855	1.8447e+02	-3.0667	-66.618795	0.000446	4.458919	0.755361	0.000089
1856	1.8457e+02	-3.0470	-66.457310	0.000811	8.107125	1.373384	0.000162
1857	1.8467e+02	-3.0265	-66.336196	0.000608	6.080344	1.030038	0.000122
1858	1.8477e+02	-3.0072	-66.247379	0.000446	4.458919	0.755361	0.000089
1859	1.8487e+02	-2.9877	-66.041485	0.001034	10.336585	1.751065	0.000207
1860	1.8497e+02	-2.9684	-65.964779	0.000385	3.850884	0.652357	0.000077
1861	1.8507e+02	-2.9473	-65.835591	0.000649	6.485700	1.098707	0.000130
1862	1.8517e+02	-2.9271	-65.690254	0.000730	7.296413	1.236046	0.000146
1863	1.8527e+02	-2.9080	-65.565103	0.000628	6.283022	1.064373	0.000126
1864	1.8537e+02	-2.8880	-65.443989	0.000608	6.080344	1.030038	0.000122
1865	1.8547e+02	-2.8685	-65.322875	0.000608	6.080344	1.030038	0.000122
1866	1.8557e+02	-2.8474	-65.125055	0.000993	9.931228	1.682396	0.000199
1867	1.8567e+02	-2.8297	-65.068535	0.000284	2.837494	0.480684	0.000057
1868	1.8577e+02	-2.8082	-64.947421	0.000608	6.080344	1.030038	0.000122
1869	1.8587e+02	-2.7883	-64.765750	0.000912	9.120516	1.545057	0.000183
1870	1.8597e+02	-2.7681	-64.664822	0.000507	5.066953	0.858365	0.000101
1871	1.8606e+02	-2.7489	-64.507373	0.000790	7.904447	1.339050	0.000158
1872	1.8616e+02	-2.7281	-64.410482	0.000486	4.864275	0.824031	0.000097
1873	1.8626e+02	-2.7090	-64.228811	0.000912	9.120516	1.545057	0.000183
1874	1.8636e+02	-2.6885	-64.111734	0.000588	5.877666	0.995704	0.000118
1875	1.8646e+02	-2.6679	-63.982546	0.000649	6.485700	1.098707	0.000130
1876	1.8656e+02	-2.6477	-63.865469	0.000588	5.877666	0.995704	0.000118
1877	1.8666e+02	-2.6291	-63.724169	0.000709	7.093735	1.201711	0.000142
1878	1.8676e+02	-2.6070	-63.627278	0.000486	4.864275	0.824031	0.000097
1879	1.8686e+02	-2.5886	-63.437532	0.000953	9.525872	1.613726	0.000191
1880	1.8696e+02	-2.5692	-63.336604	0.000507	5.066953	0.858365	0.000101
1881	1.8706e+02	-2.5492	-63.203379	0.000669	6.688378	1.133042	0.000134
1882	1.8716e+02	-2.5290	-63.090339	0.000567	5.674988	0.961369	0.000114
1883	1.8726e+02	-2.5096	-62.908668	0.000912	9.120516	1.545057	0.000183
1884	1.8736e+02	-2.4899	-62.799665	0.000547	5.472310	0.927034	0.000110
1885	1.8746e+02	-2.4704	-62.662402	0.000689	6.891056	1.167377	0.000138
1886	1.8756e+02	-2.4496	-62.541288	0.000608	6.080344	1.030038	0.000122
1887	1.8766e+02	-2.4302	-62.399989	0.000709	7.093735	1.201711	0.000142
1888	1.8776e+02	-2.4097	-62.266763	0.000669	6.688378	1.133042	0.000134
1889	1.8786e+02	-2.3901	-62.141612	0.000628	6.283022	1.064373	0.000126
1890	1.8796e+02	-2.3701	-61.963978	0.000892	8.917838	1.510723	0.000179
1891	1.8806e+02	-2.3475	-61.842864	0.000608	6.080344	1.030038	0.000122
1892	1.8815e+02	-2.3293	-61.729824	0.000567	5.674988	0.961369	0.000114
1893	1.8825e+02	-2.3105	-61.580450	0.000750	7.499091	1.270380	0.000150
1894	1.8835e+02	-2.2919	-61.471447	0.000547	5.472310	0.927034	0.000110
1895	1.8845e+02	-2.2705	-61.285739	0.000932	9.323194	1.579392	0.000187
1896	1.8855e+02	-2.2502	-61.164625	0.000608	6.080344	1.030038	0.000122
1897	1.8865e+02	-2.2302	-61.067734	0.000486	4.864275	0.824031	0.000097
1898	1.8875e+02	-2.2116	-60.930471	0.000689	6.891056	1.167377	0.000138
1899	1.8885e+02	-2.1909	-60.752837	0.000892	8.917838	1.510723	0.000179
1900	1.8895e+02	-2.1707	-60.643834	0.000547	5.472310	0.927034	0.000110
1901	1.8905e+02	-2.1512	-60.514646	0.000649	6.485700	1.098707	0.000130
1902	1.8915e+02	-2.1308	-60.353161	0.000811	8.107125	1.373384	0.000162
1903	1.8925e+02	-2.1113	-60.219935	0.000669	6.688378	1.133042	0.000134
1904	1.8935e+02	-2.0911	-60.127081	0.000466	4.661597	0.789696	0.000093
1905	1.8945e+02	-2.0709	-59.973670	0.000770	7.701769	1.304715	0.000154
1906	1.8955e+02	-2.0518	-59.828333	0.000730	7.296413	1.236046	0.000146
1907	1.8965e+02	-2.0313	-59.723368	0.000527	5.269631	0.892700	0.000105
1908	1.8975e+02	-2.0120	-59.561882	0.000811	8.107125	1.373384	0.000162
1909	1.8985e+02	-1.9916	-59.432694	0.000649	6.485700	1.098707	0.000130
1910	1.8995e+02	-1.9714	-59.255060	0.000892	8.917838	1.510723	0.000179
1911	1.9004e+02	-1.9522	-59.146057	0.000547	5.472310	0.927034	0.000110
1912	1.9014e+02	-1.9318	-58.964386	0.000912	9.120516	1.545057	0.000183
1913	1.9024e+02	-1.9119	-58.859420	0.000527	5.269631	0.892700	0.000105
1914	1.9034e+02	-1.8922	-58.701972	0.000790	7.904447	1.339050	0.000158
1915	1.9044e+02	-1.8716	-58.592970	0.000547	5.472310	0.927034	0.000110
1916	1.9054e+02	-1.8517	-58.435521	0.000790	7.904447	1.339050	0.000158
1917	1.9064e+02	-1.8324	-58.269999	0.000831	8.309803	1.407719	0.000166
1918	1.9074e+02	-1.8115	-58.148885	0.000608	6.080344	1.030038	0.000122
1919	1.9084e+02	-1.7914	-58.027771	0.000608	6.080344	1.030038	0.000122
1920	1.9094e+02	-1.7722	-57.898582	0.000649	6.485700	1.098707	0.000130
1921	1.9104e+02	-1.7519	-57.724985	0.000872	8.715160	1.476388	0.000174
1922	1.9114e+02	-1.7334	-57.660391	0.000324	3.242850	0.549354	0.000065
1923	1.9124e+02	-1.7123	-57.454497	0.001034	10.336585	1.751065	0.000207
1924	1.9134e+02	-1.6930	-57.325309	0.000649	6.485700	1.098707	0.000130
1925	1.9144e+02	-1.6726	-57.204195	0.000608	6.080344	1.030038	0.000122
1926	1.9154e+02	-1.6532	-57.030598	0.000872	8.715160	1.476388	0.000174
1927	1.9164e+02	-1.6328	-56.901410	0.000649	6.485700	1.098707	0.000130
1928	1.9174e+02	-1.6122	-56.760110	0.000709	7.093735	1.201711	0.000142
1929	1.9184e+02	-1.5933	-56.606699	0.000770	7.701769	1.304715	0.000154
1930	1.9194e+02	-1.5724	-56.501733	0.000527	5.269631	0.892700	0.000105
1931	1.9203e+02	-1.5524	-56.372545	0.000649	6.485700	1.098707	0.000130
1932	1.9213e+02	-1.5324	-56.198948	0.000872	8.715160	1.476388	0.000174
1933	1.9223e+02	-1.5133	-56.021314	0.000892	8.917838	1.510723	0.000179
1934	1.9233e+02	-1.4930	-55.875977	0.000730	7.296413	1.236046	0.000146
1935	1.9243e+02	-1.4729	-55.762937	0.000567	5.674988	0.961369	0.000114
1936	1.9253e+02	-1.4534	-55.597415	0.000831	8.309803	1.407719	0.000166
1937	1.9263e+02	-1.4331	-55.468226	0.000649	6.485700	1.098707	0.000130
1938	1.9273e+02	-1.4125	-55.318852	0.000750	7.499091	1.270380	0.000150
1939	1.9283e+02	-1.3936	-55.205813	0.000567	5.674988	0.961369	0.000114
1940	1.9293e+02	-1.3735	-55.056439	0.000750	7.499091	1.270380	0.000150
1941	1.9303e+02	-1.3538	-54.874768	0.000912	9.120516	1.545057	0.000183
1942	1.9313e+02	-1.3341	-54.725393	0.000750	7.499091	1.270380	0.000150
1943	1.9323e+02	-1.3136	-54.620428	0.000527	5.269631	0.892700	0.000105
1944	1.9333e+02	-1.2933	-54.442794	0.000892	8.917838	1.510723	0.000179
1945	1.9343e+02	-1.2745	-54.321680	0.000608	6.080344	1.030038	0.000122
1946	1.9353e+02	-1.2552	-54.204603	0.000588	5.877666	0.995704	0.000118
1947	1.9363e+02	-1.2347	-54.051192	0.000770	7.701769	1.304715	0.000154
1948	1.9373e+02	-1.2137	-53.909892	0.000709	7.093735	1.201711	0.000142
1949	1.9383e+02	-1.1953	-53.752444	0.000790	7.904447	1.339050	0.000158
1950	1.9393e+02	-1.1751	-53.611144	0.000709	7.093735	1.201711	0.000142
1951	1.9403e+02	-1.1545	-53.461770	0.000750	7.499091	1.270380	0.000150
1952	1.9412e+02	-1.1345	-53.320470	0.000709	7.093735	1.201711	0.000142
1953	1.9422e+02	-1.1151	-53.167059	0.000770	7.701769	1.304715	0.000154
1954	1.9432e+02	-1.0954	-53.049982	0.000588	5.877666	0.995704	0.000118
1955	1.9442e+02	-1.0748	-52.868311	0.000912	9.120516	1.545057	0.000183
1956	1.9452e+02	-1.0555	-52.735086	0.000669	6.688378	1.133042	0.000134
1957	1.9462e+02	-1.0352	-52.573600	0.000811	8.107125	1.373384	0.000162
1958	1.9472e+02	-1.0151	-52.464597	0.000547	5.472310	0.927034	0.000110
1959	1.9482e+02	-0.9951	-52.274852	0.000953	9.525872	1.613726	0.000191
1960	1.9492e+02	-0.9753	-52.141627	0.000669	6.688378	1.133042	0.000134
1961	1.9502e+02	-0.9558	-52.008401	0.000669	6.688378	1.133042	0.000134
1962	1.9512e+02	-0.9361	-51.875176	0.000669	6.688378	1.133042	0.000134
1963	1.9522e+02	-0.9158	-51.733876	0.000709	7.093735	1.201711	0.000142
1964	1.9532e+02	-0.8954	-51.588539	0.000730	7.296413	1.236046	0.000146
1965	1.9542e+02	-0.8754	-51.439165	0.000750	7.499091	1.270380	0.000150
1966	1.9552e+02	-0.8558	-51.281717	0.000790	7.904447	1.339050	0.000158
1967	1.9562e+02	-0.8367	-51.160603	0.000608	6.080344	1.030038	0.000122
1968	1.9572e+02	-0.8160	-50.995080	0.000831	8.309803	1.407719	0.000166
1969	1.9582e+02	-0.7961	-50.845706	0.000750	7.499091	1.270380	0.000150
1970	1.9592e+02	-0.7732	-50.688258	0.000790	7.904447	1.339050	0.000158
1971	1.9601e+02	-0.7573	-50.542921	0.000730	7.296413	1.236046	0.000146
1972	1.9611e+02	-0.7356	-50.401621	0.000709	7.093735	1.201711	0.000142
1973	1.9621e+02	-0.7159	-50.232061	0.000851	8.512481	1.442053	0.000170
1974	1.9631e+02	-0.6966	-50.090762	0.000709	7.093735	1.201711	0.000142
1975	1.9641e+02	-0.6763	-49.953499	0.000689	6.891056	1.167377	0.000138
1976	1.9651e+02	-0.6564	-49.796051	0.000790	7.904447	1.339050	0.000158
1977	1.9661e+02	-0.6369	-49.699160	0.000486	4.864275	0.824031	0.000097
1978	1.9671e+02	-0.6156	-49.513451	0.000932	9.323194	1.579392	0.000187
1979	1.9681e+02	-0.5967	-49.339854	0.000872	8.715160	1.476388	0.000174
1980	1.9691e+02	-0.5769	-49.255075	0.000426	4.256241	0.721027	0.000085
1981	1.9701e+02	-0.5577	-49.081478	0.000872	8.715160	1.476388	0.000174
1982	1.9711e+02	-0.5367	-48.907881	0.000872	8.715160	1.476388	0.000174
1983	1.9721e+02	-0.5177	-48.754470	0.000770	7.701769	1.304715	0.000154
1984	1.9731e+02	-0.4973	-48.653541	0.000507	5.066953	0.858365	0.000101
1985	1.9741e+02	-0.4768	-48.471870	0.000912	9.120516	1.545057	0.000183
1986	1.9751e+02	-0.4576	-48.302311	0.000851	8.512481	1.442053	0.000170
1987	1.9761e+02	-0.4375	-48.136788	0.000831	8.309803	1.407719	0.000166
1988	1.9771e+02	-0.4178	-48.060082	0.000385	3.850884	0.652357	0.000077
1989	1.9781e+02	-0.3977	-47.874374	0.000932	9.323194	1.579392	0.000187
1990	1.9791e+02	-0.3782	-47.761334	0.000567	5.674988	0.961369	0.000114
1991	1.9800e+02	-0.3577	-47.583700	0.000892	8.917838	1.510723	0.000179
1992	1.9810e+02	-0.3374	-47.414141	0.000851	8.512481	1.442053	0.000170
1993	1.9820e+02	-0.3177	-47.297064	0.000588	5.877666	0.995704	0.000118
1994	1.9830e+02	-0.2974	-47.123467	0.000872	8.715160	1.476388	0.000174
1995	1.9840e+02	-0.2776	-46.933722	0.000953	9.525872	1.613726	0.000191
1996	1.9850e+02	-0.2585	-46.840867	0.000466	4.661597	0.789696	0.000093
1997	1.9860e+02	-0.2378	-46.695531	0.000730	7.296413	1.236046	0.000146
1998	1.9870e+02	-0.2183	-46.534045	0.000811	8.107125	1.373384	0.000162
1999	1.9880e+02	-0.1978	-46.388708	0.000730	7.296413	1.236046	0.000146
2000	1.9890e+02	-0.1787	-46.215111	0.000872	8.715160	1.476388	0.000174
2001	1.9900e+02	-0.1587	-46.065737	0.000750	7.499091	1.270380	0.000150
2002	1.9910e+02	-0.1381	-45.932512	0.000669	6.688378	1.133042	0.000134
2003	1.9920e+02	-0.1179	-45.787175	0.000730	7.296413	1.236046	0.000146
2004	1.9930e+02	-0.0983	-45.617615	0.000851	8.512481	1.442053	0.000170
2005	1.9940e+02	-0.0784	-45.439981	0.000892	8.917838	1.510723	0.000179
2006	1.9950e+02	-0.0593	-45.294644	0.000730	7.296413	1.236046	0.000146
2007	1.9960e+02	-0.0388	-45.173530	0.000608	6.080344	1.030038	0.000122
2008	1.9970e+02	-0.0189	-45.012045	0.000811	8.107125	1.373384	0.000162
2009	1.9980e+02	0.0002	-44.838448	0.000811	8.107125	1.373384	0.000174

PMax (uC/cm2):	6.32e+01
Pr (uC/cm2):	7.90e+00
-Pr (uC/cm2):	-7.02e+01
PLoss (uC/cm2):	-7.03e+01
-Vc:	-1.02e+00
C (Max-Eff) (nF):	6.32e-01
K (Eff):	1.07e+03
Vert. (+/-Pr) Shift (uC/cm2):	-3.12e+01
Offset (uC/cm2):	-2.54e+01

A (Loop Area - uC/cm2·Volts):	-4.64e-01



Hysteresis Version: 5.48.1 - Radiant Technologies, Inc., 1999 - 9/12/24

