»»»»»»»»»»»»»»»»»»»»»»»»»»»»»»»»»»»» Hysteresis ««««««««««««««««««««««««««««««««««««
»»»  Executed Version:	5.48.1
»»»  Vision Version:	5.48.4 (R)
»»»  Vision Compiled:	9/18/24
»»»  Driver Version:	5.47.0
»»»  Windows Version:	Windows 8 or 8.1
»»»  Processor Information:	x86 (AMD or Intel) - 32 Processors
»»»  Tester Name:	PMF21124-494 (100V)
»»»  Tester S/N:	PMF21124-494
»»»  Internal Amp Type:	100V RevK 270k
»»»  Internal Amp S/N:	iAB2-596/K     
»»»  Execution Count:	1
»»»»»»»»»»»»»»»»»»»»»»»»»»»»»»»»»»»»»»»»»»««««««««««««««««««««««««««««««««««««««««««

Stored:	7/2/2025 - 14:33:0
Configured:	07/02/25 01:35:59 PM
Executed:	07/02/25 02:31:08 PM

»»»»»»»»»»»»»»»»»»»»»»»»»»»»»»»»»»» Sample Info ««««««««««««««««««««««««««««««««««««
Sample Name:	
Lot Name:	
Wafer Name:	
Die Row/Column:	0/0
Capacitor Number:	0
Sample Area (cm2):	1.00e-04
Sample Thickness (microns):	1.50e-01

Amplifier:	Internal

»»»»»»»»»»»»»»»»»»»»»»»»»»»»»»»»»»» Tester Info «««««««««««««««««««««««««««««««««««
Tester Name:	PMF21124-494 (100V)
Tester Serial Number:	PMF21124-494
Return Signal Amp. Level:	0.19 [Index: 3]

»»»»»»»»»»»»»»»»»»»»»»»»»»»»»»»» Hysteresis Info ««««««««««««««««««««««««««««««««««
Task Name:	Hyst-220
Volts:	10.00
Field:	666.67 (kV/cm)
DCBias:	0.00
DCField:	0.00 (kV/cm)
Hysteresis Period (ms):	2.00e+02
Preset:	Enabled
Preset Delay (ms):	1.00e+03
Profile:	Standard Bipolar

»»»»»»»»»»»»»»»»»»»»»»»»»»»»»»»»»»»»»» Data «««««««««««««««««««««««««««««««««««««««
Points:	2009

Valid Data

Point	Time (ms)	Drive Voltage	Measured Polarization (uC/cm2)	Capacitance (uF)	Normalized Capacitance (uF/cm2)	Dielectric Constant	Instantaneous Current (mA)
   1	0.0000e+00	-0.0002	20.318904	0.000831	8.309883	1.407732	0.000166
   2	9.9500e-02	0.0192	20.484427	0.000831	8.309883	1.407732	0.000166
   3	1.9900e-01	0.0377	20.609578	0.000628	6.283082	1.064383	0.000126
   4	2.9850e-01	0.0592	20.754915	0.000730	7.296482	1.236058	0.000146
   5	3.9800e-01	0.0795	20.900252	0.000730	7.296482	1.236058	0.000146
   6	4.9750e-01	0.0993	21.073849	0.000872	8.715243	1.476402	0.000174
   7	5.9700e-01	0.1180	21.211111	0.000689	6.891122	1.167388	0.000138
   8	6.9650e-01	0.1386	21.364522	0.000770	7.701842	1.304727	0.000154
   9	7.9600e-01	0.1588	21.505822	0.000709	7.093802	1.201723	0.000142
  10	8.9550e-01	0.1800	21.663270	0.000790	7.904522	1.339062	0.000158
  11	9.9500e-01	0.1987	21.840904	0.000892	8.917923	1.510737	0.000179
  12	1.0945e+00	0.2190	21.962018	0.000608	6.080402	1.030048	0.000122
  13	1.1940e+00	0.2384	22.107355	0.000730	7.296482	1.236058	0.000146
  14	1.2935e+00	0.2583	22.264804	0.000790	7.904522	1.339062	0.000158
  15	1.3930e+00	0.2780	22.422252	0.000790	7.904522	1.339062	0.000158
  16	1.4925e+00	0.2984	22.547403	0.000628	6.283082	1.064383	0.000126
  17	1.5920e+00	0.3181	22.680629	0.000669	6.688442	1.133053	0.000134
  18	1.6915e+00	0.3384	22.862300	0.000912	9.120603	1.545072	0.000183
  19	1.7910e+00	0.3580	23.031859	0.000851	8.512563	1.442067	0.000170
  20	1.8905e+00	0.3783	23.144899	0.000568	5.675042	0.961378	0.000114
  21	1.9900e+00	0.3985	23.310422	0.000831	8.309883	1.407732	0.000166
  22	2.0895e+00	0.4168	23.471907	0.000811	8.107203	1.373397	0.000162
  23	2.1890e+00	0.4378	23.613207	0.000709	7.093802	1.201723	0.000142
  24	2.2885e+00	0.4579	23.774692	0.000811	8.107203	1.373397	0.000162
  25	2.3880e+00	0.4778	23.915992	0.000709	7.093802	1.201723	0.000142
  26	2.4875e+00	0.4990	24.089589	0.000872	8.715243	1.476402	0.000174
  27	2.5870e+00	0.5180	24.230889	0.000709	7.093802	1.201723	0.000142
  28	2.6865e+00	0.5378	24.432745	0.001013	10.134003	1.716747	0.000203
  29	2.7860e+00	0.5572	24.570008	0.000689	6.891122	1.167388	0.000138
  30	2.8855e+00	0.5772	24.707271	0.000689	6.891122	1.167388	0.000138
  31	2.9850e+00	0.5974	24.884905	0.000892	8.917923	1.510737	0.000179
  32	3.0845e+00	0.6182	25.030242	0.000730	7.296482	1.236058	0.000146
  33	3.1840e+00	0.6371	25.167504	0.000689	6.891122	1.167388	0.000138
  34	3.2835e+00	0.6577	25.345138	0.000892	8.917923	1.510737	0.000179
  35	3.3830e+00	0.6775	25.490475	0.000730	7.296482	1.236058	0.000146
  36	3.4825e+00	0.6965	25.668109	0.000892	8.917923	1.510737	0.000179
  37	3.5820e+00	0.7128	25.825557	0.000790	7.904522	1.339062	0.000158
  38	3.6815e+00	0.7364	25.983006	0.000790	7.904522	1.339062	0.000158
  39	3.7810e+00	0.7566	26.128342	0.000730	7.296482	1.236058	0.000146
  40	3.8805e+00	0.7757	26.297902	0.000851	8.512563	1.442067	0.000170
  41	3.9800e+00	0.7969	26.475536	0.000892	8.917923	1.510737	0.000179
  42	4.0795e+00	0.8165	26.628947	0.000770	7.701842	1.304727	0.000154
  43	4.1790e+00	0.8363	26.806581	0.000892	8.917923	1.510737	0.000179
  44	4.2785e+00	0.8562	26.951918	0.000730	7.296482	1.236058	0.000146
  45	4.3780e+00	0.8771	27.113404	0.000811	8.107203	1.373397	0.000162
  46	4.4775e+00	0.8962	27.254703	0.000709	7.093802	1.201723	0.000142
  47	4.5770e+00	0.9171	27.428300	0.000872	8.715243	1.476402	0.000174
  48	4.6765e+00	0.9364	27.597860	0.000851	8.512563	1.442067	0.000170
  49	4.7760e+00	0.9564	27.795680	0.000993	9.931323	1.682412	0.000199
  50	4.8755e+00	0.9756	27.932942	0.000689	6.891122	1.167388	0.000138
  51	4.9750e+00	0.9963	28.098465	0.000831	8.309883	1.407732	0.000166
  52	5.0745e+00	1.0152	28.235727	0.000689	6.891122	1.167388	0.000138
  53	5.1740e+00	1.0357	28.437584	0.001013	10.134003	1.716747	0.000203
  54	5.2735e+00	1.0556	28.574847	0.000689	6.891122	1.167388	0.000138
  55	5.3730e+00	1.0763	28.760555	0.000932	9.323283	1.579407	0.000187
  56	5.4725e+00	1.0959	28.934152	0.000872	8.715243	1.476402	0.000174
  57	5.5720e+00	1.1150	29.071414	0.000689	6.891122	1.167388	0.000138
  58	5.6715e+00	1.1349	29.245011	0.000872	8.715243	1.476402	0.000174
  59	5.7710e+00	1.1549	29.390348	0.000730	7.296482	1.236058	0.000146
  60	5.8705e+00	1.1752	29.555871	0.000831	8.309883	1.407732	0.000166
  61	5.9700e+00	1.1954	29.741579	0.000932	9.323283	1.579407	0.000187
  62	6.0695e+00	1.2154	29.919213	0.000892	8.917923	1.510737	0.000179
  63	6.1690e+00	1.2355	30.060513	0.000709	7.093802	1.201723	0.000142
  64	6.2685e+00	1.2551	30.221998	0.000811	8.107203	1.373397	0.000162
  65	6.3680e+00	1.2748	30.391558	0.000851	8.512563	1.442067	0.000170
  66	6.4675e+00	1.2942	30.557080	0.000831	8.309883	1.407732	0.000166
  67	6.5670e+00	1.3139	30.726640	0.000851	8.512563	1.442067	0.000170
  68	6.6665e+00	1.3335	30.904274	0.000892	8.917923	1.510737	0.000179
  69	6.7660e+00	1.3545	31.069797	0.000831	8.309883	1.407732	0.000166
  70	6.8655e+00	1.3730	31.219171	0.000750	7.499162	1.270392	0.000150
  71	6.9650e+00	1.3946	31.392767	0.000872	8.715243	1.476402	0.000174
  72	7.0645e+00	1.4141	31.566364	0.000872	8.715243	1.476402	0.000174
  73	7.1640e+00	1.4347	31.731887	0.000831	8.309883	1.407732	0.000166
  74	7.2635e+00	1.4537	31.885298	0.000770	7.701842	1.304727	0.000154
  75	7.3630e+00	1.4733	32.030635	0.000730	7.296482	1.236058	0.000146
  76	7.4625e+00	1.4930	32.216343	0.000932	9.323283	1.579407	0.000187
  77	7.5620e+00	1.5133	32.369754	0.000770	7.701842	1.304727	0.000154
  78	7.6615e+00	1.5328	32.559500	0.000953	9.525963	1.613742	0.000191
  79	7.7610e+00	1.5532	32.725022	0.000831	8.309883	1.407732	0.000166
  80	7.8605e+00	1.5739	32.890545	0.000831	8.309883	1.407732	0.000166
  81	7.9600e+00	1.5937	33.064142	0.000872	8.715243	1.476402	0.000174
  82	8.0595e+00	1.6129	33.181219	0.000588	5.877722	0.995713	0.000118
  83	8.1590e+00	1.6335	33.342704	0.000811	8.107203	1.373397	0.000162
  84	8.2585e+00	1.6521	33.556672	0.001074	10.742043	1.819751	0.000215
  85	8.3580e+00	1.6732	33.681823	0.000628	6.283082	1.064383	0.000126
  86	8.4575e+00	1.6933	33.879643	0.000993	9.931323	1.682412	0.000199
  87	8.5570e+00	1.7127	34.012869	0.000669	6.688442	1.133053	0.000134
  88	8.6565e+00	1.7326	34.206651	0.000973	9.728643	1.648077	0.000195
  89	8.7560e+00	1.7530	34.408508	0.001013	10.134003	1.716747	0.000203
  90	8.8555e+00	1.7728	34.521548	0.000568	5.675042	0.961378	0.000114
  91	8.9550e+00	1.7918	34.703219	0.000912	9.120603	1.545072	0.000183
  92	9.0545e+00	1.8133	34.844519	0.000709	7.093802	1.201723	0.000142
  93	9.1540e+00	1.8326	35.030227	0.000932	9.323283	1.579407	0.000187
  94	9.2535e+00	1.8520	35.191712	0.000811	8.107203	1.373397	0.000162
  95	9.3530e+00	1.8714	35.361272	0.000851	8.512563	1.442067	0.000170
  96	9.4525e+00	1.8919	35.538906	0.000892	8.917923	1.510737	0.000179
  97	9.5520e+00	1.9122	35.655983	0.000588	5.877722	0.995713	0.000118
  98	9.6515e+00	1.9318	35.873988	0.001094	10.944723	1.854086	0.000219
  99	9.7510e+00	1.9521	36.031436	0.000790	7.904522	1.339062	0.000158
 100	9.8505e+00	1.9717	36.196959	0.000831	8.309883	1.407732	0.000166
 101	9.9500e+00	1.9914	36.358444	0.000811	8.107203	1.373397	0.000162
 102	1.0050e+01	2.0110	36.540116	0.000912	9.120603	1.545072	0.000183
 103	1.0149e+01	2.0312	36.697564	0.000790	7.904522	1.339062	0.000158
 104	1.0248e+01	2.0518	36.846938	0.000750	7.499162	1.270392	0.000150
 105	1.0348e+01	2.0718	37.040720	0.000973	9.728643	1.648077	0.000195
 106	1.0447e+01	2.0913	37.210280	0.000851	8.512563	1.442067	0.000170
 107	1.0547e+01	2.1119	37.367728	0.000790	7.904522	1.339062	0.000158
 108	1.0646e+01	2.1315	37.545362	0.000892	8.917923	1.510737	0.000179
 109	1.0746e+01	2.1514	37.743182	0.000993	9.931323	1.682412	0.000199
 110	1.0845e+01	2.1716	37.892556	0.000750	7.499162	1.270392	0.000150
 111	1.0945e+01	2.1904	38.045967	0.000770	7.701842	1.304727	0.000154
 112	1.1044e+01	2.2108	38.219564	0.000872	8.715243	1.476402	0.000174
 113	1.1144e+01	2.2308	38.393161	0.000872	8.715243	1.476402	0.000174
 114	1.1243e+01	2.2512	38.546572	0.000770	7.701842	1.304727	0.000154
 115	1.1343e+01	2.2700	38.708057	0.000811	8.107203	1.373397	0.000162
 116	1.1443e+01	2.2900	38.917989	0.001054	10.539363	1.785416	0.000211
 117	1.1542e+01	2.3107	39.026991	0.000547	5.472362	0.927043	0.000110
 118	1.1642e+01	2.3299	39.208662	0.000912	9.120603	1.545072	0.000183
 119	1.1741e+01	2.3512	39.390333	0.000912	9.120603	1.545072	0.000183
 120	1.1841e+01	2.3704	39.547782	0.000790	7.904522	1.339062	0.000158
 121	1.1940e+01	2.3868	39.733490	0.000932	9.323283	1.579407	0.000187
 122	1.2040e+01	2.4101	39.907087	0.000872	8.715243	1.476402	0.000174
 123	1.2139e+01	2.4303	40.016089	0.000547	5.472362	0.927043	0.000110
 124	1.2239e+01	2.4506	40.185649	0.000851	8.512563	1.442067	0.000170
 125	1.2338e+01	2.4693	40.355209	0.000851	8.512563	1.442067	0.000170
 126	1.2438e+01	2.4902	40.557066	0.001013	10.134003	1.716747	0.000203
 127	1.2537e+01	2.5103	40.674143	0.000588	5.877722	0.995713	0.000118
 128	1.2636e+01	2.5292	40.900222	0.001135	11.350084	1.922756	0.000227
 129	1.2736e+01	2.5500	41.061708	0.000811	8.107203	1.373397	0.000162
 130	1.2835e+01	2.5698	41.215119	0.000770	7.701842	1.304727	0.000154
 131	1.2935e+01	2.5896	41.336233	0.000608	6.080402	1.030048	0.000122
 132	1.3034e+01	2.6090	41.538090	0.001013	10.134003	1.716747	0.000203
 133	1.3134e+01	2.6286	41.651129	0.000568	5.675042	0.961378	0.000114
 134	1.3233e+01	2.6488	41.816652	0.000831	8.309883	1.407732	0.000166
 135	1.3333e+01	2.6685	42.046769	0.001155	11.552764	1.957091	0.000231
 136	1.3432e+01	2.6889	42.208254	0.000811	8.107203	1.373397	0.000162
 137	1.3532e+01	2.7090	42.357628	0.000750	7.499162	1.270392	0.000150
 138	1.3632e+01	2.7280	42.502965	0.000730	7.296482	1.236058	0.000146
 139	1.3731e+01	2.7478	42.712896	0.001054	10.539363	1.785416	0.000211
 140	1.3831e+01	2.7676	42.838047	0.000628	6.283082	1.064383	0.000126
 141	1.3930e+01	2.7886	43.023756	0.000932	9.323283	1.579407	0.000187
 142	1.4030e+01	2.8077	43.189278	0.000831	8.309883	1.407732	0.000166
 143	1.4129e+01	2.8279	43.318466	0.000649	6.485762	1.098718	0.000130
 144	1.4229e+01	2.8490	43.496100	0.000892	8.917923	1.510737	0.000179
 145	1.4328e+01	2.8682	43.681809	0.000932	9.323283	1.579407	0.000187
 146	1.4428e+01	2.8881	43.851368	0.000851	8.512563	1.442067	0.000170
 147	1.4527e+01	2.9082	43.992668	0.000709	7.093802	1.201723	0.000142
 148	1.4627e+01	2.9279	44.121856	0.000649	6.485762	1.098718	0.000130
 149	1.4726e+01	2.9479	44.331788	0.001054	10.539363	1.785416	0.000211
 150	1.4825e+01	2.9678	44.505384	0.000872	8.715243	1.476402	0.000174
 151	1.4925e+01	2.9873	44.650721	0.000730	7.296482	1.236058	0.000146
 152	1.5024e+01	3.0078	44.828355	0.000892	8.917923	1.510737	0.000179
 153	1.5124e+01	3.0277	44.981766	0.000770	7.701842	1.304727	0.000154
 154	1.5223e+01	3.0480	45.139215	0.000790	7.904522	1.339062	0.000158
 155	1.5323e+01	3.0687	45.300700	0.000811	8.107203	1.373397	0.000162
 156	1.5422e+01	3.0883	45.458148	0.000790	7.904522	1.339062	0.000158
 157	1.5522e+01	3.1074	45.647894	0.000953	9.525963	1.613742	0.000191
 158	1.5621e+01	3.1268	45.793231	0.000730	7.296482	1.236058	0.000146
 159	1.5721e+01	3.1474	45.982976	0.000953	9.525963	1.613742	0.000191
 160	1.5820e+01	3.1673	46.156573	0.000872	8.715243	1.476402	0.000174
 161	1.5920e+01	3.1867	46.309984	0.000770	7.701842	1.304727	0.000154
 162	1.6020e+01	3.2075	46.443210	0.000669	6.688442	1.133053	0.000134
 163	1.6119e+01	3.2275	46.592584	0.000750	7.499162	1.270392	0.000150
 164	1.6218e+01	3.2468	46.790403	0.000993	9.931323	1.682412	0.000199
 165	1.6318e+01	3.2658	46.951889	0.000811	8.107203	1.373397	0.000162
 166	1.6418e+01	3.2864	47.125485	0.000872	8.715243	1.476402	0.000174
 167	1.6517e+01	3.3069	47.278897	0.000770	7.701842	1.304727	0.000154
 168	1.6616e+01	3.3256	47.444419	0.000831	8.309883	1.407732	0.000166
 169	1.6716e+01	3.3463	47.618016	0.000872	8.715243	1.476402	0.000174
 170	1.6816e+01	3.3663	47.779501	0.000811	8.107203	1.373397	0.000162
 171	1.6915e+01	3.3871	47.940987	0.000811	8.107203	1.373397	0.000162
 172	1.7015e+01	3.4064	48.074212	0.000669	6.688442	1.133053	0.000134
 173	1.7114e+01	3.4264	48.247809	0.000872	8.715243	1.476402	0.000174
 174	1.7213e+01	3.4463	48.433517	0.000932	9.323283	1.579407	0.000187
 175	1.7313e+01	3.4653	48.590966	0.000790	7.904522	1.339062	0.000158
 176	1.7413e+01	3.4861	48.748414	0.000790	7.904522	1.339062	0.000158
 177	1.7512e+01	3.5047	48.917974	0.000851	8.512563	1.442067	0.000170
 178	1.7611e+01	3.5265	49.047162	0.000649	6.485762	1.098718	0.000130
 179	1.7711e+01	3.5463	49.224796	0.000892	8.917923	1.510737	0.000179
 180	1.7811e+01	3.5646	49.362059	0.000689	6.891122	1.167388	0.000138
 181	1.7910e+01	3.5857	49.539693	0.000892	8.917923	1.510737	0.000179
 182	1.8009e+01	3.6056	49.709252	0.000851	8.512563	1.442067	0.000170
 183	1.8109e+01	3.6254	49.862664	0.000770	7.701842	1.304727	0.000154
 184	1.8209e+01	3.6449	49.999926	0.000689	6.891122	1.167388	0.000138
 185	1.8308e+01	3.6655	50.153337	0.000770	7.701842	1.304727	0.000154
 186	1.8407e+01	3.6852	50.302711	0.000750	7.499162	1.270392	0.000150
 187	1.8507e+01	3.7041	50.468234	0.000831	8.309883	1.407732	0.000166
 188	1.8607e+01	3.7251	50.641831	0.000872	8.715243	1.476402	0.000174
 189	1.8706e+01	3.7452	50.771019	0.000649	6.485762	1.098718	0.000130
 190	1.8805e+01	3.7657	50.956727	0.000932	9.323283	1.579407	0.000187
 191	1.8905e+01	3.7839	51.093990	0.000689	6.891122	1.167388	0.000138
 192	1.9005e+01	3.8041	51.263550	0.000851	8.512563	1.442067	0.000170
 193	1.9104e+01	3.8248	51.429072	0.000831	8.309883	1.407732	0.000166
 194	1.9203e+01	3.8445	51.542112	0.000568	5.675042	0.961378	0.000114
 195	1.9303e+01	3.8638	51.735894	0.000973	9.728643	1.648077	0.000195
 196	1.9402e+01	3.8840	51.844897	0.000547	5.472362	0.927043	0.000110
 197	1.9502e+01	3.9045	52.054828	0.001054	10.539363	1.785416	0.000211
 198	1.9602e+01	3.9244	52.200165	0.000730	7.296482	1.236058	0.000146
 199	1.9701e+01	3.9433	52.345502	0.000730	7.296482	1.236058	0.000146
 200	1.9800e+01	3.9645	52.494876	0.000750	7.499162	1.270392	0.000150
 201	1.9900e+01	3.9834	52.624064	0.000649	6.485762	1.098718	0.000130
 202	2.0000e+01	4.0028	52.801698	0.000892	8.917923	1.510737	0.000179
 203	2.0099e+01	4.0240	52.926850	0.000628	6.283082	1.064383	0.000126
 204	2.0198e+01	4.0432	53.084298	0.000790	7.904522	1.339062	0.000158
 205	2.0298e+01	4.0633	53.257895	0.000872	8.715243	1.476402	0.000174
 206	2.0398e+01	4.0833	53.407269	0.000750	7.499162	1.270392	0.000150
 207	2.0497e+01	4.1032	53.597014	0.000953	9.525963	1.613742	0.000191
 208	2.0596e+01	4.1235	53.730240	0.000669	6.688442	1.133053	0.000134
 209	2.0696e+01	4.1428	53.859428	0.000649	6.485762	1.098718	0.000130
 210	2.0796e+01	4.1627	54.033025	0.000872	8.715243	1.476402	0.000174
 211	2.0895e+01	4.1830	54.166250	0.000669	6.688442	1.133053	0.000134
 212	2.0994e+01	4.2039	54.315624	0.000750	7.499162	1.270392	0.000150
 213	2.1094e+01	4.2234	54.473073	0.000790	7.904522	1.339062	0.000158
 214	2.1194e+01	4.2431	54.622447	0.000750	7.499162	1.270392	0.000150
 215	2.1293e+01	4.2643	54.812192	0.000953	9.525963	1.613742	0.000191
 216	2.1392e+01	4.2820	54.941380	0.000649	6.485762	1.098718	0.000130
 217	2.1492e+01	4.3037	55.090754	0.000750	7.499162	1.270392	0.000150
 218	2.1591e+01	4.3220	55.268388	0.000892	8.917923	1.510737	0.000179
 219	2.1691e+01	4.3423	55.389502	0.000608	6.080402	1.030048	0.000122
 220	2.1791e+01	4.3627	55.555025	0.000831	8.309883	1.407732	0.000166
 221	2.1890e+01	4.3822	55.676139	0.000608	6.080402	1.030048	0.000122
 222	2.1989e+01	4.4025	55.817439	0.000709	7.093802	1.201723	0.000142
 223	2.2089e+01	4.4219	56.003147	0.000932	9.323283	1.579407	0.000187
 224	2.2189e+01	4.4416	56.120224	0.000588	5.877722	0.995713	0.000118
 225	2.2288e+01	4.4622	56.285746	0.000831	8.309883	1.407732	0.000166
 226	2.2387e+01	4.4820	56.414935	0.000649	6.485762	1.098718	0.000130
 227	2.2487e+01	4.5018	56.556235	0.000709	7.093802	1.201723	0.000142
 228	2.2587e+01	4.5220	56.713683	0.000790	7.904522	1.339062	0.000158
 229	2.2686e+01	4.5415	56.899391	0.000932	9.323283	1.579407	0.000187
 230	2.2785e+01	4.5615	56.996282	0.000486	4.864322	0.824038	0.000097
 231	2.2885e+01	4.5827	57.181991	0.000932	9.323283	1.579407	0.000187
 232	2.2985e+01	4.6020	57.319253	0.000689	6.891122	1.167388	0.000138
 233	2.3084e+01	4.6214	57.472664	0.000770	7.701842	1.304727	0.000154
 234	2.3183e+01	4.6410	57.597816	0.000628	6.283082	1.064383	0.000126
 235	2.3283e+01	4.6618	57.718930	0.000608	6.080402	1.030048	0.000122
 236	2.3383e+01	4.6813	57.888489	0.000851	8.512563	1.442067	0.000170
 237	2.3482e+01	4.7008	57.993455	0.000527	5.269682	0.892708	0.000105
 238	2.3581e+01	4.7218	58.203386	0.001054	10.539363	1.785416	0.000211
 239	2.3681e+01	4.7408	58.320463	0.000588	5.877722	0.995713	0.000118
 240	2.3780e+01	4.7610	58.425428	0.000527	5.269682	0.892708	0.000105
 241	2.3880e+01	4.7808	58.603062	0.000892	8.917923	1.510737	0.000179
 242	2.3980e+01	4.8003	58.740325	0.000689	6.891122	1.167388	0.000138
 243	2.4079e+01	4.8212	58.873550	0.000669	6.688442	1.133053	0.000134
 244	2.4178e+01	4.8408	59.039073	0.000831	8.309883	1.407732	0.000166
 245	2.4278e+01	4.8609	59.152113	0.000568	5.675042	0.961378	0.000114
 246	2.4378e+01	4.8812	59.293413	0.000709	7.093802	1.201723	0.000142
 247	2.4477e+01	4.9007	59.418564	0.000628	6.283082	1.064383	0.000126
 248	2.4576e+01	4.9201	59.559864	0.000709	7.093802	1.201723	0.000142
 249	2.4676e+01	4.9410	59.697126	0.000689	6.891122	1.167388	0.000138
 250	2.4776e+01	4.9606	59.846500	0.000750	7.499162	1.270392	0.000150
 251	2.4875e+01	4.9800	59.967614	0.000608	6.080402	1.030048	0.000122
 252	2.4974e+01	4.9999	60.133137	0.000831	8.309883	1.407732	0.000166
 253	2.5074e+01	5.0201	60.306734	0.000872	8.715243	1.476402	0.000174
 254	2.5174e+01	5.0405	60.407662	0.000507	5.067002	0.858373	0.000101
 255	2.5273e+01	5.0603	60.552999	0.000730	7.296482	1.236058	0.000146
 256	2.5372e+01	5.0793	60.678150	0.000628	6.283082	1.064383	0.000126
 257	2.5472e+01	5.0999	60.803301	0.000628	6.283082	1.064383	0.000126
 258	2.5572e+01	5.1186	60.972861	0.000851	8.512563	1.442067	0.000170
 259	2.5671e+01	5.1388	61.093975	0.000608	6.080402	1.030048	0.000122
 260	2.5770e+01	5.1588	61.231238	0.000689	6.891122	1.167388	0.000138
 261	2.5870e+01	5.1789	61.396760	0.000831	8.309883	1.407732	0.000166
 262	2.5970e+01	5.1994	61.489614	0.000466	4.661641	0.789703	0.000093
 263	2.6069e+01	5.2181	61.679360	0.000953	9.525963	1.613742	0.000191
 264	2.6169e+01	5.2386	61.780288	0.000507	5.067002	0.858373	0.000101
 265	2.6268e+01	5.2592	61.937736	0.000790	7.904522	1.339062	0.000158
 266	2.6367e+01	5.2781	62.058851	0.000608	6.080402	1.030048	0.000122
 267	2.6467e+01	5.2985	62.196113	0.000689	6.891122	1.167388	0.000138
 268	2.6567e+01	5.3184	62.325302	0.000649	6.485762	1.098718	0.000130
 269	2.6666e+01	5.3397	62.450453	0.000628	6.283082	1.064383	0.000126
 270	2.6765e+01	5.3582	62.615975	0.000831	8.309883	1.407732	0.000166
 271	2.6865e+01	5.3768	62.749201	0.000669	6.688442	1.133053	0.000134
 272	2.6965e+01	5.3979	62.878389	0.000649	6.485762	1.098718	0.000130
 273	2.7064e+01	5.4174	62.999503	0.000608	6.080402	1.030048	0.000122
 274	2.7163e+01	5.4385	63.169063	0.000851	8.512563	1.442067	0.000170
 275	2.7263e+01	5.4589	63.302288	0.000669	6.688442	1.133053	0.000134
 276	2.7363e+01	5.4778	63.447625	0.000730	7.296482	1.236058	0.000146
 277	2.7462e+01	5.4980	63.572776	0.000628	6.283082	1.064383	0.000126
 278	2.7561e+01	5.5202	63.661593	0.000446	4.458961	0.755369	0.000089
 279	2.7661e+01	5.5376	63.823079	0.000811	8.107203	1.373397	0.000162
 280	2.7761e+01	5.5566	63.972453	0.000750	7.499162	1.270392	0.000150
 281	2.7860e+01	5.5776	64.109716	0.000689	6.891122	1.167388	0.000138
 282	2.7959e+01	5.5975	64.234867	0.000628	6.283082	1.064383	0.000126
 283	2.8059e+01	5.6179	64.396352	0.000811	8.107203	1.373397	0.000162
 284	2.8159e+01	5.6374	64.557838	0.000811	8.107203	1.373397	0.000162
 285	2.8258e+01	5.6573	64.610320	0.000263	2.634841	0.446354	0.000053
 286	2.8358e+01	5.6773	64.791991	0.000912	9.120603	1.545072	0.000183
 287	2.8457e+01	5.6973	64.909068	0.000588	5.877722	0.995713	0.000118
 288	2.8556e+01	5.7165	65.054405	0.000730	7.296482	1.236058	0.000146
 289	2.8656e+01	5.7375	65.187631	0.000669	6.688442	1.133053	0.000134
 290	2.8756e+01	5.7561	65.316819	0.000649	6.485762	1.098718	0.000130
 291	2.8855e+01	5.7767	65.433896	0.000588	5.877722	0.995713	0.000118
 292	2.8954e+01	5.7968	65.563084	0.000649	6.485762	1.098718	0.000130
 293	2.9054e+01	5.8166	65.704384	0.000709	7.093802	1.201723	0.000142
 294	2.9154e+01	5.8360	65.833572	0.000649	6.485762	1.098718	0.000130
 295	2.9253e+01	5.8570	65.954687	0.000608	6.080402	1.030048	0.000122
 296	2.9352e+01	5.8755	66.100023	0.000730	7.296482	1.236058	0.000146
 297	2.9452e+01	5.8964	66.213063	0.000568	5.675042	0.961378	0.000114
 298	2.9552e+01	5.9167	66.362437	0.000750	7.499162	1.270392	0.000150
 299	2.9651e+01	5.9362	66.495663	0.000669	6.688442	1.133053	0.000134
 300	2.9750e+01	5.9566	66.636962	0.000709	7.093802	1.201723	0.000142
 301	2.9850e+01	5.9765	66.766151	0.000649	6.485762	1.098718	0.000130
 302	2.9950e+01	5.9962	66.879191	0.000568	5.675042	0.961378	0.000114
 303	3.0049e+01	6.0162	67.024528	0.000730	7.296482	1.236058	0.000146
 304	3.0148e+01	6.0361	67.165827	0.000709	7.093802	1.201723	0.000142
 305	3.0248e+01	6.0552	67.282904	0.000588	5.877722	0.995713	0.000118
 306	3.0348e+01	6.0759	67.436315	0.000770	7.701842	1.304727	0.000154
 307	3.0447e+01	6.0961	67.557429	0.000608	6.080402	1.030048	0.000122
 308	3.0547e+01	6.1150	67.670469	0.000568	5.675042	0.961378	0.000114
 309	3.0646e+01	6.1355	67.791583	0.000608	6.080402	1.030048	0.000122
 310	3.0745e+01	6.1553	67.908660	0.000588	5.877722	0.995713	0.000118
 311	3.0845e+01	6.1753	68.053997	0.000730	7.296482	1.236058	0.000146
 312	3.0945e+01	6.1951	68.235668	0.000912	9.120603	1.545072	0.000183
 313	3.1044e+01	6.2151	68.336597	0.000507	5.067002	0.858373	0.000101
 314	3.1143e+01	6.2347	68.453674	0.000588	5.877722	0.995713	0.000118
 315	3.1243e+01	6.2557	68.627270	0.000872	8.715243	1.476402	0.000174
 316	3.1343e+01	6.2753	68.712050	0.000426	4.256281	0.721034	0.000085
 317	3.1442e+01	6.2960	68.873536	0.000811	8.107203	1.373397	0.000162
 318	3.1541e+01	6.3134	68.942167	0.000345	3.445561	0.583694	0.000069
 319	3.1641e+01	6.3335	69.111727	0.000851	8.512563	1.442067	0.000170
 320	3.1741e+01	6.3537	69.248989	0.000689	6.891122	1.167388	0.000138
 321	3.1840e+01	6.3744	69.345881	0.000486	4.864322	0.824038	0.000097
 322	3.1939e+01	6.3937	69.551774	0.001034	10.336683	1.751082	0.000207
 323	3.2039e+01	6.4135	69.640591	0.000446	4.458961	0.755369	0.000089
 324	3.2139e+01	6.4341	69.789966	0.000750	7.499162	1.270392	0.000150
 325	3.2238e+01	6.4535	69.919154	0.000649	6.485762	1.098718	0.000130
 326	3.2337e+01	6.4731	70.012008	0.000466	4.661641	0.789703	0.000093
 327	3.2437e+01	6.4941	70.141196	0.000649	6.485762	1.098718	0.000130
 328	3.2536e+01	6.5133	70.302682	0.000811	8.107203	1.373397	0.000162
 329	3.2636e+01	6.5332	70.415722	0.000568	5.675042	0.961378	0.000114
 330	3.2736e+01	6.5524	70.569133	0.000770	7.701842	1.304727	0.000154
 331	3.2835e+01	6.5728	70.686210	0.000588	5.877722	0.995713	0.000118
 332	3.2934e+01	6.5939	70.847695	0.000811	8.107203	1.373397	0.000162
 333	3.3034e+01	6.6132	70.964772	0.000588	5.877722	0.995713	0.000118
 334	3.3133e+01	6.6331	71.049552	0.000426	4.256281	0.721034	0.000085
 335	3.3233e+01	6.6528	71.215074	0.000831	8.309883	1.407732	0.000166
 336	3.3333e+01	6.6723	71.336188	0.000608	6.080402	1.030048	0.000122
 337	3.3432e+01	6.6930	71.477488	0.000709	7.093802	1.201723	0.000142
 338	3.3532e+01	6.7126	71.590528	0.000568	5.675042	0.961378	0.000114
 339	3.3631e+01	6.7334	71.752013	0.000811	8.107203	1.373397	0.000162
 340	3.3730e+01	6.7521	71.877165	0.000628	6.283082	1.064383	0.000126
 341	3.3830e+01	6.7722	71.986167	0.000547	5.472362	0.927043	0.000110
 342	3.3929e+01	6.7928	72.091133	0.000527	5.269682	0.892708	0.000105
 343	3.4029e+01	6.8133	72.232433	0.000709	7.093802	1.201723	0.000142
 344	3.4129e+01	6.8322	72.365658	0.000669	6.688442	1.133053	0.000134
 345	3.4228e+01	6.8523	72.478698	0.000568	5.675042	0.961378	0.000114
 346	3.4328e+01	6.8723	72.619998	0.000709	7.093802	1.201723	0.000142
 347	3.4427e+01	6.8919	72.785520	0.000831	8.309883	1.407732	0.000166
 348	3.4526e+01	6.9123	72.854152	0.000345	3.445561	0.583694	0.000069
 349	3.4626e+01	6.9320	73.003526	0.000750	7.499162	1.270392	0.000150
 350	3.4725e+01	6.9508	73.136751	0.000669	6.688442	1.133053	0.000134
 351	3.4825e+01	6.9717	73.221531	0.000426	4.256281	0.721034	0.000085
 352	3.4925e+01	6.9915	73.383016	0.000811	8.107203	1.373397	0.000162
 353	3.5024e+01	7.0115	73.487982	0.000527	5.269682	0.892708	0.000105
 354	3.5123e+01	7.0306	73.661579	0.000872	8.715243	1.476402	0.000174
 355	3.5223e+01	7.0518	73.750396	0.000446	4.458961	0.755369	0.000089
 356	3.5322e+01	7.0715	73.879584	0.000649	6.485762	1.098718	0.000130
 357	3.5422e+01	7.0916	74.000698	0.000608	6.080402	1.030048	0.000122
 358	3.5522e+01	7.1107	74.117775	0.000588	5.877722	0.995713	0.000118
 359	3.5621e+01	7.1308	74.242926	0.000628	6.283082	1.064383	0.000126
 360	3.5721e+01	7.1517	74.384226	0.000709	7.093802	1.201723	0.000142
 361	3.5820e+01	7.1699	74.505340	0.000608	6.080402	1.030048	0.000122
 362	3.5919e+01	7.1908	74.610306	0.000527	5.269682	0.892708	0.000105
 363	3.6019e+01	7.2102	74.743531	0.000669	6.688442	1.133053	0.000134
 364	3.6118e+01	7.2295	74.884831	0.000709	7.093802	1.201723	0.000142
 365	3.6218e+01	7.2505	75.026131	0.000709	7.093802	1.201723	0.000142
 366	3.6318e+01	7.2700	75.118985	0.000466	4.661641	0.789703	0.000093
 367	3.6417e+01	7.2909	75.227987	0.000547	5.472362	0.927043	0.000110
 368	3.6517e+01	7.3097	75.373324	0.000730	7.296482	1.236058	0.000146
 369	3.6616e+01	7.3315	75.506550	0.000669	6.688442	1.133053	0.000134
 370	3.6715e+01	7.3508	75.619590	0.000568	5.675042	0.961378	0.000114
 371	3.6815e+01	7.3699	75.764926	0.000730	7.296482	1.236058	0.000146
 372	3.6914e+01	7.3907	75.845669	0.000405	4.053601	0.686699	0.000081
 373	3.7014e+01	7.4105	75.986969	0.000709	7.093802	1.201723	0.000142
 374	3.7114e+01	7.4299	76.083860	0.000486	4.864322	0.824038	0.000097
 375	3.7213e+01	7.4500	76.265531	0.000912	9.120603	1.545072	0.000183
 376	3.7313e+01	7.4693	76.338200	0.000365	3.648241	0.618029	0.000073
 377	3.7412e+01	7.4902	76.483537	0.000730	7.296482	1.236058	0.000146
 378	3.7511e+01	7.5089	76.608688	0.000628	6.283082	1.064383	0.000126
 379	3.7611e+01	7.5300	76.729802	0.000608	6.080402	1.030048	0.000122
 380	3.7711e+01	7.5495	76.834767	0.000527	5.269682	0.892708	0.000105
 381	3.7810e+01	7.5692	76.976067	0.000709	7.093802	1.201723	0.000142
 382	3.7910e+01	7.5896	77.097181	0.000608	6.080402	1.030048	0.000122
 383	3.8009e+01	7.6098	77.181961	0.000426	4.256281	0.721034	0.000085
 384	3.8108e+01	7.6289	77.331335	0.000750	7.499162	1.270392	0.000150
 385	3.8208e+01	7.6504	77.436301	0.000527	5.269682	0.892708	0.000105
 386	3.8307e+01	7.6690	77.573563	0.000689	6.891122	1.167388	0.000138
 387	3.8407e+01	7.6884	77.714863	0.000709	7.093802	1.201723	0.000142
 388	3.8507e+01	7.7087	77.819828	0.000527	5.269682	0.892708	0.000105
 389	3.8606e+01	7.7287	77.928831	0.000547	5.472362	0.927043	0.000110
 390	3.8706e+01	7.7487	78.082242	0.000770	7.701842	1.304727	0.000154
 391	3.8805e+01	7.7692	78.179134	0.000486	4.864322	0.824038	0.000097
 392	3.8904e+01	7.7885	78.280062	0.000507	5.067002	0.858373	0.000101
 393	3.9004e+01	7.8080	78.405213	0.000628	6.283082	1.064383	0.000126
 394	3.9103e+01	7.8286	78.526327	0.000608	6.080402	1.030048	0.000122
 395	3.9203e+01	7.8472	78.655516	0.000649	6.485762	1.098718	0.000130
 396	3.9303e+01	7.8676	78.780667	0.000628	6.283082	1.064383	0.000126
 397	3.9402e+01	7.8873	78.881595	0.000507	5.067002	0.858373	0.000101
 398	3.9502e+01	7.9057	79.030969	0.000750	7.499162	1.270392	0.000150
 399	3.9601e+01	7.9284	79.127860	0.000486	4.864322	0.824038	0.000097
 400	3.9700e+01	7.9476	79.244937	0.000588	5.877722	0.995713	0.000118
 401	3.9800e+01	7.9681	79.366051	0.000608	6.080402	1.030048	0.000122
 402	3.9900e+01	7.9879	79.507351	0.000709	7.093802	1.201723	0.000142
 403	3.9999e+01	8.0080	79.616354	0.000547	5.472362	0.927043	0.000110
 404	4.0099e+01	8.0257	79.709208	0.000466	4.661641	0.789703	0.000093
 405	4.0198e+01	8.0476	79.818211	0.000547	5.472362	0.927043	0.000110
 406	4.0297e+01	8.0674	79.963548	0.000730	7.296482	1.236058	0.000146
 407	4.0397e+01	8.0872	80.084662	0.000608	6.080402	1.030048	0.000122
 408	4.0496e+01	8.1071	80.201739	0.000588	5.877722	0.995713	0.000118
 409	4.0596e+01	8.1263	80.310741	0.000547	5.472362	0.927043	0.000110
 410	4.0696e+01	8.1469	80.411670	0.000507	5.067002	0.858373	0.000101
 411	4.0795e+01	8.1676	80.516635	0.000527	5.269682	0.892708	0.000105
 412	4.0895e+01	8.1868	80.637749	0.000608	6.080402	1.030048	0.000122
 413	4.0994e+01	8.2063	80.779049	0.000709	7.093802	1.201723	0.000142
 414	4.1093e+01	8.2259	80.875940	0.000486	4.864322	0.824038	0.000097
 415	4.1193e+01	8.2455	80.968794	0.000466	4.661641	0.789703	0.000093
 416	4.1292e+01	8.2655	81.138354	0.000851	8.512563	1.442067	0.000170
 417	4.1392e+01	8.2867	81.202948	0.000324	3.242881	0.549359	0.000065
 418	4.1492e+01	8.3068	81.336174	0.000669	6.688442	1.133053	0.000134
 419	4.1591e+01	8.3265	81.429028	0.000466	4.661641	0.789703	0.000093
 420	4.1691e+01	8.3457	81.582439	0.000770	7.701842	1.304727	0.000154
 421	4.1790e+01	8.3658	81.683367	0.000507	5.067002	0.858373	0.000101
 422	4.1889e+01	8.3862	81.812556	0.000649	6.485762	1.098718	0.000130
 423	4.1989e+01	8.4061	81.933670	0.000608	6.080402	1.030048	0.000122
 424	4.2089e+01	8.4222	82.030561	0.000486	4.864322	0.824038	0.000097
 425	4.2188e+01	8.4454	82.147638	0.000588	5.877722	0.995713	0.000118
 426	4.2288e+01	8.4655	82.260678	0.000568	5.675042	0.961378	0.000114
 427	4.2387e+01	8.4851	82.357569	0.000486	4.864322	0.824038	0.000097
 428	4.2486e+01	8.5050	82.502906	0.000730	7.296482	1.236058	0.000146
 429	4.2586e+01	8.5260	82.619983	0.000588	5.877722	0.995713	0.000118
 430	4.2685e+01	8.5452	82.720911	0.000507	5.067002	0.858373	0.000101
 431	4.2785e+01	8.5651	82.842025	0.000608	6.080402	1.030048	0.000122
 432	4.2885e+01	8.5846	82.963139	0.000608	6.080402	1.030048	0.000122
 433	4.2984e+01	8.6047	83.060031	0.000486	4.864322	0.824038	0.000097
 434	4.3084e+01	8.6256	83.217479	0.000790	7.904522	1.339062	0.000158
 435	4.3183e+01	8.6457	83.306296	0.000446	4.458961	0.755369	0.000089
 436	4.3282e+01	8.6642	83.451633	0.000730	7.296482	1.236058	0.000146
 437	4.3382e+01	8.6846	83.524301	0.000365	3.648241	0.618029	0.000073
 438	4.3481e+01	8.7039	83.673675	0.000750	7.499162	1.270392	0.000150
 439	4.3581e+01	8.7238	83.794789	0.000608	6.080402	1.030048	0.000122
 440	4.3681e+01	8.7441	83.895718	0.000507	5.067002	0.858373	0.000101
 441	4.3780e+01	8.7643	83.996646	0.000507	5.067002	0.858373	0.000101
 442	4.3880e+01	8.7844	84.125835	0.000649	6.485762	1.098718	0.000130
 443	4.3979e+01	8.8064	84.226763	0.000507	5.067002	0.858373	0.000101
 444	4.4078e+01	8.8251	84.351914	0.000628	6.283082	1.064383	0.000126
 445	4.4178e+01	8.8439	84.485140	0.000669	6.688442	1.133053	0.000134
 446	4.4278e+01	8.8641	84.602217	0.000588	5.877722	0.995713	0.000118
 447	4.4377e+01	8.8831	84.695071	0.000466	4.661641	0.789703	0.000093
 448	4.4477e+01	8.9034	84.840408	0.000730	7.296482	1.236058	0.000146
 449	4.4576e+01	8.9240	84.937299	0.000486	4.864322	0.824038	0.000097
 450	4.4675e+01	8.9436	85.070524	0.000669	6.688442	1.133053	0.000134
 451	4.4775e+01	8.9628	85.183564	0.000568	5.675042	0.961378	0.000114
 452	4.4874e+01	8.9832	85.276418	0.000466	4.661641	0.789703	0.000093
 453	4.4974e+01	9.0034	85.405607	0.000649	6.485762	1.098718	0.000130
 454	4.5074e+01	9.0223	85.514609	0.000547	5.472362	0.927043	0.000110
 455	4.5173e+01	9.0430	85.635723	0.000608	6.080402	1.030048	0.000122
 456	4.5273e+01	9.0626	85.752800	0.000588	5.877722	0.995713	0.000118
 457	4.5372e+01	9.0829	85.849691	0.000486	4.864322	0.824038	0.000097
 458	4.5471e+01	9.1018	85.990991	0.000709	7.093802	1.201723	0.000142
 459	4.5571e+01	9.1219	86.095957	0.000527	5.269682	0.892708	0.000105
 460	4.5670e+01	9.1422	86.229182	0.000669	6.688442	1.133053	0.000134
 461	4.5770e+01	9.1623	86.346259	0.000588	5.877722	0.995713	0.000118
 462	4.5870e+01	9.1822	86.463336	0.000588	5.877722	0.995713	0.000118
 463	4.5969e+01	9.2023	86.556190	0.000466	4.661641	0.789703	0.000093
 464	4.6069e+01	9.2219	86.705564	0.000750	7.499162	1.270392	0.000150
 465	4.6168e+01	9.2425	86.814567	0.000547	5.472362	0.927043	0.000110
 466	4.6267e+01	9.2627	86.919532	0.000527	5.269682	0.892708	0.000105
 467	4.6367e+01	9.2823	87.044684	0.000628	6.283082	1.064383	0.000126
 468	4.6467e+01	9.3024	87.198095	0.000770	7.701842	1.304727	0.000154
 469	4.6566e+01	9.3214	87.274800	0.000385	3.850921	0.652364	0.000077
 470	4.6666e+01	9.3415	87.412063	0.000689	6.891122	1.167388	0.000138
 471	4.6765e+01	9.3604	87.508954	0.000486	4.864322	0.824038	0.000097
 472	4.6864e+01	9.3809	87.666403	0.000790	7.904522	1.339062	0.000158
 473	4.6964e+01	9.4015	87.787517	0.000608	6.080402	1.030048	0.000122
 474	4.7063e+01	9.4190	87.920742	0.000669	6.688442	1.133053	0.000134
 475	4.7163e+01	9.4416	88.058005	0.000689	6.891122	1.167388	0.000138
 476	4.7263e+01	9.4599	88.146822	0.000446	4.458961	0.755369	0.000089
 477	4.7362e+01	9.4804	88.292159	0.000730	7.296482	1.236058	0.000146
 478	4.7462e+01	9.5013	88.401161	0.000547	5.472362	0.927043	0.000110
 479	4.7561e+01	9.5202	88.514201	0.000568	5.675042	0.961378	0.000114
 480	4.7660e+01	9.5414	88.651464	0.000689	6.891122	1.167388	0.000138
 481	4.7760e+01	9.5605	88.768541	0.000588	5.877722	0.995713	0.000118
 482	4.7859e+01	9.5806	88.889655	0.000608	6.080402	1.030048	0.000122
 483	4.7959e+01	9.5996	89.010769	0.000608	6.080402	1.030048	0.000122
 484	4.8059e+01	9.6195	89.131883	0.000608	6.080402	1.030048	0.000122
 485	4.8158e+01	9.6397	89.269145	0.000689	6.891122	1.167388	0.000138
 486	4.8258e+01	9.6590	89.382185	0.000568	5.675042	0.961378	0.000114
 487	4.8357e+01	9.6807	89.531559	0.000750	7.499162	1.270392	0.000150
 488	4.8456e+01	9.6999	89.652673	0.000608	6.080402	1.030048	0.000122
 489	4.8556e+01	9.7197	89.798010	0.000730	7.296482	1.236058	0.000146
 490	4.8656e+01	9.7396	89.927199	0.000649	6.485762	1.098718	0.000130
 491	4.8755e+01	9.7596	90.040238	0.000568	5.675042	0.961378	0.000114
 492	4.8855e+01	9.7793	90.225947	0.000932	9.323283	1.579407	0.000187
 493	4.8954e+01	9.7988	90.306689	0.000405	4.053601	0.686699	0.000081
 494	4.9053e+01	9.8193	90.468175	0.000811	8.107203	1.373397	0.000162
 495	4.9153e+01	9.8395	90.565066	0.000486	4.864322	0.824038	0.000097
 496	4.9252e+01	9.8592	90.682143	0.000588	5.877722	0.995713	0.000118
 497	4.9352e+01	9.8795	90.851703	0.000851	8.512563	1.442067	0.000170
 498	4.9452e+01	9.8988	90.972817	0.000608	6.080402	1.030048	0.000122
 499	4.9551e+01	9.9186	91.114116	0.000709	7.093802	1.201723	0.000142
 500	4.9651e+01	9.9372	91.247342	0.000669	6.688442	1.133053	0.000134
 501	4.9750e+01	9.9587	91.396716	0.000750	7.499162	1.270392	0.000150
 502	4.9849e+01	9.9795	91.489570	0.000466	4.661641	0.789703	0.000093
 503	4.9949e+01	9.9989	91.687390	0.000993	9.931323	1.682412	0.000199
 504	5.0048e+01	9.9795	91.618758	0.000345	3.445561	0.583694	-0.000069
 505	5.0148e+01	9.9593	91.582424	0.000182	1.824121	0.309014	-0.000037
 506	5.0248e+01	9.9392	91.566276	0.000081	0.810720	0.137340	-0.000016
 507	5.0347e+01	9.9184	91.505719	0.000304	3.040201	0.515024	-0.000061
 508	5.0447e+01	9.8986	91.449199	0.000284	2.837521	0.480689	-0.000057
 509	5.0546e+01	9.8785	91.408827	0.000203	2.026801	0.343349	-0.000041
 510	5.0645e+01	9.8591	91.368456	0.000203	2.026801	0.343349	-0.000041
 511	5.0745e+01	9.8395	91.356345	0.000061	0.608040	0.103005	-0.000012
 512	5.0844e+01	9.8193	91.275602	0.000405	4.053601	0.686699	-0.000081
 513	5.0944e+01	9.7998	91.219082	0.000284	2.837521	0.480689	-0.000057
 514	5.1044e+01	9.7790	91.186785	0.000162	1.621441	0.274679	-0.000032
 515	5.1143e+01	9.7595	91.146414	0.000203	2.026801	0.343349	-0.000041
 516	5.1242e+01	9.7391	91.069708	0.000385	3.850921	0.652364	-0.000077
 517	5.1342e+01	9.7195	91.041448	0.000142	1.418760	0.240345	-0.000028
 518	5.1441e+01	9.6991	90.997040	0.000223	2.229481	0.377684	-0.000045
 519	5.1541e+01	9.6795	90.936482	0.000304	3.040201	0.515024	-0.000061
 520	5.1641e+01	9.6595	90.888037	0.000243	2.432161	0.412019	-0.000049
 521	5.1740e+01	9.6404	90.827480	0.000304	3.040201	0.515024	-0.000061
 522	5.1840e+01	9.6207	90.762886	0.000324	3.242881	0.549359	-0.000065
 523	5.1939e+01	9.6011	90.722514	0.000203	2.026801	0.343349	-0.000041
 524	5.2038e+01	9.5807	90.698291	0.000122	1.216080	0.206010	-0.000024
 525	5.2138e+01	9.5605	90.621586	0.000385	3.850921	0.652364	-0.000077
 526	5.2237e+01	9.5400	90.556992	0.000324	3.242881	0.549359	-0.000065
 527	5.2337e+01	9.5215	90.524695	0.000162	1.621441	0.274679	-0.000032
 528	5.2437e+01	9.5020	90.411655	0.000568	5.675042	0.961378	-0.000114
 529	5.2536e+01	9.4802	90.371283	0.000203	2.026801	0.343349	-0.000041
 530	5.2636e+01	9.4611	90.310726	0.000304	3.040201	0.515024	-0.000061
 531	5.2735e+01	9.4412	90.274392	0.000182	1.824121	0.309014	-0.000037
 532	5.2834e+01	9.4216	90.213835	0.000304	3.040201	0.515024	-0.000061
 533	5.2934e+01	9.4009	90.129055	0.000426	4.256281	0.721034	-0.000085
 534	5.3033e+01	9.3812	90.068498	0.000304	3.040201	0.515024	-0.000061
 535	5.3133e+01	9.3616	90.003904	0.000324	3.242881	0.549359	-0.000065
 536	5.3233e+01	9.3409	89.991793	0.000061	0.608040	0.103005	-0.000012
 537	5.3332e+01	9.3221	89.878753	0.000568	5.675042	0.961378	-0.000114
 538	5.3431e+01	9.3023	89.826270	0.000263	2.634841	0.446354	-0.000053
 539	5.3531e+01	9.2823	89.769750	0.000284	2.837521	0.480689	-0.000057
 540	5.3630e+01	9.2616	89.745527	0.000122	1.216080	0.206010	-0.000024
 541	5.3730e+01	9.2426	89.684970	0.000304	3.040201	0.515024	-0.000061
 542	5.3830e+01	9.2222	89.584042	0.000507	5.067002	0.858373	-0.000101
 543	5.3929e+01	9.2019	89.523485	0.000304	3.040201	0.515024	-0.000061
 544	5.4029e+01	9.1819	89.446779	0.000385	3.850921	0.652364	-0.000077
 545	5.4128e+01	9.1624	89.382185	0.000324	3.242881	0.549359	-0.000065
 546	5.4227e+01	9.1422	89.321628	0.000304	3.040201	0.515024	-0.000061
 547	5.4327e+01	9.1218	89.248960	0.000365	3.648241	0.618029	-0.000073
 548	5.4426e+01	9.1025	89.172254	0.000385	3.850921	0.652364	-0.000077
 549	5.4526e+01	9.0823	89.107660	0.000324	3.242881	0.549359	-0.000065
 550	5.4626e+01	9.0626	89.022880	0.000426	4.256281	0.721034	-0.000085
 551	5.4725e+01	9.0414	88.954249	0.000345	3.445561	0.583694	-0.000069
 552	5.4825e+01	9.0231	88.881580	0.000365	3.648241	0.618029	-0.000073
 553	5.4924e+01	9.0026	88.812949	0.000345	3.445561	0.583694	-0.000069
 554	5.5023e+01	8.9828	88.772578	0.000203	2.026801	0.343349	-0.000041
 555	5.5123e+01	8.9627	88.675686	0.000486	4.864322	0.824038	-0.000097
 556	5.5222e+01	8.9428	88.607055	0.000345	3.445561	0.583694	-0.000069
 557	5.5322e+01	8.9228	88.526312	0.000405	4.053601	0.686699	-0.000081
 558	5.5422e+01	8.9028	88.469793	0.000284	2.837521	0.480689	-0.000057
 559	5.5521e+01	8.8835	88.405198	0.000324	3.242881	0.549359	-0.000065
 560	5.5620e+01	8.8625	88.316381	0.000446	4.458961	0.755369	-0.000089
 561	5.5720e+01	8.8441	88.247750	0.000345	3.445561	0.583694	-0.000069
 562	5.5819e+01	8.8248	88.187193	0.000304	3.040201	0.515024	-0.000061
 563	5.5919e+01	8.8038	88.074153	0.000568	5.675042	0.961378	-0.000114
 564	5.6019e+01	8.7842	88.009559	0.000324	3.242881	0.549359	-0.000065
 565	5.6118e+01	8.7640	87.924779	0.000426	4.256281	0.721034	-0.000085
 566	5.6218e+01	8.7441	87.856148	0.000345	3.445561	0.583694	-0.000069
 567	5.6317e+01	8.7242	87.787517	0.000345	3.445561	0.583694	-0.000069
 568	5.6416e+01	8.7052	87.730997	0.000284	2.837521	0.480689	-0.000057
 569	5.6516e+01	8.6854	87.609883	0.000608	6.080402	1.030048	-0.000122
 570	5.6615e+01	8.6646	87.541251	0.000345	3.445561	0.583694	-0.000069
 571	5.6715e+01	8.6440	87.444360	0.000486	4.864322	0.824038	-0.000097
 572	5.6815e+01	8.6256	87.375729	0.000345	3.445561	0.583694	-0.000069
 573	5.6914e+01	8.6049	87.303060	0.000365	3.648241	0.618029	-0.000073
 574	5.7014e+01	8.5849	87.230392	0.000365	3.648241	0.618029	-0.000073
 575	5.7113e+01	8.5674	87.129463	0.000507	5.067002	0.858373	-0.000101
 576	5.7212e+01	8.5456	87.072944	0.000284	2.837521	0.480689	-0.000057
 577	5.7312e+01	8.5262	86.943755	0.000649	6.485762	1.098718	-0.000130
 578	5.7411e+01	8.5059	86.895310	0.000243	2.432161	0.412019	-0.000049
 579	5.7511e+01	8.4857	86.798418	0.000486	4.864322	0.824038	-0.000097
 580	5.7611e+01	8.4653	86.717676	0.000405	4.053601	0.686699	-0.000081
 581	5.7710e+01	8.4447	86.628859	0.000446	4.458961	0.755369	-0.000089
 582	5.7809e+01	8.4258	86.552153	0.000385	3.850921	0.652364	-0.000077
 583	5.7909e+01	8.4052	86.459299	0.000466	4.661641	0.789703	-0.000093
 584	5.8008e+01	8.3863	86.378556	0.000405	4.053601	0.686699	-0.000081
 585	5.8108e+01	8.3660	86.293776	0.000426	4.256281	0.721034	-0.000085
 586	5.8208e+01	8.3453	86.241294	0.000263	2.634841	0.446354	-0.000053
 587	5.8307e+01	8.3260	86.108068	0.000669	6.688442	1.133053	-0.000134
 588	5.8407e+01	8.3067	86.047511	0.000304	3.040201	0.515024	-0.000061
 589	5.8506e+01	8.2870	85.930434	0.000588	5.877722	0.995713	-0.000118
 590	5.8605e+01	8.2661	85.829506	0.000507	5.067002	0.858373	-0.000101
 591	5.8705e+01	8.2471	85.748763	0.000405	4.053601	0.686699	-0.000081
 592	5.8804e+01	8.2268	85.663983	0.000426	4.256281	0.721034	-0.000085
 593	5.8904e+01	8.2073	85.559018	0.000527	5.269682	0.892708	-0.000105
 594	5.9004e+01	8.1866	85.474238	0.000426	4.256281	0.721034	-0.000085
 595	5.9103e+01	8.1670	85.417718	0.000284	2.837521	0.480689	-0.000057
 596	5.9203e+01	8.1469	85.320827	0.000486	4.864322	0.824038	-0.000097
 597	5.9302e+01	8.1264	85.248158	0.000365	3.648241	0.618029	-0.000073
 598	5.9401e+01	8.1065	85.167416	0.000405	4.053601	0.686699	-0.000081
 599	5.9501e+01	8.0869	85.082636	0.000426	4.256281	0.721034	-0.000085
 600	5.9600e+01	8.0667	84.965559	0.000588	5.877722	0.995713	-0.000118
 601	5.9700e+01	8.0481	84.905002	0.000304	3.040201	0.515024	-0.000061
 602	5.9800e+01	8.0276	84.795999	0.000547	5.472362	0.927043	-0.000110
 603	5.9899e+01	8.0068	84.662774	0.000669	6.688442	1.133053	-0.000134
 604	5.9998e+01	7.9874	84.626439	0.000182	1.824121	0.309014	-0.000037
 605	6.0098e+01	7.9688	84.505325	0.000608	6.080402	1.030048	-0.000122
 606	6.0197e+01	7.9479	84.440731	0.000324	3.242881	0.549359	-0.000065
 607	6.0297e+01	7.9276	84.351914	0.000446	4.458961	0.755369	-0.000089
 608	6.0397e+01	7.9070	84.263097	0.000446	4.458961	0.755369	-0.000089
 609	6.0496e+01	7.8884	84.154094	0.000547	5.472362	0.927043	-0.000110
 610	6.0596e+01	7.8677	84.045092	0.000547	5.472362	0.927043	-0.000110
 611	6.0695e+01	7.8475	83.996646	0.000243	2.432161	0.412019	-0.000049
 612	6.0794e+01	7.8275	83.919941	0.000385	3.850921	0.652364	-0.000077
 613	6.0894e+01	7.8085	83.806901	0.000568	5.675042	0.961378	-0.000114
 614	6.0993e+01	7.7881	83.722121	0.000426	4.256281	0.721034	-0.000085
 615	6.1093e+01	7.7686	83.621193	0.000507	5.067002	0.858373	-0.000101
 616	6.1193e+01	7.7486	83.504116	0.000588	5.877722	0.995713	-0.000118
 617	6.1292e+01	7.7283	83.447596	0.000284	2.837521	0.480689	-0.000057
 618	6.1392e+01	7.7084	83.354742	0.000466	4.661641	0.789703	-0.000093
 619	6.1491e+01	7.6882	83.241702	0.000568	5.675042	0.961378	-0.000114
 620	6.1590e+01	7.6682	83.152885	0.000446	4.458961	0.755369	-0.000089
 621	6.1690e+01	7.6485	83.019659	0.000669	6.688442	1.133053	-0.000134
 622	6.1789e+01	7.6293	82.975251	0.000223	2.229481	0.377684	-0.000045
 623	6.1889e+01	7.6089	82.874322	0.000507	5.067002	0.858373	-0.000101
 624	6.1989e+01	7.5892	82.801654	0.000365	3.648241	0.618029	-0.000073
 625	6.2088e+01	7.5686	82.708800	0.000466	4.661641	0.789703	-0.000093
 626	6.2188e+01	7.5488	82.575574	0.000669	6.688442	1.133053	-0.000134
 627	6.2287e+01	7.5298	82.510980	0.000324	3.242881	0.549359	-0.000065
 628	6.2386e+01	7.5098	82.389866	0.000608	6.080402	1.030048	-0.000122
 629	6.2486e+01	7.4910	82.301049	0.000446	4.458961	0.755369	-0.000089
 630	6.2586e+01	7.4696	82.188009	0.000568	5.675042	0.961378	-0.000114
 631	6.2685e+01	7.4497	82.155712	0.000162	1.621441	0.274679	-0.000032
 632	6.2785e+01	7.4300	82.014413	0.000709	7.093802	1.201723	-0.000142
 633	6.2884e+01	7.4085	81.933670	0.000405	4.053601	0.686699	-0.000081
 634	6.2983e+01	7.3898	81.792370	0.000709	7.093802	1.201723	-0.000142
 635	6.3083e+01	7.3699	81.723739	0.000345	3.445561	0.583694	-0.000069
 636	6.3182e+01	7.3507	81.598588	0.000628	6.283082	1.064383	-0.000126
 637	6.3282e+01	7.3304	81.538031	0.000304	3.040201	0.515024	-0.000061
 638	6.3382e+01	7.3101	81.412879	0.000628	6.283082	1.064383	-0.000126
 639	6.3481e+01	7.2904	81.320025	0.000466	4.661641	0.789703	-0.000093
 640	6.3581e+01	7.2701	81.235245	0.000426	4.256281	0.721034	-0.000085
 641	6.3680e+01	7.2514	81.146428	0.000446	4.458961	0.755369	-0.000089
 642	6.3779e+01	7.2305	81.037426	0.000547	5.472362	0.927043	-0.000110
 643	6.3879e+01	7.2111	80.944572	0.000466	4.661641	0.789703	-0.000093
 644	6.3978e+01	7.1917	80.871903	0.000365	3.648241	0.618029	-0.000073
 645	6.4078e+01	7.1705	80.730603	0.000709	7.093802	1.201723	-0.000142
 646	6.4177e+01	7.1514	80.641786	0.000446	4.458961	0.755369	-0.000089
 647	6.4277e+01	7.1308	80.569118	0.000365	3.648241	0.618029	-0.000073
 648	6.4376e+01	7.1111	80.456078	0.000568	5.675042	0.961378	-0.000114
 649	6.4476e+01	7.0919	80.339001	0.000588	5.877722	0.995713	-0.000118
 650	6.4576e+01	7.0704	80.250184	0.000446	4.458961	0.755369	-0.000089
 651	6.4675e+01	7.0513	80.173479	0.000385	3.850921	0.652364	-0.000077
 652	6.4775e+01	7.0327	80.068513	0.000527	5.269682	0.892708	-0.000105
 653	6.4874e+01	7.0109	79.979696	0.000446	4.458961	0.755369	-0.000089
 654	6.4974e+01	6.9917	79.886842	0.000466	4.661641	0.789703	-0.000093
 655	6.5073e+01	6.9726	79.769765	0.000588	5.877722	0.995713	-0.000118
 656	6.5172e+01	6.9518	79.689022	0.000405	4.053601	0.686699	-0.000081
 657	6.5272e+01	6.9320	79.559834	0.000649	6.485762	1.098718	-0.000130
 658	6.5371e+01	6.9112	79.535611	0.000122	1.216080	0.206010	-0.000024
 659	6.5471e+01	6.8923	79.398349	0.000689	6.891122	1.167388	-0.000138
 660	6.5570e+01	6.8724	79.277234	0.000608	6.080402	1.030048	-0.000122
 661	6.5670e+01	6.8517	79.172269	0.000527	5.269682	0.892708	-0.000105
 662	6.5769e+01	6.8322	79.123823	0.000243	2.432161	0.412019	-0.000049
 663	6.5869e+01	6.8131	78.970412	0.000770	7.701842	1.304727	-0.000154
 664	6.5969e+01	6.7921	78.926004	0.000223	2.229481	0.377684	-0.000045
 665	6.6068e+01	6.7718	78.808927	0.000588	5.877722	0.995713	-0.000118
 666	6.6168e+01	6.7522	78.716073	0.000466	4.661641	0.789703	-0.000093
 667	6.6267e+01	6.7328	78.598996	0.000588	5.877722	0.995713	-0.000118
 668	6.6367e+01	6.7129	78.506142	0.000466	4.661641	0.789703	-0.000093
 669	6.6466e+01	6.6932	78.421362	0.000426	4.256281	0.721034	-0.000085
 670	6.6566e+01	6.6729	78.284099	0.000689	6.891122	1.167388	-0.000138
 671	6.6665e+01	6.6525	78.227579	0.000284	2.837521	0.480689	-0.000057
 672	6.6764e+01	6.6336	78.074168	0.000770	7.701842	1.304727	-0.000154
 673	6.6864e+01	6.6131	78.029760	0.000223	2.229481	0.377684	-0.000045
 674	6.6963e+01	6.5945	77.916720	0.000568	5.675042	0.961378	-0.000114
 675	6.7063e+01	6.5734	77.831940	0.000426	4.256281	0.721034	-0.000085
 676	6.7162e+01	6.5528	77.718900	0.000568	5.675042	0.961378	-0.000114
 677	6.7262e+01	6.5337	77.557415	0.000811	8.107203	1.373397	-0.000162
 678	6.7362e+01	6.5128	77.500895	0.000284	2.837521	0.480689	-0.000057
 679	6.7461e+01	6.4931	77.371706	0.000649	6.485762	1.098718	-0.000130
 680	6.7561e+01	6.4736	77.286927	0.000426	4.256281	0.721034	-0.000085
 681	6.7660e+01	6.4549	77.230407	0.000284	2.837521	0.480689	-0.000057
 682	6.7760e+01	6.4342	77.085070	0.000730	7.296482	1.236058	-0.000146
 683	6.7859e+01	6.4135	76.976067	0.000547	5.472362	0.927043	-0.000110
 684	6.7959e+01	6.3933	76.875139	0.000507	5.067002	0.858373	-0.000101
 685	6.8058e+01	6.3735	76.766136	0.000547	5.472362	0.927043	-0.000110
 686	6.8157e+01	6.3532	76.665208	0.000507	5.067002	0.858373	-0.000101
 687	6.8257e+01	6.3338	76.548131	0.000588	5.877722	0.995713	-0.000118
 688	6.8356e+01	6.3136	76.463351	0.000426	4.256281	0.721034	-0.000085
 689	6.8456e+01	6.2945	76.350311	0.000568	5.675042	0.961378	-0.000114
 690	6.8555e+01	6.2749	76.229197	0.000608	6.080402	1.030048	-0.000122
 691	6.8655e+01	6.2547	76.172677	0.000284	2.837521	0.480689	-0.000057
 692	6.8754e+01	6.2359	76.055600	0.000588	5.877722	0.995713	-0.000118
 693	6.8854e+01	6.2160	75.942560	0.000568	5.675042	0.961378	-0.000114
 694	6.8954e+01	6.1947	75.837595	0.000527	5.269682	0.892708	-0.000105
 695	6.9053e+01	6.1758	75.728592	0.000547	5.472362	0.927043	-0.000110
 696	6.9153e+01	6.1553	75.615552	0.000568	5.675042	0.961378	-0.000114
 697	6.9252e+01	6.1355	75.494438	0.000608	6.080402	1.030048	-0.000122
 698	6.9352e+01	6.1150	75.405621	0.000446	4.458961	0.755369	-0.000089
 699	6.9451e+01	6.0949	75.288544	0.000588	5.877722	0.995713	-0.000118
 700	6.9550e+01	6.0757	75.151282	0.000689	6.891122	1.167388	-0.000138
 701	6.9650e+01	6.0558	75.070539	0.000405	4.053601	0.686699	-0.000081
 702	6.9749e+01	6.0357	74.957499	0.000568	5.675042	0.961378	-0.000114
 703	6.9849e+01	6.0160	74.860608	0.000486	4.864322	0.824038	-0.000097
 704	6.9948e+01	5.9962	74.763717	0.000486	4.864322	0.824038	-0.000097
 705	7.0048e+01	5.9768	74.642603	0.000608	6.080402	1.030048	-0.000122
 706	7.0147e+01	5.9559	74.557823	0.000426	4.256281	0.721034	-0.000085
 707	7.0247e+01	5.9364	74.444783	0.000568	5.675042	0.961378	-0.000114
 708	7.0347e+01	5.9095	74.323669	0.000608	6.080402	1.030048	-0.000122
 709	7.0446e+01	5.8967	74.267149	0.000284	2.837521	0.480689	-0.000057
 710	7.0546e+01	5.8767	74.121812	0.000730	7.296482	1.236058	-0.000146
 711	7.0645e+01	5.8559	74.016847	0.000527	5.269682	0.892708	-0.000105
 712	7.0745e+01	5.8370	73.879584	0.000689	6.891122	1.167388	-0.000138
 713	7.0844e+01	5.8166	73.819027	0.000304	3.040201	0.515024	-0.000061
 714	7.0944e+01	5.7970	73.689839	0.000649	6.485762	1.098718	-0.000130
 715	7.1043e+01	5.7769	73.560650	0.000649	6.485762	1.098718	-0.000130
 716	7.1142e+01	5.7558	73.455685	0.000527	5.269682	0.892708	-0.000105
 717	7.1242e+01	5.7363	73.354756	0.000507	5.067002	0.858373	-0.000101
 718	7.1341e+01	5.7171	73.269977	0.000426	4.256281	0.721034	-0.000085
 719	7.1441e+01	5.6954	73.104454	0.000831	8.309883	1.407732	-0.000166
 720	7.1540e+01	5.6771	73.027748	0.000385	3.850921	0.652364	-0.000077
 721	7.1640e+01	5.6562	72.874337	0.000770	7.701842	1.304727	-0.000154
 722	7.1740e+01	5.6374	72.785520	0.000446	4.458961	0.755369	-0.000089
 723	7.1839e+01	5.6170	72.664406	0.000608	6.080402	1.030048	-0.000122
 724	7.1939e+01	5.5965	72.575589	0.000446	4.458961	0.755369	-0.000089
 725	7.2038e+01	5.5785	72.462549	0.000568	5.675042	0.961378	-0.000114
 726	7.2138e+01	5.5573	72.349510	0.000568	5.675042	0.961378	-0.000114
 727	7.2237e+01	5.5383	72.244544	0.000527	5.269682	0.892708	-0.000105
 728	7.2337e+01	5.5173	72.135541	0.000547	5.472362	0.927043	-0.000110
 729	7.2436e+01	5.4971	71.990204	0.000730	7.296482	1.236058	-0.000146
 730	7.2535e+01	5.4784	71.925610	0.000324	3.242881	0.549359	-0.000065
 731	7.2635e+01	5.4577	71.780273	0.000730	7.296482	1.236058	-0.000146
 732	7.2734e+01	5.4380	71.655122	0.000628	6.283082	1.064383	-0.000126
 733	7.2834e+01	5.4188	71.521897	0.000669	6.688442	1.133053	-0.000134
 734	7.2933e+01	5.3991	71.437117	0.000426	4.256281	0.721034	-0.000085
 735	7.3033e+01	5.3780	71.328114	0.000547	5.472362	0.927043	-0.000110
 736	7.3132e+01	5.3579	71.207000	0.000608	6.080402	1.030048	-0.000122
 737	7.3232e+01	5.3374	71.077812	0.000649	6.485762	1.098718	-0.000130
 738	7.3332e+01	5.3182	70.988995	0.000446	4.458961	0.755369	-0.000089
 739	7.3431e+01	5.2979	70.867881	0.000608	6.080402	1.030048	-0.000122
 740	7.3531e+01	5.2787	70.718507	0.000750	7.499162	1.270392	-0.000150
 741	7.3630e+01	5.2581	70.593356	0.000628	6.283082	1.064383	-0.000126
 742	7.3730e+01	5.2388	70.480316	0.000568	5.675042	0.961378	-0.000114
 743	7.3829e+01	5.2181	70.379387	0.000507	5.067002	0.858373	-0.000101
 744	7.3928e+01	5.1994	70.230013	0.000750	7.499162	1.270392	-0.000150
 745	7.4028e+01	5.1798	70.173493	0.000284	2.837521	0.480689	-0.000057
 746	7.4127e+01	5.1589	70.020082	0.000770	7.701842	1.304727	-0.000154
 747	7.4227e+01	5.1386	69.915117	0.000527	5.269682	0.892708	-0.000105
 748	7.4326e+01	5.1183	69.806114	0.000547	5.472362	0.927043	-0.000110
 749	7.4426e+01	5.1002	69.672889	0.000669	6.688442	1.133053	-0.000134
 750	7.4525e+01	5.0793	69.531589	0.000709	7.093802	1.201723	-0.000142
 751	7.4625e+01	5.0593	69.410475	0.000608	6.080402	1.030048	-0.000122
 752	7.4725e+01	5.0394	69.293398	0.000588	5.877722	0.995713	-0.000118
 753	7.4824e+01	5.0201	69.152098	0.000709	7.093802	1.201723	-0.000142
 754	7.4924e+01	4.9999	69.039058	0.000568	5.675042	0.961378	-0.000114
 755	7.5023e+01	4.9798	68.962353	0.000385	3.850921	0.652364	-0.000077
 756	7.5123e+01	4.9598	68.792793	0.000851	8.512563	1.442067	-0.000170
 757	7.5222e+01	4.9404	68.695902	0.000486	4.864322	0.824038	-0.000097
 758	7.5322e+01	4.9206	68.574788	0.000608	6.080402	1.030048	-0.000122
 759	7.5421e+01	4.9001	68.469822	0.000527	5.269682	0.892708	-0.000105
 760	7.5520e+01	4.8806	68.312374	0.000790	7.904522	1.339062	-0.000158
 761	7.5620e+01	4.8608	68.195297	0.000588	5.877722	0.995713	-0.000118
 762	7.5719e+01	4.8410	68.066109	0.000649	6.485762	1.098718	-0.000130
 763	7.5819e+01	4.8200	67.936920	0.000649	6.485762	1.098718	-0.000130
 764	7.5918e+01	4.8013	67.892512	0.000223	2.229481	0.377684	-0.000045
 765	7.6018e+01	4.7807	67.698729	0.000973	9.728643	1.648077	-0.000195
 766	7.6118e+01	4.7610	67.601838	0.000486	4.864322	0.824038	-0.000097
 767	7.6217e+01	4.7408	67.432278	0.000851	8.512563	1.442067	-0.000170
 768	7.6317e+01	4.7211	67.339424	0.000466	4.661641	0.789703	-0.000093
 769	7.6416e+01	4.7018	67.198124	0.000709	7.093802	1.201723	-0.000142
 770	7.6516e+01	4.6813	67.085085	0.000568	5.675042	0.961378	-0.000114
 771	7.6615e+01	4.6613	66.972045	0.000568	5.675042	0.961378	-0.000114
 772	7.6715e+01	4.6416	66.867079	0.000527	5.269682	0.892708	-0.000105
 773	7.6814e+01	4.6215	66.750002	0.000588	5.877722	0.995713	-0.000118
 774	7.6913e+01	4.6008	66.604665	0.000730	7.296482	1.236058	-0.000146
 775	7.7013e+01	4.5816	66.475477	0.000649	6.485762	1.098718	-0.000130
 776	7.7112e+01	4.5615	66.358400	0.000588	5.877722	0.995713	-0.000118
 777	7.7212e+01	4.5414	66.225175	0.000669	6.688442	1.133053	-0.000134
 778	7.7311e+01	4.5205	66.104061	0.000608	6.080402	1.030048	-0.000122
 779	7.7411e+01	4.5022	65.982947	0.000608	6.080402	1.030048	-0.000122
 780	7.7510e+01	4.4823	65.853758	0.000649	6.485762	1.098718	-0.000130
 781	7.7610e+01	4.4616	65.736681	0.000588	5.877722	0.995713	-0.000118
 782	7.7710e+01	4.4424	65.603456	0.000669	6.688442	1.133053	-0.000134
 783	7.7809e+01	4.4212	65.498490	0.000527	5.269682	0.892708	-0.000105
 784	7.7909e+01	4.4021	65.341042	0.000790	7.904522	1.339062	-0.000158
 785	7.8008e+01	4.3832	65.211854	0.000649	6.485762	1.098718	-0.000130
 786	7.8108e+01	4.3620	65.070554	0.000709	7.093802	1.201723	-0.000142
 787	7.8207e+01	4.3432	64.969625	0.000507	5.067002	0.858373	-0.000101
 788	7.8306e+01	4.3224	64.884846	0.000426	4.256281	0.721034	-0.000085
 789	7.8406e+01	4.3014	64.743546	0.000709	7.093802	1.201723	-0.000142
 790	7.8505e+01	4.2834	64.594172	0.000750	7.499162	1.270392	-0.000150
 791	7.8605e+01	4.2626	64.464983	0.000649	6.485762	1.098718	-0.000130
 792	7.8704e+01	4.2425	64.319647	0.000730	7.296482	1.236058	-0.000146
 793	7.8804e+01	4.2237	64.166235	0.000770	7.701842	1.304727	-0.000154
 794	7.8903e+01	4.2034	64.085493	0.000405	4.053601	0.686699	-0.000081
 795	7.9003e+01	4.1827	63.932082	0.000770	7.701842	1.304727	-0.000154
 796	7.9103e+01	4.1635	63.806930	0.000628	6.283082	1.064383	-0.000126
 797	7.9202e+01	4.1436	63.689853	0.000588	5.877722	0.995713	-0.000118
 798	7.9302e+01	4.1235	63.544517	0.000730	7.296482	1.236058	-0.000146
 799	7.9401e+01	4.1029	63.439551	0.000527	5.269682	0.892708	-0.000105
 800	7.9501e+01	4.0834	63.310363	0.000649	6.485762	1.098718	-0.000130
 801	7.9600e+01	4.0633	63.177137	0.000669	6.688442	1.133053	-0.000134
 802	7.9700e+01	4.0434	63.039875	0.000689	6.891122	1.167388	-0.000138
 803	7.9799e+01	4.0235	62.894538	0.000730	7.296482	1.236058	-0.000146
 804	7.9898e+01	4.0034	62.789572	0.000527	5.269682	0.892708	-0.000105
 805	7.9998e+01	3.9841	62.652310	0.000689	6.891122	1.167388	-0.000138
 806	8.0097e+01	3.9640	62.527158	0.000628	6.283082	1.064383	-0.000126
 807	8.0197e+01	3.9437	62.381821	0.000730	7.296482	1.236058	-0.000146
 808	8.0296e+01	3.9242	62.264744	0.000588	5.877722	0.995713	-0.000118
 809	8.0396e+01	3.9042	62.131519	0.000669	6.688442	1.133053	-0.000134
 810	8.0496e+01	3.8845	61.994256	0.000689	6.891122	1.167388	-0.000138
 811	8.0595e+01	3.8634	61.861031	0.000669	6.688442	1.133053	-0.000134
 812	8.0695e+01	3.8439	61.703583	0.000790	7.904522	1.339062	-0.000158
 813	8.0794e+01	3.8250	61.586506	0.000588	5.877722	0.995713	-0.000118
 814	8.0894e+01	3.8041	61.465392	0.000608	6.080402	1.030048	-0.000122
 815	8.0993e+01	3.7839	61.356389	0.000547	5.472362	0.927043	-0.000110
 816	8.1093e+01	3.7648	61.227201	0.000649	6.485762	1.098718	-0.000130
 817	8.1192e+01	3.7453	61.069752	0.000790	7.904522	1.339062	-0.000158
 818	8.1291e+01	3.7251	60.940564	0.000649	6.485762	1.098718	-0.000130
 819	8.1391e+01	3.7048	60.803301	0.000689	6.891122	1.167388	-0.000138
 820	8.1490e+01	3.6858	60.662002	0.000709	7.093802	1.201723	-0.000142
 821	8.1590e+01	3.6654	60.573185	0.000446	4.458961	0.755369	-0.000089
 822	8.1689e+01	3.6456	60.415736	0.000790	7.904522	1.339062	-0.000158
 823	8.1789e+01	3.6256	60.286548	0.000649	6.485762	1.098718	-0.000130
 824	8.1888e+01	3.6056	60.177545	0.000547	5.472362	0.927043	-0.000110
 825	8.1988e+01	3.5856	60.060468	0.000588	5.877722	0.995713	-0.000118
 826	8.2088e+01	3.5658	59.919169	0.000709	7.093802	1.201723	-0.000142
 827	8.2187e+01	3.5464	59.794017	0.000628	6.283082	1.064383	-0.000126
 828	8.2287e+01	3.5258	59.596198	0.000993	9.931323	1.682412	-0.000199
 829	8.2386e+01	3.5055	59.487195	0.000547	5.472362	0.927043	-0.000110
 830	8.2486e+01	3.4852	59.362044	0.000628	6.283082	1.064383	-0.000126
 831	8.2585e+01	3.4657	59.216707	0.000730	7.296482	1.236058	-0.000146
 832	8.2684e+01	3.4466	59.127890	0.000446	4.458961	0.755369	-0.000089
 833	8.2784e+01	3.4264	58.982553	0.000730	7.296482	1.236058	-0.000146
 834	8.2883e+01	3.4060	58.893736	0.000446	4.458961	0.755369	-0.000089
 835	8.2983e+01	3.3858	58.740325	0.000770	7.701842	1.304727	-0.000154
 836	8.3082e+01	3.3662	58.594988	0.000730	7.296482	1.236058	-0.000146
 837	8.3182e+01	3.3459	58.465800	0.000649	6.485762	1.098718	-0.000130
 838	8.3281e+01	3.3260	58.296240	0.000851	8.512563	1.442067	-0.000170
 839	8.3381e+01	3.3074	58.171089	0.000628	6.283082	1.064383	-0.000126
 840	8.3481e+01	3.2869	58.037863	0.000669	6.688442	1.133053	-0.000134
 841	8.3580e+01	3.2671	57.868304	0.000851	8.512563	1.442067	-0.000170
 842	8.3680e+01	3.2479	57.771412	0.000486	4.864322	0.824038	-0.000097
 843	8.3779e+01	3.2264	57.642224	0.000649	6.485762	1.098718	-0.000130
 844	8.3879e+01	3.2075	57.448442	0.000973	9.728643	1.648077	-0.000195
 845	8.3978e+01	3.1874	57.355587	0.000466	4.661641	0.789703	-0.000093
 846	8.4078e+01	3.1676	57.234473	0.000608	6.080402	1.030048	-0.000122
 847	8.4177e+01	3.1463	57.101248	0.000669	6.688442	1.133053	-0.000134
 848	8.4276e+01	3.1266	56.947837	0.000770	7.701842	1.304727	-0.000154
 849	8.4376e+01	3.1078	56.806537	0.000709	7.093802	1.201723	-0.000142
 850	8.4475e+01	3.0869	56.657163	0.000750	7.499162	1.270392	-0.000150
 851	8.4575e+01	3.0680	56.576420	0.000405	4.053601	0.686699	-0.000081
 852	8.4674e+01	3.0474	56.382638	0.000973	9.728643	1.648077	-0.000195
 853	8.4774e+01	3.0273	56.233264	0.000750	7.499162	1.270392	-0.000150
 854	8.4874e+01	3.0074	56.063704	0.000851	8.512563	1.442067	-0.000170
 855	8.4973e+01	2.9878	55.958738	0.000527	5.269682	0.892708	-0.000105
 856	8.5073e+01	2.9680	55.821476	0.000689	6.891122	1.167388	-0.000138
 857	8.5172e+01	2.9485	55.692288	0.000649	6.485762	1.098718	-0.000130
 858	8.5272e+01	2.9281	55.542913	0.000750	7.499162	1.270392	-0.000150
 859	8.5371e+01	2.9082	55.401614	0.000709	7.093802	1.201723	-0.000142
 860	8.5471e+01	2.8880	55.276463	0.000628	6.283082	1.064383	-0.000126
 861	8.5570e+01	2.8679	55.171497	0.000527	5.269682	0.892708	-0.000105
 862	8.5669e+01	2.8480	55.014049	0.000790	7.904522	1.339062	-0.000158
 863	8.5769e+01	2.8278	54.852563	0.000811	8.107203	1.373397	-0.000162
 864	8.5868e+01	2.8084	54.715301	0.000689	6.891122	1.167388	-0.000138
 865	8.5968e+01	2.7879	54.569964	0.000730	7.296482	1.236058	-0.000146
 866	8.6067e+01	2.7698	54.424627	0.000730	7.296482	1.236058	-0.000146
 867	8.6167e+01	2.7477	54.291401	0.000669	6.688442	1.133053	-0.000134
 868	8.6266e+01	2.7290	54.142027	0.000750	7.499162	1.270392	-0.000150
 869	8.6366e+01	2.7081	53.988616	0.000770	7.701842	1.304727	-0.000154
 870	8.6466e+01	2.6887	53.883651	0.000527	5.269682	0.892708	-0.000105
 871	8.6565e+01	2.6684	53.689868	0.000973	9.728643	1.648077	-0.000195
 872	8.6665e+01	2.6494	53.560680	0.000649	6.485762	1.098718	-0.000130
 873	8.6764e+01	2.6293	53.383046	0.000892	8.917923	1.510737	-0.000179
 874	8.6864e+01	2.6083	53.286155	0.000486	4.864322	0.824038	-0.000097
 875	8.6963e+01	2.5878	53.152929	0.000669	6.688442	1.133053	-0.000134
 876	8.7063e+01	2.5684	53.015667	0.000689	6.891122	1.167388	-0.000138
 877	8.7162e+01	2.5494	52.846107	0.000851	8.512563	1.442067	-0.000170
 878	8.7261e+01	2.5294	52.716918	0.000649	6.485762	1.098718	-0.000130
 879	8.7361e+01	2.5091	52.567544	0.000750	7.499162	1.270392	-0.000150
 880	8.7460e+01	2.4906	52.426245	0.000709	7.093802	1.201723	-0.000142
 881	8.7560e+01	2.4698	52.264759	0.000811	8.107203	1.373397	-0.000162
 882	8.7659e+01	2.4505	52.119422	0.000730	7.296482	1.236058	-0.000146
 883	8.7759e+01	2.4310	51.933714	0.000932	9.323283	1.579407	-0.000187
 884	8.7859e+01	2.4099	51.844897	0.000446	4.458961	0.755369	-0.000089
 885	8.7958e+01	2.3894	51.699560	0.000730	7.296482	1.236058	-0.000146
 886	8.8058e+01	2.3699	51.562298	0.000689	6.891122	1.167388	-0.000138
 887	8.8157e+01	2.3505	51.425035	0.000689	6.891122	1.167388	-0.000138
 888	8.8257e+01	2.3302	51.255475	0.000851	8.512563	1.442067	-0.000170
 889	8.8356e+01	2.3106	51.114176	0.000709	7.093802	1.201723	-0.000142
 890	8.8456e+01	2.2911	50.997099	0.000588	5.877722	0.995713	-0.000118
 891	8.8555e+01	2.2700	50.815428	0.000912	9.120603	1.545072	-0.000183
 892	8.8654e+01	2.2511	50.653942	0.000811	8.107203	1.373397	-0.000162
 893	8.8754e+01	2.2301	50.520717	0.000669	6.688442	1.133053	-0.000134
 894	8.8853e+01	2.2115	50.383454	0.000689	6.891122	1.167388	-0.000138
 895	8.8953e+01	2.1913	50.250229	0.000669	6.688442	1.133053	-0.000134
 896	8.9052e+01	2.1712	50.072595	0.000892	8.917923	1.510737	-0.000179
 897	8.9152e+01	2.1523	49.927258	0.000730	7.296482	1.236058	-0.000146
 898	8.9251e+01	2.1307	49.773847	0.000770	7.701842	1.304727	-0.000154
 899	8.9351e+01	2.1117	49.628510	0.000730	7.296482	1.236058	-0.000146
 900	8.9451e+01	2.0905	49.483173	0.000730	7.296482	1.236058	-0.000146
 901	8.9550e+01	2.0711	49.297464	0.000932	9.323283	1.579407	-0.000187
 902	8.9650e+01	2.0518	49.188462	0.000547	5.472362	0.927043	-0.000110
 903	8.9749e+01	2.0308	48.998716	0.000953	9.525963	1.613742	-0.000191
 904	8.9849e+01	2.0113	48.889714	0.000547	5.472362	0.927043	-0.000110
 905	8.9948e+01	1.9917	48.699968	0.000953	9.525963	1.613742	-0.000191
 906	9.0047e+01	1.9723	48.546557	0.000770	7.701842	1.304727	-0.000154
 907	9.0147e+01	1.9519	48.376998	0.000851	8.512563	1.442067	-0.000170
 908	9.0246e+01	1.9314	48.272032	0.000527	5.269682	0.892708	-0.000105
 909	9.0346e+01	1.9116	48.110547	0.000811	8.107203	1.373397	-0.000162
 910	9.0445e+01	1.8920	47.932913	0.000892	8.917923	1.510737	-0.000179
 911	9.0545e+01	1.8717	47.779501	0.000770	7.701842	1.304727	-0.000154
 912	9.0644e+01	1.8520	47.670499	0.000547	5.472362	0.927043	-0.000110
 913	9.0744e+01	1.8326	47.496902	0.000872	8.715243	1.476402	-0.000174
 914	9.0844e+01	1.8125	47.291008	0.001034	10.336683	1.751082	-0.000207
 915	9.0943e+01	1.7930	47.182005	0.000547	5.472362	0.927043	-0.000110
 916	9.1043e+01	1.7719	46.996297	0.000932	9.323283	1.579407	-0.000187
 917	9.1142e+01	1.7535	46.846923	0.000750	7.499162	1.270392	-0.000150
 918	9.1242e+01	1.7323	46.689475	0.000790	7.904522	1.339062	-0.000158
 919	9.1341e+01	1.7133	46.556249	0.000669	6.688442	1.133053	-0.000134
 920	9.1441e+01	1.6932	46.394764	0.000811	8.107203	1.373397	-0.000162
 921	9.1540e+01	1.6730	46.241353	0.000770	7.701842	1.304727	-0.000154
 922	9.1639e+01	1.6521	46.063719	0.000892	8.917923	1.510737	-0.000179
 923	9.1739e+01	1.6327	45.902233	0.000811	8.107203	1.373397	-0.000162
 924	9.1838e+01	1.6130	45.740748	0.000811	8.107203	1.373397	-0.000162
 925	9.1938e+01	1.5929	45.615597	0.000628	6.283082	1.064383	-0.000126
 926	9.2037e+01	1.5737	45.466223	0.000750	7.499162	1.270392	-0.000150
 927	9.2137e+01	1.5528	45.276477	0.000953	9.525963	1.613742	-0.000191
 928	9.2237e+01	1.5330	45.102880	0.000872	8.715243	1.476402	-0.000174
 929	9.2336e+01	1.5130	44.969655	0.000669	6.688442	1.133053	-0.000134
 930	9.2436e+01	1.4928	44.832392	0.000689	6.891122	1.167388	-0.000138
 931	9.2535e+01	1.4729	44.630536	0.001013	10.134003	1.716747	-0.000203
 932	9.2635e+01	1.4538	44.493273	0.000689	6.891122	1.167388	-0.000138
 933	9.2734e+01	1.4337	44.327750	0.000831	8.309883	1.407732	-0.000166
 934	9.2834e+01	1.4130	44.186451	0.000709	7.093802	1.201723	-0.000142
 935	9.2933e+01	1.3938	44.029002	0.000790	7.904522	1.339062	-0.000158
 936	9.3032e+01	1.3734	43.839257	0.000953	9.525963	1.613742	-0.000191
 937	9.3132e+01	1.3534	43.714106	0.000628	6.283082	1.064383	-0.000126
 938	9.3231e+01	1.3338	43.544546	0.000851	8.512563	1.442067	-0.000170
 939	9.3331e+01	1.3139	43.387098	0.000790	7.904522	1.339062	-0.000158
 940	9.3430e+01	1.2942	43.233687	0.000770	7.701842	1.304727	-0.000154
 941	9.3530e+01	1.2737	43.056053	0.000892	8.917923	1.510737	-0.000179
 942	9.3629e+01	1.2547	42.906679	0.000750	7.499162	1.270392	-0.000150
 943	9.3729e+01	1.2353	42.725008	0.000912	9.120603	1.545072	-0.000183
 944	9.3829e+01	1.2155	42.616005	0.000547	5.472362	0.927043	-0.000110
 945	9.3928e+01	1.1952	42.442408	0.000872	8.715243	1.476402	-0.000174
 946	9.4028e+01	1.1751	42.293034	0.000750	7.499162	1.270392	-0.000150
 947	9.4127e+01	1.1551	42.111363	0.000912	9.120603	1.545072	-0.000183
 948	9.4227e+01	1.1352	41.966026	0.000730	7.296482	1.236058	-0.000146
 949	9.4326e+01	1.1160	41.816652	0.000750	7.499162	1.270392	-0.000150
 950	9.4425e+01	1.0952	41.630944	0.000932	9.323283	1.579407	-0.000187
 951	9.4525e+01	1.0754	41.473495	0.000790	7.904522	1.339062	-0.000158
 952	9.4624e+01	1.0558	41.295861	0.000892	8.917923	1.510737	-0.000179
 953	9.4724e+01	1.0355	41.134376	0.000811	8.107203	1.373397	-0.000162
 954	9.4823e+01	1.0161	40.993076	0.000709	7.093802	1.201723	-0.000142
 955	9.4923e+01	0.9956	40.823517	0.000851	8.512563	1.442067	-0.000170
 956	9.5022e+01	0.9754	40.645883	0.000892	8.917923	1.510737	-0.000179
 957	9.5122e+01	0.9566	40.464212	0.000912	9.120603	1.545072	-0.000183
 958	9.5222e+01	0.9357	40.367320	0.000486	4.864322	0.824038	-0.000097
 959	9.5321e+01	0.9165	40.161426	0.001034	10.336683	1.751082	-0.000207
 960	9.5421e+01	0.8965	40.032238	0.000649	6.485762	1.098718	-0.000130
 961	9.5520e+01	0.8763	39.854604	0.000892	8.917923	1.510737	-0.000179
 962	9.5620e+01	0.8572	39.656784	0.000993	9.931323	1.682412	-0.000199
 963	9.5719e+01	0.8363	39.483188	0.000872	8.715243	1.476402	-0.000174
 964	9.5819e+01	0.8172	39.382259	0.000507	5.067002	0.858373	-0.000101
 965	9.5918e+01	0.7969	39.192514	0.000953	9.525963	1.613742	-0.000191
 966	9.6017e+01	0.7756	39.018917	0.000872	8.715243	1.476402	-0.000174
 967	9.6117e+01	0.7572	38.857431	0.000811	8.107203	1.373397	-0.000162
 968	9.6216e+01	0.7368	38.675760	0.000912	9.120603	1.545072	-0.000183
 969	9.6316e+01	0.7172	38.510238	0.000831	8.309883	1.407732	-0.000166
 970	9.6415e+01	0.6968	38.356827	0.000770	7.701842	1.304727	-0.000154
 971	9.6515e+01	0.6768	38.211490	0.000730	7.296482	1.236058	-0.000146
 972	9.6615e+01	0.6569	38.013670	0.000993	9.931323	1.682412	-0.000199
 973	9.6714e+01	0.6374	37.836036	0.000892	8.917923	1.510737	-0.000179
 974	9.6814e+01	0.6173	37.682625	0.000770	7.701842	1.304727	-0.000154
 975	9.6913e+01	0.5978	37.517102	0.000831	8.309883	1.407732	-0.000166
 976	9.7013e+01	0.5771	37.395988	0.000608	6.080402	1.030048	-0.000122
 977	9.7112e+01	0.5579	37.238540	0.000790	7.904522	1.339062	-0.000158
 978	9.7212e+01	0.5370	37.052832	0.000932	9.323283	1.579407	-0.000187
 979	9.7311e+01	0.5172	36.842901	0.001054	10.539363	1.785416	-0.000211
 980	9.7410e+01	0.4973	36.725824	0.000588	5.877722	0.995713	-0.000118
 981	9.7510e+01	0.4787	36.544153	0.000912	9.120603	1.545072	-0.000183
 982	9.7609e+01	0.4576	36.382667	0.000811	8.107203	1.373397	-0.000162
 983	9.7709e+01	0.4375	36.229256	0.000770	7.701842	1.304727	-0.000154
 984	9.7808e+01	0.4166	36.043548	0.000932	9.323283	1.579407	-0.000187
 985	9.7908e+01	0.3986	35.873988	0.000851	8.512563	1.442067	-0.000170
 986	9.8007e+01	0.3788	35.720577	0.000770	7.701842	1.304727	-0.000154
 987	9.8107e+01	0.3575	35.583314	0.000689	6.891122	1.167388	-0.000138
 988	9.8207e+01	0.3386	35.381458	0.001013	10.134003	1.716747	-0.000203
 989	9.8306e+01	0.3185	35.252269	0.000649	6.485762	1.098718	-0.000130
 990	9.8406e+01	0.2975	35.058487	0.000973	9.728643	1.648077	-0.000195
 991	9.8505e+01	0.2781	34.872779	0.000932	9.323283	1.579407	-0.000187
 992	9.8605e+01	0.2586	34.763776	0.000547	5.472362	0.927043	-0.000110
 993	9.8704e+01	0.2386	34.557882	0.001034	10.336683	1.751082	-0.000207
 994	9.8803e+01	0.2177	34.396396	0.000811	8.107203	1.373397	-0.000162
 995	9.8903e+01	0.1978	34.242985	0.000770	7.701842	1.304727	-0.000154
 996	9.9002e+01	0.1790	34.077463	0.000831	8.309883	1.407732	-0.000166
 997	9.9102e+01	0.1595	33.924052	0.000770	7.701842	1.304727	-0.000154
 998	9.9201e+01	0.1389	33.754492	0.000851	8.512563	1.442067	-0.000170
 999	9.9301e+01	0.1183	33.597044	0.000790	7.904522	1.339062	-0.000158
1000	9.9400e+01	0.0992	33.383075	0.001074	10.742043	1.819751	-0.000215
1001	9.9500e+01	0.0789	33.253887	0.000649	6.485762	1.098718	-0.000130
1002	9.9600e+01	0.0591	33.124699	0.000649	6.485762	1.098718	-0.000130
1003	9.9699e+01	0.0385	32.910731	0.001074	10.742043	1.819751	-0.000215
1004	9.9799e+01	0.0185	32.781542	0.000649	6.485762	1.098718	-0.000130
1005	9.9898e+01	-0.0011	32.644280	0.000689	6.891122	1.167388	-0.000138
1006	9.9998e+01	-0.0195	32.454534	0.000953	9.525963	1.613742	-0.000191
1007	1.0010e+02	-0.0378	32.256715	0.000993	9.931323	1.682412	-0.000199
1008	1.0020e+02	-0.0588	32.087155	0.000851	8.512563	1.442067	-0.000170
1009	1.0030e+02	-0.0789	31.966041	0.000608	6.080402	1.030048	-0.000122
1010	1.0040e+02	-0.0989	31.792444	0.000872	8.715243	1.476402	-0.000174
1011	1.0050e+02	-0.1181	31.602699	0.000953	9.525963	1.613742	-0.000191
1012	1.0059e+02	-0.1385	31.485622	0.000588	5.877722	0.995713	-0.000118
1013	1.0069e+02	-0.1588	31.255505	0.001155	11.552764	1.957091	-0.000231
1014	1.0079e+02	-0.1781	31.114205	0.000709	7.093802	1.201723	-0.000142
1015	1.0089e+02	-0.1978	30.960794	0.000770	7.701842	1.304727	-0.000154
1016	1.0099e+02	-0.2178	30.771049	0.000953	9.525963	1.613742	-0.000191
1017	1.0109e+02	-0.2378	30.597452	0.000872	8.715243	1.476402	-0.000174
1018	1.0119e+02	-0.2574	30.435966	0.000811	8.107203	1.373397	-0.000162
1019	1.0129e+02	-0.2780	30.298704	0.000689	6.891122	1.167388	-0.000138
1020	1.0139e+02	-0.2986	30.096847	0.001013	10.134003	1.716747	-0.000203
1021	1.0149e+02	-0.3177	29.935361	0.000811	8.107203	1.373397	-0.000162
1022	1.0159e+02	-0.3381	29.757728	0.000892	8.917923	1.510737	-0.000179
1023	1.0169e+02	-0.3572	29.612391	0.000730	7.296482	1.236058	-0.000146
1024	1.0179e+02	-0.3757	29.458979	0.000770	7.701842	1.304727	-0.000154
1025	1.0189e+02	-0.3976	29.293457	0.000831	8.309883	1.407732	-0.000166
1026	1.0199e+02	-0.4169	29.063340	0.001155	11.552764	1.957091	-0.000231
1027	1.0209e+02	-0.4376	28.934152	0.000649	6.485762	1.098718	-0.000130
1028	1.0219e+02	-0.4572	28.728258	0.001034	10.336683	1.751082	-0.000207
1029	1.0229e+02	-0.4767	28.595032	0.000669	6.688442	1.133053	-0.000134
1030	1.0239e+02	-0.4966	28.393176	0.001013	10.134003	1.716747	-0.000203
1031	1.0248e+02	-0.5164	28.251876	0.000709	7.093802	1.201723	-0.000142
1032	1.0258e+02	-0.5370	28.086353	0.000831	8.309883	1.407732	-0.000166
1033	1.0268e+02	-0.5565	27.884497	0.001013	10.134003	1.716747	-0.000203
1034	1.0278e+02	-0.5776	27.718974	0.000831	8.309883	1.407732	-0.000166
1035	1.0288e+02	-0.5968	27.549414	0.000851	8.512563	1.442067	-0.000170
1036	1.0298e+02	-0.6163	27.408115	0.000709	7.093802	1.201723	-0.000142
1037	1.0308e+02	-0.6369	27.234518	0.000872	8.715243	1.476402	-0.000174
1038	1.0318e+02	-0.6567	27.036698	0.000993	9.931323	1.682412	-0.000199
1039	1.0328e+02	-0.6765	26.895398	0.000709	7.093802	1.201723	-0.000142
1040	1.0338e+02	-0.6968	26.689504	0.001034	10.336683	1.751082	-0.000207
1041	1.0348e+02	-0.7162	26.507833	0.000912	9.120603	1.545072	-0.000183
1042	1.0358e+02	-0.7365	26.378645	0.000649	6.485762	1.098718	-0.000130
1043	1.0368e+02	-0.7561	26.164677	0.001074	10.742043	1.819751	-0.000215
1044	1.0378e+02	-0.7774	26.035488	0.000649	6.485762	1.098718	-0.000130
1045	1.0388e+02	-0.7961	25.853817	0.000912	9.120603	1.545072	-0.000183
1046	1.0398e+02	-0.8167	25.688295	0.000831	8.309883	1.407732	-0.000166
1047	1.0408e+02	-0.8359	25.534884	0.000770	7.701842	1.304727	-0.000154
1048	1.0418e+02	-0.8565	25.353212	0.000912	9.120603	1.545072	-0.000183
1049	1.0428e+02	-0.8752	25.159430	0.000973	9.728643	1.648077	-0.000195
1050	1.0438e+02	-0.8954	25.006019	0.000770	7.701842	1.304727	-0.000154
1051	1.0447e+02	-0.9163	24.824348	0.000912	9.120603	1.545072	-0.000183
1052	1.0457e+02	-0.9354	24.658825	0.000831	8.309883	1.407732	-0.000166
1053	1.0467e+02	-0.9558	24.509451	0.000750	7.499162	1.270392	-0.000150
1054	1.0477e+02	-0.9751	24.311631	0.000993	9.931323	1.682412	-0.000199
1055	1.0487e+02	-0.9946	24.158220	0.000770	7.701842	1.304727	-0.000154
1056	1.0497e+02	-1.0160	23.996735	0.000811	8.107203	1.373397	-0.000162
1057	1.0507e+02	-1.0342	23.827175	0.000851	8.512563	1.442067	-0.000170
1058	1.0517e+02	-1.0542	23.661653	0.000831	8.309883	1.407732	-0.000166
1059	1.0527e+02	-1.0757	23.475944	0.000932	9.323283	1.579407	-0.000187
1060	1.0537e+02	-1.0950	23.318496	0.000790	7.904522	1.339062	-0.000158
1061	1.0547e+02	-1.1150	23.124714	0.000973	9.728643	1.648077	-0.000195
1062	1.0557e+02	-1.1354	22.943042	0.000912	9.120603	1.545072	-0.000183
1063	1.0567e+02	-1.1551	22.765408	0.000892	8.917923	1.510737	-0.000179
1064	1.0577e+02	-1.1742	22.583737	0.000912	9.120603	1.545072	-0.000183
1065	1.0587e+02	-1.1942	22.458586	0.000628	6.283082	1.064383	-0.000126
1066	1.0597e+02	-1.2146	22.228469	0.001155	11.552764	1.957091	-0.000231
1067	1.0607e+02	-1.2347	22.066984	0.000811	8.107203	1.373397	-0.000162
1068	1.0617e+02	-1.2544	21.909536	0.000790	7.904522	1.339062	-0.000158
1069	1.0627e+02	-1.2738	21.731902	0.000892	8.917923	1.510737	-0.000179
1070	1.0637e+02	-1.2942	21.582528	0.000750	7.499162	1.270392	-0.000150
1071	1.0647e+02	-1.3143	21.360485	0.001115	11.147404	1.888421	-0.000223
1072	1.0656e+02	-1.3347	21.194963	0.000831	8.309883	1.407732	-0.000166
1073	1.0666e+02	-1.3536	21.037514	0.000790	7.904522	1.339062	-0.000158
1074	1.0676e+02	-1.3739	20.871992	0.000831	8.309883	1.407732	-0.000166
1075	1.0686e+02	-1.3922	20.714543	0.000790	7.904522	1.339062	-0.000158
1076	1.0696e+02	-1.4129	20.532872	0.000912	9.120603	1.545072	-0.000183
1077	1.0706e+02	-1.4337	20.326978	0.001034	10.336683	1.751082	-0.000207
1078	1.0716e+02	-1.4535	20.185679	0.000709	7.093802	1.201723	-0.000142
1079	1.0726e+02	-1.4730	19.991896	0.000973	9.728643	1.648077	-0.000195
1080	1.0736e+02	-1.4938	19.794077	0.000993	9.931323	1.682412	-0.000199
1081	1.0746e+02	-1.5129	19.681037	0.000568	5.675042	0.961378	-0.000114
1082	1.0756e+02	-1.5338	19.442846	0.001196	11.958124	2.025761	-0.000239
1083	1.0766e+02	-1.5526	19.261175	0.000912	9.120603	1.545072	-0.000183
1084	1.0776e+02	-1.5729	19.111801	0.000750	7.499162	1.270392	-0.000150
1085	1.0786e+02	-1.5924	18.909944	0.001013	10.134003	1.716747	-0.000203
1086	1.0796e+02	-1.6124	18.784793	0.000628	6.283082	1.064383	-0.000126
1087	1.0806e+02	-1.6322	18.550639	0.001176	11.755444	1.991426	-0.000235
1088	1.0816e+02	-1.6531	18.377042	0.000872	8.715243	1.476402	-0.000174
1089	1.0826e+02	-1.6726	18.239779	0.000689	6.891122	1.167388	-0.000138
1090	1.0836e+02	-1.6934	18.041960	0.000993	9.931323	1.682412	-0.000199
1091	1.0845e+02	-1.7124	17.868363	0.000872	8.715243	1.476402	-0.000174
1092	1.0855e+02	-1.7324	17.735137	0.000669	6.688442	1.133053	-0.000134
1093	1.0865e+02	-1.7501	17.513095	0.001115	11.147404	1.888421	-0.000223
1094	1.0875e+02	-1.7726	17.359684	0.000770	7.701842	1.304727	-0.000154
1095	1.0885e+02	-1.7918	17.198198	0.000811	8.107203	1.373397	-0.000162
1096	1.0895e+02	-1.8123	17.000379	0.000993	9.931323	1.682412	-0.000199
1097	1.0905e+02	-1.8310	16.814670	0.000932	9.323283	1.579407	-0.000187
1098	1.0915e+02	-1.8514	16.677408	0.000689	6.891122	1.167388	-0.000138
1099	1.0925e+02	-1.8719	16.495737	0.000912	9.120603	1.545072	-0.000183
1100	1.0935e+02	-1.8920	16.310028	0.000932	9.323283	1.579407	-0.000187
1101	1.0945e+02	-1.9116	16.112209	0.000993	9.931323	1.682412	-0.000199
1102	1.0955e+02	-1.9312	15.938612	0.000872	8.715243	1.476402	-0.000174
1103	1.0965e+02	-1.9510	15.744829	0.000973	9.728643	1.648077	-0.000195
1104	1.0975e+02	-1.9725	15.615641	0.000649	6.485762	1.098718	-0.000130
1105	1.0985e+02	-1.9913	15.458193	0.000790	7.904522	1.339062	-0.000158
1106	1.0995e+02	-2.0110	15.268447	0.000953	9.525963	1.613742	-0.000191
1107	1.1005e+02	-2.0313	15.086776	0.000912	9.120603	1.545072	-0.000183
1108	1.1015e+02	-2.0517	14.897031	0.000953	9.525963	1.613742	-0.000191
1109	1.1025e+02	-2.0702	14.731508	0.000831	8.309883	1.407732	-0.000166
1110	1.1035e+02	-2.0906	14.529652	0.001013	10.134003	1.716747	-0.000203
1111	1.1044e+02	-2.1112	14.420649	0.000547	5.472362	0.927043	-0.000110
1112	1.1054e+02	-2.1307	14.234941	0.000932	9.323283	1.579407	-0.000187
1113	1.1064e+02	-2.1503	14.020972	0.001074	10.742043	1.819751	-0.000215
1114	1.1074e+02	-2.1710	13.851413	0.000851	8.512563	1.442067	-0.000170
1115	1.1084e+02	-2.1908	13.706076	0.000730	7.296482	1.236058	-0.000146
1116	1.1094e+02	-2.2107	13.540553	0.000831	8.309883	1.407732	-0.000166
1117	1.1104e+02	-2.2304	13.375031	0.000831	8.309883	1.407732	-0.000166
1118	1.1114e+02	-2.2498	13.245842	0.000649	6.485762	1.098718	-0.000130
1119	1.1124e+02	-2.2710	13.039948	0.001034	10.336683	1.751082	-0.000207
1120	1.1134e+02	-2.2899	12.846166	0.000973	9.728643	1.648077	-0.000195
1121	1.1144e+02	-2.3100	12.652383	0.000973	9.728643	1.648077	-0.000195
1122	1.1154e+02	-2.3308	12.523195	0.000649	6.485762	1.098718	-0.000130
1123	1.1164e+02	-2.3498	12.341524	0.000912	9.120603	1.545072	-0.000183
1124	1.1174e+02	-2.3709	12.127556	0.001074	10.742043	1.819751	-0.000215
1125	1.1184e+02	-2.3891	11.962033	0.000831	8.309883	1.407732	-0.000166
1126	1.1194e+02	-2.4107	11.812659	0.000750	7.499162	1.270392	-0.000150
1127	1.1204e+02	-2.4298	11.663285	0.000750	7.499162	1.270392	-0.000150
1128	1.1214e+02	-2.4491	11.421057	0.001216	12.160804	2.060096	-0.000243
1129	1.1224e+02	-2.4699	11.291869	0.000649	6.485762	1.098718	-0.000130
1130	1.1234e+02	-2.4896	11.114235	0.000892	8.917923	1.510737	-0.000179
1131	1.1244e+02	-2.5093	10.972935	0.000709	7.093802	1.201723	-0.000142
1132	1.1253e+02	-2.5295	10.742818	0.001155	11.552764	1.957091	-0.000231
1133	1.1263e+02	-2.5492	10.593444	0.000750	7.499162	1.270392	-0.000150
1134	1.1273e+02	-2.5685	10.415810	0.000892	8.917923	1.510737	-0.000179
1135	1.1283e+02	-2.5887	10.246251	0.000851	8.512563	1.442067	-0.000170
1136	1.1293e+02	-2.6080	10.113025	0.000669	6.688442	1.133053	-0.000134
1137	1.1303e+02	-2.6299	9.923280	0.000953	9.525963	1.613742	-0.000191
1138	1.1313e+02	-2.6479	9.725460	0.000993	9.931323	1.682412	-0.000199
1139	1.1323e+02	-2.6691	9.555900	0.000851	8.512563	1.442067	-0.000170
1140	1.1333e+02	-2.6881	9.406526	0.000750	7.499162	1.270392	-0.000150
1141	1.1343e+02	-2.7084	9.192558	0.001074	10.742043	1.819751	-0.000215
1142	1.1353e+02	-2.7283	9.055295	0.000689	6.891122	1.167388	-0.000138
1143	1.1363e+02	-2.7489	8.881699	0.000872	8.715243	1.476402	-0.000174
1144	1.1373e+02	-2.7681	8.740399	0.000709	7.093802	1.201723	-0.000142
1145	1.1383e+02	-2.7883	8.550653	0.000953	9.525963	1.613742	-0.000191
1146	1.1393e+02	-2.8082	8.389168	0.000811	8.107203	1.373397	-0.000162
1147	1.1403e+02	-2.8274	8.219608	0.000851	8.512563	1.442067	-0.000170
1148	1.1413e+02	-2.8484	8.017752	0.001013	10.134003	1.716747	-0.000203
1149	1.1423e+02	-2.8683	7.896638	0.000608	6.080402	1.030048	-0.000122
1150	1.1433e+02	-2.8886	7.747263	0.000750	7.499162	1.270392	-0.000150
1151	1.1442e+02	-2.9079	7.565592	0.000912	9.120603	1.545072	-0.000183
1152	1.1452e+02	-2.9287	7.375847	0.000953	9.525963	1.613742	-0.000191
1153	1.1462e+02	-2.9472	7.210324	0.000831	8.309883	1.407732	-0.000166
1154	1.1472e+02	-2.9678	7.056913	0.000770	7.701842	1.304727	-0.000154
1155	1.1482e+02	-2.9871	6.822759	0.001176	11.755444	1.991426	-0.000235
1156	1.1492e+02	-3.0077	6.729905	0.000466	4.661641	0.789703	-0.000093
1157	1.1502e+02	-3.0273	6.507863	0.001115	11.147404	1.888421	-0.000223
1158	1.1512e+02	-3.0485	6.350415	0.000790	7.904522	1.339062	-0.000158
1159	1.1522e+02	-3.0678	6.209115	0.000709	7.093802	1.201723	-0.000142
1160	1.1532e+02	-3.0872	5.970924	0.001196	11.958124	2.025761	-0.000239
1161	1.1542e+02	-3.1091	5.874032	0.000486	4.864322	0.824038	-0.000097
1162	1.1552e+02	-3.1271	5.720621	0.000770	7.701842	1.304727	-0.000154
1163	1.1562e+02	-3.1472	5.555099	0.000831	8.309883	1.407732	-0.000166
1164	1.1572e+02	-3.1671	5.361316	0.000973	9.728643	1.648077	-0.000195
1165	1.1582e+02	-3.1857	5.207905	0.000770	7.701842	1.304727	-0.000154
1166	1.1592e+02	-3.2062	5.018160	0.000953	9.525963	1.613742	-0.000191
1167	1.1602e+02	-3.2260	4.856674	0.000811	8.107203	1.373397	-0.000162
1168	1.1612e+02	-3.2458	4.719412	0.000689	6.891122	1.167388	-0.000138
1169	1.1622e+02	-3.2665	4.541778	0.000892	8.917923	1.510737	-0.000179
1170	1.1632e+02	-3.2866	4.356069	0.000932	9.323283	1.579407	-0.000187
1171	1.1642e+02	-3.3066	4.222844	0.000669	6.688442	1.133053	-0.000134
1172	1.1651e+02	-3.3266	4.016950	0.001034	10.336683	1.751082	-0.000207
1173	1.1661e+02	-3.3463	3.895836	0.000608	6.080402	1.030048	-0.000122
1174	1.1671e+02	-3.3658	3.698016	0.000993	9.931323	1.682412	-0.000199
1175	1.1681e+02	-3.3862	3.524419	0.000872	8.715243	1.476402	-0.000174
1176	1.1691e+02	-3.4056	3.346786	0.000892	8.917923	1.510737	-0.000179
1177	1.1701e+02	-3.4259	3.177226	0.000851	8.512563	1.442067	-0.000170
1178	1.1711e+02	-3.4457	3.048037	0.000649	6.485762	1.098718	-0.000130
1179	1.1721e+02	-3.4659	2.866366	0.000912	9.120603	1.545072	-0.000183
1180	1.1731e+02	-3.4845	2.676621	0.000953	9.525963	1.613742	-0.000191
1181	1.1741e+02	-3.5052	2.559544	0.000588	5.877722	0.995713	-0.000118
1182	1.1751e+02	-3.5263	2.353650	0.001034	10.336683	1.751082	-0.000207
1183	1.1761e+02	-3.5454	2.196202	0.000790	7.904522	1.339062	-0.000158
1184	1.1771e+02	-3.5663	2.054902	0.000709	7.093802	1.201723	-0.000142
1185	1.1781e+02	-3.5854	1.836897	0.001094	10.944723	1.854086	-0.000219
1186	1.1791e+02	-3.6053	1.699634	0.000689	6.891122	1.167388	-0.000138
1187	1.1801e+02	-3.6241	1.493740	0.001034	10.336683	1.751082	-0.000207
1188	1.1811e+02	-3.6453	1.364552	0.000649	6.485762	1.098718	-0.000130
1189	1.1821e+02	-3.6646	1.199029	0.000831	8.309883	1.407732	-0.000166
1190	1.1831e+02	-3.6850	1.029470	0.000851	8.512563	1.442067	-0.000170
1191	1.1841e+02	-3.7048	0.855873	0.000872	8.715243	1.476402	-0.000174
1192	1.1850e+02	-3.7242	0.678239	0.000892	8.917923	1.510737	-0.000179
1193	1.1860e+02	-3.7448	0.512716	0.000831	8.309883	1.407732	-0.000166
1194	1.1870e+02	-3.7646	0.339119	0.000872	8.715243	1.476402	-0.000174
1195	1.1880e+02	-3.7842	0.181671	0.000790	7.904522	1.339062	-0.000158
1196	1.1890e+02	-3.8036	0.016149	0.000831	8.309883	1.407732	-0.000166
1197	1.1900e+02	-3.8249	-0.137263	0.000770	7.701842	1.304727	-0.000154
1198	1.1910e+02	-3.8441	-0.351231	0.001074	10.742043	1.819751	-0.000215
1199	1.1920e+02	-3.8635	-0.520791	0.000851	8.512563	1.442067	-0.000170
1200	1.1930e+02	-3.8824	-0.645942	0.000628	6.283082	1.064383	-0.000126
1201	1.1940e+02	-3.9034	-0.839724	0.000973	9.728643	1.648077	-0.000195
1202	1.1950e+02	-3.9232	-1.029470	0.000953	9.525963	1.613742	-0.000191
1203	1.1960e+02	-3.9433	-1.170769	0.000709	7.093802	1.201723	-0.000142
1204	1.1970e+02	-3.9641	-1.340329	0.000851	8.512563	1.442067	-0.000170
1205	1.1980e+02	-3.9830	-1.513926	0.000872	8.715243	1.476402	-0.000174
1206	1.1990e+02	-4.0041	-1.695597	0.000912	9.120603	1.545072	-0.000183
1207	1.2000e+02	-4.0234	-1.869194	0.000872	8.715243	1.476402	-0.000174
1208	1.2010e+02	-4.0436	-1.998382	0.000649	6.485762	1.098718	-0.000130
1209	1.2020e+02	-4.0620	-2.171979	0.000872	8.715243	1.476402	-0.000174
1210	1.2030e+02	-4.0842	-2.333464	0.000811	8.107203	1.373397	-0.000162
1211	1.2039e+02	-4.1032	-2.511098	0.000892	8.917923	1.510737	-0.000179
1212	1.2049e+02	-4.1228	-2.676621	0.000831	8.309883	1.407732	-0.000166
1213	1.2059e+02	-4.1428	-2.862329	0.000932	9.323283	1.579407	-0.000187
1214	1.2069e+02	-4.1637	-3.031889	0.000851	8.512563	1.442067	-0.000170
1215	1.2079e+02	-4.1827	-3.193374	0.000811	8.107203	1.373397	-0.000162
1216	1.2089e+02	-4.2026	-3.366971	0.000872	8.715243	1.476402	-0.000174
1217	1.2099e+02	-4.2223	-3.528457	0.000811	8.107203	1.373397	-0.000162
1218	1.2109e+02	-4.2419	-3.706091	0.000892	8.917923	1.510737	-0.000179
1219	1.2119e+02	-4.2635	-3.847390	0.000709	7.093802	1.201723	-0.000142
1220	1.2129e+02	-4.2824	-4.029061	0.000912	9.120603	1.545072	-0.000183
1221	1.2139e+02	-4.3021	-4.170361	0.000709	7.093802	1.201723	-0.000142
1222	1.2149e+02	-4.3234	-4.388367	0.001094	10.944723	1.854086	-0.000219
1223	1.2159e+02	-4.3426	-4.513518	0.000628	6.283082	1.064383	-0.000126
1224	1.2169e+02	-4.3628	-4.683077	0.000851	8.512563	1.442067	-0.000170
1225	1.2179e+02	-4.3819	-4.893009	0.001054	10.539363	1.785416	-0.000211
1226	1.2189e+02	-4.4025	-5.034308	0.000709	7.093802	1.201723	-0.000142
1227	1.2199e+02	-4.4216	-5.211942	0.000892	8.917923	1.510737	-0.000179
1228	1.2209e+02	-4.4418	-5.353242	0.000709	7.093802	1.201723	-0.000142
1229	1.2219e+02	-4.4620	-5.534913	0.000912	9.120603	1.545072	-0.000183
1230	1.2229e+02	-4.4810	-5.680250	0.000730	7.296482	1.236058	-0.000146
1231	1.2239e+02	-4.5011	-5.894218	0.001074	10.742043	1.819751	-0.000215
1232	1.2248e+02	-4.5229	-6.063778	0.000851	8.512563	1.442067	-0.000170
1233	1.2258e+02	-4.5409	-6.209115	0.000730	7.296482	1.236058	-0.000146
1234	1.2268e+02	-4.5624	-6.398860	0.000953	9.525963	1.613742	-0.000191
1235	1.2278e+02	-4.5818	-6.580531	0.000912	9.120603	1.545072	-0.000183
1236	1.2288e+02	-4.6014	-6.758165	0.000892	8.917923	1.510737	-0.000179
1237	1.2298e+02	-4.6211	-6.883316	0.000628	6.283082	1.064383	-0.000126
1238	1.2308e+02	-4.6420	-7.056913	0.000872	8.715243	1.476402	-0.000174
1239	1.2318e+02	-4.6616	-7.226473	0.000851	8.512563	1.442067	-0.000170
1240	1.2328e+02	-4.6808	-7.428330	0.001013	10.134003	1.716747	-0.000203
1241	1.2338e+02	-4.7009	-7.618075	0.000953	9.525963	1.613742	-0.000191
1242	1.2348e+02	-4.7214	-7.787635	0.000851	8.512563	1.442067	-0.000170
1243	1.2358e+02	-4.7418	-7.941046	0.000770	7.701842	1.304727	-0.000154
1244	1.2368e+02	-4.7614	-8.150977	0.001054	10.539363	1.785416	-0.000211
1245	1.2378e+02	-4.7801	-8.284203	0.000669	6.688442	1.133053	-0.000134
1246	1.2388e+02	-4.8003	-8.490096	0.001034	10.336683	1.751082	-0.000207
1247	1.2398e+02	-4.8203	-8.659656	0.000851	8.512563	1.442067	-0.000170
1248	1.2408e+02	-4.8401	-8.853439	0.000973	9.728643	1.648077	-0.000195
1249	1.2418e+02	-4.8607	-9.018961	0.000831	8.309883	1.407732	-0.000166
1250	1.2428e+02	-4.8807	-9.156224	0.000689	6.891122	1.167388	-0.000138
1251	1.2438e+02	-4.8999	-9.321746	0.000831	8.309883	1.407732	-0.000166
1252	1.2447e+02	-4.9197	-9.523603	0.001013	10.134003	1.716747	-0.000203
1253	1.2457e+02	-4.9406	-9.693163	0.000851	8.512563	1.442067	-0.000170
1254	1.2467e+02	-4.9594	-9.870797	0.000892	8.917923	1.510737	-0.000179
1255	1.2477e+02	-4.9792	-10.100914	0.001155	11.552764	1.957091	-0.000231
1256	1.2487e+02	-5.0000	-10.234139	0.000669	6.688442	1.133053	-0.000134
1257	1.2497e+02	-5.0208	-10.407736	0.000872	8.715243	1.476402	-0.000174
1258	1.2507e+02	-5.0401	-10.593444	0.000932	9.323283	1.579407	-0.000187
1259	1.2517e+02	-5.0591	-10.767041	0.000872	8.715243	1.476402	-0.000174
1260	1.2527e+02	-5.0790	-10.908341	0.000709	7.093802	1.201723	-0.000142
1261	1.2537e+02	-5.0992	-11.102123	0.000973	9.728643	1.648077	-0.000195
1262	1.2547e+02	-5.1190	-11.271683	0.000851	8.512563	1.442067	-0.000170
1263	1.2557e+02	-5.1392	-11.453354	0.000912	9.120603	1.545072	-0.000183
1264	1.2567e+02	-5.1587	-11.602728	0.000750	7.499162	1.270392	-0.000150
1265	1.2577e+02	-5.1787	-11.800548	0.000993	9.931323	1.682412	-0.000199
1266	1.2587e+02	-5.1999	-11.986256	0.000932	9.323283	1.579407	-0.000187
1267	1.2597e+02	-5.2192	-12.171964	0.000932	9.323283	1.579407	-0.000187
1268	1.2607e+02	-5.2391	-12.353635	0.000912	9.120603	1.545072	-0.000183
1269	1.2617e+02	-5.2597	-12.519158	0.000831	8.309883	1.407732	-0.000166
1270	1.2627e+02	-5.2789	-12.745238	0.001135	11.350084	1.922756	-0.000227
1271	1.2636e+02	-5.2988	-12.886537	0.000709	7.093802	1.201723	-0.000142
1272	1.2646e+02	-5.3183	-13.072246	0.000932	9.323283	1.579407	-0.000187
1273	1.2656e+02	-5.3384	-13.229694	0.000790	7.904522	1.339062	-0.000158
1274	1.2666e+02	-5.3586	-13.395216	0.000831	8.309883	1.407732	-0.000166
1275	1.2676e+02	-5.3784	-13.572850	0.000892	8.917923	1.510737	-0.000179
1276	1.2686e+02	-5.3989	-13.766633	0.000973	9.728643	1.648077	-0.000195
1277	1.2696e+02	-5.4175	-13.964453	0.000993	9.931323	1.682412	-0.000199
1278	1.2706e+02	-5.4381	-14.093641	0.000649	6.485762	1.098718	-0.000130
1279	1.2716e+02	-5.4578	-14.307609	0.001074	10.742043	1.819751	-0.000215
1280	1.2726e+02	-5.4779	-14.465057	0.000790	7.904522	1.339062	-0.000158
1281	1.2736e+02	-5.4969	-14.662877	0.000993	9.931323	1.682412	-0.000199
1282	1.2746e+02	-5.5182	-14.897031	0.001176	11.755444	1.991426	-0.000235
1283	1.2756e+02	-5.5382	-14.997959	0.000507	5.067002	0.858373	-0.000101
1284	1.2766e+02	-5.5574	-15.203853	0.001034	10.336683	1.751082	-0.000207
1285	1.2776e+02	-5.5777	-15.393599	0.000953	9.525963	1.613742	-0.000191
1286	1.2786e+02	-5.5977	-15.514713	0.000608	6.080402	1.030048	-0.000122
1287	1.2796e+02	-5.6171	-15.712532	0.000993	9.931323	1.682412	-0.000199
1288	1.2806e+02	-5.6366	-15.922463	0.001054	10.539363	1.785416	-0.000211
1289	1.2816e+02	-5.6573	-16.116246	0.000973	9.728643	1.648077	-0.000195
1290	1.2826e+02	-5.6767	-16.293880	0.000892	8.917923	1.510737	-0.000179
1291	1.2835e+02	-5.6973	-16.487662	0.000973	9.728643	1.648077	-0.000195
1292	1.2845e+02	-5.7170	-16.641074	0.000770	7.701842	1.304727	-0.000154
1293	1.2855e+02	-5.7373	-16.842930	0.001013	10.134003	1.716747	-0.000203
1294	1.2865e+02	-5.7573	-17.052861	0.001054	10.539363	1.785416	-0.000211
1295	1.2875e+02	-5.7764	-17.210310	0.000790	7.904522	1.339062	-0.000158
1296	1.2885e+02	-5.7959	-17.351609	0.000709	7.093802	1.201723	-0.000142
1297	1.2895e+02	-5.8173	-17.593838	0.001216	12.160804	2.060096	-0.000243
1298	1.2905e+02	-5.8365	-17.807806	0.001074	10.742043	1.819751	-0.000215
1299	1.2915e+02	-5.8557	-17.949105	0.000709	7.093802	1.201723	-0.000142
1300	1.2925e+02	-5.8766	-18.126739	0.000892	8.917923	1.510737	-0.000179
1301	1.2935e+02	-5.8969	-18.284188	0.000790	7.904522	1.339062	-0.000158
1302	1.2945e+02	-5.9164	-18.554676	0.001358	13.579564	2.300440	-0.000272
1303	1.2955e+02	-5.9363	-18.691938	0.000689	6.891122	1.167388	-0.000138
1304	1.2965e+02	-5.9563	-18.873610	0.000912	9.120603	1.545072	-0.000183
1305	1.2975e+02	-5.9756	-19.079503	0.001034	10.336683	1.751082	-0.000207
1306	1.2985e+02	-5.9959	-19.261175	0.000912	9.120603	1.545072	-0.000183
1307	1.2995e+02	-6.0168	-19.426697	0.000831	8.309883	1.407732	-0.000166
1308	1.3005e+02	-6.0355	-19.616443	0.000953	9.525963	1.613742	-0.000191
1309	1.3015e+02	-6.0550	-19.822336	0.001034	10.336683	1.751082	-0.000207
1310	1.3025e+02	-6.0767	-20.040342	0.001094	10.944723	1.854086	-0.000219
1311	1.3034e+02	-6.0965	-20.209902	0.000851	8.512563	1.442067	-0.000170
1312	1.3044e+02	-6.1160	-20.391573	0.000912	9.120603	1.545072	-0.000183
1313	1.3054e+02	-6.1359	-20.589392	0.000993	9.931323	1.682412	-0.000199
1314	1.3064e+02	-6.1568	-20.795286	0.001034	10.336683	1.751082	-0.000207
1315	1.3074e+02	-6.1758	-20.920437	0.000628	6.283082	1.064383	-0.000126
1316	1.3084e+02	-6.1960	-21.166703	0.001236	12.363484	2.094431	-0.000248
1317	1.3094e+02	-6.2163	-21.324151	0.000790	7.904522	1.339062	-0.000158
1318	1.3104e+02	-6.2363	-21.554268	0.001155	11.552764	1.957091	-0.000231
1319	1.3114e+02	-6.2555	-21.719790	0.000831	8.309883	1.407732	-0.000166
1320	1.3124e+02	-6.2747	-21.901461	0.000912	9.120603	1.545072	-0.000183
1321	1.3134e+02	-6.2952	-22.099281	0.000993	9.931323	1.682412	-0.000199
1322	1.3144e+02	-6.3147	-22.301138	0.001013	10.134003	1.716747	-0.000203
1323	1.3154e+02	-6.3345	-22.450512	0.000750	7.499162	1.270392	-0.000150
1324	1.3164e+02	-6.3548	-22.688703	0.001196	11.958124	2.025761	-0.000239
1325	1.3174e+02	-6.3742	-22.866337	0.000892	8.917923	1.510737	-0.000179
1326	1.3184e+02	-6.3945	-23.060119	0.000973	9.728643	1.648077	-0.000195
1327	1.3194e+02	-6.4142	-23.237753	0.000892	8.917923	1.510737	-0.000179
1328	1.3204e+02	-6.4340	-23.435573	0.000993	9.931323	1.682412	-0.000199
1329	1.3214e+02	-6.4543	-23.621281	0.000932	9.323283	1.579407	-0.000187
1330	1.3224e+02	-6.4737	-23.831212	0.001054	10.539363	1.785416	-0.000211
1331	1.3234e+02	-6.4935	-24.004809	0.000872	8.715243	1.476402	-0.000174
1332	1.3243e+02	-6.5143	-24.210703	0.001034	10.336683	1.751082	-0.000207
1333	1.3253e+02	-6.5338	-24.412560	0.001013	10.134003	1.716747	-0.000203
1334	1.3263e+02	-6.5538	-24.634602	0.001115	11.147404	1.888421	-0.000223
1335	1.3273e+02	-6.5735	-24.820311	0.000932	9.323283	1.579407	-0.000187
1336	1.3283e+02	-6.5936	-24.985833	0.000831	8.309883	1.407732	-0.000166
1337	1.3293e+02	-6.6141	-25.171541	0.000932	9.323283	1.579407	-0.000187
1338	1.3303e+02	-6.6330	-25.353212	0.000912	9.120603	1.545072	-0.000183
1339	1.3313e+02	-6.6530	-25.563143	0.001054	10.539363	1.785416	-0.000211
1340	1.3323e+02	-6.6743	-25.760963	0.000993	9.931323	1.682412	-0.000199
1341	1.3333e+02	-6.6936	-25.974931	0.001074	10.742043	1.819751	-0.000215
1342	1.3343e+02	-6.7139	-26.172751	0.000993	9.931323	1.682412	-0.000199
1343	1.3353e+02	-6.7327	-26.358459	0.000932	9.323283	1.579407	-0.000187
1344	1.3363e+02	-6.7525	-26.576465	0.001094	10.944723	1.854086	-0.000219
1345	1.3373e+02	-6.7734	-26.774284	0.000993	9.931323	1.682412	-0.000199
1346	1.3383e+02	-6.7931	-26.976141	0.001013	10.134003	1.716747	-0.000203
1347	1.3393e+02	-6.8127	-27.173961	0.000993	9.931323	1.682412	-0.000199
1348	1.3403e+02	-6.8335	-27.343520	0.000851	8.512563	1.442067	-0.000170
1349	1.3413e+02	-6.8529	-27.593823	0.001257	12.566164	2.128766	-0.000252
1350	1.3423e+02	-6.8732	-27.783568	0.000953	9.525963	1.613742	-0.000191
1351	1.3432e+02	-6.8922	-27.965239	0.000912	9.120603	1.545072	-0.000183
1352	1.3442e+02	-6.9135	-28.179207	0.001074	10.742043	1.819751	-0.000215
1353	1.3452e+02	-6.9315	-28.397213	0.001094	10.944723	1.854086	-0.000219
1354	1.3462e+02	-6.9525	-28.615218	0.001094	10.944723	1.854086	-0.000219
1355	1.3472e+02	-6.9733	-28.829186	0.001074	10.742043	1.819751	-0.000215
1356	1.3482e+02	-6.9925	-29.031043	0.001013	10.134003	1.716747	-0.000203
1357	1.3492e+02	-7.0126	-29.216751	0.000932	9.323283	1.579407	-0.000187
1358	1.3502e+02	-7.0325	-29.430720	0.001074	10.742043	1.819751	-0.000215
1359	1.3512e+02	-7.0520	-29.676985	0.001236	12.363484	2.094431	-0.000248
1360	1.3522e+02	-7.0715	-29.854619	0.000892	8.917923	1.510737	-0.000179
1361	1.3532e+02	-7.0915	-30.096847	0.001216	12.160804	2.060096	-0.000243
1362	1.3542e+02	-7.1124	-30.347149	0.001257	12.566164	2.128766	-0.000252
1363	1.3552e+02	-7.1326	-30.500561	0.000770	7.701842	1.304727	-0.000154
1364	1.3562e+02	-7.1524	-30.738752	0.001196	11.958124	2.025761	-0.000239
1365	1.3572e+02	-7.1719	-30.920423	0.000912	9.120603	1.545072	-0.000183
1366	1.3582e+02	-7.1907	-31.170725	0.001257	12.566164	2.128766	-0.000252
1367	1.3592e+02	-7.2113	-31.372582	0.001013	10.134003	1.716747	-0.000203
1368	1.3602e+02	-7.2311	-31.574439	0.001013	10.134003	1.716747	-0.000203
1369	1.3612e+02	-7.2507	-31.796481	0.001115	11.147404	1.888421	-0.000223
1370	1.3622e+02	-7.2711	-32.014486	0.001094	10.944723	1.854086	-0.000219
1371	1.3631e+02	-7.2919	-32.289012	0.001378	13.782244	2.334775	-0.000276
1372	1.3641e+02	-7.3102	-32.442423	0.000770	7.701842	1.304727	-0.000154
1373	1.3651e+02	-7.3320	-32.684651	0.001216	12.160804	2.060096	-0.000243
1374	1.3661e+02	-7.3505	-32.938990	0.001277	12.768844	2.163101	-0.000256
1375	1.3671e+02	-7.3709	-33.108550	0.000851	8.512563	1.442067	-0.000170
1376	1.3681e+02	-7.3907	-33.350778	0.001216	12.160804	2.060096	-0.000243
1377	1.3691e+02	-7.4103	-33.576858	0.001135	11.350084	1.922756	-0.000227
1378	1.3701e+02	-7.4301	-33.778715	0.001013	10.134003	1.716747	-0.000203
1379	1.3711e+02	-7.4500	-34.020943	0.001216	12.160804	2.060096	-0.000243
1380	1.3721e+02	-7.4706	-34.275282	0.001277	12.768844	2.163101	-0.000256
1381	1.3731e+02	-7.4907	-34.501362	0.001135	11.350084	1.922756	-0.000227
1382	1.3741e+02	-7.5098	-34.711293	0.001054	10.539363	1.785416	-0.000211
1383	1.3751e+02	-7.5296	-34.953521	0.001216	12.160804	2.060096	-0.000243
1384	1.3761e+02	-7.5504	-35.207861	0.001277	12.768844	2.163101	-0.000256
1385	1.3771e+02	-7.5700	-35.385495	0.000892	8.917923	1.510737	-0.000179
1386	1.3781e+02	-7.5888	-35.627723	0.001216	12.160804	2.060096	-0.000243
1387	1.3791e+02	-7.6093	-35.861877	0.001176	11.755444	1.991426	-0.000235
1388	1.3801e+02	-7.6291	-36.120253	0.001297	12.971524	2.197436	-0.000260
1389	1.3811e+02	-7.6483	-36.346333	0.001135	11.350084	1.922756	-0.000227
1390	1.3821e+02	-7.6697	-36.584524	0.001196	11.958124	2.025761	-0.000239
1391	1.3831e+02	-7.6898	-36.782344	0.000993	9.931323	1.682412	-0.000199
1392	1.3840e+02	-7.7097	-37.056869	0.001378	13.782244	2.334775	-0.000276
1393	1.3850e+02	-7.7281	-37.307171	0.001257	12.566164	2.128766	-0.000252
1394	1.3860e+02	-7.7489	-37.553437	0.001236	12.363484	2.094431	-0.000248
1395	1.3870e+02	-7.7685	-37.799702	0.001236	12.363484	2.094431	-0.000248
1396	1.3880e+02	-7.7890	-38.005596	0.001034	10.336683	1.751082	-0.000207
1397	1.3890e+02	-7.8088	-38.239750	0.001176	11.755444	1.991426	-0.000235
1398	1.3900e+02	-7.8290	-38.494089	0.001277	12.768844	2.163101	-0.000256
1399	1.3910e+02	-7.8479	-38.756503	0.001317	13.174204	2.231771	-0.000264
1400	1.3920e+02	-7.8677	-39.018917	0.001317	13.174204	2.231771	-0.000264
1401	1.3930e+02	-7.8876	-39.257108	0.001196	11.958124	2.025761	-0.000239
1402	1.3940e+02	-7.9073	-39.495299	0.001196	11.958124	2.025761	-0.000239
1403	1.3950e+02	-7.9283	-39.773861	0.001398	13.984924	2.369110	-0.000280
1404	1.3960e+02	-7.9482	-40.044349	0.001358	13.579564	2.300440	-0.000272
1405	1.3970e+02	-7.9683	-40.266392	0.001115	11.147404	1.888421	-0.000223
1406	1.3980e+02	-7.9875	-40.577251	0.001561	15.606365	2.643790	-0.000312
1407	1.3990e+02	-8.0075	-40.811405	0.001176	11.755444	1.991426	-0.000235
1408	1.4000e+02	-8.0286	-41.089968	0.001398	13.984924	2.369110	-0.000280
1409	1.4010e+02	-8.0475	-41.344307	0.001277	12.768844	2.163101	-0.000256
1410	1.4020e+02	-8.0678	-41.614795	0.001358	13.579564	2.300440	-0.000272
1411	1.4029e+02	-8.0881	-41.852986	0.001196	11.958124	2.025761	-0.000239
1412	1.4039e+02	-8.1076	-42.131549	0.001398	13.984924	2.369110	-0.000280
1413	1.4049e+02	-8.1271	-42.381851	0.001257	12.566164	2.128766	-0.000252
1414	1.4059e+02	-8.1476	-42.680599	0.001500	14.998325	2.540785	-0.000300
1415	1.4069e+02	-8.1676	-42.975310	0.001480	14.795645	2.506450	-0.000296
1416	1.4079e+02	-8.1866	-43.270021	0.001480	14.795645	2.506450	-0.000296
1417	1.4089e+02	-8.2077	-43.504175	0.001176	11.755444	1.991426	-0.000235
1418	1.4099e+02	-8.2275	-43.819071	0.001581	15.809045	2.678125	-0.000316
1419	1.4109e+02	-8.2477	-44.081485	0.001317	13.174204	2.231771	-0.000264
1420	1.4119e+02	-8.2666	-44.339862	0.001297	12.971524	2.197436	-0.000260
1421	1.4129e+02	-8.2870	-44.630536	0.001459	14.592965	2.472115	-0.000292
1422	1.4139e+02	-8.3076	-44.957544	0.001642	16.417085	2.781130	-0.000329
1423	1.4149e+02	-8.3263	-45.248217	0.001459	14.592965	2.472115	-0.000292
1424	1.4159e+02	-8.3466	-45.506594	0.001297	12.971524	2.197436	-0.000260
1425	1.4169e+02	-8.3664	-45.801305	0.001480	14.795645	2.506450	-0.000296
1426	1.4179e+02	-8.3859	-46.104090	0.001520	15.201005	2.575120	-0.000304
1427	1.4189e+02	-8.4057	-46.366504	0.001317	13.174204	2.231771	-0.000264
1428	1.4199e+02	-8.4265	-46.669289	0.001520	15.201005	2.575120	-0.000304
1429	1.4209e+02	-8.4460	-46.984186	0.001581	15.809045	2.678125	-0.000316
1430	1.4219e+02	-8.4654	-47.234488	0.001257	12.566164	2.128766	-0.000252
1431	1.4228e+02	-8.4851	-47.593793	0.001804	18.038526	3.055809	-0.000361
1432	1.4238e+02	-8.5056	-47.900616	0.001540	15.403685	2.609455	-0.000308
1433	1.4248e+02	-8.5266	-48.203401	0.001520	15.201005	2.575120	-0.000304
1434	1.4258e+02	-8.5463	-48.490037	0.001439	14.390285	2.437780	-0.000288
1435	1.4268e+02	-8.5657	-48.804934	0.001581	15.809045	2.678125	-0.000316
1436	1.4278e+02	-8.5860	-49.127905	0.001621	16.214405	2.746795	-0.000325
1437	1.4288e+02	-8.6046	-49.426653	0.001500	14.998325	2.540785	-0.000300
1438	1.4298e+02	-8.6258	-49.773847	0.001743	17.430485	2.952804	-0.000349
1439	1.4308e+02	-8.6449	-50.060483	0.001439	14.390285	2.437780	-0.000288
1440	1.4318e+02	-8.6656	-50.431900	0.001865	18.646566	3.158814	-0.000373
1441	1.4328e+02	-8.6848	-50.718536	0.001439	14.390285	2.437780	-0.000288
1442	1.4338e+02	-8.7050	-51.053619	0.001682	16.822445	2.849799	-0.000337
1443	1.4348e+02	-8.7251	-51.396775	0.001723	17.227805	2.918469	-0.000345
1444	1.4358e+02	-8.7451	-51.723783	0.001642	16.417085	2.781130	-0.000329
1445	1.4368e+02	-8.7646	-52.038680	0.001581	15.809045	2.678125	-0.000316
1446	1.4378e+02	-8.7846	-52.385873	0.001743	17.430485	2.952804	-0.000349
1447	1.4388e+02	-8.8045	-52.733067	0.001743	17.430485	2.952804	-0.000349
1448	1.4398e+02	-8.8245	-53.080261	0.001743	17.430485	2.952804	-0.000349
1449	1.4408e+02	-8.8434	-53.419380	0.001703	17.025125	2.884134	-0.000341
1450	1.4418e+02	-8.8635	-53.722165	0.001520	15.201005	2.575120	-0.000304
1451	1.4428e+02	-8.8848	-54.089545	0.001844	18.443886	3.124479	-0.000369
1452	1.4437e+02	-8.9047	-54.452887	0.001824	18.241206	3.090144	-0.000365
1453	1.4447e+02	-8.9236	-54.828340	0.001885	18.849246	3.193149	-0.000377
1454	1.4457e+02	-8.9427	-55.147274	0.001601	16.011725	2.712460	-0.000321
1455	1.4467e+02	-8.9644	-55.510616	0.001824	18.241206	3.090144	-0.000365
1456	1.4477e+02	-8.9839	-55.934516	0.002128	21.281407	3.605168	-0.000426
1457	1.4487e+02	-9.0036	-56.273635	0.001703	17.025125	2.884134	-0.000341
1458	1.4497e+02	-9.0231	-56.592569	0.001601	16.011725	2.712460	-0.000321
1459	1.4507e+02	-9.0440	-56.984171	0.001966	19.659966	3.330488	-0.000394
1460	1.4517e+02	-9.0628	-57.343476	0.001804	18.038526	3.055809	-0.000361
1461	1.4527e+02	-9.0839	-57.751227	0.002047	20.470686	3.467828	-0.000410
1462	1.4537e+02	-9.1036	-58.154940	0.002027	20.268006	3.433493	-0.000406
1463	1.4547e+02	-9.1238	-58.530394	0.001885	18.849246	3.193149	-0.000377
1464	1.4557e+02	-9.1443	-58.905848	0.001885	18.849246	3.193149	-0.000377
1465	1.4567e+02	-9.1632	-59.289375	0.001925	19.254606	3.261819	-0.000385
1466	1.4577e+02	-9.1827	-59.729423	0.002209	22.092127	3.742508	-0.000442
1467	1.4587e+02	-9.2036	-60.104877	0.001885	18.849246	3.193149	-0.000377
1468	1.4597e+02	-9.2224	-60.500516	0.001986	19.862646	3.364823	-0.000398
1469	1.4607e+02	-9.2430	-60.900193	0.002007	20.065326	3.399158	-0.000402
1470	1.4617e+02	-9.2622	-61.279683	0.001905	19.051926	3.227484	-0.000381
1471	1.4626e+02	-9.2833	-61.711657	0.002169	21.686767	3.673838	-0.000434
1472	1.4636e+02	-9.3030	-62.139593	0.002148	21.484087	3.639503	-0.000430
1473	1.4646e+02	-9.3214	-62.543307	0.002027	20.268006	3.433493	-0.000406
1474	1.4656e+02	-9.3433	-62.991429	0.002250	22.497487	3.811177	-0.000450
1475	1.4666e+02	-9.3625	-63.427440	0.002189	21.889447	3.708173	-0.000438
1476	1.4676e+02	-9.3823	-63.871525	0.002229	22.294807	3.776843	-0.000446
1477	1.4686e+02	-9.4017	-64.287349	0.002088	20.876047	3.536498	-0.000418
1478	1.4696e+02	-9.4231	-64.739509	0.002270	22.700167	3.845512	-0.000454
1479	1.4706e+02	-9.4431	-65.151297	0.002067	20.673367	3.502163	-0.000414
1480	1.4716e+02	-9.4617	-65.611530	0.002311	23.105527	3.914182	-0.000463
1481	1.4726e+02	-9.4826	-66.087912	0.002392	23.916248	4.051522	-0.000479
1482	1.4736e+02	-9.5015	-66.548146	0.002311	23.105527	3.914182	-0.000463
1483	1.4746e+02	-9.5224	-66.963970	0.002088	20.876047	3.536498	-0.000418
1484	1.4756e+02	-9.5415	-67.404018	0.002209	22.092127	3.742508	-0.000442
1485	1.4766e+02	-9.5609	-67.892512	0.002452	24.524288	4.154527	-0.000491
1486	1.4776e+02	-9.5816	-68.368894	0.002392	23.916248	4.051522	-0.000479
1487	1.4786e+02	-9.6004	-68.808942	0.002209	22.092127	3.742508	-0.000442
1488	1.4796e+02	-9.6216	-69.277249	0.002351	23.510887	3.982852	-0.000471
1489	1.4806e+02	-9.6420	-69.810151	0.002675	26.753768	4.532211	-0.000536
1490	1.4816e+02	-9.6619	-70.270385	0.002311	23.105527	3.914182	-0.000463
1491	1.4825e+02	-9.6808	-70.795212	0.002635	26.348408	4.463541	-0.000527
1492	1.4835e+02	-9.7003	-71.316003	0.002615	26.145728	4.429206	-0.000523
1493	1.4845e+02	-9.7206	-71.812571	0.002493	24.929648	4.223197	-0.000499
1494	1.4855e+02	-9.7401	-72.301064	0.002452	24.524288	4.154527	-0.000491
1495	1.4865e+02	-9.7614	-72.838003	0.002696	26.956448	4.566546	-0.000540
1496	1.4875e+02	-9.7810	-73.298236	0.002311	23.105527	3.914182	-0.000463
1497	1.4885e+02	-9.8001	-73.806916	0.002554	25.537688	4.326201	-0.000511
1498	1.4895e+02	-9.8203	-74.380189	0.002878	28.780569	4.875560	-0.000576
1499	1.4905e+02	-9.8401	-74.884831	0.002534	25.335008	4.291867	-0.000507
1500	1.4915e+02	-9.8604	-75.401584	0.002594	25.943048	4.394871	-0.000519
1501	1.4925e+02	-9.8804	-75.982932	0.002919	29.185929	4.944230	-0.000584
1502	1.4935e+02	-9.8996	-76.527945	0.002736	27.361809	4.635216	-0.000548
1503	1.4945e+02	-9.9203	-77.068921	0.002716	27.159129	4.600881	-0.000544
1504	1.4955e+02	-9.9396	-77.634120	0.002838	28.375209	4.806891	-0.000568
1505	1.4965e+02	-9.9611	-78.179134	0.002736	27.361809	4.635216	-0.000548
1506	1.4975e+02	-9.9802	-78.764518	0.002939	29.388609	4.978565	-0.000588
1507	1.4985e+02	-9.9998	-79.353940	0.002959	29.591289	5.012900	-0.000592
1508	1.4995e+02	-9.9796	-79.749579	-0.001986	-19.862646	-3.364823	-0.000398
1509	1.5005e+02	-9.9591	-80.149256	-0.002007	-20.065326	-3.399158	-0.000402
1510	1.5015e+02	-9.9391	-80.484338	-0.001682	-16.822445	-2.849799	-0.000337
1511	1.5025e+02	-9.9200	-80.831532	-0.001743	-17.430485	-2.952804	-0.000349
1512	1.5034e+02	-9.9004	-81.198911	-0.001844	-18.443886	-3.124479	-0.000369
1513	1.5044e+02	-9.8807	-81.509771	-0.001561	-15.606365	-2.643790	-0.000312
1514	1.5054e+02	-9.8610	-81.848890	-0.001703	-17.025125	-2.884134	-0.000341
1515	1.5064e+02	-9.8413	-82.212232	-0.001824	-18.241206	-3.090144	-0.000365
1516	1.5074e+02	-9.8193	-82.498869	-0.001439	-14.390285	-2.437780	-0.000288
1517	1.5084e+02	-9.7998	-82.789543	-0.001459	-14.592965	-2.472115	-0.000292
1518	1.5094e+02	-9.7818	-83.072142	-0.001419	-14.187604	-2.403445	-0.000284
1519	1.5104e+02	-9.7607	-83.370890	-0.001500	-14.998325	-2.540785	-0.000300
1520	1.5114e+02	-9.7400	-83.673675	-0.001520	-15.201005	-2.575120	-0.000304
1521	1.5124e+02	-9.7202	-83.923978	-0.001257	-12.566164	-2.128766	-0.000252
1522	1.5134e+02	-9.7011	-84.154094	-0.001155	-11.552764	-1.957091	-0.000231
1523	1.5144e+02	-9.6808	-84.420545	-0.001338	-13.376884	-2.266106	-0.000268
1524	1.5154e+02	-9.6606	-84.691034	-0.001358	-13.579564	-2.300440	-0.000272
1525	1.5164e+02	-9.6417	-84.937299	-0.001236	-12.363484	-2.094431	-0.000248
1526	1.5174e+02	-9.6211	-85.163378	-0.001135	-11.350084	-1.922756	-0.000227
1527	1.5184e+02	-9.6014	-85.357161	-0.000973	-9.728643	-1.648077	-0.000195
1528	1.5194e+02	-9.5805	-85.603426	-0.001236	-12.363484	-2.094431	-0.000248
1529	1.5204e+02	-9.5609	-85.837580	-0.001176	-11.755444	-1.991426	-0.000235
1530	1.5214e+02	-9.5428	-86.083845	-0.001236	-12.363484	-2.094431	-0.000248
1531	1.5224e+02	-9.5229	-86.269554	-0.000932	-9.323283	-1.579407	-0.000187
1532	1.5233e+02	-9.5020	-86.475448	-0.001034	-10.336683	-1.751082	-0.000207
1533	1.5243e+02	-9.4820	-86.657119	-0.000912	-9.120603	-1.545072	-0.000183
1534	1.5253e+02	-9.4614	-86.838790	-0.000912	-9.120603	-1.545072	-0.000183
1535	1.5263e+02	-9.4421	-86.980089	-0.000709	-7.093802	-1.201723	-0.000142
1536	1.5273e+02	-9.4220	-87.222318	-0.001216	-12.160804	-2.060096	-0.000243
1537	1.5283e+02	-9.4017	-87.399952	-0.000892	-8.917923	-1.510737	-0.000179
1538	1.5293e+02	-9.3823	-87.565474	-0.000831	-8.309883	-1.407732	-0.000166
1539	1.5303e+02	-9.3617	-87.722922	-0.000790	-7.904522	-1.339062	-0.000158
1540	1.5313e+02	-9.3420	-87.900556	-0.000892	-8.917923	-1.510737	-0.000179
1541	1.5323e+02	-9.3225	-88.041856	-0.000709	-7.093802	-1.201723	-0.000142
1542	1.5333e+02	-9.3024	-88.211416	-0.000851	-8.512563	-1.442067	-0.000170
1543	1.5343e+02	-9.2836	-88.340604	-0.000649	-6.485762	-1.098718	-0.000130
1544	1.5353e+02	-9.2624	-88.502090	-0.000811	-8.107203	-1.373397	-0.000162
1545	1.5363e+02	-9.2435	-88.607055	-0.000527	-5.269682	-0.892708	-0.000105
1546	1.5373e+02	-9.2227	-88.776615	-0.000851	-8.512563	-1.442067	-0.000170
1547	1.5383e+02	-9.2027	-88.865432	-0.000446	-4.458961	-0.755369	-0.000089
1548	1.5393e+02	-9.1824	-89.018843	-0.000770	-7.701842	-1.304727	-0.000154
1549	1.5403e+02	-9.1629	-89.111697	-0.000466	-4.661641	-0.789703	-0.000093
1550	1.5413e+02	-9.1431	-89.257034	-0.000730	-7.296482	-1.236058	-0.000146
1551	1.5422e+02	-9.1226	-89.406408	-0.000750	-7.499162	-1.270392	-0.000150
1552	1.5432e+02	-9.1039	-89.491188	-0.000426	-4.256281	-0.721034	-0.000085
1553	1.5442e+02	-9.0831	-89.608265	-0.000588	-5.877722	-0.995713	-0.000118
1554	1.5452e+02	-9.0631	-89.684970	-0.000385	-3.850921	-0.652364	-0.000077
1555	1.5462e+02	-9.0439	-89.802047	-0.000588	-5.877722	-0.995713	-0.000118
1556	1.5472e+02	-9.0245	-89.886827	-0.000426	-4.256281	-0.721034	-0.000085
1557	1.5482e+02	-9.0042	-90.003904	-0.000588	-5.877722	-0.995713	-0.000118
1558	1.5492e+02	-8.9838	-90.056387	-0.000263	-2.634841	-0.446354	-0.000053
1559	1.5502e+02	-8.9639	-90.173464	-0.000588	-5.877722	-0.995713	-0.000118
1560	1.5512e+02	-8.9432	-90.286504	-0.000568	-5.675042	-0.961378	-0.000114
1561	1.5522e+02	-8.9236	-90.363209	-0.000385	-3.850921	-0.652364	-0.000077
1562	1.5532e+02	-8.9049	-90.411655	-0.000243	-2.432161	-0.412019	-0.000049
1563	1.5542e+02	-8.8840	-90.472212	-0.000304	-3.040201	-0.515024	-0.000061
1564	1.5552e+02	-8.8649	-90.552955	-0.000405	-4.053601	-0.686699	-0.000081
1565	1.5562e+02	-8.8440	-90.641772	-0.000446	-4.458961	-0.755369	-0.000089
1566	1.5572e+02	-8.8249	-90.694254	-0.000263	-2.634841	-0.446354	-0.000053
1567	1.5582e+02	-8.8049	-90.742700	-0.000243	-2.432161	-0.412019	-0.000049
1568	1.5592e+02	-8.7848	-90.815368	-0.000365	-3.648241	-0.618029	-0.000073
1569	1.5602e+02	-8.7651	-90.908223	-0.000466	-4.661641	-0.789703	-0.000093
1570	1.5612e+02	-8.7447	-90.940520	-0.000162	-1.621441	-0.274679	-0.000032
1571	1.5622e+02	-8.7248	-90.997040	-0.000284	-2.837521	-0.480689	-0.000057
1572	1.5631e+02	-8.7048	-91.029337	-0.000162	-1.621441	-0.274679	-0.000032
1573	1.5641e+02	-8.6856	-91.114116	-0.000426	-4.256281	-0.721034	-0.000085
1574	1.5651e+02	-8.6646	-91.162562	-0.000243	-2.432161	-0.412019	-0.000049
1575	1.5661e+02	-8.6462	-91.198896	-0.000182	-1.824121	-0.309014	-0.000037
1576	1.5671e+02	-8.6252	-91.231193	-0.000162	-1.621441	-0.274679	-0.000032
1577	1.5681e+02	-8.6060	-91.259453	-0.000142	-1.418760	-0.240345	-0.000028
1578	1.5691e+02	-8.5837	-91.291750	-0.000162	-1.621441	-0.274679	-0.000032
1579	1.5701e+02	-8.5660	-91.356345	-0.000324	-3.242881	-0.549359	-0.000065
1580	1.5711e+02	-8.5461	-91.352307	0.000020	0.202680	0.034335	0.000004
1581	1.5721e+02	-8.5255	-91.445162	-0.000466	-4.661641	-0.789703	-0.000093
1582	1.5731e+02	-8.5059	-91.457273	-0.000061	-0.608040	-0.103005	-0.000012
1583	1.5741e+02	-8.4858	-91.457273	0.000000	0.000000	0.000000	0.000000
1584	1.5751e+02	-8.4660	-91.505719	-0.000243	-2.432161	-0.412019	-0.000049
1585	1.5761e+02	-8.4459	-91.517830	-0.000061	-0.608040	-0.103005	-0.000012
1586	1.5771e+02	-8.4261	-91.521867	-0.000020	-0.202680	-0.034335	-0.000004
1587	1.5781e+02	-8.4067	-91.566276	-0.000223	-2.229481	-0.377684	-0.000045
1588	1.5791e+02	-8.3865	-91.590498	-0.000122	-1.216080	-0.206010	-0.000024
1589	1.5801e+02	-8.3670	-91.566276	0.000122	1.216080	0.206010	0.000024
1590	1.5811e+02	-8.3463	-91.634907	-0.000345	-3.445561	-0.583694	-0.000069
1591	1.5821e+02	-8.3275	-91.586461	0.000243	2.432161	0.412019	0.000049
1592	1.5830e+02	-8.3067	-91.679315	-0.000466	-4.661641	-0.789703	-0.000093
1593	1.5840e+02	-8.2870	-91.602610	0.000385	3.850921	0.652364	0.000077
1594	1.5850e+02	-8.2672	-91.626833	-0.000122	-1.216080	-0.206010	-0.000024
1595	1.5860e+02	-8.2468	-91.671241	-0.000223	-2.229481	-0.377684	-0.000045
1596	1.5870e+02	-8.2271	-91.687390	-0.000081	-0.810720	-0.137340	-0.000016
1597	1.5880e+02	-8.2068	-91.655093	0.000162	1.621441	0.274679	0.000032
1598	1.5890e+02	-8.1871	-91.675278	-0.000101	-1.013400	-0.171675	-0.000020
1599	1.5900e+02	-8.1659	-91.647018	0.000142	1.418760	0.240345	0.000028
1600	1.5910e+02	-8.1467	-91.667204	-0.000101	-1.013400	-0.171675	-0.000020
1601	1.5920e+02	-8.1277	-91.634907	0.000162	1.621441	0.274679	0.000032
1602	1.5930e+02	-8.1075	-91.647018	-0.000061	-0.608040	-0.103005	-0.000012
1603	1.5940e+02	-8.0872	-91.634907	0.000061	0.608040	0.103005	0.000012
1604	1.5950e+02	-8.0669	-91.675278	-0.000203	-2.026801	-0.343349	-0.000041
1605	1.5960e+02	-8.0476	-91.578387	0.000486	4.864322	0.824038	0.000097
1606	1.5970e+02	-8.0273	-91.610684	-0.000162	-1.621441	-0.274679	-0.000032
1607	1.5980e+02	-8.0084	-91.562239	0.000243	2.432161	0.412019	0.000049
1608	1.5990e+02	-7.9877	-91.529941	0.000162	1.621441	0.274679	0.000032
1609	1.6000e+02	-7.9678	-91.542053	-0.000061	-0.608040	-0.103005	-0.000012
1610	1.6010e+02	-7.9477	-91.521867	0.000101	1.013400	0.171675	0.000020
1611	1.6019e+02	-7.9279	-91.554164	-0.000162	-1.621441	-0.274679	-0.000032
1612	1.6029e+02	-7.9089	-91.497644	0.000284	2.837521	0.480689	0.000057
1613	1.6039e+02	-7.8885	-91.473422	0.000122	1.216080	0.206010	0.000024
1614	1.6049e+02	-7.8690	-91.424976	0.000243	2.432161	0.412019	0.000049
1615	1.6059e+02	-7.8479	-91.412865	0.000061	0.608040	0.103005	0.000012
1616	1.6069e+02	-7.8287	-91.392679	0.000101	1.013400	0.171675	0.000020
1617	1.6079e+02	-7.8088	-91.328085	0.000324	3.242881	0.549359	0.000065
1618	1.6089e+02	-7.7895	-91.307899	0.000101	1.013400	0.171675	0.000020
1619	1.6099e+02	-7.7682	-91.279639	0.000142	1.418760	0.240345	0.000028
1620	1.6109e+02	-7.7486	-91.231193	0.000243	2.432161	0.412019	0.000049
1621	1.6119e+02	-7.7286	-91.174674	0.000284	2.837521	0.480689	0.000057
1622	1.6129e+02	-7.7087	-91.158525	0.000081	0.810720	0.137340	0.000016
1623	1.6139e+02	-7.6889	-91.114116	0.000223	2.229481	0.377684	0.000045
1624	1.6149e+02	-7.6691	-91.097968	0.000081	0.810720	0.137340	0.000016
1625	1.6159e+02	-7.6489	-91.057597	0.000203	2.026801	0.343349	0.000041
1626	1.6169e+02	-7.6299	-91.001077	0.000284	2.837521	0.480689	0.000057
1627	1.6179e+02	-7.6085	-90.968780	0.000162	1.621441	0.274679	0.000032
1628	1.6189e+02	-7.5893	-90.936482	0.000162	1.621441	0.274679	0.000032
1629	1.6199e+02	-7.5684	-90.896111	0.000203	2.026801	0.343349	0.000041
1630	1.6209e+02	-7.5494	-90.843628	0.000263	2.634841	0.446354	0.000053
1631	1.6219e+02	-7.5298	-90.815368	0.000142	1.418760	0.240345	0.000028
1632	1.6228e+02	-7.5104	-90.722514	0.000466	4.661641	0.789703	0.000093
1633	1.6238e+02	-7.4902	-90.670032	0.000263	2.634841	0.446354	0.000053
1634	1.6248e+02	-7.4696	-90.698291	-0.000142	-1.418760	-0.240345	-0.000028
1635	1.6258e+02	-7.4504	-90.633697	0.000324	3.242881	0.549359	0.000065
1636	1.6268e+02	-7.4304	-90.565066	0.000345	3.445561	0.583694	0.000069
1637	1.6278e+02	-7.4097	-90.512583	0.000263	2.634841	0.446354	0.000053
1638	1.6288e+02	-7.3912	-90.468175	0.000223	2.229481	0.377684	0.000045
1639	1.6298e+02	-7.3706	-90.452026	0.000081	0.810720	0.137340	0.000016
1640	1.6308e+02	-7.3517	-90.383395	0.000345	3.445561	0.583694	0.000069
1641	1.6318e+02	-7.3280	-90.302652	0.000405	4.053601	0.686699	0.000081
1642	1.6328e+02	-7.3099	-90.246132	0.000284	2.837521	0.480689	0.000057
1643	1.6338e+02	-7.2906	-90.173464	0.000365	3.648241	0.618029	0.000073
1644	1.6348e+02	-7.2717	-90.153278	0.000101	1.013400	0.171675	0.000020
1645	1.6358e+02	-7.2510	-90.064461	0.000446	4.458961	0.755369	0.000089
1646	1.6368e+02	-7.2307	-89.983718	0.000405	4.053601	0.686699	0.000081
1647	1.6378e+02	-7.2116	-89.963533	0.000101	1.013400	0.171675	0.000020
1648	1.6388e+02	-7.1921	-89.902976	0.000304	3.040201	0.515024	0.000061
1649	1.6398e+02	-7.1704	-89.838382	0.000324	3.242881	0.549359	0.000065
1650	1.6408e+02	-7.1515	-89.785899	0.000263	2.634841	0.446354	0.000053
1651	1.6418e+02	-7.1316	-89.689008	0.000486	4.864322	0.824038	0.000097
1652	1.6427e+02	-7.1130	-89.636525	0.000263	2.634841	0.446354	0.000053
1653	1.6437e+02	-7.0917	-89.535596	0.000507	5.067002	0.858373	0.000101
1654	1.6447e+02	-7.0715	-89.475039	0.000304	3.040201	0.515024	0.000061
1655	1.6457e+02	-7.0523	-89.398334	0.000385	3.850921	0.652364	0.000077
1656	1.6467e+02	-7.0326	-89.370074	0.000142	1.418760	0.240345	0.000028
1657	1.6477e+02	-7.0123	-89.305480	0.000324	3.242881	0.549359	0.000065
1658	1.6487e+02	-6.9920	-89.240885	0.000324	3.242881	0.549359	0.000065
1659	1.6497e+02	-6.9720	-89.123809	0.000588	5.877722	0.995713	0.000118
1660	1.6507e+02	-6.9530	-89.095549	0.000142	1.418760	0.240345	0.000028
1661	1.6517e+02	-6.9322	-89.014806	0.000405	4.053601	0.686699	0.000081
1662	1.6527e+02	-6.9121	-88.930026	0.000426	4.256281	0.721034	0.000085
1663	1.6537e+02	-6.8927	-88.841209	0.000446	4.458961	0.755369	0.000089
1664	1.6547e+02	-6.8725	-88.728169	0.000568	5.675042	0.961378	0.000114
1665	1.6557e+02	-6.8524	-88.695872	0.000162	1.621441	0.274679	0.000032
1666	1.6567e+02	-6.8323	-88.627241	0.000345	3.445561	0.583694	0.000069
1667	1.6577e+02	-6.8136	-88.566684	0.000304	3.040201	0.515024	0.000061
1668	1.6587e+02	-6.7929	-88.461718	0.000527	5.269682	0.892708	0.000105
1669	1.6597e+02	-6.7728	-88.433458	0.000142	1.418760	0.240345	0.000028
1670	1.6607e+02	-6.7525	-88.300233	0.000669	6.688442	1.133053	0.000134
1671	1.6616e+02	-6.7340	-88.255824	0.000223	2.229481	0.377684	0.000045
1672	1.6626e+02	-6.7134	-88.126636	0.000649	6.485762	1.098718	0.000130
1673	1.6636e+02	-6.6928	-88.102413	0.000122	1.216080	0.206010	0.000024
1674	1.6646e+02	-6.6743	-87.985336	0.000588	5.877722	0.995713	0.000118
1675	1.6656e+02	-6.6527	-87.872296	0.000568	5.675042	0.961378	0.000114
1676	1.6666e+02	-6.6336	-87.791554	0.000405	4.053601	0.686699	0.000081
1677	1.6676e+02	-6.6135	-87.747145	0.000223	2.229481	0.377684	0.000045
1678	1.6686e+02	-6.5942	-87.678514	0.000345	3.445561	0.583694	0.000069
1679	1.6696e+02	-6.5737	-87.601808	0.000385	3.850921	0.652364	0.000077
1680	1.6706e+02	-6.5527	-87.496843	0.000527	5.269682	0.892708	0.000105
1681	1.6716e+02	-6.5337	-87.383803	0.000568	5.675042	0.961378	0.000114
1682	1.6726e+02	-6.5131	-87.339395	0.000223	2.229481	0.377684	0.000045
1683	1.6736e+02	-6.4928	-87.266726	0.000365	3.648241	0.618029	0.000073
1684	1.6746e+02	-6.4746	-87.169835	0.000486	4.864322	0.824038	0.000097
1685	1.6756e+02	-6.4542	-87.085055	0.000426	4.256281	0.721034	0.000085
1686	1.6766e+02	-6.4346	-87.004312	0.000405	4.053601	0.686699	0.000081
1687	1.6776e+02	-6.4139	-86.931644	0.000365	3.648241	0.618029	0.000073
1688	1.6786e+02	-6.3949	-86.846864	0.000426	4.256281	0.721034	0.000085
1689	1.6796e+02	-6.3748	-86.721713	0.000628	6.283082	1.064383	0.000126
1690	1.6806e+02	-6.3530	-86.657119	0.000324	3.242881	0.549359	0.000065
1691	1.6816e+02	-6.3351	-86.540042	0.000588	5.877722	0.995713	0.000118
1692	1.6825e+02	-6.3141	-86.471410	0.000345	3.445561	0.583694	0.000069
1693	1.6835e+02	-6.2952	-86.418928	0.000263	2.634841	0.446354	0.000053
1694	1.6845e+02	-6.2750	-86.269554	0.000750	7.499162	1.270392	0.000150
1695	1.6855e+02	-6.2552	-86.196885	0.000365	3.648241	0.618029	0.000073
1696	1.6865e+02	-6.2360	-86.156514	0.000203	2.026801	0.343349	0.000041
1697	1.6875e+02	-6.2153	-86.031363	0.000628	6.283082	1.064383	0.000126
1698	1.6885e+02	-6.1958	-85.918323	0.000568	5.675042	0.961378	0.000114
1699	1.6895e+02	-6.1761	-85.833543	0.000426	4.256281	0.721034	0.000085
1700	1.6905e+02	-6.1554	-85.748763	0.000426	4.256281	0.721034	0.000085
1701	1.6915e+02	-6.1362	-85.623612	0.000628	6.283082	1.064383	0.000126
1702	1.6925e+02	-6.1160	-85.554981	0.000345	3.445561	0.583694	0.000069
1703	1.6935e+02	-6.0962	-85.486349	0.000345	3.445561	0.583694	0.000069
1704	1.6945e+02	-6.0779	-85.397532	0.000446	4.458961	0.755369	0.000089
1705	1.6955e+02	-6.0547	-85.284492	0.000568	5.675042	0.961378	0.000114
1706	1.6965e+02	-6.0354	-85.183564	0.000507	5.067002	0.858373	0.000101
1707	1.6975e+02	-6.0156	-85.074561	0.000547	5.472362	0.927043	0.000110
1708	1.6985e+02	-5.9972	-85.038227	0.000182	1.824121	0.309014	0.000037
1709	1.6995e+02	-5.9761	-84.913076	0.000628	6.283082	1.064383	0.000126
1710	1.7005e+02	-5.9558	-84.844445	0.000345	3.445561	0.583694	0.000069
1711	1.7015e+02	-5.9363	-84.707182	0.000689	6.891122	1.167388	0.000138
1712	1.7024e+02	-5.9164	-84.614328	0.000466	4.661641	0.789703	0.000093
1713	1.7034e+02	-5.8965	-84.513400	0.000507	5.067002	0.858373	0.000101
1714	1.7044e+02	-5.8774	-84.432657	0.000405	4.053601	0.686699	0.000081
1715	1.7054e+02	-5.8575	-84.331728	0.000507	5.067002	0.858373	0.000101
1716	1.7064e+02	-5.8359	-84.226763	0.000527	5.269682	0.892708	0.000105
1717	1.7074e+02	-5.8166	-84.150057	0.000385	3.850921	0.652364	0.000077
1718	1.7084e+02	-5.7964	-84.057203	0.000466	4.661641	0.789703	0.000093
1719	1.7094e+02	-5.7774	-83.948201	0.000547	5.472362	0.927043	0.000110
1720	1.7104e+02	-5.7558	-83.827086	0.000608	6.080402	1.030048	0.000122
1721	1.7114e+02	-5.7367	-83.718084	0.000547	5.472362	0.927043	0.000110
1722	1.7124e+02	-5.7170	-83.665601	0.000263	2.634841	0.446354	0.000053
1723	1.7134e+02	-5.6973	-83.475856	0.000953	9.525963	1.613742	0.000191
1724	1.7144e+02	-5.6769	-83.427410	0.000243	2.432161	0.412019	0.000049
1725	1.7154e+02	-5.6572	-83.310333	0.000588	5.877722	0.995713	0.000118
1726	1.7164e+02	-5.6369	-83.209405	0.000507	5.067002	0.858373	0.000101
1727	1.7174e+02	-5.6180	-83.120588	0.000446	4.458961	0.755369	0.000089
1728	1.7184e+02	-5.5970	-83.015622	0.000527	5.269682	0.892708	0.000105
1729	1.7194e+02	-5.5768	-82.894508	0.000608	6.080402	1.030048	0.000122
1730	1.7204e+02	-5.5579	-82.829914	0.000324	3.242881	0.549359	0.000065
1731	1.7213e+02	-5.5381	-82.700726	0.000649	6.485762	1.098718	0.000130
1732	1.7223e+02	-5.5171	-82.599797	0.000507	5.067002	0.858373	0.000101
1733	1.7233e+02	-5.4990	-82.527129	0.000365	3.648241	0.618029	0.000073
1734	1.7243e+02	-5.4776	-82.397940	0.000649	6.485762	1.098718	0.000130
1735	1.7253e+02	-5.4578	-82.301049	0.000486	4.864322	0.824038	0.000097
1736	1.7263e+02	-5.4385	-82.163787	0.000689	6.891122	1.167388	0.000138
1737	1.7273e+02	-5.4180	-82.099192	0.000324	3.242881	0.549359	0.000065
1738	1.7283e+02	-5.3986	-81.978078	0.000608	6.080402	1.030048	0.000122
1739	1.7293e+02	-5.3789	-81.844853	0.000669	6.688442	1.133053	0.000134
1740	1.7303e+02	-5.3590	-81.739887	0.000527	5.269682	0.892708	0.000105
1741	1.7313e+02	-5.3387	-81.703553	0.000182	1.824121	0.309014	0.000037
1742	1.7323e+02	-5.3189	-81.570328	0.000669	6.688442	1.133053	0.000134
1743	1.7333e+02	-5.2987	-81.461325	0.000547	5.472362	0.927043	0.000110
1744	1.7343e+02	-5.2780	-81.364434	0.000486	4.864322	0.824038	0.000097
1745	1.7353e+02	-5.2585	-81.243320	0.000608	6.080402	1.030048	0.000122
1746	1.7363e+02	-5.2388	-81.130280	0.000568	5.675042	0.961378	0.000114
1747	1.7373e+02	-5.2179	-81.041463	0.000446	4.458961	0.755369	0.000089
1748	1.7383e+02	-5.1987	-80.928423	0.000568	5.675042	0.961378	0.000114
1749	1.7393e+02	-5.1787	-80.839606	0.000446	4.458961	0.755369	0.000089
1750	1.7403e+02	-5.1579	-80.714455	0.000628	6.283082	1.064383	0.000126
1751	1.7413e+02	-5.1392	-80.621601	0.000466	4.661641	0.789703	0.000093
1752	1.7422e+02	-5.1189	-80.484338	0.000689	6.891122	1.167388	0.000138
1753	1.7432e+02	-5.0996	-80.403595	0.000405	4.053601	0.686699	0.000081
1754	1.7442e+02	-5.0794	-80.290556	0.000568	5.675042	0.961378	0.000114
1755	1.7452e+02	-5.0594	-80.157330	0.000669	6.688442	1.133053	0.000134
1756	1.7462e+02	-5.0401	-80.092736	0.000324	3.242881	0.549359	0.000065
1757	1.7472e+02	-5.0198	-79.963548	0.000649	6.485762	1.098718	0.000130
1758	1.7482e+02	-4.9998	-79.858582	0.000527	5.269682	0.892708	0.000105
1759	1.7492e+02	-4.9802	-79.757654	0.000507	5.067002	0.858373	0.000101
1760	1.7502e+02	-4.9600	-79.636540	0.000608	6.080402	1.030048	0.000122
1761	1.7512e+02	-4.9406	-79.527537	0.000547	5.472362	0.927043	0.000110
1762	1.7522e+02	-4.9207	-79.422571	0.000527	5.269682	0.892708	0.000105
1763	1.7532e+02	-4.9004	-79.309532	0.000568	5.675042	0.961378	0.000114
1764	1.7542e+02	-4.8801	-79.236863	0.000365	3.648241	0.618029	0.000073
1765	1.7552e+02	-4.8599	-79.103638	0.000669	6.688442	1.133053	0.000134
1766	1.7562e+02	-4.8400	-78.982524	0.000608	6.080402	1.030048	0.000122
1767	1.7572e+02	-4.8199	-78.865447	0.000588	5.877722	0.995713	0.000118
1768	1.7582e+02	-4.8010	-78.740295	0.000628	6.283082	1.064383	0.000126
1769	1.7592e+02	-4.7804	-78.639367	0.000507	5.067002	0.858373	0.000101
1770	1.7602e+02	-4.7618	-78.489993	0.000750	7.499162	1.270392	0.000150
1771	1.7612e+02	-4.7414	-78.413287	0.000385	3.850921	0.652364	0.000077
1772	1.7621e+02	-4.7203	-78.263913	0.000750	7.499162	1.270392	0.000150
1773	1.7631e+02	-4.7003	-78.203356	0.000304	3.040201	0.515024	0.000061
1774	1.7641e+02	-4.6802	-78.033797	0.000851	8.512563	1.442067	0.000170
1775	1.7651e+02	-4.6640	-77.957091	0.000385	3.850921	0.652364	0.000077
1776	1.7661e+02	-4.6412	-77.819828	0.000689	6.891122	1.167388	0.000138
1777	1.7671e+02	-4.6213	-77.739086	0.000405	4.053601	0.686699	0.000081
1778	1.7681e+02	-4.6013	-77.597786	0.000709	7.093802	1.201723	0.000142
1779	1.7691e+02	-4.5825	-77.460523	0.000689	6.891122	1.167388	0.000138
1780	1.7701e+02	-4.5619	-77.371706	0.000446	4.458961	0.755369	0.000089
1781	1.7711e+02	-4.5409	-77.266741	0.000527	5.269682	0.892708	0.000105
1782	1.7721e+02	-4.5215	-77.117367	0.000750	7.499162	1.270392	0.000150
1783	1.7731e+02	-4.5020	-77.020476	0.000486	4.864322	0.824038	0.000097
1784	1.7741e+02	-4.4821	-76.899362	0.000608	6.080402	1.030048	0.000122
1785	1.7751e+02	-4.4617	-76.798433	0.000507	5.067002	0.858373	0.000101
1786	1.7761e+02	-4.4414	-76.645022	0.000770	7.701842	1.304727	0.000154
1787	1.7771e+02	-4.4217	-76.487574	0.000790	7.904522	1.339062	0.000158
1788	1.7781e+02	-4.4011	-76.427017	0.000304	3.040201	0.515024	0.000061
1789	1.7791e+02	-4.3823	-76.285717	0.000709	7.093802	1.201723	0.000142
1790	1.7801e+02	-4.3625	-76.192863	0.000466	4.661641	0.789703	0.000093
1791	1.7810e+02	-4.3430	-76.051563	0.000709	7.093802	1.201723	0.000142
1792	1.7820e+02	-4.3216	-75.910263	0.000709	7.093802	1.201723	0.000142
1793	1.7830e+02	-4.3022	-75.797223	0.000568	5.675042	0.961378	0.000114
1794	1.7840e+02	-4.2831	-75.696295	0.000507	5.067002	0.858373	0.000101
1795	1.7850e+02	-4.2627	-75.542884	0.000770	7.701842	1.304727	0.000154
1796	1.7860e+02	-4.2419	-75.441956	0.000507	5.067002	0.858373	0.000101
1797	1.7870e+02	-4.2230	-75.345064	0.000486	4.864322	0.824038	0.000097
1798	1.7880e+02	-4.2027	-75.195690	0.000750	7.499162	1.270392	0.000150
1799	1.7890e+02	-4.1824	-75.123022	0.000365	3.648241	0.618029	0.000073
1800	1.7900e+02	-4.1628	-74.981722	0.000709	7.093802	1.201723	0.000142
1801	1.7910e+02	-4.1425	-74.844459	0.000689	6.891122	1.167388	0.000138
1802	1.7920e+02	-4.1219	-74.743531	0.000507	5.067002	0.858373	0.000101
1803	1.7930e+02	-4.1017	-74.630491	0.000568	5.675042	0.961378	0.000114
1804	1.7940e+02	-4.0836	-74.473043	0.000790	7.904522	1.339062	0.000158
1805	1.7950e+02	-4.0629	-74.343855	0.000649	6.485762	1.098718	0.000130
1806	1.7960e+02	-4.0437	-74.226778	0.000588	5.877722	0.995713	0.000118
1807	1.7970e+02	-4.0240	-74.129886	0.000486	4.864322	0.824038	0.000097
1808	1.7980e+02	-4.0044	-73.960327	0.000851	8.512563	1.442067	0.000170
1809	1.7990e+02	-3.9834	-73.863435	0.000486	4.864322	0.824038	0.000097
1810	1.8000e+02	-3.9644	-73.738284	0.000628	6.283082	1.064383	0.000126
1811	1.8009e+02	-3.9433	-73.645430	0.000466	4.661641	0.789703	0.000093
1812	1.8019e+02	-3.9240	-73.500093	0.000730	7.296482	1.236058	0.000146
1813	1.8029e+02	-3.9037	-73.383016	0.000588	5.877722	0.995713	0.000118
1814	1.8039e+02	-3.8840	-73.241717	0.000709	7.093802	1.201723	0.000142
1815	1.8049e+02	-3.8641	-73.112528	0.000649	6.485762	1.098718	0.000130
1816	1.8059e+02	-3.8434	-72.971228	0.000709	7.093802	1.201723	0.000142
1817	1.8069e+02	-3.8238	-72.850114	0.000608	6.080402	1.030048	0.000122
1818	1.8079e+02	-3.8037	-72.720926	0.000649	6.485762	1.098718	0.000130
1819	1.8089e+02	-3.7850	-72.583663	0.000689	6.891122	1.167388	0.000138
1820	1.8099e+02	-3.7637	-72.478698	0.000527	5.269682	0.892708	0.000105
1821	1.8109e+02	-3.7451	-72.357584	0.000608	6.080402	1.030048	0.000122
1822	1.8119e+02	-3.7245	-72.220321	0.000689	6.891122	1.167388	0.000138
1823	1.8129e+02	-3.7039	-72.083059	0.000689	6.891122	1.167388	0.000138
1824	1.8139e+02	-3.6850	-71.913499	0.000851	8.512563	1.442067	0.000170
1825	1.8149e+02	-3.6646	-71.824682	0.000446	4.458961	0.755369	0.000089
1826	1.8159e+02	-3.6459	-71.671271	0.000770	7.701842	1.304727	0.000154
1827	1.8169e+02	-3.6253	-71.493637	0.000892	8.917923	1.510737	0.000179
1828	1.8179e+02	-3.6053	-71.416931	0.000385	3.850921	0.652364	0.000077
1829	1.8189e+02	-3.5848	-71.275631	0.000709	7.093802	1.201723	0.000142
1830	1.8199e+02	-3.5654	-71.114146	0.000811	8.107203	1.373397	0.000162
1831	1.8209e+02	-3.5448	-70.972846	0.000709	7.093802	1.201723	0.000142
1832	1.8218e+02	-3.5260	-70.884029	0.000446	4.458961	0.755369	0.000089
1833	1.8228e+02	-3.5045	-70.746767	0.000689	6.891122	1.167388	0.000138
1834	1.8238e+02	-3.4850	-70.552984	0.000973	9.728643	1.648077	0.000195
1835	1.8248e+02	-3.4660	-70.456093	0.000486	4.864322	0.824038	0.000097
1836	1.8258e+02	-3.4462	-70.290570	0.000831	8.309883	1.407732	0.000166
1837	1.8268e+02	-3.4256	-70.193679	0.000486	4.864322	0.824038	0.000097
1838	1.8278e+02	-3.4051	-70.048342	0.000730	7.296482	1.236058	0.000146
1839	1.8288e+02	-3.3852	-69.886857	0.000811	8.107203	1.373397	0.000162
1840	1.8298e+02	-3.3663	-69.810151	0.000385	3.850921	0.652364	0.000077
1841	1.8308e+02	-3.3459	-69.624443	0.000932	9.323283	1.579407	0.000187
1842	1.8318e+02	-3.3263	-69.466995	0.000790	7.904522	1.339062	0.000158
1843	1.8328e+02	-3.3069	-69.374141	0.000466	4.661641	0.789703	0.000093
1844	1.8338e+02	-3.2870	-69.204581	0.000851	8.512563	1.442067	0.000170
1845	1.8348e+02	-3.2672	-69.071355	0.000669	6.688442	1.133053	0.000134
1846	1.8358e+02	-3.2468	-68.926018	0.000730	7.296482	1.236058	0.000146
1847	1.8368e+02	-3.2266	-68.756459	0.000851	8.512563	1.442067	0.000170
1848	1.8378e+02	-3.2062	-68.671679	0.000426	4.256281	0.721034	0.000085
1849	1.8388e+02	-3.1854	-68.558639	0.000568	5.675042	0.961378	0.000114
1850	1.8398e+02	-3.1660	-68.393117	0.000831	8.309883	1.407732	0.000166
1851	1.8407e+02	-3.1467	-68.247780	0.000730	7.296482	1.236058	0.000146
1852	1.8417e+02	-3.1265	-68.082257	0.000831	8.309883	1.407732	0.000166
1853	1.8427e+02	-3.1067	-67.981329	0.000507	5.067002	0.858373	0.000101
1854	1.8437e+02	-3.0875	-67.831955	0.000750	7.499162	1.270392	0.000150
1855	1.8447e+02	-3.0670	-67.694692	0.000689	6.891122	1.167388	0.000138
1856	1.8457e+02	-3.0470	-67.553392	0.000709	7.093802	1.201723	0.000142
1857	1.8467e+02	-3.0273	-67.404018	0.000750	7.499162	1.270392	0.000150
1858	1.8477e+02	-3.0070	-67.290978	0.000568	5.675042	0.961378	0.000114
1859	1.8487e+02	-2.9869	-67.117382	0.000872	8.715243	1.476402	0.000174
1860	1.8497e+02	-2.9652	-66.988193	0.000649	6.485762	1.098718	0.000130
1861	1.8507e+02	-2.9475	-66.830745	0.000790	7.904522	1.339062	0.000158
1862	1.8517e+02	-2.9272	-66.717705	0.000568	5.675042	0.961378	0.000114
1863	1.8527e+02	-2.9085	-66.556220	0.000811	8.107203	1.373397	0.000162
1864	1.8537e+02	-2.8879	-66.406846	0.000750	7.499162	1.270392	0.000150
1865	1.8547e+02	-2.8683	-66.277657	0.000649	6.485762	1.098718	0.000130
1866	1.8557e+02	-2.8479	-66.148469	0.000649	6.485762	1.098718	0.000130
1867	1.8567e+02	-2.8281	-65.986984	0.000811	8.107203	1.373397	0.000162
1868	1.8577e+02	-2.8080	-65.845684	0.000709	7.093802	1.201723	0.000142
1869	1.8587e+02	-2.7873	-65.728607	0.000588	5.877722	0.995713	0.000118
1870	1.8597e+02	-2.7684	-65.563084	0.000831	8.309883	1.407732	0.000166
1871	1.8606e+02	-2.7480	-65.405636	0.000790	7.904522	1.339062	0.000158
1872	1.8616e+02	-2.7286	-65.264336	0.000709	7.093802	1.201723	0.000142
1873	1.8626e+02	-2.7075	-65.114962	0.000750	7.499162	1.270392	0.000150
1874	1.8636e+02	-2.6875	-64.985774	0.000649	6.485762	1.098718	0.000130
1875	1.8646e+02	-2.6682	-64.844474	0.000709	7.093802	1.201723	0.000142
1876	1.8656e+02	-2.6492	-64.707212	0.000689	6.891122	1.167388	0.000138
1877	1.8666e+02	-2.6289	-64.525541	0.000912	9.120603	1.545072	0.000183
1878	1.8676e+02	-2.6086	-64.388278	0.000689	6.891122	1.167388	0.000138
1879	1.8686e+02	-2.5882	-64.259090	0.000649	6.485762	1.098718	0.000130
1880	1.8696e+02	-2.5694	-64.077418	0.000912	9.120603	1.545072	0.000183
1881	1.8706e+02	-2.5481	-63.944193	0.000669	6.688442	1.133053	0.000134
1882	1.8716e+02	-2.5291	-63.770596	0.000872	8.715243	1.476402	0.000174
1883	1.8726e+02	-2.5100	-63.665631	0.000527	5.269682	0.892708	0.000105
1884	1.8736e+02	-2.4893	-63.504145	0.000811	8.107203	1.373397	0.000162
1885	1.8746e+02	-2.4696	-63.419365	0.000426	4.256281	0.721034	0.000085
1886	1.8756e+02	-2.4501	-63.269991	0.000750	7.499162	1.270392	0.000150
1887	1.8766e+02	-2.4304	-63.092357	0.000892	8.917923	1.510737	0.000179
1888	1.8776e+02	-2.4096	-62.947020	0.000730	7.296482	1.236058	0.000146
1889	1.8786e+02	-2.3897	-62.773424	0.000872	8.715243	1.476402	0.000174
1890	1.8796e+02	-2.3700	-62.611938	0.000811	8.107203	1.373397	0.000162
1891	1.8806e+02	-2.3492	-62.511010	0.000507	5.067002	0.858373	0.000101
1892	1.8815e+02	-2.3303	-62.353561	0.000790	7.904522	1.339062	0.000158
1893	1.8825e+02	-2.3100	-62.159779	0.000973	9.728643	1.648077	0.000195
1894	1.8835e+02	-2.2912	-62.074999	0.000426	4.256281	0.721034	0.000085
1895	1.8845e+02	-2.2701	-61.885254	0.000953	9.525963	1.613742	0.000191
1896	1.8855e+02	-2.2507	-61.735880	0.000750	7.499162	1.270392	0.000150
1897	1.8865e+02	-2.2311	-61.590543	0.000730	7.296482	1.236058	0.000146
1898	1.8875e+02	-2.2110	-61.437132	0.000770	7.701842	1.304727	0.000154
1899	1.8885e+02	-2.1911	-61.287758	0.000750	7.499162	1.270392	0.000150
1900	1.8895e+02	-2.1722	-61.134346	0.000770	7.701842	1.304727	0.000154
1901	1.8905e+02	-2.1510	-60.989010	0.000730	7.296482	1.236058	0.000146
1902	1.8915e+02	-2.1303	-60.771004	0.001094	10.944723	1.854086	0.000219
1903	1.8925e+02	-2.1120	-60.682187	0.000446	4.458961	0.755369	0.000089
1904	1.8935e+02	-2.0903	-60.512628	0.000851	8.512563	1.442067	0.000170
1905	1.8945e+02	-2.0713	-60.367291	0.000730	7.296482	1.236058	0.000146
1906	1.8955e+02	-2.0511	-60.213880	0.000770	7.701842	1.304727	0.000154
1907	1.8965e+02	-2.0315	-60.052394	0.000811	8.107203	1.373397	0.000162
1908	1.8975e+02	-2.0100	-59.915131	0.000689	6.891122	1.167388	0.000138
1909	1.8985e+02	-1.9926	-59.749609	0.000831	8.309883	1.407732	0.000166
1910	1.8995e+02	-1.9711	-59.620421	0.000649	6.485762	1.098718	0.000130
1911	1.9004e+02	-1.9516	-59.475084	0.000730	7.296482	1.236058	0.000146
1912	1.9014e+02	-1.9310	-59.289375	0.000932	9.323283	1.579407	0.000187
1913	1.9024e+02	-1.9120	-59.156150	0.000669	6.688442	1.133053	0.000134
1914	1.9034e+02	-1.8918	-59.030999	0.000628	6.283082	1.064383	0.000126
1915	1.9044e+02	-1.8719	-58.869513	0.000811	8.107203	1.373397	0.000162
1916	1.9054e+02	-1.8520	-58.712065	0.000790	7.904522	1.339062	0.000158
1917	1.9064e+02	-1.8324	-58.550580	0.000811	8.107203	1.373397	0.000162
1918	1.9074e+02	-1.8127	-58.385057	0.000831	8.309883	1.407732	0.000166
1919	1.9084e+02	-1.7923	-58.255869	0.000649	6.485762	1.098718	0.000130
1920	1.9094e+02	-1.7730	-58.098420	0.000790	7.904522	1.339062	0.000158
1921	1.9104e+02	-1.7519	-57.985381	0.000568	5.675042	0.961378	0.000114
1922	1.9114e+02	-1.7323	-57.787561	0.000993	9.931323	1.682412	0.000199
1923	1.9124e+02	-1.7116	-57.654335	0.000669	6.688442	1.133053	0.000134
1924	1.9134e+02	-1.6931	-57.504961	0.000750	7.499162	1.270392	0.000150
1925	1.9144e+02	-1.6722	-57.339439	0.000831	8.309883	1.407732	0.000166
1926	1.9154e+02	-1.6525	-57.181991	0.000790	7.904522	1.339062	0.000158
1927	1.9164e+02	-1.6324	-57.016468	0.000831	8.309883	1.407732	0.000166
1928	1.9174e+02	-1.6119	-56.891317	0.000628	6.283082	1.064383	0.000126
1929	1.9184e+02	-1.5930	-56.713683	0.000892	8.917923	1.510737	0.000179
1930	1.9194e+02	-1.5739	-56.556235	0.000790	7.904522	1.339062	0.000158
1931	1.9203e+02	-1.5524	-56.402823	0.000770	7.701842	1.304727	0.000154
1932	1.9213e+02	-1.5332	-56.249412	0.000770	7.701842	1.304727	0.000154
1933	1.9223e+02	-1.5130	-56.120224	0.000649	6.485762	1.098718	0.000130
1934	1.9233e+02	-1.4932	-55.914330	0.001034	10.336683	1.751082	0.000207
1935	1.9243e+02	-1.4727	-55.752845	0.000811	8.107203	1.373397	0.000162
1936	1.9253e+02	-1.4536	-55.639805	0.000568	5.675042	0.961378	0.000114
1937	1.9263e+02	-1.4336	-55.470245	0.000851	8.512563	1.442067	0.000170
1938	1.9273e+02	-1.4145	-55.280500	0.000953	9.525963	1.613742	0.000191
1939	1.9283e+02	-1.3934	-55.127089	0.000770	7.701842	1.304727	0.000154
1940	1.9293e+02	-1.3734	-54.997900	0.000649	6.485762	1.098718	0.000130
1941	1.9303e+02	-1.3539	-54.816229	0.000912	9.120603	1.545072	0.000183
1942	1.9313e+02	-1.3343	-54.683004	0.000669	6.688442	1.133053	0.000134
1943	1.9323e+02	-1.3135	-54.473073	0.001054	10.539363	1.785416	0.000211
1944	1.9333e+02	-1.2942	-54.355996	0.000588	5.877722	0.995713	0.000118
1945	1.9343e+02	-1.2737	-54.178362	0.000892	8.917923	1.510737	0.000179
1946	1.9353e+02	-1.2546	-54.049173	0.000649	6.485762	1.098718	0.000130
1947	1.9363e+02	-1.2343	-53.851354	0.000993	9.931323	1.682412	0.000199
1948	1.9373e+02	-1.2158	-53.701980	0.000750	7.499162	1.270392	0.000150
1949	1.9383e+02	-1.1945	-53.544531	0.000790	7.904522	1.339062	0.000158
1950	1.9393e+02	-1.1750	-53.374972	0.000851	8.512563	1.442067	0.000170
1951	1.9403e+02	-1.1556	-53.237709	0.000689	6.891122	1.167388	0.000138
1952	1.9412e+02	-1.1351	-53.072186	0.000831	8.309883	1.407732	0.000166
1953	1.9422e+02	-1.1145	-52.922812	0.000750	7.499162	1.270392	0.000150
1954	1.9432e+02	-1.0952	-52.753253	0.000851	8.512563	1.442067	0.000170
1955	1.9442e+02	-1.0754	-52.583693	0.000851	8.512563	1.442067	0.000170
1956	1.9452e+02	-1.0555	-52.410096	0.000872	8.715243	1.476402	0.000174
1957	1.9462e+02	-1.0346	-52.260722	0.000750	7.499162	1.270392	0.000150
1958	1.9472e+02	-1.0150	-52.091162	0.000851	8.512563	1.442067	0.000170
1959	1.9482e+02	-0.9953	-51.897380	0.000973	9.728643	1.648077	0.000195
1960	1.9492e+02	-0.9750	-51.739932	0.000790	7.904522	1.339062	0.000158
1961	1.9502e+02	-0.9560	-51.558261	0.000912	9.120603	1.545072	0.000183
1962	1.9512e+02	-0.9354	-51.433109	0.000628	6.283082	1.064383	0.000126
1963	1.9522e+02	-0.9154	-51.251438	0.000912	9.120603	1.545072	0.000183
1964	1.9532e+02	-0.8954	-51.085916	0.000831	8.309883	1.407732	0.000166
1965	1.9542e+02	-0.8759	-50.952690	0.000669	6.688442	1.133053	0.000134
1966	1.9552e+02	-0.8559	-50.779093	0.000872	8.715243	1.476402	0.000174
1967	1.9562e+02	-0.8356	-50.593385	0.000932	9.323283	1.579407	0.000187
1968	1.9572e+02	-0.8162	-50.415751	0.000892	8.917923	1.510737	0.000179
1969	1.9582e+02	-0.7961	-50.250229	0.000831	8.309883	1.407732	0.000166
1970	1.9592e+02	-0.7764	-50.104892	0.000730	7.296482	1.236058	0.000146
1971	1.9601e+02	-0.7562	-49.898998	0.001034	10.336683	1.751082	0.000207
1972	1.9611e+02	-0.7351	-49.745587	0.000770	7.701842	1.304727	0.000154
1973	1.9621e+02	-0.7169	-49.616398	0.000649	6.485762	1.098718	0.000130
1974	1.9631e+02	-0.6963	-49.479136	0.000689	6.891122	1.167388	0.000138
1975	1.9641e+02	-0.6763	-49.285353	0.000973	9.728643	1.648077	0.000195
1976	1.9651e+02	-0.6557	-49.140016	0.000730	7.296482	1.236058	0.000146
1977	1.9661e+02	-0.6364	-48.962382	0.000892	8.917923	1.510737	0.000179
1978	1.9671e+02	-0.6162	-48.756488	0.001034	10.336683	1.751082	0.000207
1979	1.9681e+02	-0.5969	-48.603077	0.000770	7.701842	1.304727	0.000154
1980	1.9691e+02	-0.5776	-48.445629	0.000790	7.904522	1.339062	0.000158
1981	1.9701e+02	-0.5569	-48.296255	0.000750	7.499162	1.270392	0.000150
1982	1.9711e+02	-0.5367	-48.122658	0.000872	8.715243	1.476402	0.000174
1983	1.9721e+02	-0.5172	-47.965210	0.000790	7.904522	1.339062	0.000158
1984	1.9731e+02	-0.4967	-47.795650	0.000851	8.512563	1.442067	0.000170
1985	1.9741e+02	-0.4772	-47.597830	0.000993	9.931323	1.682412	0.000199
1986	1.9751e+02	-0.4575	-47.444419	0.000770	7.701842	1.304727	0.000154
1987	1.9761e+02	-0.4366	-47.250637	0.000973	9.728643	1.648077	0.000195
1988	1.9771e+02	-0.4169	-47.085114	0.000831	8.309883	1.407732	0.000166
1989	1.9781e+02	-0.3980	-46.923629	0.000811	8.107203	1.373397	0.000162
1990	1.9791e+02	-0.3767	-46.774255	0.000750	7.499162	1.270392	0.000150
1991	1.9800e+02	-0.3571	-46.596621	0.000892	8.917923	1.510737	0.000179
1992	1.9810e+02	-0.3383	-46.435135	0.000811	8.107203	1.373397	0.000162
1993	1.9820e+02	-0.3172	-46.245390	0.000953	9.525963	1.613742	0.000191
1994	1.9830e+02	-0.2974	-46.051607	0.000973	9.728643	1.648077	0.000195
1995	1.9840e+02	-0.2784	-45.882048	0.000851	8.512563	1.442067	0.000170
1996	1.9850e+02	-0.2579	-45.712488	0.000851	8.512563	1.442067	0.000170
1997	1.9860e+02	-0.2383	-45.538891	0.000872	8.715243	1.476402	0.000174
1998	1.9870e+02	-0.2177	-45.373369	0.000831	8.309883	1.407732	0.000166
1999	1.9880e+02	-0.1981	-45.207846	0.000831	8.309883	1.407732	0.000166
2000	1.9890e+02	-0.1788	-45.042323	0.000831	8.309883	1.407732	0.000166
2001	1.9900e+02	-0.1587	-44.832392	0.001054	10.539363	1.785416	0.000211
2002	1.9910e+02	-0.1386	-44.634573	0.000993	9.931323	1.682412	0.000199
2003	1.9920e+02	-0.1184	-44.541719	0.000466	4.661641	0.789703	0.000093
2004	1.9930e+02	-0.0983	-44.323713	0.001094	10.944723	1.854086	0.000219
2005	1.9940e+02	-0.0792	-44.146079	0.000892	8.917923	1.510737	0.000179
2006	1.9950e+02	-0.0580	-43.988631	0.000790	7.904522	1.339062	0.000158
2007	1.9960e+02	-0.0388	-43.827146	0.000811	8.107203	1.373397	0.000162
2008	1.9970e+02	-0.0187	-43.621252	0.001034	10.336683	1.751082	0.000207
2009	1.9980e+02	-0.0007	-43.455729	0.001034	10.336683	1.751082	0.000166

PMax (uC/cm2):	7.14e+01
Pr (uC/cm2):	1.24e+01
-Pr (uC/cm2):	-6.38e+01
PLoss (uC/cm2):	-6.38e+01
-Vc:	-1.44e+00
C (Max-Eff) (nF):	7.14e-01
K (Eff):	1.21e+03
Vert. (+/-Pr) Shift (uC/cm2):	-2.57e+01
Offset (uC/cm2):	-2.03e+01

A (Loop Area - uC/cm2·Volts):	-5.05e-01



Hysteresis Version: 5.48.1 - Radiant Technologies, Inc., 1999 - 9/12/24

