»»»»»»»»»»»»»»»»»»»»»»»»»»»»»»»»»»»» Hysteresis ««««««««««««««««««««««««««««««««««««
»»»  Executed Version:	5.48.1
»»»  Vision Version:	5.48.4 (R)
»»»  Vision Compiled:	9/18/24
»»»  Driver Version:	5.47.0
»»»  Windows Version:	Windows 8 or 8.1
»»»  Processor Information:	x86 (AMD or Intel) - 32 Processors
»»»  Tester Name:	PMF21124-494 (100V)
»»»  Tester S/N:	PMF21124-494
»»»  Internal Amp Type:	100V RevK 270k
»»»  Internal Amp S/N:	iAB2-596/K     
»»»  Execution Count:	1
»»»»»»»»»»»»»»»»»»»»»»»»»»»»»»»»»»»»»»»»»»««««««««««««««««««««««««««««««««««««««««««

Stored:	7/2/2025 - 15:43:13
Configured:	07/02/25 01:35:59 PM
Executed:	07/02/25 03:42:40 PM

»»»»»»»»»»»»»»»»»»»»»»»»»»»»»»»»»»» Sample Info ««««««««««««««««««««««««««««««««««««
Sample Name:	
Lot Name:	
Wafer Name:	
Die Row/Column:	0/0
Capacitor Number:	0
Sample Area (cm2):	1.00e-04
Sample Thickness (microns):	1.50e-01

Amplifier:	Internal

»»»»»»»»»»»»»»»»»»»»»»»»»»»»»»»»»»» Tester Info «««««««««««««««««««««««««««««««««««
Tester Name:	PMF21124-494 (100V)
Tester Serial Number:	PMF21124-494
Return Signal Amp. Level:	0.19 [Index: 3]

»»»»»»»»»»»»»»»»»»»»»»»»»»»»»»»» Hysteresis Info ««««««««««««««««««««««««««««««««««
Task Name:	Hyst-220
Volts:	10.00
Field:	666.67 (kV/cm)
DCBias:	0.00
DCField:	0.00 (kV/cm)
Hysteresis Period (ms):	2.00e+02
Preset:	Enabled
Preset Delay (ms):	1.00e+03
Profile:	Standard Bipolar

»»»»»»»»»»»»»»»»»»»»»»»»»»»»»»»»»»»»»» Data «««««««««««««««««««««««««««««««««««««««
Points:	2009

Valid Data

Point	Time (ms)	Drive Voltage	Measured Polarization (uC/cm2)	Capacitance (uF)	Normalized Capacitance (uF/cm2)	Dielectric Constant	Instantaneous Current (mA)
   1	0.0000e+00	0.0003	71.093960	0.000547	5.472685	0.927098	0.000110
   2	9.9500e-02	0.0193	71.202963	0.000547	5.472685	0.927098	0.000110
   3	1.9900e-01	0.0393	71.412894	0.001054	10.539987	1.785522	0.000211
   4	2.9850e-01	0.0587	71.574379	0.000811	8.107682	1.373479	0.000162
   5	3.9800e-01	0.0798	71.743939	0.000851	8.513066	1.442152	0.000170
   6	4.9750e-01	0.0989	71.885239	0.000709	7.094222	1.201794	0.000142
   7	5.9700e-01	0.1192	72.091133	0.001034	10.337295	1.751185	0.000207
   8	6.9650e-01	0.1384	72.208210	0.000588	5.878069	0.995772	0.000118
   9	7.9600e-01	0.1594	72.442364	0.001176	11.756139	1.991544	0.000235
  10	8.9550e-01	0.1771	72.535218	0.000466	4.661917	0.789750	0.000093
  11	9.9500e-01	0.1982	72.708815	0.000872	8.715758	1.476489	0.000174
  12	1.0945e+00	0.2178	72.870300	0.000811	8.107682	1.373479	0.000162
  13	1.1940e+00	0.2383	73.068120	0.000993	9.931910	1.682511	0.000199
  14	1.2935e+00	0.2586	73.225568	0.000790	7.904990	1.339142	0.000158
  15	1.3930e+00	0.2787	73.411276	0.000932	9.323834	1.579500	0.000187
  16	1.4925e+00	0.2975	73.592947	0.000912	9.121142	1.545163	0.000183
  17	1.5920e+00	0.3183	73.714061	0.000608	6.080761	1.030109	0.000122
  18	1.6915e+00	0.3382	73.895733	0.000912	9.121142	1.545163	0.000183
  19	1.7910e+00	0.3580	74.069329	0.000872	8.715758	1.476489	0.000174
  20	1.8905e+00	0.3781	74.255038	0.000932	9.323834	1.579500	0.000187
  21	1.9900e+00	0.3978	74.432672	0.000892	8.918450	1.510826	0.000179
  22	2.0895e+00	0.4172	74.602231	0.000851	8.513066	1.442152	0.000170
  23	2.1890e+00	0.4382	74.747568	0.000730	7.296914	1.236131	0.000146
  24	2.2885e+00	0.4577	74.937314	0.000953	9.526526	1.613837	0.000191
  25	2.3880e+00	0.4783	75.062465	0.000628	6.283454	1.064446	0.000126
  26	2.4875e+00	0.4971	75.244136	0.000912	9.121142	1.545163	0.000183
  27	2.5870e+00	0.5170	75.458104	0.001074	10.742679	1.819859	0.000215
  28	2.6865e+00	0.5379	75.587292	0.000649	6.486146	1.098783	0.000130
  29	2.7860e+00	0.5577	75.797223	0.001054	10.539987	1.785522	0.000211
  30	2.8855e+00	0.5779	75.995043	0.000993	9.931910	1.682511	0.000199
  31	2.9850e+00	0.5963	76.108083	0.000568	5.675377	0.961435	0.000114
  32	3.0845e+00	0.6175	76.326088	0.001095	10.945371	1.854196	0.000219
  33	3.1840e+00	0.6371	76.471425	0.000730	7.296914	1.236131	0.000146
  34	3.2835e+00	0.6571	76.673282	0.001013	10.134602	1.716848	0.000203
  35	3.3830e+00	0.6773	76.842842	0.000851	8.513066	1.442152	0.000170
  36	3.4825e+00	0.6966	77.028550	0.000932	9.323834	1.579500	0.000187
  37	3.5820e+00	0.7166	77.198110	0.000851	8.513066	1.442152	0.000170
  38	3.6815e+00	0.7366	77.412078	0.001074	10.742679	1.819859	0.000215
  39	3.7810e+00	0.7561	77.597786	0.000932	9.323834	1.579500	0.000187
  40	3.8805e+00	0.7759	77.731012	0.000669	6.688838	1.133120	0.000134
  41	3.9800e+00	0.7957	77.920757	0.000953	9.526526	1.613837	0.000191
  42	4.0795e+00	0.8169	78.074168	0.000770	7.702298	1.304805	0.000154
  43	4.1790e+00	0.8366	78.255839	0.000912	9.121142	1.545163	0.000183
  44	4.2785e+00	0.8562	78.477882	0.001115	11.148063	1.888533	0.000223
  45	4.3780e+00	0.8758	78.631293	0.000770	7.702298	1.304805	0.000154
  46	4.4775e+00	0.8958	78.812964	0.000912	9.121142	1.545163	0.000183
  47	4.5770e+00	0.9176	78.998672	0.000932	9.323834	1.579500	0.000187
  48	4.6765e+00	0.9357	79.200529	0.001013	10.134602	1.716848	0.000203
  49	4.7760e+00	0.9558	79.357977	0.000790	7.904990	1.339142	0.000158
  50	4.8755e+00	0.9756	79.604242	0.001236	12.364215	2.094555	0.000248
  51	4.9750e+00	0.9958	79.753617	0.000750	7.499606	1.270468	0.000150
  52	5.0745e+00	1.0157	79.955473	0.001013	10.134602	1.716848	0.000203
  53	5.1740e+00	1.0356	80.137144	0.000912	9.121142	1.545163	0.000183
  54	5.2735e+00	1.0554	80.314778	0.000892	8.918450	1.510826	0.000179
  55	5.3730e+00	1.0752	80.443967	0.000649	6.486146	1.098783	0.000130
  56	5.4725e+00	1.0952	80.641786	0.000993	9.931910	1.682511	0.000199
  57	5.5720e+00	1.1153	80.867866	0.001135	11.350755	1.922870	0.000227
  58	5.6715e+00	1.1349	81.049537	0.000912	9.121142	1.545163	0.000183
  59	5.7710e+00	1.1552	81.251394	0.001013	10.134602	1.716848	0.000203
  60	5.8705e+00	1.1744	81.412879	0.000811	8.107682	1.373479	0.000162
  61	5.9700e+00	1.1947	81.638959	0.001135	11.350755	1.922870	0.000227
  62	6.0695e+00	1.2151	81.800444	0.000811	8.107682	1.373479	0.000162
  63	6.1690e+00	1.2350	82.002301	0.001013	10.134602	1.716848	0.000203
  64	6.2685e+00	1.2549	82.179935	0.000892	8.918450	1.510826	0.000179
  65	6.3680e+00	1.2746	82.397940	0.001095	10.945371	1.854196	0.000219
  66	6.4675e+00	1.2942	82.555389	0.000790	7.904990	1.339142	0.000158
  67	6.5670e+00	1.3136	82.757245	0.001013	10.134602	1.716848	0.000203
  68	6.6665e+00	1.3333	82.979288	0.001115	11.148063	1.888533	0.000223
  69	6.7660e+00	1.3538	83.148848	0.000851	8.513066	1.442152	0.000170
  70	6.8655e+00	1.3740	83.326482	0.000892	8.918450	1.510826	0.000179
  71	6.9650e+00	1.3930	83.540450	0.001074	10.742679	1.819859	0.000215
  72	7.0645e+00	1.4129	83.705972	0.000831	8.310374	1.407815	0.000166
  73	7.1640e+00	1.4336	83.932052	0.001135	11.350755	1.922870	0.000227
  74	7.2635e+00	1.4527	84.081426	0.000750	7.499606	1.270468	0.000150
  75	7.3630e+00	1.4736	84.250986	0.000851	8.513066	1.442152	0.000170
  76	7.4625e+00	1.4929	84.473028	0.001115	11.148063	1.888533	0.000223
  77	7.5620e+00	1.5136	84.646625	0.000872	8.715758	1.476489	0.000174
  78	7.6615e+00	1.5337	84.876742	0.001155	11.553447	1.957207	0.000231
  79	7.7610e+00	1.5534	85.022079	0.000730	7.296914	1.236131	0.000146
  80	7.8605e+00	1.5733	85.240084	0.001095	10.945371	1.854196	0.000219
  81	7.9600e+00	1.5931	85.454052	0.001074	10.742679	1.819859	0.000215
  82	8.0595e+00	1.6135	85.663983	0.001054	10.539987	1.785522	0.000211
  83	8.1590e+00	1.6318	85.829506	0.000831	8.310374	1.407815	0.000166
  84	8.2585e+00	1.6527	86.007140	0.000892	8.918450	1.510826	0.000179
  85	8.3580e+00	1.6724	86.233219	0.001135	11.350755	1.922870	0.000227
  86	8.4575e+00	1.6922	86.422965	0.000953	9.526526	1.613837	0.000191
  87	8.5570e+00	1.7130	86.612710	0.000953	9.526526	1.613837	0.000191
  88	8.6565e+00	1.7326	86.802456	0.000953	9.526526	1.613837	0.000191
  89	8.7560e+00	1.7521	86.988164	0.000932	9.323834	1.579500	0.000187
  90	8.8555e+00	1.7723	87.210206	0.001115	11.148063	1.888533	0.000223
  91	8.9550e+00	1.7910	87.403989	0.000973	9.729218	1.648174	0.000195
  92	9.0545e+00	1.8124	87.573548	0.000851	8.513066	1.442152	0.000170
  93	9.1540e+00	1.8313	87.795591	0.001115	11.148063	1.888533	0.000223
  94	9.2535e+00	1.8514	87.977262	0.000912	9.121142	1.545163	0.000183
  95	9.3530e+00	1.8730	88.215453	0.001196	11.958831	2.025881	0.000239
  96	9.4525e+00	1.8922	88.393087	0.000892	8.918450	1.510826	0.000179
  97	9.5520e+00	1.9121	88.598981	0.001034	10.337295	1.751185	0.000207
  98	9.6515e+00	1.9308	88.756429	0.000790	7.904990	1.339142	0.000158
  99	9.7510e+00	1.9510	88.994620	0.001196	11.958831	2.025881	0.000239
 100	9.8505e+00	1.9714	89.168217	0.000872	8.715758	1.476489	0.000174
 101	9.9500e+00	1.9914	89.313554	0.000730	7.296914	1.236131	0.000146
 102	1.0050e+01	2.0115	89.539634	0.001135	11.350755	1.922870	0.000227
 103	1.0149e+01	2.0309	89.737453	0.000993	9.931910	1.682511	0.000199
 104	1.0248e+01	2.0515	89.939310	0.001013	10.134602	1.716848	0.000203
 105	1.0348e+01	2.0709	90.189612	0.001257	12.566907	2.128892	0.000252
 106	1.0447e+01	2.0913	90.351098	0.000811	8.107682	1.373479	0.000162
 107	1.0547e+01	2.1107	90.565066	0.001074	10.742679	1.819859	0.000215
 108	1.0646e+01	2.1307	90.770960	0.001034	10.337295	1.751185	0.000207
 109	1.0746e+01	2.1519	90.972817	0.001013	10.134602	1.716848	0.000203
 110	1.0845e+01	2.1703	91.118154	0.000730	7.296914	1.236131	0.000146
 111	1.0945e+01	2.1912	91.364419	0.001236	12.364215	2.094555	0.000248
 112	1.1044e+01	2.2108	91.533979	0.000851	8.513066	1.442152	0.000170
 113	1.1144e+01	2.2302	91.764095	0.001155	11.553447	1.957207	0.000231
 114	1.1243e+01	2.2499	91.937692	0.000872	8.715758	1.476489	0.000174
 115	1.1343e+01	2.2701	92.143586	0.001034	10.337295	1.751185	0.000207
 116	1.1443e+01	2.2906	92.309109	0.000831	8.310374	1.407815	0.000166
 117	1.1542e+01	2.3095	92.535188	0.001135	11.350755	1.922870	0.000227
 118	1.1642e+01	2.3305	92.745119	0.001054	10.539987	1.785522	0.000211
 119	1.1741e+01	2.3501	92.914679	0.000851	8.513066	1.442152	0.000170
 120	1.1841e+01	2.3698	93.100387	0.000932	9.323834	1.579500	0.000187
 121	1.1940e+01	2.3898	93.273984	0.000872	8.715758	1.476489	0.000174
 122	1.2040e+01	2.4095	93.524287	0.001257	12.566907	2.128892	0.000252
 123	1.2139e+01	2.4311	93.734218	0.001054	10.539987	1.785522	0.000211
 124	1.2239e+01	2.4493	93.915889	0.000912	9.121142	1.545163	0.000183
 125	1.2338e+01	2.4701	94.077374	0.000811	8.107682	1.373479	0.000162
 126	1.2438e+01	2.4892	94.291342	0.001074	10.742679	1.819859	0.000215
 127	1.2537e+01	2.5087	94.452828	0.000811	8.107682	1.373479	0.000162
 128	1.2636e+01	2.5303	94.678907	0.001135	11.350755	1.922870	0.000227
 129	1.2736e+01	2.5486	94.876727	0.000993	9.931910	1.682511	0.000199
 130	1.2835e+01	2.5700	95.050324	0.000872	8.715758	1.476489	0.000174
 131	1.2935e+01	2.5887	95.280441	0.001155	11.553447	1.957207	0.000231
 132	1.3034e+01	2.6087	95.429815	0.000750	7.499606	1.270468	0.000150
 133	1.3134e+01	2.6284	95.631671	0.001013	10.134602	1.716848	0.000203
 134	1.3233e+01	2.6489	95.829491	0.000993	9.931910	1.682511	0.000199
 135	1.3333e+01	2.6684	96.023274	0.000973	9.729218	1.648174	0.000195
 136	1.3432e+01	2.6885	96.196870	0.000872	8.715758	1.476489	0.000174
 137	1.3532e+01	2.7081	96.443136	0.001236	12.364215	2.094555	0.000248
 138	1.3632e+01	2.7277	96.600584	0.000790	7.904990	1.339142	0.000158
 139	1.3731e+01	2.7464	96.794366	0.000973	9.729218	1.648174	0.000195
 140	1.3831e+01	2.7678	97.004298	0.001054	10.539987	1.785522	0.000211
 141	1.3930e+01	2.7883	97.206154	0.001013	10.134602	1.716848	0.000203
 142	1.4030e+01	2.8078	97.327268	0.000608	6.080761	1.030109	0.000122
 143	1.4129e+01	2.8284	97.561422	0.001176	11.756139	1.991544	0.000235
 144	1.4229e+01	2.8484	97.751168	0.000953	9.526526	1.613837	0.000191
 145	1.4328e+01	2.8686	97.924764	0.000872	8.715758	1.476489	0.000174
 146	1.4428e+01	2.8872	98.171030	0.001236	12.364215	2.094555	0.000248
 147	1.4527e+01	2.9081	98.332515	0.000811	8.107682	1.373479	0.000162
 148	1.4627e+01	2.9275	98.530335	0.000993	9.931910	1.682511	0.000199
 149	1.4726e+01	2.9472	98.720080	0.000953	9.526526	1.613837	0.000191
 150	1.4825e+01	2.9684	98.934048	0.001074	10.742679	1.819859	0.000215
 151	1.4925e+01	2.9876	99.103608	0.000851	8.513066	1.442152	0.000170
 152	1.5024e+01	3.0083	99.301428	0.000993	9.931910	1.682511	0.000199
 153	1.5124e+01	3.0275	99.438690	0.000689	6.891530	1.167457	0.000138
 154	1.5223e+01	3.0470	99.672844	0.001176	11.756139	1.991544	0.000235
 155	1.5323e+01	3.0665	99.842404	0.000851	8.513066	1.442152	0.000170
 156	1.5422e+01	3.0869	100.024075	0.000912	9.121142	1.545163	0.000183
 157	1.5522e+01	3.1078	100.242080	0.001095	10.945371	1.854196	0.000219
 158	1.5621e+01	3.1274	100.395492	0.000770	7.702298	1.304805	0.000154
 159	1.5721e+01	3.1467	100.621571	0.001135	11.350755	1.922870	0.000227
 160	1.5820e+01	3.1668	100.791131	0.000851	8.513066	1.442152	0.000170
 161	1.5920e+01	3.1866	100.964728	0.000872	8.715758	1.476489	0.000174
 162	1.6020e+01	3.2069	101.154473	0.000953	9.526526	1.613837	0.000191
 163	1.6119e+01	3.2276	101.344218	0.000953	9.526526	1.613837	0.000191
 164	1.6218e+01	3.2471	101.529927	0.000932	9.323834	1.579500	0.000187
 165	1.6318e+01	3.2668	101.707561	0.000892	8.918450	1.510826	0.000179
 166	1.6418e+01	3.2864	101.901343	0.000973	9.729218	1.648174	0.000195
 167	1.6517e+01	3.3068	102.119348	0.001095	10.945371	1.854196	0.000219
 168	1.6616e+01	3.3253	102.268723	0.000750	7.499606	1.270468	0.000150
 169	1.6716e+01	3.3460	102.458468	0.000953	9.526526	1.613837	0.000191
 170	1.6816e+01	3.3666	102.656288	0.000993	9.931910	1.682511	0.000199
 171	1.6915e+01	3.3865	102.882367	0.001135	11.350755	1.922870	0.000227
 172	1.7015e+01	3.4058	103.039815	0.000790	7.904990	1.339142	0.000158
 173	1.7114e+01	3.4264	103.249747	0.001054	10.539987	1.785522	0.000211
 174	1.7213e+01	3.4460	103.370861	0.000608	6.080761	1.030109	0.000122
 175	1.7313e+01	3.4650	103.568680	0.000993	9.931910	1.682511	0.000199
 176	1.7413e+01	3.4856	103.766500	0.000993	9.931910	1.682511	0.000199
 177	1.7512e+01	3.5059	103.972394	0.001034	10.337295	1.751185	0.000207
 178	1.7611e+01	3.5256	104.141953	0.000851	8.513066	1.442152	0.000170
 179	1.7711e+01	3.5450	104.319587	0.000892	8.918450	1.510826	0.000179
 180	1.7811e+01	3.5648	104.472999	0.000770	7.702298	1.304805	0.000154
 181	1.7910e+01	3.5854	104.682930	0.001054	10.539987	1.785522	0.000211
 182	1.8009e+01	3.6050	104.892861	0.001054	10.539987	1.785522	0.000211
 183	1.8109e+01	3.6243	105.046272	0.000770	7.702298	1.304805	0.000154
 184	1.8209e+01	3.6446	105.252166	0.001034	10.337295	1.751185	0.000207
 185	1.8308e+01	3.6648	105.401540	0.000750	7.499606	1.270468	0.000150
 186	1.8407e+01	3.6844	105.619545	0.001095	10.945371	1.854196	0.000219
 187	1.8507e+01	3.7048	105.776993	0.000790	7.904990	1.339142	0.000158
 188	1.8607e+01	3.7243	105.926367	0.000750	7.499606	1.270468	0.000150
 189	1.8706e+01	3.7453	106.120150	0.000973	9.729218	1.648174	0.000195
 190	1.8805e+01	3.7657	106.273561	0.000770	7.702298	1.304805	0.000154
 191	1.8905e+01	3.7840	106.471381	0.000993	9.931910	1.682511	0.000199
 192	1.9005e+01	3.8039	106.697460	0.001135	11.350755	1.922870	0.000227
 193	1.9104e+01	3.8238	106.822612	0.000628	6.283454	1.064446	0.000126
 194	1.9203e+01	3.8432	107.008320	0.000932	9.323834	1.579500	0.000187
 195	1.9303e+01	3.8643	107.145582	0.000689	6.891530	1.167457	0.000138
 196	1.9402e+01	3.8840	107.367625	0.001115	11.148063	1.888533	0.000223
 197	1.9502e+01	3.9037	107.573519	0.001034	10.337295	1.751185	0.000207
 198	1.9602e+01	3.9223	107.718856	0.000730	7.296914	1.236131	0.000146
 199	1.9701e+01	3.9431	107.924750	0.001034	10.337295	1.751185	0.000207
 200	1.9800e+01	3.9635	108.045864	0.000608	6.080761	1.030109	0.000122
 201	1.9900e+01	3.9834	108.271943	0.001135	11.350755	1.922870	0.000227
 202	2.0000e+01	4.0032	108.437466	0.000831	8.310374	1.407815	0.000166
 203	2.0099e+01	4.0240	108.590877	0.000770	7.702298	1.304805	0.000154
 204	2.0198e+01	4.0427	108.800808	0.001054	10.539987	1.785522	0.000211
 205	2.0298e+01	4.0641	108.954219	0.000770	7.702298	1.304805	0.000154
 206	2.0398e+01	4.0826	109.103593	0.000750	7.499606	1.270468	0.000150
 207	2.0497e+01	4.1021	109.301413	0.000993	9.931910	1.682511	0.000199
 208	2.0596e+01	4.1235	109.483084	0.000912	9.121142	1.545163	0.000183
 209	2.0696e+01	4.1438	109.672829	0.000953	9.526526	1.613837	0.000191
 210	2.0796e+01	4.1625	109.834315	0.000811	8.107682	1.373479	0.000162
 211	2.0895e+01	4.1779	110.007912	0.000872	8.715758	1.476489	0.000174
 212	2.0994e+01	4.2023	110.149211	0.000709	7.094222	1.201794	0.000142
 213	2.1094e+01	4.2223	110.330883	0.000912	9.121142	1.545163	0.000183
 214	2.1194e+01	4.2426	110.532739	0.001013	10.134602	1.716848	0.000203
 215	2.1293e+01	4.2628	110.726522	0.000973	9.729218	1.648174	0.000195
 216	2.1392e+01	4.2829	110.879933	0.000770	7.702298	1.304805	0.000154
 217	2.1492e+01	4.3028	111.045456	0.000831	8.310374	1.407815	0.000166
 218	2.1591e+01	4.3223	111.219052	0.000872	8.715758	1.476489	0.000174
 219	2.1691e+01	4.3426	111.376501	0.000790	7.904990	1.339142	0.000158
 220	2.1791e+01	4.3615	111.550098	0.000872	8.715758	1.476489	0.000174
 221	2.1890e+01	4.3822	111.719657	0.000851	8.513066	1.442152	0.000170
 222	2.1989e+01	4.4020	111.881143	0.000811	8.107682	1.373479	0.000162
 223	2.2089e+01	4.4225	112.058777	0.000892	8.918450	1.510826	0.000179
 224	2.2189e+01	4.4422	112.252559	0.000973	9.729218	1.648174	0.000195
 225	2.2288e+01	4.4622	112.389822	0.000689	6.891530	1.167457	0.000138
 226	2.2387e+01	4.4812	112.555344	0.000831	8.310374	1.407815	0.000166
 227	2.2487e+01	4.5016	112.745090	0.000953	9.526526	1.613837	0.000191
 228	2.2587e+01	4.5211	112.910612	0.000831	8.310374	1.407815	0.000166
 229	2.2686e+01	4.5412	113.080172	0.000851	8.513066	1.442152	0.000170
 230	2.2785e+01	4.5607	113.253769	0.000872	8.715758	1.476489	0.000174
 231	2.2885e+01	4.5820	113.447551	0.000973	9.729218	1.648174	0.000195
 232	2.2985e+01	4.6014	113.609037	0.000811	8.107682	1.373479	0.000162
 233	2.3084e+01	4.6206	113.750337	0.000709	7.094222	1.201794	0.000142
 234	2.3183e+01	4.6411	113.964305	0.001074	10.742679	1.819859	0.000215
 235	2.3283e+01	4.6614	114.069270	0.000527	5.269993	0.892761	0.000105
 236	2.3383e+01	4.6809	114.283238	0.001074	10.742679	1.819859	0.000215
 237	2.3482e+01	4.7008	114.444724	0.000811	8.107682	1.373479	0.000162
 238	2.3581e+01	4.7209	114.569875	0.000628	6.283454	1.064446	0.000126
 239	2.3681e+01	4.7412	114.747509	0.000892	8.918450	1.510826	0.000179
 240	2.3780e+01	4.7610	114.957440	0.001054	10.539987	1.785522	0.000211
 241	2.3880e+01	4.7805	115.082591	0.000628	6.283454	1.064446	0.000126
 242	2.3980e+01	4.8000	115.268300	0.000932	9.323834	1.579500	0.000187
 243	2.4079e+01	4.8203	115.445934	0.000892	8.918450	1.510826	0.000179
 244	2.4178e+01	4.8399	115.631642	0.000932	9.323834	1.579500	0.000187
 245	2.4278e+01	4.8598	115.760830	0.000649	6.486146	1.098783	0.000130
 246	2.4378e+01	4.8809	115.954613	0.000973	9.729218	1.648174	0.000195
 247	2.4477e+01	4.8998	116.124172	0.000851	8.513066	1.442152	0.000170
 248	2.4576e+01	4.9203	116.293732	0.000851	8.513066	1.442152	0.000170
 249	2.4676e+01	4.9390	116.422920	0.000649	6.486146	1.098783	0.000130
 250	2.4776e+01	4.9603	116.584406	0.000811	8.107682	1.373479	0.000162
 251	2.4875e+01	4.9795	116.753966	0.000851	8.513066	1.442152	0.000170
 252	2.4974e+01	4.9999	116.939674	0.000932	9.323834	1.579500	0.000187
 253	2.5074e+01	5.0193	117.072899	0.000669	6.688838	1.133120	0.000134
 254	2.5174e+01	5.0394	117.206125	0.000669	6.688838	1.133120	0.000134
 255	2.5273e+01	5.0594	117.367610	0.000811	8.107682	1.373479	0.000162
 256	2.5372e+01	5.0788	117.581578	0.001074	10.742679	1.819859	0.000215
 257	2.5472e+01	5.0994	117.718841	0.000689	6.891530	1.167457	0.000138
 258	2.5572e+01	5.1183	117.864178	0.000730	7.296914	1.236131	0.000146
 259	2.5671e+01	5.1394	118.037775	0.000872	8.715758	1.476489	0.000174
 260	2.5770e+01	5.1589	118.187149	0.000750	7.499606	1.270468	0.000150
 261	2.5870e+01	5.1781	118.356708	0.000851	8.513066	1.442152	0.000170
 262	2.5970e+01	5.1991	118.518194	0.000811	8.107682	1.373479	0.000162
 263	2.6069e+01	5.2174	118.675642	0.000790	7.904990	1.339142	0.000158
 264	2.6169e+01	5.2383	118.820979	0.000730	7.296914	1.236131	0.000146
 265	2.6268e+01	5.2581	118.994576	0.000872	8.715758	1.476489	0.000174
 266	2.6367e+01	5.2773	119.168173	0.000872	8.715758	1.476489	0.000174
 267	2.6467e+01	5.2973	119.365992	0.000993	9.931910	1.682511	0.000199
 268	2.6567e+01	5.3176	119.495181	0.000649	6.486146	1.098783	0.000130
 269	2.6666e+01	5.3384	119.640518	0.000730	7.296914	1.236131	0.000146
 270	2.6765e+01	5.3579	119.789892	0.000750	7.499606	1.270468	0.000150
 271	2.6865e+01	5.3788	119.967526	0.000892	8.918450	1.510826	0.000179
 272	2.6965e+01	5.3976	120.133048	0.000831	8.310374	1.407815	0.000166
 273	2.7064e+01	5.4177	120.310682	0.000892	8.918450	1.510826	0.000179
 274	2.7163e+01	5.4387	120.451982	0.000709	7.094222	1.201794	0.000142
 275	2.7263e+01	5.4567	120.617504	0.000831	8.310374	1.407815	0.000166
 276	2.7363e+01	5.4778	120.803213	0.000932	9.323834	1.579500	0.000187
 277	2.7462e+01	5.4975	120.952587	0.000750	7.499606	1.270468	0.000150
 278	2.7561e+01	5.5166	121.073701	0.000608	6.080761	1.030109	0.000122
 279	2.7661e+01	5.5374	121.255372	0.000912	9.121142	1.545163	0.000183
 280	2.7761e+01	5.5569	121.420894	0.000831	8.310374	1.407815	0.000166
 281	2.7860e+01	5.5773	121.566231	0.000730	7.296914	1.236131	0.000146
 282	2.7959e+01	5.5972	121.755977	0.000953	9.526526	1.613837	0.000191
 283	2.8059e+01	5.6190	121.893239	0.000689	6.891530	1.167457	0.000138
 284	2.8159e+01	5.6374	122.066836	0.000872	8.715758	1.476489	0.000174
 285	2.8258e+01	5.6567	122.236396	0.000851	8.513066	1.442152	0.000170
 286	2.8358e+01	5.6765	122.341361	0.000527	5.269993	0.892761	0.000105
 287	2.8457e+01	5.6966	122.510921	0.000851	8.513066	1.442152	0.000170
 288	2.8556e+01	5.7166	122.688555	0.000892	8.918450	1.510826	0.000179
 289	2.8656e+01	5.7374	122.846003	0.000790	7.904990	1.339142	0.000158
 290	2.8756e+01	5.7563	122.959043	0.000568	5.675377	0.961435	0.000114
 291	2.8855e+01	5.7764	123.164937	0.001034	10.337295	1.751185	0.000207
 292	2.8954e+01	5.7964	123.290088	0.000628	6.283454	1.064446	0.000126
 293	2.9054e+01	5.8155	123.463685	0.000872	8.715758	1.476489	0.000174
 294	2.9154e+01	5.8364	123.617096	0.000770	7.702298	1.304805	0.000154
 295	2.9253e+01	5.8561	123.802805	0.000932	9.323834	1.579500	0.000187
 296	2.9352e+01	5.8758	123.923919	0.000608	6.080761	1.030109	0.000122
 297	2.9452e+01	5.8955	124.109627	0.000932	9.323834	1.579500	0.000187
 298	2.9552e+01	5.9163	124.267075	0.000790	7.904990	1.339142	0.000158
 299	2.9651e+01	5.9356	124.392226	0.000628	6.283454	1.064446	0.000126
 300	2.9750e+01	5.9557	124.553712	0.000811	8.107682	1.373479	0.000162
 301	2.9850e+01	5.9767	124.711160	0.000790	7.904990	1.339142	0.000158
 302	2.9950e+01	5.9959	124.836311	0.000628	6.283454	1.064446	0.000126
 303	3.0049e+01	6.0162	125.022020	0.000932	9.323834	1.579500	0.000187
 304	3.0148e+01	6.0352	125.179468	0.000790	7.904990	1.339142	0.000158
 305	3.0248e+01	6.0558	125.308656	0.000649	6.486146	1.098783	0.000130
 306	3.0348e+01	6.0751	125.470142	0.000811	8.107682	1.373479	0.000162
 307	3.0447e+01	6.0952	125.623553	0.000770	7.702298	1.304805	0.000154
 308	3.0547e+01	6.1150	125.793112	0.000851	8.513066	1.442152	0.000170
 309	3.0646e+01	6.1352	125.938449	0.000730	7.296914	1.236131	0.000146
 310	3.0745e+01	6.1552	126.112046	0.000872	8.715758	1.476489	0.000174
 311	3.0845e+01	6.1753	126.217012	0.000527	5.269993	0.892761	0.000105
 312	3.0945e+01	6.1947	126.378497	0.000811	8.107682	1.373479	0.000162
 313	3.1044e+01	6.2148	126.515760	0.000689	6.891530	1.167457	0.000138
 314	3.1143e+01	6.2356	126.757988	0.001216	12.161523	2.060218	0.000243
 315	3.1243e+01	6.2533	126.842768	0.000426	4.256533	0.721076	0.000085
 316	3.1343e+01	6.2740	127.028476	0.000932	9.323834	1.579500	0.000187
 317	3.1442e+01	6.2946	127.133442	0.000527	5.269993	0.892761	0.000105
 318	3.1541e+01	6.3140	127.274741	0.000709	7.094222	1.201794	0.000142
 319	3.1641e+01	6.3332	127.424115	0.000750	7.499606	1.270468	0.000150
 320	3.1741e+01	6.3531	127.589638	0.000831	8.310374	1.407815	0.000166
 321	3.1840e+01	6.3741	127.714789	0.000628	6.283454	1.064446	0.000126
 322	3.1939e+01	6.3931	127.900497	0.000932	9.323834	1.579500	0.000187
 323	3.2039e+01	6.4129	128.037760	0.000689	6.891530	1.167457	0.000138
 324	3.2139e+01	6.4341	128.207320	0.000851	8.513066	1.442152	0.000170
 325	3.2238e+01	6.4526	128.324397	0.000588	5.878069	0.995772	0.000118
 326	3.2337e+01	6.4733	128.489919	0.000831	8.310374	1.407815	0.000166
 327	3.2437e+01	6.4928	128.615070	0.000628	6.283454	1.064446	0.000126
 328	3.2536e+01	6.5127	128.780593	0.000831	8.310374	1.407815	0.000166
 329	3.2636e+01	6.5325	128.950153	0.000851	8.513066	1.442152	0.000170
 330	3.2736e+01	6.5526	129.079341	0.000649	6.486146	1.098783	0.000130
 331	3.2835e+01	6.5731	129.212566	0.000669	6.688838	1.133120	0.000134
 332	3.2934e+01	6.5931	129.378089	0.000831	8.310374	1.407815	0.000166
 333	3.3034e+01	6.6129	129.539574	0.000811	8.107682	1.373479	0.000162
 334	3.3133e+01	6.6324	129.701060	0.000811	8.107682	1.373479	0.000162
 335	3.3233e+01	6.6528	129.838322	0.000689	6.891530	1.167457	0.000138
 336	3.3333e+01	6.6735	129.975585	0.000689	6.891530	1.167457	0.000138
 337	3.3432e+01	6.6936	130.137071	0.000811	8.107682	1.373479	0.000162
 338	3.3532e+01	6.7120	130.254147	0.000588	5.878069	0.995772	0.000118
 339	3.3631e+01	6.7340	130.411596	0.000790	7.904990	1.339142	0.000158
 340	3.3730e+01	6.7513	130.500413	0.000446	4.459225	0.755413	0.000089
 341	3.3830e+01	6.7715	130.718418	0.001095	10.945371	1.854196	0.000219
 342	3.3929e+01	6.7912	130.831458	0.000568	5.675377	0.961435	0.000114
 343	3.4029e+01	6.8124	131.033315	0.001013	10.134602	1.716848	0.000203
 344	3.4129e+01	6.8314	131.138280	0.000527	5.269993	0.892761	0.000105
 345	3.4228e+01	6.8510	131.279580	0.000709	7.094222	1.201794	0.000142
 346	3.4328e+01	6.8717	131.457214	0.000892	8.918450	1.510826	0.000179
 347	3.4427e+01	6.8920	131.642922	0.000932	9.323834	1.579500	0.000187
 348	3.4526e+01	6.9109	131.735776	0.000466	4.661917	0.789750	0.000093
 349	3.4626e+01	6.9319	131.869002	0.000669	6.688838	1.133120	0.000134
 350	3.4725e+01	6.9506	132.034524	0.000831	8.310374	1.407815	0.000166
 351	3.4825e+01	6.9720	132.151601	0.000588	5.878069	0.995772	0.000118
 352	3.4925e+01	6.9947	132.317124	0.000831	8.310374	1.407815	0.000166
 353	3.5024e+01	7.0112	132.462461	0.000730	7.296914	1.236131	0.000146
 354	3.5123e+01	7.0303	132.559352	0.000486	4.864609	0.824087	0.000097
 355	3.5223e+01	7.0510	132.696615	0.000689	6.891530	1.167457	0.000138
 356	3.5322e+01	7.0714	132.878286	0.000912	9.121142	1.545163	0.000183
 357	3.5422e+01	7.0906	133.007474	0.000649	6.486146	1.098783	0.000130
 358	3.5522e+01	7.1116	133.152811	0.000730	7.296914	1.236131	0.000146
 359	3.5621e+01	7.1311	133.318333	0.000831	8.310374	1.407815	0.000166
 360	3.5721e+01	7.1507	133.471745	0.000770	7.702298	1.304805	0.000154
 361	3.5820e+01	7.1709	133.576710	0.000527	5.269993	0.892761	0.000105
 362	3.5919e+01	7.1905	133.730121	0.000770	7.702298	1.304805	0.000154
 363	3.6019e+01	7.2100	133.859310	0.000649	6.486146	1.098783	0.000130
 364	3.6118e+01	7.2295	134.000609	0.000709	7.094222	1.201794	0.000142
 365	3.6218e+01	7.2500	134.154021	0.000770	7.702298	1.304805	0.000154
 366	3.6318e+01	7.2707	134.267060	0.000568	5.675377	0.961435	0.000114
 367	3.6417e+01	7.2892	134.432583	0.000831	8.310374	1.407815	0.000166
 368	3.6517e+01	7.3096	134.590031	0.000790	7.904990	1.339142	0.000158
 369	3.6616e+01	7.3300	134.703071	0.000568	5.675377	0.961435	0.000114
 370	3.6715e+01	7.3499	134.856482	0.000770	7.702298	1.304805	0.000154
 371	3.6815e+01	7.3657	135.013930	0.000790	7.904990	1.339142	0.000158
 372	3.6914e+01	7.3897	135.131007	0.000588	5.878069	0.995772	0.000118
 373	3.7014e+01	7.4108	135.272307	0.000709	7.094222	1.201794	0.000142
 374	3.7114e+01	7.4290	135.397458	0.000628	6.283454	1.064446	0.000126
 375	3.7213e+01	7.4494	135.518572	0.000608	6.080761	1.030109	0.000122
 376	3.7313e+01	7.4685	135.663909	0.000730	7.296914	1.236131	0.000146
 377	3.7412e+01	7.4895	135.797135	0.000669	6.688838	1.133120	0.000134
 378	3.7511e+01	7.5109	135.962657	0.000831	8.310374	1.407815	0.000166
 379	3.7611e+01	7.5294	136.079734	0.000588	5.878069	0.995772	0.000118
 380	3.7711e+01	7.5494	136.233145	0.000770	7.702298	1.304805	0.000154
 381	3.7810e+01	7.5689	136.390594	0.000790	7.904990	1.339142	0.000158
 382	3.7910e+01	7.5886	136.499596	0.000547	5.472685	0.927098	0.000110
 383	3.8009e+01	7.6086	136.669156	0.000851	8.513066	1.442152	0.000170
 384	3.8108e+01	7.6305	136.810456	0.000709	7.094222	1.201794	0.000142
 385	3.8208e+01	7.6485	136.951756	0.000709	7.094222	1.201794	0.000142
 386	3.8307e+01	7.6682	137.068833	0.000588	5.878069	0.995772	0.000118
 387	3.8407e+01	7.6879	137.185910	0.000588	5.878069	0.995772	0.000118
 388	3.8507e+01	7.7081	137.363543	0.000892	8.918450	1.510826	0.000179
 389	3.8606e+01	7.7283	137.492732	0.000649	6.486146	1.098783	0.000130
 390	3.8706e+01	7.7485	137.617883	0.000628	6.283454	1.064446	0.000126
 391	3.8805e+01	7.7666	137.779368	0.000811	8.107682	1.373479	0.000162
 392	3.8904e+01	7.7869	137.900483	0.000608	6.080761	1.030109	0.000122
 393	3.9004e+01	7.8069	138.053894	0.000770	7.702298	1.304805	0.000154
 394	3.9103e+01	7.8271	138.175008	0.000608	6.080761	1.030109	0.000122
 395	3.9203e+01	7.8477	138.332456	0.000790	7.904990	1.339142	0.000158
 396	3.9303e+01	7.8669	138.437422	0.000527	5.269993	0.892761	0.000105
 397	3.9402e+01	7.8868	138.594870	0.000790	7.904990	1.339142	0.000158
 398	3.9502e+01	7.9077	138.736170	0.000709	7.094222	1.201794	0.000142
 399	3.9601e+01	7.9278	138.853247	0.000588	5.878069	0.995772	0.000118
 400	3.9700e+01	7.9472	139.022806	0.000851	8.513066	1.442152	0.000170
 401	3.9800e+01	7.9673	139.143920	0.000608	6.080761	1.030109	0.000122
 402	3.9900e+01	7.9869	139.281183	0.000689	6.891530	1.167457	0.000138
 403	3.9999e+01	8.0076	139.422483	0.000709	7.094222	1.201794	0.000142
 404	4.0099e+01	8.0260	139.511300	0.000446	4.459225	0.755413	0.000089
 405	4.0198e+01	8.0470	139.652599	0.000709	7.094222	1.201794	0.000142
 406	4.0297e+01	8.0669	139.797936	0.000730	7.296914	1.236131	0.000146
 407	4.0397e+01	8.0869	139.947310	0.000750	7.499606	1.270468	0.000150
 408	4.0496e+01	8.1059	140.100722	0.000770	7.702298	1.304805	0.000154
 409	4.0596e+01	8.1268	140.229910	0.000649	6.486146	1.098783	0.000130
 410	4.0696e+01	8.1472	140.367172	0.000689	6.891530	1.167457	0.000138
 411	4.0795e+01	8.1658	140.504435	0.000689	6.891530	1.167457	0.000138
 412	4.0895e+01	8.1860	140.609401	0.000527	5.269993	0.892761	0.000105
 413	4.0994e+01	8.2062	140.754738	0.000730	7.296914	1.236131	0.000146
 414	4.1093e+01	8.2261	140.896037	0.000709	7.094222	1.201794	0.000142
 415	4.1193e+01	8.2452	141.045411	0.000750	7.499606	1.270468	0.000150
 416	4.1292e+01	8.2646	141.146340	0.000507	5.067301	0.858424	0.000101
 417	4.1392e+01	8.2870	141.303788	0.000790	7.904990	1.339142	0.000158
 418	4.1492e+01	8.3064	141.437013	0.000669	6.688838	1.133120	0.000134
 419	4.1591e+01	8.3254	141.606573	0.000851	8.513066	1.442152	0.000170
 420	4.1691e+01	8.3448	141.715576	0.000547	5.472685	0.927098	0.000110
 421	4.1790e+01	8.3622	141.824578	0.000547	5.472685	0.927098	0.000110
 422	4.1889e+01	8.3857	141.929544	0.000527	5.269993	0.892761	0.000105
 423	4.1989e+01	8.4052	142.082955	0.000770	7.702298	1.304805	0.000154
 424	4.2089e+01	8.4254	142.212144	0.000649	6.486146	1.098783	0.000130
 425	4.2188e+01	8.4455	142.353443	0.000709	7.094222	1.201794	0.000142
 426	4.2288e+01	8.4647	142.482632	0.000649	6.486146	1.098783	0.000130
 427	4.2387e+01	8.4848	142.615857	0.000669	6.688838	1.133120	0.000134
 428	4.2486e+01	8.5044	142.789454	0.000872	8.715758	1.476489	0.000174
 429	4.2586e+01	8.5249	142.890382	0.000507	5.067301	0.858424	0.000101
 430	4.2685e+01	8.5449	143.031682	0.000709	7.094222	1.201794	0.000142
 431	4.2785e+01	8.5651	143.209316	0.000892	8.918450	1.510826	0.000179
 432	4.2885e+01	8.5852	143.318319	0.000547	5.472685	0.927098	0.000110
 433	4.2984e+01	8.6046	143.407136	0.000446	4.459225	0.755413	0.000089
 434	4.3084e+01	8.6252	143.576695	0.000851	8.513066	1.442152	0.000170
 435	4.3183e+01	8.6443	143.677624	0.000507	5.067301	0.858424	0.000101
 436	4.3282e+01	8.6646	143.859295	0.000912	9.121142	1.545163	0.000183
 437	4.3382e+01	8.6838	143.956186	0.000486	4.864609	0.824087	0.000097
 438	4.3481e+01	8.7044	144.121709	0.000831	8.310374	1.407815	0.000166
 439	4.3581e+01	8.7238	144.258971	0.000689	6.891530	1.167457	0.000138
 440	4.3681e+01	8.7436	144.384123	0.000628	6.283454	1.064446	0.000126
 441	4.3780e+01	8.7653	144.509274	0.000628	6.283454	1.064446	0.000126
 442	4.3880e+01	8.7842	144.682871	0.000872	8.715758	1.476489	0.000174
 443	4.3979e+01	8.8041	144.799948	0.000588	5.878069	0.995772	0.000118
 444	4.4078e+01	8.8241	144.921062	0.000608	6.080761	1.030109	0.000122
 445	4.4178e+01	8.8428	145.050250	0.000649	6.486146	1.098783	0.000130
 446	4.4278e+01	8.8624	145.187513	0.000689	6.891530	1.167457	0.000138
 447	4.4377e+01	8.8824	145.336887	0.000750	7.499606	1.270468	0.000150
 448	4.4477e+01	8.9029	145.478186	0.000709	7.094222	1.201794	0.000142
 449	4.4576e+01	8.9214	145.631597	0.000770	7.702298	1.304805	0.000154
 450	4.4675e+01	8.9417	145.736563	0.000527	5.269993	0.892761	0.000105
 451	4.4775e+01	8.9628	145.889974	0.000770	7.702298	1.304805	0.000154
 452	4.4874e+01	8.9826	146.015125	0.000628	6.283454	1.064446	0.000126
 453	4.4974e+01	9.0022	146.152388	0.000689	6.891530	1.167457	0.000138
 454	4.5074e+01	9.0228	146.281576	0.000649	6.486146	1.098783	0.000130
 455	4.5173e+01	9.0418	146.414802	0.000669	6.688838	1.133120	0.000134
 456	4.5273e+01	9.0617	146.552064	0.000689	6.891530	1.167457	0.000138
 457	4.5372e+01	9.0827	146.673178	0.000608	6.080761	1.030109	0.000122
 458	4.5471e+01	9.1011	146.842738	0.000851	8.513066	1.442152	0.000170
 459	4.5571e+01	9.1212	146.955778	0.000568	5.675377	0.961435	0.000114
 460	4.5670e+01	9.1425	147.101115	0.000730	7.296914	1.236131	0.000146
 461	4.5770e+01	9.1615	147.202043	0.000507	5.067301	0.858424	0.000101
 462	4.5870e+01	9.1785	147.347380	0.000730	7.296914	1.236131	0.000146
 463	4.5969e+01	9.2020	147.460420	0.000568	5.675377	0.961435	0.000114
 464	4.6069e+01	9.2213	147.605757	0.000730	7.296914	1.236131	0.000146
 465	4.6168e+01	9.2419	147.747057	0.000709	7.094222	1.201794	0.000142
 466	4.6267e+01	9.2622	147.856059	0.000547	5.472685	0.927098	0.000110
 467	4.6367e+01	9.2823	148.070027	0.001074	10.742679	1.819859	0.000215
 468	4.6467e+01	9.3018	148.183067	0.000568	5.675377	0.961435	0.000114
 469	4.6566e+01	9.3213	148.316293	0.000669	6.688838	1.133120	0.000134
 470	4.6666e+01	9.3408	148.465667	0.000750	7.499606	1.270468	0.000150
 471	4.6765e+01	9.3604	148.606967	0.000709	7.094222	1.201794	0.000142
 472	4.6864e+01	9.3806	148.752303	0.000730	7.296914	1.236131	0.000146
 473	4.6964e+01	9.4013	148.833046	0.000405	4.053841	0.686739	0.000081
 474	4.7063e+01	9.4206	148.998569	0.000831	8.310374	1.407815	0.000166
 475	4.7163e+01	9.4411	149.135831	0.000689	6.891530	1.167457	0.000138
 476	4.7263e+01	9.4607	149.252908	0.000588	5.878069	0.995772	0.000118
 477	4.7362e+01	9.4799	149.414394	0.000811	8.107682	1.373479	0.000162
 478	4.7462e+01	9.4997	149.535508	0.000608	6.080761	1.030109	0.000122
 479	4.7561e+01	9.5203	149.684882	0.000750	7.499606	1.270468	0.000150
 480	4.7660e+01	9.5396	149.842330	0.000790	7.904990	1.339142	0.000158
 481	4.7760e+01	9.5599	149.951333	0.000547	5.472685	0.927098	0.000110
 482	4.7859e+01	9.5801	150.096670	0.000730	7.296914	1.236131	0.000146
 483	4.7959e+01	9.5988	150.250081	0.000770	7.702298	1.304805	0.000154
 484	4.8059e+01	9.6191	150.391381	0.000709	7.094222	1.201794	0.000142
 485	4.8158e+01	9.6397	150.504420	0.000568	5.675377	0.961435	0.000114
 486	4.8258e+01	9.6594	150.645720	0.000709	7.094222	1.201794	0.000142
 487	4.8357e+01	9.6794	150.758760	0.000568	5.675377	0.961435	0.000114
 488	4.8456e+01	9.6985	150.952542	0.000973	9.729218	1.648174	0.000195
 489	4.8556e+01	9.7189	151.085768	0.000669	6.688838	1.133120	0.000134
 490	4.8656e+01	9.7392	151.198808	0.000568	5.675377	0.961435	0.000114
 491	4.8755e+01	9.7591	151.352219	0.000770	7.702298	1.304805	0.000154
 492	4.8855e+01	9.7797	151.501593	0.000750	7.499606	1.270468	0.000150
 493	4.8954e+01	9.7998	151.622707	0.000608	6.080761	1.030109	0.000122
 494	4.9053e+01	9.8193	151.776118	0.000770	7.702298	1.304805	0.000154
 495	4.9153e+01	9.8389	151.901269	0.000628	6.283454	1.064446	0.000126
 496	4.9252e+01	9.8577	152.042569	0.000709	7.094222	1.201794	0.000142
 497	4.9352e+01	9.8792	152.200017	0.000790	7.904990	1.339142	0.000158
 498	4.9452e+01	9.8975	152.373614	0.000872	8.715758	1.476489	0.000174
 499	4.9551e+01	9.9182	152.478580	0.000527	5.269993	0.892761	0.000105
 500	4.9651e+01	9.9384	152.627954	0.000750	7.499606	1.270468	0.000150
 501	4.9750e+01	9.9585	152.745031	0.000588	5.878069	0.995772	0.000118
 502	4.9849e+01	9.9781	152.910553	0.000831	8.310374	1.407815	0.000166
 503	4.9949e+01	9.9989	153.059927	0.000750	7.499606	1.270468	0.000150
 504	5.0048e+01	9.9765	153.003407	0.000284	2.837689	0.480717	-0.000057
 505	5.0148e+01	9.9596	152.991296	0.000061	0.608076	0.103011	-0.000012
 506	5.0248e+01	9.9374	152.930739	0.000304	3.040381	0.515054	-0.000061
 507	5.0347e+01	9.9188	152.886330	0.000223	2.229613	0.377707	-0.000045
 508	5.0447e+01	9.8991	152.809625	0.000385	3.851149	0.652402	-0.000077
 509	5.0546e+01	9.8788	152.805588	0.000020	0.202692	0.034337	-0.000004
 510	5.0645e+01	9.8586	152.716771	0.000446	4.459225	0.755413	-0.000089
 511	5.0745e+01	9.8389	152.668325	0.000243	2.432305	0.412044	-0.000049
 512	5.0844e+01	9.8193	152.603731	0.000324	3.243073	0.549391	-0.000065
 513	5.0944e+01	9.7998	152.555285	0.000243	2.432305	0.412044	-0.000049
 514	5.1044e+01	9.7794	152.486654	0.000345	3.445765	0.583728	-0.000069
 515	5.1143e+01	9.7584	152.446283	0.000203	2.026920	0.343370	-0.000041
 516	5.1242e+01	9.7396	152.401874	0.000223	2.229613	0.377707	-0.000045
 517	5.1342e+01	9.7205	152.337280	0.000324	3.243073	0.549391	-0.000065
 518	5.1441e+01	9.6993	152.252500	0.000426	4.256533	0.721076	-0.000085
 519	5.1541e+01	9.6792	152.191943	0.000304	3.040381	0.515054	-0.000061
 520	5.1641e+01	9.6602	152.139460	0.000263	2.634997	0.446381	-0.000053
 521	5.1740e+01	9.6399	152.062755	0.000385	3.851149	0.652402	-0.000077
 522	5.1840e+01	9.6200	151.986049	0.000385	3.851149	0.652402	-0.000077
 523	5.1939e+01	9.5990	151.937604	0.000243	2.432305	0.412044	-0.000049
 524	5.2038e+01	9.5798	151.856861	0.000405	4.053841	0.686739	-0.000081
 525	5.2138e+01	9.5589	151.800341	0.000284	2.837689	0.480717	-0.000057
 526	5.2237e+01	9.5410	151.703450	0.000486	4.864609	0.824087	-0.000097
 527	5.2337e+01	9.5197	151.634818	0.000345	3.445765	0.583728	-0.000069
 528	5.2437e+01	9.5003	151.566187	0.000345	3.445765	0.583728	-0.000069
 529	5.2536e+01	9.4800	151.541964	0.000122	1.216152	0.206022	-0.000024
 530	5.2636e+01	9.4608	151.461221	0.000405	4.053841	0.686739	-0.000081
 531	5.2735e+01	9.4398	151.412776	0.000243	2.432305	0.412044	-0.000049
 532	5.2834e+01	9.4204	151.323959	0.000446	4.459225	0.755413	-0.000089
 533	5.2934e+01	9.4002	151.214956	0.000547	5.472685	0.927098	-0.000110
 534	5.3033e+01	9.3806	151.166511	0.000243	2.432305	0.412044	-0.000049
 535	5.3133e+01	9.3620	151.109991	0.000284	2.837689	0.480717	-0.000057
 536	5.3233e+01	9.3408	151.041359	0.000345	3.445765	0.583728	-0.000069
 537	5.3332e+01	9.3213	150.972728	0.000345	3.445765	0.583728	-0.000069
 538	5.3431e+01	9.2988	150.924282	0.000243	2.432305	0.412044	-0.000049
 539	5.3531e+01	9.2815	150.815280	0.000547	5.472685	0.927098	-0.000110
 540	5.3630e+01	9.2603	150.750686	0.000324	3.243073	0.549391	-0.000065
 541	5.3730e+01	9.2416	150.694166	0.000284	2.837689	0.480717	-0.000057
 542	5.3830e+01	9.2216	150.617460	0.000385	3.851149	0.652402	-0.000077
 543	5.3929e+01	9.2017	150.524606	0.000466	4.661917	0.789750	-0.000093
 544	5.4029e+01	9.1801	150.443863	0.000405	4.053841	0.686739	-0.000081
 545	5.4128e+01	9.1618	150.371195	0.000365	3.648457	0.618065	-0.000073
 546	5.4227e+01	9.1415	150.266229	0.000527	5.269993	0.892761	-0.000105
 547	5.4327e+01	9.1215	150.233932	0.000162	1.621536	0.274696	-0.000032
 548	5.4426e+01	9.1016	150.124930	0.000547	5.472685	0.927098	-0.000110
 549	5.4526e+01	9.0826	150.056298	0.000345	3.445765	0.583728	-0.000069
 550	5.4626e+01	9.0625	149.995741	0.000304	3.040381	0.515054	-0.000061
 551	5.4725e+01	9.0417	149.914998	0.000405	4.053841	0.686739	-0.000081
 552	5.4825e+01	9.0215	149.810033	0.000527	5.269993	0.892761	-0.000105
 553	5.4924e+01	9.0039	149.765624	0.000223	2.229613	0.377707	-0.000045
 554	5.5023e+01	8.9814	149.668733	0.000486	4.864609	0.824087	-0.000097
 555	5.5123e+01	8.9621	149.616250	0.000263	2.634997	0.446381	-0.000053
 556	5.5222e+01	8.9425	149.487062	0.000649	6.486146	1.098783	-0.000130
 557	5.5322e+01	8.9229	149.410357	0.000385	3.851149	0.652402	-0.000077
 558	5.5422e+01	8.9038	149.341725	0.000345	3.445765	0.583728	-0.000069
 559	5.5521e+01	8.8831	149.297317	0.000223	2.229613	0.377707	-0.000045
 560	5.5620e+01	8.8636	149.196388	0.000507	5.067301	0.858424	-0.000101
 561	5.5720e+01	8.8436	149.123720	0.000365	3.648457	0.618065	-0.000073
 562	5.5819e+01	8.8232	149.018754	0.000527	5.269993	0.892761	-0.000105
 563	5.5919e+01	8.8041	148.946086	0.000365	3.648457	0.618065	-0.000073
 564	5.6019e+01	8.7830	148.865343	0.000405	4.053841	0.686739	-0.000081
 565	5.6118e+01	8.7634	148.788638	0.000385	3.851149	0.652402	-0.000077
 566	5.6218e+01	8.7435	148.732118	0.000284	2.837689	0.480717	-0.000057
 567	5.6317e+01	8.7244	148.659449	0.000365	3.648457	0.618065	-0.000073
 568	5.6416e+01	8.7041	148.550447	0.000547	5.472685	0.927098	-0.000110
 569	5.6516e+01	8.6839	148.469704	0.000405	4.053841	0.686739	-0.000081
 570	5.6615e+01	8.6649	148.405110	0.000324	3.243073	0.549391	-0.000065
 571	5.6715e+01	8.6431	148.275921	0.000649	6.486146	1.098783	-0.000130
 572	5.6815e+01	8.6242	148.207290	0.000345	3.445765	0.583728	-0.000069
 573	5.6914e+01	8.6050	148.183067	0.000122	1.216152	0.206022	-0.000024
 574	5.7014e+01	8.5841	148.041768	0.000709	7.094222	1.201794	-0.000142
 575	5.7113e+01	8.5658	147.936802	0.000527	5.269993	0.892761	-0.000105
 576	5.7212e+01	8.5453	147.884319	0.000263	2.634997	0.446381	-0.000053
 577	5.7312e+01	8.5250	147.775317	0.000547	5.472685	0.927098	-0.000110
 578	5.7411e+01	8.5047	147.686500	0.000446	4.459225	0.755413	-0.000089
 579	5.7511e+01	8.4848	147.629980	0.000284	2.837689	0.480717	-0.000057
 580	5.7611e+01	8.4657	147.520977	0.000547	5.472685	0.927098	-0.000110
 581	5.7710e+01	8.4451	147.428123	0.000466	4.661917	0.789750	-0.000093
 582	5.7809e+01	8.4246	147.343343	0.000426	4.256533	0.721076	-0.000085
 583	5.7909e+01	8.4054	147.290860	0.000263	2.634997	0.446381	-0.000053
 584	5.8008e+01	8.3855	147.165709	0.000628	6.283454	1.064446	-0.000126
 585	5.8108e+01	8.3648	147.080929	0.000426	4.256533	0.721076	-0.000085
 586	5.8208e+01	8.3460	147.024409	0.000284	2.837689	0.480717	-0.000057
 587	5.8307e+01	8.3255	146.907332	0.000588	5.878069	0.995772	-0.000118
 588	5.8407e+01	8.3059	146.838701	0.000345	3.445765	0.583728	-0.000069
 589	5.8506e+01	8.2862	146.725661	0.000568	5.675377	0.961435	-0.000114
 590	5.8605e+01	8.2659	146.620696	0.000527	5.269993	0.892761	-0.000105
 591	5.8705e+01	8.2471	146.543990	0.000385	3.851149	0.652402	-0.000077
 592	5.8804e+01	8.2262	146.451136	0.000466	4.661917	0.789750	-0.000093
 593	5.8904e+01	8.2063	146.330022	0.000608	6.080761	1.030109	-0.000122
 594	5.9004e+01	8.1862	146.245242	0.000426	4.256533	0.721076	-0.000085
 595	5.9103e+01	8.1660	146.196796	0.000243	2.432305	0.412044	-0.000049
 596	5.9203e+01	8.1460	146.083757	0.000568	5.675377	0.961435	-0.000114
 597	5.9302e+01	8.1252	145.950531	0.000669	6.688838	1.133120	-0.000134
 598	5.9401e+01	8.1062	145.906123	0.000223	2.229613	0.377707	-0.000045
 599	5.9501e+01	8.0869	145.756749	0.000750	7.499606	1.270468	-0.000150
 600	5.9600e+01	8.0668	145.716377	0.000203	2.026920	0.343370	-0.000041
 601	5.9700e+01	8.0471	145.587189	0.000649	6.486146	1.098783	-0.000130
 602	5.9800e+01	8.0266	145.526632	0.000304	3.040381	0.515054	-0.000061
 603	5.9899e+01	8.0075	145.413592	0.000568	5.675377	0.961435	-0.000114
 604	5.9998e+01	7.9868	145.340924	0.000365	3.648457	0.618065	-0.000073
 605	6.0098e+01	7.9676	145.223847	0.000588	5.878069	0.995772	-0.000118
 606	6.0197e+01	7.9473	145.135030	0.000446	4.459225	0.755413	-0.000089
 607	6.0297e+01	7.9282	145.062361	0.000365	3.648457	0.618065	-0.000073
 608	6.0397e+01	7.9074	144.961433	0.000507	5.067301	0.858424	-0.000101
 609	6.0496e+01	7.8880	144.884727	0.000385	3.851149	0.652402	-0.000077
 610	6.0596e+01	7.8667	144.755539	0.000649	6.486146	1.098783	-0.000130
 611	6.0695e+01	7.8480	144.703056	0.000263	2.634997	0.446381	-0.000053
 612	6.0794e+01	7.8278	144.630388	0.000365	3.648457	0.618065	-0.000073
 613	6.0894e+01	7.8083	144.525422	0.000527	5.269993	0.892761	-0.000105
 614	6.0993e+01	7.7881	144.432568	0.000466	4.661917	0.789750	-0.000093
 615	6.1093e+01	7.7688	144.323565	0.000547	5.472685	0.927098	-0.000110
 616	6.1193e+01	7.7480	144.254934	0.000345	3.445765	0.583728	-0.000069
 617	6.1292e+01	7.7274	144.125746	0.000649	6.486146	1.098783	-0.000130
 618	6.1392e+01	7.7081	144.057115	0.000345	3.445765	0.583728	-0.000069
 619	6.1491e+01	7.6882	143.919852	0.000689	6.891530	1.167457	-0.000138
 620	6.1590e+01	7.6664	143.839109	0.000405	4.053841	0.686739	-0.000081
 621	6.1690e+01	7.6480	143.730107	0.000547	5.472685	0.927098	-0.000110
 622	6.1789e+01	7.6291	143.649364	0.000405	4.053841	0.686739	-0.000081
 623	6.1889e+01	7.6084	143.564584	0.000426	4.256533	0.721076	-0.000085
 624	6.1989e+01	7.5885	143.419247	0.000730	7.296914	1.236131	-0.000146
 625	6.2088e+01	7.5697	143.338504	0.000405	4.053841	0.686739	-0.000081
 626	6.2188e+01	7.5488	143.205279	0.000669	6.688838	1.133120	-0.000134
 627	6.2287e+01	7.5286	143.148759	0.000284	2.837689	0.480717	-0.000057
 628	6.2386e+01	7.5083	143.043793	0.000527	5.269993	0.892761	-0.000105
 629	6.2486e+01	7.4891	142.954976	0.000446	4.459225	0.755413	-0.000089
 630	6.2586e+01	7.4689	142.837900	0.000588	5.878069	0.995772	-0.000118
 631	6.2685e+01	7.4487	142.736971	0.000507	5.067301	0.858424	-0.000101
 632	6.2785e+01	7.4299	142.636043	0.000507	5.067301	0.858424	-0.000101
 633	6.2884e+01	7.4097	142.543189	0.000466	4.661917	0.789750	-0.000093
 634	6.2983e+01	7.3891	142.438223	0.000527	5.269993	0.892761	-0.000105
 635	6.3083e+01	7.3696	142.369592	0.000345	3.445765	0.583728	-0.000069
 636	6.3182e+01	7.3498	142.224255	0.000730	7.296914	1.236131	-0.000146
 637	6.3282e+01	7.3296	142.123327	0.000507	5.067301	0.858424	-0.000101
 638	6.3382e+01	7.3106	142.070844	0.000263	2.634997	0.446381	-0.000053
 639	6.3481e+01	7.2900	141.941655	0.000649	6.486146	1.098783	-0.000130
 640	6.3581e+01	7.2691	141.864950	0.000385	3.851149	0.652402	-0.000077
 641	6.3680e+01	7.2510	141.751910	0.000568	5.675377	0.961435	-0.000114
 642	6.3779e+01	7.2297	141.630796	0.000608	6.080761	1.030109	-0.000122
 643	6.3879e+01	7.2100	141.562165	0.000345	3.445765	0.583728	-0.000069
 644	6.3978e+01	7.1907	141.437013	0.000628	6.283454	1.064446	-0.000126
 645	6.4078e+01	7.1709	141.348196	0.000446	4.459225	0.755413	-0.000089
 646	6.4177e+01	7.1512	141.206897	0.000709	7.094222	1.201794	-0.000142
 647	6.4277e+01	7.1304	141.105968	0.000507	5.067301	0.858424	-0.000101
 648	6.4376e+01	7.1108	141.021188	0.000426	4.256533	0.721076	-0.000085
 649	6.4476e+01	7.0912	140.879889	0.000709	7.094222	1.201794	-0.000142
 650	6.4576e+01	7.0719	140.819332	0.000304	3.040381	0.515054	-0.000061
 651	6.4675e+01	7.0510	140.673995	0.000730	7.296914	1.236131	-0.000146
 652	6.4775e+01	7.0309	140.593252	0.000405	4.053841	0.686739	-0.000081
 653	6.4874e+01	7.0114	140.468101	0.000628	6.283454	1.064446	-0.000126
 654	6.4974e+01	6.9909	140.379284	0.000446	4.459225	0.755413	-0.000089
 655	6.5073e+01	6.9707	140.254133	0.000628	6.283454	1.064446	-0.000126
 656	6.5172e+01	6.9518	140.165316	0.000446	4.459225	0.755413	-0.000089
 657	6.5272e+01	6.9320	140.032090	0.000669	6.688838	1.133120	-0.000134
 658	6.5371e+01	6.9118	139.943273	0.000446	4.459225	0.755413	-0.000089
 659	6.5471e+01	6.8921	139.866568	0.000385	3.851149	0.652402	-0.000077
 660	6.5570e+01	6.8720	139.729305	0.000689	6.891530	1.167457	-0.000138
 661	6.5670e+01	6.8513	139.632414	0.000486	4.864609	0.824087	-0.000097
 662	6.5769e+01	6.8314	139.543597	0.000446	4.459225	0.755413	-0.000089
 663	6.5869e+01	6.8133	139.430557	0.000568	5.675377	0.961435	-0.000114
 664	6.5969e+01	6.7925	139.293294	0.000689	6.891530	1.167457	-0.000138
 665	6.6068e+01	6.7726	139.172180	0.000608	6.080761	1.030109	-0.000122
 666	6.6168e+01	6.7516	139.087400	0.000426	4.256533	0.721076	-0.000085
 667	6.6267e+01	6.7321	138.978398	0.000547	5.472685	0.927098	-0.000110
 668	6.6367e+01	6.7130	138.853247	0.000628	6.283454	1.064446	-0.000126
 669	6.6466e+01	6.6928	138.748281	0.000527	5.269993	0.892761	-0.000105
 670	6.6566e+01	6.6714	138.651390	0.000486	4.864609	0.824087	-0.000097
 671	6.6665e+01	6.6527	138.546424	0.000527	5.269993	0.892761	-0.000105
 672	6.6764e+01	6.6325	138.453570	0.000466	4.661917	0.789750	-0.000093
 673	6.6864e+01	6.6129	138.340530	0.000568	5.675377	0.961435	-0.000114
 674	6.6963e+01	6.5923	138.223453	0.000588	5.878069	0.995772	-0.000118
 675	6.7063e+01	6.5746	138.118488	0.000527	5.269993	0.892761	-0.000105
 676	6.7162e+01	6.5542	138.001411	0.000588	5.878069	0.995772	-0.000118
 677	6.7262e+01	6.5333	137.864148	0.000689	6.891530	1.167457	-0.000138
 678	6.7362e+01	6.5133	137.775331	0.000446	4.459225	0.755413	-0.000089
 679	6.7461e+01	6.4928	137.674403	0.000507	5.067301	0.858424	-0.000101
 680	6.7561e+01	6.4732	137.561363	0.000568	5.675377	0.961435	-0.000114
 681	6.7660e+01	6.4530	137.424101	0.000689	6.891530	1.167457	-0.000138
 682	6.7760e+01	6.4334	137.302986	0.000608	6.080761	1.030109	-0.000122
 683	6.7859e+01	6.4123	137.193984	0.000547	5.472685	0.927098	-0.000110
 684	6.7959e+01	6.3941	137.121315	0.000365	3.648457	0.618065	-0.000073
 685	6.8058e+01	6.3743	137.016350	0.000527	5.269993	0.892761	-0.000105
 686	6.8157e+01	6.3531	136.842753	0.000872	8.715758	1.476489	-0.000174
 687	6.8257e+01	6.3343	136.725676	0.000588	5.878069	0.995772	-0.000118
 688	6.8356e+01	6.3138	136.616673	0.000547	5.472685	0.927098	-0.000110
 689	6.8456e+01	6.2943	136.491522	0.000628	6.283454	1.064446	-0.000126
 690	6.8555e+01	6.2748	136.439039	0.000263	2.634997	0.446381	-0.000053
 691	6.8655e+01	6.2554	136.281591	0.000790	7.904990	1.339142	-0.000158
 692	6.8754e+01	6.2348	136.128180	0.000770	7.702298	1.304805	-0.000154
 693	6.8854e+01	6.2124	136.063586	0.000324	3.243073	0.549391	-0.000065
 694	6.8954e+01	6.1953	135.926323	0.000689	6.891530	1.167457	-0.000138
 695	6.9053e+01	6.1755	135.829432	0.000486	4.864609	0.824087	-0.000097
 696	6.9153e+01	6.1558	135.712355	0.000588	5.878069	0.995772	-0.000118
 697	6.9252e+01	6.1358	135.591241	0.000608	6.080761	1.030109	-0.000122
 698	6.9352e+01	6.1155	135.462053	0.000649	6.486146	1.098783	-0.000130
 699	6.9451e+01	6.0955	135.332864	0.000649	6.486146	1.098783	-0.000130
 700	6.9550e+01	6.0751	135.231936	0.000507	5.067301	0.858424	-0.000101
 701	6.9650e+01	6.0563	135.118896	0.000568	5.675377	0.961435	-0.000114
 702	6.9749e+01	6.0348	135.005856	0.000568	5.675377	0.961435	-0.000114
 703	6.9849e+01	6.0156	134.876668	0.000649	6.486146	1.098783	-0.000130
 704	6.9948e+01	5.9962	134.779777	0.000486	4.864609	0.824087	-0.000097
 705	7.0048e+01	5.9746	134.642514	0.000689	6.891530	1.167457	-0.000138
 706	7.0147e+01	5.9563	134.525437	0.000588	5.878069	0.995772	-0.000118
 707	7.0247e+01	5.9356	134.388174	0.000689	6.891530	1.167457	-0.000138
 708	7.0347e+01	5.9167	134.291283	0.000486	4.864609	0.824087	-0.000097
 709	7.0446e+01	5.8956	134.145946	0.000730	7.296914	1.236131	-0.000146
 710	7.0546e+01	5.8759	134.008684	0.000689	6.891530	1.167457	-0.000138
 711	7.0645e+01	5.8564	133.936015	0.000365	3.648457	0.618065	-0.000073
 712	7.0745e+01	5.8366	133.774530	0.000811	8.107682	1.373479	-0.000162
 713	7.0844e+01	5.8152	133.697824	0.000385	3.851149	0.652402	-0.000077
 714	7.0944e+01	5.7959	133.536339	0.000811	8.107682	1.373479	-0.000162
 715	7.1043e+01	5.7764	133.427336	0.000547	5.472685	0.927098	-0.000110
 716	7.1142e+01	5.7558	133.318333	0.000547	5.472685	0.927098	-0.000110
 717	7.1242e+01	5.7360	133.189145	0.000649	6.486146	1.098783	-0.000130
 718	7.1341e+01	5.7174	133.092254	0.000486	4.864609	0.824087	-0.000097
 719	7.1441e+01	5.6969	132.954991	0.000689	6.891530	1.167457	-0.000138
 720	7.1540e+01	5.6762	132.797543	0.000790	7.904990	1.339142	-0.000158
 721	7.1640e+01	5.6567	132.684503	0.000568	5.675377	0.961435	-0.000114
 722	7.1740e+01	5.6366	132.563389	0.000608	6.080761	1.030109	-0.000122
 723	7.1839e+01	5.6170	132.405941	0.000790	7.904990	1.339142	-0.000158
 724	7.1939e+01	5.5967	132.329235	0.000385	3.851149	0.652402	-0.000077
 725	7.2038e+01	5.5773	132.171787	0.000790	7.904990	1.339142	-0.000158
 726	7.2138e+01	5.5572	132.022413	0.000750	7.499606	1.270468	-0.000150
 727	7.2237e+01	5.5383	131.961856	0.000304	3.040381	0.515054	-0.000061
 728	7.2337e+01	5.5169	131.864965	0.000486	4.864609	0.824087	-0.000097
 729	7.2436e+01	5.4977	131.711553	0.000770	7.702298	1.304805	-0.000154
 730	7.2535e+01	5.4780	131.541994	0.000851	8.513066	1.442152	-0.000170
 731	7.2635e+01	5.4585	131.461251	0.000405	4.053841	0.686739	-0.000081
 732	7.2734e+01	5.4371	131.328026	0.000669	6.688838	1.133120	-0.000134
 733	7.2834e+01	5.4175	131.206911	0.000608	6.080761	1.030109	-0.000122
 734	7.2933e+01	5.3970	131.093872	0.000568	5.675377	0.961435	-0.000114
 735	7.3033e+01	5.3779	130.928349	0.000831	8.310374	1.407815	-0.000166
 736	7.3132e+01	5.3590	130.815309	0.000568	5.675377	0.961435	-0.000114
 737	7.3232e+01	5.3381	130.665935	0.000750	7.499606	1.270468	-0.000150
 738	7.3332e+01	5.3179	130.544821	0.000608	6.080761	1.030109	-0.000122
 739	7.3431e+01	5.2988	130.451967	0.000466	4.661917	0.789750	-0.000093
 740	7.3531e+01	5.2775	130.278370	0.000872	8.715758	1.476489	-0.000174
 741	7.3630e+01	5.2572	130.181479	0.000486	4.864609	0.824087	-0.000097
 742	7.3730e+01	5.2393	130.056328	0.000628	6.283454	1.064446	-0.000126
 743	7.3829e+01	5.2180	129.951362	0.000527	5.269993	0.892761	-0.000105
 744	7.3928e+01	5.1995	129.810063	0.000709	7.094222	1.201794	-0.000142
 745	7.4028e+01	5.1793	129.664726	0.000730	7.296914	1.236131	-0.000146
 746	7.4127e+01	5.1590	129.535537	0.000649	6.486146	1.098783	-0.000130
 747	7.4227e+01	5.1388	129.422497	0.000568	5.675377	0.961435	-0.000114
 748	7.4326e+01	5.1193	129.265049	0.000790	7.904990	1.339142	-0.000158
 749	7.4426e+01	5.0996	129.164121	0.000507	5.067301	0.858424	-0.000101
 750	7.4525e+01	5.0794	129.034932	0.000649	6.486146	1.098783	-0.000130
 751	7.4625e+01	5.0594	128.889596	0.000730	7.296914	1.236131	-0.000146
 752	7.4725e+01	5.0396	128.792704	0.000486	4.864609	0.824087	-0.000097
 753	7.4824e+01	5.0205	128.651405	0.000709	7.094222	1.201794	-0.000142
 754	7.4924e+01	4.9992	128.473771	0.000892	8.918450	1.510826	-0.000179
 755	7.5023e+01	4.9800	128.352657	0.000608	6.080761	1.030109	-0.000122
 756	7.5123e+01	4.9600	128.231542	0.000608	6.080761	1.030109	-0.000122
 757	7.5222e+01	4.9401	128.082168	0.000750	7.499606	1.270468	-0.000150
 758	7.5322e+01	4.9194	128.005463	0.000385	3.851149	0.652402	-0.000077
 759	7.5421e+01	4.8995	127.819755	0.000932	9.323834	1.579500	-0.000187
 760	7.5520e+01	4.8804	127.702678	0.000588	5.878069	0.995772	-0.000118
 761	7.5620e+01	4.8609	127.553304	0.000750	7.499606	1.270468	-0.000150
 762	7.5719e+01	4.8409	127.416041	0.000689	6.891530	1.167457	-0.000138
 763	7.5819e+01	4.8197	127.262630	0.000770	7.702298	1.304805	-0.000154
 764	7.5918e+01	4.8009	127.149590	0.000568	5.675377	0.961435	-0.000114
 765	7.6018e+01	4.7806	127.024439	0.000628	6.283454	1.064446	-0.000126
 766	7.6118e+01	4.7603	126.887176	0.000689	6.891530	1.167457	-0.000138
 767	7.6217e+01	4.7412	126.745876	0.000709	7.094222	1.201794	-0.000142
 768	7.6317e+01	4.7249	126.644948	0.000507	5.067301	0.858424	-0.000101
 769	7.6416e+01	4.7016	126.491537	0.000770	7.702298	1.304805	-0.000154
 770	7.6516e+01	4.6816	126.362349	0.000649	6.486146	1.098783	-0.000130
 771	7.6615e+01	4.6606	126.249309	0.000568	5.675377	0.961435	-0.000114
 772	7.6715e+01	4.6409	126.091861	0.000790	7.904990	1.339142	-0.000158
 773	7.6814e+01	4.6212	125.999006	0.000466	4.661917	0.789750	-0.000093
 774	7.6913e+01	4.6019	125.805224	0.000973	9.729218	1.648174	-0.000195
 775	7.7013e+01	4.5818	125.692184	0.000568	5.675377	0.961435	-0.000114
 776	7.7112e+01	4.5611	125.554921	0.000689	6.891530	1.167457	-0.000138
 777	7.7212e+01	4.5412	125.441882	0.000568	5.675377	0.961435	-0.000114
 778	7.7311e+01	4.5218	125.316730	0.000628	6.283454	1.064446	-0.000126
 779	7.7411e+01	4.5013	125.159282	0.000790	7.904990	1.339142	-0.000158
 780	7.7510e+01	4.4829	125.026057	0.000669	6.688838	1.133120	-0.000134
 781	7.7610e+01	4.4619	124.884757	0.000709	7.094222	1.201794	-0.000142
 782	7.7710e+01	4.4422	124.775754	0.000547	5.472685	0.927098	-0.000110
 783	7.7809e+01	4.4215	124.650603	0.000628	6.283454	1.064446	-0.000126
 784	7.7909e+01	4.4013	124.464895	0.000932	9.323834	1.579500	-0.000187
 785	7.8008e+01	4.3816	124.355892	0.000547	5.472685	0.927098	-0.000110
 786	7.8108e+01	4.3626	124.218630	0.000689	6.891530	1.167457	-0.000138
 787	7.8207e+01	4.3430	124.024847	0.000973	9.729218	1.648174	-0.000195
 788	7.8306e+01	4.3221	123.899696	0.000628	6.283454	1.064446	-0.000126
 789	7.8406e+01	4.3024	123.798767	0.000507	5.067301	0.858424	-0.000101
 790	7.8505e+01	4.2828	123.621133	0.000892	8.918450	1.510826	-0.000179
 791	7.8605e+01	4.2625	123.504056	0.000588	5.878069	0.995772	-0.000118
 792	7.8704e+01	4.2422	123.382942	0.000608	6.080761	1.030109	-0.000122
 793	7.8804e+01	4.2226	123.217420	0.000831	8.310374	1.407815	-0.000166
 794	7.8903e+01	4.2033	123.051897	0.000831	8.310374	1.407815	-0.000166
 795	7.9003e+01	4.1817	122.934820	0.000588	5.878069	0.995772	-0.000118
 796	7.9103e+01	4.1636	122.817743	0.000588	5.878069	0.995772	-0.000118
 797	7.9202e+01	4.1436	122.660295	0.000790	7.904990	1.339142	-0.000158
 798	7.9302e+01	4.1230	122.518995	0.000709	7.094222	1.201794	-0.000142
 799	7.9401e+01	4.1033	122.349436	0.000851	8.513066	1.442152	-0.000170
 800	7.9501e+01	4.0829	122.244470	0.000527	5.269993	0.892761	-0.000105
 801	7.9600e+01	4.0638	122.107208	0.000689	6.891530	1.167457	-0.000138
 802	7.9700e+01	4.0430	121.925536	0.000912	9.121142	1.545163	-0.000183
 803	7.9799e+01	4.0234	121.800385	0.000628	6.283454	1.064446	-0.000126
 804	7.9898e+01	4.0039	121.663123	0.000689	6.891530	1.167457	-0.000138
 805	7.9998e+01	3.9836	121.509711	0.000770	7.702298	1.304805	-0.000154
 806	8.0097e+01	3.9636	121.396672	0.000568	5.675377	0.961435	-0.000114
 807	8.0197e+01	3.9439	121.235186	0.000811	8.107682	1.373479	-0.000162
 808	8.0296e+01	3.9230	121.114072	0.000608	6.080761	1.030109	-0.000122
 809	8.0396e+01	3.9036	120.920290	0.000973	9.729218	1.648174	-0.000195
 810	8.0496e+01	3.8835	120.778990	0.000709	7.094222	1.201794	-0.000142
 811	8.0595e+01	3.8641	120.649802	0.000649	6.486146	1.098783	-0.000130
 812	8.0695e+01	3.8444	120.492353	0.000790	7.904990	1.339142	-0.000158
 813	8.0794e+01	3.8236	120.375276	0.000588	5.878069	0.995772	-0.000118
 814	8.0894e+01	3.8030	120.193605	0.000912	9.121142	1.545163	-0.000183
 815	8.0993e+01	3.7848	120.044231	0.000750	7.499606	1.270468	-0.000150
 816	8.1093e+01	3.7646	119.919080	0.000628	6.283454	1.064446	-0.000126
 817	8.1192e+01	3.7446	119.806040	0.000568	5.675377	0.961435	-0.000114
 818	8.1291e+01	3.7218	119.640518	0.000831	8.310374	1.407815	-0.000166
 819	8.1391e+01	3.7049	119.531515	0.000547	5.472685	0.927098	-0.000110
 820	8.1490e+01	3.6848	119.321584	0.001054	10.539987	1.785522	-0.000211
 821	8.1590e+01	3.6655	119.143950	0.000892	8.918450	1.510826	-0.000179
 822	8.1689e+01	3.6446	119.038984	0.000527	5.269993	0.892761	-0.000105
 823	8.1789e+01	3.6256	118.897685	0.000709	7.094222	1.201794	-0.000142
 824	8.1888e+01	3.6054	118.744273	0.000770	7.702298	1.304805	-0.000154
 825	8.1988e+01	3.5857	118.586825	0.000790	7.904990	1.339142	-0.000158
 826	8.2088e+01	3.5650	118.445525	0.000709	7.094222	1.201794	-0.000142
 827	8.2187e+01	3.5452	118.296151	0.000750	7.499606	1.270468	-0.000150
 828	8.2287e+01	3.5267	118.158889	0.000689	6.891530	1.167457	-0.000138
 829	8.2386e+01	3.5060	117.993366	0.000831	8.310374	1.407815	-0.000166
 830	8.2486e+01	3.4859	117.856104	0.000689	6.891530	1.167457	-0.000138
 831	8.2585e+01	3.4655	117.646173	0.001054	10.539987	1.785522	-0.000211
 832	8.2684e+01	3.4455	117.545244	0.000507	5.067301	0.858424	-0.000101
 833	8.2784e+01	3.4280	117.387796	0.000790	7.904990	1.339142	-0.000158
 834	8.2883e+01	3.4060	117.234385	0.000770	7.702298	1.304805	-0.000154
 835	8.2983e+01	3.3855	117.076936	0.000790	7.904990	1.339142	-0.000158
 836	8.3082e+01	3.3659	116.947748	0.000649	6.486146	1.098783	-0.000130
 837	8.3182e+01	3.3471	116.826634	0.000608	6.080761	1.030109	-0.000122
 838	8.3281e+01	3.3264	116.665149	0.000811	8.107682	1.373479	-0.000162
 839	8.3381e+01	3.3060	116.487515	0.000892	8.918450	1.510826	-0.000179
 840	8.3481e+01	3.2861	116.330066	0.000790	7.904990	1.339142	-0.000158
 841	8.3580e+01	3.2668	116.208952	0.000608	6.080761	1.030109	-0.000122
 842	8.3680e+01	3.2462	116.051504	0.000790	7.904990	1.339142	-0.000158
 843	8.3779e+01	3.2272	115.881944	0.000851	8.513066	1.442152	-0.000170
 844	8.3879e+01	3.2073	115.724496	0.000790	7.904990	1.339142	-0.000158
 845	8.3978e+01	3.1865	115.587233	0.000689	6.891530	1.167457	-0.000138
 846	8.4078e+01	3.1667	115.437859	0.000750	7.499606	1.270468	-0.000150
 847	8.4177e+01	3.1469	115.280411	0.000790	7.904990	1.339142	-0.000158
 848	8.4276e+01	3.1274	115.114888	0.000831	8.310374	1.407815	-0.000166
 849	8.4376e+01	3.1073	114.977626	0.000689	6.891530	1.167457	-0.000138
 850	8.4475e+01	3.0872	114.795955	0.000912	9.121142	1.545163	-0.000183
 851	8.4575e+01	3.0676	114.642544	0.000770	7.702298	1.304805	-0.000154
 852	8.4674e+01	3.0466	114.501244	0.000709	7.094222	1.201794	-0.000142
 853	8.4774e+01	3.0275	114.363981	0.000689	6.891530	1.167457	-0.000138
 854	8.4874e+01	3.0078	114.141939	0.001115	11.148063	1.888533	-0.000223
 855	8.4973e+01	2.9868	114.008713	0.000669	6.688838	1.133120	-0.000134
 856	8.5073e+01	2.9678	113.835116	0.000872	8.715758	1.476489	-0.000174
 857	8.5172e+01	2.9474	113.697854	0.000689	6.891530	1.167457	-0.000138
 858	8.5272e+01	2.9273	113.532331	0.000831	8.310374	1.407815	-0.000166
 859	8.5371e+01	2.9076	113.322400	0.001054	10.539987	1.785522	-0.000211
 860	8.5471e+01	2.8889	113.233583	0.000446	4.459225	0.755413	-0.000089
 861	8.5570e+01	2.8680	113.059986	0.000872	8.715758	1.476489	-0.000174
 862	8.5669e+01	2.8478	112.902538	0.000790	7.904990	1.339142	-0.000158
 863	8.5769e+01	2.8272	112.720867	0.000912	9.121142	1.545163	-0.000183
 864	8.5868e+01	2.8085	112.559382	0.000811	8.107682	1.373479	-0.000162
 865	8.5968e+01	2.7882	112.414045	0.000730	7.296914	1.236131	-0.000146
 866	8.6067e+01	2.7683	112.260633	0.000770	7.702298	1.304805	-0.000154
 867	8.6167e+01	2.7483	112.107222	0.000770	7.702298	1.304805	-0.000154
 868	8.6266e+01	2.7282	111.929588	0.000892	8.918450	1.510826	-0.000179
 869	8.6366e+01	2.7090	111.755992	0.000872	8.715758	1.476489	-0.000174
 870	8.6466e+01	2.6882	111.614692	0.000709	7.094222	1.201794	-0.000142
 871	8.6565e+01	2.6690	111.441095	0.000872	8.715758	1.476489	-0.000174
 872	8.6665e+01	2.6487	111.247312	0.000973	9.729218	1.648174	-0.000195
 873	8.6764e+01	2.6292	111.110050	0.000689	6.891530	1.167457	-0.000138
 874	8.6864e+01	2.6088	110.936453	0.000872	8.715758	1.476489	-0.000174
 875	8.6963e+01	2.5887	110.807265	0.000649	6.486146	1.098783	-0.000130
 876	8.7063e+01	2.5676	110.625593	0.000912	9.121142	1.545163	-0.000183
 877	8.7162e+01	2.5487	110.484294	0.000709	7.094222	1.201794	-0.000142
 878	8.7261e+01	2.5288	110.318771	0.000831	8.310374	1.407815	-0.000166
 879	8.7361e+01	2.5089	110.165360	0.000770	7.702298	1.304805	-0.000154
 880	8.7460e+01	2.4899	109.955429	0.001054	10.539987	1.785522	-0.000211
 881	8.7560e+01	2.4697	109.842389	0.000568	5.675377	0.961435	-0.000114
 882	8.7659e+01	2.4490	109.664755	0.000892	8.918450	1.510826	-0.000179
 883	8.7759e+01	2.4306	109.470973	0.000973	9.729218	1.648174	-0.000195
 884	8.7859e+01	2.4105	109.329673	0.000709	7.094222	1.201794	-0.000142
 885	8.7958e+01	2.3904	109.204522	0.000628	6.283454	1.064446	-0.000126
 886	8.8058e+01	2.3696	108.970368	0.001176	11.756139	1.991544	-0.000235
 887	8.8157e+01	2.3505	108.825031	0.000730	7.296914	1.236131	-0.000146
 888	8.8257e+01	2.3299	108.655471	0.000851	8.513066	1.442152	-0.000170
 889	8.8356e+01	2.3109	108.485912	0.000851	8.513066	1.442152	-0.000170
 890	8.8456e+01	2.2907	108.312315	0.000872	8.715758	1.476489	-0.000174
 891	8.8555e+01	2.2702	108.187164	0.000628	6.283454	1.064446	-0.000126
 892	8.8654e+01	2.2511	107.957047	0.001155	11.553447	1.957207	-0.000231
 893	8.8754e+01	2.2295	107.799598	0.000790	7.904990	1.339142	-0.000158
 894	8.8853e+01	2.2100	107.642150	0.000790	7.904990	1.339142	-0.000158
 895	8.8953e+01	2.1914	107.492776	0.000750	7.499606	1.270468	-0.000150
 896	8.9052e+01	2.1706	107.347439	0.000730	7.296914	1.236131	-0.000146
 897	8.9152e+01	2.1520	107.157694	0.000953	9.526526	1.613837	-0.000191
 898	8.9251e+01	2.1308	106.971986	0.000932	9.323834	1.579500	-0.000187
 899	8.9351e+01	2.1105	106.838760	0.000669	6.688838	1.133120	-0.000134
 900	8.9451e+01	2.0908	106.665163	0.000872	8.715758	1.476489	-0.000174
 901	8.9550e+01	2.0717	106.483492	0.000912	9.121142	1.545163	-0.000183
 902	8.9650e+01	2.0513	106.313933	0.000851	8.513066	1.442152	-0.000170
 903	8.9749e+01	2.0316	106.136299	0.000892	8.918450	1.510826	-0.000179
 904	8.9849e+01	2.0123	105.990962	0.000730	7.296914	1.236131	-0.000146
 905	8.9948e+01	1.9904	105.785068	0.001034	10.337295	1.751185	-0.000207
 906	9.0047e+01	1.9711	105.619545	0.000831	8.310374	1.407815	-0.000166
 907	9.0147e+01	1.9523	105.454023	0.000831	8.310374	1.407815	-0.000166
 908	9.0246e+01	1.9315	105.272352	0.000912	9.121142	1.545163	-0.000183
 909	9.0346e+01	1.9115	105.110866	0.000811	8.107682	1.373479	-0.000162
 910	9.0445e+01	1.8914	104.953418	0.000790	7.904990	1.339142	-0.000158
 911	9.0545e+01	1.8726	104.779821	0.000872	8.715758	1.476489	-0.000174
 912	9.0644e+01	1.8517	104.590076	0.000953	9.526526	1.613837	-0.000191
 913	9.0744e+01	1.8322	104.408404	0.000912	9.121142	1.545163	-0.000183
 914	9.0844e+01	1.8126	104.283253	0.000628	6.283454	1.064446	-0.000126
 915	9.0943e+01	1.7919	104.061211	0.001115	11.148063	1.888533	-0.000223
 916	9.1043e+01	1.7723	103.891651	0.000851	8.513066	1.442152	-0.000170
 917	9.1142e+01	1.7512	103.718054	0.000872	8.715758	1.476489	-0.000174
 918	9.1242e+01	1.7328	103.552532	0.000831	8.310374	1.407815	-0.000166
 919	9.1341e+01	1.7119	103.378935	0.000872	8.715758	1.476489	-0.000174
 920	9.1441e+01	1.6927	103.209375	0.000851	8.513066	1.442152	-0.000170
 921	9.1540e+01	1.6731	103.035778	0.000872	8.715758	1.476489	-0.000174
 922	9.1639e+01	1.6534	102.850070	0.000932	9.323834	1.579500	-0.000187
 923	9.1739e+01	1.6329	102.684547	0.000831	8.310374	1.407815	-0.000166
 924	9.1838e+01	1.6128	102.486728	0.000993	9.931910	1.682511	-0.000199
 925	9.1938e+01	1.5927	102.337354	0.000750	7.499606	1.270468	-0.000150
 926	9.2037e+01	1.5736	102.103200	0.001176	11.756139	1.991544	-0.000235
 927	9.2137e+01	1.5533	101.949789	0.000770	7.702298	1.304805	-0.000154
 928	9.2237e+01	1.5334	101.739858	0.001054	10.539987	1.785522	-0.000211
 929	9.2336e+01	1.5137	101.602595	0.000689	6.891530	1.167457	-0.000138
 930	9.2436e+01	1.4931	101.437073	0.000831	8.310374	1.407815	-0.000166
 931	9.2535e+01	1.4730	101.263476	0.000872	8.715758	1.476489	-0.000174
 932	9.2635e+01	1.4536	101.081805	0.000912	9.121142	1.545163	-0.000183
 933	9.2734e+01	1.4343	100.916282	0.000831	8.310374	1.407815	-0.000166
 934	9.2834e+01	1.4138	100.738648	0.000892	8.918450	1.510826	-0.000179
 935	9.2933e+01	1.3930	100.581200	0.000790	7.904990	1.339142	-0.000158
 936	9.3032e+01	1.3731	100.363194	0.001095	10.945371	1.854196	-0.000219
 937	9.3132e+01	1.3535	100.197672	0.000831	8.310374	1.407815	-0.000166
 938	9.3231e+01	1.3332	99.963518	0.001176	11.756139	1.991544	-0.000235
 939	9.3331e+01	1.3137	99.834330	0.000649	6.486146	1.098783	-0.000130
 940	9.3430e+01	1.2945	99.636510	0.000993	9.931910	1.682511	-0.000199
 941	9.3530e+01	1.2746	99.499247	0.000689	6.891530	1.167457	-0.000138
 942	9.3629e+01	1.2548	99.313539	0.000932	9.323834	1.579500	-0.000187
 943	9.3729e+01	1.2348	99.127831	0.000932	9.323834	1.579500	-0.000187
 944	9.3829e+01	1.2153	98.966345	0.000811	8.107682	1.373479	-0.000162
 945	9.3928e+01	1.1953	98.788712	0.000892	8.918450	1.510826	-0.000179
 946	9.4028e+01	1.1744	98.586855	0.001013	10.134602	1.716848	-0.000203
 947	9.4127e+01	1.1559	98.425369	0.000811	8.107682	1.373479	-0.000162
 948	9.4227e+01	1.1347	98.231587	0.000973	9.729218	1.648174	-0.000195
 949	9.4326e+01	1.1156	98.070101	0.000811	8.107682	1.373479	-0.000162
 950	9.4425e+01	1.0954	97.896505	0.000872	8.715758	1.476489	-0.000174
 951	9.4525e+01	1.0759	97.678499	0.001095	10.945371	1.854196	-0.000219
 952	9.4624e+01	1.0558	97.541237	0.000689	6.891530	1.167457	-0.000138
 953	9.4724e+01	1.0349	97.355528	0.000932	9.323834	1.579500	-0.000187
 954	9.4823e+01	1.0157	97.153672	0.001013	10.134602	1.716848	-0.000203
 955	9.4923e+01	0.9961	97.020446	0.000669	6.688838	1.133120	-0.000134
 956	9.5022e+01	0.9759	96.806478	0.001074	10.742679	1.819859	-0.000215
 957	9.5122e+01	0.9560	96.620770	0.000932	9.323834	1.579500	-0.000187
 958	9.5222e+01	0.9366	96.455247	0.000831	8.310374	1.407815	-0.000166
 959	9.5321e+01	0.9164	96.253390	0.001013	10.134602	1.716848	-0.000203
 960	9.5421e+01	0.8944	96.071719	0.000912	9.121142	1.545163	-0.000183
 961	9.5520e+01	0.8772	95.906197	0.000831	8.310374	1.407815	-0.000166
 962	9.5620e+01	0.8566	95.704340	0.001013	10.134602	1.716848	-0.000203
 963	9.5719e+01	0.8356	95.526706	0.000892	8.918450	1.510826	-0.000179
 964	9.5819e+01	0.8170	95.345035	0.000912	9.121142	1.545163	-0.000183
 965	9.5918e+01	0.7958	95.151252	0.000973	9.729218	1.648174	-0.000195
 966	9.6017e+01	0.7770	94.957470	0.000973	9.729218	1.648174	-0.000195
 967	9.6117e+01	0.7561	94.755613	0.001013	10.134602	1.716848	-0.000203
 968	9.6216e+01	0.7365	94.573942	0.000912	9.121142	1.545163	-0.000183
 969	9.6316e+01	0.7166	94.388234	0.000932	9.323834	1.579500	-0.000187
 970	9.6415e+01	0.6972	94.238860	0.000750	7.499606	1.270468	-0.000150
 971	9.6515e+01	0.6770	94.065263	0.000872	8.715758	1.476489	-0.000174
 972	9.6615e+01	0.6554	93.859369	0.001034	10.337295	1.751185	-0.000207
 973	9.6714e+01	0.6368	93.689809	0.000851	8.513066	1.442152	-0.000170
 974	9.6814e+01	0.6158	93.483915	0.001034	10.337295	1.751185	-0.000207
 975	9.6913e+01	0.5968	93.294170	0.000953	9.526526	1.613837	-0.000191
 976	9.7013e+01	0.5771	93.120573	0.000872	8.715758	1.476489	-0.000174
 977	9.7112e+01	0.5573	92.930828	0.000953	9.526526	1.613837	-0.000191
 978	9.7212e+01	0.5370	92.765305	0.000831	8.310374	1.407815	-0.000166
 979	9.7311e+01	0.5173	92.551337	0.001074	10.742679	1.819859	-0.000215
 980	9.7410e+01	0.4987	92.337369	0.001074	10.742679	1.819859	-0.000215
 981	9.7510e+01	0.4780	92.204143	0.000669	6.688838	1.133120	-0.000134
 982	9.7609e+01	0.4578	91.994212	0.001054	10.539987	1.785522	-0.000211
 983	9.7709e+01	0.4385	91.804467	0.000953	9.526526	1.613837	-0.000191
 984	9.7808e+01	0.4179	91.630870	0.000872	8.715758	1.476489	-0.000174
 985	9.7908e+01	0.3979	91.433050	0.000993	9.931910	1.682511	-0.000199
 986	9.8007e+01	0.3783	91.243305	0.000953	9.526526	1.613837	-0.000191
 987	9.8107e+01	0.3575	91.045485	0.000993	9.931910	1.682511	-0.000199
 988	9.8207e+01	0.3388	90.867851	0.000892	8.918450	1.510826	-0.000179
 989	9.8306e+01	0.3181	90.678106	0.000953	9.526526	1.613837	-0.000191
 990	9.8406e+01	0.2984	90.468175	0.001054	10.539987	1.785522	-0.000211
 991	9.8505e+01	0.2789	90.286504	0.000912	9.121142	1.545163	-0.000183
 992	9.8605e+01	0.2589	90.104833	0.000912	9.121142	1.545163	-0.000183
 993	9.8704e+01	0.2381	89.911050	0.000973	9.729218	1.648174	-0.000195
 994	9.8803e+01	0.2178	89.745527	0.000831	8.310374	1.407815	-0.000166
 995	9.8903e+01	0.1982	89.523485	0.001115	11.148063	1.888533	-0.000223
 996	9.9002e+01	0.1790	89.341814	0.000912	9.121142	1.545163	-0.000183
 997	9.9102e+01	0.1591	89.172254	0.000851	8.513066	1.442152	-0.000170
 998	9.9201e+01	0.1386	88.921952	0.001257	12.566907	2.128892	-0.000252
 999	9.9301e+01	0.1186	88.732206	0.000953	9.526526	1.613837	-0.000191
1000	9.9400e+01	0.0989	88.566684	0.000831	8.310374	1.407815	-0.000166
1001	9.9500e+01	0.0793	88.389050	0.000892	8.918450	1.510826	-0.000179
1002	9.9600e+01	0.0590	88.187193	0.001013	10.134602	1.716848	-0.000203
1003	9.9699e+01	0.0390	88.017633	0.000851	8.513066	1.442152	-0.000170
1004	9.9799e+01	0.0194	87.787517	0.001155	11.553447	1.957207	-0.000231
1005	9.9898e+01	-0.0009	87.634105	0.000770	7.702298	1.304805	-0.000154
1006	9.9998e+01	-0.0194	87.460509	0.000872	8.715758	1.476489	-0.000174
1007	1.0010e+02	-0.0383	87.270763	0.000953	9.526526	1.613837	-0.000191
1008	1.0020e+02	-0.0587	87.064869	0.001034	10.337295	1.751185	-0.000207
1009	1.0030e+02	-0.0782	86.875124	0.000953	9.526526	1.613837	-0.000191
1010	1.0040e+02	-0.0982	86.640970	0.001176	11.756139	1.991544	-0.000235
1011	1.0050e+02	-0.1192	86.507745	0.000669	6.688838	1.133120	-0.000134
1012	1.0059e+02	-0.1383	86.281665	0.001135	11.350755	1.922870	-0.000227
1013	1.0069e+02	-0.1579	86.087882	0.000973	9.729218	1.648174	-0.000195
1014	1.0079e+02	-0.1781	85.930434	0.000790	7.904990	1.339142	-0.000158
1015	1.0089e+02	-0.1981	85.732615	0.000993	9.931910	1.682511	-0.000199
1016	1.0099e+02	-0.2185	85.510572	0.001115	11.148063	1.888533	-0.000223
1017	1.0109e+02	-0.2376	85.328901	0.000912	9.121142	1.545163	-0.000183
1018	1.0119e+02	-0.2581	85.139156	0.000953	9.526526	1.613837	-0.000191
1019	1.0129e+02	-0.2774	84.909039	0.001155	11.553447	1.957207	-0.000231
1020	1.0139e+02	-0.2981	84.711219	0.000993	9.931910	1.682511	-0.000199
1021	1.0149e+02	-0.3180	84.561845	0.000750	7.499606	1.270468	-0.000150
1022	1.0159e+02	-0.3383	84.359988	0.001013	10.134602	1.716848	-0.000203
1023	1.0169e+02	-0.3574	84.162169	0.000993	9.931910	1.682511	-0.000199
1024	1.0179e+02	-0.3780	83.992609	0.000851	8.513066	1.442152	-0.000170
1025	1.0189e+02	-0.3969	83.738269	0.001277	12.769599	2.163229	-0.000256
1026	1.0199e+02	-0.4173	83.588895	0.000750	7.499606	1.270468	-0.000150
1027	1.0209e+02	-0.4372	83.346667	0.001216	12.161523	2.060218	-0.000243
1028	1.0219e+02	-0.4577	83.152885	0.000973	9.729218	1.648174	-0.000195
1029	1.0229e+02	-0.4779	82.946991	0.001034	10.337295	1.751185	-0.000207
1030	1.0239e+02	-0.4967	82.773394	0.000872	8.715758	1.476489	-0.000174
1031	1.0248e+02	-0.5172	82.559426	0.001074	10.742679	1.819859	-0.000215
1032	1.0258e+02	-0.5369	82.397940	0.000811	8.107682	1.373479	-0.000162
1033	1.0268e+02	-0.5559	82.163787	0.001176	11.756139	1.991544	-0.000235
1034	1.0278e+02	-0.5767	82.002301	0.000811	8.107682	1.373479	-0.000162
1035	1.0288e+02	-0.5966	81.780259	0.001115	11.148063	1.888533	-0.000223
1036	1.0298e+02	-0.6174	81.558216	0.001115	11.148063	1.888533	-0.000223
1037	1.0308e+02	-0.6374	81.372508	0.000932	9.323834	1.579500	-0.000187
1038	1.0318e+02	-0.6576	81.194874	0.000892	8.918450	1.510826	-0.000179
1039	1.0328e+02	-0.6768	80.988980	0.001034	10.337295	1.751185	-0.000207
1040	1.0338e+02	-0.6963	80.791160	0.000993	9.931910	1.682511	-0.000199
1041	1.0348e+02	-0.7164	80.597378	0.000973	9.729218	1.648174	-0.000195
1042	1.0358e+02	-0.7368	80.391484	0.001034	10.337295	1.751185	-0.000207
1043	1.0368e+02	-0.7564	80.197701	0.000973	9.729218	1.648174	-0.000195
1044	1.0378e+02	-0.7755	80.011993	0.000932	9.323834	1.579500	-0.000187
1045	1.0388e+02	-0.7957	79.793988	0.001095	10.945371	1.854196	-0.000219
1046	1.0398e+02	-0.8157	79.616354	0.000892	8.918450	1.510826	-0.000179
1047	1.0408e+02	-0.8356	79.390274	0.001135	11.350755	1.922870	-0.000227
1048	1.0418e+02	-0.8554	79.196492	0.000973	9.729218	1.648174	-0.000195
1049	1.0428e+02	-0.8768	79.006746	0.000953	9.526526	1.613837	-0.000191
1050	1.0438e+02	-0.8957	78.784704	0.001115	11.148063	1.888533	-0.000223
1051	1.0447e+02	-0.9159	78.631293	0.000770	7.702298	1.304805	-0.000154
1052	1.0457e+02	-0.9363	78.417325	0.001074	10.742679	1.819859	-0.000215
1053	1.0467e+02	-0.9567	78.231616	0.000932	9.323834	1.579500	-0.000187
1054	1.0477e+02	-0.9763	77.989388	0.001216	12.161523	2.060218	-0.000243
1055	1.0487e+02	-0.9952	77.783494	0.001034	10.337295	1.751185	-0.000207
1056	1.0497e+02	-1.0152	77.634120	0.000750	7.499606	1.270468	-0.000150
1057	1.0507e+02	-1.0360	77.424189	0.001054	10.539987	1.785522	-0.000211
1058	1.0517e+02	-1.0558	77.210221	0.001074	10.742679	1.819859	-0.000215
1059	1.0527e+02	-1.0749	77.028550	0.000912	9.121142	1.545163	-0.000183
1060	1.0537e+02	-1.0948	76.802470	0.001135	11.350755	1.922870	-0.000227
1061	1.0547e+02	-1.1144	76.580428	0.001115	11.148063	1.888533	-0.000223
1062	1.0557e+02	-1.1345	76.402794	0.000892	8.918450	1.510826	-0.000179
1063	1.0567e+02	-1.1546	76.200937	0.001013	10.134602	1.716848	-0.000203
1064	1.0577e+02	-1.1752	76.003117	0.000993	9.931910	1.682511	-0.000199
1065	1.0587e+02	-1.1947	75.801261	0.001013	10.134602	1.716848	-0.000203
1066	1.0597e+02	-1.2148	75.575181	0.001135	11.350755	1.922870	-0.000227
1067	1.0607e+02	-1.2349	75.393510	0.000912	9.121142	1.545163	-0.000183
1068	1.0617e+02	-1.2534	75.223950	0.000851	8.513066	1.442152	-0.000170
1069	1.0627e+02	-1.2737	74.993833	0.001155	11.553447	1.957207	-0.000231
1070	1.0637e+02	-1.2939	74.796014	0.000993	9.931910	1.682511	-0.000199
1071	1.0647e+02	-1.3129	74.590120	0.001034	10.337295	1.751185	-0.000207
1072	1.0656e+02	-1.3337	74.408449	0.000912	9.121142	1.545163	-0.000183
1073	1.0666e+02	-1.3535	74.182369	0.001135	11.350755	1.922870	-0.000227
1074	1.0676e+02	-1.3743	74.008772	0.000872	8.715758	1.476489	-0.000174
1075	1.0686e+02	-1.3931	73.786730	0.001115	11.148063	1.888533	-0.000223
1076	1.0696e+02	-1.4131	73.617170	0.000851	8.513066	1.442152	-0.000170
1077	1.0706e+02	-1.4340	73.378979	0.001196	11.958831	2.025881	-0.000239
1078	1.0716e+02	-1.4536	73.177122	0.001013	10.134602	1.716848	-0.000203
1079	1.0726e+02	-1.4735	73.011600	0.000831	8.310374	1.407815	-0.000166
1080	1.0736e+02	-1.4932	72.777446	0.001176	11.756139	1.991544	-0.000235
1081	1.0746e+02	-1.5133	72.611923	0.000831	8.310374	1.407815	-0.000166
1082	1.0756e+02	-1.5324	72.353547	0.001297	12.972291	2.197566	-0.000260
1083	1.0766e+02	-1.5537	72.179950	0.000872	8.715758	1.476489	-0.000174
1084	1.0776e+02	-1.5732	71.957907	0.001115	11.148063	1.888533	-0.000223
1085	1.0786e+02	-1.5933	71.796422	0.000811	8.107682	1.373479	-0.000162
1086	1.0796e+02	-1.6130	71.570342	0.001135	11.350755	1.922870	-0.000227
1087	1.0806e+02	-1.6330	71.396746	0.000872	8.715758	1.476489	-0.000174
1088	1.0816e+02	-1.6524	71.166629	0.001155	11.553447	1.957207	-0.000231
1089	1.0826e+02	-1.6720	70.960735	0.001034	10.337295	1.751185	-0.000207
1090	1.0836e+02	-1.6928	70.766952	0.000973	9.729218	1.648174	-0.000195
1091	1.0845e+02	-1.7126	70.589318	0.000892	8.918450	1.510826	-0.000179
1092	1.0855e+02	-1.7323	70.363239	0.001135	11.350755	1.922870	-0.000227
1093	1.0865e+02	-1.7525	70.141196	0.001115	11.148063	1.888533	-0.000223
1094	1.0875e+02	-1.7718	69.971637	0.000851	8.513066	1.442152	-0.000170
1095	1.0885e+02	-1.7921	69.737483	0.001176	11.756139	1.991544	-0.000235
1096	1.0895e+02	-1.8127	69.575997	0.000811	8.107682	1.373479	-0.000162
1097	1.0905e+02	-1.8321	69.337806	0.001196	11.958831	2.025881	-0.000239
1098	1.0915e+02	-1.8517	69.123838	0.001074	10.742679	1.819859	-0.000215
1099	1.0925e+02	-1.8726	68.930056	0.000973	9.729218	1.648174	-0.000195
1100	1.0935e+02	-1.8908	68.744347	0.000932	9.323834	1.579500	-0.000187
1101	1.0945e+02	-1.9114	68.546528	0.000993	9.931910	1.682511	-0.000199
1102	1.0955e+02	-1.9317	68.348708	0.000993	9.931910	1.682511	-0.000199
1103	1.0965e+02	-1.9515	68.134740	0.001074	10.742679	1.819859	-0.000215
1104	1.0975e+02	-1.9722	67.900586	0.001176	11.756139	1.991544	-0.000235
1105	1.0985e+02	-1.9907	67.731026	0.000851	8.513066	1.442152	-0.000170
1106	1.0995e+02	-2.0116	67.533207	0.000993	9.931910	1.682511	-0.000199
1107	1.1005e+02	-2.0313	67.351536	0.000912	9.121142	1.545163	-0.000183
1108	1.1015e+02	-2.0515	67.137567	0.001074	10.742679	1.819859	-0.000215
1109	1.1025e+02	-2.0704	66.968008	0.000851	8.513066	1.442152	-0.000170
1110	1.1035e+02	-2.0915	66.762114	0.001034	10.337295	1.751185	-0.000207
1111	1.1044e+02	-2.1091	66.552183	0.001054	10.539987	1.785522	-0.000211
1112	1.1054e+02	-2.1312	66.330140	0.001115	11.148063	1.888533	-0.000223
1113	1.1064e+02	-2.1497	66.156543	0.000872	8.715758	1.476489	-0.000174
1114	1.1074e+02	-2.1716	65.938538	0.001095	10.945371	1.854196	-0.000219
1115	1.1084e+02	-2.1912	65.748793	0.000953	9.526526	1.613837	-0.000191
1116	1.1094e+02	-2.2101	65.546936	0.001013	10.134602	1.716848	-0.000203
1117	1.1104e+02	-2.2308	65.320856	0.001135	11.350755	1.922870	-0.000227
1118	1.1114e+02	-2.2507	65.135148	0.000932	9.323834	1.579500	-0.000187
1119	1.1124e+02	-2.2705	64.937328	0.000993	9.931910	1.682511	-0.000199
1120	1.1134e+02	-2.2913	64.739509	0.000993	9.931910	1.682511	-0.000199
1121	1.1144e+02	-2.3104	64.541689	0.000993	9.931910	1.682511	-0.000199
1122	1.1154e+02	-2.3306	64.299461	0.001216	12.161523	2.060218	-0.000243
1123	1.1164e+02	-2.3498	64.137975	0.000811	8.107682	1.373479	-0.000162
1124	1.1174e+02	-2.3708	63.903822	0.001176	11.756139	1.991544	-0.000235
1125	1.1184e+02	-2.3906	63.706002	0.000993	9.931910	1.682511	-0.000199
1126	1.1194e+02	-2.4107	63.520294	0.000932	9.323834	1.579500	-0.000187
1127	1.1204e+02	-2.4303	63.294214	0.001135	11.350755	1.922870	-0.000227
1128	1.1214e+02	-2.4502	63.104469	0.000953	9.526526	1.613837	-0.000191
1129	1.1224e+02	-2.4712	62.902612	0.001013	10.134602	1.716848	-0.000203
1130	1.1234e+02	-2.4908	62.708829	0.000973	9.729218	1.648174	-0.000195
1131	1.1244e+02	-2.5117	62.502935	0.001034	10.337295	1.751185	-0.000207
1132	1.1253e+02	-2.5295	62.313190	0.000953	9.526526	1.613837	-0.000191
1133	1.1263e+02	-2.5489	62.074999	0.001196	11.958831	2.025881	-0.000239
1134	1.1273e+02	-2.5694	61.909477	0.000831	8.310374	1.407815	-0.000166
1135	1.1283e+02	-2.5886	61.703583	0.001034	10.337295	1.751185	-0.000207
1136	1.1293e+02	-2.6092	61.469429	0.001176	11.756139	1.991544	-0.000235
1137	1.1303e+02	-2.6287	61.295832	0.000872	8.715758	1.476489	-0.000174
1138	1.1313e+02	-2.6489	61.077827	0.001095	10.945371	1.854196	-0.000219
1139	1.1323e+02	-2.6683	60.900193	0.000892	8.918450	1.510826	-0.000179
1140	1.1333e+02	-2.6891	60.694299	0.001034	10.337295	1.751185	-0.000207
1141	1.1343e+02	-2.7081	60.439959	0.001277	12.769599	2.163229	-0.000256
1142	1.1353e+02	-2.7281	60.254251	0.000932	9.323834	1.579500	-0.000187
1143	1.1363e+02	-2.7489	60.040283	0.001074	10.742679	1.819859	-0.000215
1144	1.1373e+02	-2.7686	59.874760	0.000831	8.310374	1.407815	-0.000166
1145	1.1383e+02	-2.7887	59.660792	0.001074	10.742679	1.819859	-0.000215
1146	1.1393e+02	-2.8081	59.430675	0.001155	11.553447	1.957207	-0.000231
1147	1.1403e+02	-2.8278	59.236893	0.000973	9.729218	1.648174	-0.000195
1148	1.1413e+02	-2.8484	59.018887	0.001095	10.945371	1.854196	-0.000219
1149	1.1423e+02	-2.8682	58.792808	0.001135	11.350755	1.922870	-0.000227
1150	1.1433e+02	-2.8876	58.615174	0.000892	8.918450	1.510826	-0.000179
1151	1.1442e+02	-2.9073	58.401206	0.001074	10.742679	1.819859	-0.000215
1152	1.1452e+02	-2.9278	58.179163	0.001115	11.148063	1.888533	-0.000223
1153	1.1462e+02	-2.9465	58.009603	0.000851	8.513066	1.442152	-0.000170
1154	1.1472e+02	-2.9675	57.783524	0.001135	11.350755	1.922870	-0.000227
1155	1.1482e+02	-2.9868	57.561481	0.001115	11.148063	1.888533	-0.000223
1156	1.1492e+02	-3.0070	57.399996	0.000811	8.107682	1.373479	-0.000162
1157	1.1502e+02	-3.0266	57.177953	0.001115	11.148063	1.888533	-0.000223
1158	1.1512e+02	-3.0469	56.959948	0.001095	10.945371	1.854196	-0.000219
1159	1.1522e+02	-3.0660	56.750017	0.001054	10.539987	1.785522	-0.000211
1160	1.1532e+02	-3.0864	56.532012	0.001095	10.945371	1.854196	-0.000219
1161	1.1542e+02	-3.1068	56.346303	0.000932	9.323834	1.579500	-0.000187
1162	1.1552e+02	-3.1264	56.124261	0.001115	11.148063	1.888533	-0.000223
1163	1.1562e+02	-3.1467	55.938553	0.000932	9.323834	1.579500	-0.000187
1164	1.1572e+02	-3.1673	55.740733	0.000993	9.931910	1.682511	-0.000199
1165	1.1582e+02	-3.1864	55.518691	0.001115	11.148063	1.888533	-0.000223
1166	1.1592e+02	-3.2060	55.312797	0.001034	10.337295	1.751185	-0.000207
1167	1.1602e+02	-3.2258	55.090754	0.001115	11.148063	1.888533	-0.000223
1168	1.1612e+02	-3.2459	54.892935	0.000993	9.931910	1.682511	-0.000199
1169	1.1622e+02	-3.2664	54.683004	0.001054	10.539987	1.785522	-0.000211
1170	1.1632e+02	-3.2860	54.481147	0.001013	10.134602	1.716848	-0.000203
1171	1.1642e+02	-3.3069	54.251030	0.001155	11.553447	1.957207	-0.000231
1172	1.1651e+02	-3.3263	54.053210	0.000993	9.931910	1.682511	-0.000199
1173	1.1661e+02	-3.3452	53.847316	0.001034	10.337295	1.751185	-0.000207
1174	1.1671e+02	-3.3658	53.637385	0.001054	10.539987	1.785522	-0.000211
1175	1.1681e+02	-3.3860	53.488011	0.000750	7.499606	1.270468	-0.000150
1176	1.1691e+02	-3.4053	53.217523	0.001358	13.580367	2.300577	-0.000272
1177	1.1701e+02	-3.4262	53.052001	0.000831	8.310374	1.407815	-0.000166
1178	1.1711e+02	-3.4456	52.817847	0.001176	11.756139	1.991544	-0.000235
1179	1.1721e+02	-3.4656	52.632139	0.000932	9.323834	1.579500	-0.000187
1180	1.1731e+02	-3.4859	52.426245	0.001034	10.337295	1.751185	-0.000207
1181	1.1741e+02	-3.5043	52.184017	0.001216	12.161523	2.060218	-0.000243
1182	1.1751e+02	-3.5265	51.933714	0.001257	12.566907	2.128892	-0.000252
1183	1.1761e+02	-3.5457	51.792414	0.000709	7.094222	1.201794	-0.000142
1184	1.1771e+02	-3.5658	51.622855	0.000851	8.513066	1.442152	-0.000170
1185	1.1781e+02	-3.5847	51.372552	0.001257	12.566907	2.128892	-0.000252
1186	1.1791e+02	-3.6057	51.162621	0.001054	10.539987	1.785522	-0.000211
1187	1.1801e+02	-3.6252	50.976913	0.000932	9.323834	1.579500	-0.000187
1188	1.1811e+02	-3.6446	50.698351	0.001399	13.985751	2.369250	-0.000280
1189	1.1821e+02	-3.6657	50.536865	0.000811	8.107682	1.373479	-0.000162
1190	1.1831e+02	-3.6858	50.310786	0.001135	11.350755	1.922870	-0.000227
1191	1.1841e+02	-3.7054	50.125077	0.000932	9.323834	1.579500	-0.000187
1192	1.1850e+02	-3.7248	49.927258	0.000993	9.931910	1.682511	-0.000199
1193	1.1860e+02	-3.7458	49.672918	0.001277	12.769599	2.163229	-0.000256
1194	1.1870e+02	-3.7645	49.495284	0.000892	8.918450	1.510826	-0.000179
1195	1.1880e+02	-3.7840	49.240945	0.001277	12.769599	2.163229	-0.000256
1196	1.1890e+02	-3.8042	49.039088	0.001013	10.134602	1.716848	-0.000203
1197	1.1900e+02	-3.8232	48.804934	0.001176	11.756139	1.991544	-0.000235
1198	1.1910e+02	-3.8428	48.635374	0.000851	8.513066	1.442152	-0.000170
1199	1.1920e+02	-3.8634	48.417369	0.001095	10.945371	1.854196	-0.000219
1200	1.1930e+02	-3.8840	48.219549	0.000993	9.931910	1.682511	-0.000199
1201	1.1940e+02	-3.9042	48.001544	0.001095	10.945371	1.854196	-0.000219
1202	1.1950e+02	-3.9233	47.791613	0.001054	10.539987	1.785522	-0.000211
1203	1.1960e+02	-3.9431	47.565533	0.001135	11.350755	1.922870	-0.000227
1204	1.1970e+02	-3.9635	47.383862	0.000912	9.121142	1.545163	-0.000183
1205	1.1980e+02	-3.9839	47.117411	0.001338	13.377675	2.266240	-0.000268
1206	1.1990e+02	-4.0036	46.959963	0.000790	7.904990	1.339142	-0.000158
1207	1.2000e+02	-4.0227	46.693512	0.001338	13.377675	2.266240	-0.000268
1208	1.2010e+02	-4.0428	46.519915	0.000872	8.715758	1.476489	-0.000174
1209	1.2020e+02	-4.0630	46.285761	0.001176	11.756139	1.991544	-0.000235
1210	1.2030e+02	-4.0822	46.063719	0.001115	11.148063	1.888533	-0.000223
1211	1.2039e+02	-4.1032	45.869936	0.000973	9.729218	1.648174	-0.000195
1212	1.2049e+02	-4.1227	45.655968	0.001074	10.742679	1.819859	-0.000215
1213	1.2059e+02	-4.1426	45.433926	0.001115	11.148063	1.888533	-0.000223
1214	1.2069e+02	-4.1624	45.191697	0.001216	12.161523	2.060218	-0.000243
1215	1.2079e+02	-4.1827	45.030212	0.000811	8.107682	1.373479	-0.000162
1216	1.2089e+02	-4.2029	44.747613	0.001419	14.188443	2.403587	-0.000284
1217	1.2099e+02	-4.2222	44.569979	0.000892	8.918450	1.510826	-0.000179
1218	1.2109e+02	-4.2426	44.351973	0.001095	10.945371	1.854196	-0.000219
1219	1.2119e+02	-4.2629	44.097634	0.001277	12.769599	2.163229	-0.000256
1220	1.2129e+02	-4.2831	43.944223	0.000770	7.702298	1.304805	-0.000154
1221	1.2139e+02	-4.3028	43.706031	0.001196	11.958831	2.025881	-0.000239
1222	1.2149e+02	-4.3224	43.492063	0.001074	10.742679	1.819859	-0.000215
1223	1.2159e+02	-4.3422	43.241761	0.001257	12.566907	2.128892	-0.000252
1224	1.2169e+02	-4.3624	43.068164	0.000872	8.715758	1.476489	-0.000174
1225	1.2179e+02	-4.3826	42.842084	0.001135	11.350755	1.922870	-0.000227
1226	1.2189e+02	-4.4025	42.620042	0.001115	11.148063	1.888533	-0.000223
1227	1.2199e+02	-4.4218	42.357628	0.001317	13.174983	2.231903	-0.000264
1228	1.2209e+02	-4.4414	42.155771	0.001013	10.134602	1.716848	-0.000203
1229	1.2219e+02	-4.4615	41.957952	0.000993	9.931910	1.682511	-0.000199
1230	1.2229e+02	-4.4819	41.735909	0.001115	11.148063	1.888533	-0.000223
1231	1.2239e+02	-4.5014	41.505793	0.001155	11.553447	1.957207	-0.000231
1232	1.2248e+02	-4.5212	41.279713	0.001135	11.350755	1.922870	-0.000227
1233	1.2258e+02	-4.5420	41.053633	0.001135	11.350755	1.922870	-0.000227
1234	1.2268e+02	-4.5609	40.819479	0.001176	11.756139	1.991544	-0.000235
1235	1.2278e+02	-4.5819	40.589363	0.001155	11.553447	1.957207	-0.000231
1236	1.2288e+02	-4.6008	40.403654	0.000932	9.323834	1.579500	-0.000187
1237	1.2298e+02	-4.6214	40.165463	0.001196	11.958831	2.025881	-0.000239
1238	1.2308e+02	-4.6410	39.955532	0.001054	10.539987	1.785522	-0.000211
1239	1.2318e+02	-4.6618	39.721379	0.001176	11.756139	1.991544	-0.000235
1240	1.2328e+02	-4.6806	39.471076	0.001257	12.566907	2.128892	-0.000252
1241	1.2338e+02	-4.7000	39.269219	0.001013	10.134602	1.716848	-0.000203
1242	1.2348e+02	-4.7212	38.998731	0.001358	13.580367	2.300577	-0.000272
1243	1.2358e+02	-4.7417	38.772652	0.001135	11.350755	1.922870	-0.000227
1244	1.2368e+02	-4.7602	38.542535	0.001155	11.553447	1.957207	-0.000231
1245	1.2378e+02	-4.7807	38.292232	0.001257	12.566907	2.128892	-0.000252
1246	1.2388e+02	-4.7994	38.078264	0.001074	10.742679	1.819859	-0.000215
1247	1.2398e+02	-4.8213	37.908705	0.000851	8.513066	1.442152	-0.000170
1248	1.2408e+02	-4.8405	37.634179	0.001378	13.783059	2.334913	-0.000276
1249	1.2418e+02	-4.8596	37.404063	0.001155	11.553447	1.957207	-0.000231
1250	1.2428e+02	-4.8807	37.157797	0.001236	12.364215	2.094555	-0.000248
1251	1.2438e+02	-4.8988	36.923643	0.001176	11.756139	1.991544	-0.000235
1252	1.2447e+02	-4.9196	36.673341	0.001257	12.566907	2.128892	-0.000252
1253	1.2457e+02	-4.9401	36.459373	0.001074	10.742679	1.819859	-0.000215
1254	1.2467e+02	-4.9603	36.200996	0.001297	12.972291	2.197566	-0.000260
1255	1.2477e+02	-4.9800	35.926471	0.001378	13.783059	2.334913	-0.000276
1256	1.2487e+02	-5.0002	35.708466	0.001095	10.945371	1.854196	-0.000219
1257	1.2497e+02	-5.0195	35.486423	0.001115	11.148063	1.888533	-0.000223
1258	1.2507e+02	-5.0397	35.171527	0.001581	15.809980	2.678283	-0.000316
1259	1.2517e+02	-5.0594	35.001967	0.000851	8.513066	1.442152	-0.000170
1260	1.2527e+02	-5.0787	34.707256	0.001480	14.796520	2.506598	-0.000296
1261	1.2537e+02	-5.0999	34.428694	0.001399	13.985751	2.369250	-0.000280
1262	1.2547e+02	-5.1190	34.234911	0.000973	9.729218	1.648174	-0.000195
1263	1.2557e+02	-5.1395	33.968460	0.001338	13.377675	2.266240	-0.000268
1264	1.2567e+02	-5.1593	33.722195	0.001236	12.364215	2.094555	-0.000248
1265	1.2577e+02	-5.1779	33.512264	0.001054	10.539987	1.785522	-0.000211
1266	1.2587e+02	-5.1989	33.249850	0.001317	13.174983	2.231903	-0.000264
1267	1.2597e+02	-5.2177	32.975325	0.001378	13.783059	2.334913	-0.000276
1268	1.2607e+02	-5.2387	32.704837	0.001358	13.580367	2.300577	-0.000272
1269	1.2617e+02	-5.2579	32.470683	0.001176	11.756139	1.991544	-0.000235
1270	1.2627e+02	-5.2779	32.228455	0.001216	12.161523	2.060218	-0.000243
1271	1.2636e+02	-5.2983	31.994301	0.001176	11.756139	1.991544	-0.000235
1272	1.2646e+02	-5.3188	31.707664	0.001439	14.391136	2.437924	-0.000288
1273	1.2656e+02	-5.3381	31.441213	0.001338	13.377675	2.266240	-0.000268
1274	1.2666e+02	-5.3589	31.198985	0.001216	12.161523	2.060218	-0.000243
1275	1.2676e+02	-5.3778	30.972905	0.001135	11.350755	1.922870	-0.000227
1276	1.2686e+02	-5.3989	30.706454	0.001338	13.377675	2.266240	-0.000268
1277	1.2696e+02	-5.4170	30.427892	0.001399	13.985751	2.369250	-0.000280
1278	1.2706e+02	-5.4375	30.137218	0.001459	14.593828	2.472261	-0.000292
1279	1.2716e+02	-5.4575	29.903064	0.001176	11.756139	1.991544	-0.000235
1280	1.2726e+02	-5.4785	29.660836	0.001216	12.161523	2.060218	-0.000243
1281	1.2736e+02	-5.4969	29.410534	0.001257	12.566907	2.128892	-0.000252
1282	1.2746e+02	-5.5179	29.079489	0.001662	16.620748	2.815631	-0.000333
1283	1.2756e+02	-5.5369	28.821112	0.001297	12.972291	2.197566	-0.000260
1284	1.2766e+02	-5.5565	28.582921	0.001196	11.958831	2.025881	-0.000239
1285	1.2776e+02	-5.5779	28.296284	0.001439	14.391136	2.437924	-0.000288
1286	1.2786e+02	-5.5960	28.041945	0.001277	12.769599	2.163229	-0.000256
1287	1.2796e+02	-5.6183	27.751271	0.001459	14.593828	2.472261	-0.000292
1288	1.2806e+02	-5.6380	27.529229	0.001115	11.148063	1.888533	-0.000223
1289	1.2816e+02	-5.6577	27.198183	0.001662	16.620748	2.815631	-0.000333
1290	1.2826e+02	-5.6772	26.959992	0.001196	11.958831	2.025881	-0.000239
1291	1.2835e+02	-5.6978	26.689504	0.001358	13.580367	2.300577	-0.000272
1292	1.2845e+02	-5.7176	26.382682	0.001540	15.404596	2.609609	-0.000308
1293	1.2855e+02	-5.7359	26.108157	0.001378	13.783059	2.334913	-0.000276
1294	1.2865e+02	-5.7558	25.849780	0.001297	12.972291	2.197566	-0.000260
1295	1.2875e+02	-5.7760	25.587366	0.001317	13.174983	2.231903	-0.000264
1296	1.2885e+02	-5.7962	25.304767	0.001419	14.188443	2.403587	-0.000284
1297	1.2895e+02	-5.8168	25.018130	0.001439	14.391136	2.437924	-0.000288
1298	1.2905e+02	-5.8358	24.731494	0.001439	14.391136	2.437924	-0.000288
1299	1.2915e+02	-5.8582	24.420634	0.001561	15.607288	2.643946	-0.000312
1300	1.2925e+02	-5.8765	24.121886	0.001500	14.999212	2.540935	-0.000300
1301	1.2935e+02	-5.8954	23.859472	0.001317	13.174983	2.231903	-0.000264
1302	1.2945e+02	-5.9169	23.588984	0.001358	13.580367	2.300577	-0.000272
1303	1.2955e+02	-5.9365	23.261976	0.001642	16.418056	2.781294	-0.000329
1304	1.2965e+02	-5.9564	23.007637	0.001277	12.769599	2.163229	-0.000256
1305	1.2975e+02	-5.9760	22.733111	0.001378	13.783059	2.334913	-0.000276
1306	1.2985e+02	-5.9959	22.430326	0.001520	15.201904	2.575272	-0.000304
1307	1.2995e+02	-6.0162	22.131578	0.001500	14.999212	2.540935	-0.000300
1308	1.3005e+02	-6.0349	21.840904	0.001459	14.593828	2.472261	-0.000292
1309	1.3015e+02	-6.0558	21.554268	0.001439	14.391136	2.437924	-0.000288
1310	1.3025e+02	-6.0765	21.247445	0.001540	15.404596	2.609609	-0.000308
1311	1.3034e+02	-6.0959	20.997143	0.001257	12.566907	2.128892	-0.000252
1312	1.3044e+02	-6.1153	20.662061	0.001682	16.823440	2.849968	-0.000337
1313	1.3054e+02	-6.1348	20.403684	0.001297	12.972291	2.197566	-0.000260
1314	1.3064e+02	-6.1559	20.113010	0.001459	14.593828	2.472261	-0.000292
1315	1.3074e+02	-6.1740	19.761779	0.001763	17.634208	2.987316	-0.000353
1316	1.3084e+02	-6.1943	19.454957	0.001540	15.404596	2.609609	-0.000308
1317	1.3094e+02	-6.2148	19.188506	0.001338	13.377675	2.266240	-0.000268
1318	1.3104e+02	-6.2355	18.869572	0.001601	16.012672	2.712620	-0.000321
1319	1.3114e+02	-6.2547	18.546602	0.001622	16.215364	2.746957	-0.000325
1320	1.3124e+02	-6.2749	18.223631	0.001622	16.215364	2.746957	-0.000325
1321	1.3134e+02	-6.2955	17.949105	0.001378	13.783059	2.334913	-0.000276
1322	1.3144e+02	-6.3144	17.646320	0.001520	15.201904	2.575272	-0.000304
1323	1.3154e+02	-6.3342	17.347572	0.001500	14.999212	2.540935	-0.000300
1324	1.3164e+02	-6.3541	17.048824	0.001500	14.999212	2.540935	-0.000300
1325	1.3174e+02	-6.3745	16.725853	0.001622	16.215364	2.746957	-0.000325
1326	1.3184e+02	-6.3939	16.398845	0.001642	16.418056	2.781294	-0.000329
1327	1.3194e+02	-6.4128	16.039540	0.001804	18.039592	3.055990	-0.000361
1328	1.3204e+02	-6.4336	15.765015	0.001378	13.783059	2.334913	-0.000276
1329	1.3214e+02	-6.4537	15.433970	0.001662	16.620748	2.815631	-0.000333
1330	1.3224e+02	-6.4742	15.098888	0.001682	16.823440	2.849968	-0.000337
1331	1.3234e+02	-6.4936	14.800140	0.001500	14.999212	2.540935	-0.000300
1332	1.3243e+02	-6.5145	14.456983	0.001723	17.228824	2.918642	-0.000345
1333	1.3253e+02	-6.5344	14.121901	0.001682	16.823440	2.849968	-0.000337
1334	1.3263e+02	-6.5533	13.843338	0.001399	13.985751	2.369250	-0.000280
1335	1.3273e+02	-6.5732	13.528442	0.001581	15.809980	2.678283	-0.000316
1336	1.3283e+02	-6.5932	13.169137	0.001804	18.039592	3.055990	-0.000361
1337	1.3293e+02	-6.6133	12.870389	0.001500	14.999212	2.540935	-0.000300
1338	1.3303e+02	-6.6333	12.503009	0.001844	18.444977	3.124664	-0.000369
1339	1.3313e+02	-6.6522	12.184076	0.001601	16.012672	2.712620	-0.000321
1340	1.3323e+02	-6.6733	11.840919	0.001723	17.228824	2.918642	-0.000345
1341	1.3333e+02	-6.6927	11.554282	0.001439	14.391136	2.437924	-0.000288
1342	1.3343e+02	-6.7135	11.170755	0.001926	19.255745	3.262011	-0.000385
1343	1.3353e+02	-6.7329	10.876044	0.001480	14.796520	2.506598	-0.000296
1344	1.3363e+02	-6.7525	10.532887	0.001723	17.228824	2.918642	-0.000345
1345	1.3373e+02	-6.7726	10.165508	0.001844	18.444977	3.124664	-0.000369
1346	1.3383e+02	-6.7918	9.838500	0.001642	16.418056	2.781294	-0.000329
1347	1.3393e+02	-6.8130	9.479195	0.001804	18.039592	3.055990	-0.000361
1348	1.3403e+02	-6.8326	9.132001	0.001743	17.431516	2.952979	-0.000349
1349	1.3413e+02	-6.8484	8.821142	0.001561	15.607288	2.643946	-0.000312
1350	1.3423e+02	-6.8723	8.445688	0.001885	18.850361	3.193338	-0.000377
1351	1.3432e+02	-6.8926	8.074271	0.001865	18.647669	3.159001	-0.000373
1352	1.3442e+02	-6.9122	7.710929	0.001824	18.242284	3.090327	-0.000365
1353	1.3452e+02	-6.9324	7.404107	0.001540	15.404596	2.609609	-0.000308
1354	1.3462e+02	-6.9515	6.968096	0.002189	21.890741	3.708392	-0.000438
1355	1.3472e+02	-6.9717	6.693571	0.001378	13.783059	2.334913	-0.000276
1356	1.3482e+02	-6.9922	6.326192	0.001844	18.444977	3.124664	-0.000369
1357	1.3492e+02	-7.0120	5.930552	0.001986	19.863821	3.365022	-0.000398
1358	1.3502e+02	-7.0323	5.571247	0.001804	18.039592	3.055990	-0.000361
1359	1.3512e+02	-7.0512	5.191757	0.001905	19.053053	3.227674	-0.000381
1360	1.3522e+02	-7.0709	4.840526	0.001763	17.634208	2.987316	-0.000353
1361	1.3532e+02	-7.0915	4.456998	0.001926	19.255745	3.262011	-0.000385
1362	1.3542e+02	-7.1118	4.057321	0.002007	20.066513	3.399359	-0.000402
1363	1.3552e+02	-7.1320	3.677831	0.001905	19.053053	3.227674	-0.000381
1364	1.3562e+02	-7.1507	3.302377	0.001885	18.850361	3.193338	-0.000377
1365	1.3572e+02	-7.1706	2.918849	0.001926	19.255745	3.262011	-0.000385
1366	1.3582e+02	-7.1909	2.519173	0.002007	20.066513	3.399359	-0.000402
1367	1.3592e+02	-7.2095	2.115459	0.002027	20.269205	3.433696	-0.000406
1368	1.3602e+02	-7.2305	1.748080	0.001844	18.444977	3.124664	-0.000369
1369	1.3612e+02	-7.2504	1.380700	0.001844	18.444977	3.124664	-0.000369
1370	1.3622e+02	-7.2717	0.997173	0.001926	19.255745	3.262011	-0.000385
1371	1.3631e+02	-7.2903	0.601533	0.001986	19.863821	3.365022	-0.000398
1372	1.3641e+02	-7.3096	0.189745	0.002067	20.674589	3.502370	-0.000414
1373	1.3651e+02	-7.3302	-0.230117	0.002108	21.079973	3.571044	-0.000422
1374	1.3661e+02	-7.3505	-0.597496	0.001844	18.444977	3.124664	-0.000369
1375	1.3671e+02	-7.3701	-0.989098	0.001966	19.661129	3.330685	-0.000394
1376	1.3681e+02	-7.3897	-1.412998	0.002128	21.282665	3.605381	-0.000426
1377	1.3691e+02	-7.4104	-1.836897	0.002128	21.282665	3.605381	-0.000426
1378	1.3701e+02	-7.4307	-2.260796	0.002128	21.282665	3.605381	-0.000426
1379	1.3711e+02	-7.4503	-2.696807	0.002189	21.890741	3.708392	-0.000438
1380	1.3721e+02	-7.4705	-3.084372	0.001946	19.458437	3.296348	-0.000390
1381	1.3731e+02	-7.4901	-3.524419	0.002209	22.093433	3.742729	-0.000442
1382	1.3741e+02	-7.5101	-3.924096	0.002007	20.066513	3.399359	-0.000402
1383	1.3751e+02	-7.5302	-4.388367	0.002331	23.309586	3.948751	-0.000467
1384	1.3761e+02	-7.5496	-4.767857	0.001905	19.053053	3.227674	-0.000381
1385	1.3771e+02	-7.5693	-5.240202	0.002371	23.714970	4.017425	-0.000475
1386	1.3781e+02	-7.5896	-5.660064	0.002108	21.079973	3.571044	-0.000422
1387	1.3791e+02	-7.6086	-6.096075	0.002189	21.890741	3.708392	-0.000438
1388	1.3801e+02	-7.6294	-6.532086	0.002189	21.890741	3.708392	-0.000438
1389	1.3811e+02	-7.6480	-6.996356	0.002331	23.309586	3.948751	-0.000467
1390	1.3821e+02	-7.6688	-7.428330	0.002169	21.688049	3.674055	-0.000434
1391	1.3831e+02	-7.6883	-7.876452	0.002250	22.498818	3.811403	-0.000450
1392	1.3840e+02	-7.7088	-8.348797	0.002371	23.714970	4.017425	-0.000475
1393	1.3850e+02	-7.7283	-8.788845	0.002209	22.093433	3.742729	-0.000442
1394	1.3860e+02	-7.7477	-9.269264	0.002412	24.120354	4.086099	-0.000483
1395	1.3870e+02	-7.7687	-9.689126	0.002108	21.079973	3.571044	-0.000422
1396	1.3880e+02	-7.7888	-10.201842	0.002574	25.741890	4.360794	-0.000515
1397	1.3890e+02	-7.8093	-10.690335	0.002453	24.525738	4.154772	-0.000491
1398	1.3900e+02	-7.8284	-11.134420	0.002230	22.296125	3.777066	-0.000446
1399	1.3910e+02	-7.8479	-11.626951	0.002473	24.728430	4.189109	-0.000495
1400	1.3920e+02	-7.8685	-12.095259	0.002351	23.512278	3.983088	-0.000471
1401	1.3930e+02	-7.8877	-12.559529	0.002331	23.309586	3.948751	-0.000467
1402	1.3940e+02	-7.9086	-13.060134	0.002513	25.133814	4.257783	-0.000503
1403	1.3950e+02	-7.9276	-13.548628	0.002453	24.525738	4.154772	-0.000491
1404	1.3960e+02	-7.9475	-14.073455	0.002635	26.349966	4.463805	-0.000527
1405	1.3970e+02	-7.9671	-14.561949	0.002453	24.525738	4.154772	-0.000491
1406	1.3980e+02	-7.9879	-15.102925	0.002716	27.160735	4.601153	-0.000544
1407	1.3990e+02	-8.0073	-15.567195	0.002331	23.309586	3.948751	-0.000467
1408	1.4000e+02	-8.0278	-16.092023	0.002635	26.349966	4.463805	-0.000527
1409	1.4010e+02	-8.0469	-16.612814	0.002615	26.147274	4.429468	-0.000523
1410	1.4020e+02	-8.0664	-17.133604	0.002615	26.147274	4.429468	-0.000523
1411	1.4029e+02	-8.0863	-17.662469	0.002655	26.552658	4.498142	-0.000532
1412	1.4039e+02	-8.1076	-18.199408	0.002696	26.958043	4.566816	-0.000540
1413	1.4049e+02	-8.1267	-18.764607	0.002838	28.376887	4.807175	-0.000568
1414	1.4059e+02	-8.1473	-19.297509	0.002676	26.755351	4.532479	-0.000536
1415	1.4069e+02	-8.1671	-19.846559	0.002757	27.566119	4.669827	-0.000552
1416	1.4079e+02	-8.1873	-20.322941	0.002392	23.917662	4.051762	-0.000479
1417	1.4089e+02	-8.2056	-20.900252	0.002898	28.984963	4.910186	-0.000580
1418	1.4099e+02	-8.2270	-21.453339	0.002777	27.768811	4.704164	-0.000556
1419	1.4109e+02	-8.2457	-22.030650	0.002898	28.984963	4.910186	-0.000580
1420	1.4119e+02	-8.2671	-22.628146	0.003000	29.998423	5.081870	-0.000600
1421	1.4129e+02	-8.2866	-23.213530	0.002939	29.390347	4.978860	-0.000588
1422	1.4139e+02	-8.3064	-23.819101	0.003040	30.403807	5.150544	-0.000609
1423	1.4149e+02	-8.3255	-24.352003	0.002676	26.755351	4.532479	-0.000536
1424	1.4159e+02	-8.3457	-24.945462	0.002980	29.795731	5.047534	-0.000596
1425	1.4169e+02	-8.3658	-25.587366	0.003223	32.228036	5.459577	-0.000645
1426	1.4179e+02	-8.3856	-26.124305	0.002696	26.958043	4.566816	-0.000540
1427	1.4189e+02	-8.4062	-26.741987	0.003101	31.011884	5.253555	-0.000621
1428	1.4199e+02	-8.4267	-27.359669	0.003101	31.011884	5.253555	-0.000621
1429	1.4209e+02	-8.4457	-27.977351	0.003101	31.011884	5.253555	-0.000621
1430	1.4219e+02	-8.4663	-28.619255	0.003223	32.228036	5.459577	-0.000645
1431	1.4228e+02	-8.4858	-29.265197	0.003243	32.430728	5.493914	-0.000649
1432	1.4238e+02	-8.5052	-29.842507	0.002898	28.984963	4.910186	-0.000580
1433	1.4248e+02	-8.5260	-30.516709	0.003385	33.849572	5.734273	-0.000678
1434	1.4258e+02	-8.5448	-31.215134	0.003507	35.065725	5.940295	-0.000702
1435	1.4268e+02	-8.5655	-31.836852	0.003121	31.214576	5.287892	-0.000625
1436	1.4278e+02	-8.5857	-32.486831	0.003263	32.633420	5.528251	-0.000653
1437	1.4288e+02	-8.6050	-33.213516	0.003648	36.484569	6.180653	-0.000730
1438	1.4298e+02	-8.6258	-33.778715	0.002838	28.376887	4.807175	-0.000568
1439	1.4308e+02	-8.6447	-34.497325	0.003608	36.079185	6.111979	-0.000722
1440	1.4318e+02	-8.6649	-35.207861	0.003567	35.673801	6.043305	-0.000714
1441	1.4328e+02	-8.6852	-35.841691	0.003182	31.822652	5.390903	-0.000637
1442	1.4338e+02	-8.7055	-36.536078	0.003486	34.863033	5.905958	-0.000698
1443	1.4348e+02	-8.7244	-37.262763	0.003648	36.484569	6.180653	-0.000730
1444	1.4358e+02	-8.7448	-37.953113	0.003466	34.660340	5.871621	-0.000694
1445	1.4368e+02	-8.7633	-38.708057	0.003790	37.903413	6.421012	-0.000759
1446	1.4378e+02	-8.7842	-39.394371	0.003446	34.457648	5.837284	-0.000690
1447	1.4388e+02	-8.8036	-40.145278	0.003770	37.700721	6.386675	-0.000755
1448	1.4398e+02	-8.8213	-40.880036	0.003689	36.889953	6.249327	-0.000738
1449	1.4408e+02	-8.8445	-41.651129	0.003871	38.714181	6.558360	-0.000775
1450	1.4418e+02	-8.8644	-42.349554	0.003507	35.065725	5.940295	-0.000702
1451	1.4428e+02	-8.8841	-43.148907	0.004013	40.133026	6.798719	-0.000803
1452	1.4437e+02	-8.9043	-43.924037	0.003892	38.916874	6.592697	-0.000779
1453	1.4447e+02	-8.9241	-44.711278	0.003952	39.524950	6.695708	-0.000791
1454	1.4457e+02	-8.9432	-45.482371	0.003871	38.714181	6.558360	-0.000775
1455	1.4467e+02	-8.9632	-46.285761	0.004034	40.335718	6.833056	-0.000807
1456	1.4477e+02	-8.9841	-47.109337	0.004135	41.349178	7.004740	-0.000828
1457	1.4487e+02	-9.0034	-47.888504	0.003912	39.119566	6.627034	-0.000783
1458	1.4497e+02	-9.0231	-48.699968	0.004074	40.741102	6.901730	-0.000816
1459	1.4507e+02	-9.0431	-49.507396	0.004054	40.538410	6.867393	-0.000811
1460	1.4517e+02	-9.0640	-50.379417	0.004378	43.781483	7.416784	-0.000876
1461	1.4527e+02	-9.0839	-51.255475	0.004398	43.984175	7.451121	-0.000880
1462	1.4537e+02	-9.1039	-52.087125	0.004175	41.754562	7.073414	-0.000836
1463	1.4547e+02	-9.1224	-52.930887	0.004236	42.362638	7.176425	-0.000848
1464	1.4557e+02	-9.1421	-53.806945	0.004398	43.984175	7.451121	-0.000880
1465	1.4567e+02	-9.1628	-54.735486	0.004662	46.619171	7.897501	-0.000933
1466	1.4577e+02	-9.1818	-55.591359	0.004297	42.970715	7.279436	-0.000860
1467	1.4587e+02	-9.2023	-56.515863	0.004642	46.416479	7.863164	-0.000929
1468	1.4597e+02	-9.2231	-57.416144	0.004520	45.200327	7.657143	-0.000905
1469	1.4607e+02	-9.2438	-58.316426	0.004520	45.200327	7.657143	-0.000905
1470	1.4617e+02	-9.2625	-59.249004	0.004682	46.821863	7.931838	-0.000937
1471	1.4626e+02	-9.2824	-60.201768	0.004784	47.835324	8.103523	-0.000958
1472	1.4636e+02	-9.3032	-61.110124	0.004561	45.605711	7.725817	-0.000913
1473	1.4646e+02	-9.3213	-62.171890	0.005331	53.308009	9.030621	-0.001067
1474	1.4656e+02	-9.3408	-63.092357	0.004621	46.213787	7.828827	-0.000925
1475	1.4666e+02	-9.3610	-64.089530	0.005006	50.064936	8.481230	-0.001002
1476	1.4676e+02	-9.3809	-65.062480	0.004885	48.848784	8.275208	-0.000978
1477	1.4686e+02	-9.4018	-66.079838	0.005108	51.078396	8.652915	-0.001022
1478	1.4696e+02	-9.4211	-67.077010	0.005006	50.064936	8.481230	-0.001002
1479	1.4706e+02	-9.4417	-68.118591	0.005229	52.294549	8.858936	-0.001047
1480	1.4716e+02	-9.4615	-69.148061	0.005169	51.686473	8.755925	-0.001035
1481	1.4726e+02	-9.4819	-70.213865	0.005351	53.510701	9.064958	-0.001071
1482	1.4736e+02	-9.5015	-71.255446	0.005229	52.294549	8.858936	-0.001047
1483	1.4746e+02	-9.5215	-72.345472	0.005473	54.726853	9.270980	-0.001096
1484	1.4756e+02	-9.5419	-73.427425	0.005432	54.321469	9.202306	-0.001087
1485	1.4766e+02	-9.5601	-74.533600	0.005554	55.537622	9.408328	-0.001112
1486	1.4776e+02	-9.5805	-75.651887	0.005615	56.145698	9.511339	-0.001124
1487	1.4786e+02	-9.6005	-76.778247	0.005655	56.551082	9.580013	-0.001132
1488	1.4796e+02	-9.6205	-77.949017	0.005878	58.780694	9.957719	-0.001177
1489	1.4806e+02	-9.6407	-79.055192	0.005554	55.537622	9.408328	-0.001112
1490	1.4816e+02	-9.6602	-80.246147	0.005979	59.794155	10.129404	-0.001197
1491	1.4825e+02	-9.6803	-81.416916	0.005878	58.780694	9.957719	-0.001177
1492	1.4835e+02	-9.7002	-82.611909	0.006000	59.996847	10.163741	-0.001201
1493	1.4845e+02	-9.7200	-83.774604	0.005838	58.375310	9.889045	-0.001169
1494	1.4855e+02	-9.7412	-84.997856	0.006142	61.415691	10.404100	-0.001229
1495	1.4865e+02	-9.7571	-86.253405	0.006304	63.037227	10.678795	-0.001262
1496	1.4875e+02	-9.7804	-87.545288	0.006486	64.861456	10.987828	-0.001298
1497	1.4885e+02	-9.8001	-88.744318	0.006020	60.199539	10.198078	-0.001205
1498	1.4895e+02	-9.8205	-90.020053	0.006405	64.050688	10.850480	-0.001282
1499	1.4905e+02	-9.8393	-91.344233	0.006648	66.482992	11.262524	-0.001331
1500	1.4915e+02	-9.8602	-92.648228	0.006547	65.469532	11.090839	-0.001311
1501	1.4925e+02	-9.8792	-93.948186	0.006527	65.266840	11.056502	-0.001306
1502	1.4935e+02	-9.8999	-95.300626	0.006790	67.901837	11.502883	-0.001359
1503	1.4945e+02	-9.9194	-96.600584	0.006527	65.266840	11.056502	-0.001306
1504	1.4955e+02	-9.9411	-98.005507	0.007054	70.536833	11.949263	-0.001412
1505	1.4965e+02	-9.9604	-99.410430	0.007054	70.536833	11.949263	-0.001412
1506	1.4975e+02	-9.9799	-100.807279	0.007013	70.131449	11.880589	-0.001404
1507	1.4985e+02	-9.9988	-102.204128	0.007013	70.131449	11.880589	-0.001404
1508	1.4995e+02	-9.9803	-103.366823	-0.005838	-58.375310	-9.889045	-0.001169
1509	1.5005e+02	-9.9594	-104.521444	-0.005797	-57.969926	-9.820371	-0.001160
1510	1.5015e+02	-9.9392	-105.667991	-0.005756	-57.564542	-9.751697	-0.001152
1511	1.5025e+02	-9.9194	-106.782240	-0.005594	-55.943006	-9.477002	-0.001120
1512	1.5034e+02	-9.8997	-107.815747	-0.005189	-51.889165	-8.790262	-0.001039
1513	1.5044e+02	-9.8798	-108.893662	-0.005412	-54.118777	-9.167969	-0.001083
1514	1.5054e+02	-9.8592	-109.890835	-0.005006	-50.064936	-8.481230	-0.001002
1515	1.5064e+02	-9.8396	-110.879933	-0.004966	-49.659552	-8.412556	-0.000994
1516	1.5074e+02	-9.8199	-111.889217	-0.005067	-50.673012	-8.584241	-0.001014
1517	1.5084e+02	-9.8004	-112.850055	-0.004824	-48.240708	-8.172197	-0.000966
1518	1.5094e+02	-9.7800	-113.754374	-0.004540	-45.403019	-7.691480	-0.000909
1519	1.5104e+02	-9.7602	-114.682915	-0.004662	-46.619171	-7.897501	-0.000933
1520	1.5114e+02	-9.7404	-115.619530	-0.004702	-47.024555	-7.966175	-0.000941
1521	1.5124e+02	-9.7195	-116.483477	-0.004338	-43.376099	-7.348110	-0.000868
1522	1.5134e+02	-9.7006	-117.367610	-0.004439	-44.389559	-7.519795	-0.000889
1523	1.5144e+02	-9.6808	-118.219446	-0.004277	-42.768022	-7.245099	-0.000856
1524	1.5154e+02	-9.6603	-119.038984	-0.004115	-41.146486	-6.970403	-0.000824
1525	1.5164e+02	-9.6404	-119.842374	-0.004034	-40.335718	-6.833056	-0.000807
1526	1.5174e+02	-9.6210	-120.657876	-0.004094	-40.943794	-6.936066	-0.000820
1527	1.5184e+02	-9.6015	-121.433006	-0.003892	-38.916874	-6.592697	-0.000779
1528	1.5194e+02	-9.5801	-122.204099	-0.003871	-38.714181	-6.558360	-0.000775
1529	1.5204e+02	-9.5612	-123.015563	-0.004074	-40.741102	-6.901730	-0.000816
1530	1.5214e+02	-9.5413	-123.738210	-0.003628	-36.281877	-6.146316	-0.000726
1531	1.5224e+02	-9.5213	-124.448746	-0.003567	-35.673801	-6.043305	-0.000714
1532	1.5233e+02	-9.5004	-125.163319	-0.003588	-35.876493	-6.077642	-0.000718
1533	1.5243e+02	-9.4819	-125.873855	-0.003567	-35.673801	-6.043305	-0.000714
1534	1.5253e+02	-9.4624	-126.560168	-0.003446	-34.457648	-5.837284	-0.000690
1535	1.5263e+02	-9.4420	-127.230333	-0.003365	-33.646880	-5.699936	-0.000674
1536	1.5273e+02	-9.4209	-127.888386	-0.003304	-33.038804	-5.596925	-0.000661
1537	1.5283e+02	-9.4009	-128.554513	-0.003344	-33.444188	-5.665599	-0.000669
1538	1.5293e+02	-9.3820	-129.168158	-0.003081	-30.809192	-5.219218	-0.000617
1539	1.5303e+02	-9.3623	-129.789877	-0.003121	-31.214576	-5.287892	-0.000625
1540	1.5313e+02	-9.3417	-130.379299	-0.002959	-29.593039	-5.013197	-0.000592
1541	1.5323e+02	-9.3228	-130.988906	-0.003061	-30.606499	-5.184881	-0.000613
1542	1.5333e+02	-9.3024	-131.570254	-0.002919	-29.187655	-4.944523	-0.000584
1543	1.5343e+02	-9.2821	-132.143527	-0.002878	-28.782271	-4.875849	-0.000576
1544	1.5353e+02	-9.2622	-132.704689	-0.002817	-28.174195	-4.772838	-0.000564
1545	1.5363e+02	-9.2427	-133.241628	-0.002696	-26.958043	-4.566816	-0.000540
1546	1.5373e+02	-9.2218	-133.794715	-0.002777	-27.768811	-4.704164	-0.000556
1547	1.5383e+02	-9.2029	-134.355877	-0.002817	-28.174195	-4.772838	-0.000564
1548	1.5393e+02	-9.1828	-134.808037	-0.002270	-22.701510	-3.845740	-0.000454
1549	1.5403e+02	-9.1632	-135.340938	-0.002676	-26.755351	-4.532479	-0.000536
1550	1.5413e+02	-9.1435	-135.849618	-0.002554	-25.539198	-4.326457	-0.000511
1551	1.5422e+02	-9.1225	-136.317925	-0.002351	-23.512278	-3.983088	-0.000471
1552	1.5432e+02	-9.1024	-136.810456	-0.002473	-24.728430	-4.189109	-0.000495
1553	1.5442e+02	-9.0837	-137.254541	-0.002230	-22.296125	-3.777066	-0.000446
1554	1.5452e+02	-9.0637	-137.755146	-0.002513	-25.133814	-4.257783	-0.000503
1555	1.5462e+02	-9.0440	-138.146748	-0.001966	-19.661129	-3.330685	-0.000394
1556	1.5472e+02	-9.0240	-138.606981	-0.002311	-23.106894	-3.914414	-0.000463
1557	1.5482e+02	-9.0039	-139.022806	-0.002088	-20.877281	-3.536707	-0.000418
1558	1.5492e+02	-8.9846	-139.394223	-0.001865	-18.647669	-3.159001	-0.000373
1559	1.5502e+02	-8.9633	-139.814085	-0.002108	-21.079973	-3.571044	-0.000422
1560	1.5512e+02	-8.9434	-140.242021	-0.002149	-21.485357	-3.639718	-0.000430
1561	1.5522e+02	-8.9240	-140.613438	-0.001865	-18.647669	-3.159001	-0.000373
1562	1.5532e+02	-8.9037	-140.992929	-0.001905	-19.053053	-3.227674	-0.000381
1563	1.5542e+02	-8.8838	-141.376456	-0.001926	-19.255745	-3.262011	-0.000385
1564	1.5552e+02	-8.8641	-141.731724	-0.001784	-17.836900	-3.021653	-0.000357
1565	1.5562e+02	-8.8432	-142.074881	-0.001723	-17.228824	-2.918642	-0.000345
1566	1.5572e+02	-8.8242	-142.470520	-0.001986	-19.863821	-3.365022	-0.000398
1567	1.5582e+02	-8.8040	-142.809640	-0.001703	-17.026132	-2.884305	-0.000341
1568	1.5592e+02	-8.7842	-143.132610	-0.001622	-16.215364	-2.746957	-0.000325
1569	1.5602e+02	-8.7641	-143.459618	-0.001642	-16.418056	-2.781294	-0.000329
1570	1.5612e+02	-8.7450	-143.786626	-0.001642	-16.418056	-2.781294	-0.000329
1571	1.5622e+02	-8.7244	-144.077300	-0.001459	-14.593828	-2.472261	-0.000292
1572	1.5631e+02	-8.7042	-144.376048	-0.001500	-14.999212	-2.540935	-0.000300
1573	1.5641e+02	-8.6851	-144.654611	-0.001399	-13.985751	-2.369250	-0.000280
1574	1.5651e+02	-8.6652	-144.965470	-0.001561	-15.607288	-2.643946	-0.000312
1575	1.5661e+02	-8.6456	-145.256144	-0.001459	-14.593828	-2.472261	-0.000292
1576	1.5671e+02	-8.6258	-145.518558	-0.001317	-13.174983	-2.231903	-0.000264
1577	1.5681e+02	-8.6057	-145.789046	-0.001358	-13.580367	-2.300577	-0.000272
1578	1.5691e+02	-8.5846	-146.051460	-0.001317	-13.174983	-2.231903	-0.000264
1579	1.5701e+02	-8.5658	-146.342133	-0.001459	-14.593828	-2.472261	-0.000292
1580	1.5711e+02	-8.5455	-146.616659	-0.001378	-13.783059	-2.334913	-0.000276
1581	1.5721e+02	-8.5260	-146.810441	-0.000973	-9.729218	-1.648174	-0.000195
1582	1.5731e+02	-8.5053	-147.076892	-0.001338	-13.377675	-2.266240	-0.000268
1583	1.5741e+02	-8.4858	-147.290860	-0.001074	-10.742679	-1.819859	-0.000215
1584	1.5751e+02	-8.4660	-147.516940	-0.001135	-11.350755	-1.922870	-0.000227
1585	1.5761e+02	-8.4456	-147.726871	-0.001054	-10.539987	-1.785522	-0.000211
1586	1.5771e+02	-8.4253	-147.936802	-0.001054	-10.539987	-1.785522	-0.000211
1587	1.5781e+02	-8.4055	-148.166919	-0.001155	-11.553447	-1.957207	-0.000231
1588	1.5791e+02	-8.3868	-148.332441	-0.000831	-8.310374	-1.407815	-0.000166
1589	1.5801e+02	-8.3661	-148.566595	-0.001176	-11.756139	-1.991544	-0.000235
1590	1.5811e+02	-8.3464	-148.740192	-0.000872	-8.715758	-1.476489	-0.000174
1591	1.5821e+02	-8.3263	-148.913789	-0.000872	-8.715758	-1.476489	-0.000174
1592	1.5830e+02	-8.3069	-149.135831	-0.001115	-11.148063	-1.888533	-0.000223
1593	1.5840e+02	-8.2870	-149.277131	-0.000709	-7.094222	-1.201794	-0.000142
1594	1.5850e+02	-8.2664	-149.450728	-0.000872	-8.715758	-1.476489	-0.000174
1595	1.5860e+02	-8.2468	-149.668733	-0.001095	-10.945371	-1.854196	-0.000219
1596	1.5870e+02	-8.2266	-149.805996	-0.000689	-6.891530	-1.167457	-0.000138
1597	1.5880e+02	-8.2069	-149.967481	-0.000811	-8.107682	-1.373479	-0.000162
1598	1.5890e+02	-8.1868	-150.108781	-0.000709	-7.094222	-1.201794	-0.000142
1599	1.5900e+02	-8.1667	-150.242006	-0.000669	-6.688838	-1.133120	-0.000134
1600	1.5910e+02	-8.1470	-150.407529	-0.000831	-8.310374	-1.407815	-0.000166
1601	1.5920e+02	-8.1270	-150.544792	-0.000689	-6.891530	-1.167457	-0.000138
1602	1.5930e+02	-8.1070	-150.686091	-0.000709	-7.094222	-1.201794	-0.000142
1603	1.5940e+02	-8.0875	-150.811243	-0.000628	-6.283454	-1.064446	-0.000126
1604	1.5950e+02	-8.0670	-150.924282	-0.000568	-5.675377	-0.961435	-0.000114
1605	1.5960e+02	-8.0475	-151.025211	-0.000507	-5.067301	-0.858424	-0.000101
1606	1.5970e+02	-8.0269	-151.138251	-0.000568	-5.675377	-0.961435	-0.000114
1607	1.5980e+02	-8.0069	-151.275513	-0.000689	-6.891530	-1.167457	-0.000138
1608	1.5990e+02	-7.9874	-151.356256	-0.000405	-4.053841	-0.686739	-0.000081
1609	1.6000e+02	-7.9673	-151.432962	-0.000385	-3.851149	-0.652402	-0.000077
1610	1.6010e+02	-7.9469	-151.590410	-0.000790	-7.904990	-1.339142	-0.000158
1611	1.6019e+02	-7.9276	-151.687301	-0.000486	-4.864609	-0.824087	-0.000097
1612	1.6029e+02	-7.9073	-151.788229	-0.000507	-5.067301	-0.858424	-0.000101
1613	1.6039e+02	-7.8876	-151.860898	-0.000365	-3.648457	-0.618065	-0.000073
1614	1.6049e+02	-7.8683	-151.937604	-0.000385	-3.851149	-0.652402	-0.000077
1615	1.6059e+02	-7.8476	-151.986049	-0.000243	-2.432305	-0.412044	-0.000049
1616	1.6069e+02	-7.8282	-152.091015	-0.000527	-5.269993	-0.892761	-0.000105
1617	1.6079e+02	-7.8087	-152.155609	-0.000324	-3.243073	-0.549391	-0.000065
1618	1.6089e+02	-7.7879	-152.212129	-0.000284	-2.837689	-0.480717	-0.000057
1619	1.6099e+02	-7.7691	-152.244426	-0.000162	-1.621536	-0.274696	-0.000032
1620	1.6109e+02	-7.7489	-152.357466	-0.000568	-5.675377	-0.961435	-0.000114
1621	1.6119e+02	-7.7279	-152.418023	-0.000304	-3.040381	-0.515054	-0.000061
1622	1.6129e+02	-7.7083	-152.466468	-0.000243	-2.432305	-0.412044	-0.000049
1623	1.6139e+02	-7.6878	-152.510877	-0.000223	-2.229613	-0.377707	-0.000045
1624	1.6149e+02	-7.6690	-152.603731	-0.000466	-4.661917	-0.789750	-0.000093
1625	1.6159e+02	-7.6485	-152.684474	-0.000405	-4.053841	-0.686739	-0.000081
1626	1.6169e+02	-7.6291	-152.660251	0.000122	1.216152	0.206022	0.000024
1627	1.6179e+02	-7.6083	-152.724845	-0.000324	-3.243073	-0.549391	-0.000065
1628	1.6189e+02	-7.5893	-152.749068	-0.000122	-1.216152	-0.206022	-0.000024
1629	1.6199e+02	-7.5693	-152.769253	-0.000101	-1.013460	-0.171685	-0.000020
1630	1.6209e+02	-7.5500	-152.817699	-0.000243	-2.432305	-0.412044	-0.000049
1631	1.6219e+02	-7.5305	-152.866145	-0.000243	-2.432305	-0.412044	-0.000049
1632	1.6228e+02	-7.5107	-152.882293	-0.000081	-0.810768	-0.137348	-0.000016
1633	1.6238e+02	-7.4900	-152.914590	-0.000162	-1.621536	-0.274696	-0.000032
1634	1.6248e+02	-7.4692	-152.954962	-0.000203	-2.026920	-0.343370	-0.000041
1635	1.6258e+02	-7.4496	-152.950925	0.000020	0.202692	0.034337	0.000004
1636	1.6268e+02	-7.4304	-152.946887	0.000020	0.202692	0.034337	0.000004
1637	1.6278e+02	-7.4101	-152.983222	-0.000182	-1.824228	-0.309033	-0.000037
1638	1.6288e+02	-7.3904	-153.019556	-0.000182	-1.824228	-0.309033	-0.000037
1639	1.6298e+02	-7.3703	-153.059927	-0.000203	-2.026920	-0.343370	-0.000041
1640	1.6308e+02	-7.3507	-153.031667	0.000142	1.418844	0.240359	0.000028
1641	1.6318e+02	-7.3306	-153.043779	-0.000061	-0.608076	-0.103011	-0.000012
1642	1.6328e+02	-7.3111	-153.047816	-0.000020	-0.202692	-0.034337	-0.000004
1643	1.6338e+02	-7.2906	-153.055890	-0.000041	-0.405384	-0.068674	-0.000008
1644	1.6348e+02	-7.2719	-153.023593	0.000162	1.621536	0.274696	0.000032
1645	1.6358e+02	-7.2510	-153.035704	-0.000061	-0.608076	-0.103011	-0.000012
1646	1.6368e+02	-7.2320	-152.983222	0.000263	2.634997	0.446381	0.000053
1647	1.6378e+02	-7.2115	-153.047816	-0.000324	-3.243073	-0.549391	-0.000065
1648	1.6388e+02	-7.1922	-153.051853	-0.000020	-0.202692	-0.034337	-0.000004
1649	1.6398e+02	-7.1710	-152.991296	0.000304	3.040381	0.515054	0.000061
1650	1.6408e+02	-7.1518	-153.015519	-0.000122	-1.216152	-0.206022	-0.000024
1651	1.6418e+02	-7.1311	-152.922665	0.000466	4.661917	0.789750	0.000093
1652	1.6427e+02	-7.1120	-152.958999	-0.000182	-1.824228	-0.309033	-0.000037
1653	1.6437e+02	-7.0912	-152.894405	0.000324	3.243073	0.549391	0.000065
1654	1.6447e+02	-7.0715	-152.902479	-0.000041	-0.405384	-0.068674	-0.000008
1655	1.6457e+02	-7.0517	-152.878256	0.000122	1.216152	0.206022	0.000024
1656	1.6467e+02	-7.0322	-152.833848	0.000223	2.229613	0.377707	0.000045
1657	1.6477e+02	-7.0123	-152.789439	0.000223	2.229613	0.377707	0.000045
1658	1.6487e+02	-6.9922	-152.789439	0.000000	0.000000	0.000000	0.000000
1659	1.6497e+02	-6.9727	-152.732919	0.000284	2.837689	0.480717	0.000057
1660	1.6507e+02	-6.9516	-152.720808	0.000061	0.608076	0.103011	0.000012
1661	1.6517e+02	-6.9321	-152.676399	0.000223	2.229613	0.377707	0.000045
1662	1.6527e+02	-6.9113	-152.631991	0.000223	2.229613	0.377707	0.000045
1663	1.6537e+02	-6.8915	-152.619879	0.000061	0.608076	0.103011	0.000012
1664	1.6547e+02	-6.8723	-152.607768	0.000061	0.608076	0.103011	0.000012
1665	1.6557e+02	-6.8523	-152.527025	0.000405	4.053841	0.686739	0.000081
1666	1.6567e+02	-6.8325	-152.543174	-0.000081	-0.810768	-0.137348	-0.000016
1667	1.6577e+02	-6.8129	-152.430134	0.000568	5.675377	0.961435	0.000114
1668	1.6587e+02	-6.7931	-152.393800	0.000182	1.824228	0.309033	0.000037
1669	1.6597e+02	-6.7728	-152.313057	0.000405	4.053841	0.686739	0.000081
1670	1.6607e+02	-6.7528	-152.276723	0.000182	1.824228	0.309033	0.000037
1671	1.6616e+02	-6.7331	-152.260574	0.000081	0.810768	0.137348	0.000016
1672	1.6626e+02	-6.7126	-152.248463	0.000061	0.608076	0.103011	0.000012
1673	1.6636e+02	-6.6929	-152.135423	0.000568	5.675377	0.961435	0.000114
1674	1.6646e+02	-6.6736	-152.123312	0.000061	0.608076	0.103011	0.000012
1675	1.6656e+02	-6.6519	-152.030458	0.000466	4.661917	0.789750	0.000093
1676	1.6666e+02	-6.6327	-151.953752	0.000385	3.851149	0.652402	0.000077
1677	1.6676e+02	-6.6133	-151.921455	0.000162	1.621536	0.274696	0.000032
1678	1.6686e+02	-6.5935	-151.873009	0.000243	2.432305	0.412044	0.000049
1679	1.6696e+02	-6.5733	-151.796304	0.000385	3.851149	0.652402	0.000077
1680	1.6706e+02	-6.5543	-151.727672	0.000345	3.445765	0.583728	0.000069
1681	1.6716e+02	-6.5327	-151.679227	0.000243	2.432305	0.412044	0.000049
1682	1.6726e+02	-6.5140	-151.634818	0.000223	2.229613	0.377707	0.000045
1683	1.6736e+02	-6.4938	-151.562150	0.000365	3.648457	0.618065	0.000073
1684	1.6746e+02	-6.4736	-151.473333	0.000446	4.459225	0.755413	0.000089
1685	1.6756e+02	-6.4542	-151.380479	0.000466	4.661917	0.789750	0.000093
1686	1.6766e+02	-6.4337	-151.307810	0.000365	3.648457	0.618065	0.000073
1687	1.6776e+02	-6.4139	-151.259365	0.000243	2.432305	0.412044	0.000049
1688	1.6786e+02	-6.3943	-151.162473	0.000486	4.864609	0.824087	0.000097
1689	1.6796e+02	-6.3744	-151.138251	0.000122	1.216152	0.206022	0.000024
1690	1.6806e+02	-6.3545	-151.033285	0.000527	5.269993	0.892761	0.000105
1691	1.6816e+02	-6.3342	-150.960617	0.000365	3.648457	0.618065	0.000073
1692	1.6825e+02	-6.3144	-150.932357	0.000142	1.418844	0.240359	0.000028
1693	1.6835e+02	-6.2939	-150.807205	0.000628	6.283454	1.064446	0.000126
1694	1.6845e+02	-6.2759	-150.762797	0.000223	2.229613	0.377707	0.000045
1695	1.6855e+02	-6.2543	-150.686091	0.000385	3.851149	0.652402	0.000077
1696	1.6865e+02	-6.2355	-150.605349	0.000405	4.053841	0.686739	0.000081
1697	1.6875e+02	-6.2151	-150.520569	0.000426	4.256533	0.721076	0.000085
1698	1.6885e+02	-6.1954	-150.435789	0.000426	4.256533	0.721076	0.000085
1699	1.6895e+02	-6.1755	-150.359083	0.000385	3.851149	0.652402	0.000077
1700	1.6905e+02	-6.1557	-150.262192	0.000486	4.864609	0.824087	0.000097
1701	1.6915e+02	-6.1359	-150.161264	0.000507	5.067301	0.858424	0.000101
1702	1.6925e+02	-6.1150	-150.080521	0.000405	4.053841	0.686739	0.000081
1703	1.6935e+02	-6.0962	-150.028038	0.000263	2.634997	0.446381	0.000053
1704	1.6945e+02	-6.0748	-149.927110	0.000507	5.067301	0.858424	0.000101
1705	1.6955e+02	-6.0602	-149.842330	0.000426	4.256533	0.721076	0.000085
1706	1.6965e+02	-6.0352	-149.745439	0.000486	4.864609	0.824087	0.000097
1707	1.6975e+02	-6.0161	-149.640473	0.000527	5.269993	0.892761	0.000105
1708	1.6985e+02	-5.9966	-149.608176	0.000162	1.621536	0.274696	0.000032
1709	1.6995e+02	-5.9758	-149.515322	0.000466	4.661917	0.789750	0.000093
1710	1.7005e+02	-5.9559	-149.398245	0.000588	5.878069	0.995772	0.000118
1711	1.7015e+02	-5.9357	-149.317502	0.000405	4.053841	0.686739	0.000081
1712	1.7024e+02	-5.9163	-149.216574	0.000507	5.067301	0.858424	0.000101
1713	1.7034e+02	-5.8955	-149.075274	0.000709	7.094222	1.201794	0.000142
1714	1.7044e+02	-5.8765	-149.014717	0.000304	3.040381	0.515054	0.000061
1715	1.7054e+02	-5.8562	-148.938012	0.000385	3.851149	0.652402	0.000077
1716	1.7064e+02	-5.8363	-148.837083	0.000507	5.067301	0.858424	0.000101
1717	1.7074e+02	-5.8162	-148.752303	0.000426	4.256533	0.721076	0.000085
1718	1.7084e+02	-5.7959	-148.659449	0.000466	4.661917	0.789750	0.000093
1719	1.7094e+02	-5.7761	-148.550447	0.000547	5.472685	0.927098	0.000110
1720	1.7104e+02	-5.7564	-148.461630	0.000446	4.459225	0.755413	0.000089
1721	1.7114e+02	-5.7376	-148.328404	0.000669	6.688838	1.133120	0.000134
1722	1.7124e+02	-5.7166	-148.207290	0.000608	6.080761	1.030109	0.000122
1723	1.7134e+02	-5.6966	-148.110399	0.000486	4.864609	0.824087	0.000097
1724	1.7144e+02	-5.6764	-148.017545	0.000466	4.661917	0.789750	0.000093
1725	1.7154e+02	-5.6604	-147.912579	0.000527	5.269993	0.892761	0.000105
1726	1.7164e+02	-5.6369	-147.823762	0.000446	4.459225	0.755413	0.000089
1727	1.7174e+02	-5.6169	-147.730908	0.000466	4.661917	0.789750	0.000093
1728	1.7184e+02	-5.5977	-147.609794	0.000608	6.080761	1.030109	0.000122
1729	1.7194e+02	-5.5774	-147.541163	0.000345	3.445765	0.583728	0.000069
1730	1.7204e+02	-5.5566	-147.436197	0.000527	5.269993	0.892761	0.000105
1731	1.7213e+02	-5.5377	-147.335269	0.000507	5.067301	0.858424	0.000101
1732	1.7223e+02	-5.5173	-147.189932	0.000730	7.296914	1.236131	0.000146
1733	1.7233e+02	-5.4980	-147.084966	0.000527	5.269993	0.892761	0.000105
1734	1.7243e+02	-5.4781	-146.959815	0.000628	6.283454	1.064446	0.000126
1735	1.7253e+02	-5.4582	-146.854850	0.000527	5.269993	0.892761	0.000105
1736	1.7263e+02	-5.4381	-146.786218	0.000345	3.445765	0.583728	0.000069
1737	1.7273e+02	-5.4187	-146.665104	0.000608	6.080761	1.030109	0.000122
1738	1.7283e+02	-5.3988	-146.592436	0.000365	3.648457	0.618065	0.000073
1739	1.7293e+02	-5.3780	-146.463247	0.000649	6.486146	1.098783	0.000130
1740	1.7303e+02	-5.3587	-146.297725	0.000831	8.310374	1.407815	0.000166
1741	1.7313e+02	-5.3387	-146.208908	0.000446	4.459225	0.755413	0.000089
1742	1.7323e+02	-5.3185	-146.079720	0.000649	6.486146	1.098783	0.000130
1743	1.7333e+02	-5.2985	-145.978791	0.000507	5.067301	0.858424	0.000101
1744	1.7343e+02	-5.2785	-145.841529	0.000689	6.891530	1.167457	0.000138
1745	1.7353e+02	-5.2586	-145.764823	0.000385	3.851149	0.652402	0.000077
1746	1.7363e+02	-5.2388	-145.619486	0.000730	7.296914	1.236131	0.000146
1747	1.7373e+02	-5.2182	-145.534706	0.000426	4.256533	0.721076	0.000085
1748	1.7383e+02	-5.1994	-145.377258	0.000790	7.904990	1.339142	0.000158
1749	1.7393e+02	-5.1788	-145.320738	0.000284	2.837689	0.480717	0.000057
1750	1.7403e+02	-5.1596	-145.179438	0.000709	7.094222	1.201794	0.000142
1751	1.7413e+02	-5.1395	-145.050250	0.000649	6.486146	1.098783	0.000130
1752	1.7422e+02	-5.1187	-144.921062	0.000649	6.486146	1.098783	0.000130
1753	1.7432e+02	-5.0995	-144.816096	0.000527	5.269993	0.892761	0.000105
1754	1.7442e+02	-5.0790	-144.694982	0.000608	6.080761	1.030109	0.000122
1755	1.7452e+02	-5.0589	-144.537534	0.000790	7.904990	1.339142	0.000158
1756	1.7462e+02	-5.0350	-144.428531	0.000547	5.472685	0.927098	0.000110
1757	1.7472e+02	-5.0201	-144.343751	0.000426	4.256533	0.721076	0.000085
1758	1.7482e+02	-4.9997	-144.222637	0.000608	6.080761	1.030109	0.000122
1759	1.7492e+02	-4.9792	-144.113634	0.000547	5.472685	0.927098	0.000110
1760	1.7502e+02	-4.9606	-143.972335	0.000709	7.094222	1.201794	0.000142
1761	1.7512e+02	-4.9406	-143.879481	0.000466	4.661917	0.789750	0.000093
1762	1.7522e+02	-4.9203	-143.746255	0.000669	6.688838	1.133120	0.000134
1763	1.7532e+02	-4.8993	-143.621104	0.000628	6.283454	1.064446	0.000126
1764	1.7542e+02	-4.8808	-143.463656	0.000790	7.904990	1.339142	0.000158
1765	1.7552e+02	-4.8595	-143.382913	0.000405	4.053841	0.686739	0.000081
1766	1.7562e+02	-4.8402	-143.221427	0.000811	8.107682	1.373479	0.000162
1767	1.7572e+02	-4.8207	-143.104351	0.000588	5.878069	0.995772	0.000118
1768	1.7582e+02	-4.8001	-142.967088	0.000689	6.891530	1.167457	0.000138
1769	1.7592e+02	-4.7798	-142.882308	0.000426	4.256533	0.721076	0.000085
1770	1.7602e+02	-4.7604	-142.777343	0.000527	5.269993	0.892761	0.000105
1771	1.7612e+02	-4.7412	-142.595671	0.000912	9.121142	1.545163	0.000183
1772	1.7621e+02	-4.7211	-142.482632	0.000568	5.675377	0.961435	0.000114
1773	1.7631e+02	-4.7012	-142.357480	0.000628	6.283454	1.064446	0.000126
1774	1.7641e+02	-4.6807	-142.236366	0.000608	6.080761	1.030109	0.000122
1775	1.7651e+02	-4.6612	-142.111215	0.000628	6.283454	1.064446	0.000126
1776	1.7661e+02	-4.6411	-141.961841	0.000750	7.499606	1.270468	0.000150
1777	1.7671e+02	-4.6223	-141.844764	0.000588	5.878069	0.995772	0.000118
1778	1.7681e+02	-4.6011	-141.711539	0.000669	6.688838	1.133120	0.000134
1779	1.7691e+02	-4.5812	-141.570239	0.000709	7.094222	1.201794	0.000142
1780	1.7701e+02	-4.5616	-141.445088	0.000628	6.283454	1.064446	0.000126
1781	1.7711e+02	-4.5425	-141.340122	0.000527	5.269993	0.892761	0.000105
1782	1.7721e+02	-4.5214	-141.162488	0.000892	8.918450	1.510826	0.000179
1783	1.7731e+02	-4.5014	-141.033300	0.000649	6.486146	1.098783	0.000130
1784	1.7741e+02	-4.4820	-140.855666	0.000892	8.918450	1.510826	0.000179
1785	1.7751e+02	-4.4614	-140.746663	0.000547	5.472685	0.927098	0.000110
1786	1.7761e+02	-4.4408	-140.621512	0.000628	6.283454	1.064446	0.000126
1787	1.7771e+02	-4.4225	-140.488287	0.000669	6.688838	1.133120	0.000134
1788	1.7781e+02	-4.4012	-140.355061	0.000669	6.688838	1.133120	0.000134
1789	1.7791e+02	-4.3819	-140.250096	0.000527	5.269993	0.892761	0.000105
1790	1.7801e+02	-4.3621	-140.120907	0.000649	6.486146	1.098783	0.000130
1791	1.7810e+02	-4.3423	-139.951347	0.000851	8.513066	1.442152	0.000170
1792	1.7820e+02	-4.3224	-139.806011	0.000730	7.296914	1.236131	0.000146
1793	1.7830e+02	-4.3022	-139.688934	0.000588	5.878069	0.995772	0.000118
1794	1.7840e+02	-4.2812	-139.515337	0.000872	8.715758	1.476489	0.000174
1795	1.7850e+02	-4.2627	-139.386148	0.000649	6.486146	1.098783	0.000130
1796	1.7860e+02	-4.2426	-139.244849	0.000709	7.094222	1.201794	0.000142
1797	1.7870e+02	-4.2221	-139.115660	0.000649	6.486146	1.098783	0.000130
1798	1.7880e+02	-4.2029	-139.018769	0.000486	4.864609	0.824087	0.000097
1799	1.7890e+02	-4.1816	-138.849209	0.000851	8.513066	1.442152	0.000170
1800	1.7900e+02	-4.1633	-138.687724	0.000811	8.107682	1.373479	0.000162
1801	1.7910e+02	-4.1441	-138.590833	0.000486	4.864609	0.824087	0.000097
1802	1.7920e+02	-4.1228	-138.441459	0.000750	7.499606	1.270468	0.000150
1803	1.7930e+02	-4.1031	-138.316308	0.000628	6.283454	1.064446	0.000126
1804	1.7940e+02	-4.0828	-138.142711	0.000872	8.715758	1.476489	0.000174
1805	1.7950e+02	-4.0628	-137.989300	0.000770	7.702298	1.304805	0.000154
1806	1.7960e+02	-4.0428	-137.839926	0.000750	7.499606	1.270468	0.000150
1807	1.7970e+02	-4.0230	-137.743034	0.000486	4.864609	0.824087	0.000097
1808	1.7980e+02	-4.0027	-137.581549	0.000811	8.107682	1.373479	0.000162
1809	1.7990e+02	-3.9835	-137.464472	0.000588	5.878069	0.995772	0.000118
1810	1.8000e+02	-3.9652	-137.282801	0.000912	9.121142	1.545163	0.000183
1811	1.8009e+02	-3.9435	-137.125352	0.000790	7.904990	1.339142	0.000158
1812	1.8019e+02	-3.9229	-136.992127	0.000669	6.688838	1.133120	0.000134
1813	1.8029e+02	-3.9041	-136.862939	0.000649	6.486146	1.098783	0.000130
1814	1.8039e+02	-3.8830	-136.697416	0.000831	8.310374	1.407815	0.000166
1815	1.8049e+02	-3.8640	-136.548042	0.000750	7.499606	1.270468	0.000150
1816	1.8059e+02	-3.8441	-136.447114	0.000507	5.067301	0.858424	0.000101
1817	1.8069e+02	-3.8240	-136.261405	0.000932	9.323834	1.579500	0.000187
1818	1.8079e+02	-3.8043	-136.124143	0.000689	6.891530	1.167457	0.000138
1819	1.8089e+02	-3.7835	-135.994954	0.000649	6.486146	1.098783	0.000130
1820	1.8099e+02	-3.7653	-135.801172	0.000973	9.729218	1.648174	0.000195
1821	1.8109e+02	-3.7444	-135.704281	0.000486	4.864609	0.824087	0.000097
1822	1.8119e+02	-3.7244	-135.595278	0.000547	5.472685	0.927098	0.000110
1823	1.8129e+02	-3.7032	-135.361124	0.001176	11.756139	1.991544	0.000235
1824	1.8139e+02	-3.6851	-135.252121	0.000547	5.472685	0.927098	0.000110
1825	1.8149e+02	-3.6649	-135.110822	0.000709	7.094222	1.201794	0.000142
1826	1.8159e+02	-3.6446	-134.937225	0.000872	8.715758	1.476489	0.000174
1827	1.8169e+02	-3.6252	-134.795925	0.000709	7.094222	1.201794	0.000142
1828	1.8179e+02	-3.6046	-134.666737	0.000649	6.486146	1.098783	0.000130
1829	1.8189e+02	-3.5842	-134.464880	0.001013	10.134602	1.716848	0.000203
1830	1.8199e+02	-3.5658	-134.380100	0.000426	4.256533	0.721076	0.000085
1831	1.8209e+02	-3.5449	-134.182281	0.000993	9.931910	1.682511	0.000199
1832	1.8218e+02	-3.5265	-134.117686	0.000324	3.243073	0.549391	0.000065
1833	1.8228e+02	-3.5054	-133.915830	0.001013	10.134602	1.716848	0.000203
1834	1.8238e+02	-3.4862	-133.742233	0.000872	8.715758	1.476489	0.000174
1835	1.8248e+02	-3.4653	-133.596896	0.000730	7.296914	1.236131	0.000146
1836	1.8258e+02	-3.4470	-133.443485	0.000770	7.702298	1.304805	0.000154
1837	1.8268e+02	-3.4259	-133.318333	0.000628	6.283454	1.064446	0.000126
1838	1.8278e+02	-3.4047	-133.189145	0.000649	6.486146	1.098783	0.000130
1839	1.8288e+02	-3.3859	-132.991325	0.000993	9.931910	1.682511	0.000199
1840	1.8298e+02	-3.3662	-132.809654	0.000912	9.121142	1.545163	0.000183
1841	1.8308e+02	-3.3463	-132.696615	0.000568	5.675377	0.961435	0.000114
1842	1.8318e+02	-3.3264	-132.559352	0.000689	6.891530	1.167457	0.000138
1843	1.8328e+02	-3.3058	-132.393829	0.000831	8.310374	1.407815	0.000166
1844	1.8338e+02	-3.2857	-132.224270	0.000851	8.513066	1.442152	0.000170
1845	1.8348e+02	-3.2666	-132.030487	0.000973	9.729218	1.648174	0.000195
1846	1.8358e+02	-3.2463	-131.901299	0.000649	6.486146	1.098783	0.000130
1847	1.8368e+02	-3.2263	-131.715591	0.000932	9.323834	1.579500	0.000187
1848	1.8378e+02	-3.2069	-131.578328	0.000689	6.891530	1.167457	0.000138
1849	1.8388e+02	-3.1871	-131.392620	0.000932	9.323834	1.579500	0.000187
1850	1.8398e+02	-3.1673	-131.271506	0.000608	6.080761	1.030109	0.000122
1851	1.8407e+02	-3.1480	-131.093872	0.000892	8.918450	1.510826	0.000179
1852	1.8417e+02	-3.1277	-130.948535	0.000730	7.296914	1.236131	0.000146
1853	1.8427e+02	-3.1069	-130.799161	0.000750	7.499606	1.270468	0.000150
1854	1.8437e+02	-3.0872	-130.657861	0.000709	7.094222	1.201794	0.000142
1855	1.8447e+02	-3.0670	-130.480227	0.000892	8.918450	1.510826	0.000179
1856	1.8457e+02	-3.0466	-130.286445	0.000973	9.729218	1.648174	0.000195
1857	1.8467e+02	-3.0276	-130.169368	0.000588	5.878069	0.995772	0.000118
1858	1.8477e+02	-3.0077	-130.003845	0.000831	8.310374	1.407815	0.000166
1859	1.8487e+02	-2.9872	-129.878694	0.000628	6.283454	1.064446	0.000126
1860	1.8497e+02	-2.9672	-129.652614	0.001135	11.350755	1.922870	0.000227
1861	1.8507e+02	-2.9470	-129.523426	0.000649	6.486146	1.098783	0.000130
1862	1.8517e+02	-2.9303	-129.365978	0.000790	7.904990	1.339142	0.000158
1863	1.8527e+02	-2.9087	-129.208529	0.000790	7.904990	1.339142	0.000158
1864	1.8537e+02	-2.8873	-129.026858	0.000912	9.121142	1.545163	0.000183
1865	1.8547e+02	-2.8685	-128.873447	0.000770	7.702298	1.304805	0.000154
1866	1.8557e+02	-2.8477	-128.707924	0.000831	8.310374	1.407815	0.000166
1867	1.8567e+02	-2.8270	-128.554513	0.000770	7.702298	1.304805	0.000154
1868	1.8577e+02	-2.8085	-128.417251	0.000689	6.891530	1.167457	0.000138
1869	1.8587e+02	-2.7882	-128.267877	0.000750	7.499606	1.270468	0.000150
1870	1.8597e+02	-2.7683	-128.074094	0.000973	9.729218	1.648174	0.000195
1871	1.8606e+02	-2.7483	-127.912609	0.000811	8.107682	1.373479	0.000162
1872	1.8616e+02	-2.7282	-127.775346	0.000689	6.891530	1.167457	0.000138
1873	1.8626e+02	-2.7075	-127.621935	0.000770	7.702298	1.304805	0.000154
1874	1.8636e+02	-2.6874	-127.420078	0.001013	10.134602	1.716848	0.000203
1875	1.8646e+02	-2.6669	-127.274741	0.000730	7.296914	1.236131	0.000146
1876	1.8656e+02	-2.6494	-127.084996	0.000953	9.526526	1.613837	0.000191
1877	1.8666e+02	-2.6285	-126.927548	0.000790	7.904990	1.339142	0.000158
1878	1.8676e+02	-2.6085	-126.770099	0.000790	7.904990	1.339142	0.000158
1879	1.8686e+02	-2.5877	-126.580354	0.000953	9.526526	1.613837	0.000191
1880	1.8696e+02	-2.5685	-126.410794	0.000851	8.513066	1.442152	0.000170
1881	1.8706e+02	-2.5490	-126.277569	0.000669	6.688838	1.133120	0.000134
1882	1.8716e+02	-2.5291	-126.091861	0.000932	9.323834	1.579500	0.000187
1883	1.8726e+02	-2.5090	-125.918264	0.000872	8.715758	1.476489	0.000174
1884	1.8736e+02	-2.4903	-125.776964	0.000709	7.094222	1.201794	0.000142
1885	1.8746e+02	-2.4701	-125.595293	0.000912	9.121142	1.545163	0.000183
1886	1.8756e+02	-2.4487	-125.441882	0.000770	7.702298	1.304805	0.000154
1887	1.8766e+02	-2.4304	-125.296545	0.000730	7.296914	1.236131	0.000146
1888	1.8776e+02	-2.4097	-125.086614	0.001054	10.539987	1.785522	0.000211
1889	1.8786e+02	-2.3899	-124.925128	0.000811	8.107682	1.373479	0.000162
1890	1.8796e+02	-2.3700	-124.771717	0.000770	7.702298	1.304805	0.000154
1891	1.8806e+02	-2.3483	-124.594083	0.000892	8.918450	1.510826	0.000179
1892	1.8815e+02	-2.3306	-124.420486	0.000872	8.715758	1.476489	0.000174
1893	1.8825e+02	-2.3105	-124.246889	0.000872	8.715758	1.476489	0.000174
1894	1.8835e+02	-2.2906	-124.097515	0.000750	7.499606	1.270468	0.000150
1895	1.8845e+02	-2.2704	-123.931993	0.000831	8.310374	1.407815	0.000166
1896	1.8855e+02	-2.2501	-123.722062	0.001054	10.539987	1.785522	0.000211
1897	1.8865e+02	-2.2308	-123.548465	0.000872	8.715758	1.476489	0.000174
1898	1.8875e+02	-2.2105	-123.403128	0.000730	7.296914	1.236131	0.000146
1899	1.8885e+02	-2.1903	-123.229531	0.000872	8.715758	1.476489	0.000174
1900	1.8895e+02	-2.1704	-123.051897	0.000892	8.918450	1.510826	0.000179
1901	1.8905e+02	-2.1501	-122.846003	0.001034	10.337295	1.751185	0.000207
1902	1.8915e+02	-2.1317	-122.708741	0.000689	6.891530	1.167457	0.000138
1903	1.8925e+02	-2.1111	-122.543218	0.000831	8.310374	1.407815	0.000166
1904	1.8935e+02	-2.0901	-122.341361	0.001013	10.134602	1.716848	0.000203
1905	1.8945e+02	-2.0705	-122.204099	0.000689	6.891530	1.167457	0.000138
1906	1.8955e+02	-2.0506	-122.038576	0.000831	8.310374	1.407815	0.000166
1907	1.8965e+02	-2.0318	-121.832682	0.001034	10.337295	1.751185	0.000207
1908	1.8975e+02	-2.0109	-121.663123	0.000851	8.513066	1.442152	0.000170
1909	1.8985e+02	-1.9910	-121.517786	0.000730	7.296914	1.236131	0.000146
1910	1.8995e+02	-1.9719	-121.295743	0.001115	11.148063	1.888533	0.000223
1911	1.9004e+02	-1.9521	-121.101961	0.000973	9.729218	1.648174	0.000195
1912	1.9014e+02	-1.9313	-120.972772	0.000649	6.486146	1.098783	0.000130
1913	1.9024e+02	-1.9112	-120.783027	0.000953	9.526526	1.613837	0.000191
1914	1.9034e+02	-1.8918	-120.560985	0.001115	11.148063	1.888533	0.000223
1915	1.9044e+02	-1.8721	-120.399499	0.000811	8.107682	1.373479	0.000162
1916	1.9054e+02	-1.8523	-120.233977	0.000831	8.310374	1.407815	0.000166
1917	1.9064e+02	-1.8324	-120.076528	0.000790	7.904990	1.339142	0.000158
1918	1.9074e+02	-1.8120	-119.850449	0.001135	11.350755	1.922870	0.000227
1919	1.9084e+02	-1.7916	-119.701075	0.000750	7.499606	1.270468	0.000150
1920	1.9094e+02	-1.7720	-119.527478	0.000872	8.715758	1.476489	0.000174
1921	1.9104e+02	-1.7520	-119.329658	0.000993	9.931910	1.682511	0.000199
1922	1.9114e+02	-1.7332	-119.192396	0.000689	6.891530	1.167457	0.000138
1923	1.9124e+02	-1.7127	-118.946130	0.001236	12.364215	2.094555	0.000248
1924	1.9134e+02	-1.6930	-118.792719	0.000770	7.702298	1.304805	0.000154
1925	1.9144e+02	-1.6722	-118.615085	0.000892	8.918450	1.510826	0.000179
1926	1.9154e+02	-1.6525	-118.429377	0.000932	9.323834	1.579500	0.000187
1927	1.9164e+02	-1.6329	-118.275966	0.000770	7.702298	1.304805	0.000154
1928	1.9174e+02	-1.6130	-118.090257	0.000932	9.323834	1.579500	0.000187
1929	1.9184e+02	-1.5936	-117.944921	0.000730	7.296914	1.236131	0.000146
1930	1.9194e+02	-1.5740	-117.726915	0.001095	10.945371	1.854196	0.000219
1931	1.9203e+02	-1.5529	-117.537170	0.000953	9.526526	1.613837	0.000191
1932	1.9213e+02	-1.5327	-117.367610	0.000851	8.513066	1.442152	0.000170
1933	1.9223e+02	-1.5126	-117.165753	0.001013	10.134602	1.716848	0.000203
1934	1.9233e+02	-1.4932	-117.000231	0.000831	8.310374	1.407815	0.000166
1935	1.9243e+02	-1.4729	-116.790300	0.001054	10.539987	1.785522	0.000211
1936	1.9253e+02	-1.4529	-116.624777	0.000831	8.310374	1.407815	0.000166
1937	1.9263e+02	-1.4336	-116.471366	0.000770	7.702298	1.304805	0.000154
1938	1.9273e+02	-1.4136	-116.241249	0.001155	11.553447	1.957207	0.000231
1939	1.9283e+02	-1.3940	-116.095912	0.000730	7.296914	1.236131	0.000146
1940	1.9293e+02	-1.3732	-115.914241	0.000912	9.121142	1.545163	0.000183
1941	1.9303e+02	-1.3543	-115.704310	0.001054	10.539987	1.785522	0.000211
1942	1.9313e+02	-1.3332	-115.498416	0.001034	10.337295	1.751185	0.000207
1943	1.9323e+02	-1.3128	-115.349042	0.000750	7.499606	1.270468	0.000150
1944	1.9333e+02	-1.2930	-115.118926	0.001155	11.553447	1.957207	0.000231
1945	1.9343e+02	-1.2745	-114.937254	0.000912	9.121142	1.545163	0.000183
1946	1.9353e+02	-1.2540	-114.751546	0.000932	9.323834	1.579500	0.000187
1947	1.9363e+02	-1.2338	-114.602172	0.000750	7.499606	1.270468	0.000150
1948	1.9373e+02	-1.2155	-114.376093	0.001135	11.350755	1.922870	0.000227
1949	1.9383e+02	-1.1939	-114.202496	0.000872	8.715758	1.476489	0.000174
1950	1.9393e+02	-1.1747	-114.004676	0.000993	9.931910	1.682511	0.000199
1951	1.9403e+02	-1.1551	-113.818968	0.000932	9.323834	1.579500	0.000187
1952	1.9412e+02	-1.1359	-113.645371	0.000872	8.715758	1.476489	0.000174
1953	1.9422e+02	-1.1150	-113.427366	0.001095	10.945371	1.854196	0.000219
1954	1.9432e+02	-1.0955	-113.237620	0.000953	9.526526	1.613837	0.000191
1955	1.9442e+02	-1.0752	-113.096321	0.000709	7.094222	1.201794	0.000142
1956	1.9452e+02	-1.0560	-112.846018	0.001257	12.566907	2.128892	0.000252
1957	1.9462e+02	-1.0360	-112.696644	0.000750	7.499606	1.270468	0.000150
1958	1.9472e+02	-1.0153	-112.502862	0.000973	9.729218	1.648174	0.000195
1959	1.9482e+02	-0.9946	-112.317153	0.000932	9.323834	1.579500	0.000187
1960	1.9492e+02	-0.9754	-112.135482	0.000912	9.121142	1.545163	0.000183
1961	1.9502e+02	-0.9558	-111.905366	0.001155	11.553447	1.957207	0.000231
1962	1.9512e+02	-0.9354	-111.711583	0.000973	9.729218	1.648174	0.000195
1963	1.9522e+02	-0.9151	-111.554135	0.000790	7.904990	1.339142	0.000158
1964	1.9532e+02	-0.8952	-111.352278	0.001013	10.134602	1.716848	0.000203
1965	1.9542e+02	-0.8765	-111.166570	0.000932	9.323834	1.579500	0.000187
1966	1.9552e+02	-0.8559	-110.984899	0.000912	9.121142	1.545163	0.000183
1967	1.9562e+02	-0.8367	-110.779005	0.001034	10.337295	1.751185	0.000207
1968	1.9572e+02	-0.8160	-110.601371	0.000892	8.918450	1.510826	0.000179
1969	1.9582e+02	-0.7958	-110.379328	0.001115	11.148063	1.888533	0.000223
1970	1.9592e+02	-0.7767	-110.185546	0.000973	9.729218	1.648174	0.000195
1971	1.9601e+02	-0.7562	-109.995800	0.000953	9.526526	1.613837	0.000191
1972	1.9611e+02	-0.7352	-109.802018	0.000973	9.729218	1.648174	0.000195
1973	1.9621e+02	-0.7170	-109.644570	0.000790	7.904990	1.339142	0.000158
1974	1.9631e+02	-0.6960	-109.378119	0.001338	13.377675	2.266240	0.000268
1975	1.9641e+02	-0.6773	-109.208559	0.000851	8.513066	1.442152	0.000170
1976	1.9651e+02	-0.6564	-108.990554	0.001095	10.945371	1.854196	0.000219
1977	1.9661e+02	-0.6362	-108.825031	0.000831	8.310374	1.407815	0.000166
1978	1.9671e+02	-0.6169	-108.663546	0.000811	8.107682	1.373479	0.000162
1979	1.9681e+02	-0.5965	-108.421317	0.001216	12.161523	2.060218	0.000243
1980	1.9691e+02	-0.5766	-108.235609	0.000932	9.323834	1.579500	0.000187
1981	1.9701e+02	-0.5563	-108.025678	0.001054	10.539987	1.785522	0.000211
1982	1.9711e+02	-0.5374	-107.864193	0.000811	8.107682	1.373479	0.000162
1983	1.9721e+02	-0.5171	-107.670410	0.000973	9.729218	1.648174	0.000195
1984	1.9731e+02	-0.4969	-107.480665	0.000953	9.526526	1.613837	0.000191
1985	1.9741e+02	-0.4775	-107.226325	0.001277	12.769599	2.163229	0.000256
1986	1.9751e+02	-0.4578	-107.044654	0.000912	9.121142	1.545163	0.000183
1987	1.9761e+02	-0.4380	-106.834723	0.001054	10.539987	1.785522	0.000211
1988	1.9771e+02	-0.4174	-106.697460	0.000689	6.891530	1.167457	0.000138
1989	1.9781e+02	-0.3976	-106.503678	0.000973	9.729218	1.648174	0.000195
1990	1.9791e+02	-0.3779	-106.249338	0.001277	12.769599	2.163229	0.000256
1991	1.9800e+02	-0.3581	-106.083816	0.000831	8.310374	1.407815	0.000166
1992	1.9810e+02	-0.3384	-105.890033	0.000973	9.729218	1.648174	0.000195
1993	1.9820e+02	-0.3185	-105.659917	0.001155	11.553447	1.957207	0.000231
1994	1.9830e+02	-0.2981	-105.506505	0.000770	7.702298	1.304805	0.000154
1995	1.9840e+02	-0.2774	-105.272352	0.001176	11.756139	1.991544	0.000235
1996	1.9850e+02	-0.2573	-105.102792	0.000851	8.513066	1.442152	0.000170
1997	1.9860e+02	-0.2386	-104.868638	0.001176	11.756139	1.991544	0.000235
1998	1.9870e+02	-0.2176	-104.731375	0.000689	6.891530	1.167457	0.000138
1999	1.9880e+02	-0.1989	-104.505296	0.001135	11.350755	1.922870	0.000227
2000	1.9890e+02	-0.1778	-104.303439	0.001013	10.134602	1.716848	0.000203
2001	1.9900e+02	-0.1591	-104.133879	0.000851	8.513066	1.442152	0.000170
2002	1.9910e+02	-0.1392	-103.915874	0.001095	10.945371	1.854196	0.000219
2003	1.9920e+02	-0.1189	-103.738240	0.000892	8.918450	1.510826	0.000179
2004	1.9930e+02	-0.0998	-103.491975	0.001236	12.364215	2.094555	0.000248
2005	1.9940e+02	-0.0788	-103.290118	0.001013	10.134602	1.716848	0.000203
2006	1.9950e+02	-0.0589	-103.120558	0.000851	8.513066	1.442152	0.000170
2007	1.9960e+02	-0.0394	-102.894479	0.001135	11.350755	1.922870	0.000227
2008	1.9970e+02	-0.0192	-102.672436	0.001115	11.148063	1.888533	0.000223
2009	1.9980e+02	-0.0005	-102.519025	0.001115	11.148063	1.888533	0.000154

PMax (uC/cm2):	8.20e+01
Pr (uC/cm2):	1.66e+01
-Pr (uC/cm2):	-1.74e+02
PLoss (uC/cm2):	-1.74e+02
-Vc:	-1.66e+00
C (Max-Eff) (nF):	8.20e-01
K (Eff):	1.39e+03
Vert. (+/-Pr) Shift (uC/cm2):	-7.85e+01
Offset (uC/cm2):	-7.11e+01

A (Loop Area - uC/cm2·Volts):	-2.01e+00



Hysteresis Version: 5.48.1 - Radiant Technologies, Inc., 1999 - 9/12/24

