»»»»»»»»»»»»»»»»»»»»»»»»»»»»»»»»»»»» Hysteresis ««««««««««««««««««««««««««««««««««««
»»»  Executed Version:	5.48.1
»»»  Vision Version:	5.48.4 (R)
»»»  Vision Compiled:	9/18/24
»»»  Driver Version:	5.47.0
»»»  Windows Version:	Windows 8 or 8.1
»»»  Processor Information:	x86 (AMD or Intel) - 32 Processors
»»»  Tester Name:	PMF21124-494 (100V)
»»»  Tester S/N:	PMF21124-494
»»»  Internal Amp Type:	100V RevK 270k
»»»  Internal Amp S/N:	iAB2-596/K     
»»»  Execution Count:	1
»»»»»»»»»»»»»»»»»»»»»»»»»»»»»»»»»»»»»»»»»»««««««««««««««««««««««««««««««««««««««««««

Stored:	7/2/2025 - 17:44:22
Configured:	07/02/25 01:35:59 PM
Executed:	07/02/25 05:43:43 PM

»»»»»»»»»»»»»»»»»»»»»»»»»»»»»»»»»»» Sample Info ««««««««««««««««««««««««««««««««««««
Sample Name:	
Lot Name:	
Wafer Name:	
Die Row/Column:	0/0
Capacitor Number:	0
Sample Area (cm2):	1.00e-04
Sample Thickness (microns):	1.50e-01

Amplifier:	Internal

»»»»»»»»»»»»»»»»»»»»»»»»»»»»»»»»»»» Tester Info «««««««««««««««««««««««««««««««««««
Tester Name:	PMF21124-494 (100V)
Tester Serial Number:	PMF21124-494
Return Signal Amp. Level:	0.19 [Index: 3]

»»»»»»»»»»»»»»»»»»»»»»»»»»»»»»»» Hysteresis Info ««««««««««««««««««««««««««««««««««
Task Name:	Hyst-220
Volts:	10.00
Field:	666.67 (kV/cm)
DCBias:	0.00
DCField:	0.00 (kV/cm)
Hysteresis Period (ms):	2.00e+02
Preset:	Enabled
Preset Delay (ms):	1.00e+03
Profile:	Standard Bipolar

»»»»»»»»»»»»»»»»»»»»»»»»»»»»»»»»»»»»»» Data «««««««««««««««««««««««««««««««««««««««
Points:	2009

Valid Data

Point	Time (ms)	Drive Voltage	Measured Polarization (uC/cm2)	Capacitance (uF)	Normalized Capacitance (uF/cm2)	Dielectric Constant	Instantaneous Current (mA)
   1	0.0000e+00	-0.0008	35.987028	0.000446	4.459855	0.755520	0.000089
   2	9.9500e-02	0.0189	36.075845	0.000446	4.459855	0.755520	0.000089
   3	1.9900e-01	0.0386	36.196959	0.000608	6.081620	1.030254	0.000122
   4	2.9850e-01	0.0596	36.261553	0.000324	3.243531	0.549469	0.000065
   5	3.9800e-01	0.0790	36.431113	0.000851	8.514268	1.442356	0.000170
   6	4.9750e-01	0.0983	36.536078	0.000527	5.270737	0.892887	0.000105
   7	5.9700e-01	0.1183	36.665267	0.000649	6.487061	1.098938	0.000130
   8	6.9650e-01	0.1376	36.762158	0.000487	4.865296	0.824203	0.000097
   9	7.9600e-01	0.1584	36.830789	0.000345	3.446251	0.583811	0.000069
  10	8.9550e-01	0.1784	36.976126	0.000730	7.297944	1.236305	0.000146
  11	9.9500e-01	0.1987	37.077055	0.000507	5.068017	0.858545	0.000101
  12	1.0945e+00	0.2180	37.186057	0.000547	5.473458	0.927229	0.000110
  13	1.1940e+00	0.2392	37.331394	0.000730	7.297944	1.236305	0.000146
  14	1.2935e+00	0.2583	37.424248	0.000466	4.662575	0.789862	0.000093
  15	1.3930e+00	0.2782	37.561511	0.000689	6.892503	1.167622	0.000138
  16	1.4925e+00	0.2982	37.634179	0.000365	3.648972	0.618153	0.000073
  17	1.5920e+00	0.3183	37.791628	0.000791	7.906106	1.339331	0.000158
  18	1.6915e+00	0.3383	37.876407	0.000426	4.257134	0.721178	0.000085
  19	1.7910e+00	0.3574	37.965224	0.000446	4.459855	0.755520	0.000089
  20	1.8905e+00	0.3767	38.082301	0.000588	5.878899	0.995913	0.000118
  21	1.9900e+00	0.3978	38.199378	0.000588	5.878899	0.995913	0.000118
  22	2.0895e+00	0.4171	38.324530	0.000628	6.284341	1.064596	0.000126
  23	2.1890e+00	0.4376	38.413347	0.000446	4.459855	0.755520	0.000089
  24	2.2885e+00	0.4569	38.542535	0.000649	6.487061	1.098938	0.000130
  25	2.3880e+00	0.4781	38.639426	0.000487	4.865296	0.824203	0.000097
  26	2.4875e+00	0.4973	38.776689	0.000689	6.892503	1.167622	0.000138
  27	2.5870e+00	0.5167	38.877617	0.000507	5.068017	0.858545	0.000101
  28	2.6865e+00	0.5370	39.002768	0.000628	6.284341	1.064596	0.000126
  29	2.7860e+00	0.5571	39.083511	0.000405	4.054413	0.686836	0.000081
  30	2.8855e+00	0.5767	39.220774	0.000689	6.892503	1.167622	0.000138
  31	2.9850e+00	0.5960	39.366111	0.000730	7.297944	1.236305	0.000146
  32	3.0845e+00	0.6174	39.450890	0.000426	4.257134	0.721178	0.000085
  33	3.1840e+00	0.6373	39.555856	0.000527	5.270737	0.892887	0.000105
  34	3.2835e+00	0.6560	39.660821	0.000527	5.270737	0.892887	0.000105
  35	3.3830e+00	0.6763	39.773861	0.000568	5.676179	0.961571	0.000114
  36	3.4825e+00	0.6971	39.899012	0.000628	6.284341	1.064596	0.000126
  37	3.5820e+00	0.7168	40.012052	0.000568	5.676179	0.961571	0.000114
  38	3.6815e+00	0.7357	40.112981	0.000507	5.068017	0.858545	0.000101
  39	3.7810e+00	0.7558	40.242169	0.000649	6.487061	1.098938	0.000130
  40	3.8805e+00	0.7769	40.351172	0.000547	5.473458	0.927229	0.000110
  41	3.9800e+00	0.7962	40.504583	0.000770	7.703385	1.304989	0.000154
  42	4.0795e+00	0.8157	40.593400	0.000446	4.459855	0.755520	0.000089
  43	4.1790e+00	0.8351	40.694328	0.000507	5.068017	0.858545	0.000101
  44	4.2785e+00	0.8566	40.847739	0.000770	7.703385	1.304989	0.000154
  45	4.3780e+00	0.8756	40.976928	0.000649	6.487061	1.098938	0.000130
  46	4.4775e+00	0.8957	41.049596	0.000365	3.648972	0.618153	0.000073
  47	4.5770e+00	0.9156	41.182822	0.000669	6.689782	1.133280	0.000134
  48	4.6765e+00	0.9356	41.312010	0.000649	6.487061	1.098938	0.000130
  49	4.7760e+00	0.9563	41.425050	0.000568	5.676179	0.961571	0.000114
  50	4.8755e+00	0.9759	41.546164	0.000608	6.081620	1.030254	0.000122
  51	4.9750e+00	0.9959	41.687464	0.000710	7.095223	1.201963	0.000142
  52	5.0745e+00	1.0152	41.804541	0.000588	5.878899	0.995913	0.000118
  53	5.1740e+00	1.0355	41.905469	0.000507	5.068017	0.858545	0.000101
  54	5.2735e+00	1.0555	42.038694	0.000669	6.689782	1.133280	0.000134
  55	5.3730e+00	1.0744	42.200180	0.000811	8.108827	1.373672	0.000162
  56	5.4725e+00	1.0954	42.268811	0.000345	3.446251	0.583811	0.000069
  57	5.5720e+00	1.1121	42.406074	0.000689	6.892503	1.167622	0.000138
  58	5.6715e+00	1.1349	42.527188	0.000608	6.081620	1.030254	0.000122
  59	5.7710e+00	1.1544	42.607931	0.000405	4.054413	0.686836	0.000081
  60	5.8705e+00	1.1739	42.753267	0.000730	7.297944	1.236305	0.000146
  61	5.9700e+00	1.1947	42.825936	0.000365	3.648972	0.618153	0.000073
  62	6.0695e+00	1.2151	42.983384	0.000791	7.906106	1.339331	0.000158
  63	6.1690e+00	1.2347	43.108535	0.000628	6.284341	1.064596	0.000126
  64	6.2685e+00	1.2543	43.261947	0.000770	7.703385	1.304989	0.000154
  65	6.3680e+00	1.2745	43.362875	0.000507	5.068017	0.858545	0.000101
  66	6.4675e+00	1.2949	43.504175	0.000710	7.095223	1.201963	0.000142
  67	6.5670e+00	1.3132	43.625289	0.000608	6.081620	1.030254	0.000122
  68	6.6665e+00	1.3338	43.742366	0.000588	5.878899	0.995913	0.000118
  69	6.7660e+00	1.3517	43.883665	0.000710	7.095223	1.201963	0.000142
  70	6.8655e+00	1.3732	43.992668	0.000547	5.473458	0.927229	0.000110
  71	6.9650e+00	1.3938	44.117819	0.000628	6.284341	1.064596	0.000126
  72	7.0645e+00	1.4123	44.238933	0.000608	6.081620	1.030254	0.000122
  73	7.1640e+00	1.4333	44.384270	0.000730	7.297944	1.236305	0.000146
  74	7.2635e+00	1.4526	44.497310	0.000568	5.676179	0.961571	0.000114
  75	7.3630e+00	1.4730	44.626498	0.000649	6.487061	1.098938	0.000130
  76	7.4625e+00	1.4925	44.719353	0.000466	4.662575	0.789862	0.000093
  77	7.5620e+00	1.5138	44.864689	0.000730	7.297944	1.236305	0.000146
  78	7.6615e+00	1.5331	44.993878	0.000649	6.487061	1.098938	0.000130
  79	7.7610e+00	1.5522	45.094806	0.000507	5.068017	0.858545	0.000101
  80	7.8605e+00	1.5734	45.240143	0.000730	7.297944	1.236305	0.000146
  81	7.9600e+00	1.5940	45.369331	0.000649	6.487061	1.098938	0.000130
  82	8.0595e+00	1.6124	45.482371	0.000568	5.676179	0.961571	0.000114
  83	8.1590e+00	1.6327	45.575225	0.000466	4.662575	0.789862	0.000093
  84	8.2585e+00	1.6520	45.736711	0.000811	8.108827	1.373672	0.000162
  85	8.3580e+00	1.6718	45.837639	0.000507	5.068017	0.858545	0.000101
  86	8.4575e+00	1.6931	45.962790	0.000628	6.284341	1.064596	0.000126
  87	8.5570e+00	1.7128	46.120239	0.000791	7.906106	1.339331	0.000158
  88	8.6565e+00	1.7326	46.221167	0.000507	5.068017	0.858545	0.000101
  89	8.7560e+00	1.7522	46.354393	0.000669	6.689782	1.133280	0.000134
  90	8.8555e+00	1.7720	46.487618	0.000669	6.689782	1.133280	0.000134
  91	8.9550e+00	1.7916	46.616806	0.000649	6.487061	1.098938	0.000130
  92	9.0545e+00	1.8119	46.725809	0.000547	5.473458	0.927229	0.000110
  93	9.1540e+00	1.8321	46.859035	0.000669	6.689782	1.133280	0.000134
  94	9.2535e+00	1.8510	46.984186	0.000628	6.284341	1.064596	0.000126
  95	9.3530e+00	1.8711	47.101263	0.000588	5.878899	0.995913	0.000118
  96	9.4525e+00	1.8920	47.234488	0.000669	6.689782	1.133280	0.000134
  97	9.5520e+00	1.9122	47.355602	0.000608	6.081620	1.030254	0.000122
  98	9.6515e+00	1.9312	47.480753	0.000628	6.284341	1.064596	0.000126
  99	9.7510e+00	1.9512	47.630127	0.000750	7.500665	1.270647	0.000150
 100	9.8505e+00	1.9706	47.743167	0.000568	5.676179	0.961571	0.000114
 101	9.9500e+00	1.9918	47.896578	0.000770	7.703385	1.304989	0.000154
 102	1.0050e+01	2.0108	47.997507	0.000507	5.068017	0.858545	0.000101
 103	1.0149e+01	2.0312	48.150918	0.000770	7.703385	1.304989	0.000154
 104	1.0248e+01	2.0515	48.276069	0.000628	6.284341	1.064596	0.000126
 105	1.0348e+01	2.0714	48.393146	0.000588	5.878899	0.995913	0.000118
 106	1.0447e+01	2.0901	48.518297	0.000628	6.284341	1.064596	0.000126
 107	1.0547e+01	2.1112	48.655560	0.000689	6.892503	1.167622	0.000138
 108	1.0646e+01	2.1313	48.825120	0.000851	8.514268	1.442356	0.000170
 109	1.0746e+01	2.1504	48.885677	0.000304	3.040810	0.515127	0.000061
 110	1.0845e+01	2.1706	49.051199	0.000831	8.311547	1.408014	0.000166
 111	1.0945e+01	2.1913	49.196536	0.000730	7.297944	1.236305	0.000146
 112	1.1044e+01	2.2095	49.329762	0.000669	6.689782	1.133280	0.000134
 113	1.1144e+01	2.2305	49.450876	0.000608	6.081620	1.030254	0.000122
 114	1.1243e+01	2.2478	49.571990	0.000608	6.081620	1.030254	0.000122
 115	1.1343e+01	2.2707	49.701178	0.000649	6.487061	1.098938	0.000130
 116	1.1443e+01	2.2897	49.866701	0.000831	8.311547	1.408014	0.000166
 117	1.1542e+01	2.3093	49.975703	0.000547	5.473458	0.927229	0.000110
 118	1.1642e+01	2.3295	50.125077	0.000750	7.500665	1.270647	0.000150
 119	1.1741e+01	2.3489	50.266377	0.000710	7.095223	1.201963	0.000142
 120	1.1841e+01	2.3701	50.351157	0.000426	4.257134	0.721178	0.000085
 121	1.1940e+01	2.3895	50.468234	0.000588	5.878899	0.995913	0.000118
 122	1.2040e+01	2.4097	50.613571	0.000730	7.297944	1.236305	0.000146
 123	1.2139e+01	2.4310	50.791205	0.000892	8.919709	1.511040	0.000179
 124	1.2239e+01	2.4495	50.855799	0.000324	3.243531	0.549469	0.000065
 125	1.2338e+01	2.4693	51.029396	0.000872	8.716989	1.476698	0.000174
 126	1.2438e+01	2.4905	51.150510	0.000608	6.081620	1.030254	0.000122
 127	1.2537e+01	2.5097	51.275661	0.000628	6.284341	1.064596	0.000126
 128	1.2636e+01	2.5288	51.388701	0.000568	5.676179	0.961571	0.000114
 129	1.2736e+01	2.5489	51.530001	0.000710	7.095223	1.201963	0.000142
 130	1.2835e+01	2.5694	51.663226	0.000669	6.689782	1.133280	0.000134
 131	1.2935e+01	2.5854	51.796452	0.000669	6.689782	1.133280	0.000134
 132	1.3034e+01	2.6074	51.893343	0.000487	4.865296	0.824203	0.000097
 133	1.3134e+01	2.6287	52.050791	0.000791	7.906106	1.339331	0.000158
 134	1.3233e+01	2.6488	52.139608	0.000446	4.459855	0.755520	0.000089
 135	1.3333e+01	2.6686	52.284945	0.000730	7.297944	1.236305	0.000146
 136	1.3432e+01	2.6875	52.393948	0.000547	5.473458	0.927229	0.000110
 137	1.3532e+01	2.7097	52.571582	0.000892	8.919709	1.511040	0.000179
 138	1.3632e+01	2.7283	52.708844	0.000689	6.892503	1.167622	0.000138
 139	1.3731e+01	2.7480	52.781513	0.000365	3.648972	0.618153	0.000073
 140	1.3831e+01	2.7682	52.947035	0.000831	8.311547	1.408014	0.000166
 141	1.3930e+01	2.7887	53.096409	0.000750	7.500665	1.270647	0.000150
 142	1.4030e+01	2.8078	53.193300	0.000487	4.865296	0.824203	0.000097
 143	1.4129e+01	2.8276	53.342675	0.000750	7.500665	1.270647	0.000150
 144	1.4229e+01	2.8478	53.459751	0.000588	5.878899	0.995913	0.000118
 145	1.4328e+01	2.8674	53.580866	0.000608	6.081620	1.030254	0.000122
 146	1.4428e+01	2.8880	53.693905	0.000568	5.676179	0.961571	0.000114
 147	1.4527e+01	2.9084	53.859428	0.000831	8.311547	1.408014	0.000166
 148	1.4627e+01	2.9272	53.956319	0.000487	4.865296	0.824203	0.000097
 149	1.4726e+01	2.9470	54.109730	0.000770	7.703385	1.304989	0.000154
 150	1.4825e+01	2.9678	54.218733	0.000547	5.473458	0.927229	0.000110
 151	1.4925e+01	2.9881	54.311587	0.000466	4.662575	0.789862	0.000093
 152	1.5024e+01	3.0072	54.481147	0.000851	8.514268	1.442356	0.000170
 153	1.5124e+01	3.0280	54.590149	0.000547	5.473458	0.927229	0.000110
 154	1.5223e+01	3.0466	54.743561	0.000770	7.703385	1.304989	0.000154
 155	1.5323e+01	3.0674	54.844489	0.000507	5.068017	0.858545	0.000101
 156	1.5422e+01	3.0864	54.961566	0.000588	5.878899	0.995913	0.000118
 157	1.5522e+01	3.1071	55.114977	0.000770	7.703385	1.304989	0.000154
 158	1.5621e+01	3.1274	55.219943	0.000527	5.270737	0.892887	0.000105
 159	1.5721e+01	3.1464	55.361242	0.000710	7.095223	1.201963	0.000142
 160	1.5820e+01	3.1660	55.482356	0.000608	6.081620	1.030254	0.000122
 161	1.5920e+01	3.1875	55.603471	0.000608	6.081620	1.030254	0.000122
 162	1.6020e+01	3.2061	55.740733	0.000689	6.892503	1.167622	0.000138
 163	1.6119e+01	3.2271	55.877996	0.000689	6.892503	1.167622	0.000138
 164	1.6218e+01	3.2462	55.978924	0.000507	5.068017	0.858545	0.000101
 165	1.6318e+01	3.2662	56.112150	0.000669	6.689782	1.133280	0.000134
 166	1.6418e+01	3.2854	56.257487	0.000730	7.297944	1.236305	0.000146
 167	1.6517e+01	3.3059	56.366489	0.000547	5.473458	0.927229	0.000110
 168	1.6616e+01	3.3256	56.507789	0.000710	7.095223	1.201963	0.000142
 169	1.6716e+01	3.3462	56.608717	0.000507	5.068017	0.858545	0.000101
 170	1.6816e+01	3.3654	56.794426	0.000933	9.325151	1.579723	0.000187
 171	1.6915e+01	3.3862	56.927651	0.000669	6.689782	1.133280	0.000134
 172	1.7015e+01	3.4060	57.024542	0.000487	4.865296	0.824203	0.000097
 173	1.7114e+01	3.4258	57.117396	0.000466	4.662575	0.789862	0.000093
 174	1.7213e+01	3.4458	57.270808	0.000770	7.703385	1.304989	0.000154
 175	1.7313e+01	3.4653	57.391922	0.000608	6.081620	1.030254	0.000122
 176	1.7413e+01	3.4853	57.504961	0.000568	5.676179	0.961571	0.000114
 177	1.7512e+01	3.5055	57.666447	0.000811	8.108827	1.373672	0.000162
 178	1.7611e+01	3.5258	57.775450	0.000547	5.473458	0.927229	0.000110
 179	1.7711e+01	3.5448	57.864267	0.000446	4.459855	0.755520	0.000089
 180	1.7811e+01	3.5658	58.025752	0.000811	8.108827	1.373672	0.000162
 181	1.7910e+01	3.5856	58.126680	0.000507	5.068017	0.858545	0.000101
 182	1.8009e+01	3.6042	58.243757	0.000588	5.878899	0.995913	0.000118
 183	1.8109e+01	3.6252	58.376983	0.000669	6.689782	1.133280	0.000134
 184	1.8209e+01	3.6449	58.494060	0.000588	5.878899	0.995913	0.000118
 185	1.8308e+01	3.6648	58.615174	0.000608	6.081620	1.030254	0.000122
 186	1.8407e+01	3.6839	58.744362	0.000649	6.487061	1.098938	0.000130
 187	1.8507e+01	3.7040	58.869513	0.000628	6.284341	1.064596	0.000126
 188	1.8607e+01	3.7253	58.986590	0.000588	5.878899	0.995913	0.000118
 189	1.8706e+01	3.7452	59.107704	0.000608	6.081620	1.030254	0.000122
 190	1.8805e+01	3.7646	59.228818	0.000608	6.081620	1.030254	0.000122
 191	1.8905e+01	3.7843	59.345895	0.000588	5.878899	0.995913	0.000118
 192	1.9005e+01	3.8036	59.471047	0.000628	6.284341	1.064596	0.000126
 193	1.9104e+01	3.8245	59.608309	0.000689	6.892503	1.167622	0.000138
 194	1.9203e+01	3.8428	59.713275	0.000527	5.270737	0.892887	0.000105
 195	1.9303e+01	3.8627	59.818240	0.000527	5.270737	0.892887	0.000105
 196	1.9402e+01	3.8834	59.927243	0.000547	5.473458	0.927229	0.000110
 197	1.9502e+01	3.9044	60.068543	0.000710	7.095223	1.201963	0.000142
 198	1.9602e+01	3.9230	60.209842	0.000710	7.095223	1.201963	0.000142
 199	1.9701e+01	3.9436	60.339031	0.000649	6.487061	1.098938	0.000130
 200	1.9800e+01	3.9639	60.427848	0.000446	4.459855	0.755520	0.000089
 201	1.9900e+01	3.9834	60.516665	0.000446	4.459855	0.755520	0.000089
 202	2.0000e+01	4.0031	60.633742	0.000588	5.878899	0.995913	0.000118
 203	2.0099e+01	4.0234	60.775041	0.000710	7.095223	1.201963	0.000142
 204	2.0198e+01	4.0424	60.847710	0.000365	3.648972	0.618153	0.000073
 205	2.0298e+01	4.0630	60.993047	0.000730	7.297944	1.236305	0.000146
 206	2.0398e+01	4.0832	61.085901	0.000466	4.662575	0.789862	0.000093
 207	2.0497e+01	4.1027	61.227201	0.000710	7.095223	1.201963	0.000142
 208	2.0596e+01	4.1231	61.311980	0.000426	4.257134	0.721178	0.000085
 209	2.0696e+01	4.1433	61.501726	0.000953	9.527871	1.614065	0.000191
 210	2.0796e+01	4.1615	61.590543	0.000446	4.459855	0.755520	0.000089
 211	2.0895e+01	4.1825	61.727805	0.000689	6.892503	1.167622	0.000138
 212	2.0994e+01	4.2025	61.840845	0.000568	5.676179	0.961571	0.000114
 213	2.1094e+01	4.2228	61.949848	0.000547	5.473458	0.927229	0.000110
 214	2.1194e+01	4.2429	62.079036	0.000649	6.487061	1.098938	0.000130
 215	2.1293e+01	4.2620	62.175928	0.000487	4.865296	0.824203	0.000097
 216	2.1392e+01	4.2823	62.284930	0.000547	5.473458	0.927229	0.000110
 217	2.1492e+01	4.3024	62.426230	0.000710	7.095223	1.201963	0.000142
 218	2.1591e+01	4.3224	62.563493	0.000689	6.892503	1.167622	0.000138
 219	2.1691e+01	4.3426	62.676532	0.000568	5.676179	0.961571	0.000114
 220	2.1791e+01	4.3612	62.773424	0.000487	4.865296	0.824203	0.000097
 221	2.1890e+01	4.3821	62.906649	0.000669	6.689782	1.133280	0.000134
 222	2.1989e+01	4.4024	63.068134	0.000811	8.108827	1.373672	0.000162
 223	2.2089e+01	4.4215	63.128692	0.000304	3.040810	0.515127	0.000061
 224	2.2189e+01	4.4408	63.257880	0.000649	6.487061	1.098938	0.000130
 225	2.2288e+01	4.4607	63.334585	0.000385	3.851693	0.652494	0.000077
 226	2.2387e+01	4.4816	63.504145	0.000851	8.514268	1.442356	0.000170
 227	2.2487e+01	4.5004	63.633334	0.000649	6.487061	1.098938	0.000130
 228	2.2587e+01	4.5206	63.746373	0.000568	5.676179	0.961571	0.000114
 229	2.2686e+01	4.5409	63.819042	0.000365	3.648972	0.618153	0.000073
 230	2.2785e+01	4.5609	63.960341	0.000710	7.095223	1.201963	0.000142
 231	2.2885e+01	4.5812	64.057233	0.000487	4.865296	0.824203	0.000097
 232	2.2985e+01	4.6009	64.202570	0.000730	7.297944	1.236305	0.000146
 233	2.3084e+01	4.6210	64.291387	0.000446	4.459855	0.755520	0.000089
 234	2.3183e+01	4.6412	64.424612	0.000669	6.689782	1.133280	0.000134
 235	2.3283e+01	4.6603	64.533615	0.000547	5.473458	0.927229	0.000110
 236	2.3383e+01	4.6807	64.666840	0.000669	6.689782	1.133280	0.000134
 237	2.3482e+01	4.7008	64.731434	0.000324	3.243531	0.549469	0.000065
 238	2.3581e+01	4.7205	64.856586	0.000628	6.284341	1.064596	0.000126
 239	2.3681e+01	4.7401	64.977700	0.000608	6.081620	1.030254	0.000122
 240	2.3780e+01	4.7602	65.110925	0.000669	6.689782	1.133280	0.000134
 241	2.3880e+01	4.7799	65.219928	0.000547	5.473458	0.927229	0.000110
 242	2.3980e+01	4.7995	65.320856	0.000507	5.068017	0.858545	0.000101
 243	2.4079e+01	4.8204	65.441970	0.000608	6.081620	1.030254	0.000122
 244	2.4178e+01	4.8400	65.599419	0.000791	7.906106	1.339331	0.000158
 245	2.4278e+01	4.8608	65.700347	0.000507	5.068017	0.858545	0.000101
 246	2.4378e+01	4.8792	65.781090	0.000405	4.054413	0.686836	0.000081
 247	2.4477e+01	4.8992	65.873944	0.000466	4.662575	0.789862	0.000093
 248	2.4576e+01	4.9186	66.023318	0.000750	7.500665	1.270647	0.000150
 249	2.4676e+01	4.9390	66.136358	0.000568	5.676179	0.961571	0.000114
 250	2.4776e+01	4.9593	66.233249	0.000487	4.865296	0.824203	0.000097
 251	2.4875e+01	4.9783	66.358400	0.000628	6.284341	1.064596	0.000126
 252	2.4974e+01	5.0002	66.463366	0.000527	5.270737	0.892887	0.000105
 253	2.5074e+01	5.0195	66.600628	0.000689	6.892503	1.167622	0.000138
 254	2.5174e+01	5.0402	66.685408	0.000426	4.257134	0.721178	0.000085
 255	2.5273e+01	5.0591	66.798448	0.000568	5.676179	0.961571	0.000114
 256	2.5372e+01	5.0781	66.907451	0.000547	5.473458	0.927229	0.000110
 257	2.5472e+01	5.1003	67.024528	0.000588	5.878899	0.995913	0.000118
 258	2.5572e+01	5.1185	67.141604	0.000588	5.878899	0.995913	0.000118
 259	2.5671e+01	5.1385	67.274830	0.000669	6.689782	1.133280	0.000134
 260	2.5770e+01	5.1589	67.387870	0.000568	5.676179	0.961571	0.000114
 261	2.5870e+01	5.1786	67.488798	0.000507	5.068017	0.858545	0.000101
 262	2.5970e+01	5.1989	67.597801	0.000547	5.473458	0.927229	0.000110
 263	2.6069e+01	5.2172	67.702766	0.000527	5.270737	0.892887	0.000105
 264	2.6169e+01	5.2382	67.852140	0.000750	7.500665	1.270647	0.000150
 265	2.6268e+01	5.2586	67.957106	0.000527	5.270737	0.892887	0.000105
 266	2.6367e+01	5.2776	68.053997	0.000487	4.865296	0.824203	0.000097
 267	2.6467e+01	5.2979	68.114554	0.000304	3.040810	0.515127	0.000061
 268	2.6567e+01	5.3179	68.263928	0.000750	7.500665	1.270647	0.000150
 269	2.6666e+01	5.3382	68.376968	0.000568	5.676179	0.961571	0.000114
 270	2.6765e+01	5.3579	68.457711	0.000405	4.054413	0.686836	0.000081
 271	2.6865e+01	5.3776	68.619196	0.000811	8.108827	1.373672	0.000162
 272	2.6965e+01	5.3967	68.732236	0.000568	5.676179	0.961571	0.000114
 273	2.7064e+01	5.4173	68.857387	0.000628	6.284341	1.064596	0.000126
 274	2.7163e+01	5.4374	68.962353	0.000527	5.270737	0.892887	0.000105
 275	2.7263e+01	5.4571	69.055207	0.000466	4.662575	0.789862	0.000093
 276	2.7363e+01	5.4774	69.188432	0.000669	6.689782	1.133280	0.000134
 277	2.7462e+01	5.4977	69.293398	0.000527	5.270737	0.892887	0.000105
 278	2.7561e+01	5.5166	69.386252	0.000466	4.662575	0.789862	0.000093
 279	2.7661e+01	5.5373	69.539663	0.000770	7.703385	1.304989	0.000154
 280	2.7761e+01	5.5561	69.640591	0.000507	5.068017	0.858545	0.000101
 281	2.7860e+01	5.5776	69.745557	0.000527	5.270737	0.892887	0.000105
 282	2.7959e+01	5.5970	69.850523	0.000527	5.270737	0.892887	0.000105
 283	2.8059e+01	5.6167	70.007971	0.000791	7.906106	1.339331	0.000158
 284	2.8159e+01	5.6371	70.052379	0.000223	2.229927	0.377760	0.000045
 285	2.8258e+01	5.6567	70.205790	0.000770	7.703385	1.304989	0.000154
 286	2.8358e+01	5.6760	70.322867	0.000588	5.878899	0.995913	0.000118
 287	2.8457e+01	5.6962	70.448019	0.000628	6.284341	1.064596	0.000126
 288	2.8556e+01	5.7159	70.544910	0.000487	4.865296	0.824203	0.000097
 289	2.8656e+01	5.7355	70.653913	0.000547	5.473458	0.927229	0.000110
 290	2.8756e+01	5.7558	70.742730	0.000446	4.459855	0.755520	0.000089
 291	2.8855e+01	5.7752	70.863844	0.000608	6.081620	1.030254	0.000122
 292	2.8954e+01	5.7964	70.976883	0.000568	5.676179	0.961571	0.000114
 293	2.9054e+01	5.8157	71.081849	0.000527	5.270737	0.892887	0.000105
 294	2.9154e+01	5.8350	71.202963	0.000608	6.081620	1.030254	0.000122
 295	2.9253e+01	5.8556	71.311966	0.000547	5.473458	0.927229	0.000110
 296	2.9352e+01	5.8755	71.412894	0.000507	5.068017	0.858545	0.000101
 297	2.9452e+01	5.8959	71.521897	0.000547	5.473458	0.927229	0.000110
 298	2.9552e+01	5.9158	71.598602	0.000385	3.851693	0.652494	0.000077
 299	2.9651e+01	5.9359	71.723754	0.000628	6.284341	1.064596	0.000126
 300	2.9750e+01	5.9550	71.856979	0.000669	6.689782	1.133280	0.000134
 301	2.9850e+01	5.9753	71.929647	0.000365	3.648972	0.618153	0.000073
 302	2.9950e+01	5.9965	72.062873	0.000669	6.689782	1.133280	0.000134
 303	3.0049e+01	6.0159	72.139579	0.000385	3.851693	0.652494	0.000077
 304	3.0148e+01	6.0351	72.252618	0.000568	5.676179	0.961571	0.000114
 305	3.0248e+01	6.0548	72.377770	0.000628	6.284341	1.064596	0.000126
 306	3.0348e+01	6.0748	72.458512	0.000405	4.054413	0.686836	0.000081
 307	3.0447e+01	6.0958	72.587701	0.000649	6.487061	1.098938	0.000130
 308	3.0547e+01	6.1146	72.716889	0.000649	6.487061	1.098938	0.000130
 309	3.0646e+01	6.1349	72.813780	0.000487	4.865296	0.824203	0.000097
 310	3.0745e+01	6.1546	72.914709	0.000507	5.068017	0.858545	0.000101
 311	3.0845e+01	6.1745	73.035823	0.000608	6.081620	1.030254	0.000122
 312	3.0945e+01	6.1956	73.160974	0.000628	6.284341	1.064596	0.000126
 313	3.1044e+01	6.2150	73.225568	0.000324	3.243531	0.549469	0.000065
 314	3.1143e+01	6.2347	73.366868	0.000710	7.095223	1.201963	0.000142
 315	3.1243e+01	6.2539	73.475870	0.000547	5.473458	0.927229	0.000110
 316	3.1343e+01	6.2734	73.592947	0.000588	5.878899	0.995913	0.000118
 317	3.1442e+01	6.2949	73.657542	0.000324	3.243531	0.549469	0.000065
 318	3.1541e+01	6.3139	73.790767	0.000669	6.689782	1.133280	0.000134
 319	3.1641e+01	6.3332	73.879584	0.000446	4.459855	0.755520	0.000089
 320	3.1741e+01	6.3528	73.972438	0.000466	4.662575	0.789862	0.000093
 321	3.1840e+01	6.3729	74.101626	0.000649	6.487061	1.098938	0.000130
 322	3.1939e+01	6.3927	74.190443	0.000446	4.459855	0.755520	0.000089
 323	3.2039e+01	6.4126	74.335780	0.000730	7.297944	1.236305	0.000146
 324	3.2139e+01	6.4327	74.420560	0.000426	4.257134	0.721178	0.000085
 325	3.2238e+01	6.4527	74.501303	0.000405	4.054413	0.686836	0.000081
 326	3.2337e+01	6.4722	74.622417	0.000608	6.081620	1.030254	0.000122
 327	3.2437e+01	6.4928	74.739494	0.000588	5.878899	0.995913	0.000118
 328	3.2536e+01	6.5128	74.836385	0.000487	4.865296	0.824203	0.000097
 329	3.2636e+01	6.5330	74.961536	0.000628	6.284341	1.064596	0.000126
 330	3.2736e+01	6.5522	75.070539	0.000547	5.473458	0.927229	0.000110
 331	3.2835e+01	6.5725	75.155319	0.000426	4.257134	0.721178	0.000085
 332	3.2934e+01	6.5916	75.272396	0.000588	5.878899	0.995913	0.000118
 333	3.3034e+01	6.6116	75.365250	0.000466	4.662575	0.789862	0.000093
 334	3.3133e+01	6.6320	75.490401	0.000628	6.284341	1.064596	0.000126
 335	3.3233e+01	6.6526	75.587292	0.000487	4.865296	0.824203	0.000097
 336	3.3333e+01	6.6724	75.680147	0.000466	4.662575	0.789862	0.000093
 337	3.3432e+01	6.6924	75.801261	0.000608	6.081620	1.030254	0.000122
 338	3.3532e+01	6.7117	75.910263	0.000547	5.473458	0.927229	0.000110
 339	3.3631e+01	6.7319	76.023303	0.000568	5.676179	0.961571	0.000114
 340	3.3730e+01	6.7522	76.124231	0.000507	5.068017	0.858545	0.000101
 341	3.3830e+01	6.7715	76.204974	0.000405	4.054413	0.686836	0.000081
 342	3.3929e+01	6.7912	76.334163	0.000649	6.487061	1.098938	0.000130
 343	3.4029e+01	6.8115	76.439128	0.000527	5.270737	0.892887	0.000105
 344	3.4129e+01	6.8316	76.531982	0.000466	4.662575	0.789862	0.000093
 345	3.4228e+01	6.8520	76.653096	0.000608	6.081620	1.030254	0.000122
 346	3.4328e+01	6.8707	76.721728	0.000345	3.446251	0.583811	0.000069
 347	3.4427e+01	6.8917	76.846879	0.000628	6.284341	1.064596	0.000126
 348	3.4526e+01	6.9106	76.939733	0.000466	4.662575	0.789862	0.000093
 349	3.4626e+01	6.9316	77.056810	0.000588	5.878899	0.995913	0.000118
 350	3.4725e+01	6.9500	77.169850	0.000568	5.676179	0.961571	0.000114
 351	3.4825e+01	6.9712	77.230407	0.000304	3.040810	0.515127	0.000061
 352	3.4925e+01	6.9906	77.379781	0.000750	7.500665	1.270647	0.000150
 353	3.5024e+01	7.0100	77.468598	0.000446	4.459855	0.755520	0.000089
 354	3.5123e+01	7.0300	77.577600	0.000547	5.473458	0.927229	0.000110
 355	3.5223e+01	7.0516	77.646232	0.000345	3.446251	0.583811	0.000069
 356	3.5322e+01	7.0704	77.735049	0.000446	4.459855	0.755520	0.000089
 357	3.5422e+01	7.0911	77.848088	0.000568	5.676179	0.961571	0.000114
 358	3.5522e+01	7.1105	77.977277	0.000649	6.487061	1.098938	0.000130
 359	3.5621e+01	7.1304	78.041871	0.000324	3.243531	0.549469	0.000065
 360	3.5721e+01	7.1504	78.179134	0.000689	6.892503	1.167622	0.000138
 361	3.5820e+01	7.1700	78.255839	0.000385	3.851693	0.652494	0.000077
 362	3.5919e+01	7.1897	78.324470	0.000345	3.446251	0.583811	0.000069
 363	3.6019e+01	7.2075	78.457696	0.000669	6.689782	1.133280	0.000134
 364	3.6118e+01	7.2290	78.582847	0.000628	6.284341	1.064596	0.000126
 365	3.6218e+01	7.2485	78.655516	0.000365	3.648972	0.618153	0.000073
 366	3.6318e+01	7.2692	78.772593	0.000588	5.878899	0.995913	0.000118
 367	3.6417e+01	7.2898	78.829112	0.000284	2.838089	0.480785	0.000057
 368	3.6517e+01	7.3087	78.958301	0.000649	6.487061	1.098938	0.000130
 369	3.6616e+01	7.3292	79.030969	0.000365	3.648972	0.618153	0.000073
 370	3.6715e+01	7.3486	79.135935	0.000527	5.270737	0.892887	0.000105
 371	3.6815e+01	7.3695	79.236863	0.000507	5.068017	0.858545	0.000101
 372	3.6914e+01	7.3895	79.337792	0.000507	5.068017	0.858545	0.000101
 373	3.7014e+01	7.4090	79.479091	0.000710	7.095223	1.201963	0.000142
 374	3.7114e+01	7.4293	79.531574	0.000264	2.635369	0.446444	0.000053
 375	3.7213e+01	7.4490	79.620391	0.000446	4.459855	0.755520	0.000089
 376	3.7313e+01	7.4688	79.745542	0.000628	6.284341	1.064596	0.000126
 377	3.7412e+01	7.4893	79.818211	0.000365	3.648972	0.618153	0.000073
 378	3.7511e+01	7.5100	79.923176	0.000527	5.270737	0.892887	0.000105
 379	3.7611e+01	7.5294	80.064476	0.000710	7.095223	1.201963	0.000142
 380	3.7711e+01	7.5488	80.141182	0.000385	3.851693	0.652494	0.000077
 381	3.7810e+01	7.5686	80.229999	0.000446	4.459855	0.755520	0.000089
 382	3.7910e+01	7.5883	80.298630	0.000345	3.446251	0.583811	0.000069
 383	3.8009e+01	7.6088	80.415707	0.000588	5.878899	0.995913	0.000118
 384	3.8108e+01	7.6283	80.520672	0.000527	5.270737	0.892887	0.000105
 385	3.8208e+01	7.6485	80.621601	0.000507	5.068017	0.858545	0.000101
 386	3.8307e+01	7.6673	80.734640	0.000568	5.676179	0.961571	0.000114
 387	3.8407e+01	7.6881	80.803272	0.000345	3.446251	0.583811	0.000069
 388	3.8507e+01	7.7088	80.904200	0.000507	5.068017	0.858545	0.000101
 389	3.8606e+01	7.7282	80.960720	0.000284	2.838089	0.480785	0.000057
 390	3.8706e+01	7.7477	81.093946	0.000669	6.689782	1.133280	0.000134
 391	3.8805e+01	7.7686	81.186800	0.000466	4.662575	0.789862	0.000093
 392	3.8904e+01	7.7877	81.315988	0.000649	6.487061	1.098938	0.000130
 393	3.9004e+01	7.8065	81.412879	0.000487	4.865296	0.824203	0.000097
 394	3.9103e+01	7.8266	81.513808	0.000507	5.068017	0.858545	0.000101
 395	3.9203e+01	7.8464	81.602625	0.000446	4.459855	0.755520	0.000089
 396	3.9303e+01	7.8683	81.663182	0.000304	3.040810	0.515127	0.000061
 397	3.9402e+01	7.8872	81.816593	0.000770	7.703385	1.304989	0.000154
 398	3.9502e+01	7.9073	81.873113	0.000284	2.838089	0.480785	0.000057
 399	3.9601e+01	7.9273	81.974041	0.000507	5.068017	0.858545	0.000101
 400	3.9700e+01	7.9463	82.103230	0.000649	6.487061	1.098938	0.000130
 401	3.9800e+01	7.9660	82.155712	0.000264	2.635369	0.446444	0.000053
 402	3.9900e+01	7.9865	82.256641	0.000507	5.068017	0.858545	0.000101
 403	3.9999e+01	8.0070	82.369680	0.000568	5.676179	0.961571	0.000114
 404	4.0099e+01	8.0267	82.502906	0.000669	6.689782	1.133280	0.000134
 405	4.0198e+01	8.0469	82.575574	0.000365	3.648972	0.618153	0.000073
 406	4.0297e+01	8.0664	82.664391	0.000446	4.459855	0.755520	0.000089
 407	4.0397e+01	8.0863	82.733023	0.000345	3.446251	0.583811	0.000069
 408	4.0496e+01	8.1061	82.846062	0.000568	5.676179	0.961571	0.000114
 409	4.0596e+01	8.1266	82.991399	0.000730	7.297944	1.236305	0.000146
 410	4.0696e+01	8.1458	83.064068	0.000365	3.648972	0.618153	0.000073
 411	4.0795e+01	8.1658	83.152885	0.000446	4.459855	0.755520	0.000089
 412	4.0895e+01	8.1856	83.229590	0.000385	3.851693	0.652494	0.000077
 413	4.0994e+01	8.2053	83.338593	0.000547	5.473458	0.927229	0.000110
 414	4.1093e+01	8.2254	83.455670	0.000588	5.878899	0.995913	0.000118
 415	4.1193e+01	8.2462	83.532376	0.000385	3.851693	0.652494	0.000077
 416	4.1292e+01	8.2648	83.592933	0.000304	3.040810	0.515127	0.000061
 417	4.1392e+01	8.2848	83.726158	0.000669	6.689782	1.133280	0.000134
 418	4.1492e+01	8.3045	83.819012	0.000466	4.662575	0.789862	0.000093
 419	4.1591e+01	8.3242	83.867458	0.000243	2.432648	0.412102	0.000049
 420	4.1691e+01	8.3448	83.972423	0.000527	5.270737	0.892887	0.000105
 421	4.1790e+01	8.3656	84.081426	0.000547	5.473458	0.927229	0.000110
 422	4.1889e+01	8.3861	84.194466	0.000568	5.676179	0.961571	0.000114
 423	4.1989e+01	8.4042	84.279246	0.000426	4.257134	0.721178	0.000085
 424	4.2089e+01	8.4251	84.372100	0.000466	4.662575	0.789862	0.000093
 425	4.2188e+01	8.4449	84.493214	0.000608	6.081620	1.030254	0.000122
 426	4.2288e+01	8.4647	84.565882	0.000365	3.648972	0.618153	0.000073
 427	4.2387e+01	8.4846	84.634514	0.000345	3.446251	0.583811	0.000069
 428	4.2486e+01	8.5043	84.763702	0.000649	6.487061	1.098938	0.000130
 429	4.2586e+01	8.5242	84.848482	0.000426	4.257134	0.721178	0.000085
 430	4.2685e+01	8.5449	84.969596	0.000608	6.081620	1.030254	0.000122
 431	4.2785e+01	8.5639	85.046301	0.000385	3.851693	0.652494	0.000077
 432	4.2885e+01	8.5830	85.159341	0.000568	5.676179	0.961571	0.000114
 433	4.2984e+01	8.6039	85.244121	0.000426	4.257134	0.721178	0.000085
 434	4.3084e+01	8.6249	85.353124	0.000547	5.473458	0.927229	0.000110
 435	4.3183e+01	8.6431	85.421755	0.000345	3.446251	0.583811	0.000069
 436	4.3282e+01	8.6642	85.514609	0.000466	4.662575	0.789862	0.000093
 437	4.3382e+01	8.6835	85.607463	0.000466	4.662575	0.789862	0.000093
 438	4.3481e+01	8.7033	85.708392	0.000507	5.068017	0.858545	0.000101
 439	4.3581e+01	8.7236	85.801246	0.000466	4.662575	0.789862	0.000093
 440	4.3681e+01	8.7432	85.894100	0.000466	4.662575	0.789862	0.000093
 441	4.3780e+01	8.7643	86.003103	0.000547	5.473458	0.927229	0.000110
 442	4.3880e+01	8.7843	86.108068	0.000527	5.270737	0.892887	0.000105
 443	4.3979e+01	8.8037	86.233219	0.000628	6.284341	1.064596	0.000126
 444	4.4078e+01	8.8236	86.309925	0.000385	3.851693	0.652494	0.000077
 445	4.4178e+01	8.8422	86.362408	0.000264	2.635369	0.446444	0.000053
 446	4.4278e+01	8.8629	86.507745	0.000730	7.297944	1.236305	0.000146
 447	4.4377e+01	8.8837	86.592524	0.000426	4.257134	0.721178	0.000085
 448	4.4477e+01	8.9035	86.661156	0.000345	3.446251	0.583811	0.000069
 449	4.4576e+01	8.9223	86.782270	0.000608	6.081620	1.030254	0.000122
 450	4.4675e+01	8.9421	86.915495	0.000669	6.689782	1.133280	0.000134
 451	4.4775e+01	8.9616	86.980089	0.000324	3.243531	0.549469	0.000065
 452	4.4874e+01	8.9819	87.052758	0.000365	3.648972	0.618153	0.000073
 453	4.4974e+01	9.0019	87.173872	0.000608	6.081620	1.030254	0.000122
 454	4.5074e+01	9.0229	87.270763	0.000487	4.865296	0.824203	0.000097
 455	4.5173e+01	9.0417	87.347469	0.000385	3.851693	0.652494	0.000077
 456	4.5273e+01	9.0615	87.484731	0.000689	6.892503	1.167622	0.000138
 457	4.5372e+01	9.0820	87.549326	0.000324	3.243531	0.549469	0.000065
 458	4.5471e+01	9.1016	87.646217	0.000487	4.865296	0.824203	0.000097
 459	4.5571e+01	9.1212	87.751182	0.000527	5.270737	0.892887	0.000105
 460	4.5670e+01	9.1416	87.831925	0.000405	4.054413	0.686836	0.000081
 461	4.5770e+01	9.1608	87.936891	0.000527	5.270737	0.892887	0.000105
 462	4.5870e+01	9.1810	88.041856	0.000527	5.270737	0.892887	0.000105
 463	4.5969e+01	9.2017	88.114525	0.000365	3.648972	0.618153	0.000073
 464	4.6069e+01	9.2207	88.179119	0.000324	3.243531	0.549469	0.000065
 465	4.6168e+01	9.2407	88.324456	0.000730	7.297944	1.236305	0.000146
 466	4.6267e+01	9.2597	88.401161	0.000385	3.851693	0.652494	0.000077
 467	4.6367e+01	9.2802	88.481904	0.000405	4.054413	0.686836	0.000081
 468	4.6467e+01	9.2993	88.615129	0.000669	6.689782	1.133280	0.000134
 469	4.6566e+01	9.3202	88.643389	0.000142	1.419045	0.240393	0.000028
 470	4.6666e+01	9.3408	88.772578	0.000649	6.487061	1.098938	0.000130
 471	4.6765e+01	9.3606	88.877543	0.000527	5.270737	0.892887	0.000105
 472	4.6864e+01	9.3809	88.962323	0.000426	4.257134	0.721178	0.000085
 473	4.6964e+01	9.4009	89.034992	0.000365	3.648972	0.618153	0.000073
 474	4.7063e+01	9.4199	89.143994	0.000547	5.473458	0.927229	0.000110
 475	4.7163e+01	9.4399	89.257034	0.000568	5.676179	0.961571	0.000114
 476	4.7263e+01	9.4599	89.317591	0.000304	3.040810	0.515127	0.000061
 477	4.7362e+01	9.4794	89.426594	0.000547	5.473458	0.927229	0.000110
 478	4.7462e+01	9.4996	89.515411	0.000446	4.459855	0.755520	0.000089
 479	4.7561e+01	9.5203	89.612302	0.000487	4.865296	0.824203	0.000097
 480	4.7660e+01	9.5393	89.684970	0.000365	3.648972	0.618153	0.000073
 481	4.7760e+01	9.5583	89.789936	0.000527	5.270737	0.892887	0.000105
 482	4.7859e+01	9.5801	89.870679	0.000405	4.054413	0.686836	0.000081
 483	4.7959e+01	9.5996	89.971607	0.000507	5.068017	0.858545	0.000101
 484	4.8059e+01	9.6191	90.052350	0.000405	4.054413	0.686836	0.000081
 485	4.8158e+01	9.6400	90.145204	0.000466	4.662575	0.789862	0.000093
 486	4.8258e+01	9.6595	90.254207	0.000547	5.473458	0.927229	0.000110
 487	4.8357e+01	9.6796	90.363209	0.000547	5.473458	0.927229	0.000110
 488	4.8456e+01	9.6994	90.452026	0.000446	4.459855	0.755520	0.000089
 489	4.8556e+01	9.7192	90.528732	0.000385	3.851693	0.652494	0.000077
 490	4.8656e+01	9.7379	90.617549	0.000446	4.459855	0.755520	0.000089
 491	4.8755e+01	9.7584	90.678106	0.000304	3.040810	0.515127	0.000061
 492	4.8855e+01	9.7793	90.807294	0.000649	6.487061	1.098938	0.000130
 493	4.8954e+01	9.7980	90.884000	0.000385	3.851693	0.652494	0.000077
 494	4.9053e+01	9.8181	91.013188	0.000649	6.487061	1.098938	0.000130
 495	4.9153e+01	9.8376	91.110079	0.000487	4.865296	0.824203	0.000097
 496	4.9252e+01	9.8584	91.174674	0.000324	3.243531	0.549469	0.000065
 497	4.9352e+01	9.8780	91.231193	0.000284	2.838089	0.480785	0.000057
 498	4.9452e+01	9.8975	91.364419	0.000669	6.689782	1.133280	0.000134
 499	4.9551e+01	9.9181	91.433050	0.000345	3.446251	0.583811	0.000069
 500	4.9651e+01	9.9387	91.566276	0.000669	6.689782	1.133280	0.000134
 501	4.9750e+01	9.9580	91.659130	0.000466	4.662575	0.789862	0.000093
 502	4.9849e+01	9.9778	91.727761	0.000345	3.446251	0.583811	0.000069
 503	4.9949e+01	9.9952	91.804467	0.000385	3.851693	0.652494	0.000077
 504	5.0048e+01	9.9780	91.820615	-0.000081	-0.810883	-0.137367	0.000016
 505	5.0148e+01	9.9580	91.727761	0.000466	4.662575	0.789862	-0.000093
 506	5.0248e+01	9.9371	91.687390	0.000203	2.027207	0.343418	-0.000041
 507	5.0347e+01	9.9170	91.651056	0.000182	1.824486	0.309076	-0.000037
 508	5.0447e+01	9.8987	91.594536	0.000284	2.838089	0.480785	-0.000057
 509	5.0546e+01	9.8781	91.505719	0.000446	4.459855	0.755520	-0.000089
 510	5.0645e+01	9.8584	91.445162	0.000304	3.040810	0.515127	-0.000061
 511	5.0745e+01	9.8389	91.412865	0.000162	1.621765	0.274734	-0.000032
 512	5.0844e+01	9.8185	91.368456	0.000223	2.229927	0.377760	-0.000045
 513	5.0944e+01	9.7987	91.287713	0.000405	4.054413	0.686836	-0.000081
 514	5.1044e+01	9.7784	91.235231	0.000264	2.635369	0.446444	-0.000053
 515	5.1143e+01	9.7583	91.182748	0.000264	2.635369	0.446444	-0.000053
 516	5.1242e+01	9.7382	91.158525	0.000122	1.216324	0.206051	-0.000024
 517	5.1342e+01	9.7187	91.053559	0.000527	5.270737	0.892887	-0.000105
 518	5.1441e+01	9.6990	91.025299	0.000142	1.419045	0.240393	-0.000028
 519	5.1541e+01	9.6777	90.980891	0.000223	2.229927	0.377760	-0.000045
 520	5.1641e+01	9.6594	90.884000	0.000487	4.865296	0.824203	-0.000097
 521	5.1740e+01	9.6392	90.831517	0.000264	2.635369	0.446444	-0.000053
 522	5.1840e+01	9.6203	90.762886	0.000345	3.446251	0.583811	-0.000069
 523	5.1939e+01	9.5984	90.722514	0.000203	2.027207	0.343418	-0.000041
 524	5.2038e+01	9.5792	90.617549	0.000527	5.270737	0.892887	-0.000105
 525	5.2138e+01	9.5583	90.556992	0.000304	3.040810	0.515127	-0.000061
 526	5.2237e+01	9.5390	90.504509	0.000264	2.635369	0.446444	-0.000053
 527	5.2337e+01	9.5197	90.431841	0.000365	3.648972	0.618153	-0.000073
 528	5.2437e+01	9.5002	90.355135	0.000385	3.851693	0.652494	-0.000077
 529	5.2536e+01	9.4801	90.314764	0.000203	2.027207	0.343418	-0.000041
 530	5.2636e+01	9.4592	90.238058	0.000385	3.851693	0.652494	-0.000077
 531	5.2735e+01	9.4410	90.157315	0.000405	4.054413	0.686836	-0.000081
 532	5.2834e+01	9.4202	90.100795	0.000284	2.838089	0.480785	-0.000057
 533	5.2934e+01	9.3995	89.999867	0.000507	5.068017	0.858545	-0.000101
 534	5.3033e+01	9.3802	89.971607	0.000142	1.419045	0.240393	-0.000028
 535	5.3133e+01	9.3606	89.907013	0.000324	3.243531	0.549469	-0.000065
 536	5.3233e+01	9.3408	89.842419	0.000324	3.243531	0.549469	-0.000065
 537	5.3332e+01	9.3199	89.741490	0.000507	5.068017	0.858545	-0.000101
 538	5.3431e+01	9.3002	89.680933	0.000304	3.040810	0.515127	-0.000061
 539	5.3531e+01	9.2812	89.592116	0.000446	4.459855	0.755520	-0.000089
 540	5.3630e+01	9.2606	89.555782	0.000182	1.824486	0.309076	-0.000037
 541	5.3730e+01	9.2401	89.454854	0.000507	5.068017	0.858545	-0.000101
 542	5.3830e+01	9.2212	89.390260	0.000324	3.243531	0.549469	-0.000065
 543	5.3929e+01	9.2007	89.285294	0.000527	5.270737	0.892887	-0.000105
 544	5.4029e+01	9.1807	89.252997	0.000162	1.621765	0.274734	-0.000032
 545	5.4128e+01	9.1615	89.188403	0.000324	3.243531	0.549469	-0.000065
 546	5.4227e+01	9.1418	89.123809	0.000324	3.243531	0.549469	-0.000065
 547	5.4327e+01	9.1220	89.059214	0.000324	3.243531	0.549469	-0.000065
 548	5.4426e+01	9.1016	88.974435	0.000426	4.257134	0.721178	-0.000085
 549	5.4526e+01	9.0808	88.909840	0.000324	3.243531	0.549469	-0.000065
 550	5.4626e+01	9.0625	88.833135	0.000385	3.851693	0.652494	-0.000077
 551	5.4725e+01	9.0415	88.768541	0.000324	3.243531	0.549469	-0.000065
 552	5.4825e+01	9.0213	88.707984	0.000304	3.040810	0.515127	-0.000061
 553	5.4924e+01	9.0028	88.611092	0.000487	4.865296	0.824203	-0.000097
 554	5.5023e+01	8.9825	88.574758	0.000182	1.824486	0.309076	-0.000037
 555	5.5123e+01	8.9626	88.494015	0.000405	4.054413	0.686836	-0.000081
 556	5.5222e+01	8.9420	88.429421	0.000324	3.243531	0.549469	-0.000065
 557	5.5322e+01	8.9221	88.320419	0.000547	5.473458	0.927229	-0.000110
 558	5.5422e+01	8.9021	88.292159	0.000142	1.419045	0.240393	-0.000028
 559	5.5521e+01	8.8819	88.195267	0.000487	4.865296	0.824203	-0.000097
 560	5.5620e+01	8.8623	88.158933	0.000182	1.824486	0.309076	-0.000037
 561	5.5720e+01	8.8428	88.070116	0.000446	4.459855	0.755520	-0.000089
 562	5.5819e+01	8.8235	87.989373	0.000405	4.054413	0.686836	-0.000081
 563	5.5919e+01	8.8037	87.928816	0.000304	3.040810	0.515127	-0.000061
 564	5.6019e+01	8.7833	87.803665	0.000628	6.284341	1.064596	-0.000126
 565	5.6118e+01	8.7646	87.771368	0.000162	1.621765	0.274734	-0.000032
 566	5.6218e+01	8.7424	87.686588	0.000426	4.257134	0.721178	-0.000085
 567	5.6317e+01	8.7231	87.626031	0.000304	3.040810	0.515127	-0.000061
 568	5.6416e+01	8.7019	87.557400	0.000345	3.446251	0.583811	-0.000069
 569	5.6516e+01	8.6845	87.496843	0.000304	3.040810	0.515127	-0.000061
 570	5.6615e+01	8.6639	87.420137	0.000385	3.851693	0.652494	-0.000077
 571	5.6715e+01	8.6444	87.331320	0.000446	4.459855	0.755520	-0.000089
 572	5.6815e+01	8.6249	87.250578	0.000405	4.054413	0.686836	-0.000081
 573	5.6914e+01	8.6042	87.198095	0.000264	2.635369	0.446444	-0.000053
 574	5.7014e+01	8.5838	87.129463	0.000345	3.446251	0.583811	-0.000069
 575	5.7113e+01	8.5638	87.068906	0.000304	3.040810	0.515127	-0.000061
 576	5.7212e+01	8.5450	86.939718	0.000649	6.487061	1.098938	-0.000130
 577	5.7312e+01	8.5261	86.846864	0.000466	4.662575	0.789862	-0.000093
 578	5.7411e+01	8.5041	86.782270	0.000324	3.243531	0.549469	-0.000065
 579	5.7511e+01	8.4850	86.745936	0.000182	1.824486	0.309076	-0.000037
 580	5.7611e+01	8.4650	86.653081	0.000466	4.662575	0.789862	-0.000093
 581	5.7710e+01	8.4444	86.592524	0.000304	3.040810	0.515127	-0.000061
 582	5.7809e+01	8.4248	86.491596	0.000507	5.068017	0.858545	-0.000101
 583	5.7909e+01	8.4055	86.443150	0.000243	2.432648	0.412102	-0.000049
 584	5.8008e+01	8.3845	86.334148	0.000547	5.473458	0.927229	-0.000110
 585	5.8108e+01	8.3648	86.293776	0.000203	2.027207	0.343418	-0.000041
 586	5.8208e+01	8.3447	86.217071	0.000385	3.851693	0.652494	-0.000077
 587	5.8307e+01	8.3252	86.095957	0.000608	6.081620	1.030254	-0.000122
 588	5.8407e+01	8.3051	86.007140	0.000446	4.459855	0.755520	-0.000089
 589	5.8506e+01	8.2848	85.938508	0.000345	3.446251	0.583811	-0.000069
 590	5.8605e+01	8.2652	85.873914	0.000324	3.243531	0.549469	-0.000065
 591	5.8705e+01	8.2465	85.817394	0.000284	2.838089	0.480785	-0.000057
 592	5.8804e+01	8.2263	85.716466	0.000507	5.068017	0.858545	-0.000101
 593	5.8904e+01	8.2060	85.647835	0.000345	3.446251	0.583811	-0.000069
 594	5.9004e+01	8.1860	85.579203	0.000345	3.446251	0.583811	-0.000069
 595	5.9103e+01	8.1664	85.514609	0.000324	3.243531	0.549469	-0.000065
 596	5.9203e+01	8.1470	85.409644	0.000527	5.270737	0.892887	-0.000105
 597	5.9302e+01	8.1268	85.336975	0.000365	3.648972	0.618153	-0.000073
 598	5.9401e+01	8.1065	85.276418	0.000304	3.040810	0.515127	-0.000061
 599	5.9501e+01	8.0860	85.207787	0.000345	3.446251	0.583811	-0.000069
 600	5.9600e+01	8.0660	85.114933	0.000466	4.662575	0.789862	-0.000093
 601	5.9700e+01	8.0469	85.050339	0.000324	3.243531	0.549469	-0.000065
 602	5.9800e+01	8.0258	84.929225	0.000608	6.081620	1.030254	-0.000122
 603	5.9899e+01	8.0064	84.876742	0.000264	2.635369	0.446444	-0.000053
 604	5.9998e+01	7.9861	84.812148	0.000324	3.243531	0.549469	-0.000065
 605	6.0098e+01	7.9674	84.723331	0.000446	4.459855	0.755520	-0.000089
 606	6.0197e+01	7.9476	84.666811	0.000284	2.838089	0.480785	-0.000057
 607	6.0297e+01	7.9275	84.594142	0.000365	3.648972	0.618153	-0.000073
 608	6.0397e+01	7.9073	84.493214	0.000507	5.068017	0.858545	-0.000101
 609	6.0496e+01	7.8869	84.408434	0.000426	4.257134	0.721178	-0.000085
 610	6.0596e+01	7.8674	84.368063	0.000203	2.027207	0.343418	-0.000041
 611	6.0695e+01	7.8460	84.299431	0.000345	3.446251	0.583811	-0.000069
 612	6.0794e+01	7.8277	84.226763	0.000365	3.648972	0.618153	-0.000073
 613	6.0894e+01	7.8077	84.133909	0.000466	4.662575	0.789862	-0.000093
 614	6.0993e+01	7.7881	84.041055	0.000466	4.662575	0.789862	-0.000093
 615	6.1093e+01	7.7665	83.956275	0.000426	4.257134	0.721178	-0.000085
 616	6.1193e+01	7.7434	83.944163	0.000061	0.608162	0.103025	-0.000012
 617	6.1292e+01	7.7280	83.847272	0.000487	4.865296	0.824203	-0.000097
 618	6.1392e+01	7.7081	83.758455	0.000446	4.459855	0.755520	-0.000089
 619	6.1491e+01	7.6869	83.653490	0.000527	5.270737	0.892887	-0.000105
 620	6.1590e+01	7.6685	83.580821	0.000365	3.648972	0.618153	-0.000073
 621	6.1690e+01	7.6474	83.504116	0.000385	3.851693	0.652494	-0.000077
 622	6.1789e+01	7.6283	83.403187	0.000507	5.068017	0.858545	-0.000101
 623	6.1889e+01	7.6083	83.366853	0.000182	1.824486	0.309076	-0.000037
 624	6.1989e+01	7.5887	83.269962	0.000487	4.865296	0.824203	-0.000097
 625	6.2088e+01	7.5686	83.189219	0.000405	4.054413	0.686836	-0.000081
 626	6.2188e+01	7.5484	83.116551	0.000365	3.648972	0.618153	-0.000073
 627	6.2287e+01	7.5286	83.031771	0.000426	4.257134	0.721178	-0.000085
 628	6.2386e+01	7.5091	82.951028	0.000405	4.054413	0.686836	-0.000081
 629	6.2486e+01	7.4879	82.870285	0.000405	4.054413	0.686836	-0.000081
 630	6.2586e+01	7.4683	82.777431	0.000466	4.662575	0.789862	-0.000093
 631	6.2685e+01	7.4493	82.724948	0.000264	2.635369	0.446444	-0.000053
 632	6.2785e+01	7.4287	82.640169	0.000426	4.257134	0.721178	-0.000085
 633	6.2884e+01	7.4098	82.559426	0.000405	4.054413	0.686836	-0.000081
 634	6.2983e+01	7.3891	82.478683	0.000405	4.054413	0.686836	-0.000081
 635	6.3083e+01	7.3689	82.430237	0.000243	2.432648	0.412102	-0.000049
 636	6.3182e+01	7.3491	82.313161	0.000588	5.878899	0.995913	-0.000118
 637	6.3282e+01	7.3292	82.240492	0.000365	3.648972	0.618153	-0.000073
 638	6.3382e+01	7.3096	82.147638	0.000466	4.662575	0.789862	-0.000093
 639	6.3481e+01	7.2890	82.030561	0.000588	5.878899	0.995913	-0.000118
 640	6.3581e+01	7.2709	82.002301	0.000142	1.419045	0.240393	-0.000028
 641	6.3680e+01	7.2506	81.945781	0.000284	2.838089	0.480785	-0.000057
 642	6.3779e+01	7.2305	81.844853	0.000507	5.068017	0.858545	-0.000101
 643	6.3879e+01	7.2095	81.751999	0.000466	4.662575	0.789862	-0.000093
 644	6.3978e+01	7.1899	81.638959	0.000568	5.676179	0.961571	-0.000114
 645	6.4078e+01	7.1696	81.558216	0.000405	4.054413	0.686836	-0.000081
 646	6.4177e+01	7.1488	81.489585	0.000345	3.446251	0.583811	-0.000069
 647	6.4277e+01	7.1295	81.416916	0.000365	3.648972	0.618153	-0.000073
 648	6.4376e+01	7.1107	81.360397	0.000284	2.838089	0.480785	-0.000057
 649	6.4476e+01	7.0899	81.235245	0.000628	6.284341	1.064596	-0.000126
 650	6.4576e+01	7.0705	81.182763	0.000264	2.635369	0.446444	-0.000053
 651	6.4675e+01	7.0507	81.130280	0.000264	2.635369	0.446444	-0.000053
 652	6.4775e+01	7.0303	81.025314	0.000527	5.270737	0.892887	-0.000105
 653	6.4874e+01	7.0108	80.928423	0.000487	4.865296	0.824203	-0.000097
 654	6.4974e+01	6.9910	80.855755	0.000365	3.648972	0.618153	-0.000073
 655	6.5073e+01	6.9709	80.754826	0.000507	5.068017	0.858545	-0.000101
 656	6.5172e+01	6.9503	80.670046	0.000426	4.257134	0.721178	-0.000085
 657	6.5272e+01	6.9323	80.601415	0.000345	3.446251	0.583811	-0.000069
 658	6.5371e+01	6.9114	80.516635	0.000426	4.257134	0.721178	-0.000085
 659	6.5471e+01	6.8919	80.452041	0.000324	3.243531	0.549469	-0.000065
 660	6.5570e+01	6.8707	80.330927	0.000608	6.081620	1.030254	-0.000122
 661	6.5670e+01	6.8507	80.246147	0.000426	4.257134	0.721178	-0.000085
 662	6.5769e+01	6.8317	80.169441	0.000385	3.851693	0.652494	-0.000077
 663	6.5869e+01	6.8118	80.056402	0.000568	5.676179	0.961571	-0.000114
 664	6.5969e+01	6.7912	79.995845	0.000304	3.040810	0.515127	-0.000061
 665	6.6068e+01	6.7715	79.931250	0.000324	3.243531	0.549469	-0.000065
 666	6.6168e+01	6.7516	79.858582	0.000365	3.648972	0.618153	-0.000073
 667	6.6267e+01	6.7322	79.741505	0.000588	5.878899	0.995913	-0.000118
 668	6.6367e+01	6.7124	79.689022	0.000264	2.635369	0.446444	-0.000053
 669	6.6466e+01	6.6915	79.600205	0.000446	4.459855	0.755520	-0.000089
 670	6.6566e+01	6.6720	79.495240	0.000527	5.270737	0.892887	-0.000105
 671	6.6665e+01	6.6520	79.438720	0.000284	2.838089	0.480785	-0.000057
 672	6.6764e+01	6.6327	79.345866	0.000466	4.662575	0.789862	-0.000093
 673	6.6864e+01	6.6122	79.289346	0.000284	2.838089	0.480785	-0.000057
 674	6.6963e+01	6.5921	79.160158	0.000649	6.487061	1.098938	-0.000130
 675	6.7063e+01	6.5730	79.127860	0.000162	1.621765	0.274734	-0.000032
 676	6.7162e+01	6.5517	78.990598	0.000689	6.892503	1.167622	-0.000138
 677	6.7262e+01	6.5333	78.917929	0.000365	3.648972	0.618153	-0.000073
 678	6.7362e+01	6.5118	78.833150	0.000426	4.257134	0.721178	-0.000085
 679	6.7461e+01	6.4928	78.728184	0.000527	5.270737	0.892887	-0.000105
 680	6.7561e+01	6.4729	78.659553	0.000345	3.446251	0.583811	-0.000069
 681	6.7660e+01	6.4527	78.546513	0.000568	5.676179	0.961571	-0.000114
 682	6.7760e+01	6.4329	78.481919	0.000324	3.243531	0.549469	-0.000065
 683	6.7859e+01	6.4129	78.397139	0.000426	4.257134	0.721178	-0.000085
 684	6.7959e+01	6.3940	78.267951	0.000649	6.487061	1.098938	-0.000130
 685	6.8058e+01	6.3736	78.203356	0.000324	3.243531	0.549469	-0.000065
 686	6.8157e+01	6.3534	78.106465	0.000487	4.865296	0.824203	-0.000097
 687	6.8257e+01	6.3343	78.013611	0.000466	4.662575	0.789862	-0.000093
 688	6.8356e+01	6.3136	77.953054	0.000304	3.040810	0.515127	-0.000061
 689	6.8456e+01	6.2948	77.856163	0.000487	4.865296	0.824203	-0.000097
 690	6.8555e+01	6.2737	77.767346	0.000446	4.459855	0.755520	-0.000089
 691	6.8655e+01	6.2542	77.670454	0.000487	4.865296	0.824203	-0.000097
 692	6.8754e+01	6.2346	77.557415	0.000568	5.676179	0.961571	-0.000114
 693	6.8854e+01	6.2148	77.476672	0.000405	4.054413	0.686836	-0.000081
 694	6.8954e+01	6.1947	77.395929	0.000405	4.054413	0.686836	-0.000081
 695	6.9053e+01	6.1747	77.303075	0.000466	4.662575	0.789862	-0.000093
 696	6.9153e+01	6.1549	77.222332	0.000405	4.054413	0.686836	-0.000081
 697	6.9252e+01	6.1347	77.113330	0.000547	5.473458	0.927229	-0.000110
 698	6.9352e+01	6.1140	77.032587	0.000405	4.054413	0.686836	-0.000081
 699	6.9451e+01	6.0947	76.955881	0.000385	3.851693	0.652494	-0.000077
 700	6.9550e+01	6.0749	76.850916	0.000527	5.270737	0.892887	-0.000105
 701	6.9650e+01	6.0556	76.758062	0.000466	4.662575	0.789862	-0.000093
 702	6.9749e+01	6.0357	76.653096	0.000527	5.270737	0.892887	-0.000105
 703	6.9849e+01	6.0140	76.556205	0.000487	4.865296	0.824203	-0.000097
 704	6.9948e+01	5.9948	76.487574	0.000345	3.446251	0.583811	-0.000069
 705	7.0048e+01	5.9750	76.390682	0.000487	4.865296	0.824203	-0.000097
 706	7.0147e+01	5.9547	76.330125	0.000304	3.040810	0.515127	-0.000061
 707	7.0247e+01	5.9356	76.188826	0.000710	7.095223	1.201963	-0.000142
 708	7.0347e+01	5.9153	76.124231	0.000324	3.243531	0.549469	-0.000065
 709	7.0446e+01	5.8955	76.019266	0.000527	5.270737	0.892887	-0.000105
 710	7.0546e+01	5.8762	75.894115	0.000628	6.284341	1.064596	-0.000126
 711	7.0645e+01	5.8566	75.845669	0.000243	2.432648	0.412102	-0.000049
 712	7.0745e+01	5.8362	75.736666	0.000547	5.473458	0.927229	-0.000110
 713	7.0844e+01	5.8163	75.655924	0.000405	4.054413	0.686836	-0.000081
 714	7.0944e+01	5.7961	75.554995	0.000507	5.068017	0.858545	-0.000101
 715	7.1043e+01	5.7761	75.445993	0.000547	5.473458	0.927229	-0.000110
 716	7.1142e+01	5.7566	75.393510	0.000264	2.635369	0.446444	-0.000053
 717	7.1242e+01	5.7357	75.236062	0.000791	7.906106	1.339331	-0.000158
 718	7.1341e+01	5.7163	75.199727	0.000182	1.824486	0.309076	-0.000037
 719	7.1441e+01	5.6959	75.058428	0.000710	7.095223	1.201963	-0.000142
 720	7.1540e+01	5.6755	74.997871	0.000304	3.040810	0.515127	-0.000061
 721	7.1640e+01	5.6555	74.856571	0.000710	7.095223	1.201963	-0.000142
 722	7.1740e+01	5.6367	74.800051	0.000284	2.838089	0.480785	-0.000057
 723	7.1839e+01	5.6168	74.719308	0.000405	4.054413	0.686836	-0.000081
 724	7.1939e+01	5.5968	74.590120	0.000649	6.487061	1.098938	-0.000130
 725	7.2038e+01	5.5773	74.505340	0.000426	4.257134	0.721178	-0.000085
 726	7.2138e+01	5.5558	74.416523	0.000446	4.459855	0.755520	-0.000089
 727	7.2237e+01	5.5367	74.275223	0.000710	7.095223	1.201963	-0.000142
 728	7.2337e+01	5.5172	74.218703	0.000284	2.838089	0.480785	-0.000057
 729	7.2436e+01	5.4977	74.174295	0.000223	2.229927	0.377760	-0.000045
 730	7.2535e+01	5.4771	74.045107	0.000649	6.487061	1.098938	-0.000130
 731	7.2635e+01	5.4571	73.932067	0.000568	5.676179	0.961571	-0.000114
 732	7.2734e+01	5.4367	73.851324	0.000405	4.054413	0.686836	-0.000081
 733	7.2834e+01	5.4177	73.774618	0.000385	3.851693	0.652494	-0.000077
 734	7.2933e+01	5.3977	73.689839	0.000426	4.257134	0.721178	-0.000085
 735	7.3033e+01	5.3771	73.580836	0.000547	5.473458	0.927229	-0.000110
 736	7.3132e+01	5.3576	73.459722	0.000608	6.081620	1.030254	-0.000122
 737	7.3232e+01	5.3374	73.423388	0.000182	1.824486	0.309076	-0.000037
 738	7.3332e+01	5.3175	73.290162	0.000669	6.689782	1.133280	-0.000134
 739	7.3431e+01	5.2972	73.173085	0.000588	5.878899	0.995913	-0.000118
 740	7.3531e+01	5.2783	73.104454	0.000345	3.446251	0.583811	-0.000069
 741	7.3630e+01	5.2579	73.027748	0.000385	3.851693	0.652494	-0.000077
 742	7.3730e+01	5.2387	72.918746	0.000547	5.473458	0.927229	-0.000110
 743	7.3829e+01	5.2178	72.805706	0.000568	5.676179	0.961571	-0.000114
 744	7.3928e+01	5.1983	72.700740	0.000527	5.270737	0.892887	-0.000105
 745	7.4028e+01	5.1788	72.636146	0.000324	3.243531	0.549469	-0.000065
 746	7.4127e+01	5.1576	72.506958	0.000649	6.487061	1.098938	-0.000130
 747	7.4227e+01	5.1385	72.401992	0.000527	5.270737	0.892887	-0.000105
 748	7.4326e+01	5.1191	72.301064	0.000507	5.068017	0.858545	-0.000101
 749	7.4426e+01	5.0979	72.248581	0.000264	2.635369	0.446444	-0.000053
 750	7.4525e+01	5.0787	72.123430	0.000628	6.284341	1.064596	-0.000126
 751	7.4625e+01	5.0586	72.034613	0.000446	4.459855	0.755520	-0.000089
 752	7.4725e+01	5.0380	71.929647	0.000527	5.270737	0.892887	-0.000105
 753	7.4824e+01	5.0198	71.832756	0.000487	4.865296	0.824203	-0.000097
 754	7.4924e+01	5.0002	71.731828	0.000507	5.068017	0.858545	-0.000101
 755	7.5023e+01	4.9798	71.655122	0.000385	3.851693	0.652494	-0.000077
 756	7.5123e+01	4.9593	71.538045	0.000588	5.878899	0.995913	-0.000118
 757	7.5222e+01	4.9400	71.441154	0.000487	4.865296	0.824203	-0.000097
 758	7.5322e+01	4.9194	71.303891	0.000689	6.892503	1.167622	-0.000138
 759	7.5421e+01	4.9009	71.202963	0.000507	5.068017	0.858545	-0.000101
 760	7.5520e+01	4.8797	71.142406	0.000304	3.040810	0.515127	-0.000061
 761	7.5620e+01	4.8599	71.029366	0.000568	5.676179	0.961571	-0.000114
 762	7.5719e+01	4.8397	70.904215	0.000628	6.284341	1.064596	-0.000126
 763	7.5819e+01	4.8206	70.835584	0.000345	3.446251	0.583811	-0.000069
 764	7.5918e+01	4.8000	70.754841	0.000405	4.054413	0.686836	-0.000081
 765	7.6018e+01	4.7799	70.633727	0.000608	6.081620	1.030254	-0.000122
 766	7.6118e+01	4.7605	70.500501	0.000669	6.689782	1.133280	-0.000134
 767	7.6217e+01	4.7401	70.456093	0.000223	2.229927	0.377760	-0.000045
 768	7.6317e+01	4.7187	70.339016	0.000588	5.878899	0.995913	-0.000118
 769	7.6416e+01	4.7012	70.250199	0.000446	4.459855	0.755520	-0.000089
 770	7.6516e+01	4.6805	70.157345	0.000466	4.662575	0.789862	-0.000093
 771	7.6615e+01	4.6603	70.032194	0.000628	6.284341	1.064596	-0.000126
 772	7.6715e+01	4.6410	69.959525	0.000365	3.648972	0.618153	-0.000073
 773	7.6814e+01	4.6206	69.866671	0.000466	4.662575	0.789862	-0.000093
 774	7.6913e+01	4.6006	69.753631	0.000568	5.676179	0.961571	-0.000114
 775	7.7013e+01	4.5811	69.693074	0.000304	3.040810	0.515127	-0.000061
 776	7.7112e+01	4.5612	69.547737	0.000730	7.297944	1.236305	-0.000146
 777	7.7212e+01	4.5409	69.495255	0.000264	2.635369	0.446444	-0.000053
 778	7.7311e+01	4.5209	69.357992	0.000689	6.892503	1.167622	-0.000138
 779	7.7411e+01	4.5029	69.273212	0.000426	4.257134	0.721178	-0.000085
 780	7.7510e+01	4.4817	69.164209	0.000547	5.473458	0.927229	-0.000110
 781	7.7610e+01	4.4612	69.067318	0.000487	4.865296	0.824203	-0.000097
 782	7.7710e+01	4.4416	68.950241	0.000588	5.878899	0.995913	-0.000118
 783	7.7809e+01	4.4215	68.909870	0.000203	2.027207	0.343418	-0.000041
 784	7.7909e+01	4.4025	68.776644	0.000669	6.689782	1.133280	-0.000134
 785	7.8008e+01	4.3822	68.679753	0.000487	4.865296	0.824203	-0.000097
 786	7.8108e+01	4.3620	68.582862	0.000487	4.865296	0.824203	-0.000097
 787	7.8207e+01	4.3420	68.473859	0.000547	5.473458	0.927229	-0.000110
 788	7.8306e+01	4.3218	68.368894	0.000527	5.270737	0.892887	-0.000105
 789	7.8406e+01	4.3021	68.276040	0.000466	4.662575	0.789862	-0.000093
 790	7.8505e+01	4.2828	68.187223	0.000446	4.459855	0.755520	-0.000089
 791	7.8605e+01	4.2620	68.094368	0.000466	4.662575	0.789862	-0.000093
 792	7.8704e+01	4.2422	67.997477	0.000487	4.865296	0.824203	-0.000097
 793	7.8804e+01	4.2226	67.888475	0.000547	5.473458	0.927229	-0.000110
 794	7.8903e+01	4.2031	67.783509	0.000527	5.270737	0.892887	-0.000105
 795	7.9003e+01	4.1813	67.698729	0.000426	4.257134	0.721178	-0.000085
 796	7.9103e+01	4.1621	67.577615	0.000608	6.081620	1.030254	-0.000122
 797	7.9202e+01	4.1427	67.476687	0.000507	5.068017	0.858545	-0.000101
 798	7.9302e+01	4.1229	67.371721	0.000527	5.270737	0.892887	-0.000105
 799	7.9401e+01	4.1042	67.299053	0.000365	3.648972	0.618153	-0.000073
 800	7.9501e+01	4.0826	67.173902	0.000628	6.284341	1.064596	-0.000126
 801	7.9600e+01	4.0640	67.101233	0.000365	3.648972	0.618153	-0.000073
 802	7.9700e+01	4.0437	67.000305	0.000507	5.068017	0.858545	-0.000101
 803	7.9799e+01	4.0237	66.850931	0.000750	7.500665	1.270647	-0.000150
 804	7.9898e+01	4.0036	66.782299	0.000345	3.446251	0.583811	-0.000069
 805	7.9998e+01	3.9826	66.661185	0.000608	6.081620	1.030254	-0.000122
 806	8.0097e+01	3.9643	66.560257	0.000507	5.068017	0.858545	-0.000101
 807	8.0197e+01	3.9434	66.451254	0.000547	5.473458	0.927229	-0.000110
 808	8.0296e+01	3.9233	66.362437	0.000446	4.459855	0.755520	-0.000089
 809	8.0396e+01	3.9040	66.253435	0.000547	5.473458	0.927229	-0.000110
 810	8.0496e+01	3.8831	66.172692	0.000405	4.054413	0.686836	-0.000081
 811	8.0595e+01	3.8639	66.063689	0.000547	5.473458	0.927229	-0.000110
 812	8.0695e+01	3.8430	65.914315	0.000750	7.500665	1.270647	-0.000150
 813	8.0794e+01	3.8247	65.833572	0.000405	4.054413	0.686836	-0.000081
 814	8.0894e+01	3.8031	65.716496	0.000588	5.878899	0.995913	-0.000118
 815	8.0993e+01	3.7842	65.603456	0.000568	5.676179	0.961571	-0.000114
 816	8.1093e+01	3.7647	65.538862	0.000324	3.243531	0.549469	-0.000065
 817	8.1192e+01	3.7447	65.417747	0.000608	6.081620	1.030254	-0.000122
 818	8.1291e+01	3.7246	65.328931	0.000446	4.459855	0.755520	-0.000089
 819	8.1391e+01	3.7038	65.203779	0.000628	6.284341	1.064596	-0.000126
 820	8.1490e+01	3.6844	65.090740	0.000568	5.676179	0.961571	-0.000114
 821	8.1590e+01	3.6660	64.973663	0.000588	5.878899	0.995913	-0.000118
 822	8.1689e+01	3.6442	64.884846	0.000446	4.459855	0.755520	-0.000089
 823	8.1789e+01	3.6253	64.783917	0.000507	5.068017	0.858545	-0.000101
 824	8.1888e+01	3.6054	64.707212	0.000385	3.851693	0.652494	-0.000077
 825	8.1988e+01	3.5857	64.590135	0.000588	5.878899	0.995913	-0.000118
 826	8.2088e+01	3.5651	64.493243	0.000487	4.865296	0.824203	-0.000097
 827	8.2187e+01	3.5452	64.335795	0.000791	7.906106	1.339331	-0.000158
 828	8.2287e+01	3.5251	64.263127	0.000365	3.648972	0.618153	-0.000073
 829	8.2386e+01	3.5040	64.158161	0.000527	5.270737	0.892887	-0.000105
 830	8.2486e+01	3.4853	64.024936	0.000669	6.689782	1.133280	-0.000134
 831	8.2585e+01	3.4660	63.940156	0.000426	4.257134	0.721178	-0.000085
 832	8.2684e+01	3.4451	63.839227	0.000507	5.068017	0.858545	-0.000101
 833	8.2784e+01	3.4259	63.738299	0.000507	5.068017	0.858545	-0.000101
 834	8.2883e+01	3.4062	63.609111	0.000649	6.487061	1.098938	-0.000130
 835	8.2983e+01	3.3863	63.487997	0.000608	6.081620	1.030254	-0.000122
 836	8.3082e+01	3.3660	63.391105	0.000487	4.865296	0.824203	-0.000097
 837	8.3182e+01	3.3466	63.306326	0.000426	4.257134	0.721178	-0.000085
 838	8.3281e+01	3.3257	63.221546	0.000426	4.257134	0.721178	-0.000085
 839	8.3381e+01	3.3067	63.080246	0.000710	7.095223	1.201963	-0.000142
 840	8.3481e+01	3.2861	62.987392	0.000466	4.662575	0.789862	-0.000093
 841	8.3580e+01	3.2661	62.890501	0.000487	4.865296	0.824203	-0.000097
 842	8.3680e+01	3.2461	62.789572	0.000507	5.068017	0.858545	-0.000101
 843	8.3779e+01	3.2269	62.676532	0.000568	5.676179	0.961571	-0.000114
 844	8.3879e+01	3.2055	62.559455	0.000588	5.878899	0.995913	-0.000118
 845	8.3978e+01	3.1866	62.450453	0.000547	5.473458	0.927229	-0.000110
 846	8.4078e+01	3.1668	62.349524	0.000507	5.068017	0.858545	-0.000101
 847	8.4177e+01	3.1465	62.252633	0.000487	4.865296	0.824203	-0.000097
 848	8.4276e+01	3.1268	62.147668	0.000527	5.270737	0.892887	-0.000105
 849	8.4376e+01	3.1069	62.022516	0.000628	6.284341	1.064596	-0.000126
 850	8.4475e+01	3.0869	61.917551	0.000527	5.270737	0.892887	-0.000105
 851	8.4575e+01	3.0679	61.800474	0.000588	5.878899	0.995913	-0.000118
 852	8.4674e+01	3.0466	61.699545	0.000507	5.068017	0.858545	-0.000101
 853	8.4774e+01	3.0273	61.606691	0.000466	4.662575	0.789862	-0.000093
 854	8.4874e+01	3.0074	61.441169	0.000831	8.311547	1.408014	-0.000166
 855	8.4973e+01	2.9870	61.352352	0.000446	4.459855	0.755520	-0.000089
 856	8.5073e+01	2.9646	61.215089	0.000689	6.892503	1.167622	-0.000138
 857	8.5172e+01	2.9478	61.122235	0.000466	4.662575	0.789862	-0.000093
 858	8.5272e+01	2.9274	61.029381	0.000466	4.662575	0.789862	-0.000093
 859	8.5371e+01	2.9076	60.916341	0.000568	5.676179	0.961571	-0.000114
 860	8.5471e+01	2.8873	60.803301	0.000568	5.676179	0.961571	-0.000114
 861	8.5570e+01	2.8684	60.682187	0.000608	6.081620	1.030254	-0.000122
 862	8.5669e+01	2.8480	60.577222	0.000527	5.270737	0.892887	-0.000105
 863	8.5769e+01	2.8277	60.448033	0.000649	6.487061	1.098938	-0.000130
 864	8.5868e+01	2.8092	60.318845	0.000649	6.487061	1.098938	-0.000130
 865	8.5968e+01	2.7882	60.221954	0.000487	4.865296	0.824203	-0.000097
 866	8.6067e+01	2.7682	60.100840	0.000608	6.081620	1.030254	-0.000122
 867	8.6167e+01	2.7482	59.963577	0.000689	6.892503	1.167622	-0.000138
 868	8.6266e+01	2.7284	59.907057	0.000284	2.838089	0.480785	-0.000057
 869	8.6366e+01	2.7079	59.769795	0.000689	6.892503	1.167622	-0.000138
 870	8.6466e+01	2.6885	59.672903	0.000487	4.865296	0.824203	-0.000097
 871	8.6565e+01	2.6684	59.527566	0.000730	7.297944	1.236305	-0.000146
 872	8.6665e+01	2.6484	59.418564	0.000547	5.473458	0.927229	-0.000110
 873	8.6764e+01	2.6292	59.309561	0.000547	5.473458	0.927229	-0.000110
 874	8.6864e+01	2.6086	59.212670	0.000487	4.865296	0.824203	-0.000097
 875	8.6963e+01	2.5892	59.055222	0.000791	7.906106	1.339331	-0.000158
 876	8.7063e+01	2.5709	58.978516	0.000385	3.851693	0.652494	-0.000077
 877	8.7162e+01	2.5491	58.873550	0.000527	5.270737	0.892887	-0.000105
 878	8.7261e+01	2.5285	58.760511	0.000568	5.676179	0.961571	-0.000114
 879	8.7361e+01	2.5093	58.611137	0.000750	7.500665	1.270647	-0.000150
 880	8.7460e+01	2.4895	58.522320	0.000446	4.459855	0.755520	-0.000089
 881	8.7560e+01	2.4706	58.401206	0.000608	6.081620	1.030254	-0.000122
 882	8.7659e+01	2.4499	58.284129	0.000588	5.878899	0.995913	-0.000118
 883	8.7759e+01	2.4297	58.158977	0.000628	6.284341	1.064596	-0.000126
 884	8.7859e+01	2.4094	58.009603	0.000750	7.500665	1.270647	-0.000150
 885	8.7958e+01	2.3902	57.924824	0.000426	4.257134	0.721178	-0.000085
 886	8.8058e+01	2.3689	57.840044	0.000426	4.257134	0.721178	-0.000085
 887	8.8157e+01	2.3504	57.698744	0.000710	7.095223	1.201963	-0.000142
 888	8.8257e+01	2.3294	57.565518	0.000669	6.689782	1.133280	-0.000134
 889	8.8356e+01	2.3096	57.444404	0.000608	6.081620	1.030254	-0.000122
 890	8.8456e+01	2.2901	57.355587	0.000446	4.459855	0.755520	-0.000089
 891	8.8555e+01	2.2701	57.250622	0.000527	5.270737	0.892887	-0.000105
 892	8.8654e+01	2.2507	57.129508	0.000608	6.081620	1.030254	-0.000122
 893	8.8754e+01	2.2303	57.008394	0.000608	6.081620	1.030254	-0.000122
 894	8.8853e+01	2.2104	56.871131	0.000689	6.892503	1.167622	-0.000138
 895	8.8953e+01	2.1914	56.806537	0.000324	3.243531	0.549469	-0.000065
 896	8.9052e+01	2.1712	56.681386	0.000628	6.284341	1.064596	-0.000126
 897	8.9152e+01	2.1510	56.560272	0.000608	6.081620	1.030254	-0.000122
 898	8.9251e+01	2.1315	56.451269	0.000547	5.473458	0.927229	-0.000110
 899	8.9351e+01	2.1111	56.281709	0.000851	8.514268	1.442356	-0.000170
 900	8.9451e+01	2.0904	56.184818	0.000487	4.865296	0.824203	-0.000097
 901	8.9550e+01	2.0705	56.112150	0.000365	3.648972	0.618153	-0.000073
 902	8.9650e+01	2.0510	55.930479	0.000912	9.122430	1.545381	-0.000183
 903	8.9749e+01	2.0313	55.841662	0.000446	4.459855	0.755520	-0.000089
 904	8.9849e+01	2.0113	55.752845	0.000446	4.459855	0.755520	-0.000089
 905	8.9948e+01	1.9915	55.615582	0.000689	6.892503	1.167622	-0.000138
 906	9.0047e+01	1.9717	55.530802	0.000426	4.257134	0.721178	-0.000085
 907	9.0147e+01	1.9521	55.389502	0.000710	7.095223	1.201963	-0.000142
 908	9.0246e+01	1.9313	55.292611	0.000487	4.865296	0.824203	-0.000097
 909	9.0346e+01	1.9111	55.127089	0.000831	8.311547	1.408014	-0.000166
 910	9.0445e+01	1.8918	55.050383	0.000385	3.851693	0.652494	-0.000077
 911	9.0545e+01	1.8732	54.933306	0.000588	5.878899	0.995913	-0.000118
 912	9.0644e+01	1.8519	54.808155	0.000628	6.284341	1.064596	-0.000126
 913	9.0744e+01	1.8311	54.662818	0.000730	7.297944	1.236305	-0.000146
 914	9.0844e+01	1.8119	54.586112	0.000385	3.851693	0.652494	-0.000077
 915	9.0943e+01	1.7914	54.432701	0.000770	7.703385	1.304989	-0.000154
 916	9.1043e+01	1.7722	54.323698	0.000547	5.473458	0.927229	-0.000110
 917	9.1142e+01	1.7516	54.178362	0.000730	7.297944	1.236305	-0.000146
 918	9.1242e+01	1.7318	54.101656	0.000385	3.851693	0.652494	-0.000077
 919	9.1341e+01	1.7117	53.984579	0.000588	5.878899	0.995913	-0.000118
 920	9.1441e+01	1.6924	53.875576	0.000547	5.473458	0.927229	-0.000110
 921	9.1540e+01	1.6729	53.718128	0.000791	7.906106	1.339331	-0.000158
 922	9.1639e+01	1.6529	53.609125	0.000547	5.473458	0.927229	-0.000110
 923	9.1739e+01	1.6324	53.516271	0.000466	4.662575	0.789862	-0.000093
 924	9.1838e+01	1.6120	53.358823	0.000791	7.906106	1.339331	-0.000158
 925	9.1938e+01	1.5924	53.225598	0.000669	6.689782	1.133280	-0.000134
 926	9.2037e+01	1.5724	53.140818	0.000426	4.257134	0.721178	-0.000085
 927	9.2137e+01	1.5526	53.047964	0.000466	4.662575	0.789862	-0.000093
 928	9.2237e+01	1.5332	52.894552	0.000770	7.703385	1.304989	-0.000154
 929	9.2336e+01	1.5133	52.789587	0.000527	5.270737	0.892887	-0.000105
 930	9.2436e+01	1.4924	52.664436	0.000628	6.284341	1.064596	-0.000126
 931	9.2535e+01	1.4721	52.515062	0.000750	7.500665	1.270647	-0.000150
 932	9.2635e+01	1.4530	52.462579	0.000264	2.635369	0.446444	-0.000053
 933	9.2734e+01	1.4337	52.280908	0.000912	9.122430	1.545381	-0.000183
 934	9.2834e+01	1.4133	52.131534	0.000750	7.500665	1.270647	-0.000150
 935	9.2933e+01	1.3932	52.046754	0.000426	4.257134	0.721178	-0.000085
 936	9.3032e+01	1.3731	51.933714	0.000568	5.676179	0.961571	-0.000114
 937	9.3132e+01	1.3543	51.820674	0.000568	5.676179	0.961571	-0.000114
 938	9.3231e+01	1.3334	51.735894	0.000426	4.257134	0.721178	-0.000085
 939	9.3331e+01	1.3129	51.546149	0.000953	9.527871	1.614065	-0.000191
 940	9.3430e+01	1.2926	51.485592	0.000304	3.040810	0.515127	-0.000061
 941	9.3530e+01	1.2734	51.336218	0.000750	7.500665	1.270647	-0.000150
 942	9.3629e+01	1.2554	51.239327	0.000487	4.865296	0.824203	-0.000097
 943	9.3729e+01	1.2353	51.098027	0.000710	7.095223	1.201963	-0.000142
 944	9.3829e+01	1.2146	50.989024	0.000547	5.473458	0.927229	-0.000110
 945	9.3928e+01	1.1950	50.884059	0.000527	5.270737	0.892887	-0.000105
 946	9.4028e+01	1.1748	50.758908	0.000628	6.284341	1.064596	-0.000126
 947	9.4127e+01	1.1552	50.613571	0.000730	7.297944	1.236305	-0.000146
 948	9.4227e+01	1.1356	50.557051	0.000284	2.838089	0.480785	-0.000057
 949	9.4326e+01	1.1147	50.415751	0.000710	7.095223	1.201963	-0.000142
 950	9.4425e+01	1.0955	50.314823	0.000507	5.068017	0.858545	-0.000101
 951	9.4525e+01	1.0750	50.169486	0.000730	7.297944	1.236305	-0.000146
 952	9.4624e+01	1.0552	50.072595	0.000487	4.865296	0.824203	-0.000097
 953	9.4724e+01	1.0350	49.915146	0.000791	7.906106	1.339331	-0.000158
 954	9.4823e+01	1.0147	49.777884	0.000689	6.892503	1.167622	-0.000138
 955	9.4923e+01	0.9958	49.676955	0.000507	5.068017	0.858545	-0.000101
 956	9.5022e+01	0.9760	49.580064	0.000487	4.865296	0.824203	-0.000097
 957	9.5122e+01	0.9550	49.483173	0.000487	4.865296	0.824203	-0.000097
 958	9.5222e+01	0.9365	49.325724	0.000791	7.906106	1.339331	-0.000158
 959	9.5321e+01	0.9158	49.240945	0.000426	4.257134	0.721178	-0.000085
 960	9.5421e+01	0.8937	49.091571	0.000750	7.500665	1.270647	-0.000150
 961	9.5520e+01	0.8768	48.966419	0.000628	6.284341	1.064596	-0.000126
 962	9.5620e+01	0.8561	48.841268	0.000628	6.284341	1.064596	-0.000126
 963	9.5719e+01	0.8355	48.744377	0.000487	4.865296	0.824203	-0.000097
 964	9.5819e+01	0.8163	48.607114	0.000689	6.892503	1.167622	-0.000138
 965	9.5918e+01	0.7957	48.502149	0.000527	5.270737	0.892887	-0.000105
 966	9.6017e+01	0.7764	48.376998	0.000628	6.284341	1.064596	-0.000126
 967	9.6117e+01	0.7570	48.255883	0.000608	6.081620	1.030254	-0.000122
 968	9.6216e+01	0.7364	48.163029	0.000466	4.662575	0.789862	-0.000093
 969	9.6316e+01	0.7163	47.997507	0.000831	8.311547	1.408014	-0.000166
 970	9.6415e+01	0.6958	47.920801	0.000385	3.851693	0.652494	-0.000077
 971	9.6515e+01	0.6768	47.763353	0.000791	7.906106	1.339331	-0.000158
 972	9.6615e+01	0.6564	47.658387	0.000527	5.270737	0.892887	-0.000105
 973	9.6714e+01	0.6371	47.504976	0.000770	7.703385	1.304989	-0.000154
 974	9.6814e+01	0.6167	47.391936	0.000568	5.676179	0.961571	-0.000114
 975	9.6913e+01	0.5972	47.282934	0.000547	5.473458	0.927229	-0.000110
 976	9.7013e+01	0.5774	47.165857	0.000588	5.878899	0.995913	-0.000118
 977	9.7112e+01	0.5566	47.008409	0.000791	7.906106	1.339331	-0.000158
 978	9.7212e+01	0.5370	46.919592	0.000446	4.459855	0.755520	-0.000089
 979	9.7311e+01	0.5170	46.774255	0.000730	7.297944	1.236305	-0.000146
 980	9.7410e+01	0.4967	46.632955	0.000710	7.095223	1.201963	-0.000142
 981	9.7510e+01	0.4775	46.580472	0.000264	2.635369	0.446444	-0.000053
 982	9.7609e+01	0.4567	46.414950	0.000831	8.311547	1.408014	-0.000166
 983	9.7709e+01	0.4366	46.318058	0.000487	4.865296	0.824203	-0.000097
 984	9.7808e+01	0.4172	46.172721	0.000730	7.297944	1.236305	-0.000146
 985	9.7908e+01	0.3976	46.059682	0.000568	5.676179	0.961571	-0.000114
 986	9.8007e+01	0.3772	45.950679	0.000547	5.473458	0.927229	-0.000110
 987	9.8107e+01	0.3571	45.801305	0.000750	7.500665	1.270647	-0.000150
 988	9.8207e+01	0.3374	45.680191	0.000608	6.081620	1.030254	-0.000122
 989	9.8306e+01	0.3176	45.518705	0.000811	8.108827	1.373672	-0.000162
 990	9.8406e+01	0.2979	45.442000	0.000385	3.851693	0.652494	-0.000077
 991	9.8505e+01	0.2777	45.292626	0.000750	7.500665	1.270647	-0.000150
 992	9.8605e+01	0.2574	45.175549	0.000588	5.878899	0.995913	-0.000118
 993	9.8704e+01	0.2380	45.058472	0.000588	5.878899	0.995913	-0.000118
 994	9.8803e+01	0.2173	44.949469	0.000547	5.473458	0.927229	-0.000110
 995	9.8903e+01	0.1981	44.824318	0.000628	6.284341	1.064596	-0.000126
 996	9.9002e+01	0.1780	44.670907	0.000770	7.703385	1.304989	-0.000154
 997	9.9102e+01	0.1576	44.582090	0.000446	4.459855	0.755520	-0.000089
 998	9.9201e+01	0.1384	44.420605	0.000811	8.108827	1.373672	-0.000162
 999	9.9301e+01	0.1186	44.351973	0.000345	3.446251	0.583811	-0.000069
1000	9.9400e+01	0.0996	44.186451	0.000831	8.311547	1.408014	-0.000166
1001	9.9500e+01	0.0792	44.089559	0.000487	4.865296	0.824203	-0.000097
1002	9.9600e+01	0.0581	43.940185	0.000750	7.500665	1.270647	-0.000150
1003	9.9699e+01	0.0378	43.782737	0.000791	7.906106	1.339331	-0.000158
1004	9.9799e+01	0.0187	43.677772	0.000527	5.270737	0.892887	-0.000105
1005	9.9898e+01	-0.0010	43.588955	0.000446	4.459855	0.755520	-0.000089
1006	9.9998e+01	-0.0196	43.447655	0.000710	7.095223	1.201963	-0.000142
1007	1.0010e+02	-0.0392	43.370949	0.000385	3.851693	0.652494	-0.000077
1008	1.0020e+02	-0.0588	43.221575	0.000750	7.500665	1.270647	-0.000150
1009	1.0030e+02	-0.0783	43.092387	0.000649	6.487061	1.098938	-0.000130
1010	1.0040e+02	-0.0994	42.943013	0.000750	7.500665	1.270647	-0.000150
1011	1.0050e+02	-0.1184	42.829973	0.000568	5.676179	0.961571	-0.000114
1012	1.0059e+02	-0.1385	42.692710	0.000689	6.892503	1.167622	-0.000138
1013	1.0069e+02	-0.1580	42.587745	0.000527	5.270737	0.892887	-0.000105
1014	1.0079e+02	-0.1789	42.446445	0.000710	7.095223	1.201963	-0.000142
1015	1.0089e+02	-0.1985	42.337442	0.000547	5.473458	0.927229	-0.000110
1016	1.0099e+02	-0.2189	42.204217	0.000669	6.689782	1.133280	-0.000134
1017	1.0109e+02	-0.2384	42.070992	0.000669	6.689782	1.133280	-0.000134
1018	1.0119e+02	-0.2586	41.974100	0.000487	4.865296	0.824203	-0.000097
1019	1.0129e+02	-0.2780	41.820689	0.000770	7.703385	1.304989	-0.000154
1020	1.0139e+02	-0.2982	41.687464	0.000669	6.689782	1.133280	-0.000134
1021	1.0149e+02	-0.3186	41.570387	0.000588	5.878899	0.995913	-0.000118
1022	1.0159e+02	-0.3384	41.429087	0.000710	7.095223	1.201963	-0.000142
1023	1.0169e+02	-0.3584	41.295861	0.000669	6.689782	1.133280	-0.000134
1024	1.0179e+02	-0.3781	41.154562	0.000710	7.095223	1.201963	-0.000142
1025	1.0189e+02	-0.3973	41.089968	0.000324	3.243531	0.549469	-0.000065
1026	1.0199e+02	-0.4187	40.912334	0.000892	8.919709	1.511040	-0.000179
1027	1.0209e+02	-0.4376	40.807368	0.000527	5.270737	0.892887	-0.000105
1028	1.0219e+02	-0.4575	40.674143	0.000669	6.689782	1.133280	-0.000134
1029	1.0229e+02	-0.4778	40.540917	0.000669	6.689782	1.133280	-0.000134
1030	1.0239e+02	-0.4971	40.387506	0.000770	7.703385	1.304989	-0.000154
1031	1.0248e+02	-0.5173	40.290615	0.000487	4.865296	0.824203	-0.000097
1032	1.0258e+02	-0.5369	40.129129	0.000811	8.108827	1.373672	-0.000162
1033	1.0268e+02	-0.5569	40.068572	0.000304	3.040810	0.515127	-0.000061
1034	1.0278e+02	-0.5769	39.903050	0.000831	8.311547	1.408014	-0.000166
1035	1.0288e+02	-0.5966	39.765787	0.000689	6.892503	1.167622	-0.000138
1036	1.0298e+02	-0.6171	39.616413	0.000750	7.500665	1.270647	-0.000150
1037	1.0308e+02	-0.6372	39.479150	0.000689	6.892503	1.167622	-0.000138
1038	1.0318e+02	-0.6575	39.362073	0.000588	5.878899	0.995913	-0.000118
1039	1.0328e+02	-0.6768	39.236922	0.000628	6.284341	1.064596	-0.000126
1040	1.0338e+02	-0.6968	39.091585	0.000730	7.297944	1.236305	-0.000146
1041	1.0348e+02	-0.7166	38.966434	0.000628	6.284341	1.064596	-0.000126
1042	1.0358e+02	-0.7361	38.845320	0.000608	6.081620	1.030254	-0.000122
1043	1.0368e+02	-0.7565	38.695946	0.000750	7.500665	1.270647	-0.000150
1044	1.0378e+02	-0.7764	38.554646	0.000710	7.095223	1.201963	-0.000142
1045	1.0388e+02	-0.7956	38.429495	0.000628	6.284341	1.064596	-0.000126
1046	1.0398e+02	-0.8161	38.316455	0.000568	5.676179	0.961571	-0.000114
1047	1.0408e+02	-0.8363	38.195341	0.000608	6.081620	1.030254	-0.000122
1048	1.0418e+02	-0.8566	38.021744	0.000872	8.716989	1.476698	-0.000174
1049	1.0428e+02	-0.8762	37.941002	0.000405	4.054413	0.686836	-0.000081
1050	1.0438e+02	-0.8958	37.771442	0.000851	8.514268	1.442356	-0.000170
1051	1.0447e+02	-0.9155	37.686662	0.000426	4.257134	0.721178	-0.000085
1052	1.0457e+02	-0.9357	37.504991	0.000912	9.122430	1.545381	-0.000183
1053	1.0467e+02	-0.9554	37.391951	0.000568	5.676179	0.961571	-0.000114
1054	1.0477e+02	-0.9765	37.242577	0.000750	7.500665	1.270647	-0.000150
1055	1.0487e+02	-0.9951	37.121463	0.000608	6.081620	1.030254	-0.000122
1056	1.0497e+02	-1.0146	36.980163	0.000710	7.095223	1.201963	-0.000142
1057	1.0507e+02	-1.0345	36.855012	0.000628	6.284341	1.064596	-0.000126
1058	1.0517e+02	-1.0549	36.737935	0.000588	5.878899	0.995913	-0.000118
1059	1.0527e+02	-1.0751	36.612784	0.000628	6.284341	1.064596	-0.000126
1060	1.0537e+02	-1.0950	36.471484	0.000710	7.095223	1.201963	-0.000142
1061	1.0547e+02	-1.1177	36.366519	0.000527	5.270737	0.892887	-0.000105
1062	1.0557e+02	-1.1352	36.261553	0.000527	5.270737	0.892887	-0.000105
1063	1.0567e+02	-1.1555	36.096031	0.000831	8.311547	1.408014	-0.000166
1064	1.0577e+02	-1.1751	35.966842	0.000649	6.487061	1.098938	-0.000130
1065	1.0587e+02	-1.1946	35.813431	0.000770	7.703385	1.304989	-0.000154
1066	1.0597e+02	-1.2152	35.704428	0.000547	5.473458	0.927229	-0.000110
1067	1.0607e+02	-1.2339	35.555054	0.000750	7.500665	1.270647	-0.000150
1068	1.0617e+02	-1.2543	35.450089	0.000527	5.270737	0.892887	-0.000105
1069	1.0627e+02	-1.2746	35.300715	0.000750	7.500665	1.270647	-0.000150
1070	1.0637e+02	-1.2944	35.183638	0.000588	5.878899	0.995913	-0.000118
1071	1.0647e+02	-1.3148	35.058487	0.000628	6.284341	1.064596	-0.000126
1072	1.0656e+02	-1.3345	34.888927	0.000851	8.514268	1.442356	-0.000170
1073	1.0666e+02	-1.3548	34.812221	0.000385	3.851693	0.652494	-0.000077
1074	1.0676e+02	-1.3738	34.646699	0.000831	8.311547	1.408014	-0.000166
1075	1.0686e+02	-1.3943	34.501362	0.000730	7.297944	1.236305	-0.000146
1076	1.0696e+02	-1.4133	34.400434	0.000507	5.068017	0.858545	-0.000101
1077	1.0706e+02	-1.4346	34.279320	0.000608	6.081620	1.030254	-0.000122
1078	1.0716e+02	-1.4542	34.125908	0.000770	7.703385	1.304989	-0.000154
1079	1.0726e+02	-1.4734	33.984609	0.000710	7.095223	1.201963	-0.000142
1080	1.0736e+02	-1.4942	33.855420	0.000649	6.487061	1.098938	-0.000130
1081	1.0746e+02	-1.5134	33.758529	0.000487	4.865296	0.824203	-0.000097
1082	1.0756e+02	-1.5342	33.584932	0.000872	8.716989	1.476698	-0.000174
1083	1.0766e+02	-1.5536	33.475930	0.000547	5.473458	0.927229	-0.000110
1084	1.0776e+02	-1.5743	33.298296	0.000892	8.919709	1.511040	-0.000179
1085	1.0786e+02	-1.5929	33.217553	0.000405	4.054413	0.686836	-0.000081
1086	1.0796e+02	-1.6129	33.092402	0.000628	6.284341	1.064596	-0.000126
1087	1.0806e+02	-1.6328	32.922842	0.000851	8.514268	1.442356	-0.000170
1088	1.0816e+02	-1.6534	32.846136	0.000385	3.851693	0.652494	-0.000077
1089	1.0826e+02	-1.6734	32.664465	0.000912	9.122430	1.545381	-0.000183
1090	1.0836e+02	-1.6925	32.555463	0.000547	5.473458	0.927229	-0.000110
1091	1.0845e+02	-1.7133	32.381866	0.000872	8.716989	1.476698	-0.000174
1092	1.0855e+02	-1.7324	32.268826	0.000568	5.676179	0.961571	-0.000114
1093	1.0865e+02	-1.7516	32.147712	0.000608	6.081620	1.030254	-0.000122
1094	1.0875e+02	-1.7733	31.986226	0.000811	8.108827	1.373672	-0.000162
1095	1.0885e+02	-1.7923	31.925669	0.000304	3.040810	0.515127	-0.000061
1096	1.0895e+02	-1.8128	31.727850	0.000993	9.933313	1.682749	-0.000199
1097	1.0905e+02	-1.8322	31.610773	0.000588	5.878899	0.995913	-0.000118
1098	1.0915e+02	-1.8521	31.473510	0.000689	6.892503	1.167622	-0.000138
1099	1.0925e+02	-1.8735	31.332210	0.000710	7.095223	1.201963	-0.000142
1100	1.0935e+02	-1.8919	31.231282	0.000507	5.068017	0.858545	-0.000101
1101	1.0945e+02	-1.9119	31.077871	0.000770	7.703385	1.304989	-0.000154
1102	1.0955e+02	-1.9314	31.005202	0.000365	3.648972	0.618153	-0.000073
1103	1.0965e+02	-1.9521	30.811420	0.000973	9.730592	1.648407	-0.000195
1104	1.0975e+02	-1.9713	30.694343	0.000588	5.878899	0.995913	-0.000118
1105	1.0985e+02	-1.9915	30.561118	0.000669	6.689782	1.133280	-0.000134
1106	1.0995e+02	-2.0107	30.440003	0.000608	6.081620	1.030254	-0.000122
1107	1.1005e+02	-2.0306	30.294667	0.000730	7.297944	1.236305	-0.000146
1108	1.1015e+02	-2.0515	30.169515	0.000628	6.284341	1.064596	-0.000126
1109	1.1025e+02	-2.0712	30.052438	0.000588	5.878899	0.995913	-0.000118
1110	1.1035e+02	-2.0908	29.931324	0.000608	6.081620	1.030254	-0.000122
1111	1.1044e+02	-2.1109	29.761765	0.000851	8.514268	1.442356	-0.000170
1112	1.1054e+02	-2.1305	29.632576	0.000649	6.487061	1.098938	-0.000130
1113	1.1064e+02	-2.1512	29.563945	0.000345	3.446251	0.583811	-0.000069
1114	1.1074e+02	-2.1713	29.410534	0.000770	7.703385	1.304989	-0.000154
1115	1.1084e+02	-2.1919	29.269234	0.000710	7.095223	1.201963	-0.000142
1116	1.1094e+02	-2.2102	29.156194	0.000568	5.676179	0.961571	-0.000114
1117	1.1104e+02	-2.2299	29.018932	0.000689	6.892503	1.167622	-0.000138
1118	1.1114e+02	-2.2515	28.869558	0.000750	7.500665	1.270647	-0.000150
1119	1.1124e+02	-2.2705	28.732295	0.000689	6.892503	1.167622	-0.000138
1120	1.1134e+02	-2.2906	28.619255	0.000568	5.676179	0.961571	-0.000114
1121	1.1144e+02	-2.3093	28.514290	0.000527	5.270737	0.892887	-0.000105
1122	1.1154e+02	-2.3309	28.352804	0.000811	8.108827	1.373672	-0.000162
1123	1.1164e+02	-2.3511	28.247839	0.000527	5.270737	0.892887	-0.000105
1124	1.1174e+02	-2.3698	28.142873	0.000527	5.270737	0.892887	-0.000105
1125	1.1184e+02	-2.3903	27.997536	0.000730	7.297944	1.236305	-0.000146
1126	1.1194e+02	-2.4104	27.840088	0.000791	7.906106	1.339331	-0.000158
1127	1.1204e+02	-2.4300	27.718974	0.000608	6.081620	1.030254	-0.000122
1128	1.1214e+02	-2.4497	27.589786	0.000649	6.487061	1.098938	-0.000130
1129	1.1224e+02	-2.4694	27.456560	0.000669	6.689782	1.133280	-0.000134
1130	1.1234e+02	-2.4906	27.331409	0.000628	6.284341	1.064596	-0.000126
1131	1.1244e+02	-2.5092	27.222406	0.000547	5.473458	0.927229	-0.000110
1132	1.1253e+02	-2.5292	27.060921	0.000811	8.108827	1.373672	-0.000162
1133	1.1263e+02	-2.5493	26.980178	0.000405	4.054413	0.686836	-0.000081
1134	1.1273e+02	-2.5692	26.782358	0.000993	9.933313	1.682749	-0.000199
1135	1.1283e+02	-2.5882	26.665282	0.000588	5.878899	0.995913	-0.000118
1136	1.1293e+02	-2.6091	26.540130	0.000628	6.284341	1.064596	-0.000126
1137	1.1303e+02	-2.6292	26.439202	0.000507	5.068017	0.858545	-0.000101
1138	1.1313e+02	-2.6476	26.318088	0.000608	6.081620	1.030254	-0.000122
1139	1.1323e+02	-2.6685	26.152565	0.000831	8.311547	1.408014	-0.000166
1140	1.1333e+02	-2.6889	26.059711	0.000466	4.662575	0.789862	-0.000093
1141	1.1343e+02	-2.7081	25.886114	0.000872	8.716989	1.476698	-0.000174
1142	1.1353e+02	-2.7276	25.777112	0.000547	5.473458	0.927229	-0.000110
1143	1.1363e+02	-2.7480	25.623701	0.000770	7.703385	1.304989	-0.000154
1144	1.1373e+02	-2.7687	25.510661	0.000568	5.676179	0.961571	-0.000114
1145	1.1383e+02	-2.7872	25.365324	0.000730	7.297944	1.236305	-0.000146
1146	1.1393e+02	-2.8085	25.228061	0.000689	6.892503	1.167622	-0.000138
1147	1.1403e+02	-2.8280	25.135207	0.000466	4.662575	0.789862	-0.000093
1148	1.1413e+02	-2.8477	24.945462	0.000953	9.527871	1.614065	-0.000191
1149	1.1423e+02	-2.8676	24.888942	0.000284	2.838089	0.480785	-0.000057
1150	1.1433e+02	-2.8876	24.735531	0.000770	7.703385	1.304989	-0.000154
1151	1.1442e+02	-2.9082	24.622491	0.000568	5.676179	0.961571	-0.000114
1152	1.1452e+02	-2.9283	24.456968	0.000831	8.311547	1.408014	-0.000166
1153	1.1462e+02	-2.9472	24.335854	0.000608	6.081620	1.030254	-0.000122
1154	1.1472e+02	-2.9677	24.222814	0.000568	5.676179	0.961571	-0.000114
1155	1.1482e+02	-2.9872	24.077478	0.000730	7.297944	1.236305	-0.000146
1156	1.1492e+02	-3.0084	23.956363	0.000608	6.081620	1.030254	-0.000122
1157	1.1502e+02	-3.0278	23.811027	0.000730	7.297944	1.236305	-0.000146
1158	1.1512e+02	-3.0475	23.669727	0.000710	7.095223	1.201963	-0.000142
1159	1.1522e+02	-3.0673	23.544576	0.000628	6.284341	1.064596	-0.000126
1160	1.1532e+02	-3.0880	23.459796	0.000426	4.257134	0.721178	-0.000085
1161	1.1542e+02	-3.1065	23.294273	0.000831	8.311547	1.408014	-0.000166
1162	1.1552e+02	-3.1273	23.177196	0.000588	5.878899	0.995913	-0.000118
1163	1.1562e+02	-3.1477	23.056082	0.000608	6.081620	1.030254	-0.000122
1164	1.1572e+02	-3.1668	22.898634	0.000791	7.906106	1.339331	-0.000158
1165	1.1582e+02	-3.1866	22.801743	0.000487	4.865296	0.824203	-0.000097
1166	1.1592e+02	-3.2043	22.672554	0.000649	6.487061	1.098938	-0.000130
1167	1.1602e+02	-3.2272	22.535292	0.000689	6.892503	1.167622	-0.000138
1168	1.1612e+02	-3.2454	22.365732	0.000851	8.514268	1.442356	-0.000170
1169	1.1622e+02	-3.2664	22.268841	0.000487	4.865296	0.824203	-0.000097
1170	1.1632e+02	-3.2866	22.184061	0.000426	4.257134	0.721178	-0.000085
1171	1.1642e+02	-3.3057	22.038724	0.000730	7.297944	1.236305	-0.000146
1172	1.1651e+02	-3.3258	21.909536	0.000649	6.487061	1.098938	-0.000130
1173	1.1661e+02	-3.3464	21.796496	0.000568	5.676179	0.961571	-0.000114
1174	1.1671e+02	-3.3672	21.635010	0.000811	8.108827	1.373672	-0.000162
1175	1.1681e+02	-3.3858	21.513896	0.000608	6.081620	1.030254	-0.000122
1176	1.1691e+02	-3.4064	21.388745	0.000628	6.284341	1.064596	-0.000126
1177	1.1701e+02	-3.4262	21.231297	0.000791	7.906106	1.339331	-0.000158
1178	1.1711e+02	-3.4462	21.130368	0.000507	5.068017	0.858545	-0.000101
1179	1.1721e+02	-3.4655	20.976957	0.000770	7.703385	1.304989	-0.000154
1180	1.1731e+02	-3.4857	20.851806	0.000628	6.284341	1.064596	-0.000126
1181	1.1741e+02	-3.5062	20.738766	0.000568	5.676179	0.961571	-0.000114
1182	1.1751e+02	-3.5258	20.597467	0.000710	7.095223	1.201963	-0.000142
1183	1.1761e+02	-3.5452	20.476352	0.000608	6.081620	1.030254	-0.000122
1184	1.1771e+02	-3.5652	20.326978	0.000750	7.500665	1.270647	-0.000150
1185	1.1781e+02	-3.5849	20.238161	0.000446	4.459855	0.755520	-0.000089
1186	1.1791e+02	-3.6053	20.076676	0.000811	8.108827	1.373672	-0.000162
1187	1.1801e+02	-3.6292	19.947488	0.000649	6.487061	1.098938	-0.000130
1188	1.1811e+02	-3.6465	19.842522	0.000527	5.270737	0.892887	-0.000105
1189	1.1821e+02	-3.6647	19.713334	0.000649	6.487061	1.098938	-0.000130
1190	1.1831e+02	-3.6852	19.572034	0.000710	7.095223	1.201963	-0.000142
1191	1.1841e+02	-3.7048	19.446883	0.000628	6.284341	1.064596	-0.000126
1192	1.1850e+02	-3.7252	19.317695	0.000649	6.487061	1.098938	-0.000130
1193	1.1860e+02	-3.7448	19.152172	0.000831	8.311547	1.408014	-0.000166
1194	1.1870e+02	-3.7660	19.055281	0.000487	4.865296	0.824203	-0.000097
1195	1.1880e+02	-3.7848	18.909944	0.000730	7.297944	1.236305	-0.000146
1196	1.1890e+02	-3.8046	18.796904	0.000568	5.676179	0.961571	-0.000114
1197	1.1900e+02	-3.8242	18.695976	0.000507	5.068017	0.858545	-0.000101
1198	1.1910e+02	-3.8437	18.518342	0.000892	8.919709	1.511040	-0.000179
1199	1.1920e+02	-3.8640	18.401265	0.000588	5.878899	0.995913	-0.000118
1200	1.1930e+02	-3.8837	18.264002	0.000689	6.892503	1.167622	-0.000138
1201	1.1940e+02	-3.9041	18.150962	0.000568	5.676179	0.961571	-0.000114
1202	1.1950e+02	-3.9236	18.033885	0.000588	5.878899	0.995913	-0.000118
1203	1.1960e+02	-3.9437	17.888548	0.000730	7.297944	1.236305	-0.000146
1204	1.1970e+02	-3.9630	17.723026	0.000831	8.311547	1.408014	-0.000166
1205	1.1980e+02	-3.9838	17.601912	0.000608	6.081620	1.030254	-0.000122
1206	1.1990e+02	-4.0031	17.480798	0.000608	6.081620	1.030254	-0.000122
1207	1.2000e+02	-4.0233	17.343535	0.000689	6.892503	1.167622	-0.000138
1208	1.2010e+02	-4.0437	17.226458	0.000588	5.878899	0.995913	-0.000118
1209	1.2020e+02	-4.0636	17.073047	0.000770	7.703385	1.304989	-0.000154
1210	1.2030e+02	-4.0837	16.960007	0.000568	5.676179	0.961571	-0.000114
1211	1.2039e+02	-4.1037	16.802559	0.000791	7.906106	1.339331	-0.000158
1212	1.2049e+02	-4.1232	16.697593	0.000527	5.270737	0.892887	-0.000105
1213	1.2059e+02	-4.1431	16.568405	0.000649	6.487061	1.098938	-0.000130
1214	1.2069e+02	-4.1632	16.447291	0.000608	6.081620	1.030254	-0.000122
1215	1.2079e+02	-4.1832	16.289843	0.000791	7.906106	1.339331	-0.000158
1216	1.2089e+02	-4.2032	16.184877	0.000527	5.270737	0.892887	-0.000105
1217	1.2099e+02	-4.2218	16.063763	0.000608	6.081620	1.030254	-0.000122
1218	1.2109e+02	-4.2429	15.942649	0.000608	6.081620	1.030254	-0.000122
1219	1.2119e+02	-4.2628	15.752904	0.000953	9.527871	1.614065	-0.000191
1220	1.2129e+02	-4.2830	15.623715	0.000649	6.487061	1.098938	-0.000130
1221	1.2139e+02	-4.3026	15.466267	0.000791	7.906106	1.339331	-0.000158
1222	1.2149e+02	-4.3223	15.393599	0.000365	3.648972	0.618153	-0.000073
1223	1.2159e+02	-4.3420	15.240187	0.000770	7.703385	1.304989	-0.000154
1224	1.2169e+02	-4.3620	15.110999	0.000649	6.487061	1.098938	-0.000130
1225	1.2179e+02	-4.3825	14.989885	0.000608	6.081620	1.030254	-0.000122
1226	1.2189e+02	-4.4023	14.892994	0.000487	4.865296	0.824203	-0.000097
1227	1.2199e+02	-4.4214	14.727471	0.000831	8.311547	1.408014	-0.000166
1228	1.2209e+02	-4.4423	14.622506	0.000527	5.270737	0.892887	-0.000105
1229	1.2219e+02	-4.4615	14.456983	0.000831	8.311547	1.408014	-0.000166
1230	1.2229e+02	-4.4820	14.352018	0.000527	5.270737	0.892887	-0.000105
1231	1.2239e+02	-4.5010	14.182458	0.000851	8.514268	1.442356	-0.000170
1232	1.2248e+02	-4.5210	14.089604	0.000466	4.662575	0.789862	-0.000093
1233	1.2258e+02	-4.5411	13.911970	0.000892	8.919709	1.511040	-0.000179
1234	1.2268e+02	-4.5616	13.815078	0.000487	4.865296	0.824203	-0.000097
1235	1.2278e+02	-4.5818	13.702039	0.000568	5.676179	0.961571	-0.000114
1236	1.2288e+02	-4.6008	13.548628	0.000770	7.703385	1.304989	-0.000154
1237	1.2298e+02	-4.6214	13.415402	0.000669	6.689782	1.133280	-0.000134
1238	1.2308e+02	-4.6417	13.290251	0.000628	6.284341	1.064596	-0.000126
1239	1.2318e+02	-4.6611	13.169137	0.000608	6.081620	1.030254	-0.000122
1240	1.2328e+02	-4.6810	13.023800	0.000730	7.297944	1.236305	-0.000146
1241	1.2338e+02	-4.7010	12.878463	0.000730	7.297944	1.236305	-0.000146
1242	1.2348e+02	-4.7222	12.733126	0.000730	7.297944	1.236305	-0.000146
1243	1.2358e+02	-4.7397	12.616049	0.000588	5.878899	0.995913	-0.000118
1244	1.2368e+02	-4.7613	12.486861	0.000649	6.487061	1.098938	-0.000130
1245	1.2378e+02	-4.7806	12.345561	0.000710	7.095223	1.201963	-0.000142
1246	1.2388e+02	-4.8008	12.212336	0.000669	6.689782	1.133280	-0.000134
1247	1.2398e+02	-4.8196	12.066999	0.000730	7.297944	1.236305	-0.000146
1248	1.2408e+02	-4.8398	11.945885	0.000608	6.081620	1.030254	-0.000122
1249	1.2418e+02	-4.8604	11.804585	0.000710	7.095223	1.201963	-0.000142
1250	1.2428e+02	-4.8801	11.667322	0.000689	6.892503	1.167622	-0.000138
1251	1.2438e+02	-4.8990	11.526023	0.000710	7.095223	1.201963	-0.000142
1252	1.2447e+02	-4.9200	11.400871	0.000628	6.284341	1.064596	-0.000126
1253	1.2457e+02	-4.9400	11.283794	0.000588	5.878899	0.995913	-0.000118
1254	1.2467e+02	-4.9596	11.146532	0.000689	6.892503	1.167622	-0.000138
1255	1.2477e+02	-4.9800	10.985046	0.000811	8.108827	1.373672	-0.000162
1256	1.2487e+02	-5.0003	10.835672	0.000750	7.500665	1.270647	-0.000150
1257	1.2497e+02	-5.0191	10.702447	0.000669	6.689782	1.133280	-0.000134
1258	1.2507e+02	-5.0397	10.532887	0.000851	8.514268	1.442356	-0.000170
1259	1.2517e+02	-5.0601	10.403699	0.000649	6.487061	1.098938	-0.000130
1260	1.2527e+02	-5.0800	10.250288	0.000770	7.703385	1.304989	-0.000154
1261	1.2537e+02	-5.0998	10.149359	0.000507	5.068017	0.858545	-0.000101
1262	1.2547e+02	-5.1187	9.971725	0.000892	8.919709	1.511040	-0.000179
1263	1.2557e+02	-5.1392	9.830426	0.000710	7.095223	1.201963	-0.000142
1264	1.2567e+02	-5.1584	9.729497	0.000507	5.068017	0.858545	-0.000101
1265	1.2577e+02	-5.1788	9.580123	0.000750	7.500665	1.270647	-0.000150
1266	1.2587e+02	-5.1984	9.414601	0.000831	8.311547	1.408014	-0.000166
1267	1.2597e+02	-5.2192	9.285412	0.000649	6.487061	1.098938	-0.000130
1268	1.2607e+02	-5.2402	9.160261	0.000628	6.284341	1.064596	-0.000126
1269	1.2617e+02	-5.2583	9.018961	0.000710	7.095223	1.201963	-0.000142
1270	1.2627e+02	-5.2794	8.897847	0.000608	6.081620	1.030254	-0.000122
1271	1.2636e+02	-5.2989	8.691953	0.001034	10.338754	1.751432	-0.000207
1272	1.2646e+02	-5.3180	8.570839	0.000608	6.081620	1.030254	-0.000122
1273	1.2656e+02	-5.3377	8.477985	0.000466	4.662575	0.789862	-0.000093
1274	1.2666e+02	-5.3579	8.292277	0.000933	9.325151	1.579723	-0.000187
1275	1.2676e+02	-5.3786	8.163088	0.000649	6.487061	1.098938	-0.000130
1276	1.2686e+02	-5.3981	7.989492	0.000872	8.716989	1.476698	-0.000174
1277	1.2696e+02	-5.4176	7.864340	0.000628	6.284341	1.064596	-0.000126
1278	1.2706e+02	-5.4376	7.719004	0.000730	7.297944	1.236305	-0.000146
1279	1.2716e+02	-5.4577	7.569630	0.000750	7.500665	1.270647	-0.000150
1280	1.2726e+02	-5.4785	7.444478	0.000628	6.284341	1.064596	-0.000126
1281	1.2736e+02	-5.4985	7.270881	0.000872	8.716989	1.476698	-0.000174
1282	1.2746e+02	-5.5176	7.129582	0.000710	7.095223	1.201963	-0.000142
1283	1.2756e+02	-5.5379	6.984245	0.000730	7.297944	1.236305	-0.000146
1284	1.2766e+02	-5.5579	6.859094	0.000628	6.284341	1.064596	-0.000126
1285	1.2776e+02	-5.5777	6.697608	0.000811	8.108827	1.373672	-0.000162
1286	1.2786e+02	-5.5982	6.536123	0.000811	8.108827	1.373672	-0.000162
1287	1.2796e+02	-5.6181	6.370600	0.000831	8.311547	1.408014	-0.000166
1288	1.2806e+02	-5.6380	6.205078	0.000831	8.311547	1.408014	-0.000166
1289	1.2816e+02	-5.6564	6.075889	0.000649	6.487061	1.098938	-0.000130
1290	1.2826e+02	-5.6768	5.958812	0.000588	5.878899	0.995913	-0.000118
1291	1.2835e+02	-5.6972	5.773104	0.000933	9.325151	1.579723	-0.000187
1292	1.2845e+02	-5.7175	5.656027	0.000588	5.878899	0.995913	-0.000118
1293	1.2855e+02	-5.7368	5.466282	0.000953	9.527871	1.614065	-0.000191
1294	1.2865e+02	-5.7561	5.300759	0.000831	8.311547	1.408014	-0.000166
1295	1.2875e+02	-5.7773	5.187719	0.000568	5.676179	0.961571	-0.000114
1296	1.2885e+02	-5.7962	5.046420	0.000710	7.095223	1.201963	-0.000142
1297	1.2895e+02	-5.8160	4.828414	0.001095	10.946916	1.854458	-0.000219
1298	1.2905e+02	-5.8372	4.695189	0.000669	6.689782	1.133280	-0.000134
1299	1.2915e+02	-5.8569	4.513518	0.000912	9.122430	1.545381	-0.000183
1300	1.2925e+02	-5.8755	4.380292	0.000669	6.689782	1.133280	-0.000134
1301	1.2935e+02	-5.8957	4.194584	0.000933	9.325151	1.579723	-0.000187
1302	1.2945e+02	-5.9167	3.992727	0.001014	10.136033	1.717091	-0.000203
1303	1.2955e+02	-5.9357	3.863539	0.000649	6.487061	1.098938	-0.000130
1304	1.2965e+02	-5.9557	3.714165	0.000750	7.500665	1.270647	-0.000150
1305	1.2975e+02	-5.9756	3.560754	0.000770	7.703385	1.304989	-0.000154
1306	1.2985e+02	-5.9967	3.395231	0.000831	8.311547	1.408014	-0.000166
1307	1.2995e+02	-6.0164	3.209523	0.000933	9.325151	1.579723	-0.000187
1308	1.3005e+02	-6.0352	3.052075	0.000791	7.906106	1.339331	-0.000158
1309	1.3015e+02	-6.0558	2.886552	0.000831	8.311547	1.408014	-0.000166
1310	1.3025e+02	-6.0767	2.712955	0.000872	8.716989	1.476698	-0.000174
1311	1.3034e+02	-6.0963	2.543396	0.000851	8.514268	1.442356	-0.000170
1312	1.3044e+02	-6.1156	2.357687	0.000933	9.325151	1.579723	-0.000187
1313	1.3054e+02	-6.1354	2.196202	0.000811	8.108827	1.373672	-0.000162
1314	1.3064e+02	-6.1551	2.034716	0.000811	8.108827	1.373672	-0.000162
1315	1.3074e+02	-6.1749	1.885342	0.000750	7.500665	1.270647	-0.000150
1316	1.3084e+02	-6.1955	1.687523	0.000993	9.933313	1.682749	-0.000199
1317	1.3094e+02	-6.2157	1.501814	0.000933	9.325151	1.579723	-0.000187
1318	1.3104e+02	-6.2349	1.332255	0.000851	8.514268	1.442356	-0.000170
1319	1.3114e+02	-6.2546	1.154621	0.000892	8.919709	1.511040	-0.000179
1320	1.3124e+02	-6.2753	0.981024	0.000872	8.716989	1.476698	-0.000174
1321	1.3134e+02	-6.2944	0.795316	0.000933	9.325151	1.579723	-0.000187
1322	1.3144e+02	-6.3147	0.609607	0.000933	9.325151	1.579723	-0.000187
1323	1.3154e+02	-6.3347	0.436011	0.000872	8.716989	1.476698	-0.000174
1324	1.3164e+02	-6.3545	0.242228	0.000973	9.730592	1.648407	-0.000195
1325	1.3174e+02	-6.3742	0.052483	0.000953	9.527871	1.614065	-0.000191
1326	1.3184e+02	-6.3928	-0.125151	0.000892	8.919709	1.511040	-0.000179
1327	1.3194e+02	-6.4141	-0.318934	0.000973	9.730592	1.648407	-0.000195
1328	1.3204e+02	-6.4355	-0.480419	0.000811	8.108827	1.373672	-0.000162
1329	1.3214e+02	-6.4532	-0.645942	0.000831	8.311547	1.408014	-0.000166
1330	1.3224e+02	-6.4734	-0.884133	0.001196	11.960519	2.026167	-0.000239
1331	1.3234e+02	-6.4938	-1.073878	0.000953	9.527871	1.614065	-0.000191
1332	1.3243e+02	-6.5137	-1.239401	0.000831	8.311547	1.408014	-0.000166
1333	1.3253e+02	-6.5337	-1.429146	0.000953	9.527871	1.614065	-0.000191
1334	1.3263e+02	-6.5540	-1.639077	0.001054	10.541475	1.785774	-0.000211
1335	1.3273e+02	-6.5736	-1.832860	0.000973	9.730592	1.648407	-0.000195
1336	1.3283e+02	-6.5933	-2.042791	0.001054	10.541475	1.785774	-0.000211
1337	1.3293e+02	-6.6125	-2.220425	0.000892	8.919709	1.511040	-0.000179
1338	1.3303e+02	-6.6336	-2.430356	0.001054	10.541475	1.785774	-0.000211
1339	1.3313e+02	-6.6519	-2.636250	0.001034	10.338754	1.751432	-0.000207
1340	1.3323e+02	-6.6739	-2.834069	0.000993	9.933313	1.682749	-0.000199
1341	1.3333e+02	-6.6933	-3.039963	0.001034	10.338754	1.751432	-0.000207
1342	1.3343e+02	-6.7139	-3.237783	0.000993	9.933313	1.682749	-0.000199
1343	1.3353e+02	-6.7332	-3.427528	0.000953	9.527871	1.614065	-0.000191
1344	1.3363e+02	-6.7525	-3.653608	0.001135	11.352357	1.923141	-0.000227
1345	1.3373e+02	-6.7725	-3.863539	0.001054	10.541475	1.785774	-0.000211
1346	1.3383e+02	-6.7920	-4.069433	0.001034	10.338754	1.751432	-0.000207
1347	1.3393e+02	-6.8132	-4.267252	0.000993	9.933313	1.682749	-0.000199
1348	1.3403e+02	-6.8331	-4.509481	0.001216	12.163240	2.060509	-0.000243
1349	1.3413e+02	-6.8525	-4.691152	0.000912	9.122430	1.545381	-0.000183
1350	1.3423e+02	-6.8718	-4.921268	0.001156	11.555078	1.957483	-0.000231
1351	1.3432e+02	-6.8921	-5.167534	0.001237	12.365961	2.094850	-0.000248
1352	1.3442e+02	-6.9125	-5.397650	0.001156	11.555078	1.957483	-0.000231
1353	1.3452e+02	-6.9319	-5.563173	0.000831	8.311547	1.408014	-0.000166
1354	1.3462e+02	-6.9519	-5.777141	0.001074	10.744195	1.820116	-0.000215
1355	1.3472e+02	-6.9722	-6.031481	0.001277	12.771402	2.163534	-0.000256
1356	1.3482e+02	-6.9919	-6.249486	0.001095	10.946916	1.854458	-0.000219
1357	1.3492e+02	-7.0117	-6.483640	0.001176	11.757799	1.991825	-0.000235
1358	1.3502e+02	-7.0319	-6.729905	0.001237	12.365961	2.094850	-0.000248
1359	1.3512e+02	-7.0520	-6.955985	0.001135	11.352357	1.923141	-0.000227
1360	1.3522e+02	-7.0723	-7.182064	0.001135	11.352357	1.923141	-0.000227
1361	1.3532e+02	-7.0920	-7.396033	0.001074	10.744195	1.820116	-0.000215
1362	1.3542e+02	-7.1120	-7.682669	0.001439	14.393167	2.438269	-0.000288
1363	1.3552e+02	-7.1313	-7.864340	0.000912	9.122430	1.545381	-0.000183
1364	1.3562e+02	-7.1512	-8.094457	0.001156	11.555078	1.957483	-0.000231
1365	1.3572e+02	-7.1710	-8.381094	0.001439	14.393167	2.438269	-0.000288
1366	1.3582e+02	-7.1915	-8.643508	0.001318	13.176843	2.232218	-0.000264
1367	1.3592e+02	-7.2116	-8.829216	0.000933	9.325151	1.579723	-0.000187
1368	1.3602e+02	-7.2310	-9.136038	0.001541	15.406771	2.609978	-0.000308
1369	1.3612e+02	-7.2513	-9.333858	0.000993	9.933313	1.682749	-0.000199
1370	1.3622e+02	-7.2696	-9.592235	0.001297	12.974123	2.197876	-0.000260
1371	1.3631e+02	-7.2910	-9.886945	0.001480	14.798609	2.506952	-0.000296
1372	1.3641e+02	-7.3103	-10.117062	0.001156	11.555078	1.957483	-0.000231
1373	1.3651e+02	-7.3309	-10.395625	0.001399	13.987726	2.369585	-0.000280
1374	1.3661e+02	-7.3505	-10.654001	0.001297	12.974123	2.197876	-0.000260
1375	1.3671e+02	-7.3702	-10.908341	0.001277	12.771402	2.163534	-0.000256
1376	1.3681e+02	-7.3909	-11.162680	0.001277	12.771402	2.163534	-0.000256
1377	1.3691e+02	-7.4116	-11.404908	0.001216	12.163240	2.060509	-0.000243
1378	1.3701e+02	-7.4306	-11.707694	0.001520	15.204050	2.575636	-0.000304
1379	1.3711e+02	-7.4504	-11.937810	0.001156	11.555078	1.957483	-0.000231
1380	1.3721e+02	-7.4689	-12.176001	0.001196	11.960519	2.026167	-0.000239
1381	1.3731e+02	-7.4890	-12.515121	0.001703	17.028536	2.884712	-0.000341
1382	1.3741e+02	-7.5102	-12.785609	0.001358	13.582285	2.300901	-0.000272
1383	1.3751e+02	-7.5299	-13.048023	0.001318	13.176843	2.232218	-0.000264
1384	1.3761e+02	-7.5504	-13.318511	0.001358	13.582285	2.300901	-0.000272
1385	1.3771e+02	-7.5697	-13.597073	0.001399	13.987726	2.369585	-0.000280
1386	1.3781e+02	-7.5885	-13.903895	0.001541	15.406771	2.609978	-0.000308
1387	1.3791e+02	-7.6089	-14.166309	0.001318	13.176843	2.232218	-0.000264
1388	1.3801e+02	-7.6288	-14.489280	0.001622	16.217653	2.747345	-0.000325
1389	1.3811e+02	-7.6494	-14.755731	0.001338	13.379564	2.266559	-0.000268
1390	1.3821e+02	-7.6700	-15.038331	0.001419	14.190447	2.403927	-0.000284
1391	1.3831e+02	-7.6877	-15.316893	0.001399	13.987726	2.369585	-0.000280
1392	1.3840e+02	-7.7084	-15.599492	0.001419	14.190447	2.403927	-0.000284
1393	1.3850e+02	-7.7286	-15.934575	0.001683	16.825815	2.850370	-0.000337
1394	1.3860e+02	-7.7487	-16.221211	0.001439	14.393167	2.438269	-0.000288
1395	1.3870e+02	-7.7692	-16.536108	0.001581	15.812212	2.678661	-0.000316
1396	1.3880e+02	-7.7882	-16.834856	0.001500	15.001329	2.541294	-0.000300
1397	1.3890e+02	-7.8082	-17.133604	0.001500	15.001329	2.541294	-0.000300
1398	1.3900e+02	-7.8287	-17.440426	0.001541	15.406771	2.609978	-0.000308
1399	1.3910e+02	-7.8474	-17.731100	0.001460	14.595888	2.472610	-0.000292
1400	1.3920e+02	-7.8677	-18.090405	0.001804	18.042139	3.056421	-0.000361
1401	1.3930e+02	-7.8876	-18.429525	0.001703	17.028536	2.884712	-0.000341
1402	1.3940e+02	-7.9085	-18.695976	0.001338	13.379564	2.266559	-0.000268
1403	1.3950e+02	-7.9277	-19.027021	0.001662	16.623095	2.816028	-0.000333
1404	1.3960e+02	-7.9480	-19.374214	0.001743	17.433977	2.953396	-0.000349
1405	1.3970e+02	-7.9672	-19.681037	0.001541	15.406771	2.609978	-0.000308
1406	1.3980e+02	-7.9872	-20.012082	0.001662	16.623095	2.816028	-0.000333
1407	1.3990e+02	-8.0080	-20.351201	0.001703	17.028536	2.884712	-0.000341
1408	1.4000e+02	-8.0275	-20.662061	0.001561	15.609491	2.644319	-0.000312
1409	1.4010e+02	-8.0476	-21.017329	0.001784	17.839419	3.022079	-0.000357
1410	1.4020e+02	-8.0670	-21.356448	0.001703	17.028536	2.884712	-0.000341
1411	1.4029e+02	-8.0859	-21.691530	0.001683	16.825815	2.850370	-0.000337
1412	1.4039e+02	-8.1066	-22.058910	0.001845	18.447581	3.125105	-0.000369
1413	1.4049e+02	-8.1270	-22.381881	0.001622	16.217653	2.747345	-0.000325
1414	1.4059e+02	-8.1476	-22.737148	0.001784	17.839419	3.022079	-0.000357
1415	1.4069e+02	-8.1668	-23.092416	0.001784	17.839419	3.022079	-0.000357
1416	1.4079e+02	-8.1873	-23.407313	0.001581	15.812212	2.678661	-0.000316
1417	1.4089e+02	-8.2065	-23.815064	0.002047	20.474787	3.468523	-0.000410
1418	1.4099e+02	-8.2277	-24.146109	0.001662	16.623095	2.816028	-0.000333
1419	1.4109e+02	-8.2465	-24.545785	0.002007	20.069346	3.399839	-0.000402
1420	1.4119e+02	-8.2661	-24.965647	0.002108	21.082949	3.571548	-0.000422
1421	1.4129e+02	-8.2858	-25.288618	0.001622	16.217653	2.747345	-0.000325
1422	1.4139e+02	-8.3055	-25.639849	0.001764	17.636698	2.987738	-0.000353
1423	1.4149e+02	-8.3258	-26.015303	0.001885	18.853022	3.193788	-0.000377
1424	1.4159e+02	-8.3453	-26.402868	0.001946	19.461184	3.296814	-0.000390
1425	1.4169e+02	-8.3656	-26.834841	0.002169	21.691111	3.674574	-0.000434
1426	1.4179e+02	-8.3867	-27.242592	0.002047	20.474787	3.468523	-0.000410
1427	1.4189e+02	-8.4065	-27.614008	0.001865	18.650301	3.159447	-0.000373
1428	1.4199e+02	-8.4267	-28.009648	0.001987	19.866625	3.365497	-0.000398
1429	1.4209e+02	-8.4447	-28.413361	0.002027	20.272067	3.434181	-0.000406
1430	1.4219e+02	-8.4654	-28.825149	0.002068	20.677508	3.502865	-0.000414
1431	1.4228e+02	-8.4860	-29.204640	0.001906	19.055743	3.228130	-0.000381
1432	1.4238e+02	-8.5056	-29.620465	0.002088	20.880229	3.537206	-0.000418
1433	1.4248e+02	-8.5252	-30.036290	0.002088	20.880229	3.537206	-0.000418
1434	1.4258e+02	-8.5449	-30.468263	0.002169	21.691111	3.674574	-0.000434
1435	1.4268e+02	-8.5651	-30.855828	0.001946	19.461184	3.296814	-0.000390
1436	1.4278e+02	-8.5858	-31.275691	0.002108	21.082949	3.571548	-0.000422
1437	1.4288e+02	-8.6055	-31.715738	0.002210	22.096553	3.743257	-0.000442
1438	1.4298e+02	-8.6247	-32.163860	0.002250	22.501994	3.811941	-0.000450
1439	1.4308e+02	-8.6449	-32.607945	0.002230	22.299273	3.777599	-0.000446
1440	1.4318e+02	-8.6649	-33.015696	0.002047	20.474787	3.468523	-0.000410
1441	1.4328e+02	-8.6846	-33.475930	0.002311	23.110156	3.914966	-0.000463
1442	1.4338e+02	-8.7055	-33.924052	0.002250	22.501994	3.811941	-0.000450
1443	1.4348e+02	-8.7256	-34.376211	0.002270	22.704715	3.846283	-0.000454
1444	1.4358e+02	-8.7446	-34.824333	0.002250	22.501994	3.811941	-0.000450
1445	1.4368e+02	-8.7651	-35.288603	0.002331	23.312877	3.949308	-0.000467
1446	1.4378e+02	-8.7837	-35.704428	0.002088	20.880229	3.537206	-0.000418
1447	1.4388e+02	-8.8043	-36.184848	0.002412	24.123759	4.086675	-0.000483
1448	1.4398e+02	-8.8230	-36.673341	0.002453	24.529201	4.155359	-0.000491
1449	1.4408e+02	-8.8431	-37.145686	0.002372	23.718318	4.017992	-0.000475
1450	1.4418e+02	-8.8638	-37.593808	0.002250	22.501994	3.811941	-0.000450
1451	1.4428e+02	-8.8828	-38.094413	0.002514	25.137363	4.258385	-0.000503
1452	1.4437e+02	-8.9039	-38.578869	0.002433	24.326480	4.121017	-0.000487
1453	1.4447e+02	-8.9243	-39.075437	0.002493	24.934642	4.224043	-0.000499
1454	1.4457e+02	-8.9430	-39.592190	0.002595	25.948245	4.395752	-0.000519
1455	1.4467e+02	-8.9643	-40.072609	0.002412	24.123759	4.086675	-0.000483
1456	1.4477e+02	-8.9830	-40.553028	0.002412	24.123759	4.086675	-0.000483
1457	1.4487e+02	-9.0031	-41.073819	0.002615	26.150966	4.430094	-0.000523
1458	1.4497e+02	-9.0240	-41.602684	0.002656	26.556407	4.498777	-0.000532
1459	1.4507e+02	-9.0430	-42.099251	0.002493	24.934642	4.224043	-0.000499
1460	1.4517e+02	-9.0639	-42.648302	0.002757	27.570011	4.670486	-0.000552
1461	1.4527e+02	-9.0829	-43.148907	0.002514	25.137363	4.258385	-0.000503
1462	1.4537e+02	-9.1028	-43.697957	0.002757	27.570011	4.670486	-0.000552
1463	1.4547e+02	-9.1232	-44.230859	0.002676	26.759128	4.533119	-0.000536
1464	1.4557e+02	-9.1435	-44.796058	0.002838	28.380893	4.807853	-0.000568
1465	1.4567e+02	-9.1626	-45.345109	0.002757	27.570011	4.670486	-0.000552
1466	1.4577e+02	-9.1824	-45.934530	0.002960	29.597217	5.013904	-0.000592
1467	1.4587e+02	-9.2021	-46.487618	0.002777	27.772731	4.704828	-0.000556
1468	1.4597e+02	-9.2221	-47.036668	0.002757	27.570011	4.670486	-0.000552
1469	1.4607e+02	-9.2416	-47.601867	0.002838	28.380893	4.807853	-0.000568
1470	1.4617e+02	-9.2625	-48.199364	0.003000	30.002659	5.082588	-0.000600
1471	1.4626e+02	-9.2828	-48.764563	0.002838	28.380893	4.807853	-0.000568
1472	1.4636e+02	-9.3013	-49.378207	0.003081	30.813541	5.219955	-0.000617
1473	1.4646e+02	-9.3217	-49.927258	0.002757	27.570011	4.670486	-0.000552
1474	1.4656e+02	-9.3419	-50.561088	0.003183	31.827145	5.391664	-0.000637
1475	1.4666e+02	-9.3623	-51.174733	0.003081	30.813541	5.219955	-0.000617
1476	1.4676e+02	-9.3832	-51.764154	0.002960	29.597217	5.013904	-0.000592
1477	1.4686e+02	-9.4006	-52.377799	0.003081	30.813541	5.219955	-0.000617
1478	1.4696e+02	-9.4218	-53.060075	0.003426	34.259793	5.803766	-0.000686
1479	1.4706e+02	-9.4418	-53.649497	0.002960	29.597217	5.013904	-0.000592
1480	1.4716e+02	-9.4617	-54.319661	0.003365	33.651631	5.700741	-0.000674
1481	1.4726e+02	-9.4808	-54.925232	0.003041	30.408100	5.151272	-0.000609
1482	1.4736e+02	-9.5016	-55.583285	0.003304	33.043469	5.597715	-0.000661
1483	1.4746e+02	-9.5216	-56.233264	0.003264	32.638027	5.529031	-0.000653
1484	1.4756e+02	-9.5409	-56.887280	0.003284	32.840748	5.563373	-0.000657
1485	1.4766e+02	-9.5604	-57.581667	0.003487	34.867955	5.906791	-0.000698
1486	1.4776e+02	-9.5810	-58.239720	0.003304	33.043469	5.597715	-0.000661
1487	1.4786e+02	-9.6010	-58.926033	0.003446	34.462513	5.838108	-0.000690
1488	1.4796e+02	-9.6214	-59.636569	0.003568	35.678837	6.044159	-0.000714
1489	1.4806e+02	-9.6407	-60.343068	0.003548	35.476117	6.009817	-0.000710
1490	1.4816e+02	-9.6606	-61.005158	0.003325	33.246189	5.632057	-0.000665
1491	1.4825e+02	-9.6800	-61.743954	0.003710	37.097882	6.284551	-0.000743
1492	1.4835e+02	-9.7006	-62.430267	0.003446	34.462513	5.838108	-0.000690
1493	1.4845e+02	-9.7211	-63.160989	0.003669	36.692441	6.215868	-0.000734
1494	1.4855e+02	-9.7407	-63.895747	0.003690	36.895161	6.250210	-0.000738
1495	1.4865e+02	-9.7604	-64.646655	0.003771	37.706044	6.387577	-0.000755
1496	1.4875e+02	-9.7797	-65.385450	0.003710	37.097882	6.284551	-0.000743
1497	1.4885e+02	-9.7998	-66.156543	0.003872	38.719647	6.559286	-0.000775
1498	1.4895e+02	-9.8196	-66.927636	0.003872	38.719647	6.559286	-0.000775
1499	1.4905e+02	-9.8402	-67.690655	0.003831	38.314206	6.490602	-0.000767
1500	1.4915e+02	-9.8604	-68.449636	0.003811	38.111485	6.456260	-0.000763
1501	1.4925e+02	-9.8792	-69.244952	0.003994	39.935971	6.765337	-0.000799
1502	1.4935e+02	-9.8990	-70.007971	0.003831	38.314206	6.490602	-0.000767
1503	1.4945e+02	-9.9194	-70.823472	0.004095	40.949575	6.937046	-0.000820
1504	1.4955e+02	-9.9385	-71.606677	0.003933	39.327809	6.662311	-0.000787
1505	1.4965e+02	-9.9596	-72.418141	0.004075	40.746854	6.902704	-0.000816
1506	1.4975e+02	-9.9788	-73.294199	0.004399	43.990385	7.452173	-0.000880
1507	1.4985e+02	-10.0000	-74.065292	0.003872	38.719647	6.559286	-0.000775
1508	1.4995e+02	-9.9789	-74.767754	-0.003527	-35.273396	-5.975475	-0.000706
1509	1.5005e+02	-9.9591	-75.377361	-0.003061	-30.610821	-5.185613	-0.000613
1510	1.5015e+02	-9.9397	-76.007155	-0.003162	-31.624424	-5.357322	-0.000633
1511	1.5025e+02	-9.9191	-76.552168	-0.002737	-27.367290	-4.636144	-0.000548
1512	1.5034e+02	-9.8996	-77.129478	-0.002899	-28.989055	-4.910879	-0.000580
1513	1.5044e+02	-9.8795	-77.646232	-0.002595	-25.948245	-4.395752	-0.000519
1514	1.5054e+02	-9.8598	-78.102428	-0.002291	-22.907435	-3.880625	-0.000458
1515	1.5064e+02	-9.8398	-78.631293	-0.002656	-26.556407	-4.498777	-0.000532
1516	1.5074e+02	-9.8202	-79.083452	-0.002270	-22.704715	-3.846283	-0.000454
1517	1.5084e+02	-9.8001	-79.612317	-0.002656	-26.556407	-4.498777	-0.000532
1518	1.5094e+02	-9.7800	-79.983733	-0.001865	-18.650301	-3.159447	-0.000373
1519	1.5104e+02	-9.7597	-80.411670	-0.002149	-21.488391	-3.640232	-0.000430
1520	1.5114e+02	-9.7412	-80.819420	-0.002047	-20.474787	-3.468523	-0.000410
1521	1.5124e+02	-9.7202	-81.206985	-0.001946	-19.461184	-3.296814	-0.000390
1522	1.5134e+02	-9.7005	-81.582439	-0.001885	-18.853022	-3.193788	-0.000377
1523	1.5144e+02	-9.6806	-81.974041	-0.001966	-19.663905	-3.331156	-0.000394
1524	1.5154e+02	-9.6611	-82.317198	-0.001723	-17.231257	-2.919054	-0.000345
1525	1.5164e+02	-9.6402	-82.676503	-0.001804	-18.042139	-3.056421	-0.000361
1526	1.5174e+02	-9.6213	-83.043882	-0.001845	-18.447581	-3.125105	-0.000369
1527	1.5184e+02	-9.6004	-83.370890	-0.001642	-16.420374	-2.781687	-0.000329
1528	1.5194e+02	-9.5808	-83.673675	-0.001520	-15.204050	-2.575636	-0.000304
1529	1.5204e+02	-9.5605	-84.020869	-0.001743	-17.433977	-2.953396	-0.000349
1530	1.5214e+02	-9.5412	-84.267134	-0.001237	-12.365961	-2.094850	-0.000248
1531	1.5224e+02	-9.5210	-84.586068	-0.001601	-16.014933	-2.713003	-0.000321
1532	1.5233e+02	-9.5015	-84.892890	-0.001541	-15.406771	-2.609978	-0.000308
1533	1.5243e+02	-9.4815	-85.147230	-0.001277	-12.771402	-2.163534	-0.000256
1534	1.5253e+02	-9.4611	-85.365235	-0.001095	-10.946916	-1.854458	-0.000219
1535	1.5263e+02	-9.4428	-85.684169	-0.001601	-16.014933	-2.713003	-0.000321
1536	1.5273e+02	-9.4221	-85.950620	-0.001338	-13.379564	-2.266559	-0.000268
1537	1.5283e+02	-9.4016	-86.180737	-0.001156	-11.555078	-1.957483	-0.000231
1538	1.5293e+02	-9.3813	-86.451225	-0.001358	-13.582285	-2.300901	-0.000272
1539	1.5303e+02	-9.3623	-86.640970	-0.000953	-9.527871	-1.614065	-0.000191
1540	1.5313e+02	-9.3414	-86.863013	-0.001115	-11.149637	-1.888800	-0.000223
1541	1.5323e+02	-9.3211	-87.089092	-0.001135	-11.352357	-1.923141	-0.000227
1542	1.5333e+02	-9.3015	-87.303060	-0.001074	-10.744195	-1.820116	-0.000215
1543	1.5343e+02	-9.2831	-87.496843	-0.000973	-9.730592	-1.648407	-0.000195
1544	1.5353e+02	-9.2622	-87.642180	-0.000730	-7.297944	-1.236305	-0.000146
1545	1.5363e+02	-9.2426	-87.872296	-0.001156	-11.555078	-1.957483	-0.000231
1546	1.5373e+02	-9.2224	-88.049930	-0.000892	-8.919709	-1.511040	-0.000179
1547	1.5383e+02	-9.2036	-88.195267	-0.000730	-7.297944	-1.236305	-0.000146
1548	1.5393e+02	-9.1819	-88.356753	-0.000811	-8.108827	-1.373672	-0.000162
1549	1.5403e+02	-9.1624	-88.498053	-0.000710	-7.095223	-1.201963	-0.000142
1550	1.5413e+02	-9.1430	-88.712021	-0.001074	-10.744195	-1.820116	-0.000215
1551	1.5422e+02	-9.1228	-88.861395	-0.000750	-7.500665	-1.270647	-0.000150
1552	1.5432e+02	-9.1035	-89.002694	-0.000710	-7.095223	-1.201963	-0.000142
1553	1.5442e+02	-9.0822	-89.148031	-0.000730	-7.297944	-1.236305	-0.000146
1554	1.5452e+02	-9.0637	-89.289331	-0.000710	-7.095223	-1.201963	-0.000142
1555	1.5462e+02	-9.0428	-89.438705	-0.000750	-7.500665	-1.270647	-0.000150
1556	1.5472e+02	-9.0233	-89.588079	-0.000750	-7.500665	-1.270647	-0.000150
1557	1.5482e+02	-9.0036	-89.668822	-0.000405	-4.054413	-0.686836	-0.000081
1558	1.5492e+02	-8.9830	-89.798010	-0.000649	-6.487061	-1.098938	-0.000130
1559	1.5502e+02	-8.9638	-89.907013	-0.000547	-5.473458	-0.927229	-0.000110
1560	1.5512e+02	-8.9424	-90.007941	-0.000507	-5.068017	-0.858545	-0.000101
1561	1.5522e+02	-8.9238	-90.141167	-0.000669	-6.689782	-1.133280	-0.000134
1562	1.5532e+02	-8.9041	-90.193650	-0.000264	-2.635369	-0.446444	-0.000053
1563	1.5542e+02	-8.8837	-90.294578	-0.000507	-5.068017	-0.858545	-0.000101
1564	1.5552e+02	-8.8646	-90.375321	-0.000405	-4.054413	-0.686836	-0.000081
1565	1.5562e+02	-8.8434	-90.504509	-0.000649	-6.487061	-1.098938	-0.000130
1566	1.5572e+02	-8.8237	-90.577177	-0.000365	-3.648972	-0.618153	-0.000073
1567	1.5582e+02	-8.8045	-90.690217	-0.000568	-5.676179	-0.961571	-0.000114
1568	1.5592e+02	-8.7839	-90.710403	-0.000101	-1.013603	-0.171709	-0.000020
1569	1.5602e+02	-8.7645	-90.827480	-0.000588	-5.878899	-0.995913	-0.000118
1570	1.5612e+02	-8.7442	-90.867851	-0.000203	-2.027207	-0.343418	-0.000041
1571	1.5622e+02	-8.7236	-90.964742	-0.000487	-4.865296	-0.824203	-0.000097
1572	1.5631e+02	-8.7055	-91.029337	-0.000324	-3.243531	-0.549469	-0.000065
1573	1.5641e+02	-8.6853	-91.097968	-0.000345	-3.446251	-0.583811	-0.000069
1574	1.5651e+02	-8.6650	-91.122191	-0.000122	-1.216324	-0.206051	-0.000024
1575	1.5661e+02	-8.6447	-91.223119	-0.000507	-5.068017	-0.858545	-0.000101
1576	1.5671e+02	-8.6253	-91.267528	-0.000223	-2.229927	-0.377760	-0.000045
1577	1.5681e+02	-8.6049	-91.295788	-0.000142	-1.419045	-0.240393	-0.000028
1578	1.5691e+02	-8.5854	-91.360382	-0.000324	-3.243531	-0.549469	-0.000065
1579	1.5701e+02	-8.5648	-91.380567	-0.000101	-1.013603	-0.171709	-0.000020
1580	1.5711e+02	-8.5457	-91.384605	-0.000020	-0.202721	-0.034342	-0.000004
1581	1.5721e+02	-8.5249	-91.441124	-0.000284	-2.838089	-0.480785	-0.000057
1582	1.5731e+02	-8.5053	-91.521867	-0.000405	-4.054413	-0.686836	-0.000081
1583	1.5741e+02	-8.4854	-91.529941	-0.000041	-0.405441	-0.068684	-0.000008
1584	1.5751e+02	-8.4659	-91.566276	-0.000182	-1.824486	-0.309076	-0.000037
1585	1.5761e+02	-8.4457	-91.602610	-0.000182	-1.824486	-0.309076	-0.000037
1586	1.5771e+02	-8.4255	-91.651056	-0.000243	-2.432648	-0.412102	-0.000049
1587	1.5781e+02	-8.4068	-91.642981	0.000041	0.405441	0.068684	0.000008
1588	1.5791e+02	-8.3859	-91.683353	-0.000203	-2.027207	-0.343418	-0.000041
1589	1.5801e+02	-8.3656	-91.723724	-0.000203	-2.027207	-0.343418	-0.000041
1590	1.5811e+02	-8.3463	-91.739873	-0.000081	-0.810883	-0.137367	-0.000016
1591	1.5821e+02	-8.3263	-91.707575	0.000162	1.621765	0.274734	0.000032
1592	1.5830e+02	-8.3069	-91.735835	-0.000142	-1.419045	-0.240393	-0.000028
1593	1.5840e+02	-8.2861	-91.719687	0.000081	0.810883	0.137367	0.000016
1594	1.5850e+02	-8.2661	-91.812541	-0.000466	-4.662575	-0.789862	-0.000093
1595	1.5860e+02	-8.2458	-91.800430	0.000061	0.608162	0.103025	0.000012
1596	1.5870e+02	-8.2266	-91.800430	0.000000	0.000000	0.000000	0.000000
1597	1.5880e+02	-8.2062	-91.784281	0.000081	0.810883	0.137367	0.000016
1598	1.5890e+02	-8.1874	-91.804467	-0.000101	-1.013603	-0.171709	-0.000020
1599	1.5900e+02	-8.1665	-91.820615	-0.000081	-0.810883	-0.137367	-0.000016
1600	1.5910e+02	-8.1473	-91.792355	0.000142	1.419045	0.240393	0.000028
1601	1.5920e+02	-8.1267	-91.800430	-0.000041	-0.405441	-0.068684	-0.000008
1602	1.5930e+02	-8.1073	-91.751984	0.000243	2.432648	0.412102	0.000049
1603	1.5940e+02	-8.0870	-91.756021	-0.000020	-0.202721	-0.034342	-0.000004
1604	1.5950e+02	-8.0673	-91.743910	0.000061	0.608162	0.103025	0.000012
1605	1.5960e+02	-8.0478	-91.764095	-0.000101	-1.013603	-0.171709	-0.000020
1606	1.5970e+02	-8.0268	-91.731798	0.000162	1.621765	0.274734	0.000032
1607	1.5980e+02	-8.0074	-91.727761	0.000020	0.202721	0.034342	0.000004
1608	1.5990e+02	-7.9877	-91.731798	-0.000020	-0.202721	-0.034342	-0.000004
1609	1.6000e+02	-7.9672	-91.715650	0.000081	0.810883	0.137367	0.000016
1610	1.6010e+02	-7.9483	-91.719687	-0.000020	-0.202721	-0.034342	-0.000004
1611	1.6019e+02	-7.9282	-91.606647	0.000568	5.676179	0.961571	0.000114
1612	1.6029e+02	-7.9079	-91.671241	-0.000324	-3.243531	-0.549469	-0.000065
1613	1.6039e+02	-7.8881	-91.574350	0.000487	4.865296	0.824203	0.000097
1614	1.6049e+02	-7.8682	-91.554164	0.000101	1.013603	0.171709	0.000020
1615	1.6059e+02	-7.8473	-91.546090	0.000041	0.405441	0.068684	0.000008
1616	1.6069e+02	-7.8280	-91.546090	0.000000	0.000000	0.000000	0.000000
1617	1.6079e+02	-7.8087	-91.521867	0.000122	1.216324	0.206051	0.000024
1618	1.6089e+02	-7.7877	-91.493607	0.000142	1.419045	0.240393	0.000028
1619	1.6099e+02	-7.7686	-91.437087	0.000284	2.838089	0.480785	0.000057
1620	1.6109e+02	-7.7462	-91.400753	0.000182	1.824486	0.309076	0.000037
1621	1.6119e+02	-7.7290	-91.332122	0.000345	3.446251	0.583811	0.000069
1622	1.6129e+02	-7.7103	-91.344233	-0.000061	-0.608162	-0.103025	-0.000012
1623	1.6139e+02	-7.6881	-91.283676	0.000304	3.040810	0.515127	0.000061
1624	1.6149e+02	-7.6689	-91.267528	0.000081	0.810883	0.137367	0.000016
1625	1.6159e+02	-7.6477	-91.194859	0.000365	3.648972	0.618153	0.000073
1626	1.6169e+02	-7.6285	-91.182748	0.000061	0.608162	0.103025	0.000012
1627	1.6179e+02	-7.6080	-91.126228	0.000284	2.838089	0.480785	0.000057
1628	1.6189e+02	-7.5891	-91.081819	0.000223	2.229927	0.377760	0.000045
1629	1.6199e+02	-7.5699	-91.093931	-0.000061	-0.608162	-0.103025	-0.000012
1630	1.6209e+02	-7.5508	-91.037411	0.000284	2.838089	0.480785	0.000057
1631	1.6219e+02	-7.5299	-90.976854	0.000304	3.040810	0.515127	0.000061
1632	1.6228e+02	-7.5087	-90.984928	-0.000041	-0.405441	-0.068684	-0.000008
1633	1.6238e+02	-7.4895	-90.920334	0.000324	3.243531	0.549469	0.000065
1634	1.6248e+02	-7.4692	-90.912260	0.000041	0.405441	0.068684	0.000008
1635	1.6258e+02	-7.4502	-90.815368	0.000487	4.865296	0.824203	0.000097
1636	1.6268e+02	-7.4297	-90.770960	0.000223	2.229927	0.377760	0.000045
1637	1.6278e+02	-7.4106	-90.726551	0.000223	2.229927	0.377760	0.000045
1638	1.6288e+02	-7.3904	-90.674069	0.000264	2.635369	0.446444	0.000053
1639	1.6298e+02	-7.3708	-90.617549	0.000284	2.838089	0.480785	0.000057
1640	1.6308e+02	-7.3497	-90.589289	0.000142	1.419045	0.240393	0.000028
1641	1.6318e+02	-7.3306	-90.548917	0.000203	2.027207	0.343418	0.000041
1642	1.6328e+02	-7.3108	-90.476249	0.000365	3.648972	0.618153	0.000073
1643	1.6338e+02	-7.2906	-90.371283	0.000527	5.270737	0.892887	0.000105
1644	1.6348e+02	-7.2716	-90.347061	0.000122	1.216324	0.206051	0.000024
1645	1.6358e+02	-7.2514	-90.314764	0.000162	1.621765	0.274734	0.000032
1646	1.6368e+02	-7.2310	-90.286504	0.000142	1.419045	0.240393	0.000028
1647	1.6378e+02	-7.2115	-90.242095	0.000223	2.229927	0.377760	0.000045
1648	1.6388e+02	-7.1913	-90.157315	0.000426	4.257134	0.721178	0.000085
1649	1.6398e+02	-7.1700	-90.112907	0.000223	2.229927	0.377760	0.000045
1650	1.6408e+02	-7.1516	-90.011978	0.000507	5.068017	0.858545	0.000101
1651	1.6418e+02	-7.1313	-90.011978	0.000000	0.000000	0.000000	0.000000
1652	1.6427e+02	-7.1118	-89.951421	0.000304	3.040810	0.515127	0.000061
1653	1.6437e+02	-7.0911	-89.874716	0.000385	3.851693	0.652494	0.000077
1654	1.6447e+02	-7.0712	-89.818196	0.000284	2.838089	0.480785	0.000057
1655	1.6457e+02	-7.0512	-89.789936	0.000142	1.419045	0.240393	0.000028
1656	1.6467e+02	-7.0319	-89.761676	0.000142	1.419045	0.240393	0.000028
1657	1.6477e+02	-7.0120	-89.632488	0.000649	6.487061	1.098938	0.000130
1658	1.6487e+02	-6.9917	-89.580005	0.000264	2.635369	0.446444	0.000053
1659	1.6497e+02	-6.9720	-89.567893	0.000061	0.608162	0.103025	0.000012
1660	1.6507e+02	-6.9527	-89.479076	0.000446	4.459855	0.755520	0.000089
1661	1.6517e+02	-6.9325	-89.446779	0.000162	1.621765	0.274734	0.000032
1662	1.6527e+02	-6.9122	-89.353925	0.000466	4.662575	0.789862	0.000093
1663	1.6537e+02	-6.8924	-89.317591	0.000182	1.824486	0.309076	0.000037
1664	1.6547e+02	-6.8721	-89.228774	0.000446	4.459855	0.755520	0.000089
1665	1.6557e+02	-6.8527	-89.180328	0.000243	2.432648	0.412102	0.000049
1666	1.6567e+02	-6.8332	-89.143994	0.000182	1.824486	0.309076	0.000037
1667	1.6577e+02	-6.8132	-89.067289	0.000385	3.851693	0.652494	0.000077
1668	1.6587e+02	-6.7928	-88.990583	0.000385	3.851693	0.652494	0.000077
1669	1.6597e+02	-6.7720	-88.913877	0.000385	3.851693	0.652494	0.000077
1670	1.6607e+02	-6.7525	-88.829098	0.000426	4.257134	0.721178	0.000085
1671	1.6616e+02	-6.7329	-88.796801	0.000162	1.621765	0.274734	0.000032
1672	1.6626e+02	-6.7133	-88.728169	0.000345	3.446251	0.583811	0.000069
1673	1.6636e+02	-6.6930	-88.623204	0.000527	5.270737	0.892887	0.000105
1674	1.6646e+02	-6.6727	-88.586869	0.000182	1.824486	0.309076	0.000037
1675	1.6656e+02	-6.6541	-88.494015	0.000466	4.662575	0.789862	0.000093
1676	1.6666e+02	-6.6333	-88.417310	0.000385	3.851693	0.652494	0.000077
1677	1.6676e+02	-6.6135	-88.360790	0.000284	2.838089	0.480785	0.000057
1678	1.6686e+02	-6.5942	-88.324456	0.000182	1.824486	0.309076	0.000037
1679	1.6696e+02	-6.5729	-88.263899	0.000304	3.040810	0.515127	0.000061
1680	1.6706e+02	-6.5530	-88.183156	0.000405	4.054413	0.686836	0.000081
1681	1.6716e+02	-6.5341	-88.078190	0.000527	5.270737	0.892887	0.000105
1682	1.6726e+02	-6.5131	-88.033782	0.000223	2.229927	0.377760	0.000045
1683	1.6736e+02	-6.4928	-87.953039	0.000405	4.054413	0.686836	0.000081
1684	1.6746e+02	-6.4746	-87.884408	0.000345	3.446251	0.583811	0.000069
1685	1.6756e+02	-6.4539	-87.811739	0.000365	3.648972	0.618153	0.000073
1686	1.6766e+02	-6.4346	-87.775405	0.000182	1.824486	0.309076	0.000037
1687	1.6776e+02	-6.4145	-87.674477	0.000507	5.068017	0.858545	0.000101
1688	1.6786e+02	-6.3937	-87.613920	0.000304	3.040810	0.515127	0.000061
1689	1.6796e+02	-6.3745	-87.541251	0.000365	3.648972	0.618153	0.000073
1690	1.6806e+02	-6.3542	-87.456471	0.000426	4.257134	0.721178	0.000085
1691	1.6816e+02	-6.3350	-87.399952	0.000284	2.838089	0.480785	0.000057
1692	1.6825e+02	-6.3141	-87.294986	0.000527	5.270737	0.892887	0.000105
1693	1.6835e+02	-6.2949	-87.234429	0.000304	3.040810	0.515127	0.000061
1694	1.6845e+02	-6.2744	-87.165798	0.000345	3.446251	0.583811	0.000069
1695	1.6855e+02	-6.2539	-87.129463	0.000182	1.824486	0.309076	0.000037
1696	1.6865e+02	-6.2349	-87.024498	0.000527	5.270737	0.892887	0.000105
1697	1.6875e+02	-6.2149	-86.984127	0.000203	2.027207	0.343418	0.000041
1698	1.6885e+02	-6.1954	-86.911458	0.000365	3.648972	0.618153	0.000073
1699	1.6895e+02	-6.1749	-86.822641	0.000446	4.459855	0.755520	0.000089
1700	1.6905e+02	-6.1549	-86.745936	0.000385	3.851693	0.652494	0.000077
1701	1.6915e+02	-6.1356	-86.677304	0.000345	3.446251	0.583811	0.000069
1702	1.6925e+02	-6.1156	-86.624822	0.000264	2.635369	0.446444	0.000053
1703	1.6935e+02	-6.0953	-86.552153	0.000365	3.648972	0.618153	0.000073
1704	1.6945e+02	-6.0754	-86.475448	0.000385	3.851693	0.652494	0.000077
1705	1.6955e+02	-6.0548	-86.410853	0.000324	3.243531	0.549469	0.000065
1706	1.6965e+02	-6.0355	-86.330111	0.000405	4.054413	0.686836	0.000081
1707	1.6975e+02	-6.0164	-86.233219	0.000487	4.865296	0.824203	0.000097
1708	1.6985e+02	-5.9959	-86.192848	0.000203	2.027207	0.343418	0.000041
1709	1.6995e+02	-5.9762	-86.075771	0.000588	5.878899	0.995913	0.000118
1710	1.7005e+02	-5.9562	-86.043474	0.000162	1.621765	0.274734	0.000032
1711	1.7015e+02	-5.9358	-85.958694	0.000426	4.257134	0.721178	0.000085
1712	1.7024e+02	-5.9161	-85.873914	0.000426	4.257134	0.721178	0.000085
1713	1.7034e+02	-5.8959	-85.809320	0.000324	3.243531	0.549469	0.000065
1714	1.7044e+02	-5.8758	-85.692243	0.000588	5.878899	0.995913	0.000118
1715	1.7054e+02	-5.8572	-85.623612	0.000345	3.446251	0.583811	0.000069
1716	1.7064e+02	-5.8368	-85.575166	0.000243	2.432648	0.412102	0.000049
1717	1.7074e+02	-5.8165	-85.462126	0.000568	5.676179	0.961571	0.000114
1718	1.7084e+02	-5.7965	-85.413681	0.000243	2.432648	0.412102	0.000049
1719	1.7094e+02	-5.7770	-85.336975	0.000385	3.851693	0.652494	0.000077
1720	1.7104e+02	-5.7570	-85.252195	0.000426	4.257134	0.721178	0.000085
1721	1.7114e+02	-5.7372	-85.195675	0.000284	2.838089	0.480785	0.000057
1722	1.7124e+02	-5.7176	-85.127044	0.000345	3.446251	0.583811	0.000069
1723	1.7134e+02	-5.6964	-85.042264	0.000426	4.257134	0.721178	0.000085
1724	1.7144e+02	-5.6766	-84.969596	0.000365	3.648972	0.618153	0.000073
1725	1.7154e+02	-5.6570	-84.856556	0.000568	5.676179	0.961571	0.000114
1726	1.7164e+02	-5.6377	-84.816185	0.000203	2.027207	0.343418	0.000041
1727	1.7174e+02	-5.6177	-84.682959	0.000669	6.689782	1.133280	0.000134
1728	1.7184e+02	-5.5975	-84.606254	0.000385	3.851693	0.652494	0.000077
1729	1.7194e+02	-5.5772	-84.590105	0.000081	0.810883	0.137367	0.000016
1730	1.7204e+02	-5.5576	-84.485140	0.000527	5.270737	0.892887	0.000105
1731	1.7213e+02	-5.5373	-84.412471	0.000365	3.648972	0.618153	0.000073
1732	1.7223e+02	-5.5167	-84.307506	0.000527	5.270737	0.892887	0.000105
1733	1.7233e+02	-5.4970	-84.218689	0.000446	4.459855	0.755520	0.000089
1734	1.7243e+02	-5.4784	-84.105649	0.000568	5.676179	0.961571	0.000114
1735	1.7253e+02	-5.4574	-84.065277	0.000203	2.027207	0.343418	0.000041
1736	1.7263e+02	-5.4378	-83.948201	0.000588	5.878899	0.995913	0.000118
1737	1.7273e+02	-5.4182	-83.895718	0.000264	2.635369	0.446444	0.000053
1738	1.7283e+02	-5.3975	-83.802864	0.000466	4.662575	0.789862	0.000093
1739	1.7293e+02	-5.3771	-83.693861	0.000547	5.473458	0.927229	0.000110
1740	1.7303e+02	-5.3583	-83.613118	0.000405	4.054413	0.686836	0.000081
1741	1.7313e+02	-5.3389	-83.556598	0.000284	2.838089	0.480785	0.000057
1742	1.7323e+02	-5.3178	-83.487967	0.000345	3.446251	0.583811	0.000069
1743	1.7333e+02	-5.2981	-83.370890	0.000588	5.878899	0.995913	0.000118
1744	1.7343e+02	-5.2779	-83.294185	0.000385	3.851693	0.652494	0.000077
1745	1.7353e+02	-5.2582	-83.253813	0.000203	2.027207	0.343418	0.000041
1746	1.7363e+02	-5.2388	-83.169033	0.000426	4.257134	0.721178	0.000085
1747	1.7373e+02	-5.2188	-83.055994	0.000568	5.676179	0.961571	0.000114
1748	1.7383e+02	-5.1988	-82.975251	0.000405	4.054413	0.686836	0.000081
1749	1.7393e+02	-5.1794	-82.854137	0.000608	6.081620	1.030254	0.000122
1750	1.7403e+02	-5.1590	-82.817803	0.000182	1.824486	0.309076	0.000037
1751	1.7413e+02	-5.1390	-82.708800	0.000547	5.473458	0.927229	0.000110
1752	1.7422e+02	-5.1200	-82.640169	0.000345	3.446251	0.583811	0.000069
1753	1.7432e+02	-5.0995	-82.523092	0.000588	5.878899	0.995913	0.000118
1754	1.7442e+02	-5.0792	-82.466572	0.000284	2.838089	0.480785	0.000057
1755	1.7452e+02	-5.0595	-82.369680	0.000487	4.865296	0.824203	0.000097
1756	1.7462e+02	-5.0392	-82.297012	0.000365	3.648972	0.618153	0.000073
1757	1.7472e+02	-5.0192	-82.236455	0.000304	3.040810	0.515127	0.000061
1758	1.7482e+02	-4.9998	-82.091118	0.000730	7.297944	1.236305	0.000146
1759	1.7492e+02	-4.9806	-82.026524	0.000324	3.243531	0.549469	0.000065
1760	1.7502e+02	-4.9595	-81.957893	0.000345	3.446251	0.583811	0.000069
1761	1.7512e+02	-4.9416	-81.796407	0.000811	8.108827	1.373672	0.000162
1762	1.7522e+02	-4.9207	-81.764110	0.000162	1.621765	0.274734	0.000032
1763	1.7532e+02	-4.9002	-81.679330	0.000426	4.257134	0.721178	0.000085
1764	1.7542e+02	-4.8807	-81.602625	0.000385	3.851693	0.652494	0.000077
1765	1.7552e+02	-4.8605	-81.538031	0.000324	3.243531	0.549469	0.000065
1766	1.7562e+02	-4.8398	-81.400768	0.000689	6.892503	1.167622	0.000138
1767	1.7572e+02	-4.8204	-81.311951	0.000446	4.459855	0.755520	0.000089
1768	1.7582e+02	-4.8003	-81.211023	0.000507	5.068017	0.858545	0.000101
1769	1.7592e+02	-4.7807	-81.106057	0.000527	5.270737	0.892887	0.000105
1770	1.7602e+02	-4.7610	-80.997054	0.000547	5.473458	0.927229	0.000110
1771	1.7612e+02	-4.7409	-80.916312	0.000405	4.054413	0.686836	0.000081
1772	1.7621e+02	-4.7210	-80.831532	0.000426	4.257134	0.721178	0.000085
1773	1.7631e+02	-4.7009	-80.742715	0.000446	4.459855	0.755520	0.000089
1774	1.7641e+02	-4.6815	-80.674083	0.000345	3.446251	0.583811	0.000069
1775	1.7651e+02	-4.6612	-80.589304	0.000426	4.257134	0.721178	0.000085
1776	1.7661e+02	-4.6428	-80.480301	0.000547	5.473458	0.927229	0.000110
1777	1.7671e+02	-4.6208	-80.391484	0.000446	4.459855	0.755520	0.000089
1778	1.7681e+02	-4.6020	-80.302667	0.000446	4.459855	0.755520	0.000089
1779	1.7691e+02	-4.5821	-80.225961	0.000385	3.851693	0.652494	0.000077
1780	1.7701e+02	-4.5612	-80.092736	0.000669	6.689782	1.133280	0.000134
1781	1.7711e+02	-4.5415	-79.983733	0.000547	5.473458	0.927229	0.000110
1782	1.7721e+02	-4.5233	-79.943362	0.000203	2.027207	0.343418	0.000041
1783	1.7731e+02	-4.5024	-79.806099	0.000689	6.892503	1.167622	0.000138
1784	1.7741e+02	-4.4815	-79.729394	0.000385	3.851693	0.652494	0.000077
1785	1.7751e+02	-4.4621	-79.620391	0.000547	5.473458	0.927229	0.000110
1786	1.7761e+02	-4.4418	-79.483128	0.000689	6.892503	1.167622	0.000138
1787	1.7771e+02	-4.4225	-79.402386	0.000405	4.054413	0.686836	0.000081
1788	1.7781e+02	-4.4016	-79.281272	0.000608	6.081620	1.030254	0.000122
1789	1.7791e+02	-4.3825	-79.236863	0.000223	2.229927	0.377760	0.000045
1790	1.7801e+02	-4.3620	-79.156120	0.000405	4.054413	0.686836	0.000081
1791	1.7810e+02	-4.3422	-79.006746	0.000750	7.500665	1.270647	0.000150
1792	1.7820e+02	-4.3213	-78.930041	0.000385	3.851693	0.652494	0.000077
1793	1.7830e+02	-4.3026	-78.833150	0.000487	4.865296	0.824203	0.000097
1794	1.7840e+02	-4.2821	-78.724147	0.000547	5.473458	0.927229	0.000110
1795	1.7850e+02	-4.2627	-78.627256	0.000487	4.865296	0.824203	0.000097
1796	1.7860e+02	-4.2430	-78.542476	0.000426	4.257134	0.721178	0.000085
1797	1.7870e+02	-4.2235	-78.405213	0.000689	6.892503	1.167622	0.000138
1798	1.7880e+02	-4.2018	-78.324470	0.000405	4.054413	0.686836	0.000081
1799	1.7890e+02	-4.1823	-78.219505	0.000527	5.270737	0.892887	0.000105
1800	1.7900e+02	-4.1638	-78.118577	0.000507	5.068017	0.858545	0.000101
1801	1.7910e+02	-4.1443	-78.058019	0.000304	3.040810	0.515127	0.000061
1802	1.7920e+02	-4.1232	-77.940943	0.000588	5.878899	0.995913	0.000118
1803	1.7930e+02	-4.1063	-77.840014	0.000507	5.068017	0.858545	0.000101
1804	1.7940e+02	-4.0837	-77.735049	0.000527	5.270737	0.892887	0.000105
1805	1.7950e+02	-4.0636	-77.662380	0.000365	3.648972	0.618153	0.000073
1806	1.7960e+02	-4.0434	-77.549340	0.000568	5.676179	0.961571	0.000114
1807	1.7970e+02	-4.0234	-77.464561	0.000426	4.257134	0.721178	0.000085
1808	1.7980e+02	-4.0039	-77.335372	0.000649	6.487061	1.098938	0.000130
1809	1.7990e+02	-3.9838	-77.242518	0.000466	4.662575	0.789862	0.000093
1810	1.8000e+02	-3.9633	-77.133515	0.000547	5.473458	0.927229	0.000110
1811	1.8009e+02	-3.9436	-77.085070	0.000243	2.432648	0.412102	0.000049
1812	1.8019e+02	-3.9233	-76.923584	0.000811	8.108827	1.373672	0.000162
1813	1.8029e+02	-3.9034	-76.798433	0.000628	6.284341	1.064596	0.000126
1814	1.8039e+02	-3.8837	-76.741913	0.000284	2.838089	0.480785	0.000057
1815	1.8049e+02	-3.8637	-76.632911	0.000547	5.473458	0.927229	0.000110
1816	1.8059e+02	-3.8450	-76.507759	0.000628	6.284341	1.064596	0.000126
1817	1.8069e+02	-3.8239	-76.435091	0.000365	3.648972	0.618153	0.000073
1818	1.8079e+02	-3.8042	-76.322051	0.000568	5.676179	0.961571	0.000114
1819	1.8089e+02	-3.7846	-76.253420	0.000345	3.446251	0.583811	0.000069
1820	1.8099e+02	-3.7645	-76.132306	0.000608	6.081620	1.030254	0.000122
1821	1.8109e+02	-3.7446	-76.007155	0.000628	6.284341	1.064596	0.000126
1822	1.8119e+02	-3.7254	-75.906226	0.000507	5.068017	0.858545	0.000101
1823	1.8129e+02	-3.7045	-75.837595	0.000345	3.446251	0.583811	0.000069
1824	1.8139e+02	-3.6853	-75.744741	0.000466	4.662575	0.789862	0.000093
1825	1.8149e+02	-3.6652	-75.611515	0.000669	6.689782	1.133280	0.000134
1826	1.8159e+02	-3.6446	-75.494438	0.000588	5.878899	0.995913	0.000118
1827	1.8169e+02	-3.6249	-75.393510	0.000507	5.068017	0.858545	0.000101
1828	1.8179e+02	-3.6053	-75.284507	0.000547	5.473458	0.927229	0.000110
1829	1.8189e+02	-3.5850	-75.199727	0.000426	4.257134	0.721178	0.000085
1830	1.8199e+02	-3.5648	-75.070539	0.000649	6.487061	1.098938	0.000130
1831	1.8209e+02	-3.5452	-74.941351	0.000649	6.487061	1.098938	0.000130
1832	1.8218e+02	-3.5265	-74.868682	0.000365	3.648972	0.618153	0.000073
1833	1.8228e+02	-3.5040	-74.771791	0.000487	4.865296	0.824203	0.000097
1834	1.8238e+02	-3.4858	-74.650677	0.000608	6.081620	1.030254	0.000122
1835	1.8248e+02	-3.4650	-74.553786	0.000487	4.865296	0.824203	0.000097
1836	1.8258e+02	-3.4464	-74.424597	0.000649	6.487061	1.098938	0.000130
1837	1.8268e+02	-3.4264	-74.307520	0.000588	5.878899	0.995913	0.000118
1838	1.8278e+02	-3.4058	-74.263112	0.000223	2.229927	0.377760	0.000045
1839	1.8288e+02	-3.3858	-74.113738	0.000750	7.500665	1.270647	0.000150
1840	1.8298e+02	-3.3661	-74.012809	0.000507	5.068017	0.858545	0.000101
1841	1.8308e+02	-3.3459	-73.915918	0.000487	4.865296	0.824203	0.000097
1842	1.8318e+02	-3.3276	-73.778656	0.000689	6.892503	1.167622	0.000138
1843	1.8328e+02	-3.3066	-73.681764	0.000487	4.865296	0.824203	0.000097
1844	1.8338e+02	-3.2860	-73.584873	0.000487	4.865296	0.824203	0.000097
1845	1.8348e+02	-3.2663	-73.463759	0.000608	6.081620	1.030254	0.000122
1846	1.8358e+02	-3.2460	-73.362831	0.000507	5.068017	0.858545	0.000101
1847	1.8368e+02	-3.2260	-73.241717	0.000608	6.081620	1.030254	0.000122
1848	1.8378e+02	-3.2064	-73.116565	0.000628	6.284341	1.064596	0.000126
1849	1.8388e+02	-3.1863	-73.003526	0.000568	5.676179	0.961571	0.000114
1850	1.8398e+02	-3.1662	-72.882411	0.000608	6.081620	1.030254	0.000122
1851	1.8407e+02	-3.1467	-72.797632	0.000426	4.257134	0.721178	0.000085
1852	1.8417e+02	-3.1270	-72.684592	0.000568	5.676179	0.961571	0.000114
1853	1.8427e+02	-3.1069	-72.551366	0.000669	6.689782	1.133280	0.000134
1854	1.8437e+02	-3.0878	-72.470624	0.000405	4.054413	0.686836	0.000081
1855	1.8447e+02	-3.0674	-72.357584	0.000568	5.676179	0.961571	0.000114
1856	1.8457e+02	-3.0479	-72.256655	0.000507	5.068017	0.858545	0.000101
1857	1.8467e+02	-3.0255	-72.155727	0.000507	5.068017	0.858545	0.000101
1858	1.8477e+02	-3.0083	-71.990204	0.000831	8.311547	1.408014	0.000166
1859	1.8487e+02	-2.9868	-71.941759	0.000243	2.432648	0.412102	0.000049
1860	1.8497e+02	-2.9670	-71.776236	0.000831	8.311547	1.408014	0.000166
1861	1.8507e+02	-2.9477	-71.695494	0.000405	4.054413	0.686836	0.000081
1862	1.8517e+02	-2.9288	-71.562268	0.000669	6.689782	1.133280	0.000134
1863	1.8527e+02	-2.9082	-71.505748	0.000284	2.838089	0.480785	0.000057
1864	1.8537e+02	-2.8877	-71.360411	0.000730	7.297944	1.236305	0.000146
1865	1.8547e+02	-2.8680	-71.263520	0.000487	4.865296	0.824203	0.000097
1866	1.8557e+02	-2.8480	-71.150480	0.000568	5.676179	0.961571	0.000114
1867	1.8567e+02	-2.8282	-71.037440	0.000568	5.676179	0.961571	0.000114
1868	1.8577e+02	-2.8081	-70.924401	0.000568	5.676179	0.961571	0.000114
1869	1.8587e+02	-2.7878	-70.823472	0.000507	5.068017	0.858545	0.000101
1870	1.8597e+02	-2.7687	-70.746767	0.000385	3.851693	0.652494	0.000077
1871	1.8606e+02	-2.7488	-70.597393	0.000750	7.500665	1.270647	0.000150
1872	1.8616e+02	-2.7285	-70.492427	0.000527	5.270737	0.892887	0.000105
1873	1.8626e+02	-2.7084	-70.399573	0.000466	4.662575	0.789862	0.000093
1874	1.8636e+02	-2.6888	-70.266348	0.000669	6.689782	1.133280	0.000134
1875	1.8646e+02	-2.6685	-70.141196	0.000628	6.284341	1.064596	0.000126
1876	1.8656e+02	-2.6489	-70.096788	0.000223	2.229927	0.377760	0.000045
1877	1.8666e+02	-2.6285	-69.927228	0.000851	8.514268	1.442356	0.000170
1878	1.8676e+02	-2.6085	-69.794003	0.000669	6.689782	1.133280	0.000134
1879	1.8686e+02	-2.5884	-69.725371	0.000345	3.446251	0.583811	0.000069
1880	1.8696e+02	-2.5688	-69.567923	0.000791	7.906106	1.339331	0.000158
1881	1.8706e+02	-2.5491	-69.515440	0.000264	2.635369	0.446444	0.000053
1882	1.8716e+02	-2.5294	-69.418549	0.000487	4.865296	0.824203	0.000097
1883	1.8726e+02	-2.5092	-69.257064	0.000811	8.108827	1.373672	0.000162
1884	1.8736e+02	-2.4894	-69.176321	0.000405	4.054413	0.686836	0.000081
1885	1.8746e+02	-2.4692	-69.026947	0.000750	7.500665	1.270647	0.000150
1886	1.8756e+02	-2.4509	-68.913907	0.000568	5.676179	0.961571	0.000114
1887	1.8766e+02	-2.4303	-68.800867	0.000568	5.676179	0.961571	0.000114
1888	1.8776e+02	-2.4105	-68.671679	0.000649	6.487061	1.098938	0.000130
1889	1.8786e+02	-2.3903	-68.570751	0.000507	5.068017	0.858545	0.000101
1890	1.8796e+02	-2.3708	-68.453674	0.000588	5.878899	0.995913	0.000118
1891	1.8806e+02	-2.3513	-68.312374	0.000710	7.095223	1.201963	0.000142
1892	1.8815e+02	-2.3306	-68.239705	0.000365	3.648972	0.618153	0.000073
1893	1.8825e+02	-2.3100	-68.118591	0.000608	6.081620	1.030254	0.000122
1894	1.8835e+02	-2.2900	-67.993440	0.000628	6.284341	1.064596	0.000126
1895	1.8845e+02	-2.2710	-67.856177	0.000689	6.892503	1.167622	0.000138
1896	1.8855e+02	-2.2501	-67.783509	0.000365	3.648972	0.618153	0.000073
1897	1.8865e+02	-2.2298	-67.613949	0.000851	8.514268	1.442356	0.000170
1898	1.8875e+02	-2.2101	-67.521095	0.000466	4.662575	0.789862	0.000093
1899	1.8885e+02	-2.1914	-67.416130	0.000527	5.270737	0.892887	0.000105
1900	1.8895e+02	-2.1713	-67.295016	0.000608	6.081620	1.030254	0.000122
1901	1.8905e+02	-2.1515	-67.177939	0.000588	5.878899	0.995913	0.000118
1902	1.8915e+02	-2.1313	-67.048750	0.000649	6.487061	1.098938	0.000130
1903	1.8925e+02	-2.1104	-66.915525	0.000669	6.689782	1.133280	0.000134
1904	1.8935e+02	-2.0908	-66.838819	0.000385	3.851693	0.652494	0.000077
1905	1.8945e+02	-2.0705	-66.632925	0.001034	10.338754	1.751432	0.000207
1906	1.8955e+02	-2.0514	-66.592554	0.000203	2.027207	0.343418	0.000041
1907	1.8965e+02	-2.0318	-66.443180	0.000750	7.500665	1.270647	0.000150
1908	1.8975e+02	-2.0114	-66.326103	0.000588	5.878899	0.995913	0.000118
1909	1.8985e+02	-1.9920	-66.209026	0.000588	5.878899	0.995913	0.000118
1910	1.8995e+02	-1.9725	-66.079838	0.000649	6.487061	1.098938	0.000130
1911	1.9004e+02	-1.9527	-65.962761	0.000588	5.878899	0.995913	0.000118
1912	1.9014e+02	-1.9315	-65.857795	0.000527	5.270737	0.892887	0.000105
1913	1.9024e+02	-1.9121	-65.704384	0.000770	7.703385	1.304989	0.000154
1914	1.9034e+02	-1.8923	-65.623641	0.000405	4.054413	0.686836	0.000081
1915	1.9044e+02	-1.8724	-65.474267	0.000750	7.500665	1.270647	0.000150
1916	1.9054e+02	-1.8523	-65.357190	0.000588	5.878899	0.995913	0.000118
1917	1.9064e+02	-1.8320	-65.248188	0.000547	5.473458	0.927229	0.000110
1918	1.9074e+02	-1.8127	-65.118999	0.000649	6.487061	1.098938	0.000130
1919	1.9084e+02	-1.7919	-64.953477	0.000831	8.311547	1.408014	0.000166
1920	1.9094e+02	-1.7731	-64.888883	0.000324	3.243531	0.549469	0.000065
1921	1.9104e+02	-1.7516	-64.747583	0.000710	7.095223	1.201963	0.000142
1922	1.9114e+02	-1.7328	-64.622432	0.000628	6.284341	1.064596	0.000126
1923	1.9124e+02	-1.7129	-64.553800	0.000345	3.446251	0.583811	0.000069
1924	1.9134e+02	-1.6930	-64.388278	0.000831	8.311547	1.408014	0.000166
1925	1.9144e+02	-1.6727	-64.246978	0.000710	7.095223	1.201963	0.000142
1926	1.9154e+02	-1.6525	-64.170273	0.000385	3.851693	0.652494	0.000077
1927	1.9164e+02	-1.6331	-64.008787	0.000811	8.108827	1.373672	0.000162
1928	1.9174e+02	-1.6132	-63.932082	0.000385	3.851693	0.652494	0.000077
1929	1.9184e+02	-1.5926	-63.782708	0.000750	7.500665	1.270647	0.000150
1930	1.9194e+02	-1.5748	-63.657556	0.000628	6.284341	1.064596	0.000126
1931	1.9203e+02	-1.5530	-63.568739	0.000446	4.459855	0.755520	0.000089
1932	1.9213e+02	-1.5329	-63.399180	0.000851	8.514268	1.442356	0.000170
1933	1.9223e+02	-1.5126	-63.265954	0.000669	6.689782	1.133280	0.000134
1934	1.9233e+02	-1.4936	-63.173100	0.000466	4.662575	0.789862	0.000093
1935	1.9243e+02	-1.4731	-63.043912	0.000649	6.487061	1.098938	0.000130
1936	1.9253e+02	-1.4538	-62.942983	0.000507	5.068017	0.858545	0.000101
1937	1.9263e+02	-1.4331	-62.821869	0.000608	6.081620	1.030254	0.000122
1938	1.9273e+02	-1.4138	-62.684607	0.000689	6.892503	1.167622	0.000138
1939	1.9283e+02	-1.3934	-62.559455	0.000628	6.284341	1.064596	0.000126
1940	1.9293e+02	-1.3737	-62.385859	0.000872	8.716989	1.476698	0.000174
1941	1.9303e+02	-1.3530	-62.305116	0.000405	4.054413	0.686836	0.000081
1942	1.9313e+02	-1.3339	-62.167853	0.000689	6.892503	1.167622	0.000138
1943	1.9323e+02	-1.3138	-62.026553	0.000710	7.095223	1.201963	0.000142
1944	1.9333e+02	-1.2939	-61.929662	0.000487	4.865296	0.824203	0.000097
1945	1.9343e+02	-1.2752	-61.756065	0.000872	8.716989	1.476698	0.000174
1946	1.9353e+02	-1.2550	-61.667248	0.000446	4.459855	0.755520	0.000089
1947	1.9363e+02	-1.2347	-61.509800	0.000791	7.906106	1.339331	0.000158
1948	1.9373e+02	-1.2150	-61.408872	0.000507	5.068017	0.858545	0.000101
1949	1.9383e+02	-1.1949	-61.259498	0.000750	7.500665	1.270647	0.000150
1950	1.9393e+02	-1.1759	-61.162606	0.000487	4.865296	0.824203	0.000097
1951	1.9403e+02	-1.1554	-61.013232	0.000750	7.500665	1.270647	0.000150
1952	1.9412e+02	-1.1354	-60.892118	0.000608	6.081620	1.030254	0.000122
1953	1.9422e+02	-1.1150	-60.746781	0.000730	7.297944	1.236305	0.000146
1954	1.9432e+02	-1.0950	-60.613556	0.000669	6.689782	1.133280	0.000134
1955	1.9442e+02	-1.0748	-60.476293	0.000689	6.892503	1.167622	0.000138
1956	1.9452e+02	-1.0551	-60.367291	0.000547	5.473458	0.927229	0.000110
1957	1.9462e+02	-1.0354	-60.238102	0.000649	6.487061	1.098938	0.000130
1958	1.9472e+02	-1.0146	-60.084691	0.000770	7.703385	1.304989	0.000154
1959	1.9482e+02	-0.9960	-59.963577	0.000608	6.081620	1.030254	0.000122
1960	1.9492e+02	-0.9769	-59.874760	0.000446	4.459855	0.755520	0.000089
1961	1.9502e+02	-0.9563	-59.725386	0.000750	7.500665	1.270647	0.000150
1962	1.9512e+02	-0.9355	-59.571975	0.000770	7.703385	1.304989	0.000154
1963	1.9522e+02	-0.9158	-59.450861	0.000608	6.081620	1.030254	0.000122
1964	1.9532e+02	-0.8957	-59.285338	0.000831	8.311547	1.408014	0.000166
1965	1.9542e+02	-0.8760	-59.176336	0.000547	5.473458	0.927229	0.000110
1966	1.9552e+02	-0.8558	-59.063296	0.000568	5.676179	0.961571	0.000114
1967	1.9562e+02	-0.8369	-58.938145	0.000628	6.284341	1.064596	0.000126
1968	1.9572e+02	-0.8168	-58.784733	0.000770	7.703385	1.304989	0.000154
1969	1.9582e+02	-0.7967	-58.663619	0.000608	6.081620	1.030254	0.000122
1970	1.9592e+02	-0.7772	-58.550580	0.000568	5.676179	0.961571	0.000114
1971	1.9601e+02	-0.7562	-58.364871	0.000933	9.325151	1.579723	0.000187
1972	1.9611e+02	-0.7365	-58.284129	0.000405	4.054413	0.686836	0.000081
1973	1.9621e+02	-0.7175	-58.146866	0.000689	6.892503	1.167622	0.000138
1974	1.9631e+02	-0.6967	-58.009603	0.000689	6.892503	1.167622	0.000138
1975	1.9641e+02	-0.6768	-57.884452	0.000628	6.284341	1.064596	0.000126
1976	1.9651e+02	-0.6561	-57.779487	0.000527	5.270737	0.892887	0.000105
1977	1.9661e+02	-0.6371	-57.605890	0.000872	8.716989	1.476698	0.000174
1978	1.9671e+02	-0.6171	-57.468627	0.000689	6.892503	1.167622	0.000138
1979	1.9681e+02	-0.5963	-57.347513	0.000608	6.081620	1.030254	0.000122
1980	1.9691e+02	-0.5766	-57.222362	0.000628	6.284341	1.064596	0.000126
1981	1.9701e+02	-0.5579	-57.077025	0.000730	7.297944	1.236305	0.000146
1982	1.9711e+02	-0.5362	-56.968022	0.000547	5.473458	0.927229	0.000110
1983	1.9721e+02	-0.5170	-56.867094	0.000507	5.068017	0.858545	0.000101
1984	1.9731e+02	-0.4974	-56.685423	0.000912	9.122430	1.545381	0.000183
1985	1.9741e+02	-0.4769	-56.572383	0.000568	5.676179	0.961571	0.000114
1986	1.9751e+02	-0.4571	-56.455306	0.000588	5.878899	0.995913	0.000118
1987	1.9761e+02	-0.4379	-56.334192	0.000608	6.081620	1.030254	0.000122
1988	1.9771e+02	-0.4178	-56.172707	0.000811	8.108827	1.373672	0.000162
1989	1.9781e+02	-0.3975	-56.059667	0.000568	5.676179	0.961571	0.000114
1990	1.9791e+02	-0.3781	-55.902219	0.000791	7.906106	1.339331	0.000158
1991	1.9800e+02	-0.3586	-55.740733	0.000811	8.108827	1.373672	0.000162
1992	1.9810e+02	-0.3382	-55.623656	0.000588	5.878899	0.995913	0.000118
1993	1.9820e+02	-0.3185	-55.522728	0.000507	5.068017	0.858545	0.000101
1994	1.9830e+02	-0.2979	-55.393539	0.000649	6.487061	1.098938	0.000130
1995	1.9840e+02	-0.2772	-55.248203	0.000730	7.297944	1.236305	0.000146
1996	1.9850e+02	-0.2580	-55.119014	0.000649	6.487061	1.098938	0.000130
1997	1.9860e+02	-0.2386	-54.993863	0.000628	6.284341	1.064596	0.000126
1998	1.9870e+02	-0.2179	-54.868712	0.000628	6.284341	1.064596	0.000126
1999	1.9880e+02	-0.1982	-54.715301	0.000770	7.703385	1.304989	0.000154
2000	1.9890e+02	-0.1791	-54.582075	0.000669	6.689782	1.133280	0.000134
2001	1.9900e+02	-0.1582	-54.424627	0.000791	7.906106	1.339331	0.000158
2002	1.9910e+02	-0.1382	-54.327736	0.000487	4.865296	0.824203	0.000097
2003	1.9920e+02	-0.1185	-54.206622	0.000608	6.081620	1.030254	0.000122
2004	1.9930e+02	-0.0994	-54.057248	0.000750	7.500665	1.270647	0.000150
2005	1.9940e+02	-0.0793	-53.891725	0.000831	8.311547	1.408014	0.000166
2006	1.9950e+02	-0.0589	-53.770611	0.000608	6.081620	1.030254	0.000122
2007	1.9960e+02	-0.0388	-53.633348	0.000689	6.892503	1.167622	0.000138
2008	1.9970e+02	-0.0189	-53.520308	0.000568	5.676179	0.961571	0.000114
2009	1.9980e+02	-0.0024	-53.387083	0.000568	5.676179	0.961571	0.000134

PMax (uC/cm2):	5.58e+01
Pr (uC/cm2):	7.63e+00
-Pr (uC/cm2):	-8.93e+01
PLoss (uC/cm2):	-8.94e+01
-Vc:	-1.18e+00
C (Max-Eff) (nF):	5.59e-01
K (Eff):	9.47e+02
Vert. (+/-Pr) Shift (uC/cm2):	-4.09e+01
Offset (uC/cm2):	-3.60e+01

A (Loop Area - uC/cm2·Volts):	-8.36e-01



Hysteresis Version: 5.48.1 - Radiant Technologies, Inc., 1999 - 9/12/24

