»»»»»»»»»»»»»»»»»»»»»»»»»»»»»»»»»»»» Hysteresis ««««««««««««««««««««««««««««««««««««
»»»  Executed Version:	5.48.1
»»»  Vision Version:	5.48.4 (R)
»»»  Vision Compiled:	9/18/24
»»»  Driver Version:	5.47.0
»»»  Windows Version:	Windows 8 or 8.1
»»»  Processor Information:	x86 (AMD or Intel) - 32 Processors
»»»  Tester Name:	PMF21124-494 (100V)
»»»  Tester S/N:	PMF21124-494
»»»  Internal Amp Type:	100V RevK 270k
»»»  Internal Amp S/N:	iAB2-596/K     
»»»  Execution Count:	1
»»»»»»»»»»»»»»»»»»»»»»»»»»»»»»»»»»»»»»»»»»««««««««««««««««««««««««««««««««««««««««««

Stored:	7/2/2025 - 18:5:49
Configured:	07/02/25 01:35:59 PM
Executed:	07/02/25 06:05:10 PM

»»»»»»»»»»»»»»»»»»»»»»»»»»»»»»»»»»» Sample Info ««««««««««««««««««««««««««««««««««««
Sample Name:	
Lot Name:	
Wafer Name:	
Die Row/Column:	0/0
Capacitor Number:	0
Sample Area (cm2):	1.00e-04
Sample Thickness (microns):	1.50e-01

Amplifier:	Internal

»»»»»»»»»»»»»»»»»»»»»»»»»»»»»»»»»»» Tester Info «««««««««««««««««««««««««««««««««««
Tester Name:	PMF21124-494 (100V)
Tester Serial Number:	PMF21124-494
Return Signal Amp. Level:	0.19 [Index: 3]

»»»»»»»»»»»»»»»»»»»»»»»»»»»»»»»» Hysteresis Info ««««««««««««««««««««««««««««««««««
Task Name:	Hyst-220
Volts:	10.00
Field:	666.67 (kV/cm)
DCBias:	0.00
DCField:	0.00 (kV/cm)
Hysteresis Period (ms):	2.00e+02
Preset:	Enabled
Preset Delay (ms):	1.00e+03
Profile:	Standard Bipolar

»»»»»»»»»»»»»»»»»»»»»»»»»»»»»»»»»»»»»» Data «««««««««««««««««««««««««««««««««««««««
Points:	2009

Valid Data

Point	Time (ms)	Drive Voltage	Measured Polarization (uC/cm2)	Capacitance (uF)	Normalized Capacitance (uF/cm2)	Dielectric Constant	Instantaneous Current (mA)
   1	0.0000e+00	0.0005	34.325747	0.000628	6.283801	1.064505	0.000126
   2	9.9500e-02	0.0185	34.450898	0.000628	6.283801	1.064505	0.000126
   3	1.9900e-01	0.0385	34.539715	0.000446	4.459472	0.755455	0.000089
   4	2.9850e-01	0.0582	34.660829	0.000608	6.081098	1.030166	0.000122
   5	3.9800e-01	0.0791	34.753683	0.000466	4.662175	0.789794	0.000093
   6	4.9750e-01	0.0981	34.850574	0.000486	4.864878	0.824133	0.000097
   7	5.9700e-01	0.1187	34.975725	0.000628	6.283801	1.064505	0.000126
   8	6.9650e-01	0.1382	35.084728	0.000547	5.472988	0.927149	0.000110
   9	7.9600e-01	0.1583	35.193731	0.000547	5.472988	0.927149	0.000110
  10	8.9550e-01	0.1792	35.302733	0.000547	5.472988	0.927149	0.000110
  11	9.9500e-01	0.1987	35.367328	0.000324	3.243252	0.549422	0.000065
  12	1.0945e+00	0.2178	35.500553	0.000669	6.689208	1.133182	0.000134
  13	1.1940e+00	0.2388	35.637816	0.000689	6.891911	1.167521	0.000138
  14	1.2935e+00	0.2579	35.734707	0.000486	4.864878	0.824133	0.000097
  15	1.3930e+00	0.2781	35.847747	0.000568	5.675691	0.961488	0.000114
  16	1.4925e+00	0.2979	35.985009	0.000689	6.891911	1.167521	0.000138
  17	1.5920e+00	0.3178	36.077864	0.000466	4.662175	0.789794	0.000093
  18	1.6915e+00	0.3380	36.174755	0.000486	4.864878	0.824133	0.000097
  19	1.7910e+00	0.3574	36.324129	0.000750	7.500021	1.270538	0.000150
  20	1.8905e+00	0.3780	36.412946	0.000446	4.459472	0.755455	0.000089
  21	1.9900e+00	0.3976	36.538097	0.000628	6.283801	1.064505	0.000126
  22	2.0895e+00	0.4166	36.639025	0.000507	5.067582	0.858472	0.000101
  23	2.1890e+00	0.4372	36.768214	0.000649	6.486504	1.098844	0.000130
  24	2.2885e+00	0.4575	36.889328	0.000608	6.081098	1.030166	0.000122
  25	2.3880e+00	0.4782	36.990256	0.000507	5.067582	0.858472	0.000101
  26	2.4875e+00	0.4971	37.115407	0.000628	6.283801	1.064505	0.000126
  27	2.5870e+00	0.5165	37.204224	0.000446	4.459472	0.755455	0.000089
  28	2.6865e+00	0.5431	37.341487	0.000689	6.891911	1.167521	0.000138
  29	2.7860e+00	0.5573	37.422230	0.000405	4.054065	0.686777	0.000081
  30	2.8855e+00	0.5779	37.563529	0.000709	7.094614	1.201860	0.000142
  31	2.9850e+00	0.5977	37.664458	0.000507	5.067582	0.858472	0.000101
  32	3.0845e+00	0.6173	37.781535	0.000588	5.878395	0.995827	0.000118
  33	3.1840e+00	0.6364	37.914760	0.000669	6.689208	1.133182	0.000134
  34	3.2835e+00	0.6566	38.019726	0.000527	5.270285	0.892810	0.000105
  35	3.3830e+00	0.6770	38.104506	0.000426	4.256769	0.721116	0.000085
  36	3.4825e+00	0.6965	38.237731	0.000669	6.689208	1.133182	0.000134
  37	3.5820e+00	0.7169	38.354808	0.000588	5.878395	0.995827	0.000118
  38	3.6815e+00	0.7368	38.488034	0.000669	6.689208	1.133182	0.000134
  39	3.7810e+00	0.7564	38.601073	0.000568	5.675691	0.961488	0.000114
  40	3.8805e+00	0.7760	38.710076	0.000547	5.472988	0.927149	0.000110
  41	3.9800e+00	0.7951	38.831190	0.000608	6.081098	1.030166	0.000122
  42	4.0795e+00	0.8160	38.968453	0.000689	6.891911	1.167521	0.000138
  43	4.1790e+00	0.8349	39.077455	0.000547	5.472988	0.927149	0.000110
  44	4.2785e+00	0.8562	39.206644	0.000649	6.486504	1.098844	0.000130
  45	4.3780e+00	0.8755	39.279312	0.000365	3.648659	0.618100	0.000073
  46	4.4775e+00	0.8948	39.436760	0.000791	7.905427	1.339216	0.000158
  47	4.5770e+00	0.9159	39.493280	0.000284	2.837846	0.480744	0.000057
  48	4.6765e+00	0.9361	39.626506	0.000669	6.689208	1.133182	0.000134
  49	4.7760e+00	0.9558	39.763768	0.000689	6.891911	1.167521	0.000138
  50	4.8755e+00	0.9762	39.953514	0.000953	9.527053	1.613927	0.000191
  51	4.9750e+00	0.9957	39.997922	0.000223	2.229736	0.377727	0.000045
  52	5.0745e+00	1.0149	40.074628	0.000385	3.851362	0.652438	0.000077
  53	5.1740e+00	1.0363	40.248225	0.000872	8.716240	1.476571	0.000174
  54	5.2735e+00	1.0551	40.345116	0.000486	4.864878	0.824133	0.000097
  55	5.3730e+00	1.0755	40.478341	0.000669	6.689208	1.133182	0.000134
  56	5.4725e+00	1.0954	40.571196	0.000466	4.662175	0.789794	0.000093
  57	5.5720e+00	1.1143	40.712495	0.000709	7.094614	1.201860	0.000142
  58	5.6715e+00	1.1355	40.861869	0.000750	7.500021	1.270538	0.000150
  59	5.7710e+00	1.1554	40.950686	0.000446	4.459472	0.755455	0.000089
  60	5.8705e+00	1.1749	41.055652	0.000527	5.270285	0.892810	0.000105
  61	5.9700e+00	1.1944	41.221174	0.000831	8.310834	1.407893	0.000166
  62	6.0695e+00	1.2148	41.318066	0.000486	4.864878	0.824133	0.000097
  63	6.1690e+00	1.2344	41.431106	0.000568	5.675691	0.961488	0.000114
  64	6.2685e+00	1.2547	41.560294	0.000649	6.486504	1.098844	0.000130
  65	6.3680e+00	1.2737	41.681408	0.000608	6.081098	1.030166	0.000122
  66	6.4675e+00	1.2939	41.794448	0.000568	5.675691	0.961488	0.000114
  67	6.5670e+00	1.3141	41.899413	0.000527	5.270285	0.892810	0.000105
  68	6.6665e+00	1.3338	42.032639	0.000669	6.689208	1.133182	0.000134
  69	6.7660e+00	1.3533	42.141641	0.000547	5.472988	0.927149	0.000110
  70	6.8655e+00	1.3737	42.258718	0.000588	5.878395	0.995827	0.000118
  71	6.9650e+00	1.3931	42.371758	0.000568	5.675691	0.961488	0.000114
  72	7.0645e+00	1.4128	42.492872	0.000608	6.081098	1.030166	0.000122
  73	7.1640e+00	1.4333	42.597838	0.000527	5.270285	0.892810	0.000105
  74	7.2635e+00	1.4533	42.710878	0.000568	5.675691	0.961488	0.000114
  75	7.3630e+00	1.4733	42.827954	0.000588	5.878395	0.995827	0.000118
  76	7.4625e+00	1.4936	42.961180	0.000669	6.689208	1.133182	0.000134
  77	7.5620e+00	1.5137	43.086331	0.000628	6.283801	1.064505	0.000126
  78	7.6615e+00	1.5322	43.179185	0.000466	4.662175	0.789794	0.000093
  79	7.7610e+00	1.5530	43.316448	0.000689	6.891911	1.167521	0.000138
  80	7.8605e+00	1.5728	43.465822	0.000750	7.500021	1.270538	0.000150
  81	7.9600e+00	1.5932	43.590973	0.000628	6.283801	1.064505	0.000126
  82	8.0595e+00	1.6126	43.683827	0.000466	4.662175	0.789794	0.000093
  83	8.1590e+00	1.6322	43.817053	0.000669	6.689208	1.133182	0.000134
  84	8.2585e+00	1.6529	43.930093	0.000568	5.675691	0.961488	0.000114
  85	8.3580e+00	1.6724	44.039095	0.000547	5.472988	0.927149	0.000110
  86	8.4575e+00	1.6924	44.176358	0.000689	6.891911	1.167521	0.000138
  87	8.5570e+00	1.7119	44.244989	0.000345	3.445955	0.583761	0.000069
  88	8.6565e+00	1.7326	44.374177	0.000649	6.486504	1.098844	0.000130
  89	8.7560e+00	1.7526	44.519514	0.000730	7.297317	1.236199	0.000146
  90	8.8555e+00	1.7718	44.616406	0.000486	4.864878	0.824133	0.000097
  91	8.9550e+00	1.7931	44.753668	0.000689	6.891911	1.167521	0.000138
  92	9.0545e+00	1.8115	44.903042	0.000750	7.500021	1.270538	0.000150
  93	9.1540e+00	1.8317	44.979748	0.000385	3.851362	0.652438	0.000077
  94	9.2535e+00	1.8521	45.108936	0.000649	6.486504	1.098844	0.000130
  95	9.3530e+00	1.8719	45.230050	0.000608	6.081098	1.030166	0.000122
  96	9.4525e+00	1.8909	45.343090	0.000568	5.675691	0.961488	0.000114
  97	9.5520e+00	1.9125	45.452093	0.000547	5.472988	0.927149	0.000110
  98	9.6515e+00	1.9311	45.609541	0.000791	7.905427	1.339216	0.000158
  99	9.7510e+00	1.9511	45.698358	0.000446	4.459472	0.755455	0.000089
 100	9.8505e+00	1.9712	45.815435	0.000588	5.878395	0.995827	0.000118
 101	9.9500e+00	1.9906	45.892141	0.000385	3.851362	0.652438	0.000077
 102	1.0050e+01	2.0110	46.061700	0.000851	8.513537	1.442232	0.000170
 103	1.0149e+01	2.0309	46.170703	0.000547	5.472988	0.927149	0.000110
 104	1.0248e+01	2.0513	46.271631	0.000507	5.067582	0.858472	0.000101
 105	1.0348e+01	2.0709	46.384671	0.000568	5.675691	0.961488	0.000114
 106	1.0447e+01	2.0911	46.530008	0.000730	7.297317	1.236199	0.000146
 107	1.0547e+01	2.1112	46.643048	0.000568	5.675691	0.961488	0.000114
 108	1.0646e+01	2.1313	46.748013	0.000527	5.270285	0.892810	0.000105
 109	1.0746e+01	2.1504	46.836830	0.000446	4.459472	0.755455	0.000089
 110	1.0845e+01	2.1695	46.986204	0.000750	7.500021	1.270538	0.000150
 111	1.0945e+01	2.1903	47.119430	0.000669	6.689208	1.133182	0.000134
 112	1.1044e+01	2.2097	47.220358	0.000507	5.067582	0.858472	0.000101
 113	1.1144e+01	2.2305	47.337435	0.000588	5.878395	0.995827	0.000118
 114	1.1243e+01	2.2505	47.406066	0.000345	3.445955	0.583761	0.000069
 115	1.1343e+01	2.2692	47.555440	0.000750	7.500021	1.270538	0.000150
 116	1.1443e+01	2.2910	47.652332	0.000486	4.864878	0.824133	0.000097
 117	1.1542e+01	2.3095	47.785557	0.000669	6.689208	1.133182	0.000134
 118	1.1642e+01	2.3299	47.886486	0.000507	5.067582	0.858472	0.000101
 119	1.1741e+01	2.3502	48.011637	0.000628	6.283801	1.064505	0.000126
 120	1.1841e+01	2.3696	48.132751	0.000608	6.081098	1.030166	0.000122
 121	1.1940e+01	2.3891	48.217531	0.000426	4.256769	0.721116	0.000085
 122	1.2040e+01	2.4096	48.383053	0.000831	8.310834	1.407893	0.000166
 123	1.2139e+01	2.4300	48.447647	0.000324	3.243252	0.549422	0.000065
 124	1.2239e+01	2.4494	48.584910	0.000689	6.891911	1.167521	0.000138
 125	1.2338e+01	2.4695	48.722173	0.000689	6.891911	1.167521	0.000138
 126	1.2438e+01	2.4894	48.802915	0.000405	4.054065	0.686777	0.000081
 127	1.2537e+01	2.5089	48.964401	0.000811	8.108131	1.373554	0.000162
 128	1.2636e+01	2.5298	49.069366	0.000527	5.270285	0.892810	0.000105
 129	1.2736e+01	2.5492	49.190480	0.000608	6.081098	1.030166	0.000122
 130	1.2835e+01	2.5694	49.279297	0.000446	4.459472	0.755455	0.000089
 131	1.2935e+01	2.5878	49.400411	0.000608	6.081098	1.030166	0.000122
 132	1.3034e+01	2.6081	49.553823	0.000770	7.702724	1.304877	0.000154
 133	1.3134e+01	2.6284	49.683011	0.000649	6.486504	1.098844	0.000130
 134	1.3233e+01	2.6489	49.828348	0.000730	7.297317	1.236199	0.000146
 135	1.3333e+01	2.6683	49.917165	0.000446	4.459472	0.755455	0.000089
 136	1.3432e+01	2.6880	50.010019	0.000466	4.662175	0.789794	0.000093
 137	1.3532e+01	2.7090	50.094799	0.000426	4.256769	0.721116	0.000085
 138	1.3632e+01	2.7288	50.240136	0.000730	7.297317	1.236199	0.000146
 139	1.3731e+01	2.7485	50.316841	0.000385	3.851362	0.652438	0.000077
 140	1.3831e+01	2.7679	50.490438	0.000872	8.716240	1.476571	0.000174
 141	1.3930e+01	2.7876	50.559069	0.000345	3.445955	0.583761	0.000069
 142	1.4030e+01	2.8082	50.692295	0.000669	6.689208	1.133182	0.000134
 143	1.4129e+01	2.8269	50.793223	0.000507	5.067582	0.858472	0.000101
 144	1.4229e+01	2.8472	50.934523	0.000709	7.094614	1.201860	0.000142
 145	1.4328e+01	2.8678	51.059674	0.000628	6.283801	1.064505	0.000126
 146	1.4428e+01	2.8878	51.144454	0.000426	4.256769	0.721116	0.000085
 147	1.4527e+01	2.9078	51.293828	0.000750	7.500021	1.270538	0.000150
 148	1.4627e+01	2.9267	51.410905	0.000588	5.878395	0.995827	0.000118
 149	1.4726e+01	2.9472	51.503759	0.000466	4.662175	0.789794	0.000093
 150	1.4825e+01	2.9678	51.641022	0.000689	6.891911	1.167521	0.000138
 151	1.4925e+01	2.9870	51.717727	0.000385	3.851362	0.652438	0.000077
 152	1.5024e+01	3.0073	51.883250	0.000831	8.310834	1.407893	0.000166
 153	1.5124e+01	3.0273	51.963993	0.000405	4.054065	0.686777	0.000081
 154	1.5223e+01	3.0474	52.093181	0.000649	6.486504	1.098844	0.000130
 155	1.5323e+01	3.0672	52.194109	0.000507	5.067582	0.858472	0.000101
 156	1.5422e+01	3.0867	52.315223	0.000608	6.081098	1.030166	0.000122
 157	1.5522e+01	3.1078	52.440375	0.000628	6.283801	1.064505	0.000126
 158	1.5621e+01	3.1259	52.577637	0.000689	6.891911	1.167521	0.000138
 159	1.5721e+01	3.1466	52.678566	0.000507	5.067582	0.858472	0.000101
 160	1.5820e+01	3.1669	52.783531	0.000527	5.270285	0.892810	0.000105
 161	1.5920e+01	3.1873	52.916757	0.000669	6.689208	1.133182	0.000134
 162	1.6020e+01	3.2058	53.074205	0.000791	7.905427	1.339216	0.000158
 163	1.6119e+01	3.2269	53.154948	0.000405	4.054065	0.686777	0.000081
 164	1.6218e+01	3.2461	53.247802	0.000466	4.662175	0.789794	0.000093
 165	1.6318e+01	3.2654	53.356804	0.000547	5.472988	0.927149	0.000110
 166	1.6418e+01	3.2863	53.481956	0.000628	6.283801	1.064505	0.000126
 167	1.6517e+01	3.3059	53.578847	0.000486	4.864878	0.824133	0.000097
 168	1.6616e+01	3.3253	53.744370	0.000831	8.310834	1.407893	0.000166
 169	1.6716e+01	3.3461	53.837224	0.000466	4.662175	0.789794	0.000093
 170	1.6816e+01	3.3656	53.946226	0.000547	5.472988	0.927149	0.000110
 171	1.6915e+01	3.3860	54.083489	0.000689	6.891911	1.167521	0.000138
 172	1.7015e+01	3.4060	54.172306	0.000446	4.459472	0.755455	0.000089
 173	1.7114e+01	3.4258	54.337828	0.000831	8.310834	1.407893	0.000166
 174	1.7213e+01	3.4461	54.430683	0.000466	4.662175	0.789794	0.000093
 175	1.7313e+01	3.4652	54.535648	0.000527	5.270285	0.892810	0.000105
 176	1.7413e+01	3.4861	54.620428	0.000426	4.256769	0.721116	0.000085
 177	1.7512e+01	3.5051	54.781913	0.000811	8.108131	1.373554	0.000162
 178	1.7611e+01	3.5255	54.886879	0.000527	5.270285	0.892810	0.000105
 179	1.7711e+01	3.5448	55.012030	0.000628	6.283801	1.064505	0.000126
 180	1.7811e+01	3.5648	55.121033	0.000547	5.472988	0.927149	0.000110
 181	1.7910e+01	3.5853	55.246184	0.000628	6.283801	1.064505	0.000126
 182	1.8009e+01	3.6052	55.314815	0.000345	3.445955	0.583761	0.000069
 183	1.8109e+01	3.6237	55.464189	0.000750	7.500021	1.270538	0.000150
 184	1.8209e+01	3.6455	55.548969	0.000426	4.256769	0.721116	0.000085
 185	1.8308e+01	3.6652	55.698343	0.000750	7.500021	1.270538	0.000150
 186	1.8407e+01	3.6848	55.815420	0.000588	5.878395	0.995827	0.000118
 187	1.8507e+01	3.7037	55.884051	0.000345	3.445955	0.583761	0.000069
 188	1.8607e+01	3.7246	56.053611	0.000851	8.513537	1.442232	0.000170
 189	1.8706e+01	3.7453	56.134354	0.000405	4.054065	0.686777	0.000081
 190	1.8805e+01	3.7649	56.287765	0.000770	7.702724	1.304877	0.000154
 191	1.8905e+01	3.7840	56.376582	0.000446	4.459472	0.755455	0.000089
 192	1.9005e+01	3.8033	56.521919	0.000730	7.297317	1.236199	0.000146
 193	1.9104e+01	3.8235	56.622847	0.000507	5.067582	0.858472	0.000101
 194	1.9203e+01	3.8433	56.743961	0.000608	6.081098	1.030166	0.000122
 195	1.9303e+01	3.8638	56.852964	0.000547	5.472988	0.927149	0.000110
 196	1.9402e+01	3.8832	56.978115	0.000628	6.283801	1.064505	0.000126
 197	1.9502e+01	3.9031	57.099229	0.000608	6.081098	1.030166	0.000122
 198	1.9602e+01	3.9233	57.244566	0.000730	7.297317	1.236199	0.000146
 199	1.9701e+01	3.9434	57.329346	0.000426	4.256769	0.721116	0.000085
 200	1.9800e+01	3.9632	57.458534	0.000649	6.486504	1.098844	0.000130
 201	1.9900e+01	3.9840	57.539277	0.000405	4.054065	0.686777	0.000081
 202	2.0000e+01	4.0031	57.664428	0.000628	6.283801	1.064505	0.000126
 203	2.0099e+01	4.0231	57.793617	0.000649	6.486504	1.098844	0.000130
 204	2.0198e+01	4.0430	57.906656	0.000568	5.675691	0.961488	0.000114
 205	2.0298e+01	4.0636	58.011622	0.000527	5.270285	0.892810	0.000105
 206	2.0398e+01	4.0835	58.120625	0.000547	5.472988	0.927149	0.000110
 207	2.0497e+01	4.1032	58.229627	0.000547	5.472988	0.927149	0.000110
 208	2.0596e+01	4.1219	58.366890	0.000689	6.891911	1.167521	0.000138
 209	2.0696e+01	4.1427	58.496078	0.000649	6.486504	1.098844	0.000130
 210	2.0796e+01	4.1622	58.605081	0.000547	5.472988	0.927149	0.000110
 211	2.0895e+01	4.1822	58.661601	0.000284	2.837846	0.480744	0.000057
 212	2.0994e+01	4.2019	58.815012	0.000770	7.702724	1.304877	0.000154
 213	2.1094e+01	4.2217	58.924015	0.000547	5.472988	0.927149	0.000110
 214	2.1194e+01	4.2423	59.045129	0.000608	6.081098	1.030166	0.000122
 215	2.1293e+01	4.2633	59.137983	0.000466	4.662175	0.789794	0.000093
 216	2.1392e+01	4.2828	59.267171	0.000649	6.486504	1.098844	0.000130
 217	2.1492e+01	4.3024	59.351951	0.000426	4.256769	0.721116	0.000085
 218	2.1591e+01	4.3217	59.456917	0.000527	5.270285	0.892810	0.000105
 219	2.1691e+01	4.3414	59.573994	0.000588	5.878395	0.995827	0.000118
 220	2.1791e+01	4.3625	59.687033	0.000568	5.675691	0.961488	0.000114
 221	2.1890e+01	4.3821	59.779887	0.000466	4.662175	0.789794	0.000093
 222	2.1989e+01	4.4021	59.949447	0.000851	8.513537	1.442232	0.000170
 223	2.2089e+01	4.4221	60.066524	0.000588	5.878395	0.995827	0.000118
 224	2.2189e+01	4.4419	60.143230	0.000385	3.851362	0.652438	0.000077
 225	2.2288e+01	4.4608	60.276455	0.000669	6.689208	1.133182	0.000134
 226	2.2387e+01	4.4814	60.385458	0.000547	5.472988	0.927149	0.000110
 227	2.2487e+01	4.5014	60.470238	0.000426	4.256769	0.721116	0.000085
 228	2.2587e+01	4.5212	60.603463	0.000669	6.689208	1.133182	0.000134
 229	2.2686e+01	4.5409	60.684206	0.000405	4.054065	0.686777	0.000081
 230	2.2785e+01	4.5603	60.817431	0.000669	6.689208	1.133182	0.000134
 231	2.2885e+01	4.5816	60.922397	0.000527	5.270285	0.892810	0.000105
 232	2.2985e+01	4.6001	61.055622	0.000669	6.689208	1.133182	0.000134
 233	2.3084e+01	4.6209	61.152514	0.000486	4.864878	0.824133	0.000097
 234	2.3183e+01	4.6401	61.285739	0.000669	6.689208	1.133182	0.000134
 235	2.3283e+01	4.6612	61.358408	0.000365	3.648659	0.618100	0.000073
 236	2.3383e+01	4.6804	61.483559	0.000628	6.283801	1.064505	0.000126
 237	2.3482e+01	4.6999	61.588524	0.000527	5.270285	0.892810	0.000105
 238	2.3581e+01	4.7205	61.689453	0.000507	5.067582	0.858472	0.000101
 239	2.3681e+01	4.7405	61.790381	0.000507	5.067582	0.858472	0.000101
 240	2.3780e+01	4.7599	61.931681	0.000709	7.094614	1.201860	0.000142
 241	2.3880e+01	4.7799	62.020498	0.000446	4.459472	0.755455	0.000089
 242	2.3980e+01	4.7997	62.161798	0.000709	7.094614	1.201860	0.000142
 243	2.4079e+01	4.8199	62.230429	0.000345	3.445955	0.583761	0.000069
 244	2.4178e+01	4.8403	62.331357	0.000507	5.067582	0.858472	0.000101
 245	2.4278e+01	4.8599	62.480731	0.000750	7.500021	1.270538	0.000150
 246	2.4378e+01	4.8797	62.533214	0.000264	2.635142	0.446405	0.000053
 247	2.4477e+01	4.8995	62.674514	0.000709	7.094614	1.201860	0.000142
 248	2.4576e+01	4.9192	62.735071	0.000304	3.040549	0.515083	0.000061
 249	2.4676e+01	4.9400	62.868296	0.000669	6.689208	1.133182	0.000134
 250	2.4776e+01	4.9592	62.961150	0.000466	4.662175	0.789794	0.000093
 251	2.4875e+01	4.9795	63.058042	0.000486	4.864878	0.824133	0.000097
 252	2.4974e+01	4.9995	63.146859	0.000446	4.459472	0.755455	0.000089
 253	2.5074e+01	5.0205	63.263936	0.000588	5.878395	0.995827	0.000118
 254	2.5174e+01	5.0390	63.389087	0.000628	6.283801	1.064505	0.000126
 255	2.5273e+01	5.0588	63.481941	0.000466	4.662175	0.789794	0.000093
 256	2.5372e+01	5.0782	63.615166	0.000669	6.689208	1.133182	0.000134
 257	2.5472e+01	5.0993	63.708021	0.000466	4.662175	0.789794	0.000093
 258	2.5572e+01	5.1190	63.776652	0.000345	3.445955	0.583761	0.000069
 259	2.5671e+01	5.1379	63.861432	0.000426	4.256769	0.721116	0.000085
 260	2.5770e+01	5.1587	64.026954	0.000831	8.310834	1.407893	0.000166
 261	2.5870e+01	5.1788	64.103660	0.000385	3.851362	0.652438	0.000077
 262	2.5970e+01	5.1979	64.192477	0.000446	4.459472	0.755455	0.000089
 263	2.6069e+01	5.2183	64.329739	0.000689	6.891911	1.167521	0.000138
 264	2.6169e+01	5.2377	64.426631	0.000486	4.864878	0.824133	0.000097
 265	2.6268e+01	5.2584	64.487188	0.000304	3.040549	0.515083	0.000061
 266	2.6367e+01	5.2776	64.640599	0.000770	7.702724	1.304877	0.000154
 267	2.6467e+01	5.2974	64.749602	0.000547	5.472988	0.927149	0.000110
 268	2.6567e+01	5.3182	64.842456	0.000466	4.662175	0.789794	0.000093
 269	2.6666e+01	5.3385	64.939347	0.000486	4.864878	0.824133	0.000097
 270	2.6765e+01	5.3577	65.032201	0.000466	4.662175	0.789794	0.000093
 271	2.6865e+01	5.3773	65.149278	0.000588	5.878395	0.995827	0.000118
 272	2.6965e+01	5.3973	65.230021	0.000405	4.054065	0.686777	0.000081
 273	2.7064e+01	5.4179	65.339023	0.000547	5.472988	0.927149	0.000110
 274	2.7163e+01	5.4372	65.427840	0.000446	4.459472	0.755455	0.000089
 275	2.7263e+01	5.4575	65.524732	0.000486	4.864878	0.824133	0.000097
 276	2.7363e+01	5.4771	65.629697	0.000527	5.270285	0.892810	0.000105
 277	2.7462e+01	5.4975	65.706403	0.000385	3.851362	0.652438	0.000077
 278	2.7561e+01	5.5176	65.823480	0.000588	5.878395	0.995827	0.000118
 279	2.7661e+01	5.5372	65.936519	0.000568	5.675691	0.961488	0.000114
 280	2.7761e+01	5.5572	66.013225	0.000385	3.851362	0.652438	0.000077
 281	2.7860e+01	5.5767	66.122228	0.000547	5.472988	0.927149	0.000110
 282	2.7959e+01	5.5965	66.235267	0.000568	5.675691	0.961488	0.000114
 283	2.8059e+01	5.6174	66.307936	0.000365	3.648659	0.618100	0.000073
 284	2.8159e+01	5.6371	66.396753	0.000446	4.459472	0.755455	0.000089
 285	2.8258e+01	5.6570	66.497681	0.000507	5.067582	0.858472	0.000101
 286	2.8358e+01	5.6762	66.618795	0.000608	6.081098	1.030166	0.000122
 287	2.8457e+01	5.6972	66.715687	0.000486	4.864878	0.824133	0.000097
 288	2.8556e+01	5.7166	66.788355	0.000365	3.648659	0.618100	0.000073
 289	2.8656e+01	5.7363	66.929655	0.000709	7.094614	1.201860	0.000142
 290	2.8756e+01	5.7554	66.990212	0.000304	3.040549	0.515083	0.000061
 291	2.8855e+01	5.7764	67.131512	0.000709	7.094614	1.201860	0.000142
 292	2.8954e+01	5.7968	67.224366	0.000466	4.662175	0.789794	0.000093
 293	2.9054e+01	5.8155	67.325294	0.000507	5.067582	0.858472	0.000101
 294	2.9154e+01	5.8361	67.450445	0.000628	6.283801	1.064505	0.000126
 295	2.9253e+01	5.8557	67.523114	0.000365	3.648659	0.618100	0.000073
 296	2.9352e+01	5.8756	67.615968	0.000466	4.662175	0.789794	0.000093
 297	2.9452e+01	5.8955	67.676525	0.000304	3.040549	0.515083	0.000061
 298	2.9552e+01	5.9154	67.789565	0.000568	5.675691	0.961488	0.000114
 299	2.9651e+01	5.9350	67.898567	0.000547	5.472988	0.927149	0.000110
 300	2.9750e+01	5.9556	68.015644	0.000588	5.878395	0.995827	0.000118
 301	2.9850e+01	5.9749	68.112536	0.000486	4.864878	0.824133	0.000097
 302	2.9950e+01	5.9949	68.217501	0.000527	5.270285	0.892810	0.000105
 303	3.0049e+01	6.0155	68.294207	0.000385	3.851362	0.652438	0.000077
 304	3.0148e+01	6.0345	68.431469	0.000689	6.891911	1.167521	0.000138
 305	3.0248e+01	6.0552	68.479915	0.000243	2.432439	0.412066	0.000049
 306	3.0348e+01	6.0744	68.596992	0.000588	5.878395	0.995827	0.000118
 307	3.0447e+01	6.0957	68.677735	0.000405	4.054065	0.686777	0.000081
 308	3.0547e+01	6.1144	68.766552	0.000446	4.459472	0.755455	0.000089
 309	3.0646e+01	6.1346	68.875554	0.000547	5.472988	0.927149	0.000110
 310	3.0745e+01	6.1550	68.940148	0.000324	3.243252	0.549422	0.000065
 311	3.0845e+01	6.1749	69.037040	0.000486	4.864878	0.824133	0.000097
 312	3.0945e+01	6.1941	69.162191	0.000628	6.283801	1.064505	0.000126
 313	3.1044e+01	6.2141	69.230822	0.000345	3.445955	0.583761	0.000069
 314	3.1143e+01	6.2342	69.364048	0.000669	6.689208	1.133182	0.000134
 315	3.1243e+01	6.2548	69.452865	0.000446	4.459472	0.755455	0.000089
 316	3.1343e+01	6.2736	69.569942	0.000588	5.878395	0.995827	0.000118
 317	3.1442e+01	6.2945	69.658759	0.000446	4.459472	0.755455	0.000089
 318	3.1541e+01	6.3132	69.743538	0.000426	4.256769	0.721116	0.000085
 319	3.1641e+01	6.3337	69.844467	0.000507	5.067582	0.858472	0.000101
 320	3.1741e+01	6.3531	69.945395	0.000507	5.067582	0.858472	0.000101
 321	3.1840e+01	6.3737	70.042286	0.000486	4.864878	0.824133	0.000097
 322	3.1939e+01	6.3931	70.090732	0.000243	2.432439	0.412066	0.000049
 323	3.2039e+01	6.4129	70.236069	0.000730	7.297317	1.236199	0.000146
 324	3.2139e+01	6.4336	70.320849	0.000426	4.256769	0.721116	0.000085
 325	3.2238e+01	6.4529	70.458111	0.000689	6.891911	1.167521	0.000138
 326	3.2337e+01	6.4729	70.522706	0.000324	3.243252	0.549422	0.000065
 327	3.2437e+01	6.4938	70.603448	0.000405	4.054065	0.686777	0.000081
 328	3.2536e+01	6.5128	70.712451	0.000547	5.472988	0.927149	0.000110
 329	3.2636e+01	6.5333	70.785119	0.000365	3.648659	0.618100	0.000073
 330	3.2736e+01	6.5525	70.926419	0.000709	7.094614	1.201860	0.000142
 331	3.2835e+01	6.5723	71.007162	0.000405	4.054065	0.686777	0.000081
 332	3.2934e+01	6.5918	71.095979	0.000446	4.459472	0.755455	0.000089
 333	3.3034e+01	6.6119	71.217093	0.000608	6.081098	1.030166	0.000122
 334	3.3133e+01	6.6323	71.281687	0.000324	3.243252	0.549422	0.000065
 335	3.3233e+01	6.6521	71.414913	0.000669	6.689208	1.133182	0.000134
 336	3.3333e+01	6.6723	71.503730	0.000446	4.459472	0.755455	0.000089
 337	3.3432e+01	6.6911	71.576398	0.000365	3.648659	0.618100	0.000073
 338	3.3532e+01	6.7109	71.681364	0.000527	5.270285	0.892810	0.000105
 339	3.3631e+01	6.7320	71.778255	0.000486	4.864878	0.824133	0.000097
 340	3.3730e+01	6.7522	71.895332	0.000588	5.878395	0.995827	0.000118
 341	3.3830e+01	6.7715	71.988186	0.000466	4.662175	0.789794	0.000093
 342	3.3929e+01	6.7908	72.056817	0.000345	3.445955	0.583761	0.000069
 343	3.4029e+01	6.8119	72.145634	0.000446	4.459472	0.755455	0.000089
 344	3.4129e+01	6.8313	72.270785	0.000628	6.283801	1.064505	0.000126
 345	3.4228e+01	6.8521	72.367677	0.000486	4.864878	0.824133	0.000097
 346	3.4328e+01	6.8707	72.440345	0.000365	3.648659	0.618100	0.000073
 347	3.4427e+01	6.8914	72.525125	0.000426	4.256769	0.721116	0.000085
 348	3.4526e+01	6.9115	72.630090	0.000527	5.270285	0.892810	0.000105
 349	3.4626e+01	6.9323	72.718907	0.000446	4.459472	0.755455	0.000089
 350	3.4725e+01	6.9515	72.835984	0.000588	5.878395	0.995827	0.000118
 351	3.4825e+01	6.9716	72.940950	0.000527	5.270285	0.892810	0.000105
 352	3.4925e+01	6.9912	73.033804	0.000466	4.662175	0.789794	0.000093
 353	3.5024e+01	7.0103	73.110510	0.000385	3.851362	0.652438	0.000077
 354	3.5123e+01	7.0303	73.207401	0.000486	4.864878	0.824133	0.000097
 355	3.5223e+01	7.0512	73.292181	0.000426	4.256769	0.721116	0.000085
 356	3.5322e+01	7.0708	73.429443	0.000689	6.891911	1.167521	0.000138
 357	3.5422e+01	7.0908	73.518260	0.000446	4.459472	0.755455	0.000089
 358	3.5522e+01	7.1107	73.615152	0.000486	4.864878	0.824133	0.000097
 359	3.5621e+01	7.1307	73.724154	0.000547	5.472988	0.927149	0.000110
 360	3.5721e+01	7.1500	73.821046	0.000486	4.864878	0.824133	0.000097
 361	3.5820e+01	7.1700	73.897751	0.000385	3.851362	0.652438	0.000077
 362	3.5919e+01	7.1899	73.994642	0.000486	4.864878	0.824133	0.000097
 363	3.6019e+01	7.2095	74.107682	0.000568	5.675691	0.961488	0.000114
 364	3.6118e+01	7.2295	74.180351	0.000365	3.648659	0.618100	0.000073
 365	3.6218e+01	7.2496	74.301465	0.000608	6.081098	1.030166	0.000122
 366	3.6318e+01	7.2692	74.390282	0.000446	4.459472	0.755455	0.000089
 367	3.6417e+01	7.2900	74.475062	0.000426	4.256769	0.721116	0.000085
 368	3.6517e+01	7.3084	74.584064	0.000547	5.472988	0.927149	0.000110
 369	3.6616e+01	7.3302	74.676918	0.000466	4.662175	0.789794	0.000093
 370	3.6715e+01	7.3504	74.753624	0.000385	3.851362	0.652438	0.000077
 371	3.6815e+01	7.3687	74.878775	0.000628	6.283801	1.064505	0.000126
 372	3.6914e+01	7.3895	74.935295	0.000284	2.837846	0.480744	0.000057
 373	3.7014e+01	7.4093	75.040261	0.000527	5.270285	0.892810	0.000105
 374	3.7114e+01	7.4290	75.104855	0.000324	3.243252	0.549422	0.000065
 375	3.7213e+01	7.4490	75.225969	0.000608	6.081098	1.030166	0.000122
 376	3.7313e+01	7.4697	75.347083	0.000608	6.081098	1.030166	0.000122
 377	3.7412e+01	7.4889	75.452048	0.000527	5.270285	0.892810	0.000105
 378	3.7511e+01	7.5091	75.520680	0.000345	3.445955	0.583761	0.000069
 379	3.7611e+01	7.5279	75.605460	0.000426	4.256769	0.721116	0.000085
 380	3.7711e+01	7.5488	75.682165	0.000385	3.851362	0.652438	0.000077
 381	3.7810e+01	7.5699	75.795205	0.000568	5.675691	0.961488	0.000114
 382	3.7910e+01	7.5880	75.888059	0.000466	4.662175	0.789794	0.000093
 383	3.8009e+01	7.6083	75.976876	0.000446	4.459472	0.755455	0.000089
 384	3.8108e+01	7.6280	76.102027	0.000628	6.283801	1.064505	0.000126
 385	3.8208e+01	7.6481	76.174696	0.000365	3.648659	0.618100	0.000073
 386	3.8307e+01	7.6682	76.247364	0.000365	3.648659	0.618100	0.000073
 387	3.8407e+01	7.6885	76.352330	0.000527	5.270285	0.892810	0.000105
 388	3.8507e+01	7.7077	76.429035	0.000385	3.851362	0.652438	0.000077
 389	3.8606e+01	7.7287	76.542075	0.000568	5.675691	0.961488	0.000114
 390	3.8706e+01	7.7470	76.618781	0.000385	3.851362	0.652438	0.000077
 391	3.8805e+01	7.7661	76.715672	0.000486	4.864878	0.824133	0.000097
 392	3.8904e+01	7.7875	76.828712	0.000568	5.675691	0.961488	0.000114
 393	3.9004e+01	7.8080	76.901380	0.000365	3.648659	0.618100	0.000073
 394	3.9103e+01	7.8268	77.034606	0.000669	6.689208	1.133182	0.000134
 395	3.9203e+01	7.8469	77.119385	0.000426	4.256769	0.721116	0.000085
 396	3.9303e+01	7.8681	77.159757	0.000203	2.027033	0.343389	0.000041
 397	3.9402e+01	7.8871	77.297019	0.000689	6.891911	1.167521	0.000138
 398	3.9502e+01	7.9066	77.345465	0.000243	2.432439	0.412066	0.000049
 399	3.9601e+01	7.9277	77.446393	0.000507	5.067582	0.858472	0.000101
 400	3.9700e+01	7.9472	77.547322	0.000507	5.067582	0.858472	0.000101
 401	3.9800e+01	7.9673	77.632102	0.000426	4.256769	0.721116	0.000085
 402	3.9900e+01	7.9871	77.761290	0.000649	6.486504	1.098844	0.000130
 403	3.9999e+01	8.0056	77.805699	0.000223	2.229736	0.377727	0.000045
 404	4.0099e+01	8.0262	77.942961	0.000689	6.891911	1.167521	0.000138
 405	4.0198e+01	8.0474	78.011592	0.000345	3.445955	0.583761	0.000069
 406	4.0297e+01	8.0669	78.060038	0.000243	2.432439	0.412066	0.000049
 407	4.0397e+01	8.0866	78.177115	0.000588	5.878395	0.995827	0.000118
 408	4.0496e+01	8.1068	78.294192	0.000588	5.878395	0.995827	0.000118
 409	4.0596e+01	8.1255	78.342638	0.000243	2.432439	0.412066	0.000049
 410	4.0696e+01	8.1473	78.411269	0.000345	3.445955	0.583761	0.000069
 411	4.0795e+01	8.1654	78.544494	0.000669	6.689208	1.133182	0.000134
 412	4.0895e+01	8.1844	78.621200	0.000385	3.851362	0.652438	0.000077
 413	4.0994e+01	8.2060	78.697906	0.000385	3.851362	0.652438	0.000077
 414	4.1093e+01	8.2253	78.782685	0.000426	4.256769	0.721116	0.000085
 415	4.1193e+01	8.2460	78.915911	0.000669	6.689208	1.133182	0.000134
 416	4.1292e+01	8.2647	78.960319	0.000223	2.229736	0.377727	0.000045
 417	4.1392e+01	8.2861	79.037025	0.000385	3.851362	0.652438	0.000077
 418	4.1492e+01	8.3051	79.133916	0.000486	4.864878	0.824133	0.000097
 419	4.1591e+01	8.3249	79.230807	0.000486	4.864878	0.824133	0.000097
 420	4.1691e+01	8.3450	79.283290	0.000264	2.635142	0.446405	0.000053
 421	4.1790e+01	8.3644	79.392293	0.000547	5.472988	0.927149	0.000110
 422	4.1889e+01	8.3855	79.473036	0.000405	4.054065	0.686777	0.000081
 423	4.1989e+01	8.4045	79.586075	0.000568	5.675691	0.961488	0.000114
 424	4.2089e+01	8.4248	79.646632	0.000304	3.040549	0.515083	0.000061
 425	4.2188e+01	8.4446	79.747561	0.000507	5.067582	0.858472	0.000101
 426	4.2288e+01	8.4649	79.824266	0.000385	3.851362	0.652438	0.000077
 427	4.2387e+01	8.4846	79.937306	0.000568	5.675691	0.961488	0.000114
 428	4.2486e+01	8.5059	80.001900	0.000324	3.243252	0.549422	0.000065
 429	4.2586e+01	8.5254	80.062457	0.000304	3.040549	0.515083	0.000061
 430	4.2685e+01	8.5446	80.147237	0.000426	4.256769	0.721116	0.000085
 431	4.2785e+01	8.5631	80.260277	0.000568	5.675691	0.961488	0.000114
 432	4.2885e+01	8.5840	80.353131	0.000466	4.662175	0.789794	0.000093
 433	4.2984e+01	8.6042	80.413688	0.000304	3.040549	0.515083	0.000061
 434	4.3084e+01	8.6240	80.526728	0.000568	5.675691	0.961488	0.000114
 435	4.3183e+01	8.6428	80.583248	0.000284	2.837846	0.480744	0.000057
 436	4.3282e+01	8.6636	80.700325	0.000588	5.878395	0.995827	0.000118
 437	4.3382e+01	8.6834	80.728585	0.000142	1.418923	0.240372	0.000028
 438	4.3481e+01	8.7038	80.837587	0.000547	5.472988	0.927149	0.000110
 439	4.3581e+01	8.7247	80.898144	0.000304	3.040549	0.515083	0.000061
 440	4.3681e+01	8.7430	80.990999	0.000466	4.662175	0.789794	0.000093
 441	4.3780e+01	8.7646	81.112113	0.000608	6.081098	1.030166	0.000122
 442	4.3880e+01	8.7839	81.172670	0.000304	3.040549	0.515083	0.000061
 443	4.3979e+01	8.8037	81.213041	0.000203	2.027033	0.343389	0.000041
 444	4.4078e+01	8.8236	81.309932	0.000486	4.864878	0.824133	0.000097
 445	4.4178e+01	8.8428	81.418935	0.000547	5.472988	0.927149	0.000110
 446	4.4278e+01	8.8633	81.467381	0.000243	2.432439	0.412066	0.000049
 447	4.4377e+01	8.8828	81.544086	0.000385	3.851362	0.652438	0.000077
 448	4.4477e+01	8.9023	81.620792	0.000385	3.851362	0.652438	0.000077
 449	4.4576e+01	8.9230	81.721720	0.000507	5.067582	0.858472	0.000101
 450	4.4675e+01	8.9408	81.810537	0.000446	4.459472	0.755455	0.000089
 451	4.4775e+01	8.9628	81.895317	0.000426	4.256769	0.721116	0.000085
 452	4.4874e+01	8.9816	81.976060	0.000405	4.054065	0.686777	0.000081
 453	4.4974e+01	9.0018	82.056802	0.000405	4.054065	0.686777	0.000081
 454	4.5074e+01	9.0215	82.129471	0.000365	3.648659	0.618100	0.000073
 455	4.5173e+01	9.0424	82.210214	0.000405	4.054065	0.686777	0.000081
 456	4.5273e+01	9.0613	82.307105	0.000486	4.864878	0.824133	0.000097
 457	4.5372e+01	9.0822	82.375736	0.000345	3.445955	0.583761	0.000069
 458	4.5471e+01	9.1022	82.464553	0.000446	4.459472	0.755455	0.000089
 459	4.5571e+01	9.1213	82.541259	0.000385	3.851362	0.652438	0.000077
 460	4.5670e+01	9.1409	82.630076	0.000446	4.459472	0.755455	0.000089
 461	4.5770e+01	9.1614	82.714856	0.000426	4.256769	0.721116	0.000085
 462	4.5870e+01	9.1801	82.767338	0.000264	2.635142	0.446405	0.000053
 463	4.5969e+01	9.2010	82.876341	0.000547	5.472988	0.927149	0.000110
 464	4.6069e+01	9.2216	82.957084	0.000405	4.054065	0.686777	0.000081
 465	4.6168e+01	9.2409	83.041864	0.000426	4.256769	0.721116	0.000085
 466	4.6267e+01	9.2608	83.118569	0.000385	3.851362	0.652438	0.000077
 467	4.6367e+01	9.2814	83.207386	0.000446	4.459472	0.755455	0.000089
 468	4.6467e+01	9.3005	83.292166	0.000426	4.256769	0.721116	0.000085
 469	4.6566e+01	9.3214	83.372909	0.000405	4.054065	0.686777	0.000081
 470	4.6666e+01	9.3398	83.457689	0.000426	4.256769	0.721116	0.000085
 471	4.6765e+01	9.3604	83.518246	0.000304	3.040549	0.515083	0.000061
 472	4.6864e+01	9.3804	83.623211	0.000527	5.270285	0.892810	0.000105
 473	4.6964e+01	9.4003	83.683768	0.000304	3.040549	0.515083	0.000061
 474	4.7063e+01	9.4205	83.760474	0.000385	3.851362	0.652438	0.000077
 475	4.7163e+01	9.4404	83.845254	0.000426	4.256769	0.721116	0.000085
 476	4.7263e+01	9.4593	83.954256	0.000547	5.472988	0.927149	0.000110
 477	4.7362e+01	9.4788	84.018850	0.000324	3.243252	0.549422	0.000065
 478	4.7462e+01	9.5001	84.087482	0.000345	3.445955	0.583761	0.000069
 479	4.7561e+01	9.5196	84.156113	0.000345	3.445955	0.583761	0.000069
 480	4.7660e+01	9.5395	84.228781	0.000365	3.648659	0.618100	0.000073
 481	4.7760e+01	9.5594	84.309524	0.000405	4.054065	0.686777	0.000081
 482	4.7859e+01	9.5792	84.406415	0.000486	4.864878	0.824133	0.000097
 483	4.7959e+01	9.5996	84.466972	0.000304	3.040549	0.515083	0.000061
 484	4.8059e+01	9.6195	84.559827	0.000466	4.662175	0.789794	0.000093
 485	4.8158e+01	9.6397	84.660755	0.000507	5.067582	0.858472	0.000101
 486	4.8258e+01	9.6594	84.705163	0.000223	2.229736	0.377727	0.000045
 487	4.8357e+01	9.6791	84.802055	0.000486	4.864878	0.824133	0.000097
 488	4.8456e+01	9.6980	84.894909	0.000466	4.662175	0.789794	0.000093
 489	4.8556e+01	9.7192	84.971614	0.000385	3.851362	0.652438	0.000077
 490	4.8656e+01	9.7388	85.011986	0.000203	2.027033	0.343389	0.000041
 491	4.8755e+01	9.7595	85.112914	0.000507	5.067582	0.858472	0.000101
 492	4.8855e+01	9.7787	85.185583	0.000365	3.648659	0.618100	0.000073
 493	4.8954e+01	9.7980	85.290548	0.000527	5.270285	0.892810	0.000105
 494	4.9053e+01	9.8193	85.355142	0.000324	3.243252	0.549422	0.000065
 495	4.9153e+01	9.8389	85.464145	0.000547	5.472988	0.927149	0.000110
 496	4.9252e+01	9.8584	85.548925	0.000426	4.256769	0.721116	0.000085
 497	4.9352e+01	9.8792	85.633705	0.000426	4.256769	0.721116	0.000085
 498	4.9452e+01	9.8988	85.706373	0.000365	3.648659	0.618100	0.000073
 499	4.9551e+01	9.9172	85.758856	0.000264	2.635142	0.446405	0.000053
 500	4.9651e+01	9.9383	85.884007	0.000628	6.283801	1.064505	0.000126
 501	4.9750e+01	9.9575	85.924378	0.000203	2.027033	0.343389	0.000041
 502	4.9849e+01	9.9763	86.049530	0.000628	6.283801	1.064505	0.000126
 503	4.9949e+01	9.9976	86.093938	0.000223	2.229736	0.377727	0.000045
 504	5.0048e+01	9.9776	86.033381	0.000304	3.040549	0.515083	-0.000061
 505	5.0148e+01	9.9579	85.980898	0.000264	2.635142	0.446405	-0.000053
 506	5.0248e+01	9.9371	85.936490	0.000223	2.229736	0.377727	-0.000045
 507	5.0347e+01	9.9182	85.875933	0.000304	3.040549	0.515083	-0.000061
 508	5.0447e+01	9.8978	85.815376	0.000304	3.040549	0.515083	-0.000061
 509	5.0546e+01	9.8792	85.762893	0.000264	2.635142	0.446405	-0.000053
 510	5.0645e+01	9.8575	85.734633	0.000142	1.418923	0.240372	-0.000028
 511	5.0745e+01	9.8379	85.653890	0.000405	4.054065	0.686777	-0.000081
 512	5.0844e+01	9.8182	85.613519	0.000203	2.027033	0.343389	-0.000041
 513	5.0944e+01	9.7987	85.561036	0.000264	2.635142	0.446405	-0.000053
 514	5.1044e+01	9.7789	85.500479	0.000304	3.040549	0.515083	-0.000061
 515	5.1143e+01	9.7589	85.447996	0.000264	2.635142	0.446405	-0.000053
 516	5.1242e+01	9.7388	85.347068	0.000507	5.067582	0.858472	-0.000101
 517	5.1342e+01	9.7187	85.290548	0.000284	2.837846	0.480744	-0.000057
 518	5.1441e+01	9.6976	85.258251	0.000162	1.621626	0.274711	-0.000032
 519	5.1541e+01	9.6791	85.177508	0.000405	4.054065	0.686777	-0.000081
 520	5.1641e+01	9.6597	85.137137	0.000203	2.027033	0.343389	-0.000041
 521	5.1740e+01	9.6405	85.040246	0.000486	4.864878	0.824133	-0.000097
 522	5.1840e+01	9.6205	84.991800	0.000243	2.432439	0.412066	-0.000049
 523	5.1939e+01	9.5996	84.959503	0.000162	1.621626	0.274711	-0.000032
 524	5.2038e+01	9.5801	84.862612	0.000486	4.864878	0.824133	-0.000097
 525	5.2138e+01	9.5593	84.818203	0.000223	2.229736	0.377727	-0.000045
 526	5.2237e+01	9.5410	84.765721	0.000264	2.635142	0.446405	-0.000053
 527	5.2337e+01	9.5195	84.697089	0.000345	3.445955	0.583761	-0.000069
 528	5.2437e+01	9.4998	84.632495	0.000324	3.243252	0.549422	-0.000065
 529	5.2536e+01	9.4796	84.575975	0.000284	2.837846	0.480744	-0.000057
 530	5.2636e+01	9.4596	84.515418	0.000304	3.040549	0.515083	-0.000061
 531	5.2735e+01	9.4406	84.454861	0.000304	3.040549	0.515083	-0.000061
 532	5.2834e+01	9.4202	84.374118	0.000405	4.054065	0.686777	-0.000081
 533	5.2934e+01	9.3996	84.362007	0.000061	0.608110	0.103017	-0.000012
 534	5.3033e+01	9.3803	84.257041	0.000527	5.270285	0.892810	-0.000105
 535	5.3133e+01	9.3604	84.244930	0.000061	0.608110	0.103017	-0.000012
 536	5.3233e+01	9.3408	84.152076	0.000466	4.662175	0.789794	-0.000093
 537	5.3332e+01	9.3207	84.075370	0.000385	3.851362	0.652438	-0.000077
 538	5.3431e+01	9.3008	84.022888	0.000264	2.635142	0.446405	-0.000053
 539	5.3531e+01	9.2813	83.909848	0.000568	5.675691	0.961488	-0.000114
 540	5.3630e+01	9.2603	83.897736	0.000061	0.608110	0.103017	-0.000012
 541	5.3730e+01	9.2407	83.808919	0.000446	4.459472	0.755455	-0.000089
 542	5.3830e+01	9.2206	83.716065	0.000466	4.662175	0.789794	-0.000093
 543	5.3929e+01	9.2001	83.675694	0.000203	2.027033	0.343389	-0.000041
 544	5.4029e+01	9.1799	83.598988	0.000385	3.851362	0.652438	-0.000077
 545	5.4128e+01	9.1621	83.558617	0.000203	2.027033	0.343389	-0.000041
 546	5.4227e+01	9.1417	83.481911	0.000385	3.851362	0.652438	-0.000077
 547	5.4327e+01	9.1220	83.409243	0.000365	3.648659	0.618100	-0.000073
 548	5.4426e+01	9.1018	83.368872	0.000203	2.027033	0.343389	-0.000041
 549	5.4526e+01	9.0821	83.296203	0.000365	3.648659	0.618100	-0.000073
 550	5.4626e+01	9.0614	83.203349	0.000466	4.662175	0.789794	-0.000093
 551	5.4725e+01	9.0408	83.162978	0.000203	2.027033	0.343389	-0.000041
 552	5.4825e+01	9.0214	83.082235	0.000405	4.054065	0.686777	-0.000081
 553	5.4924e+01	9.0018	83.021678	0.000304	3.040549	0.515083	-0.000061
 554	5.5023e+01	8.9819	82.961121	0.000304	3.040549	0.515083	-0.000061
 555	5.5123e+01	8.9613	82.904601	0.000284	2.837846	0.480744	-0.000057
 556	5.5222e+01	8.9417	82.811747	0.000466	4.662175	0.789794	-0.000093
 557	5.5322e+01	8.9219	82.763301	0.000243	2.432439	0.412066	-0.000049
 558	5.5422e+01	8.9021	82.682558	0.000405	4.054065	0.686777	-0.000081
 559	5.5521e+01	8.8821	82.613927	0.000345	3.445955	0.583761	-0.000069
 560	5.5620e+01	8.8623	82.557407	0.000284	2.837846	0.480744	-0.000057
 561	5.5720e+01	8.8422	82.504925	0.000264	2.635142	0.446405	-0.000053
 562	5.5819e+01	8.8232	82.424182	0.000405	4.054065	0.686777	-0.000081
 563	5.5919e+01	8.8037	82.355550	0.000345	3.445955	0.583761	-0.000069
 564	5.6019e+01	8.7842	82.294993	0.000304	3.040549	0.515083	-0.000061
 565	5.6118e+01	8.7630	82.214251	0.000405	4.054065	0.686777	-0.000081
 566	5.6218e+01	8.7429	82.157731	0.000284	2.837846	0.480744	-0.000057
 567	5.6317e+01	8.7234	82.048728	0.000547	5.472988	0.927149	-0.000110
 568	5.6416e+01	8.7040	81.992208	0.000284	2.837846	0.480744	-0.000057
 569	5.6516e+01	8.6843	81.943763	0.000243	2.432439	0.412066	-0.000049
 570	5.6615e+01	8.6634	81.871094	0.000365	3.648659	0.618100	-0.000073
 571	5.6715e+01	8.6431	81.790351	0.000405	4.054065	0.686777	-0.000081
 572	5.6815e+01	8.6240	81.733832	0.000284	2.837846	0.480744	-0.000057
 573	5.6914e+01	8.6052	81.661163	0.000365	3.648659	0.618100	-0.000073
 574	5.7014e+01	8.5840	81.544086	0.000588	5.878395	0.995827	-0.000118
 575	5.7113e+01	8.5649	81.540049	0.000020	0.202703	0.034339	-0.000004
 576	5.7212e+01	8.5441	81.451232	0.000446	4.459472	0.755455	-0.000089
 577	5.7312e+01	8.5257	81.354341	0.000486	4.864878	0.824133	-0.000097
 578	5.7411e+01	8.5046	81.301858	0.000264	2.635142	0.446405	-0.000053
 579	5.7511e+01	8.4848	81.221115	0.000405	4.054065	0.686777	-0.000081
 580	5.7611e+01	8.4650	81.156521	0.000324	3.243252	0.549422	-0.000065
 581	5.7710e+01	8.4441	81.071741	0.000426	4.256769	0.721116	-0.000085
 582	5.7809e+01	8.4241	81.031370	0.000203	2.027033	0.343389	-0.000041
 583	5.7909e+01	8.4046	80.934479	0.000486	4.864878	0.824133	-0.000097
 584	5.8008e+01	8.3859	80.857773	0.000385	3.851362	0.652438	-0.000077
 585	5.8108e+01	8.3660	80.781068	0.000385	3.851362	0.652438	-0.000077
 586	5.8208e+01	8.3453	80.716473	0.000324	3.243252	0.549422	-0.000065
 587	5.8307e+01	8.3242	80.623619	0.000466	4.662175	0.789794	-0.000093
 588	5.8407e+01	8.3057	80.554988	0.000345	3.445955	0.583761	-0.000069
 589	5.8506e+01	8.2841	80.441948	0.000568	5.675691	0.961488	-0.000114
 590	5.8605e+01	8.2654	80.365243	0.000385	3.851362	0.652438	-0.000077
 591	5.8705e+01	8.2462	80.369280	-0.000020	-0.202703	-0.034339	0.000004
 592	5.8804e+01	8.2258	80.272388	0.000486	4.864878	0.824133	-0.000097
 593	5.8904e+01	8.2066	80.183571	0.000446	4.459472	0.755455	-0.000089
 594	5.9004e+01	8.1868	80.135126	0.000243	2.432439	0.412066	-0.000049
 595	5.9103e+01	8.1647	80.054383	0.000405	4.054065	0.686777	-0.000081
 596	5.9203e+01	8.1461	79.969603	0.000426	4.256769	0.721116	-0.000085
 597	5.9302e+01	8.1259	79.905009	0.000324	3.243252	0.549422	-0.000065
 598	5.9401e+01	8.1069	79.832341	0.000365	3.648659	0.618100	-0.000073
 599	5.9501e+01	8.0862	79.779858	0.000264	2.635142	0.446405	-0.000053
 600	5.9600e+01	8.0674	79.691041	0.000446	4.459472	0.755455	-0.000089
 601	5.9700e+01	8.0469	79.614335	0.000385	3.851362	0.652438	-0.000077
 602	5.9800e+01	8.0262	79.525518	0.000446	4.459472	0.755455	-0.000089
 603	5.9899e+01	8.0065	79.412479	0.000568	5.675691	0.961488	-0.000114
 604	5.9998e+01	7.9873	79.372107	0.000203	2.027033	0.343389	-0.000041
 605	6.0098e+01	7.9668	79.275216	0.000486	4.864878	0.824133	-0.000097
 606	6.0197e+01	7.9460	79.174288	0.000507	5.067582	0.858472	-0.000101
 607	6.0297e+01	7.9272	79.178325	-0.000020	-0.202703	-0.034339	0.000004
 608	6.0397e+01	7.9071	79.024914	0.000770	7.702724	1.304877	-0.000154
 609	6.0496e+01	7.8880	78.932059	0.000466	4.662175	0.789794	-0.000093
 610	6.0596e+01	7.8681	78.883614	0.000243	2.432439	0.412066	-0.000049
 611	6.0695e+01	7.8474	78.823057	0.000304	3.040549	0.515083	-0.000061
 612	6.0794e+01	7.8268	78.718091	0.000527	5.270285	0.892810	-0.000105
 613	6.0894e+01	7.8081	78.637348	0.000405	4.054065	0.686777	-0.000081
 614	6.0993e+01	7.7881	78.552569	0.000426	4.256769	0.721116	-0.000085
 615	6.1093e+01	7.7687	78.479900	0.000365	3.648659	0.618100	-0.000073
 616	6.1193e+01	7.7477	78.370898	0.000547	5.472988	0.927149	-0.000110
 617	6.1292e+01	7.7276	78.302266	0.000345	3.445955	0.583761	-0.000069
 618	6.1392e+01	7.7065	78.237672	0.000324	3.243252	0.549422	-0.000065
 619	6.1491e+01	7.6878	78.144818	0.000466	4.662175	0.789794	-0.000093
 620	6.1590e+01	7.6679	78.088298	0.000284	2.837846	0.480744	-0.000057
 621	6.1690e+01	7.6475	77.995444	0.000466	4.662175	0.789794	-0.000093
 622	6.1789e+01	7.6283	77.930850	0.000324	3.243252	0.549422	-0.000065
 623	6.1889e+01	7.6077	77.862218	0.000345	3.445955	0.583761	-0.000069
 624	6.1989e+01	7.5880	77.805699	0.000284	2.837846	0.480744	-0.000057
 625	6.2088e+01	7.5684	77.716882	0.000446	4.459472	0.755455	-0.000089
 626	6.2188e+01	7.5481	77.619990	0.000486	4.864878	0.824133	-0.000097
 627	6.2287e+01	7.5285	77.551359	0.000345	3.445955	0.583761	-0.000069
 628	6.2386e+01	7.5083	77.462542	0.000446	4.459472	0.755455	-0.000089
 629	6.2486e+01	7.4891	77.401985	0.000304	3.040549	0.515083	-0.000061
 630	6.2586e+01	7.4688	77.321242	0.000405	4.054065	0.686777	-0.000081
 631	6.2685e+01	7.4489	77.256648	0.000324	3.243252	0.549422	-0.000065
 632	6.2785e+01	7.4288	77.135534	0.000608	6.081098	1.030166	-0.000122
 633	6.2884e+01	7.4089	77.042680	0.000466	4.662175	0.789794	-0.000093
 634	6.2983e+01	7.3882	76.998271	0.000223	2.229736	0.377727	-0.000045
 635	6.3083e+01	7.3692	76.929640	0.000345	3.445955	0.583761	-0.000069
 636	6.3182e+01	7.3492	76.836786	0.000466	4.662175	0.789794	-0.000093
 637	6.3282e+01	7.3302	76.747969	0.000446	4.459472	0.755455	-0.000089
 638	6.3382e+01	7.3096	76.679338	0.000345	3.445955	0.583761	-0.000069
 639	6.3481e+01	7.2900	76.586484	0.000466	4.662175	0.789794	-0.000093
 640	6.3581e+01	7.2695	76.509778	0.000385	3.851362	0.652438	-0.000077
 641	6.3680e+01	7.2491	76.429035	0.000405	4.054065	0.686777	-0.000081
 642	6.3779e+01	7.2294	76.324070	0.000527	5.270285	0.892810	-0.000105
 643	6.3879e+01	7.2099	76.267550	0.000284	2.837846	0.480744	-0.000057
 644	6.3978e+01	7.1900	76.182770	0.000426	4.256769	0.721116	-0.000085
 645	6.4078e+01	7.1696	76.069730	0.000568	5.675691	0.961488	-0.000114
 646	6.4177e+01	7.1501	75.984950	0.000426	4.256769	0.721116	-0.000085
 647	6.4277e+01	7.1304	75.932468	0.000264	2.635142	0.446405	-0.000053
 648	6.4376e+01	7.1102	75.855762	0.000385	3.851362	0.652438	-0.000077
 649	6.4476e+01	7.0905	75.775019	0.000405	4.054065	0.686777	-0.000081
 650	6.4576e+01	7.0705	75.686202	0.000446	4.459472	0.755455	-0.000089
 651	6.4675e+01	7.0508	75.609497	0.000385	3.851362	0.652438	-0.000077
 652	6.4775e+01	7.0300	75.528754	0.000405	4.054065	0.686777	-0.000081
 653	6.4874e+01	7.0112	75.435900	0.000466	4.662175	0.789794	-0.000093
 654	6.4974e+01	6.9906	75.343046	0.000466	4.662175	0.789794	-0.000093
 655	6.5073e+01	6.9722	75.286526	0.000284	2.837846	0.480744	-0.000057
 656	6.5172e+01	6.9511	75.185597	0.000507	5.067582	0.858472	-0.000101
 657	6.5272e+01	6.9315	75.137152	0.000243	2.432439	0.412066	-0.000049
 658	6.5371e+01	6.9114	75.072558	0.000324	3.243252	0.549422	-0.000065
 659	6.5471e+01	6.8910	74.979703	0.000466	4.662175	0.789794	-0.000093
 660	6.5570e+01	6.8711	74.862627	0.000588	5.878395	0.995827	-0.000118
 661	6.5670e+01	6.8519	74.793995	0.000345	3.445955	0.583761	-0.000069
 662	6.5769e+01	6.8314	74.717290	0.000385	3.851362	0.652438	-0.000077
 663	6.5869e+01	6.8121	74.664807	0.000264	2.635142	0.446405	-0.000053
 664	6.5969e+01	6.7920	74.535619	0.000649	6.486504	1.098844	-0.000130
 665	6.6068e+01	6.7719	74.483136	0.000264	2.635142	0.446405	-0.000053
 666	6.6168e+01	6.7518	74.386245	0.000486	4.864878	0.824133	-0.000097
 667	6.6267e+01	6.7323	74.301465	0.000426	4.256769	0.721116	-0.000085
 668	6.6367e+01	6.7114	74.200536	0.000507	5.067582	0.858472	-0.000101
 669	6.6466e+01	6.6920	74.144016	0.000284	2.837846	0.480744	-0.000057
 670	6.6566e+01	6.6720	74.059237	0.000426	4.256769	0.721116	-0.000085
 671	6.6665e+01	6.6529	73.970420	0.000446	4.459472	0.755455	-0.000089
 672	6.6764e+01	6.6319	73.905825	0.000324	3.243252	0.549422	-0.000065
 673	6.6864e+01	6.6129	73.829120	0.000385	3.851362	0.652438	-0.000077
 674	6.6963e+01	6.5923	73.728191	0.000507	5.067582	0.858472	-0.000101
 675	6.7063e+01	6.5723	73.663597	0.000324	3.243252	0.549422	-0.000065
 676	6.7162e+01	6.5527	73.599003	0.000324	3.243252	0.549422	-0.000065
 677	6.7262e+01	6.5333	73.453666	0.000730	7.297317	1.236199	-0.000146
 678	6.7362e+01	6.5134	73.401183	0.000264	2.635142	0.446405	-0.000053
 679	6.7461e+01	6.4928	73.316404	0.000426	4.256769	0.721116	-0.000085
 680	6.7561e+01	6.4727	73.255847	0.000304	3.040549	0.515083	-0.000061
 681	6.7660e+01	6.4529	73.158955	0.000486	4.864878	0.824133	-0.000097
 682	6.7760e+01	6.4330	73.058027	0.000507	5.067582	0.858472	-0.000101
 683	6.7859e+01	6.4129	73.033804	0.000122	1.216220	0.206033	-0.000024
 684	6.7959e+01	6.3929	72.896541	0.000689	6.891911	1.167521	-0.000138
 685	6.8058e+01	6.3726	72.819836	0.000385	3.851362	0.652438	-0.000077
 686	6.8157e+01	6.3527	72.755242	0.000324	3.243252	0.549422	-0.000065
 687	6.8257e+01	6.3334	72.670462	0.000426	4.256769	0.721116	-0.000085
 688	6.8356e+01	6.3122	72.593756	0.000385	3.851362	0.652438	-0.000077
 689	6.8456e+01	6.2949	72.476679	0.000588	5.878395	0.995827	-0.000118
 690	6.8555e+01	6.2740	72.456494	0.000101	1.013516	0.171694	-0.000020
 691	6.8655e+01	6.2546	72.331342	0.000628	6.283801	1.064505	-0.000126
 692	6.8754e+01	6.2341	72.266748	0.000324	3.243252	0.549422	-0.000065
 693	6.8854e+01	6.2144	72.214266	0.000264	2.635142	0.446405	-0.000053
 694	6.8954e+01	6.1947	72.121411	0.000466	4.662175	0.789794	-0.000093
 695	6.9053e+01	6.1741	72.024520	0.000486	4.864878	0.824133	-0.000097
 696	6.9153e+01	6.1550	71.935703	0.000446	4.459472	0.755455	-0.000089
 697	6.9252e+01	6.1349	71.887258	0.000243	2.432439	0.412066	-0.000049
 698	6.9352e+01	6.1150	71.774218	0.000568	5.675691	0.961488	-0.000114
 699	6.9451e+01	6.0950	71.705586	0.000345	3.445955	0.583761	-0.000069
 700	6.9550e+01	6.0748	71.640992	0.000324	3.243252	0.549422	-0.000065
 701	6.9650e+01	6.0557	71.527952	0.000568	5.675691	0.961488	-0.000114
 702	6.9749e+01	6.0358	71.463358	0.000324	3.243252	0.549422	-0.000065
 703	6.9849e+01	6.0160	71.398764	0.000324	3.243252	0.549422	-0.000065
 704	6.9948e+01	5.9951	71.309947	0.000446	4.459472	0.755455	-0.000089
 705	7.0048e+01	5.9753	71.213056	0.000486	4.864878	0.824133	-0.000097
 706	7.0147e+01	5.9554	71.128276	0.000426	4.256769	0.721116	-0.000085
 707	7.0247e+01	5.9348	71.031385	0.000486	4.864878	0.824133	-0.000097
 708	7.0347e+01	5.9158	70.942568	0.000446	4.459472	0.755455	-0.000089
 709	7.0446e+01	5.8956	70.865862	0.000385	3.851362	0.652438	-0.000077
 710	7.0546e+01	5.8762	70.785119	0.000405	4.054065	0.686777	-0.000081
 711	7.0645e+01	5.8556	70.700340	0.000426	4.256769	0.721116	-0.000085
 712	7.0745e+01	5.8358	70.635745	0.000324	3.243252	0.549422	-0.000065
 713	7.0844e+01	5.8160	70.579226	0.000284	2.837846	0.480744	-0.000057
 714	7.0944e+01	5.7949	70.462149	0.000588	5.878395	0.995827	-0.000118
 715	7.1043e+01	5.7754	70.357183	0.000527	5.270285	0.892810	-0.000105
 716	7.1142e+01	5.7552	70.292589	0.000324	3.243252	0.549422	-0.000065
 717	7.1242e+01	5.7363	70.191661	0.000507	5.067582	0.858472	-0.000101
 718	7.1341e+01	5.7160	70.090732	0.000507	5.067582	0.858472	-0.000101
 719	7.1441e+01	5.6960	70.009989	0.000405	4.054065	0.686777	-0.000081
 720	7.1540e+01	5.6760	69.929247	0.000405	4.054065	0.686777	-0.000081
 721	7.1640e+01	5.6562	69.888875	0.000203	2.027033	0.343389	-0.000041
 722	7.1740e+01	5.6365	69.787947	0.000507	5.067582	0.858472	-0.000101
 723	7.1839e+01	5.6170	69.703167	0.000426	4.256769	0.721116	-0.000085
 724	7.1939e+01	5.5972	69.561867	0.000709	7.094614	1.201860	-0.000142
 725	7.2038e+01	5.5776	69.497273	0.000324	3.243252	0.549422	-0.000065
 726	7.2138e+01	5.5570	69.432679	0.000324	3.243252	0.549422	-0.000065
 727	7.2237e+01	5.5373	69.364048	0.000345	3.445955	0.583761	-0.000069
 728	7.2337e+01	5.5166	69.255045	0.000547	5.472988	0.927149	-0.000110
 729	7.2436e+01	5.4974	69.194488	0.000304	3.040549	0.515083	-0.000061
 730	7.2535e+01	5.4769	69.101634	0.000466	4.662175	0.789794	-0.000093
 731	7.2635e+01	5.4571	68.988594	0.000568	5.675691	0.961488	-0.000114
 732	7.2734e+01	5.4371	68.928037	0.000304	3.040549	0.515083	-0.000061
 733	7.2834e+01	5.4169	68.806923	0.000608	6.081098	1.030166	-0.000122
 734	7.2933e+01	5.3976	68.730217	0.000385	3.851362	0.652438	-0.000077
 735	7.3033e+01	5.3779	68.649475	0.000405	4.054065	0.686777	-0.000081
 736	7.3132e+01	5.3580	68.580843	0.000345	3.445955	0.583761	-0.000069
 737	7.3232e+01	5.3376	68.463766	0.000588	5.878395	0.995827	-0.000118
 738	7.3332e+01	5.3185	68.358801	0.000527	5.270285	0.892810	-0.000105
 739	7.3431e+01	5.2981	68.261910	0.000486	4.864878	0.824133	-0.000097
 740	7.3531e+01	5.2779	68.169056	0.000466	4.662175	0.789794	-0.000093
 741	7.3630e+01	5.2578	68.112536	0.000284	2.837846	0.480744	-0.000057
 742	7.3730e+01	5.2386	67.999496	0.000568	5.675691	0.961488	-0.000114
 743	7.3829e+01	5.2182	67.938939	0.000304	3.040549	0.515083	-0.000061
 744	7.3928e+01	5.1978	67.833973	0.000527	5.270285	0.892810	-0.000105
 745	7.4028e+01	5.1788	67.757268	0.000385	3.851362	0.652438	-0.000077
 746	7.4127e+01	5.1577	67.652302	0.000527	5.270285	0.892810	-0.000105
 747	7.4227e+01	5.1397	67.571559	0.000405	4.054065	0.686777	-0.000081
 748	7.4326e+01	5.1183	67.486780	0.000426	4.256769	0.721116	-0.000085
 749	7.4426e+01	5.1010	67.357591	0.000649	6.486504	1.098844	-0.000130
 750	7.4525e+01	5.0784	67.292997	0.000324	3.243252	0.549422	-0.000065
 751	7.4625e+01	5.0578	67.183994	0.000547	5.472988	0.927149	-0.000110
 752	7.4725e+01	5.0401	67.087103	0.000486	4.864878	0.824133	-0.000097
 753	7.4824e+01	5.0199	67.026546	0.000304	3.040549	0.515083	-0.000061
 754	7.4924e+01	4.9999	66.929655	0.000486	4.864878	0.824133	-0.000097
 755	7.5023e+01	4.9789	66.836801	0.000466	4.662175	0.789794	-0.000093
 756	7.5123e+01	4.9596	66.764132	0.000365	3.648659	0.618100	-0.000073
 757	7.5222e+01	4.9399	66.659167	0.000527	5.270285	0.892810	-0.000105
 758	7.5322e+01	4.9197	66.542090	0.000588	5.878395	0.995827	-0.000118
 759	7.5421e+01	4.9005	66.461347	0.000405	4.054065	0.686777	-0.000081
 760	7.5520e+01	4.8804	66.364456	0.000486	4.864878	0.824133	-0.000097
 761	7.5620e+01	4.8595	66.291787	0.000365	3.648659	0.618100	-0.000073
 762	7.5719e+01	4.8397	66.170673	0.000608	6.081098	1.030166	-0.000122
 763	7.5819e+01	4.8194	66.098005	0.000365	3.648659	0.618100	-0.000073
 764	7.5918e+01	4.8003	65.960742	0.000689	6.891911	1.167521	-0.000138
 765	7.6018e+01	4.7805	65.912297	0.000243	2.432439	0.412066	-0.000049
 766	7.6118e+01	4.7606	65.791183	0.000608	6.081098	1.030166	-0.000122
 767	7.6217e+01	4.7403	65.718514	0.000365	3.648659	0.618100	-0.000073
 768	7.6317e+01	4.7213	65.633734	0.000426	4.256769	0.721116	-0.000085
 769	7.6416e+01	4.7018	65.524732	0.000547	5.472988	0.927149	-0.000110
 770	7.6516e+01	4.6803	65.443989	0.000405	4.054065	0.686777	-0.000081
 771	7.6615e+01	4.6610	65.318838	0.000628	6.283801	1.064505	-0.000126
 772	7.6715e+01	4.6408	65.230021	0.000446	4.459472	0.755455	-0.000089
 773	7.6814e+01	4.6207	65.125055	0.000527	5.270285	0.892810	-0.000105
 774	7.6913e+01	4.6012	64.979718	0.000730	7.297317	1.236199	-0.000146
 775	7.7013e+01	4.5813	64.935310	0.000223	2.229736	0.377727	-0.000045
 776	7.7112e+01	4.5617	64.838419	0.000486	4.864878	0.824133	-0.000097
 777	7.7212e+01	4.5415	64.733453	0.000527	5.270285	0.892810	-0.000105
 778	7.7311e+01	4.5216	64.668859	0.000324	3.243252	0.549422	-0.000065
 779	7.7411e+01	4.5014	64.511411	0.000791	7.905427	1.339216	-0.000158
 780	7.7510e+01	4.4819	64.430668	0.000405	4.054065	0.686777	-0.000081
 781	7.7610e+01	4.4622	64.329739	0.000507	5.067582	0.858472	-0.000101
 782	7.7710e+01	4.4418	64.269182	0.000304	3.040549	0.515083	-0.000061
 783	7.7809e+01	4.4220	64.144031	0.000628	6.283801	1.064505	-0.000126
 784	7.7909e+01	4.4006	64.035029	0.000547	5.472988	0.927149	-0.000110
 785	7.8008e+01	4.3810	63.901803	0.000669	6.689208	1.133182	-0.000134
 786	7.8108e+01	4.3623	63.857395	0.000223	2.229736	0.377727	-0.000045
 787	7.8207e+01	4.3418	63.748392	0.000547	5.472988	0.927149	-0.000110
 788	7.8306e+01	4.3224	63.663612	0.000426	4.256769	0.721116	-0.000085
 789	7.8406e+01	4.3020	63.546535	0.000588	5.878395	0.995827	-0.000118
 790	7.8505e+01	4.2822	63.449644	0.000486	4.864878	0.824133	-0.000097
 791	7.8605e+01	4.2614	63.364864	0.000426	4.256769	0.721116	-0.000085
 792	7.8704e+01	4.2426	63.243750	0.000608	6.081098	1.030166	-0.000122
 793	7.8804e+01	4.2226	63.163007	0.000405	4.054065	0.686777	-0.000081
 794	7.8903e+01	4.2031	63.082264	0.000405	4.054065	0.686777	-0.000081
 795	7.9003e+01	4.1824	62.932890	0.000750	7.500021	1.270538	-0.000150
 796	7.9103e+01	4.1631	62.880408	0.000264	2.635142	0.446405	-0.000053
 797	7.9202e+01	4.1436	62.763331	0.000588	5.878395	0.995827	-0.000118
 798	7.9302e+01	4.1222	62.702774	0.000304	3.040549	0.515083	-0.000061
 799	7.9401e+01	4.1030	62.581660	0.000608	6.081098	1.030166	-0.000122
 800	7.9501e+01	4.0823	62.480731	0.000507	5.067582	0.858472	-0.000101
 801	7.9600e+01	4.0630	62.367691	0.000568	5.675691	0.961488	-0.000114
 802	7.9700e+01	4.0436	62.270800	0.000486	4.864878	0.824133	-0.000097
 803	7.9799e+01	4.0228	62.181983	0.000446	4.459472	0.755455	-0.000089
 804	7.9898e+01	4.0031	62.056832	0.000628	6.283801	1.064505	-0.000126
 805	7.9998e+01	3.9824	61.955904	0.000507	5.067582	0.858472	-0.000101
 806	8.0097e+01	3.9631	61.895347	0.000304	3.040549	0.515083	-0.000061
 807	8.0197e+01	3.9430	61.766158	0.000649	6.486504	1.098844	-0.000130
 808	8.0296e+01	3.9242	61.632933	0.000669	6.689208	1.133182	-0.000134
 809	8.0396e+01	3.9039	61.552190	0.000405	4.054065	0.686777	-0.000081
 810	8.0496e+01	3.8830	61.439150	0.000568	5.675691	0.961488	-0.000114
 811	8.0595e+01	3.8644	61.342259	0.000486	4.864878	0.824133	-0.000097
 812	8.0695e+01	3.8428	61.253442	0.000446	4.459472	0.755455	-0.000089
 813	8.0794e+01	3.8238	61.124254	0.000649	6.486504	1.098844	-0.000130
 814	8.0894e+01	3.8042	61.071771	0.000264	2.635142	0.446405	-0.000053
 815	8.0993e+01	3.7841	60.918360	0.000770	7.702724	1.304877	-0.000154
 816	8.1093e+01	3.7647	60.849728	0.000345	3.445955	0.583761	-0.000069
 817	8.1192e+01	3.7450	60.752837	0.000486	4.864878	0.824133	-0.000097
 818	8.1291e+01	3.7251	60.639797	0.000568	5.675691	0.961488	-0.000114
 819	8.1391e+01	3.7049	60.542906	0.000486	4.864878	0.824133	-0.000097
 820	8.1490e+01	3.6822	60.429866	0.000568	5.675691	0.961488	-0.000114
 821	8.1590e+01	3.6646	60.341049	0.000446	4.459472	0.755455	-0.000089
 822	8.1689e+01	3.6444	60.248195	0.000466	4.662175	0.789794	-0.000093
 823	8.1789e+01	3.6243	60.098821	0.000750	7.500021	1.270538	-0.000150
 824	8.1888e+01	3.6051	60.022116	0.000385	3.851362	0.652438	-0.000077
 825	8.1988e+01	3.5848	59.921187	0.000507	5.067582	0.858472	-0.000101
 826	8.2088e+01	3.5656	59.808147	0.000568	5.675691	0.961488	-0.000114
 827	8.2187e+01	3.5451	59.719330	0.000446	4.459472	0.755455	-0.000089
 828	8.2287e+01	3.5261	59.614365	0.000527	5.270285	0.892810	-0.000105
 829	8.2386e+01	3.5052	59.529585	0.000426	4.256769	0.721116	-0.000085
 830	8.2486e+01	3.4854	59.444805	0.000426	4.256769	0.721116	-0.000085
 831	8.2585e+01	3.4661	59.303505	0.000709	7.094614	1.201860	-0.000142
 832	8.2684e+01	3.4454	59.186428	0.000588	5.878395	0.995827	-0.000118
 833	8.2784e+01	3.4264	59.113760	0.000365	3.648659	0.618100	-0.000073
 834	8.2883e+01	3.4051	59.028980	0.000426	4.256769	0.721116	-0.000085
 835	8.2983e+01	3.3855	58.899792	0.000649	6.486504	1.098844	-0.000130
 836	8.3082e+01	3.3662	58.819049	0.000405	4.054065	0.686777	-0.000081
 837	8.3182e+01	3.3462	58.701972	0.000588	5.878395	0.995827	-0.000118
 838	8.3281e+01	3.3260	58.584895	0.000588	5.878395	0.995827	-0.000118
 839	8.3381e+01	3.3060	58.532412	0.000264	2.635142	0.446405	-0.000053
 840	8.3481e+01	3.2858	58.391113	0.000709	7.094614	1.201860	-0.000142
 841	8.3580e+01	3.2659	58.302296	0.000446	4.459472	0.755455	-0.000089
 842	8.3680e+01	3.2468	58.160996	0.000709	7.094614	1.201860	-0.000142
 843	8.3779e+01	3.2265	58.092365	0.000345	3.445955	0.583761	-0.000069
 844	8.3879e+01	3.2056	57.987399	0.000527	5.270285	0.892810	-0.000105
 845	8.3978e+01	3.1859	57.890508	0.000486	4.864878	0.824133	-0.000097
 846	8.4078e+01	3.1663	57.805728	0.000426	4.256769	0.721116	-0.000085
 847	8.4177e+01	3.1472	57.688651	0.000588	5.878395	0.995827	-0.000118
 848	8.4276e+01	3.1271	57.547351	0.000709	7.094614	1.201860	-0.000142
 849	8.4376e+01	3.1076	57.462572	0.000426	4.256769	0.721116	-0.000085
 850	8.4475e+01	3.0869	57.402014	0.000304	3.040549	0.515083	-0.000061
 851	8.4575e+01	3.0672	57.288975	0.000568	5.675691	0.961488	-0.000114
 852	8.4674e+01	3.0474	57.143638	0.000730	7.297317	1.236199	-0.000146
 853	8.4774e+01	3.0269	57.091155	0.000264	2.635142	0.446405	-0.000053
 854	8.4874e+01	3.0071	56.957930	0.000669	6.689208	1.133182	-0.000134
 855	8.4973e+01	2.9900	56.889298	0.000345	3.445955	0.583761	-0.000069
 856	8.5073e+01	2.9671	56.731850	0.000791	7.905427	1.339216	-0.000158
 857	8.5172e+01	2.9465	56.675330	0.000284	2.837846	0.480744	-0.000057
 858	8.5272e+01	2.9282	56.529993	0.000730	7.297317	1.236199	-0.000146
 859	8.5371e+01	2.9076	56.453288	0.000385	3.851362	0.652438	-0.000077
 860	8.5471e+01	2.8878	56.344285	0.000547	5.472988	0.927149	-0.000110
 861	8.5570e+01	2.8680	56.243357	0.000507	5.067582	0.858472	-0.000101
 862	8.5669e+01	2.8483	56.134354	0.000547	5.472988	0.927149	-0.000110
 863	8.5769e+01	2.8284	56.057648	0.000385	3.851362	0.652438	-0.000077
 864	8.5868e+01	2.8078	55.912311	0.000730	7.297317	1.236199	-0.000146
 865	8.5968e+01	2.7882	55.847717	0.000324	3.243252	0.549422	-0.000065
 866	8.6067e+01	2.7679	55.758900	0.000446	4.459472	0.755455	-0.000089
 867	8.6167e+01	2.7480	55.653935	0.000527	5.270285	0.892810	-0.000105
 868	8.6266e+01	2.7276	55.548969	0.000527	5.270285	0.892810	-0.000105
 869	8.6366e+01	2.7079	55.419781	0.000649	6.486504	1.098844	-0.000130
 870	8.6466e+01	2.6888	55.266370	0.000770	7.702724	1.304877	-0.000154
 871	8.6565e+01	2.6686	55.258295	0.000041	0.405407	0.068678	-0.000008
 872	8.6665e+01	2.6478	55.129107	0.000649	6.486504	1.098844	-0.000130
 873	8.6764e+01	2.6287	55.016067	0.000568	5.675691	0.961488	-0.000114
 874	8.6864e+01	2.6092	54.898990	0.000588	5.878395	0.995827	-0.000118
 875	8.6963e+01	2.5895	54.806136	0.000466	4.662175	0.789794	-0.000093
 876	8.7063e+01	2.5689	54.676948	0.000649	6.486504	1.098844	-0.000130
 877	8.7162e+01	2.5484	54.580057	0.000486	4.864878	0.824133	-0.000097
 878	8.7261e+01	2.5285	54.491240	0.000446	4.459472	0.755455	-0.000089
 879	8.7361e+01	2.5104	54.370126	0.000608	6.081098	1.030166	-0.000122
 880	8.7460e+01	2.4900	54.297457	0.000365	3.648659	0.618100	-0.000073
 881	8.7560e+01	2.4704	54.184417	0.000568	5.675691	0.961488	-0.000114
 882	8.7659e+01	2.4496	54.039080	0.000730	7.297317	1.236199	-0.000146
 883	8.7759e+01	2.4306	53.974486	0.000324	3.243252	0.549422	-0.000065
 884	8.7859e+01	2.4100	53.841261	0.000669	6.689208	1.133182	-0.000134
 885	8.7958e+01	2.3893	53.724184	0.000588	5.878395	0.995827	-0.000118
 886	8.8058e+01	2.3687	53.631330	0.000466	4.662175	0.789794	-0.000093
 887	8.8157e+01	2.3498	53.530401	0.000507	5.067582	0.858472	-0.000101
 888	8.8257e+01	2.3298	53.441584	0.000446	4.459472	0.755455	-0.000089
 889	8.8356e+01	2.3101	53.292210	0.000750	7.500021	1.270538	-0.000150
 890	8.8456e+01	2.2897	53.211468	0.000405	4.054065	0.686777	-0.000081
 891	8.8555e+01	2.2699	53.118613	0.000466	4.662175	0.789794	-0.000093
 892	8.8654e+01	2.2499	52.997499	0.000608	6.081098	1.030166	-0.000122
 893	8.8754e+01	2.2301	52.888497	0.000547	5.472988	0.927149	-0.000110
 894	8.8853e+01	2.2108	52.775457	0.000568	5.675691	0.961488	-0.000114
 895	8.8953e+01	2.1909	52.613972	0.000811	8.108131	1.373554	-0.000162
 896	8.9052e+01	2.1706	52.573600	0.000203	2.027033	0.343389	-0.000041
 897	8.9152e+01	2.1511	52.468635	0.000527	5.270285	0.892810	-0.000105
 898	8.9251e+01	2.1307	52.323298	0.000730	7.297317	1.236199	-0.000146
 899	8.9351e+01	2.1107	52.258704	0.000324	3.243252	0.549422	-0.000065
 900	8.9451e+01	2.0908	52.117404	0.000709	7.094614	1.201860	-0.000142
 901	8.9550e+01	2.0711	52.000327	0.000588	5.878395	0.995827	-0.000118
 902	8.9650e+01	2.0507	51.915547	0.000426	4.256769	0.721116	-0.000085
 903	8.9749e+01	2.0309	51.806544	0.000547	5.472988	0.927149	-0.000110
 904	8.9849e+01	2.0115	51.697542	0.000547	5.472988	0.927149	-0.000110
 905	8.9948e+01	1.9907	51.540093	0.000791	7.905427	1.339216	-0.000158
 906	9.0047e+01	1.9715	51.483573	0.000284	2.837846	0.480744	-0.000057
 907	9.0147e+01	1.9520	51.338237	0.000730	7.297317	1.236199	-0.000146
 908	9.0246e+01	1.9309	51.281717	0.000284	2.837846	0.480744	-0.000057
 909	9.0346e+01	1.9115	51.160603	0.000608	6.081098	1.030166	-0.000122
 910	9.0445e+01	1.8911	51.047563	0.000568	5.675691	0.961488	-0.000114
 911	9.0545e+01	1.8726	50.922412	0.000628	6.283801	1.064505	-0.000126
 912	9.0644e+01	1.8520	50.821483	0.000507	5.067582	0.858472	-0.000101
 913	9.0744e+01	1.8322	50.688258	0.000669	6.689208	1.133182	-0.000134
 914	9.0844e+01	1.8127	50.555032	0.000669	6.689208	1.133182	-0.000134
 915	9.0943e+01	1.7925	50.470252	0.000426	4.256769	0.721116	-0.000085
 916	9.1043e+01	1.7718	50.308767	0.000811	8.108131	1.373554	-0.000162
 917	9.1142e+01	1.7519	50.219950	0.000446	4.459472	0.755455	-0.000089
 918	9.1242e+01	1.7329	50.139207	0.000405	4.054065	0.686777	-0.000081
 919	9.1341e+01	1.7115	50.005982	0.000669	6.689208	1.133182	-0.000134
 920	9.1441e+01	1.6919	49.901016	0.000527	5.270285	0.892810	-0.000105
 921	9.1540e+01	1.6725	49.759717	0.000709	7.094614	1.201860	-0.000142
 922	9.1639e+01	1.6526	49.646677	0.000568	5.675691	0.961488	-0.000114
 923	9.1739e+01	1.6324	49.565934	0.000405	4.054065	0.686777	-0.000081
 924	9.1838e+01	1.6132	49.424634	0.000709	7.094614	1.201860	-0.000142
 925	9.1938e+01	1.5928	49.331780	0.000466	4.662175	0.789794	-0.000093
 926	9.2037e+01	1.5733	49.218740	0.000568	5.675691	0.961488	-0.000114
 927	9.2137e+01	1.5530	49.109738	0.000547	5.472988	0.927149	-0.000110
 928	9.2237e+01	1.5328	48.992661	0.000588	5.878395	0.995827	-0.000118
 929	9.2336e+01	1.5137	48.863472	0.000649	6.486504	1.098844	-0.000130
 930	9.2436e+01	1.4930	48.734284	0.000649	6.486504	1.098844	-0.000130
 931	9.2535e+01	1.4731	48.633356	0.000507	5.067582	0.858472	-0.000101
 932	9.2635e+01	1.4540	48.508204	0.000628	6.283801	1.064505	-0.000126
 933	9.2734e+01	1.4335	48.399202	0.000547	5.472988	0.927149	-0.000110
 934	9.2834e+01	1.4132	48.310385	0.000446	4.459472	0.755455	-0.000089
 935	9.2933e+01	1.3930	48.173122	0.000689	6.891911	1.167521	-0.000138
 936	9.3032e+01	1.3734	48.019711	0.000770	7.702724	1.304877	-0.000154
 937	9.3132e+01	1.3559	47.918783	0.000507	5.067582	0.858472	-0.000101
 938	9.3231e+01	1.3354	47.805743	0.000568	5.675691	0.961488	-0.000114
 939	9.3331e+01	1.3129	47.733074	0.000365	3.648659	0.618100	-0.000073
 940	9.3430e+01	1.2946	47.571589	0.000811	8.108131	1.373554	-0.000162
 941	9.3530e+01	1.2739	47.470661	0.000507	5.067582	0.858472	-0.000101
 942	9.3629e+01	1.2545	47.353584	0.000588	5.878395	0.995827	-0.000118
 943	9.3729e+01	1.2351	47.244581	0.000547	5.472988	0.927149	-0.000110
 944	9.3829e+01	1.2157	47.107318	0.000689	6.891911	1.167521	-0.000138
 945	9.3928e+01	1.1951	46.953907	0.000770	7.702724	1.304877	-0.000154
 946	9.4028e+01	1.1738	46.881239	0.000365	3.648659	0.618100	-0.000073
 947	9.4127e+01	1.1549	46.764162	0.000588	5.878395	0.995827	-0.000118
 948	9.4227e+01	1.1349	46.630936	0.000669	6.689208	1.133182	-0.000134
 949	9.4326e+01	1.1147	46.513859	0.000588	5.878395	0.995827	-0.000118
 950	9.4425e+01	1.0954	46.356411	0.000791	7.905427	1.339216	-0.000158
 951	9.4525e+01	1.0754	46.291817	0.000324	3.243252	0.549422	-0.000065
 952	9.4624e+01	1.0551	46.162629	0.000649	6.486504	1.098844	-0.000130
 953	9.4724e+01	1.0349	46.057663	0.000527	5.270285	0.892810	-0.000105
 954	9.4823e+01	1.0157	45.888103	0.000851	8.513537	1.442232	-0.000170
 955	9.4923e+01	0.9953	45.811398	0.000385	3.851362	0.652438	-0.000077
 956	9.5022e+01	0.9756	45.641838	0.000851	8.513537	1.442232	-0.000170
 957	9.5122e+01	0.9565	45.536873	0.000527	5.270285	0.892810	-0.000105
 958	9.5222e+01	0.9355	45.427870	0.000547	5.472988	0.927149	-0.000110
 959	9.5321e+01	0.9152	45.306756	0.000608	6.081098	1.030166	-0.000122
 960	9.5421e+01	0.8952	45.197753	0.000547	5.472988	0.927149	-0.000110
 961	9.5520e+01	0.8765	45.104899	0.000466	4.662175	0.789794	-0.000093
 962	9.5620e+01	0.8561	44.919191	0.000932	9.324350	1.579588	-0.000187
 963	9.5719e+01	0.8363	44.814225	0.000527	5.270285	0.892810	-0.000105
 964	9.5819e+01	0.8151	44.685037	0.000649	6.486504	1.098844	-0.000130
 965	9.5918e+01	0.7957	44.567960	0.000588	5.878395	0.995827	-0.000118
 966	9.6017e+01	0.7767	44.471069	0.000486	4.864878	0.824133	-0.000097
 967	9.6117e+01	0.7563	44.370140	0.000507	5.067582	0.858472	-0.000101
 968	9.6216e+01	0.7364	44.244989	0.000628	6.283801	1.064505	-0.000126
 969	9.6316e+01	0.7175	44.123875	0.000608	6.081098	1.030166	-0.000122
 970	9.6415e+01	0.6963	44.006798	0.000588	5.878395	0.995827	-0.000118
 971	9.6515e+01	0.6768	43.881647	0.000628	6.283801	1.064505	-0.000126
 972	9.6615e+01	0.6567	43.704013	0.000892	8.918944	1.510910	-0.000179
 973	9.6714e+01	0.6367	43.619233	0.000426	4.256769	0.721116	-0.000085
 974	9.6814e+01	0.6172	43.498119	0.000608	6.081098	1.030166	-0.000122
 975	9.6913e+01	0.5968	43.393153	0.000527	5.270285	0.892810	-0.000105
 976	9.7013e+01	0.5772	43.263965	0.000649	6.486504	1.098844	-0.000130
 977	9.7112e+01	0.5568	43.142851	0.000608	6.081098	1.030166	-0.000122
 978	9.7212e+01	0.5370	43.033848	0.000547	5.472988	0.927149	-0.000110
 979	9.7311e+01	0.5181	42.884474	0.000750	7.500021	1.270538	-0.000150
 980	9.7410e+01	0.4975	42.787583	0.000486	4.864878	0.824133	-0.000097
 981	9.7510e+01	0.4778	42.674543	0.000568	5.675691	0.961488	-0.000114
 982	9.7609e+01	0.4579	42.561504	0.000568	5.675691	0.961488	-0.000114
 983	9.7709e+01	0.4382	42.416167	0.000730	7.297317	1.236199	-0.000146
 984	9.7808e+01	0.4165	42.286978	0.000649	6.486504	1.098844	-0.000130
 985	9.7908e+01	0.3973	42.202198	0.000426	4.256769	0.721116	-0.000085
 986	9.8007e+01	0.3776	42.060899	0.000709	7.094614	1.201860	-0.000142
 987	9.8107e+01	0.3579	41.947859	0.000568	5.675691	0.961488	-0.000114
 988	9.8207e+01	0.3370	41.822708	0.000628	6.283801	1.064505	-0.000126
 989	9.8306e+01	0.3181	41.665259	0.000791	7.905427	1.339216	-0.000158
 990	9.8406e+01	0.2976	41.568368	0.000486	4.864878	0.824133	-0.000097
 991	9.8505e+01	0.2786	41.394771	0.000872	8.716240	1.476571	-0.000174
 992	9.8605e+01	0.2585	41.334214	0.000304	3.040549	0.515083	-0.000061
 993	9.8704e+01	0.2380	41.180803	0.000770	7.702724	1.304877	-0.000154
 994	9.8803e+01	0.2181	41.096023	0.000426	4.256769	0.721116	-0.000085
 995	9.8903e+01	0.1987	40.954723	0.000709	7.094614	1.201860	-0.000142
 996	9.9002e+01	0.1789	40.809387	0.000730	7.297317	1.236199	-0.000146
 997	9.9102e+01	0.1586	40.712495	0.000486	4.864878	0.824133	-0.000097
 998	9.9201e+01	0.1379	40.595418	0.000588	5.878395	0.995827	-0.000118
 999	9.9301e+01	0.1191	40.470267	0.000628	6.283801	1.064505	-0.000126
1000	9.9400e+01	0.0984	40.333005	0.000689	6.891911	1.167521	-0.000138
1001	9.9500e+01	0.0787	40.224002	0.000547	5.472988	0.927149	-0.000110
1002	9.9600e+01	0.0588	40.066554	0.000791	7.905427	1.339216	-0.000158
1003	9.9699e+01	0.0380	39.989848	0.000385	3.851362	0.652438	-0.000077
1004	9.9799e+01	0.0189	39.820288	0.000851	8.513537	1.442232	-0.000170
1005	9.9898e+01	0.0002	39.759731	0.000304	3.040549	0.515083	-0.000061
1006	9.9998e+01	-0.0198	39.650729	0.000547	5.472988	0.927149	-0.000110
1007	1.0010e+02	-0.0391	39.509429	0.000709	7.094614	1.201860	-0.000142
1008	1.0020e+02	-0.0588	39.400426	0.000547	5.472988	0.927149	-0.000110
1009	1.0030e+02	-0.0793	39.251052	0.000750	7.500021	1.270538	-0.000150
1010	1.0040e+02	-0.0986	39.129938	0.000608	6.081098	1.030166	-0.000122
1011	1.0050e+02	-0.1193	39.033047	0.000486	4.864878	0.824133	-0.000097
1012	1.0059e+02	-0.1385	38.924044	0.000547	5.472988	0.927149	-0.000110
1013	1.0069e+02	-0.1588	38.754485	0.000851	8.513537	1.442232	-0.000170
1014	1.0079e+02	-0.1783	38.645482	0.000547	5.472988	0.927149	-0.000110
1015	1.0089e+02	-0.1984	38.516294	0.000649	6.486504	1.098844	-0.000130
1016	1.0099e+02	-0.2191	38.391142	0.000628	6.283801	1.064505	-0.000126
1017	1.0109e+02	-0.2380	38.282140	0.000547	5.472988	0.927149	-0.000110
1018	1.0119e+02	-0.2583	38.152951	0.000649	6.486504	1.098844	-0.000130
1019	1.0129e+02	-0.2784	38.052023	0.000507	5.067582	0.858472	-0.000101
1020	1.0139e+02	-0.2985	37.910723	0.000709	7.094614	1.201860	-0.000142
1021	1.0149e+02	-0.3180	37.793646	0.000588	5.878395	0.995827	-0.000118
1022	1.0159e+02	-0.3378	37.660421	0.000669	6.689208	1.133182	-0.000134
1023	1.0169e+02	-0.3580	37.547381	0.000568	5.675691	0.961488	-0.000114
1024	1.0179e+02	-0.3773	37.422230	0.000628	6.283801	1.064505	-0.000126
1025	1.0189e+02	-0.3973	37.305153	0.000588	5.878395	0.995827	-0.000118
1026	1.0199e+02	-0.4174	37.163853	0.000709	7.094614	1.201860	-0.000142
1027	1.0209e+02	-0.4376	37.095222	0.000345	3.445955	0.583761	-0.000069
1028	1.0219e+02	-0.4572	36.941811	0.000770	7.702724	1.304877	-0.000154
1029	1.0229e+02	-0.4777	36.861068	0.000405	4.054065	0.686777	-0.000081
1030	1.0239e+02	-0.4970	36.719768	0.000709	7.094614	1.201860	-0.000142
1031	1.0248e+02	-0.5168	36.610765	0.000547	5.472988	0.927149	-0.000110
1032	1.0258e+02	-0.5377	36.493689	0.000588	5.878395	0.995827	-0.000118
1033	1.0268e+02	-0.5573	36.352389	0.000709	7.094614	1.201860	-0.000142
1034	1.0278e+02	-0.5766	36.223200	0.000649	6.486504	1.098844	-0.000130
1035	1.0288e+02	-0.5964	36.142458	0.000405	4.054065	0.686777	-0.000081
1036	1.0298e+02	-0.6165	35.980972	0.000811	8.108131	1.373554	-0.000162
1037	1.0308e+02	-0.6367	35.867932	0.000568	5.675691	0.961488	-0.000114
1038	1.0318e+02	-0.6573	35.718558	0.000750	7.500021	1.270538	-0.000150
1039	1.0328e+02	-0.6765	35.565147	0.000770	7.702724	1.304877	-0.000154
1040	1.0338e+02	-0.6960	35.504590	0.000304	3.040549	0.515083	-0.000061
1041	1.0348e+02	-0.7168	35.355216	0.000750	7.500021	1.270538	-0.000150
1042	1.0358e+02	-0.7367	35.254288	0.000507	5.067582	0.858472	-0.000101
1043	1.0368e+02	-0.7564	35.149322	0.000527	5.270285	0.892810	-0.000105
1044	1.0378e+02	-0.7762	34.979763	0.000851	8.513537	1.442232	-0.000170
1045	1.0388e+02	-0.7948	34.907094	0.000365	3.648659	0.618100	-0.000073
1046	1.0398e+02	-0.8162	34.777906	0.000649	6.486504	1.098844	-0.000130
1047	1.0408e+02	-0.8366	34.624495	0.000770	7.702724	1.304877	-0.000154
1048	1.0418e+02	-0.8563	34.535678	0.000446	4.459472	0.755455	-0.000089
1049	1.0428e+02	-0.8760	34.337858	0.000993	9.932460	1.682604	-0.000199
1050	1.0438e+02	-0.8959	34.269227	0.000345	3.445955	0.583761	-0.000069
1051	1.0447e+02	-0.9166	34.136001	0.000669	6.689208	1.133182	-0.000134
1052	1.0457e+02	-0.9361	34.018924	0.000588	5.878395	0.995827	-0.000118
1053	1.0467e+02	-0.9554	33.877625	0.000709	7.094614	1.201860	-0.000142
1054	1.0477e+02	-0.9766	33.776696	0.000507	5.067582	0.858472	-0.000101
1055	1.0487e+02	-0.9950	33.615211	0.000811	8.108131	1.373554	-0.000162
1056	1.0497e+02	-1.0157	33.494097	0.000608	6.081098	1.030166	-0.000122
1057	1.0507e+02	-1.0342	33.389131	0.000527	5.270285	0.892810	-0.000105
1058	1.0517e+02	-1.0551	33.288203	0.000507	5.067582	0.858472	-0.000101
1059	1.0527e+02	-1.0745	33.118643	0.000851	8.513537	1.442232	-0.000170
1060	1.0537e+02	-1.0952	33.001566	0.000588	5.878395	0.995827	-0.000118
1061	1.0547e+02	-1.1153	32.904675	0.000486	4.864878	0.824133	-0.000097
1062	1.0557e+02	-1.1348	32.779524	0.000628	6.283801	1.064505	-0.000126
1063	1.0567e+02	-1.1549	32.638224	0.000709	7.094614	1.201860	-0.000142
1064	1.0577e+02	-1.1749	32.500961	0.000689	6.891911	1.167521	-0.000138
1065	1.0587e+02	-1.1951	32.432330	0.000345	3.445955	0.583761	-0.000069
1066	1.0597e+02	-1.2149	32.258733	0.000872	8.716240	1.476571	-0.000174
1067	1.0607e+02	-1.2343	32.165879	0.000466	4.662175	0.789794	-0.000093
1068	1.0617e+02	-1.2544	32.020542	0.000730	7.297317	1.236199	-0.000146
1069	1.0627e+02	-1.2748	31.895391	0.000628	6.283801	1.064505	-0.000126
1070	1.0637e+02	-1.2947	31.786388	0.000547	5.472988	0.927149	-0.000110
1071	1.0647e+02	-1.3127	31.673348	0.000568	5.675691	0.961488	-0.000114
1072	1.0656e+02	-1.3344	31.519937	0.000770	7.702724	1.304877	-0.000154
1073	1.0666e+02	-1.3542	31.386712	0.000669	6.689208	1.133182	-0.000134
1074	1.0676e+02	-1.3728	31.301932	0.000426	4.256769	0.721116	-0.000085
1075	1.0686e+02	-1.3943	31.140447	0.000811	8.108131	1.373554	-0.000162
1076	1.0696e+02	-1.4138	31.023370	0.000588	5.878395	0.995827	-0.000118
1077	1.0706e+02	-1.4344	30.910330	0.000568	5.675691	0.961488	-0.000114
1078	1.0716e+02	-1.4529	30.797290	0.000568	5.675691	0.961488	-0.000114
1079	1.0726e+02	-1.4729	30.668102	0.000649	6.486504	1.098844	-0.000130
1080	1.0736e+02	-1.4941	30.538913	0.000649	6.486504	1.098844	-0.000130
1081	1.0746e+02	-1.5126	30.397614	0.000709	7.094614	1.201860	-0.000142
1082	1.0756e+02	-1.5336	30.240165	0.000791	7.905427	1.339216	-0.000158
1083	1.0766e+02	-1.5535	30.106940	0.000669	6.689208	1.133182	-0.000134
1084	1.0776e+02	-1.5733	30.010049	0.000486	4.864878	0.824133	-0.000097
1085	1.0786e+02	-1.5929	29.860674	0.000750	7.500021	1.270538	-0.000150
1086	1.0796e+02	-1.6132	29.771858	0.000446	4.459472	0.755455	-0.000089
1087	1.0806e+02	-1.6330	29.642669	0.000649	6.486504	1.098844	-0.000130
1088	1.0816e+02	-1.6525	29.505407	0.000689	6.891911	1.167521	-0.000138
1089	1.0826e+02	-1.6721	29.392367	0.000568	5.675691	0.961488	-0.000114
1090	1.0836e+02	-1.6935	29.194547	0.000993	9.932460	1.682604	-0.000199
1091	1.0845e+02	-1.7125	29.121879	0.000365	3.648659	0.618100	-0.000073
1092	1.0855e+02	-1.7328	28.976542	0.000730	7.297317	1.236199	-0.000146
1093	1.0865e+02	-1.7524	28.847353	0.000649	6.486504	1.098844	-0.000130
1094	1.0875e+02	-1.7725	28.710091	0.000689	6.891911	1.167521	-0.000138
1095	1.0885e+02	-1.7919	28.613200	0.000486	4.864878	0.824133	-0.000097
1096	1.0895e+02	-1.8122	28.475937	0.000689	6.891911	1.167521	-0.000138
1097	1.0905e+02	-1.8328	28.342711	0.000669	6.689208	1.133182	-0.000134
1098	1.0915e+02	-1.8524	28.249857	0.000466	4.662175	0.789794	-0.000093
1099	1.0925e+02	-1.8732	28.080298	0.000851	8.513537	1.442232	-0.000170
1100	1.0935e+02	-1.8919	27.963221	0.000588	5.878395	0.995827	-0.000118
1101	1.0945e+02	-1.9116	27.825958	0.000689	6.891911	1.167521	-0.000138
1102	1.0955e+02	-1.9315	27.712918	0.000568	5.675691	0.961488	-0.000114
1103	1.0965e+02	-1.9518	27.559507	0.000770	7.702724	1.304877	-0.000154
1104	1.0975e+02	-1.9714	27.446467	0.000568	5.675691	0.961488	-0.000114
1105	1.0985e+02	-1.9913	27.333428	0.000568	5.675691	0.961488	-0.000114
1106	1.0995e+02	-2.0111	27.196165	0.000689	6.891911	1.167521	-0.000138
1107	1.1005e+02	-2.0314	27.062939	0.000669	6.689208	1.133182	-0.000134
1108	1.1015e+02	-2.0512	26.913565	0.000750	7.500021	1.270538	-0.000150
1109	1.1025e+02	-2.0708	26.796488	0.000588	5.878395	0.995827	-0.000118
1110	1.1035e+02	-2.0908	26.639040	0.000791	7.905427	1.339216	-0.000158
1111	1.1044e+02	-2.1118	26.521963	0.000588	5.878395	0.995827	-0.000118
1112	1.1054e+02	-2.1308	26.392775	0.000649	6.486504	1.098844	-0.000130
1113	1.1064e+02	-2.1512	26.275698	0.000588	5.878395	0.995827	-0.000118
1114	1.1074e+02	-2.1716	26.126324	0.000750	7.500021	1.270538	-0.000150
1115	1.1084e+02	-2.1912	26.001173	0.000628	6.283801	1.064505	-0.000126
1116	1.1094e+02	-2.2103	25.880059	0.000608	6.081098	1.030166	-0.000122
1117	1.1104e+02	-2.2311	25.714536	0.000831	8.310834	1.407893	-0.000166
1118	1.1114e+02	-2.2507	25.629756	0.000426	4.256769	0.721116	-0.000085
1119	1.1124e+02	-2.2701	25.472308	0.000791	7.905427	1.339216	-0.000158
1120	1.1134e+02	-2.2916	25.331008	0.000709	7.094614	1.201860	-0.000142
1121	1.1144e+02	-2.3101	25.217968	0.000568	5.675691	0.961488	-0.000114
1122	1.1154e+02	-2.3299	25.088780	0.000649	6.486504	1.098844	-0.000130
1123	1.1164e+02	-2.3504	24.923257	0.000831	8.310834	1.407893	-0.000166
1124	1.1174e+02	-2.3702	24.894998	0.000142	1.418923	0.240372	-0.000028
1125	1.1184e+02	-2.3901	24.709289	0.000932	9.324350	1.579588	-0.000187
1126	1.1194e+02	-2.4099	24.527618	0.000912	9.121647	1.545249	-0.000183
1127	1.1204e+02	-2.4288	24.454950	0.000365	3.648659	0.618100	-0.000073
1128	1.1214e+02	-2.4503	24.289427	0.000831	8.310834	1.407893	-0.000166
1129	1.1224e+02	-2.4698	24.208684	0.000405	4.054065	0.686777	-0.000081
1130	1.1234e+02	-2.4899	24.095645	0.000568	5.675691	0.961488	-0.000114
1131	1.1244e+02	-2.5092	23.962419	0.000669	6.689208	1.133182	-0.000134
1132	1.1253e+02	-2.5288	23.809008	0.000770	7.702724	1.304877	-0.000154
1133	1.1263e+02	-2.5489	23.647523	0.000811	8.108131	1.373554	-0.000162
1134	1.1273e+02	-2.5688	23.554668	0.000466	4.662175	0.789794	-0.000093
1135	1.1283e+02	-2.5889	23.421443	0.000669	6.689208	1.133182	-0.000134
1136	1.1293e+02	-2.6086	23.308403	0.000568	5.675691	0.961488	-0.000114
1137	1.1303e+02	-2.6281	23.187289	0.000608	6.081098	1.030166	-0.000122
1138	1.1313e+02	-2.6484	23.037915	0.000750	7.500021	1.270538	-0.000150
1139	1.1323e+02	-2.6685	22.924875	0.000568	5.675691	0.961488	-0.000114
1140	1.1333e+02	-2.6878	22.759353	0.000831	8.310834	1.407893	-0.000166
1141	1.1343e+02	-2.7080	22.634202	0.000628	6.283801	1.064505	-0.000126
1142	1.1353e+02	-2.7277	22.509050	0.000628	6.283801	1.064505	-0.000126
1143	1.1363e+02	-2.7478	22.416196	0.000466	4.662175	0.789794	-0.000093
1144	1.1373e+02	-2.7682	22.278934	0.000689	6.891911	1.167521	-0.000138
1145	1.1383e+02	-2.7891	22.157819	0.000608	6.081098	1.030166	-0.000122
1146	1.1393e+02	-2.8085	22.000371	0.000791	7.905427	1.339216	-0.000158
1147	1.1403e+02	-2.8288	21.875220	0.000628	6.283801	1.064505	-0.000126
1148	1.1413e+02	-2.8478	21.750069	0.000628	6.283801	1.064505	-0.000126
1149	1.1423e+02	-2.8674	21.641066	0.000547	5.472988	0.927149	-0.000110
1150	1.1433e+02	-2.8879	21.499766	0.000709	7.094614	1.201860	-0.000142
1151	1.1442e+02	-2.9080	21.390764	0.000547	5.472988	0.927149	-0.000110
1152	1.1452e+02	-2.9268	21.217167	0.000872	8.716240	1.476571	-0.000174
1153	1.1462e+02	-2.9463	21.140461	0.000385	3.851362	0.652438	-0.000077
1154	1.1472e+02	-2.9681	20.983013	0.000791	7.905427	1.339216	-0.000158
1155	1.1482e+02	-2.9871	20.813453	0.000851	8.513537	1.442232	-0.000170
1156	1.1492e+02	-3.0076	20.720599	0.000466	4.662175	0.789794	-0.000093
1157	1.1502e+02	-3.0275	20.583337	0.000689	6.891911	1.167521	-0.000138
1158	1.1512e+02	-3.0472	20.490482	0.000466	4.662175	0.789794	-0.000093
1159	1.1522e+02	-3.0679	20.324960	0.000831	8.310834	1.407893	-0.000166
1160	1.1532e+02	-3.0875	20.195772	0.000649	6.486504	1.098844	-0.000130
1161	1.1542e+02	-3.1068	20.110992	0.000426	4.256769	0.721116	-0.000085
1162	1.1552e+02	-3.1255	19.985840	0.000628	6.283801	1.064505	-0.000126
1163	1.1562e+02	-3.1468	19.876838	0.000547	5.472988	0.927149	-0.000110
1164	1.1572e+02	-3.1664	19.711315	0.000831	8.310834	1.407893	-0.000166
1165	1.1582e+02	-3.1865	19.610387	0.000507	5.067582	0.858472	-0.000101
1166	1.1592e+02	-3.2054	19.481199	0.000649	6.486504	1.098844	-0.000130
1167	1.1602e+02	-3.2265	19.364122	0.000588	5.878395	0.995827	-0.000118
1168	1.1612e+02	-3.2458	19.234933	0.000649	6.486504	1.098844	-0.000130
1169	1.1622e+02	-3.2669	19.093633	0.000709	7.094614	1.201860	-0.000142
1170	1.1632e+02	-3.2867	18.960408	0.000669	6.689208	1.133182	-0.000134
1171	1.1642e+02	-3.3059	18.855442	0.000527	5.270285	0.892810	-0.000105
1172	1.1651e+02	-3.3260	18.706068	0.000750	7.500021	1.270538	-0.000150
1173	1.1661e+02	-3.3468	18.572843	0.000669	6.689208	1.133182	-0.000134
1174	1.1671e+02	-3.3655	18.492100	0.000405	4.054065	0.686777	-0.000081
1175	1.1681e+02	-3.3859	18.322541	0.000851	8.513537	1.442232	-0.000170
1176	1.1691e+02	-3.4059	18.181241	0.000709	7.094614	1.201860	-0.000142
1177	1.1701e+02	-3.4258	18.072238	0.000547	5.472988	0.927149	-0.000110
1178	1.1711e+02	-3.4460	17.967273	0.000527	5.270285	0.892810	-0.000105
1179	1.1721e+02	-3.4653	17.830010	0.000689	6.891911	1.167521	-0.000138
1180	1.1731e+02	-3.4851	17.716970	0.000568	5.675691	0.961488	-0.000114
1181	1.1741e+02	-3.5053	17.603930	0.000568	5.675691	0.961488	-0.000114
1182	1.1751e+02	-3.5264	17.466668	0.000689	6.891911	1.167521	-0.000138
1183	1.1761e+02	-3.5461	17.345554	0.000608	6.081098	1.030166	-0.000122
1184	1.1771e+02	-3.5650	17.216365	0.000649	6.486504	1.098844	-0.000130
1185	1.1781e+02	-3.5861	17.159845	0.000284	2.837846	0.480744	-0.000057
1186	1.1791e+02	-3.6065	16.990286	0.000851	8.513537	1.442232	-0.000170
1187	1.1801e+02	-3.6251	16.848986	0.000709	7.094614	1.201860	-0.000142
1188	1.1811e+02	-3.6445	16.703649	0.000730	7.297317	1.236199	-0.000146
1189	1.1821e+02	-3.6656	16.606758	0.000486	4.864878	0.824133	-0.000097
1190	1.1831e+02	-3.6853	16.530052	0.000385	3.851362	0.652438	-0.000077
1191	1.1841e+02	-3.7047	16.368567	0.000811	8.108131	1.373554	-0.000162
1192	1.1850e+02	-3.7255	16.239379	0.000649	6.486504	1.098844	-0.000130
1193	1.1860e+02	-3.7450	16.134413	0.000527	5.270285	0.892810	-0.000105
1194	1.1870e+02	-3.7649	15.985039	0.000750	7.500021	1.270538	-0.000150
1195	1.1880e+02	-3.7839	15.896222	0.000446	4.459472	0.755455	-0.000089
1196	1.1890e+02	-3.8040	15.783182	0.000568	5.675691	0.961488	-0.000114
1197	1.1900e+02	-3.8246	15.653994	0.000649	6.486504	1.098844	-0.000130
1198	1.1910e+02	-3.8437	15.520768	0.000669	6.689208	1.133182	-0.000134
1199	1.1920e+02	-3.8644	15.383506	0.000689	6.891911	1.167521	-0.000138
1200	1.1930e+02	-3.8841	15.266429	0.000588	5.878395	0.995827	-0.000118
1201	1.1940e+02	-3.9030	15.153389	0.000568	5.675691	0.961488	-0.000114
1202	1.1950e+02	-3.9233	14.991904	0.000811	8.108131	1.373554	-0.000162
1203	1.1960e+02	-3.9438	14.903087	0.000446	4.459472	0.755455	-0.000089
1204	1.1970e+02	-3.9635	14.822344	0.000405	4.054065	0.686777	-0.000081
1205	1.1980e+02	-3.9838	14.656821	0.000831	8.310834	1.407893	-0.000166
1206	1.1990e+02	-4.0033	14.503410	0.000770	7.702724	1.304877	-0.000154
1207	1.2000e+02	-4.0236	14.426705	0.000385	3.851362	0.652438	-0.000077
1208	1.2010e+02	-4.0420	14.245033	0.000912	9.121647	1.545249	-0.000183
1209	1.2020e+02	-4.0640	14.123919	0.000608	6.081098	1.030166	-0.000122
1210	1.2030e+02	-4.0851	14.014917	0.000547	5.472988	0.927149	-0.000110
1211	1.2039e+02	-4.1030	13.889766	0.000628	6.283801	1.064505	-0.000126
1212	1.2049e+02	-4.1199	13.764614	0.000628	6.283801	1.064505	-0.000126
1213	1.2059e+02	-4.1431	13.635426	0.000649	6.486504	1.098844	-0.000130
1214	1.2069e+02	-4.1614	13.482015	0.000770	7.702724	1.304877	-0.000154
1215	1.2079e+02	-4.1826	13.401272	0.000405	4.054065	0.686777	-0.000081
1216	1.2089e+02	-4.2030	13.280158	0.000608	6.081098	1.030166	-0.000122
1217	1.2099e+02	-4.2223	13.150970	0.000649	6.486504	1.098844	-0.000130
1218	1.2109e+02	-4.2429	12.993521	0.000791	7.905427	1.339216	-0.000158
1219	1.2119e+02	-4.2627	12.864333	0.000649	6.486504	1.098844	-0.000130
1220	1.2129e+02	-4.2822	12.747256	0.000588	5.878395	0.995827	-0.000118
1221	1.2139e+02	-4.3019	12.646328	0.000507	5.067582	0.858472	-0.000101
1222	1.2149e+02	-4.3219	12.533288	0.000568	5.675691	0.961488	-0.000114
1223	1.2159e+02	-4.3420	12.355654	0.000892	8.918944	1.510910	-0.000179
1224	1.2169e+02	-4.3617	12.238577	0.000588	5.878395	0.995827	-0.000118
1225	1.2179e+02	-4.3832	12.109389	0.000649	6.486504	1.098844	-0.000130
1226	1.2189e+02	-4.4012	11.992312	0.000588	5.878395	0.995827	-0.000118
1227	1.2199e+02	-4.4219	11.846975	0.000730	7.297317	1.236199	-0.000146
1228	1.2209e+02	-4.4411	11.697601	0.000750	7.500021	1.270538	-0.000150
1229	1.2219e+02	-4.4608	11.604747	0.000466	4.662175	0.789794	-0.000093
1230	1.2229e+02	-4.4820	11.435187	0.000851	8.513537	1.442232	-0.000170
1231	1.2239e+02	-4.5018	11.289850	0.000730	7.297317	1.236199	-0.000146
1232	1.2248e+02	-4.5215	11.184885	0.000527	5.270285	0.892810	-0.000105
1233	1.2258e+02	-4.5418	11.059733	0.000628	6.283801	1.064505	-0.000126
1234	1.2268e+02	-4.5617	10.926508	0.000669	6.689208	1.133182	-0.000134
1235	1.2278e+02	-4.5807	10.793282	0.000669	6.689208	1.133182	-0.000134
1236	1.2288e+02	-4.6001	10.635834	0.000791	7.905427	1.339216	-0.000158
1237	1.2298e+02	-4.6214	10.530869	0.000527	5.270285	0.892810	-0.000105
1238	1.2308e+02	-4.6425	10.397643	0.000669	6.689208	1.133182	-0.000134
1239	1.2318e+02	-4.6616	10.248269	0.000750	7.500021	1.270538	-0.000150
1240	1.2328e+02	-4.6809	10.094858	0.000770	7.702724	1.304877	-0.000154
1241	1.2338e+02	-4.7006	9.989892	0.000527	5.270285	0.892810	-0.000105
1242	1.2348e+02	-4.7219	9.816296	0.000872	8.716240	1.476571	-0.000174
1243	1.2358e+02	-4.7408	9.670959	0.000730	7.297317	1.236199	-0.000146
1244	1.2368e+02	-4.7606	9.574067	0.000486	4.864878	0.824133	-0.000097
1245	1.2378e+02	-4.7805	9.408545	0.000831	8.310834	1.407893	-0.000166
1246	1.2388e+02	-4.8004	9.226874	0.000912	9.121647	1.545249	-0.000183
1247	1.2398e+02	-4.8205	9.129982	0.000486	4.864878	0.824133	-0.000097
1248	1.2408e+02	-4.8396	8.944274	0.000932	9.324350	1.579588	-0.000187
1249	1.2418e+02	-4.8598	8.807012	0.000689	6.891911	1.167521	-0.000138
1250	1.2428e+02	-4.8802	8.698009	0.000547	5.472988	0.927149	-0.000110
1251	1.2438e+02	-4.8994	8.556709	0.000709	7.094614	1.201860	-0.000142
1252	1.2447e+02	-4.9203	8.399261	0.000791	7.905427	1.339216	-0.000158
1253	1.2457e+02	-4.9406	8.245850	0.000770	7.702724	1.304877	-0.000154
1254	1.2467e+02	-4.9600	8.128773	0.000588	5.878395	0.995827	-0.000118
1255	1.2477e+02	-4.9797	7.943065	0.000932	9.324350	1.579588	-0.000187
1256	1.2487e+02	-5.0008	7.813876	0.000649	6.486504	1.098844	-0.000130
1257	1.2497e+02	-5.0201	7.668539	0.000730	7.297317	1.236199	-0.000146
1258	1.2507e+02	-5.0388	7.519165	0.000750	7.500021	1.270538	-0.000150
1259	1.2517e+02	-5.0586	7.361717	0.000791	7.905427	1.339216	-0.000158
1260	1.2527e+02	-5.0798	7.216380	0.000730	7.297317	1.236199	-0.000146
1261	1.2537e+02	-5.0993	7.046820	0.000851	8.513537	1.442232	-0.000170
1262	1.2547e+02	-5.1190	6.929743	0.000588	5.878395	0.995827	-0.000118
1263	1.2557e+02	-5.1398	6.748072	0.000912	9.121647	1.545249	-0.000183
1264	1.2567e+02	-5.1581	6.606773	0.000709	7.094614	1.201860	-0.000142
1265	1.2577e+02	-5.1785	6.441250	0.000831	8.310834	1.407893	-0.000166
1266	1.2587e+02	-5.1988	6.279765	0.000811	8.108131	1.373554	-0.000162
1267	1.2597e+02	-5.2184	6.142502	0.000689	6.891911	1.167521	-0.000138
1268	1.2607e+02	-5.2387	5.972942	0.000851	8.513537	1.442232	-0.000170
1269	1.2617e+02	-5.2590	5.823568	0.000750	7.500021	1.270538	-0.000150
1270	1.2627e+02	-5.2787	5.674194	0.000750	7.500021	1.270538	-0.000150
1271	1.2636e+02	-5.2983	5.512709	0.000811	8.108131	1.373554	-0.000162
1272	1.2646e+02	-5.3185	5.339112	0.000872	8.716240	1.476571	-0.000174
1273	1.2656e+02	-5.3384	5.181664	0.000791	7.905427	1.339216	-0.000158
1274	1.2666e+02	-5.3583	5.040364	0.000709	7.094614	1.201860	-0.000142
1275	1.2676e+02	-5.3774	4.838507	0.001014	10.135163	1.716943	-0.000203
1276	1.2686e+02	-5.3978	4.713356	0.000628	6.283801	1.064505	-0.000126
1277	1.2696e+02	-5.4176	4.527648	0.000932	9.324350	1.579588	-0.000187
1278	1.2706e+02	-5.4373	4.362125	0.000831	8.310834	1.407893	-0.000166
1279	1.2716e+02	-5.4574	4.196603	0.000831	8.310834	1.407893	-0.000166
1280	1.2726e+02	-5.4781	4.023006	0.000872	8.716240	1.476571	-0.000174
1281	1.2736e+02	-5.4973	3.869595	0.000770	7.702724	1.304877	-0.000154
1282	1.2746e+02	-5.5172	3.700035	0.000851	8.513537	1.442232	-0.000170
1283	1.2756e+02	-5.5377	3.554698	0.000730	7.297317	1.236199	-0.000146
1284	1.2766e+02	-5.5569	3.328618	0.001135	11.351383	1.922976	-0.000227
1285	1.2776e+02	-5.5774	3.203467	0.000628	6.283801	1.064505	-0.000126
1286	1.2786e+02	-5.5983	3.029870	0.000872	8.716240	1.476571	-0.000174
1287	1.2796e+02	-5.6180	2.795716	0.001176	11.756789	1.991654	-0.000235
1288	1.2806e+02	-5.6378	2.678640	0.000588	5.878395	0.995827	-0.000118
1289	1.2816e+02	-5.6578	2.488894	0.000953	9.527053	1.613927	-0.000191
1290	1.2826e+02	-5.6764	2.347594	0.000709	7.094614	1.201860	-0.000142
1291	1.2835e+02	-5.6969	2.125552	0.001115	11.148679	1.888637	-0.000223
1292	1.2845e+02	-5.7167	1.976178	0.000750	7.500021	1.270538	-0.000150
1293	1.2855e+02	-5.7368	1.810655	0.000831	8.310834	1.407893	-0.000166
1294	1.2865e+02	-5.7564	1.604761	0.001034	10.337866	1.751282	-0.000207
1295	1.2875e+02	-5.7766	1.439239	0.000831	8.310834	1.407893	-0.000166
1296	1.2885e+02	-5.7964	1.285828	0.000770	7.702724	1.304877	-0.000154
1297	1.2895e+02	-5.8158	1.100119	0.000932	9.324350	1.579588	-0.000187
1298	1.2905e+02	-5.8365	0.906337	0.000973	9.729757	1.648265	-0.000195
1299	1.2915e+02	-5.8555	0.704480	0.001014	10.135163	1.716943	-0.000203
1300	1.2925e+02	-5.8761	0.510698	0.000973	9.729757	1.648265	-0.000195
1301	1.2935e+02	-5.8957	0.401695	0.000547	5.472988	0.927149	-0.000110
1302	1.2945e+02	-5.9161	0.179653	0.001115	11.148679	1.888637	-0.000223
1303	1.2955e+02	-5.9364	-0.006056	0.000932	9.324350	1.579588	-0.000187
1304	1.2965e+02	-5.9560	-0.199838	0.000973	9.729757	1.648265	-0.000195
1305	1.2975e+02	-5.9760	-0.361324	0.000811	8.108131	1.373554	-0.000162
1306	1.2985e+02	-5.9964	-0.563180	0.001014	10.135163	1.716943	-0.000203
1307	1.2995e+02	-6.0163	-0.744852	0.000912	9.121647	1.545249	-0.000183
1308	1.3005e+02	-6.0356	-0.966894	0.001115	11.148679	1.888637	-0.000223
1309	1.3015e+02	-6.0558	-1.144528	0.000892	8.918944	1.510910	-0.000179
1310	1.3025e+02	-6.0750	-1.346385	0.001014	10.135163	1.716943	-0.000203
1311	1.3034e+02	-6.0954	-1.499796	0.000770	7.702724	1.304877	-0.000154
1312	1.3044e+02	-6.1145	-1.733950	0.001176	11.756789	1.991654	-0.000235
1313	1.3054e+02	-6.1349	-1.903510	0.000851	8.513537	1.442232	-0.000170
1314	1.3064e+02	-6.1548	-2.105366	0.001014	10.135163	1.716943	-0.000203
1315	1.3074e+02	-6.1749	-2.331446	0.001135	11.351383	1.922976	-0.000227
1316	1.3084e+02	-6.1951	-2.521191	0.000953	9.527053	1.613927	-0.000191
1317	1.3094e+02	-6.2151	-2.723048	0.001014	10.135163	1.716943	-0.000203
1318	1.3104e+02	-6.2353	-2.880496	0.000791	7.905427	1.339216	-0.000158
1319	1.3114e+02	-6.2544	-3.122724	0.001216	12.162196	2.060332	-0.000243
1320	1.3124e+02	-6.2750	-3.280173	0.000791	7.905427	1.339216	-0.000158
1321	1.3134e+02	-6.2962	-3.538549	0.001297	12.973009	2.197687	-0.000260
1322	1.3144e+02	-6.3145	-3.748481	0.001054	10.540570	1.785621	-0.000211
1323	1.3154e+02	-6.3342	-3.950337	0.001014	10.135163	1.716943	-0.000203
1324	1.3164e+02	-6.3538	-4.115860	0.000831	8.310834	1.407893	-0.000166
1325	1.3174e+02	-6.3745	-4.325791	0.001054	10.540570	1.785621	-0.000211
1326	1.3184e+02	-6.3925	-4.531685	0.001034	10.337866	1.751282	-0.000207
1327	1.3194e+02	-6.4146	-4.729505	0.000993	9.932460	1.682604	-0.000199
1328	1.3204e+02	-6.4343	-4.967696	0.001196	11.959493	2.025993	-0.000239
1329	1.3214e+02	-6.4551	-5.189738	0.001115	11.148679	1.888637	-0.000223
1330	1.3224e+02	-6.4732	-5.407743	0.001095	10.945976	1.854299	-0.000219
1331	1.3234e+02	-6.4941	-5.573266	0.000831	8.310834	1.407893	-0.000166
1332	1.3243e+02	-6.5134	-5.835680	0.001318	13.175712	2.232026	-0.000264
1333	1.3253e+02	-6.5331	-6.037536	0.001014	10.135163	1.716943	-0.000203
1334	1.3263e+02	-6.5526	-6.194985	0.000791	7.905427	1.339216	-0.000158
1335	1.3273e+02	-6.5747	-6.433176	0.001196	11.959493	2.025993	-0.000239
1336	1.3283e+02	-6.5934	-6.699627	0.001338	13.378415	2.266365	-0.000268
1337	1.3293e+02	-6.6125	-6.877261	0.000892	8.918944	1.510910	-0.000179
1338	1.3303e+02	-6.6335	-7.103340	0.001135	11.351383	1.922976	-0.000227
1339	1.3313e+02	-6.6533	-7.349606	0.001236	12.364899	2.094671	-0.000248
1340	1.3323e+02	-6.6728	-7.543388	0.000973	9.729757	1.648265	-0.000195
1341	1.3333e+02	-6.6928	-7.797728	0.001277	12.770306	2.163348	-0.000256
1342	1.3343e+02	-6.7121	-7.987473	0.000953	9.527053	1.613927	-0.000191
1343	1.3353e+02	-6.7331	-8.249887	0.001318	13.175712	2.232026	-0.000264
1344	1.3363e+02	-6.7528	-8.455781	0.001034	10.337866	1.751282	-0.000207
1345	1.3373e+02	-6.7728	-8.669749	0.001074	10.743273	1.819960	-0.000215
1346	1.3383e+02	-6.7926	-8.940237	0.001358	13.581119	2.300704	-0.000272
1347	1.3393e+02	-6.8123	-9.158242	0.001095	10.945976	1.854299	-0.000219
1348	1.3403e+02	-6.8326	-9.376248	0.001095	10.945976	1.854299	-0.000219
1349	1.3413e+02	-6.8527	-9.622513	0.001236	12.364899	2.094671	-0.000248
1350	1.3423e+02	-6.8719	-9.840518	0.001095	10.945976	1.854299	-0.000219
1351	1.3432e+02	-6.8930	-10.094858	0.001277	12.770306	2.163348	-0.000256
1352	1.3442e+02	-6.9128	-10.345160	0.001257	12.567602	2.129009	-0.000252
1353	1.3452e+02	-6.9319	-10.551054	0.001034	10.337866	1.751282	-0.000207
1354	1.3462e+02	-6.9513	-10.769060	0.001095	10.945976	1.854299	-0.000219
1355	1.3472e+02	-6.9723	-11.067808	0.001500	15.000041	2.541076	-0.000300
1356	1.3482e+02	-6.9914	-11.342333	0.001378	13.783822	2.335043	-0.000276
1357	1.3492e+02	-7.0114	-11.511893	0.000851	8.513537	1.442232	-0.000170
1358	1.3502e+02	-7.0314	-11.778344	0.001338	13.378415	2.266365	-0.000268
1359	1.3512e+02	-7.0520	-11.988275	0.001054	10.540570	1.785621	-0.000211
1360	1.3522e+02	-7.0713	-12.266837	0.001399	13.986525	2.369382	-0.000280
1361	1.3532e+02	-7.0917	-12.521176	0.001277	12.770306	2.163348	-0.000256
1362	1.3542e+02	-7.1112	-12.751293	0.001155	11.554086	1.957315	-0.000231
1363	1.3552e+02	-7.1317	-12.993521	0.001216	12.162196	2.060332	-0.000243
1364	1.3562e+02	-7.1516	-13.255935	0.001318	13.175712	2.232026	-0.000264
1365	1.3572e+02	-7.1711	-13.506238	0.001257	12.567602	2.129009	-0.000252
1366	1.3582e+02	-7.1909	-13.732317	0.001135	11.351383	1.922976	-0.000227
1367	1.3592e+02	-7.2115	-14.031065	0.001500	15.000041	2.541076	-0.000300
1368	1.3602e+02	-7.2305	-14.309628	0.001399	13.986525	2.369382	-0.000280
1369	1.3612e+02	-7.2516	-14.527633	0.001095	10.945976	1.854299	-0.000219
1370	1.3622e+02	-7.2705	-14.798121	0.001358	13.581119	2.300704	-0.000272
1371	1.3631e+02	-7.2917	-15.076683	0.001399	13.986525	2.369382	-0.000280
1372	1.3641e+02	-7.3105	-15.310837	0.001176	11.756789	1.991654	-0.000235
1373	1.3651e+02	-7.3306	-15.609585	0.001500	15.000041	2.541076	-0.000300
1374	1.3661e+02	-7.3503	-15.863925	0.001277	12.770306	2.163348	-0.000256
1375	1.3671e+02	-7.3706	-16.126339	0.001318	13.175712	2.232026	-0.000264
1376	1.3681e+02	-7.3895	-16.408938	0.001419	14.189228	2.403720	-0.000284
1377	1.3691e+02	-7.4108	-16.667315	0.001297	12.973009	2.197687	-0.000260
1378	1.3701e+02	-7.4306	-16.957989	0.001459	14.594635	2.472398	-0.000292
1379	1.3711e+02	-7.4506	-17.228477	0.001358	13.581119	2.300704	-0.000272
1380	1.3721e+02	-7.4709	-17.523188	0.001480	14.797338	2.506737	-0.000296
1381	1.3731e+02	-7.4904	-17.769453	0.001236	12.364899	2.094671	-0.000248
1382	1.3741e+02	-7.5098	-18.092424	0.001622	16.216261	2.747109	-0.000325
1383	1.3751e+02	-7.5302	-18.354838	0.001318	13.175712	2.232026	-0.000264
1384	1.3761e+02	-7.5497	-18.649549	0.001480	14.797338	2.506737	-0.000296
1385	1.3771e+02	-7.5693	-18.956371	0.001541	15.405448	2.609754	-0.000308
1386	1.3781e+02	-7.5877	-19.251082	0.001480	14.797338	2.506737	-0.000296
1387	1.3791e+02	-7.6080	-19.553867	0.001520	15.202745	2.575415	-0.000304
1388	1.3801e+02	-7.6294	-19.808206	0.001277	12.770306	2.163348	-0.000256
1389	1.3811e+02	-7.6487	-20.098880	0.001459	14.594635	2.472398	-0.000292
1390	1.3821e+02	-7.6691	-20.393591	0.001480	14.797338	2.506737	-0.000296
1391	1.3831e+02	-7.6886	-20.700413	0.001541	15.405448	2.609754	-0.000308
1392	1.3840e+02	-7.7086	-21.031459	0.001662	16.621668	2.815787	-0.000333
1393	1.3850e+02	-7.7281	-21.330207	0.001500	15.000041	2.541076	-0.000300
1394	1.3860e+02	-7.7493	-21.596658	0.001338	13.378415	2.266365	-0.000268
1395	1.3870e+02	-7.7681	-21.895406	0.001500	15.000041	2.541076	-0.000300
1396	1.3880e+02	-7.7887	-22.226451	0.001662	16.621668	2.815787	-0.000333
1397	1.3890e+02	-7.8088	-22.537310	0.001561	15.608151	2.644092	-0.000312
1398	1.3900e+02	-7.8275	-22.852207	0.001581	15.810855	2.678431	-0.000316
1399	1.3910e+02	-7.8473	-23.154992	0.001520	15.202745	2.575415	-0.000304
1400	1.3920e+02	-7.8682	-23.433554	0.001399	13.986525	2.369382	-0.000280
1401	1.3930e+02	-7.8880	-23.760562	0.001642	16.418964	2.781448	-0.000329
1402	1.3940e+02	-7.9076	-24.095645	0.001682	16.824371	2.850126	-0.000337
1403	1.3950e+02	-7.9274	-24.426690	0.001662	16.621668	2.815787	-0.000333
1404	1.3960e+02	-7.9479	-24.709289	0.001419	14.189228	2.403720	-0.000284
1405	1.3970e+02	-7.9674	-25.064557	0.001784	17.837887	3.021820	-0.000357
1406	1.3980e+02	-7.9858	-25.403677	0.001703	17.027074	2.884464	-0.000341
1407	1.3990e+02	-8.0074	-25.722610	0.001601	16.013558	2.712770	-0.000321
1408	1.4000e+02	-8.0261	-26.073841	0.001764	17.635184	2.987481	-0.000353
1409	1.4010e+02	-8.0470	-26.368552	0.001480	14.797338	2.506737	-0.000296
1410	1.4020e+02	-8.0664	-26.711709	0.001723	17.229777	2.918803	-0.000345
1411	1.4029e+02	-8.0872	-27.046791	0.001682	16.824371	2.850126	-0.000337
1412	1.4039e+02	-8.1076	-27.398022	0.001764	17.635184	2.987481	-0.000353
1413	1.4049e+02	-8.1268	-27.737141	0.001703	17.027074	2.884464	-0.000341
1414	1.4059e+02	-8.1467	-28.048001	0.001561	15.608151	2.644092	-0.000312
1415	1.4069e+02	-8.1670	-28.423454	0.001885	18.851403	3.193514	-0.000377
1416	1.4079e+02	-8.1866	-28.750462	0.001642	16.418964	2.781448	-0.000329
1417	1.4089e+02	-8.2060	-29.129953	0.001905	19.054107	3.227853	-0.000381
1418	1.4099e+02	-8.2265	-29.505407	0.001885	18.851403	3.193514	-0.000377
1419	1.4109e+02	-8.2466	-29.848563	0.001723	17.229777	2.918803	-0.000345
1420	1.4119e+02	-8.2662	-30.248240	0.002007	20.067623	3.399547	-0.000402
1421	1.4129e+02	-8.2872	-30.579285	0.001662	16.621668	2.815787	-0.000333
1422	1.4139e+02	-8.3056	-30.962813	0.001926	19.256810	3.262192	-0.000385
1423	1.4149e+02	-8.3259	-31.301932	0.001703	17.027074	2.884464	-0.000341
1424	1.4159e+02	-8.3453	-31.705646	0.002027	20.270326	3.433886	-0.000406
1425	1.4169e+02	-8.3665	-32.040728	0.001682	16.824371	2.850126	-0.000337
1426	1.4179e+02	-8.3861	-32.464627	0.002128	21.283843	3.605581	-0.000426
1427	1.4189e+02	-8.4061	-32.799709	0.001682	16.824371	2.850126	-0.000337
1428	1.4199e+02	-8.4263	-33.179200	0.001905	19.054107	3.227853	-0.000381
1429	1.4209e+02	-8.4457	-33.603099	0.002128	21.283843	3.605581	-0.000426
1430	1.4219e+02	-8.4650	-34.002776	0.002007	20.067623	3.399547	-0.000402
1431	1.4228e+02	-8.4848	-34.333821	0.001662	16.621668	2.815787	-0.000333
1432	1.4238e+02	-8.5056	-34.749646	0.002088	20.878436	3.536903	-0.000418
1433	1.4248e+02	-8.5260	-35.112988	0.001824	18.243294	3.090498	-0.000365
1434	1.4258e+02	-8.5452	-35.581296	0.002351	23.513579	3.983308	-0.000471
1435	1.4268e+02	-8.5645	-35.920415	0.001703	17.027074	2.884464	-0.000341
1436	1.4278e+02	-8.5846	-36.344314	0.002128	21.283843	3.605581	-0.000426
1437	1.4288e+02	-8.6049	-36.739954	0.001986	19.864920	3.365209	-0.000398
1438	1.4298e+02	-8.6246	-37.139630	0.002007	20.067623	3.399547	-0.000402
1439	1.4308e+02	-8.6443	-37.527195	0.001946	19.459513	3.296531	-0.000390
1440	1.4318e+02	-8.6650	-37.955132	0.002149	21.486546	3.639919	-0.000430
1441	1.4328e+02	-8.6838	-38.395179	0.002209	22.094656	3.742936	-0.000442
1442	1.4338e+02	-8.7047	-38.790819	0.001986	19.864920	3.365209	-0.000398
1443	1.4348e+02	-8.7251	-39.230867	0.002209	22.094656	3.742936	-0.000442
1444	1.4358e+02	-8.7439	-39.630543	0.002007	20.067623	3.399547	-0.000402
1445	1.4368e+02	-8.7651	-40.094814	0.002331	23.310875	3.948969	-0.000467
1446	1.4378e+02	-8.7843	-40.514676	0.002108	21.081139	3.571242	-0.000422
1447	1.4388e+02	-8.8032	-40.966835	0.002270	22.702765	3.845953	-0.000454
1448	1.4398e+02	-8.8254	-41.410920	0.002230	22.297359	3.777275	-0.000446
1449	1.4408e+02	-8.8437	-41.810596	0.002007	20.067623	3.399547	-0.000402
1450	1.4418e+02	-8.8643	-42.246607	0.002189	21.891952	3.708597	-0.000438
1451	1.4428e+02	-8.8842	-42.739137	0.002473	24.729798	4.189341	-0.000495
1452	1.4437e+02	-8.9034	-43.167074	0.002149	21.486546	3.639919	-0.000430
1453	1.4447e+02	-8.9240	-43.619233	0.002270	22.702765	3.845953	-0.000454
1454	1.4457e+02	-8.9426	-44.095615	0.002392	23.918985	4.051986	-0.000479
1455	1.4467e+02	-8.9626	-44.527589	0.002169	21.689249	3.674258	-0.000434
1456	1.4477e+02	-8.9824	-44.987822	0.002311	23.108172	3.914630	-0.000463
1457	1.4487e+02	-9.0034	-45.480353	0.002473	24.729798	4.189341	-0.000495
1458	1.4497e+02	-9.0234	-45.928475	0.002250	22.500062	3.811614	-0.000450
1459	1.4507e+02	-9.0433	-46.429080	0.002514	25.135205	4.258019	-0.000503
1460	1.4517e+02	-9.0628	-46.901424	0.002372	23.716282	4.017647	-0.000475
1461	1.4527e+02	-9.0836	-47.397992	0.002493	24.932501	4.223680	-0.000499
1462	1.4537e+02	-9.1031	-47.850151	0.002270	22.702765	3.845953	-0.000454
1463	1.4547e+02	-9.1229	-48.302311	0.002270	22.702765	3.845953	-0.000454
1464	1.4557e+02	-9.1437	-48.810990	0.002554	25.540611	4.326697	-0.000511
1465	1.4567e+02	-9.1631	-49.295446	0.002432	24.324392	4.120663	-0.000487
1466	1.4577e+02	-9.1821	-49.836422	0.002716	27.162237	4.601408	-0.000544
1467	1.4587e+02	-9.2026	-50.324916	0.002453	24.527095	4.155002	-0.000491
1468	1.4597e+02	-9.2221	-50.781112	0.002291	22.905469	3.880291	-0.000458
1469	1.4607e+02	-9.2428	-51.362459	0.002919	29.189270	4.944796	-0.000584
1470	1.4617e+02	-9.2622	-51.818656	0.002291	22.905469	3.880291	-0.000458
1471	1.4626e+02	-9.2827	-52.339446	0.002615	26.148721	4.429713	-0.000523
1472	1.4636e+02	-9.3018	-52.864274	0.002635	26.351424	4.464052	-0.000527
1473	1.4646e+02	-9.3219	-53.360842	0.002493	24.932501	4.223680	-0.000499
1474	1.4656e+02	-9.3430	-53.861446	0.002514	25.135205	4.258019	-0.000503
1475	1.4666e+02	-9.3623	-54.398386	0.002696	26.959534	4.567069	-0.000540
1476	1.4676e+02	-9.3817	-54.963585	0.002838	28.378457	4.807441	-0.000568
1477	1.4686e+02	-9.4017	-55.512635	0.002757	27.567644	4.670085	-0.000552
1478	1.4696e+02	-9.4220	-56.025351	0.002574	25.743314	4.361036	-0.000515
1479	1.4706e+02	-9.4418	-56.586513	0.002818	28.175754	4.773102	-0.000564
1480	1.4716e+02	-9.4617	-57.119415	0.002676	26.756831	4.532730	-0.000536
1481	1.4726e+02	-9.4810	-57.656354	0.002696	26.959534	4.567069	-0.000540
1482	1.4736e+02	-9.5014	-58.217516	0.002818	28.175754	4.773102	-0.000564
1483	1.4746e+02	-9.5216	-58.798863	0.002919	29.189270	4.944796	-0.000584
1484	1.4756e+02	-9.5409	-59.355988	0.002797	27.973050	4.738763	-0.000560
1485	1.4766e+02	-9.5605	-59.921187	0.002838	28.378457	4.807441	-0.000568
1486	1.4776e+02	-9.5805	-60.498498	0.002899	28.986567	4.910457	-0.000580
1487	1.4786e+02	-9.5999	-61.075808	0.002899	28.986567	4.910457	-0.000580
1488	1.4796e+02	-9.6207	-61.653118	0.002899	28.986567	4.910457	-0.000580
1489	1.4806e+02	-9.6407	-62.331357	0.003405	34.054148	5.768929	-0.000682
1490	1.4816e+02	-9.6603	-62.872333	0.002716	27.162237	4.601408	-0.000544
1491	1.4825e+02	-9.6808	-63.481941	0.003061	30.608193	5.185168	-0.000613
1492	1.4835e+02	-9.7003	-64.087511	0.003041	30.405489	5.150829	-0.000609
1493	1.4845e+02	-9.7211	-64.664822	0.002899	28.986567	4.910457	-0.000580
1494	1.4855e+02	-9.7401	-65.298652	0.003182	31.824412	5.391201	-0.000637
1495	1.4865e+02	-9.7603	-65.880000	0.002919	29.189270	4.944796	-0.000584
1496	1.4875e+02	-9.7803	-66.509793	0.003162	31.621709	5.356863	-0.000633
1497	1.4885e+02	-9.7998	-67.139586	0.003162	31.621709	5.356863	-0.000633
1498	1.4895e+02	-9.8190	-67.761305	0.003122	31.216303	5.288185	-0.000625
1499	1.4905e+02	-9.8402	-68.427432	0.003345	33.446038	5.665912	-0.000669
1500	1.4915e+02	-9.8589	-69.033003	0.003041	30.405489	5.150829	-0.000609
1501	1.4925e+02	-9.8799	-69.691056	0.003304	33.040632	5.597235	-0.000661
1502	1.4935e+02	-9.8996	-70.345072	0.003284	32.837929	5.562896	-0.000657
1503	1.4945e+02	-9.9191	-70.966791	0.003122	31.216303	5.288185	-0.000625
1504	1.4955e+02	-9.9397	-71.649067	0.003426	34.256851	5.803268	-0.000686
1505	1.4965e+02	-9.9604	-72.331342	0.003426	34.256851	5.803268	-0.000686
1506	1.4975e+02	-9.9781	-73.013618	0.003426	34.256851	5.803268	-0.000686
1507	1.4985e+02	-9.9991	-73.635337	0.003122	31.216303	5.288185	-0.000625
1508	1.4995e+02	-9.9788	-74.220722	-0.002939	-29.391973	-4.979135	-0.000588
1509	1.5005e+02	-9.9590	-74.660770	-0.002209	-22.094656	-3.742936	-0.000442
1510	1.5015e+02	-9.9394	-75.100818	-0.002209	-22.094656	-3.742936	-0.000442
1511	1.5025e+02	-9.9193	-75.544902	-0.002230	-22.297359	-3.777275	-0.000446
1512	1.5034e+02	-9.8991	-75.997062	-0.002270	-22.702765	-3.845953	-0.000454
1513	1.5044e+02	-9.8793	-76.340218	-0.001723	-17.229777	-2.918803	-0.000345
1514	1.5054e+02	-9.8579	-76.727783	-0.001946	-19.459513	-3.296531	-0.000390
1515	1.5064e+02	-9.8398	-77.099200	-0.001865	-18.648700	-3.159175	-0.000373
1516	1.5074e+02	-9.8193	-77.450431	-0.001764	-17.635184	-2.987481	-0.000353
1517	1.5084e+02	-9.7993	-77.801661	-0.001764	-17.635184	-2.987481	-0.000353
1518	1.5094e+02	-9.7801	-78.120595	-0.001601	-16.013558	-2.712770	-0.000321
1519	1.5104e+02	-9.7598	-78.471826	-0.001764	-17.635184	-2.987481	-0.000353
1520	1.5114e+02	-9.7412	-78.774611	-0.001520	-15.202745	-2.575415	-0.000304
1521	1.5124e+02	-9.7206	-79.037025	-0.001318	-13.175712	-2.232026	-0.000264
1522	1.5134e+02	-9.7016	-79.355959	-0.001601	-16.013558	-2.712770	-0.000321
1523	1.5144e+02	-9.6810	-79.598187	-0.001216	-12.162196	-2.060332	-0.000243
1524	1.5154e+02	-9.6611	-79.888861	-0.001459	-14.594635	-2.472398	-0.000292
1525	1.5164e+02	-9.6404	-80.127052	-0.001196	-11.959493	-2.025993	-0.000239
1526	1.5174e+02	-9.6196	-80.373317	-0.001236	-12.364899	-2.094671	-0.000248
1527	1.5184e+02	-9.6008	-80.591322	-0.001095	-10.945976	-1.854299	-0.000219
1528	1.5194e+02	-9.5795	-80.869885	-0.001399	-13.986525	-2.369382	-0.000280
1529	1.5204e+02	-9.5610	-81.067704	-0.000993	-9.932460	-1.682604	-0.000199
1530	1.5214e+02	-9.5413	-81.253412	-0.000932	-9.324350	-1.579588	-0.000187
1531	1.5224e+02	-9.5201	-81.519863	-0.001338	-13.378415	-2.266365	-0.000268
1532	1.5233e+02	-9.5014	-81.645015	-0.000628	-6.283801	-1.064505	-0.000126
1533	1.5243e+02	-9.4819	-81.879168	-0.001176	-11.756789	-1.991654	-0.000235
1534	1.5253e+02	-9.4613	-82.072951	-0.000973	-9.729757	-1.648265	-0.000195
1535	1.5263e+02	-9.4402	-82.246548	-0.000872	-8.716240	-1.476571	-0.000174
1536	1.5273e+02	-9.4221	-82.424182	-0.000892	-8.918944	-1.510910	-0.000179
1537	1.5283e+02	-9.4016	-82.613927	-0.000953	-9.527053	-1.613927	-0.000191
1538	1.5293e+02	-9.3814	-82.739078	-0.000628	-6.283801	-1.064505	-0.000126
1539	1.5303e+02	-9.3616	-82.896527	-0.000791	-7.905427	-1.339216	-0.000158
1540	1.5313e+02	-9.3423	-83.078198	-0.000912	-9.121647	-1.545249	-0.000183
1541	1.5323e+02	-9.3222	-83.219498	-0.000709	-7.094614	-1.201860	-0.000142
1542	1.5333e+02	-9.3025	-83.356760	-0.000689	-6.891911	-1.167521	-0.000138
1543	1.5343e+02	-9.2822	-83.530357	-0.000872	-8.716240	-1.476571	-0.000174
1544	1.5353e+02	-9.2615	-83.691842	-0.000811	-8.108131	-1.373554	-0.000162
1545	1.5363e+02	-9.2419	-83.772585	-0.000405	-4.054065	-0.686777	-0.000081
1546	1.5373e+02	-9.2221	-83.877551	-0.000527	-5.270285	-0.892810	-0.000105
1547	1.5383e+02	-9.2026	-83.994628	-0.000588	-5.878395	-0.995827	-0.000118
1548	1.5393e+02	-9.1817	-84.103630	-0.000547	-5.472988	-0.927149	-0.000110
1549	1.5403e+02	-9.1628	-84.228781	-0.000628	-6.283801	-1.064505	-0.000126
1550	1.5413e+02	-9.1437	-84.398341	-0.000851	-8.513537	-1.442232	-0.000170
1551	1.5422e+02	-9.1232	-84.454861	-0.000284	-2.837846	-0.480744	-0.000057
1552	1.5432e+02	-9.1026	-84.559827	-0.000527	-5.270285	-0.892810	-0.000105
1553	1.5442e+02	-9.0823	-84.616347	-0.000284	-2.837846	-0.480744	-0.000057
1554	1.5452e+02	-9.0631	-84.697089	-0.000405	-4.054065	-0.686777	-0.000081
1555	1.5462e+02	-9.0433	-84.842426	-0.000730	-7.297317	-1.236199	-0.000146
1556	1.5472e+02	-9.0230	-84.907020	-0.000324	-3.243252	-0.549422	-0.000065
1557	1.5482e+02	-9.0029	-84.975652	-0.000345	-3.445955	-0.583761	-0.000069
1558	1.5492e+02	-8.9838	-85.096766	-0.000608	-6.081098	-1.030166	-0.000122
1559	1.5502e+02	-8.9632	-85.116951	-0.000101	-1.013516	-0.171694	-0.000020
1560	1.5512e+02	-8.9429	-85.193657	-0.000385	-3.851362	-0.652438	-0.000077
1561	1.5522e+02	-8.9236	-85.266325	-0.000365	-3.648659	-0.618100	-0.000073
1562	1.5532e+02	-8.9041	-85.318808	-0.000264	-2.635142	-0.446405	-0.000053
1563	1.5542e+02	-8.8829	-85.387439	-0.000345	-3.445955	-0.583761	-0.000069
1564	1.5552e+02	-8.8638	-85.435885	-0.000243	-2.432439	-0.412066	-0.000049
1565	1.5562e+02	-8.8447	-85.476256	-0.000203	-2.027033	-0.343389	-0.000041
1566	1.5572e+02	-8.8255	-85.540851	-0.000324	-3.243252	-0.549422	-0.000065
1567	1.5582e+02	-8.8039	-85.609482	-0.000345	-3.445955	-0.583761	-0.000069
1568	1.5592e+02	-8.7849	-85.682150	-0.000365	-3.648659	-0.618100	-0.000073
1569	1.5602e+02	-8.7649	-85.674076	0.000041	0.405407	0.068678	0.000008
1570	1.5612e+02	-8.7447	-85.730596	-0.000284	-2.837846	-0.480744	-0.000057
1571	1.5622e+02	-8.7251	-85.766930	-0.000182	-1.824329	-0.309050	-0.000037
1572	1.5631e+02	-8.7044	-85.779042	-0.000061	-0.608110	-0.103017	-0.000012
1573	1.5641e+02	-8.6853	-85.799227	-0.000101	-1.013516	-0.171694	-0.000020
1574	1.5651e+02	-8.6649	-85.855747	-0.000284	-2.837846	-0.480744	-0.000057
1575	1.5661e+02	-8.6449	-85.908230	-0.000264	-2.635142	-0.446405	-0.000053
1576	1.5671e+02	-8.6247	-85.879970	0.000142	1.418923	0.240372	0.000028
1577	1.5681e+02	-8.6047	-85.912267	-0.000162	-1.621626	-0.274711	-0.000032
1578	1.5691e+02	-8.5844	-85.932453	-0.000101	-1.013516	-0.171694	-0.000020
1579	1.5701e+02	-8.5651	-85.952638	-0.000101	-1.013516	-0.171694	-0.000020
1580	1.5711e+02	-8.5451	-85.988973	-0.000182	-1.824329	-0.309050	-0.000037
1581	1.5721e+02	-8.5250	-85.997047	-0.000041	-0.405407	-0.068678	-0.000008
1582	1.5731e+02	-8.5054	-86.049530	-0.000264	-2.635142	-0.446405	-0.000053
1583	1.5741e+02	-8.4853	-86.037418	0.000061	0.608110	0.103017	0.000012
1584	1.5751e+02	-8.4653	-86.013195	0.000122	1.216220	0.206033	0.000024
1585	1.5761e+02	-8.4450	-86.061641	-0.000243	-2.432439	-0.412066	-0.000049
1586	1.5771e+02	-8.4250	-86.073753	-0.000061	-0.608110	-0.103017	-0.000012
1587	1.5781e+02	-8.4068	-86.093938	-0.000101	-1.013516	-0.171694	-0.000020
1588	1.5791e+02	-8.3857	-86.057604	0.000182	1.824329	0.309050	0.000037
1589	1.5801e+02	-8.3658	-86.053567	0.000020	0.202703	0.034339	0.000004
1590	1.5811e+02	-8.3465	-86.085864	-0.000162	-1.621626	-0.274711	-0.000032
1591	1.5821e+02	-8.3267	-86.053567	0.000162	1.621626	0.274711	0.000032
1592	1.5830e+02	-8.3059	-86.037418	0.000081	0.810813	0.137355	0.000016
1593	1.5840e+02	-8.2861	-86.029344	0.000041	0.405407	0.068678	0.000008
1594	1.5850e+02	-8.2662	-86.025307	0.000020	0.202703	0.034339	0.000004
1595	1.5860e+02	-8.2469	-86.045493	-0.000101	-1.013516	-0.171694	-0.000020
1596	1.5870e+02	-8.2262	-85.993010	0.000264	2.635142	0.446405	0.000053
1597	1.5880e+02	-8.2067	-86.037418	-0.000223	-2.229736	-0.377727	-0.000045
1598	1.5890e+02	-8.1868	-85.997047	0.000203	2.027033	0.343389	0.000041
1599	1.5900e+02	-8.1665	-85.972824	0.000122	1.216220	0.206033	0.000024
1600	1.5910e+02	-8.1465	-85.956676	0.000081	0.810813	0.137355	0.000016
1601	1.5920e+02	-8.1264	-85.972824	-0.000081	-0.810813	-0.137355	-0.000016
1602	1.5930e+02	-8.1065	-85.908230	0.000324	3.243252	0.549422	0.000065
1603	1.5940e+02	-8.0873	-85.900156	0.000041	0.405407	0.068678	0.000008
1604	1.5950e+02	-8.0676	-85.924378	-0.000122	-1.216220	-0.206033	-0.000024
1605	1.5960e+02	-8.0469	-85.900156	0.000122	1.216220	0.206033	0.000024
1606	1.5970e+02	-8.0283	-85.863821	0.000182	1.824329	0.309050	0.000037
1607	1.5980e+02	-8.0073	-85.831524	0.000162	1.621626	0.274711	0.000032
1608	1.5990e+02	-7.9871	-85.791153	0.000203	2.027033	0.343389	0.000041
1609	1.6000e+02	-7.9668	-85.795190	-0.000020	-0.202703	-0.034339	-0.000004
1610	1.6010e+02	-7.9479	-85.750782	0.000223	2.229736	0.377727	0.000045
1611	1.6019e+02	-7.9271	-85.718485	0.000162	1.621626	0.274711	0.000032
1612	1.6029e+02	-7.9083	-85.710410	0.000041	0.405407	0.068678	0.000008
1613	1.6039e+02	-7.8871	-85.657928	0.000264	2.635142	0.446405	0.000053
1614	1.6049e+02	-7.8679	-85.629668	0.000142	1.418923	0.240372	0.000028
1615	1.6059e+02	-7.8475	-85.613519	0.000081	0.810813	0.137355	0.000016
1616	1.6069e+02	-7.8271	-85.569111	0.000223	2.229736	0.377727	0.000045
1617	1.6079e+02	-7.8088	-85.548925	0.000101	1.013516	0.171694	0.000020
1618	1.6089e+02	-7.7878	-85.492405	0.000284	2.837846	0.480744	0.000057
1619	1.6099e+02	-7.7689	-85.496442	-0.000020	-0.202703	-0.034339	-0.000004
1620	1.6109e+02	-7.7486	-85.447996	0.000243	2.432439	0.412066	0.000049
1621	1.6119e+02	-7.7291	-85.435885	0.000061	0.608110	0.103017	0.000012
1622	1.6129e+02	-7.7089	-85.379365	0.000284	2.837846	0.480744	0.000057
1623	1.6139e+02	-7.6878	-85.347068	0.000162	1.621626	0.274711	0.000032
1624	1.6149e+02	-7.6681	-85.314771	0.000162	1.621626	0.274711	0.000032
1625	1.6159e+02	-7.6480	-85.270362	0.000223	2.229736	0.377727	0.000045
1626	1.6169e+02	-7.6285	-85.197694	0.000365	3.648659	0.618100	0.000073
1627	1.6179e+02	-7.6089	-85.193657	0.000020	0.202703	0.034339	0.000004
1628	1.6189e+02	-7.5885	-85.116951	0.000385	3.851362	0.652438	0.000077
1629	1.6199e+02	-7.5702	-85.024097	0.000466	4.662175	0.789794	0.000093
1630	1.6209e+02	-7.5499	-85.048320	-0.000122	-1.216220	-0.206033	-0.000024
1631	1.6219e+02	-7.5301	-84.991800	0.000284	2.837846	0.480744	0.000057
1632	1.6228e+02	-7.5101	-84.919132	0.000365	3.648659	0.618100	0.000073
1633	1.6238e+02	-7.4901	-84.907020	0.000061	0.608110	0.103017	0.000012
1634	1.6248e+02	-7.4704	-84.862612	0.000223	2.229736	0.377727	0.000045
1635	1.6258e+02	-7.4506	-84.834352	0.000142	1.418923	0.240372	0.000028
1636	1.6268e+02	-7.4303	-84.777832	0.000284	2.837846	0.480744	0.000057
1637	1.6278e+02	-7.4104	-84.717275	0.000304	3.040549	0.515083	0.000061
1638	1.6288e+02	-7.3901	-84.644606	0.000365	3.648659	0.618100	0.000073
1639	1.6298e+02	-7.3709	-84.612309	0.000162	1.621626	0.274711	0.000032
1640	1.6308e+02	-7.3496	-84.543678	0.000345	3.445955	0.583761	0.000069
1641	1.6318e+02	-7.3312	-84.555789	-0.000061	-0.608110	-0.103017	-0.000012
1642	1.6328e+02	-7.3105	-84.446787	0.000547	5.472988	0.927149	0.000110
1643	1.6338e+02	-7.2916	-84.390267	0.000284	2.837846	0.480744	0.000057
1644	1.6348e+02	-7.2711	-84.333747	0.000284	2.837846	0.480744	0.000057
1645	1.6358e+02	-7.2512	-84.309524	0.000122	1.216220	0.206033	0.000024
1646	1.6368e+02	-7.2305	-84.240893	0.000345	3.445955	0.583761	0.000069
1647	1.6378e+02	-7.2114	-84.196484	0.000223	2.229736	0.377727	0.000045
1648	1.6388e+02	-7.1918	-84.168224	0.000142	1.418923	0.240372	0.000028
1649	1.6398e+02	-7.1703	-84.083445	0.000426	4.256769	0.721116	0.000085
1650	1.6408e+02	-7.1514	-84.047110	0.000182	1.824329	0.309050	0.000037
1651	1.6418e+02	-7.1312	-83.954256	0.000466	4.662175	0.789794	0.000093
1652	1.6427e+02	-7.1112	-83.913885	0.000203	2.027033	0.343389	0.000041
1653	1.6437e+02	-7.0920	-83.829105	0.000426	4.256769	0.721116	0.000085
1654	1.6447e+02	-7.0718	-83.800845	0.000142	1.418923	0.240372	0.000028
1655	1.6457e+02	-7.0519	-83.736251	0.000324	3.243252	0.549422	0.000065
1656	1.6467e+02	-7.0313	-83.659545	0.000385	3.851362	0.652438	0.000077
1657	1.6477e+02	-7.0117	-83.647434	0.000061	0.608110	0.103017	0.000012
1658	1.6487e+02	-6.9913	-83.574765	0.000365	3.648659	0.618100	0.000073
1659	1.6497e+02	-6.9714	-83.494023	0.000405	4.054065	0.686777	0.000081
1660	1.6507e+02	-6.9519	-83.433466	0.000304	3.040549	0.515083	0.000061
1661	1.6517e+02	-6.9318	-83.372909	0.000304	3.040549	0.515083	0.000061
1662	1.6527e+02	-6.9124	-83.340612	0.000162	1.621626	0.274711	0.000032
1663	1.6537e+02	-6.8919	-83.227572	0.000568	5.675691	0.961488	0.000114
1664	1.6547e+02	-6.8721	-83.175089	0.000264	2.635142	0.446405	0.000053
1665	1.6557e+02	-6.8524	-83.134718	0.000203	2.027033	0.343389	0.000041
1666	1.6567e+02	-6.8321	-83.033789	0.000507	5.067582	0.858472	0.000101
1667	1.6577e+02	-6.8117	-82.989381	0.000223	2.229736	0.377727	0.000045
1668	1.6587e+02	-6.7926	-82.924787	0.000324	3.243252	0.549422	0.000065
1669	1.6597e+02	-6.7735	-82.868267	0.000284	2.837846	0.480744	0.000057
1670	1.6607e+02	-6.7525	-82.795598	0.000365	3.648659	0.618100	0.000073
1671	1.6616e+02	-6.7330	-82.718893	0.000385	3.851362	0.652438	0.000077
1672	1.6626e+02	-6.7133	-82.658336	0.000304	3.040549	0.515083	0.000061
1673	1.6636e+02	-6.6931	-82.605853	0.000264	2.635142	0.446405	0.000053
1674	1.6646e+02	-6.6745	-82.517036	0.000446	4.459472	0.755455	0.000089
1675	1.6656e+02	-6.6522	-82.448405	0.000345	3.445955	0.583761	0.000069
1676	1.6666e+02	-6.6331	-82.347476	0.000507	5.067582	0.858472	0.000101
1677	1.6676e+02	-6.6112	-82.315179	0.000162	1.621626	0.274711	0.000032
1678	1.6686e+02	-6.5930	-82.214251	0.000507	5.067582	0.858472	0.000101
1679	1.6696e+02	-6.5736	-82.177917	0.000182	1.824329	0.309050	0.000037
1680	1.6706e+02	-6.5527	-82.097174	0.000405	4.054065	0.686777	0.000081
1681	1.6716e+02	-6.5343	-82.028542	0.000345	3.445955	0.583761	0.000069
1682	1.6726e+02	-6.5140	-81.947800	0.000405	4.054065	0.686777	0.000081
1683	1.6736e+02	-6.4936	-81.883206	0.000324	3.243252	0.549422	0.000065
1684	1.6746e+02	-6.4752	-81.798426	0.000426	4.256769	0.721116	0.000085
1685	1.6756e+02	-6.4532	-81.733832	0.000324	3.243252	0.549422	0.000065
1686	1.6766e+02	-6.4337	-81.649052	0.000426	4.256769	0.721116	0.000085
1687	1.6776e+02	-6.4143	-81.584458	0.000324	3.243252	0.549422	0.000065
1688	1.6786e+02	-6.3937	-81.463343	0.000608	6.081098	1.030166	0.000122
1689	1.6796e+02	-6.3744	-81.451232	0.000061	0.608110	0.103017	0.000012
1690	1.6806e+02	-6.3544	-81.346267	0.000527	5.270285	0.892810	0.000105
1691	1.6816e+02	-6.3348	-81.322044	0.000122	1.216220	0.206033	0.000024
1692	1.6825e+02	-6.3141	-81.204967	0.000588	5.878395	0.995827	0.000118
1693	1.6835e+02	-6.2949	-81.120187	0.000426	4.256769	0.721116	0.000085
1694	1.6845e+02	-6.2753	-81.071741	0.000243	2.432439	0.412066	0.000049
1695	1.6855e+02	-6.2549	-80.995036	0.000385	3.851362	0.652438	0.000077
1696	1.6865e+02	-6.2357	-80.918330	0.000385	3.851362	0.652438	0.000077
1697	1.6875e+02	-6.2154	-80.825476	0.000466	4.662175	0.789794	0.000093
1698	1.6885e+02	-6.1951	-80.716473	0.000547	5.472988	0.927149	0.000110
1699	1.6895e+02	-6.1755	-80.668028	0.000243	2.432439	0.412066	0.000049
1700	1.6905e+02	-6.1551	-80.583248	0.000426	4.256769	0.721116	0.000085
1701	1.6915e+02	-6.1364	-80.526728	0.000284	2.837846	0.480744	0.000057
1702	1.6925e+02	-6.1118	-80.417725	0.000547	5.472988	0.927149	0.000110
1703	1.6935e+02	-6.0957	-80.373317	0.000223	2.229736	0.377727	0.000045
1704	1.6945e+02	-6.0754	-80.264314	0.000547	5.472988	0.927149	0.000110
1705	1.6955e+02	-6.0552	-80.163386	0.000507	5.067582	0.858472	0.000101
1706	1.6965e+02	-6.0361	-80.098792	0.000324	3.243252	0.549422	0.000065
1707	1.6975e+02	-6.0165	-80.042272	0.000284	2.837846	0.480744	0.000057
1708	1.6985e+02	-5.9966	-79.953455	0.000446	4.459472	0.755455	0.000089
1709	1.6995e+02	-5.9747	-79.872712	0.000405	4.054065	0.686777	0.000081
1710	1.7005e+02	-5.9563	-79.787932	0.000426	4.256769	0.721116	0.000085
1711	1.7015e+02	-5.9361	-79.719301	0.000345	3.445955	0.583761	0.000069
1712	1.7024e+02	-5.9157	-79.618372	0.000507	5.067582	0.858472	0.000101
1713	1.7034e+02	-5.8960	-79.557815	0.000304	3.040549	0.515083	0.000061
1714	1.7044e+02	-5.8768	-79.460924	0.000486	4.864878	0.824133	0.000097
1715	1.7054e+02	-5.8565	-79.359996	0.000507	5.067582	0.858472	0.000101
1716	1.7064e+02	-5.8376	-79.323662	0.000182	1.824329	0.309050	0.000037
1717	1.7074e+02	-5.8171	-79.259067	0.000324	3.243252	0.549422	0.000065
1718	1.7084e+02	-5.7967	-79.174288	0.000426	4.256769	0.721116	0.000085
1719	1.7094e+02	-5.7768	-79.053173	0.000608	6.081098	1.030166	0.000122
1720	1.7104e+02	-5.7564	-78.984542	0.000345	3.445955	0.583761	0.000069
1721	1.7114e+02	-5.7372	-78.887651	0.000486	4.864878	0.824133	0.000097
1722	1.7124e+02	-5.7166	-78.831131	0.000284	2.837846	0.480744	0.000057
1723	1.7134e+02	-5.6973	-78.722128	0.000547	5.472988	0.927149	0.000110
1724	1.7144e+02	-5.6767	-78.665608	0.000284	2.837846	0.480744	0.000057
1725	1.7154e+02	-5.6575	-78.576791	0.000446	4.459472	0.755455	0.000089
1726	1.7164e+02	-5.6375	-78.504123	0.000365	3.648659	0.618100	0.000073
1727	1.7174e+02	-5.6172	-78.407232	0.000486	4.864878	0.824133	0.000097
1728	1.7184e+02	-5.5974	-78.314378	0.000466	4.662175	0.789794	0.000093
1729	1.7194e+02	-5.5775	-78.221523	0.000466	4.662175	0.789794	0.000093
1730	1.7204e+02	-5.5586	-78.177115	0.000223	2.229736	0.377727	0.000045
1731	1.7213e+02	-5.5371	-78.112521	0.000324	3.243252	0.549422	0.000065
1732	1.7223e+02	-5.5173	-77.995444	0.000588	5.878395	0.995827	0.000118
1733	1.7233e+02	-5.4977	-77.874330	0.000608	6.081098	1.030166	0.000122
1734	1.7243e+02	-5.4768	-77.801661	0.000365	3.648659	0.618100	0.000073
1735	1.7253e+02	-5.4574	-77.708807	0.000466	4.662175	0.789794	0.000093
1736	1.7263e+02	-5.4381	-77.624027	0.000426	4.256769	0.721116	0.000085
1737	1.7273e+02	-5.4152	-77.502913	0.000608	6.081098	1.030166	0.000122
1738	1.7283e+02	-5.3979	-77.454468	0.000243	2.432439	0.412066	0.000049
1739	1.7293e+02	-5.3778	-77.381799	0.000365	3.648659	0.618100	0.000073
1740	1.7303e+02	-5.3578	-77.309131	0.000365	3.648659	0.618100	0.000073
1741	1.7313e+02	-5.3383	-77.179942	0.000649	6.486504	1.098844	0.000130
1742	1.7323e+02	-5.3181	-77.123423	0.000284	2.837846	0.480744	0.000057
1743	1.7333e+02	-5.2991	-77.014420	0.000547	5.472988	0.927149	0.000110
1744	1.7343e+02	-5.2786	-76.929640	0.000426	4.256769	0.721116	0.000085
1745	1.7353e+02	-5.2591	-76.848897	0.000405	4.054065	0.686777	0.000081
1746	1.7363e+02	-5.2388	-76.776229	0.000365	3.648659	0.618100	0.000073
1747	1.7373e+02	-5.2194	-76.675301	0.000507	5.067582	0.858472	0.000101
1748	1.7383e+02	-5.1985	-76.594558	0.000405	4.054065	0.686777	0.000081
1749	1.7393e+02	-5.1793	-76.489592	0.000527	5.270285	0.892810	0.000105
1750	1.7403e+02	-5.1595	-76.392701	0.000486	4.864878	0.824133	0.000097
1751	1.7413e+02	-5.1389	-76.320033	0.000365	3.648659	0.618100	0.000073
1752	1.7422e+02	-5.1192	-76.239290	0.000405	4.054065	0.686777	0.000081
1753	1.7432e+02	-5.0988	-76.170659	0.000345	3.445955	0.583761	0.000069
1754	1.7442e+02	-5.0793	-76.114139	0.000284	2.837846	0.480744	0.000057
1755	1.7452e+02	-5.0595	-76.029359	0.000426	4.256769	0.721116	0.000085
1756	1.7462e+02	-5.0392	-75.904208	0.000628	6.283801	1.064505	0.000126
1757	1.7472e+02	-5.0197	-75.819428	0.000426	4.256769	0.721116	0.000085
1758	1.7482e+02	-4.9999	-75.710425	0.000547	5.472988	0.927149	0.000110
1759	1.7492e+02	-4.9790	-75.633719	0.000385	3.851362	0.652438	0.000077
1760	1.7502e+02	-4.9599	-75.524717	0.000547	5.472988	0.927149	0.000110
1761	1.7512e+02	-4.9407	-75.456086	0.000345	3.445955	0.583761	0.000069
1762	1.7522e+02	-4.9197	-75.387454	0.000345	3.445955	0.583761	0.000069
1763	1.7532e+02	-4.9002	-75.278452	0.000547	5.472988	0.927149	0.000110
1764	1.7542e+02	-4.8808	-75.165412	0.000568	5.675691	0.961488	0.000114
1765	1.7552e+02	-4.8596	-75.108892	0.000284	2.837846	0.480744	0.000057
1766	1.7562e+02	-4.8396	-75.028149	0.000405	4.054065	0.686777	0.000081
1767	1.7572e+02	-4.8203	-74.935295	0.000466	4.662175	0.789794	0.000093
1768	1.7582e+02	-4.8009	-74.830329	0.000527	5.270285	0.892810	0.000105
1769	1.7592e+02	-4.7797	-74.725364	0.000527	5.270285	0.892810	0.000105
1770	1.7602e+02	-4.7612	-74.676918	0.000243	2.432439	0.412066	0.000049
1771	1.7612e+02	-4.7411	-74.559841	0.000588	5.878395	0.995827	0.000118
1772	1.7621e+02	-4.7204	-74.471024	0.000446	4.459472	0.755455	0.000089
1773	1.7631e+02	-4.7014	-74.382207	0.000446	4.459472	0.755455	0.000089
1774	1.7641e+02	-4.6812	-74.317613	0.000324	3.243252	0.549422	0.000065
1775	1.7651e+02	-4.6611	-74.200536	0.000588	5.878395	0.995827	0.000118
1776	1.7661e+02	-4.6421	-74.119794	0.000405	4.054065	0.686777	0.000081
1777	1.7671e+02	-4.6220	-74.067311	0.000264	2.635142	0.446405	0.000053
1778	1.7681e+02	-4.6007	-73.946197	0.000608	6.081098	1.030166	0.000122
1779	1.7691e+02	-4.5807	-73.845268	0.000507	5.067582	0.858472	0.000101
1780	1.7701e+02	-4.5612	-73.776637	0.000345	3.445955	0.583761	0.000069
1781	1.7711e+02	-4.5419	-73.687820	0.000446	4.459472	0.755455	0.000089
1782	1.7721e+02	-4.5222	-73.574780	0.000568	5.675691	0.961488	0.000114
1783	1.7731e+02	-4.5020	-73.506149	0.000345	3.445955	0.583761	0.000069
1784	1.7741e+02	-4.4817	-73.393109	0.000568	5.675691	0.961488	0.000114
1785	1.7751e+02	-4.4609	-73.332552	0.000304	3.040549	0.515083	0.000061
1786	1.7761e+02	-4.4424	-73.207401	0.000628	6.283801	1.064505	0.000126
1787	1.7771e+02	-4.4220	-73.150881	0.000284	2.837846	0.480744	0.000057
1788	1.7781e+02	-4.4017	-73.053990	0.000486	4.864878	0.824133	0.000097
1789	1.7791e+02	-4.3814	-72.953061	0.000507	5.067582	0.858472	0.000101
1790	1.7801e+02	-4.3625	-72.856170	0.000486	4.864878	0.824133	0.000097
1791	1.7810e+02	-4.3427	-72.771390	0.000426	4.256769	0.721116	0.000085
1792	1.7820e+02	-4.3212	-72.686610	0.000426	4.256769	0.721116	0.000085
1793	1.7830e+02	-4.3011	-72.545311	0.000709	7.094614	1.201860	0.000142
1794	1.7840e+02	-4.2828	-72.480716	0.000324	3.243252	0.549422	0.000065
1795	1.7850e+02	-4.2632	-72.408048	0.000365	3.648659	0.618100	0.000073
1796	1.7860e+02	-4.2424	-72.299045	0.000547	5.472988	0.927149	0.000110
1797	1.7870e+02	-4.2231	-72.194080	0.000527	5.270285	0.892810	0.000105
1798	1.7880e+02	-4.2029	-72.101226	0.000466	4.662175	0.789794	0.000093
1799	1.7890e+02	-4.1826	-72.024520	0.000385	3.851362	0.652438	0.000077
1800	1.7900e+02	-4.1626	-71.887258	0.000689	6.891911	1.167521	0.000138
1801	1.7910e+02	-4.1431	-71.854960	0.000162	1.621626	0.274711	0.000032
1802	1.7920e+02	-4.1229	-71.717698	0.000689	6.891911	1.167521	0.000138
1803	1.7930e+02	-4.1028	-71.632918	0.000426	4.256769	0.721116	0.000085
1804	1.7940e+02	-4.0829	-71.556212	0.000385	3.851362	0.652438	0.000077
1805	1.7950e+02	-4.0630	-71.431061	0.000628	6.283801	1.064505	0.000126
1806	1.7960e+02	-4.0431	-71.326096	0.000527	5.270285	0.892810	0.000105
1807	1.7970e+02	-4.0230	-71.237279	0.000446	4.459472	0.755455	0.000089
1808	1.7980e+02	-4.0034	-71.152499	0.000426	4.256769	0.721116	0.000085
1809	1.7990e+02	-3.9832	-71.071756	0.000405	4.054065	0.686777	0.000081
1810	1.8000e+02	-3.9639	-70.978902	0.000466	4.662175	0.789794	0.000093
1811	1.8009e+02	-3.9433	-70.882011	0.000486	4.864878	0.824133	0.000097
1812	1.8019e+02	-3.9230	-70.781082	0.000507	5.067582	0.858472	0.000101
1813	1.8029e+02	-3.9041	-70.668043	0.000568	5.675691	0.961488	0.000114
1814	1.8039e+02	-3.8841	-70.583263	0.000426	4.256769	0.721116	0.000085
1815	1.8049e+02	-3.8639	-70.466186	0.000588	5.878395	0.995827	0.000118
1816	1.8059e+02	-3.8443	-70.373332	0.000466	4.662175	0.789794	0.000093
1817	1.8069e+02	-3.8248	-70.268366	0.000527	5.270285	0.892810	0.000105
1818	1.8079e+02	-3.8033	-70.159363	0.000547	5.472988	0.927149	0.000110
1819	1.8089e+02	-3.7839	-70.098806	0.000304	3.040549	0.515083	0.000061
1820	1.8099e+02	-3.7649	-70.009989	0.000446	4.459472	0.755455	0.000089
1821	1.8109e+02	-3.7450	-69.921172	0.000446	4.459472	0.755455	0.000089
1822	1.8119e+02	-3.7245	-69.808133	0.000568	5.675691	0.961488	0.000114
1823	1.8129e+02	-3.7047	-69.691056	0.000588	5.878395	0.995827	0.000118
1824	1.8139e+02	-3.6847	-69.586090	0.000527	5.270285	0.892810	0.000105
1825	1.8149e+02	-3.6658	-69.521496	0.000324	3.243252	0.549422	0.000065
1826	1.8159e+02	-3.6452	-69.416530	0.000527	5.270285	0.892810	0.000105
1827	1.8169e+02	-3.6247	-69.311565	0.000527	5.270285	0.892810	0.000105
1828	1.8179e+02	-3.6053	-69.242934	0.000345	3.445955	0.583761	0.000069
1829	1.8189e+02	-3.5852	-69.121820	0.000608	6.081098	1.030166	0.000122
1830	1.8199e+02	-3.5651	-69.004743	0.000588	5.878395	0.995827	0.000118
1831	1.8209e+02	-3.5452	-68.928037	0.000385	3.851362	0.652438	0.000077
1832	1.8218e+02	-3.5257	-68.782700	0.000730	7.297317	1.236199	0.000146
1833	1.8228e+02	-3.5064	-68.730217	0.000264	2.635142	0.446405	0.000053
1834	1.8238e+02	-3.4859	-68.629289	0.000507	5.067582	0.858472	0.000101
1835	1.8248e+02	-3.4668	-68.483952	0.000730	7.297317	1.236199	0.000146
1836	1.8258e+02	-3.4459	-68.370912	0.000568	5.675691	0.961488	0.000114
1837	1.8268e+02	-3.4263	-68.302281	0.000345	3.445955	0.583761	0.000069
1838	1.8278e+02	-3.4061	-68.144833	0.000791	7.905427	1.339216	0.000158
1839	1.8288e+02	-3.3858	-68.047941	0.000486	4.864878	0.824133	0.000097
1840	1.8298e+02	-3.3659	-67.991422	0.000284	2.837846	0.480744	0.000057
1841	1.8308e+02	-3.3462	-67.866270	0.000628	6.283801	1.064505	0.000126
1842	1.8318e+02	-3.3260	-67.749193	0.000588	5.878395	0.995827	0.000118
1843	1.8328e+02	-3.3065	-67.656339	0.000466	4.662175	0.789794	0.000093
1844	1.8338e+02	-3.2867	-67.531188	0.000628	6.283801	1.064505	0.000126
1845	1.8348e+02	-3.2657	-67.434297	0.000486	4.864878	0.824133	0.000097
1846	1.8358e+02	-3.2462	-67.345480	0.000446	4.459472	0.755455	0.000089
1847	1.8368e+02	-3.2259	-67.220329	0.000628	6.283801	1.064505	0.000126
1848	1.8378e+02	-3.2060	-67.103252	0.000588	5.878395	0.995827	0.000118
1849	1.8388e+02	-3.1859	-67.042695	0.000304	3.040549	0.515083	0.000061
1850	1.8398e+02	-3.1675	-66.913506	0.000649	6.486504	1.098844	0.000130
1851	1.8407e+02	-3.1474	-66.804504	0.000547	5.472988	0.927149	0.000110
1852	1.8417e+02	-3.1262	-66.695501	0.000547	5.472988	0.927149	0.000110
1853	1.8427e+02	-3.1078	-66.582461	0.000568	5.675691	0.961488	0.000114
1854	1.8437e+02	-3.0875	-66.477496	0.000527	5.270285	0.892810	0.000105
1855	1.8447e+02	-3.0669	-66.400790	0.000385	3.851362	0.652438	0.000077
1856	1.8457e+02	-3.0484	-66.255453	0.000730	7.297317	1.236199	0.000146
1857	1.8467e+02	-3.0265	-66.158562	0.000486	4.864878	0.824133	0.000097
1858	1.8477e+02	-3.0072	-66.089931	0.000345	3.445955	0.583761	0.000069
1859	1.8487e+02	-2.9870	-65.940557	0.000750	7.500021	1.270538	0.000150
1860	1.8497e+02	-2.9671	-65.807331	0.000669	6.689208	1.133182	0.000134
1861	1.8507e+02	-2.9466	-65.706403	0.000507	5.067582	0.858472	0.000101
1862	1.8517e+02	-2.9273	-65.609511	0.000486	4.864878	0.824133	0.000097
1863	1.8527e+02	-2.9070	-65.500509	0.000547	5.472988	0.927149	0.000110
1864	1.8537e+02	-2.8879	-65.359209	0.000709	7.094614	1.201860	0.000142
1865	1.8547e+02	-2.8681	-65.266355	0.000466	4.662175	0.789794	0.000093
1866	1.8557e+02	-2.8479	-65.165427	0.000507	5.067582	0.858472	0.000101
1867	1.8567e+02	-2.8270	-65.048350	0.000588	5.878395	0.995827	0.000118
1868	1.8577e+02	-2.8077	-64.923198	0.000628	6.283801	1.064505	0.000126
1869	1.8587e+02	-2.7882	-64.822270	0.000507	5.067582	0.858472	0.000101
1870	1.8597e+02	-2.7689	-64.721342	0.000507	5.067582	0.858472	0.000101
1871	1.8606e+02	-2.7478	-64.596190	0.000628	6.283801	1.064505	0.000126
1872	1.8616e+02	-2.7279	-64.475076	0.000608	6.081098	1.030166	0.000122
1873	1.8626e+02	-2.7080	-64.362037	0.000568	5.675691	0.961488	0.000114
1874	1.8636e+02	-2.6865	-64.236885	0.000628	6.283801	1.064505	0.000126
1875	1.8646e+02	-2.6691	-64.123845	0.000568	5.675691	0.961488	0.000114
1876	1.8656e+02	-2.6485	-64.026954	0.000486	4.864878	0.824133	0.000097
1877	1.8666e+02	-2.6285	-63.861432	0.000831	8.310834	1.407893	0.000166
1878	1.8676e+02	-2.6083	-63.792800	0.000345	3.445955	0.583761	0.000069
1879	1.8686e+02	-2.5880	-63.695909	0.000486	4.864878	0.824133	0.000097
1880	1.8696e+02	-2.5697	-63.582869	0.000568	5.675691	0.961488	0.000114
1881	1.8706e+02	-2.5493	-63.437532	0.000730	7.297317	1.236199	0.000146
1882	1.8716e+02	-2.5290	-63.332567	0.000527	5.270285	0.892810	0.000105
1883	1.8726e+02	-2.5089	-63.219527	0.000568	5.675691	0.961488	0.000114
1884	1.8736e+02	-2.4892	-63.118599	0.000507	5.067582	0.858472	0.000101
1885	1.8746e+02	-2.4699	-63.025745	0.000466	4.662175	0.789794	0.000093
1886	1.8756e+02	-2.4514	-62.872333	0.000770	7.702724	1.304877	0.000154
1887	1.8766e+02	-2.4301	-62.771405	0.000507	5.067582	0.858472	0.000101
1888	1.8776e+02	-2.4106	-62.698737	0.000365	3.648659	0.618100	0.000073
1889	1.8786e+02	-2.3906	-62.553400	0.000730	7.297317	1.236199	0.000146
1890	1.8796e+02	-2.3705	-62.444397	0.000547	5.472988	0.927149	0.000110
1891	1.8806e+02	-2.3502	-62.323283	0.000608	6.081098	1.030166	0.000122
1892	1.8815e+02	-2.3303	-62.238503	0.000426	4.256769	0.721116	0.000085
1893	1.8825e+02	-2.3098	-62.121426	0.000588	5.878395	0.995827	0.000118
1894	1.8835e+02	-2.2910	-61.976089	0.000730	7.297317	1.236199	0.000146
1895	1.8845e+02	-2.2697	-61.834790	0.000709	7.094614	1.201860	0.000142
1896	1.8855e+02	-2.2506	-61.774232	0.000304	3.040549	0.515083	0.000061
1897	1.8865e+02	-2.2296	-61.645044	0.000649	6.486504	1.098844	0.000130
1898	1.8875e+02	-2.2104	-61.548153	0.000486	4.864878	0.824133	0.000097
1899	1.8885e+02	-2.1919	-61.398779	0.000750	7.500021	1.270538	0.000150
1900	1.8895e+02	-2.1708	-61.318036	0.000405	4.054065	0.686777	0.000081
1901	1.8905e+02	-2.1507	-61.152514	0.000831	8.310834	1.407893	0.000166
1902	1.8915e+02	-2.1312	-61.043511	0.000547	5.472988	0.927149	0.000110
1903	1.8925e+02	-2.1114	-60.930471	0.000568	5.675691	0.961488	0.000114
1904	1.8935e+02	-2.0912	-60.813394	0.000588	5.878395	0.995827	0.000118
1905	1.8945e+02	-2.0703	-60.704392	0.000547	5.472988	0.927149	0.000110
1906	1.8955e+02	-2.0517	-60.546943	0.000791	7.905427	1.339216	0.000158
1907	1.8965e+02	-2.0310	-60.462163	0.000426	4.256769	0.721116	0.000085
1908	1.8975e+02	-2.0110	-60.320864	0.000709	7.094614	1.201860	0.000142
1909	1.8985e+02	-1.9915	-60.195712	0.000628	6.283801	1.064505	0.000126
1910	1.8995e+02	-1.9710	-60.106895	0.000446	4.459472	0.755455	0.000089
1911	1.9004e+02	-1.9512	-59.997893	0.000547	5.472988	0.927149	0.000110
1912	1.9014e+02	-1.9314	-59.852556	0.000730	7.297317	1.236199	0.000146
1913	1.9024e+02	-1.9121	-59.739516	0.000568	5.675691	0.961488	0.000114
1914	1.9034e+02	-1.8918	-59.626476	0.000568	5.675691	0.961488	0.000114
1915	1.9044e+02	-1.8713	-59.529585	0.000486	4.864878	0.824133	0.000097
1916	1.9054e+02	-1.8520	-59.396360	0.000669	6.689208	1.133182	0.000134
1917	1.9064e+02	-1.8319	-59.291394	0.000527	5.270285	0.892810	0.000105
1918	1.9074e+02	-1.8128	-59.190466	0.000507	5.067582	0.858472	0.000101
1919	1.9084e+02	-1.7918	-59.065314	0.000628	6.283801	1.064505	0.000126
1920	1.9094e+02	-1.7725	-58.928052	0.000689	6.891911	1.167521	0.000138
1921	1.9104e+02	-1.7517	-58.798863	0.000649	6.486504	1.098844	0.000130
1922	1.9114e+02	-1.7325	-58.710046	0.000446	4.459472	0.755455	0.000089
1923	1.9124e+02	-1.7124	-58.568747	0.000709	7.094614	1.201860	0.000142
1924	1.9134e+02	-1.6927	-58.479930	0.000446	4.459472	0.755455	0.000089
1925	1.9144e+02	-1.6730	-58.354779	0.000628	6.283801	1.064505	0.000126
1926	1.9154e+02	-1.6537	-58.241739	0.000568	5.675691	0.961488	0.000114
1927	1.9164e+02	-1.6333	-58.132736	0.000547	5.472988	0.927149	0.000110
1928	1.9174e+02	-1.6124	-58.011622	0.000608	6.081098	1.030166	0.000122
1929	1.9184e+02	-1.5927	-57.854174	0.000791	7.905427	1.339216	0.000158
1930	1.9194e+02	-1.5739	-57.789580	0.000324	3.243252	0.549422	0.000065
1931	1.9203e+02	-1.5520	-57.636168	0.000770	7.702724	1.304877	0.000154
1932	1.9213e+02	-1.5338	-57.502943	0.000669	6.689208	1.133182	0.000134
1933	1.9223e+02	-1.5125	-57.434312	0.000345	3.445955	0.583761	0.000069
1934	1.9233e+02	-1.4928	-57.293012	0.000709	7.094614	1.201860	0.000142
1935	1.9243e+02	-1.4734	-57.175935	0.000588	5.878395	0.995827	0.000118
1936	1.9253e+02	-1.4536	-57.034635	0.000709	7.094614	1.201860	0.000142
1937	1.9263e+02	-1.4337	-56.937744	0.000486	4.864878	0.824133	0.000097
1938	1.9273e+02	-1.4121	-56.800481	0.000689	6.891911	1.167521	0.000138
1939	1.9283e+02	-1.3939	-56.735887	0.000324	3.243252	0.549422	0.000065
1940	1.9293e+02	-1.3742	-56.614773	0.000608	6.081098	1.030166	0.000122
1941	1.9303e+02	-1.3540	-56.473473	0.000709	7.094614	1.201860	0.000142
1942	1.9313e+02	-1.3345	-56.344285	0.000649	6.486504	1.098844	0.000130
1943	1.9323e+02	-1.3136	-56.239319	0.000527	5.270285	0.892810	0.000105
1944	1.9333e+02	-1.2941	-56.138391	0.000507	5.067582	0.858472	0.000101
1945	1.9343e+02	-1.2736	-55.976906	0.000811	8.108131	1.373554	0.000162
1946	1.9353e+02	-1.2536	-55.892126	0.000426	4.256769	0.721116	0.000085
1947	1.9363e+02	-1.2345	-55.783123	0.000547	5.472988	0.927149	0.000110
1948	1.9373e+02	-1.2148	-55.702380	0.000405	4.054065	0.686777	0.000081
1949	1.9383e+02	-1.1957	-55.548969	0.000770	7.702724	1.304877	0.000154
1950	1.9393e+02	-1.1746	-55.411707	0.000689	6.891911	1.167521	0.000138
1951	1.9403e+02	-1.1548	-55.290593	0.000608	6.081098	1.030166	0.000122
1952	1.9412e+02	-1.1348	-55.193701	0.000486	4.864878	0.824133	0.000097
1953	1.9422e+02	-1.1148	-55.068550	0.000628	6.283801	1.064505	0.000126
1954	1.9432e+02	-1.0956	-54.935325	0.000669	6.689208	1.133182	0.000134
1955	1.9442e+02	-1.0748	-54.834396	0.000507	5.067582	0.858472	0.000101
1956	1.9452e+02	-1.0551	-54.745579	0.000446	4.459472	0.755455	0.000089
1957	1.9462e+02	-1.0361	-54.584094	0.000811	8.108131	1.373554	0.000162
1958	1.9472e+02	-1.0159	-54.479128	0.000527	5.270285	0.892810	0.000105
1959	1.9482e+02	-0.9951	-54.329754	0.000750	7.500021	1.270538	0.000150
1960	1.9492e+02	-0.9759	-54.212677	0.000588	5.878395	0.995827	0.000118
1961	1.9502e+02	-0.9557	-54.144046	0.000345	3.445955	0.583761	0.000069
1962	1.9512e+02	-0.9363	-54.002746	0.000709	7.094614	1.201860	0.000142
1963	1.9522e+02	-0.9161	-53.881632	0.000608	6.081098	1.030166	0.000122
1964	1.9532e+02	-0.8967	-53.752444	0.000649	6.486504	1.098844	0.000130
1965	1.9542e+02	-0.8758	-53.623255	0.000649	6.486504	1.098844	0.000130
1966	1.9552e+02	-0.8566	-53.526364	0.000486	4.864878	0.824133	0.000097
1967	1.9562e+02	-0.8369	-53.376990	0.000750	7.500021	1.270538	0.000150
1968	1.9572e+02	-0.8156	-53.251839	0.000628	6.283801	1.064505	0.000126
1969	1.9582e+02	-0.7959	-53.167059	0.000426	4.256769	0.721116	0.000085
1970	1.9592e+02	-0.7764	-53.017685	0.000750	7.500021	1.270538	0.000150
1971	1.9601e+02	-0.7567	-52.896571	0.000608	6.081098	1.030166	0.000122
1972	1.9611e+02	-0.7357	-52.807754	0.000446	4.459472	0.755455	0.000089
1973	1.9621e+02	-0.7166	-52.666454	0.000709	7.094614	1.201860	0.000142
1974	1.9631e+02	-0.6969	-52.569563	0.000486	4.864878	0.824133	0.000097
1975	1.9641e+02	-0.6761	-52.371743	0.000993	9.932460	1.682604	0.000199
1976	1.9651e+02	-0.6573	-52.295038	0.000385	3.851362	0.652438	0.000077
1977	1.9661e+02	-0.6364	-52.149701	0.000730	7.297317	1.236199	0.000146
1978	1.9671e+02	-0.6159	-52.044735	0.000527	5.270285	0.892810	0.000105
1979	1.9681e+02	-0.5972	-51.931696	0.000568	5.675691	0.961488	0.000114
1980	1.9691e+02	-0.5773	-51.790396	0.000709	7.094614	1.201860	0.000142
1981	1.9701e+02	-0.5584	-51.697542	0.000466	4.662175	0.789794	0.000093
1982	1.9711e+02	-0.5373	-51.592576	0.000527	5.270285	0.892810	0.000105
1983	1.9721e+02	-0.5171	-51.435128	0.000791	7.905427	1.339216	0.000158
1984	1.9731e+02	-0.4970	-51.354385	0.000405	4.054065	0.686777	0.000081
1985	1.9741e+02	-0.4777	-51.200974	0.000770	7.702724	1.304877	0.000154
1986	1.9751e+02	-0.4574	-51.083897	0.000588	5.878395	0.995827	0.000118
1987	1.9761e+02	-0.4376	-50.982969	0.000507	5.067582	0.858472	0.000101
1988	1.9771e+02	-0.4182	-50.857817	0.000628	6.283801	1.064505	0.000126
1989	1.9781e+02	-0.3977	-50.700369	0.000791	7.905427	1.339216	0.000158
1990	1.9791e+02	-0.3775	-50.595404	0.000527	5.270285	0.892810	0.000105
1991	1.9800e+02	-0.3574	-50.506587	0.000446	4.459472	0.755455	0.000089
1992	1.9810e+02	-0.3386	-50.365287	0.000709	7.094614	1.201860	0.000142
1993	1.9820e+02	-0.3185	-50.219950	0.000730	7.297317	1.236199	0.000146
1994	1.9830e+02	-0.2979	-50.143244	0.000385	3.851362	0.652438	0.000077
1995	1.9840e+02	-0.2786	-49.985796	0.000791	7.905427	1.339216	0.000158
1996	1.9850e+02	-0.2576	-49.820274	0.000831	8.310834	1.407893	0.000166
1997	1.9860e+02	-0.2377	-49.711271	0.000547	5.472988	0.927149	0.000110
1998	1.9870e+02	-0.2177	-49.614380	0.000486	4.864878	0.824133	0.000097
1999	1.9880e+02	-0.1979	-49.481154	0.000669	6.689208	1.133182	0.000134
2000	1.9890e+02	-0.1776	-49.376189	0.000527	5.270285	0.892810	0.000105
2001	1.9900e+02	-0.1585	-49.226815	0.000750	7.500021	1.270538	0.000150
2002	1.9910e+02	-0.1380	-49.085515	0.000709	7.094614	1.201860	0.000142
2003	1.9920e+02	-0.1189	-48.936141	0.000750	7.500021	1.270538	0.000150
2004	1.9930e+02	-0.0990	-48.847324	0.000446	4.459472	0.755455	0.000089
2005	1.9940e+02	-0.0791	-48.774655	0.000365	3.648659	0.618100	0.000073
2006	1.9950e+02	-0.0591	-48.592984	0.000912	9.121647	1.545249	0.000183
2007	1.9960e+02	-0.0385	-48.471870	0.000608	6.081098	1.030166	0.000122
2008	1.9970e+02	-0.0192	-48.366905	0.000527	5.270285	0.892810	0.000105
2009	1.9980e+02	-0.0005	-48.237716	0.000527	5.270285	0.892810	0.000130

PMax (uC/cm2):	5.18e+01
Pr (uC/cm2):	5.43e+00
-Pr (uC/cm2):	-8.26e+01
PLoss (uC/cm2):	-8.26e+01
-Vc:	-8.80e-01
C (Max-Eff) (nF):	5.18e-01
K (Eff):	8.77e+02
Vert. (+/-Pr) Shift (uC/cm2):	-3.86e+01
Offset (uC/cm2):	-3.43e+01

A (Loop Area - uC/cm2·Volts):	-4.37e-01



Hysteresis Version: 5.48.1 - Radiant Technologies, Inc., 1999 - 9/12/24

