»»»»»»»»»»»»»»»»»»»»»»»»»»»»»»»»»»»» Hysteresis ««««««««««««««««««««««««««««««««««««
»»»  Executed Version:	5.48.1
»»»  Vision Version:	5.48.4 (R)
»»»  Vision Compiled:	9/18/24
»»»  Driver Version:	5.47.0
»»»  Windows Version:	Windows 8 or 8.1
»»»  Processor Information:	x86 (AMD or Intel) - 32 Processors
»»»  Tester Name:	PMF21124-494 (100V)
»»»  Tester S/N:	PMF21124-494
»»»  Internal Amp Type:	100V RevK 270k
»»»  Internal Amp S/N:	iAB2-596/K     
»»»  Execution Count:	1
»»»»»»»»»»»»»»»»»»»»»»»»»»»»»»»»»»»»»»»»»»««««««««««««««««««««««««««««««««««««««««««

Stored:	7/3/2025 - 12:4:23
Configured:	07/03/25 12:01:19 PM
Executed:	07/03/25 12:03:54 PM

»»»»»»»»»»»»»»»»»»»»»»»»»»»»»»»»»»» Sample Info ««««««««««««««««««««««««««««««««««««
Sample Name:	
Lot Name:	
Wafer Name:	
Die Row/Column:	0/0
Capacitor Number:	0
Sample Area (cm2):	1.00e-04
Sample Thickness (microns):	1.50e-01

Amplifier:	Internal

»»»»»»»»»»»»»»»»»»»»»»»»»»»»»»»»»»» Tester Info «««««««««««««««««««««««««««««««««««
Tester Name:	PMF21124-494 (100V)
Tester Serial Number:	PMF21124-494
Return Signal Amp. Level:	0.19 [Index: 3]

»»»»»»»»»»»»»»»»»»»»»»»»»»»»»»»» Hysteresis Info ««««««««««««««««««««««««««««««««««
Task Name:	Hyst-410
Volts:	10.00
Field:	666.67 (kV/cm)
DCBias:	0.00
DCField:	0.00 (kV/cm)
Hysteresis Period (ms):	2.00e+02
Preset:	Enabled
Preset Delay (ms):	1.00e+03
Profile:	Standard Bipolar

»»»»»»»»»»»»»»»»»»»»»»»»»»»»»»»»»»»»»» Data «««««««««««««««««««««««««««««««««««««««
Points:	2009

Valid Data

Point	Time (ms)	Drive Voltage	Measured Polarization (uC/cm2)	Capacitance (uF)	Normalized Capacitance (uF/cm2)	Dielectric Constant	Instantaneous Current (mA)
   1	0.0000e+00	0.0009	26.923658	0.000345	3.445206	0.583634	0.000069
   2	9.9500e-02	0.0220	26.992290	0.000345	3.445206	0.583634	0.000069
   3	1.9900e-01	0.0412	27.113404	0.000608	6.079776	1.029942	0.000122
   4	2.9850e-01	0.0616	27.198183	0.000426	4.255843	0.720959	0.000085
   5	3.9800e-01	0.0815	27.323335	0.000628	6.282435	1.064273	0.000126
   6	4.9750e-01	0.1015	27.420226	0.000486	4.863821	0.823954	0.000097
   7	5.9700e-01	0.1221	27.529229	0.000547	5.471798	0.926948	0.000110
   8	6.9650e-01	0.1374	27.601897	0.000365	3.647865	0.617965	0.000073
   9	7.9600e-01	0.1607	27.727048	0.000628	6.282435	1.064273	0.000126
  10	8.9550e-01	0.1797	27.783568	0.000284	2.837229	0.480640	0.000057
  11	9.9500e-01	0.2010	27.936979	0.000770	7.701049	1.304593	0.000154
  12	1.0945e+00	0.2198	27.969276	0.000162	1.621274	0.274651	0.000032
  13	1.1940e+00	0.2406	28.074242	0.000527	5.269139	0.892616	0.000105
  14	1.2935e+00	0.2605	28.187282	0.000567	5.674457	0.961279	0.000114
  15	1.3930e+00	0.2802	28.316470	0.000649	6.485094	1.098605	0.000130
  16	1.4925e+00	0.3003	28.397213	0.000405	4.053184	0.686628	0.000081
  17	1.5920e+00	0.3197	28.514290	0.000588	5.877116	0.995610	0.000118
  18	1.6915e+00	0.3404	28.651552	0.000689	6.890412	1.167267	0.000138
  19	1.7910e+00	0.3601	28.720184	0.000345	3.445206	0.583634	0.000069
  20	1.8905e+00	0.3796	28.825149	0.000527	5.269139	0.892616	0.000105
  21	1.9900e+00	0.4000	28.942226	0.000588	5.877116	0.995610	0.000118
  22	2.0895e+00	0.4187	29.051229	0.000547	5.471798	0.926948	0.000110
  23	2.1890e+00	0.4396	29.152157	0.000507	5.066480	0.858285	0.000101
  24	2.2885e+00	0.4606	29.240974	0.000446	4.458502	0.755291	0.000089
  25	2.3880e+00	0.4798	29.337865	0.000486	4.863821	0.823954	0.000097
  26	2.4875e+00	0.5000	29.467054	0.000649	6.485094	1.098605	0.000130
  27	2.5870e+00	0.5193	29.584131	0.000588	5.877116	0.995610	0.000118
  28	2.6865e+00	0.5396	29.644688	0.000304	3.039888	0.514971	0.000061
  29	2.7860e+00	0.5595	29.790025	0.000730	7.295731	1.235930	0.000146
  30	2.8855e+00	0.5798	29.874804	0.000426	4.255843	0.720959	0.000085
  31	2.9850e+00	0.5986	29.999956	0.000628	6.282435	1.064273	0.000126
  32	3.0845e+00	0.6185	30.088773	0.000446	4.458502	0.755291	0.000089
  33	3.1840e+00	0.6392	30.221998	0.000669	6.687753	1.132936	0.000134
  34	3.2835e+00	0.6591	30.322927	0.000507	5.066480	0.858285	0.000101
  35	3.3830e+00	0.6796	30.415781	0.000466	4.661161	0.789622	0.000093
  36	3.4825e+00	0.6991	30.520746	0.000527	5.269139	0.892616	0.000105
  37	3.5820e+00	0.7188	30.645897	0.000628	6.282435	1.064273	0.000126
  38	3.6815e+00	0.7391	30.746826	0.000507	5.066480	0.858285	0.000101
  39	3.7810e+00	0.7587	30.859866	0.000567	5.674457	0.961279	0.000114
  40	3.8805e+00	0.7788	30.936571	0.000385	3.850525	0.652297	0.000077
  41	3.9800e+00	0.7983	31.065760	0.000649	6.485094	1.098605	0.000130
  42	4.0795e+00	0.8188	31.162651	0.000486	4.863821	0.823954	0.000097
  43	4.1790e+00	0.8392	31.303951	0.000709	7.093072	1.201599	0.000142
  44	4.2785e+00	0.8590	31.384693	0.000405	4.053184	0.686628	0.000081
  45	4.3780e+00	0.8791	31.497733	0.000567	5.674457	0.961279	0.000114
  46	4.4775e+00	0.8979	31.622884	0.000628	6.282435	1.064273	0.000126
  47	4.5770e+00	0.9187	31.719775	0.000486	4.863821	0.823954	0.000097
  48	4.6765e+00	0.9391	31.812630	0.000466	4.661161	0.789622	0.000093
  49	4.7760e+00	0.9583	31.974115	0.000811	8.106368	1.373256	0.000162
  50	4.8755e+00	0.9777	32.062932	0.000446	4.458502	0.755291	0.000089
  51	4.9750e+00	0.9978	32.171935	0.000547	5.471798	0.926948	0.000110
  52	5.0745e+00	1.0182	32.264789	0.000466	4.661161	0.789622	0.000093
  53	5.1740e+00	1.0381	32.369754	0.000527	5.269139	0.892616	0.000105
  54	5.2735e+00	1.0588	32.498943	0.000649	6.485094	1.098605	0.000130
  55	5.3730e+00	1.0786	32.603908	0.000527	5.269139	0.892616	0.000105
  56	5.4725e+00	1.0983	32.704837	0.000507	5.066480	0.858285	0.000101
  57	5.5720e+00	1.1181	32.854211	0.000750	7.498390	1.270262	0.000150
  58	5.6715e+00	1.1382	32.967250	0.000567	5.674457	0.961279	0.000114
  59	5.7710e+00	1.1573	33.043956	0.000385	3.850525	0.652297	0.000077
  60	5.8705e+00	1.1775	33.148922	0.000527	5.269139	0.892616	0.000105
  61	5.9700e+00	1.1979	33.270036	0.000608	6.079776	1.029942	0.000122
  62	6.0695e+00	1.2182	33.370964	0.000507	5.066480	0.858285	0.000101
  63	6.1690e+00	1.2376	33.504189	0.000669	6.687753	1.132936	0.000134
  64	6.2685e+00	1.2572	33.617229	0.000567	5.674457	0.961279	0.000114
  65	6.3680e+00	1.2762	33.722195	0.000527	5.269139	0.892616	0.000105
  66	6.4675e+00	1.2962	33.819086	0.000486	4.863821	0.823954	0.000097
  67	6.5670e+00	1.3154	33.968460	0.000750	7.498390	1.270262	0.000150
  68	6.6665e+00	1.3361	34.065351	0.000486	4.863821	0.823954	0.000097
  69	6.7660e+00	1.3564	34.202614	0.000689	6.890412	1.167267	0.000138
  70	6.8655e+00	1.3756	34.311617	0.000547	5.471798	0.926948	0.000110
  71	6.9650e+00	1.3966	34.424656	0.000567	5.674457	0.961279	0.000114
  72	7.0645e+00	1.4169	34.509436	0.000426	4.255843	0.720959	0.000085
  73	7.1640e+00	1.4364	34.650736	0.000709	7.093072	1.201599	0.000142
  74	7.2635e+00	1.4559	34.763776	0.000567	5.674457	0.961279	0.000114
  75	7.3630e+00	1.4764	34.880853	0.000588	5.877116	0.995610	0.000118
  76	7.4625e+00	1.4954	35.018115	0.000689	6.890412	1.167267	0.000138
  77	7.5620e+00	1.5150	35.123081	0.000527	5.269139	0.892616	0.000105
  78	7.6615e+00	1.5362	35.211898	0.000446	4.458502	0.755291	0.000089
  79	7.7610e+00	1.5553	35.337049	0.000628	6.282435	1.064273	0.000126
  80	7.8605e+00	1.5759	35.450089	0.000567	5.674457	0.961279	0.000114
  81	7.9600e+00	1.5959	35.587352	0.000689	6.890412	1.167267	0.000138
  82	8.0595e+00	1.6158	35.704428	0.000588	5.877116	0.995610	0.000118
  83	8.1590e+00	1.6360	35.805357	0.000507	5.066480	0.858285	0.000101
  84	8.2585e+00	1.6561	35.918397	0.000567	5.674457	0.961279	0.000114
  85	8.3580e+00	1.6759	36.027399	0.000547	5.471798	0.926948	0.000110
  86	8.4575e+00	1.6949	36.168699	0.000709	7.093072	1.201599	0.000142
  87	8.5570e+00	1.7136	36.289813	0.000608	6.079776	1.029942	0.000122
  88	8.6565e+00	1.7349	36.398816	0.000547	5.471798	0.926948	0.000110
  89	8.7560e+00	1.7547	36.507818	0.000547	5.471798	0.926948	0.000110
  90	8.8555e+00	1.7747	36.620858	0.000567	5.674457	0.961279	0.000114
  91	8.9550e+00	1.7941	36.762158	0.000709	7.093072	1.201599	0.000142
  92	9.0545e+00	1.8154	36.855012	0.000466	4.661161	0.789622	0.000093
  93	9.1540e+00	1.8346	36.972089	0.000588	5.877116	0.995610	0.000118
  94	9.2535e+00	1.8540	37.121463	0.000750	7.498390	1.270262	0.000150
  95	9.3530e+00	1.8743	37.238540	0.000588	5.877116	0.995610	0.000118
  96	9.4525e+00	1.8948	37.323320	0.000426	4.255843	0.720959	0.000085
  97	9.5520e+00	1.9103	37.460583	0.000689	6.890412	1.167267	0.000138
  98	9.6515e+00	1.9347	37.569585	0.000547	5.471798	0.926948	0.000110
  99	9.7510e+00	1.9549	37.690699	0.000608	6.079776	1.029942	0.000122
 100	9.8505e+00	1.9748	37.791628	0.000507	5.066480	0.858285	0.000101
 101	9.9500e+00	1.9946	37.936965	0.000730	7.295731	1.235930	0.000146
 102	1.0050e+01	2.0146	38.037893	0.000507	5.066480	0.858285	0.000101
 103	1.0149e+01	2.0339	38.167081	0.000649	6.485094	1.098605	0.000130
 104	1.0248e+01	2.0547	38.268010	0.000507	5.066480	0.858285	0.000101
 105	1.0348e+01	2.0739	38.409309	0.000709	7.093072	1.201599	0.000142
 106	1.0447e+01	2.0947	38.514275	0.000527	5.269139	0.892616	0.000105
 107	1.0547e+01	2.1144	38.659612	0.000730	7.295731	1.235930	0.000146
 108	1.0646e+01	2.1340	38.764577	0.000527	5.269139	0.892616	0.000105
 109	1.0746e+01	2.1535	38.841283	0.000385	3.850525	0.652297	0.000077
 110	1.0845e+01	2.1739	38.966434	0.000628	6.282435	1.064273	0.000126
 111	1.0945e+01	2.1941	39.095622	0.000649	6.485094	1.098605	0.000130
 112	1.1044e+01	2.2137	39.208662	0.000567	5.674457	0.961279	0.000114
 113	1.1144e+01	2.2341	39.337851	0.000649	6.485094	1.098605	0.000130
 114	1.1243e+01	2.2527	39.458965	0.000608	6.079776	1.029942	0.000122
 115	1.1343e+01	2.2735	39.572005	0.000567	5.674457	0.961279	0.000114
 116	1.1443e+01	2.2933	39.713304	0.000709	7.093072	1.201599	0.000142
 117	1.1542e+01	2.3129	39.818270	0.000527	5.269139	0.892616	0.000105
 118	1.1642e+01	2.3335	39.939384	0.000608	6.079776	1.029942	0.000122
 119	1.1741e+01	2.3540	40.040312	0.000507	5.066480	0.858285	0.000101
 120	1.1841e+01	2.3733	40.104906	0.000324	3.242547	0.549302	0.000065
 121	1.1940e+01	2.3922	40.262355	0.000790	7.903708	1.338924	0.000158
 122	1.2040e+01	2.4126	40.363283	0.000507	5.066480	0.858285	0.000101
 123	1.2139e+01	2.4334	40.452100	0.000446	4.458502	0.755291	0.000089
 124	1.2239e+01	2.4517	40.633771	0.000912	9.119664	1.544913	0.000183
 125	1.2338e+01	2.4725	40.750848	0.000588	5.877116	0.995610	0.000118
 126	1.2438e+01	2.4929	40.843702	0.000466	4.661161	0.789622	0.000093
 127	1.2537e+01	2.5126	40.964816	0.000608	6.079776	1.029942	0.000122
 128	1.2636e+01	2.5323	41.053633	0.000446	4.458502	0.755291	0.000089
 129	1.2736e+01	2.5527	41.178785	0.000628	6.282435	1.064273	0.000126
 130	1.2835e+01	2.5704	41.303936	0.000628	6.282435	1.064273	0.000126
 131	1.2935e+01	2.5920	41.445235	0.000709	7.093072	1.201599	0.000142
 132	1.3034e+01	2.6119	41.562312	0.000588	5.877116	0.995610	0.000118
 133	1.3134e+01	2.6324	41.643055	0.000405	4.053184	0.686628	0.000081
 134	1.3233e+01	2.6519	41.768206	0.000628	6.282435	1.064273	0.000126
 135	1.3333e+01	2.6720	41.897395	0.000649	6.485094	1.098605	0.000130
 136	1.3432e+01	2.6922	42.006397	0.000547	5.471798	0.926948	0.000110
 137	1.3532e+01	2.7119	42.147697	0.000709	7.093072	1.201599	0.000142
 138	1.3632e+01	2.7325	42.232477	0.000426	4.255843	0.720959	0.000085
 139	1.3731e+01	2.7514	42.357628	0.000628	6.282435	1.064273	0.000126
 140	1.3831e+01	2.7718	42.462594	0.000527	5.269139	0.892616	0.000105
 141	1.3930e+01	2.7921	42.555448	0.000466	4.661161	0.789622	0.000093
 142	1.4030e+01	2.8127	42.708859	0.000770	7.701049	1.304593	0.000154
 143	1.4129e+01	2.8304	42.801713	0.000466	4.661161	0.789622	0.000093
 144	1.4229e+01	2.8515	42.922827	0.000608	6.079776	1.029942	0.000122
 145	1.4328e+01	2.8713	43.027793	0.000527	5.269139	0.892616	0.000105
 146	1.4428e+01	2.8917	43.148907	0.000608	6.079776	1.029942	0.000122
 147	1.4527e+01	2.9112	43.265984	0.000588	5.877116	0.995610	0.000118
 148	1.4627e+01	2.9308	43.387098	0.000608	6.079776	1.029942	0.000122
 149	1.4726e+01	2.9503	43.475915	0.000446	4.458502	0.755291	0.000089
 150	1.4825e+01	2.9707	43.560695	0.000426	4.255843	0.720959	0.000085
 151	1.4925e+01	2.9900	43.718143	0.000790	7.903708	1.338924	0.000158
 152	1.5024e+01	3.0105	43.806960	0.000446	4.458502	0.755291	0.000089
 153	1.5124e+01	3.0297	43.956334	0.000750	7.498390	1.270262	0.000150
 154	1.5223e+01	3.0514	44.045151	0.000446	4.458502	0.755291	0.000089
 155	1.5323e+01	3.0703	44.138005	0.000466	4.661161	0.789622	0.000093
 156	1.5422e+01	3.0911	44.230859	0.000466	4.661161	0.789622	0.000093
 157	1.5522e+01	3.1103	44.388307	0.000790	7.903708	1.338924	0.000158
 158	1.5621e+01	3.1306	44.505384	0.000588	5.877116	0.995610	0.000118
 159	1.5721e+01	3.1509	44.578053	0.000365	3.647865	0.617965	0.000073
 160	1.5820e+01	3.1704	44.683018	0.000527	5.269139	0.892616	0.000105
 161	1.5920e+01	3.1890	44.824318	0.000709	7.093072	1.201599	0.000142
 162	1.6020e+01	3.2107	44.892949	0.000345	3.445206	0.583634	0.000069
 163	1.6119e+01	3.2299	45.005989	0.000567	5.674457	0.961279	0.000114
 164	1.6218e+01	3.2503	45.139215	0.000669	6.687753	1.132936	0.000134
 165	1.6318e+01	3.2700	45.236106	0.000486	4.863821	0.823954	0.000097
 166	1.6418e+01	3.2903	45.349146	0.000567	5.674457	0.961279	0.000114
 167	1.6517e+01	3.3098	45.421814	0.000365	3.647865	0.617965	0.000073
 168	1.6616e+01	3.3311	45.567151	0.000730	7.295731	1.235930	0.000146
 169	1.6716e+01	3.3498	45.684228	0.000588	5.877116	0.995610	0.000118
 170	1.6816e+01	3.3703	45.777082	0.000466	4.661161	0.789622	0.000093
 171	1.6915e+01	3.3892	45.902233	0.000628	6.282435	1.064273	0.000126
 172	1.7015e+01	3.4106	45.974902	0.000365	3.647865	0.617965	0.000073
 173	1.7114e+01	3.4289	46.128313	0.000770	7.701049	1.304593	0.000154
 174	1.7213e+01	3.4496	46.229241	0.000507	5.066480	0.858285	0.000101
 175	1.7313e+01	3.4692	46.350355	0.000608	6.079776	1.029942	0.000122
 176	1.7413e+01	3.4886	46.423024	0.000365	3.647865	0.617965	0.000073
 177	1.7512e+01	3.5098	46.548175	0.000628	6.282435	1.064273	0.000126
 178	1.7611e+01	3.5287	46.649103	0.000507	5.066480	0.858285	0.000101
 179	1.7711e+01	3.5491	46.741958	0.000466	4.661161	0.789622	0.000093
 180	1.7811e+01	3.5680	46.842886	0.000507	5.066480	0.858285	0.000101
 181	1.7910e+01	3.5881	46.947851	0.000527	5.269139	0.892616	0.000105
 182	1.8009e+01	3.6097	47.064928	0.000588	5.877116	0.995610	0.000118
 183	1.8109e+01	3.6285	47.117411	0.000263	2.634569	0.446308	0.000053
 184	1.8209e+01	3.6492	47.262748	0.000730	7.295731	1.235930	0.000146
 185	1.8308e+01	3.6691	47.367714	0.000527	5.269139	0.892616	0.000105
 186	1.8407e+01	3.6886	47.440382	0.000365	3.647865	0.617965	0.000073
 187	1.8507e+01	3.7081	47.557459	0.000588	5.877116	0.995610	0.000118
 188	1.8607e+01	3.7286	47.678573	0.000608	6.079776	1.029942	0.000122
 189	1.8706e+01	3.7481	47.763353	0.000426	4.255843	0.720959	0.000085
 190	1.8805e+01	3.7682	47.876393	0.000567	5.674457	0.961279	0.000114
 191	1.8905e+01	3.7884	47.985395	0.000547	5.471798	0.926948	0.000110
 192	1.9005e+01	3.8070	48.106509	0.000608	6.079776	1.029942	0.000122
 193	1.9104e+01	3.8280	48.223586	0.000588	5.877116	0.995610	0.000118
 194	1.9203e+01	3.8479	48.308366	0.000426	4.255843	0.720959	0.000085
 195	1.9303e+01	3.8677	48.401220	0.000466	4.661161	0.789622	0.000093
 196	1.9402e+01	3.8877	48.510223	0.000547	5.471798	0.926948	0.000110
 197	1.9502e+01	3.9094	48.599040	0.000446	4.458502	0.755291	0.000089
 198	1.9602e+01	3.9288	48.704006	0.000527	5.269139	0.892616	0.000105
 199	1.9701e+01	3.9480	48.849342	0.000730	7.295731	1.235930	0.000146
 200	1.9800e+01	3.9672	48.974494	0.000628	6.282435	1.064273	0.000126
 201	1.9900e+01	3.9870	49.071385	0.000486	4.863821	0.823954	0.000097
 202	2.0000e+01	4.0063	49.123868	0.000263	2.634569	0.446308	0.000053
 203	2.0099e+01	4.0273	49.273242	0.000750	7.498390	1.270262	0.000150
 204	2.0198e+01	4.0477	49.329762	0.000284	2.837229	0.480640	0.000057
 205	2.0298e+01	4.0673	49.442801	0.000567	5.674457	0.961279	0.000114
 206	2.0398e+01	4.0878	49.559878	0.000588	5.877116	0.995610	0.000118
 207	2.0497e+01	4.1068	49.672918	0.000567	5.674457	0.961279	0.000114
 208	2.0596e+01	4.1277	49.761735	0.000446	4.458502	0.755291	0.000089
 209	2.0696e+01	4.1479	49.842478	0.000405	4.053184	0.686628	0.000081
 210	2.0796e+01	4.1673	49.987815	0.000730	7.295731	1.235930	0.000146
 211	2.0895e+01	4.1860	50.044335	0.000284	2.837229	0.480640	0.000057
 212	2.0994e+01	4.2068	50.133152	0.000446	4.458502	0.755291	0.000089
 213	2.1094e+01	4.2275	50.238117	0.000527	5.269139	0.892616	0.000105
 214	2.1194e+01	4.2467	50.363268	0.000628	6.282435	1.064273	0.000126
 215	2.1293e+01	4.2669	50.476308	0.000567	5.674457	0.961279	0.000114
 216	2.1392e+01	4.2867	50.544939	0.000345	3.445206	0.583634	0.000069
 217	2.1492e+01	4.3060	50.666054	0.000608	6.079776	1.029942	0.000122
 218	2.1591e+01	4.3267	50.750833	0.000426	4.255843	0.720959	0.000085
 219	2.1691e+01	4.3465	50.851762	0.000507	5.066480	0.858285	0.000101
 220	2.1791e+01	4.3664	50.968839	0.000588	5.877116	0.995610	0.000118
 221	2.1890e+01	4.3868	51.057656	0.000446	4.458502	0.755291	0.000089
 222	2.1989e+01	4.4067	51.174733	0.000588	5.877116	0.995610	0.000118
 223	2.2089e+01	4.4267	51.243364	0.000345	3.445206	0.583634	0.000069
 224	2.2189e+01	4.4463	51.364478	0.000608	6.079776	1.029942	0.000122
 225	2.2288e+01	4.4650	51.457332	0.000466	4.661161	0.789622	0.000093
 226	2.2387e+01	4.4860	51.622855	0.000831	8.309027	1.407587	0.000166
 227	2.2487e+01	4.5061	51.667263	0.000223	2.229251	0.377645	0.000045
 228	2.2587e+01	4.5257	51.780303	0.000567	5.674457	0.961279	0.000114
 229	2.2686e+01	4.5457	51.893343	0.000567	5.674457	0.961279	0.000114
 230	2.2785e+01	4.5654	51.990234	0.000486	4.863821	0.823954	0.000097
 231	2.2885e+01	4.5849	52.091162	0.000507	5.066480	0.858285	0.000101
 232	2.2985e+01	4.6053	52.208239	0.000588	5.877116	0.995610	0.000118
 233	2.3084e+01	4.6258	52.325316	0.000588	5.877116	0.995610	0.000118
 234	2.3183e+01	4.6447	52.397985	0.000365	3.647865	0.617965	0.000073
 235	2.3283e+01	4.6645	52.478727	0.000405	4.053184	0.686628	0.000081
 236	2.3383e+01	4.6850	52.599842	0.000608	6.079776	1.029942	0.000122
 237	2.3482e+01	4.7057	52.696733	0.000486	4.863821	0.823954	0.000097
 238	2.3581e+01	4.7247	52.805735	0.000547	5.471798	0.926948	0.000110
 239	2.3681e+01	4.7453	52.902627	0.000486	4.863821	0.823954	0.000097
 240	2.3780e+01	4.7637	53.019704	0.000588	5.877116	0.995610	0.000118
 241	2.3880e+01	4.7845	53.148892	0.000649	6.485094	1.098605	0.000130
 242	2.3980e+01	4.8052	53.237709	0.000446	4.458502	0.755291	0.000089
 243	2.4079e+01	4.8244	53.322489	0.000426	4.255843	0.720959	0.000085
 244	2.4178e+01	4.8452	53.411306	0.000446	4.458502	0.755291	0.000089
 245	2.4278e+01	4.8644	53.524346	0.000567	5.674457	0.961279	0.000114
 246	2.4378e+01	4.8846	53.637385	0.000567	5.674457	0.961279	0.000114
 247	2.4477e+01	4.9044	53.718128	0.000405	4.053184	0.686628	0.000081
 248	2.4576e+01	4.9249	53.835205	0.000588	5.877116	0.995610	0.000118
 249	2.4676e+01	4.9444	53.948245	0.000567	5.674457	0.961279	0.000114
 250	2.4776e+01	4.9642	54.045136	0.000486	4.863821	0.823954	0.000097
 251	2.4875e+01	4.9837	54.133953	0.000446	4.458502	0.755291	0.000089
 252	2.4974e+01	5.0042	54.238919	0.000527	5.269139	0.892616	0.000105
 253	2.5074e+01	5.0243	54.315624	0.000385	3.850525	0.652297	0.000077
 254	2.5174e+01	5.0433	54.440775	0.000628	6.282435	1.064273	0.000126
 255	2.5273e+01	5.0639	54.521518	0.000405	4.053184	0.686628	0.000081
 256	2.5372e+01	5.0829	54.634558	0.000567	5.674457	0.961279	0.000114
 257	2.5472e+01	5.1043	54.747598	0.000567	5.674457	0.961279	0.000114
 258	2.5572e+01	5.1235	54.832378	0.000426	4.255843	0.720959	0.000085
 259	2.5671e+01	5.1431	54.929269	0.000486	4.863821	0.823954	0.000097
 260	2.5770e+01	5.1633	55.026160	0.000486	4.863821	0.823954	0.000097
 261	2.5870e+01	5.1829	55.147274	0.000608	6.079776	1.029942	0.000122
 262	2.5970e+01	5.2029	55.240128	0.000466	4.661161	0.789622	0.000093
 263	2.6069e+01	5.2227	55.337020	0.000486	4.863821	0.823954	0.000097
 264	2.6169e+01	5.2434	55.450059	0.000567	5.674457	0.961279	0.000114
 265	2.6268e+01	5.2630	55.534839	0.000426	4.255843	0.720959	0.000085
 266	2.6367e+01	5.2807	55.676139	0.000709	7.093072	1.201599	0.000142
 267	2.6467e+01	5.3014	55.752845	0.000385	3.850525	0.652297	0.000077
 268	2.6567e+01	5.3222	55.849736	0.000486	4.863821	0.823954	0.000097
 269	2.6666e+01	5.3432	55.958738	0.000547	5.471798	0.926948	0.000110
 270	2.6765e+01	5.3631	56.043518	0.000426	4.255843	0.720959	0.000085
 271	2.6865e+01	5.3819	56.184818	0.000709	7.093072	1.201599	0.000142
 272	2.6965e+01	5.4018	56.261524	0.000385	3.850525	0.652297	0.000077
 273	2.7064e+01	5.4223	56.314006	0.000263	2.634569	0.446308	0.000053
 274	2.7163e+01	5.4412	56.467418	0.000770	7.701049	1.304593	0.000154
 275	2.7263e+01	5.4620	56.596606	0.000649	6.485094	1.098605	0.000130
 276	2.7363e+01	5.4821	56.653126	0.000284	2.837229	0.480640	0.000057
 277	2.7462e+01	5.5029	56.745980	0.000466	4.661161	0.789622	0.000093
 278	2.7561e+01	5.5218	56.842871	0.000486	4.863821	0.823954	0.000097
 279	2.7661e+01	5.5424	56.931688	0.000446	4.458502	0.755291	0.000089
 280	2.7761e+01	5.5618	57.044728	0.000567	5.674457	0.961279	0.000114
 281	2.7860e+01	5.5822	57.149694	0.000527	5.269139	0.892616	0.000105
 282	2.7959e+01	5.6017	57.254659	0.000527	5.269139	0.892616	0.000105
 283	2.8059e+01	5.6224	57.335402	0.000405	4.053184	0.686628	0.000081
 284	2.8159e+01	5.6420	57.444404	0.000547	5.471798	0.926948	0.000110
 285	2.8258e+01	5.6617	57.504961	0.000304	3.039888	0.514971	0.000061
 286	2.8358e+01	5.6811	57.618001	0.000567	5.674457	0.961279	0.000114
 287	2.8457e+01	5.7009	57.702781	0.000426	4.255843	0.720959	0.000085
 288	2.8556e+01	5.7201	57.803709	0.000507	5.066480	0.858285	0.000101
 289	2.8656e+01	5.7415	57.920786	0.000588	5.877116	0.995610	0.000118
 290	2.8756e+01	5.7610	58.013641	0.000466	4.661161	0.789622	0.000093
 291	2.8855e+01	5.7812	58.106495	0.000466	4.661161	0.789622	0.000093
 292	2.8954e+01	5.8019	58.219534	0.000567	5.674457	0.961279	0.000114
 293	2.9054e+01	5.8215	58.280092	0.000304	3.039888	0.514971	0.000061
 294	2.9154e+01	5.8416	58.376983	0.000486	4.863821	0.823954	0.000097
 295	2.9253e+01	5.8617	58.469837	0.000466	4.661161	0.789622	0.000093
 296	2.9352e+01	5.8805	58.603062	0.000669	6.687753	1.132936	0.000134
 297	2.9452e+01	5.9005	58.683805	0.000405	4.053184	0.686628	0.000081
 298	2.9552e+01	5.9209	58.808956	0.000628	6.282435	1.064273	0.000126
 299	2.9651e+01	5.9405	58.889699	0.000405	4.053184	0.686628	0.000081
 300	2.9750e+01	5.9600	58.962367	0.000365	3.647865	0.617965	0.000073
 301	2.9850e+01	5.9805	59.059259	0.000486	4.863821	0.823954	0.000097
 302	2.9950e+01	6.0009	59.192484	0.000669	6.687753	1.132936	0.000134
 303	3.0049e+01	6.0198	59.273227	0.000405	4.053184	0.686628	0.000081
 304	3.0148e+01	6.0400	59.349932	0.000385	3.850525	0.652297	0.000077
 305	3.0248e+01	6.0607	59.467009	0.000588	5.877116	0.995610	0.000118
 306	3.0348e+01	6.0806	59.559864	0.000466	4.661161	0.789622	0.000093
 307	3.0447e+01	6.0998	59.636569	0.000385	3.850525	0.652297	0.000077
 308	3.0547e+01	6.1193	59.733460	0.000486	4.863821	0.823954	0.000097
 309	3.0646e+01	6.1404	59.862649	0.000649	6.485094	1.098605	0.000130
 310	3.0745e+01	6.1593	59.911094	0.000243	2.431910	0.411977	0.000049
 311	3.0845e+01	6.1802	60.024134	0.000567	5.674457	0.961279	0.000114
 312	3.0945e+01	6.2008	60.092765	0.000345	3.445206	0.583634	0.000069
 313	3.1044e+01	6.2200	60.193694	0.000507	5.066480	0.858285	0.000101
 314	3.1143e+01	6.2395	60.310771	0.000588	5.877116	0.995610	0.000118
 315	3.1243e+01	6.2594	60.391514	0.000405	4.053184	0.686628	0.000081
 316	3.1343e+01	6.2792	60.472256	0.000405	4.053184	0.686628	0.000081
 317	3.1442e+01	6.2994	60.557036	0.000426	4.255843	0.720959	0.000085
 318	3.1541e+01	6.3186	60.686224	0.000649	6.485094	1.098605	0.000130
 319	3.1641e+01	6.3390	60.787153	0.000507	5.066480	0.858285	0.000101
 320	3.1741e+01	6.3586	60.875970	0.000446	4.458502	0.755291	0.000089
 321	3.1840e+01	6.3781	60.940564	0.000324	3.242547	0.549302	0.000065
 322	3.1939e+01	6.3982	61.025344	0.000426	4.255843	0.720959	0.000085
 323	3.2039e+01	6.4184	61.126272	0.000507	5.066480	0.858285	0.000101
 324	3.2139e+01	6.4385	61.215089	0.000446	4.458502	0.755291	0.000089
 325	3.2238e+01	6.4590	61.283721	0.000345	3.445206	0.583634	0.000069
 326	3.2337e+01	6.4788	61.388686	0.000527	5.269139	0.892616	0.000105
 327	3.2437e+01	6.4977	61.461354	0.000365	3.647865	0.617965	0.000073
 328	3.2536e+01	6.5179	61.554209	0.000466	4.661161	0.789622	0.000093
 329	3.2636e+01	6.5374	61.667248	0.000567	5.674457	0.961279	0.000114
 330	3.2736e+01	6.5575	61.756065	0.000446	4.458502	0.755291	0.000089
 331	3.2835e+01	6.5771	61.836808	0.000405	4.053184	0.686628	0.000081
 332	3.2934e+01	6.5978	61.917551	0.000405	4.053184	0.686628	0.000081
 333	3.3034e+01	6.6180	62.026553	0.000547	5.471798	0.926948	0.000110
 334	3.3133e+01	6.6392	62.062888	0.000182	1.823933	0.308983	0.000037
 335	3.3233e+01	6.6570	62.167853	0.000527	5.269139	0.892616	0.000105
 336	3.3333e+01	6.6778	62.272819	0.000527	5.269139	0.892616	0.000105
 337	3.3432e+01	6.6970	62.361636	0.000446	4.458502	0.755291	0.000089
 338	3.3532e+01	6.7185	62.466601	0.000527	5.269139	0.892616	0.000105
 339	3.3631e+01	6.7382	62.527158	0.000304	3.039888	0.514971	0.000061
 340	3.3730e+01	6.7577	62.607901	0.000405	4.053184	0.686628	0.000081
 341	3.3830e+01	6.7771	62.724978	0.000588	5.877116	0.995610	0.000118
 342	3.3929e+01	6.7968	62.789572	0.000324	3.242547	0.549302	0.000065
 343	3.4029e+01	6.8174	62.930872	0.000709	7.093072	1.201599	0.000142
 344	3.4129e+01	6.8359	62.971243	0.000203	2.026592	0.343314	0.000041
 345	3.4228e+01	6.8581	63.060060	0.000446	4.458502	0.755291	0.000089
 346	3.4328e+01	6.8774	63.156951	0.000486	4.863821	0.823954	0.000097
 347	3.4427e+01	6.8969	63.245768	0.000446	4.458502	0.755291	0.000089
 348	3.4526e+01	6.9170	63.278066	0.000162	1.621274	0.274651	0.000032
 349	3.4626e+01	6.9366	63.419365	0.000709	7.093072	1.201599	0.000142
 350	3.4725e+01	6.9561	63.483959	0.000324	3.242547	0.549302	0.000065
 351	3.4825e+01	6.9762	63.588925	0.000527	5.269139	0.892616	0.000105
 352	3.4925e+01	6.9970	63.665631	0.000385	3.850525	0.652297	0.000077
 353	3.5024e+01	7.0159	63.730225	0.000324	3.242547	0.549302	0.000065
 354	3.5123e+01	7.0354	63.794819	0.000324	3.242547	0.549302	0.000065
 355	3.5223e+01	7.0556	63.891710	0.000486	4.863821	0.823954	0.000097
 356	3.5322e+01	7.0762	64.008787	0.000588	5.877116	0.995610	0.000118
 357	3.5422e+01	7.0965	64.105678	0.000486	4.863821	0.823954	0.000097
 358	3.5522e+01	7.1160	64.146050	0.000203	2.026592	0.343314	0.000041
 359	3.5621e+01	7.1355	64.234867	0.000446	4.458502	0.755291	0.000089
 360	3.5721e+01	7.1563	64.347907	0.000567	5.674457	0.961279	0.000114
 361	3.5820e+01	7.1763	64.440761	0.000466	4.661161	0.789622	0.000093
 362	3.5919e+01	7.1957	64.497281	0.000284	2.837229	0.480640	0.000057
 363	3.6019e+01	7.2161	64.578023	0.000405	4.053184	0.686628	0.000081
 364	3.6118e+01	7.2356	64.678952	0.000507	5.066480	0.858285	0.000101
 365	3.6218e+01	7.2552	64.747583	0.000345	3.445206	0.583634	0.000069
 366	3.6318e+01	7.2747	64.856586	0.000547	5.471798	0.926948	0.000110
 367	3.6417e+01	7.2961	64.945403	0.000446	4.458502	0.755291	0.000089
 368	3.6517e+01	7.3144	65.005960	0.000304	3.039888	0.514971	0.000061
 369	3.6616e+01	7.3357	65.110925	0.000527	5.269139	0.892616	0.000105
 370	3.6715e+01	7.3547	65.187631	0.000385	3.850525	0.652297	0.000077
 371	3.6815e+01	7.3748	65.244151	0.000284	2.837229	0.480640	0.000057
 372	3.6914e+01	7.3949	65.337005	0.000466	4.661161	0.789622	0.000093
 373	3.7014e+01	7.4157	65.429859	0.000466	4.661161	0.789622	0.000093
 374	3.7114e+01	7.4346	65.482342	0.000263	2.634569	0.446308	0.000053
 375	3.7213e+01	7.4548	65.591344	0.000547	5.471798	0.926948	0.000110
 376	3.7313e+01	7.4749	65.664013	0.000365	3.647865	0.617965	0.000073
 377	3.7412e+01	7.4953	65.764941	0.000507	5.066480	0.858285	0.000101
 378	3.7511e+01	7.5140	65.829535	0.000324	3.242547	0.549302	0.000065
 379	3.7611e+01	7.5344	65.906241	0.000385	3.850525	0.652297	0.000077
 380	3.7711e+01	7.5549	65.978909	0.000365	3.647865	0.617965	0.000073
 381	3.7810e+01	7.5732	66.063689	0.000426	4.255843	0.720959	0.000085
 382	3.7910e+01	7.5933	66.184803	0.000608	6.079776	1.029942	0.000122
 383	3.8009e+01	7.6141	66.273620	0.000446	4.458502	0.755291	0.000089
 384	3.8108e+01	7.6345	66.313992	0.000203	2.026592	0.343314	0.000041
 385	3.8208e+01	7.6543	66.386660	0.000365	3.647865	0.617965	0.000073
 386	3.8307e+01	7.6737	66.515848	0.000649	6.485094	1.098605	0.000130
 387	3.8407e+01	7.6934	66.608703	0.000466	4.661161	0.789622	0.000093
 388	3.8507e+01	7.7132	66.673297	0.000324	3.242547	0.549302	0.000065
 389	3.8606e+01	7.7337	66.790374	0.000588	5.877116	0.995610	0.000118
 390	3.8706e+01	7.7529	66.814596	0.000122	1.215955	0.205988	0.000024
 391	3.8805e+01	7.7740	66.923599	0.000547	5.471798	0.926948	0.000110
 392	3.8904e+01	7.7935	67.020490	0.000486	4.863821	0.823954	0.000097
 393	3.9004e+01	7.8130	67.097196	0.000385	3.850525	0.652297	0.000077
 394	3.9103e+01	7.8332	67.165827	0.000345	3.445206	0.583634	0.000069
 395	3.9203e+01	7.8527	67.246570	0.000405	4.053184	0.686628	0.000081
 396	3.9303e+01	7.8735	67.367684	0.000608	6.079776	1.029942	0.000122
 397	3.9402e+01	7.8930	67.416130	0.000243	2.431910	0.411977	0.000049
 398	3.9502e+01	7.9122	67.464575	0.000243	2.431910	0.411977	0.000049
 399	3.9601e+01	7.9333	67.565504	0.000507	5.066480	0.858285	0.000101
 400	3.9700e+01	7.9516	67.702766	0.000689	6.890412	1.167267	0.000138
 401	3.9800e+01	7.9723	67.755249	0.000263	2.634569	0.446308	0.000053
 402	3.9900e+01	7.9925	67.844066	0.000446	4.458502	0.755291	0.000089
 403	3.9999e+01	8.0120	67.932883	0.000446	4.458502	0.755291	0.000089
 404	4.0099e+01	8.0322	68.009589	0.000385	3.850525	0.652297	0.000077
 405	4.0198e+01	8.0520	68.114554	0.000527	5.269139	0.892616	0.000105
 406	4.0297e+01	8.0724	68.195297	0.000405	4.053184	0.686628	0.000081
 407	4.0397e+01	8.0926	68.276040	0.000405	4.053184	0.686628	0.000081
 408	4.0496e+01	8.1127	68.340634	0.000324	3.242547	0.549302	0.000065
 409	4.0596e+01	8.1329	68.433488	0.000466	4.661161	0.789622	0.000093
 410	4.0696e+01	8.1524	68.514231	0.000405	4.053184	0.686628	0.000081
 411	4.0795e+01	8.1718	68.586899	0.000365	3.647865	0.617965	0.000073
 412	4.0895e+01	8.1915	68.675716	0.000446	4.458502	0.755291	0.000089
 413	4.0994e+01	8.2128	68.776644	0.000507	5.066480	0.858285	0.000101
 414	4.1093e+01	8.2314	68.869499	0.000466	4.661161	0.789622	0.000093
 415	4.1193e+01	8.2525	68.934093	0.000324	3.242547	0.549302	0.000065
 416	4.1292e+01	8.2714	69.026947	0.000466	4.661161	0.789622	0.000093
 417	4.1392e+01	8.2922	69.103652	0.000385	3.850525	0.652297	0.000077
 418	4.1492e+01	8.3117	69.180358	0.000385	3.850525	0.652297	0.000077
 419	4.1591e+01	8.3318	69.248989	0.000345	3.445206	0.583634	0.000069
 420	4.1691e+01	8.3508	69.345881	0.000486	4.863821	0.823954	0.000097
 421	4.1790e+01	8.3709	69.414512	0.000345	3.445206	0.583634	0.000069
 422	4.1889e+01	8.3904	69.519477	0.000527	5.269139	0.892616	0.000105
 423	4.1989e+01	8.4112	69.555812	0.000182	1.823933	0.308983	0.000037
 424	4.2089e+01	8.4307	69.640591	0.000426	4.255843	0.720959	0.000085
 425	4.2188e+01	8.4515	69.802077	0.000811	8.106368	1.373256	0.000162
 426	4.2288e+01	8.4719	69.834374	0.000162	1.621274	0.274651	0.000032
 427	4.2387e+01	8.4905	69.919154	0.000426	4.255843	0.720959	0.000085
 428	4.2486e+01	8.5107	69.975674	0.000284	2.837229	0.480640	0.000057
 429	4.2586e+01	8.5299	70.088714	0.000567	5.674457	0.961279	0.000114
 430	4.2685e+01	8.5509	70.181568	0.000466	4.661161	0.789622	0.000093
 431	4.2785e+01	8.5699	70.238088	0.000284	2.837229	0.480640	0.000057
 432	4.2885e+01	8.5900	70.339016	0.000507	5.066480	0.858285	0.000101
 433	4.2984e+01	8.6102	70.435907	0.000486	4.863821	0.823954	0.000097
 434	4.3084e+01	8.6309	70.524724	0.000446	4.458502	0.755291	0.000089
 435	4.3183e+01	8.6504	70.617578	0.000466	4.661161	0.789622	0.000093
 436	4.3282e+01	8.6694	70.670061	0.000263	2.634569	0.446308	0.000053
 437	4.3382e+01	8.6904	70.762915	0.000466	4.661161	0.789622	0.000093
 438	4.3481e+01	8.7096	70.859806	0.000486	4.863821	0.823954	0.000097
 439	4.3581e+01	8.7304	70.956698	0.000486	4.863821	0.823954	0.000097
 440	4.3681e+01	8.7493	71.001106	0.000223	2.229251	0.377645	0.000045
 441	4.3780e+01	8.7710	71.073775	0.000365	3.647865	0.617965	0.000073
 442	4.3880e+01	8.7890	71.182777	0.000547	5.471798	0.926948	0.000110
 443	4.3979e+01	8.8103	71.251409	0.000345	3.445206	0.583634	0.000069
 444	4.4078e+01	8.8290	71.344263	0.000466	4.661161	0.789622	0.000093
 445	4.4178e+01	8.8488	71.429043	0.000426	4.255843	0.720959	0.000085
 446	4.4278e+01	8.8696	71.525934	0.000486	4.863821	0.823954	0.000097
 447	4.4377e+01	8.8891	71.610714	0.000426	4.255843	0.720959	0.000085
 448	4.4477e+01	8.9086	71.675308	0.000324	3.242547	0.549302	0.000065
 449	4.4576e+01	8.9294	71.764125	0.000446	4.458502	0.755291	0.000089
 450	4.4675e+01	8.9483	71.832756	0.000345	3.445206	0.583634	0.000069
 451	4.4775e+01	8.9684	71.909462	0.000385	3.850525	0.652297	0.000077
 452	4.4874e+01	8.9886	72.018464	0.000547	5.471798	0.926948	0.000110
 453	4.4974e+01	9.0087	72.079021	0.000304	3.039888	0.514971	0.000061
 454	4.5074e+01	9.0276	72.147653	0.000345	3.445206	0.583634	0.000069
 455	4.5173e+01	9.0490	72.216284	0.000345	3.445206	0.583634	0.000069
 456	4.5273e+01	9.0679	72.297027	0.000405	4.053184	0.686628	0.000081
 457	4.5372e+01	9.0868	72.401992	0.000527	5.269139	0.892616	0.000105
 458	4.5471e+01	9.1088	72.462549	0.000304	3.039888	0.514971	0.000061
 459	4.5571e+01	9.1271	72.535218	0.000365	3.647865	0.617965	0.000073
 460	4.5670e+01	9.1473	72.619998	0.000426	4.255843	0.720959	0.000085
 461	4.5770e+01	9.1680	72.704778	0.000426	4.255843	0.720959	0.000085
 462	4.5870e+01	9.1875	72.797632	0.000466	4.661161	0.789622	0.000093
 463	4.5969e+01	9.2071	72.874337	0.000385	3.850525	0.652297	0.000077
 464	4.6069e+01	9.2278	72.963154	0.000446	4.458502	0.755291	0.000089
 465	4.6168e+01	9.2467	73.019674	0.000284	2.837229	0.480640	0.000057
 466	4.6267e+01	9.2663	73.116565	0.000486	4.863821	0.823954	0.000097
 467	4.6367e+01	9.2870	73.205382	0.000446	4.458502	0.755291	0.000089
 468	4.6467e+01	9.3060	73.286125	0.000405	4.053184	0.686628	0.000081
 469	4.6566e+01	9.3261	73.378979	0.000466	4.661161	0.789622	0.000093
 470	4.6666e+01	9.3462	73.427425	0.000243	2.431910	0.411977	0.000049
 471	4.6765e+01	9.3676	73.540465	0.000567	5.674457	0.961279	0.000114
 472	4.6864e+01	9.3871	73.617170	0.000385	3.850525	0.652297	0.000077
 473	4.6964e+01	9.4073	73.681764	0.000324	3.242547	0.549302	0.000065
 474	4.7063e+01	9.4262	73.774618	0.000466	4.661161	0.789622	0.000093
 475	4.7163e+01	9.4488	73.839213	0.000324	3.242547	0.549302	0.000065
 476	4.7263e+01	9.4668	73.948215	0.000547	5.471798	0.926948	0.000110
 477	4.7362e+01	9.4860	74.020884	0.000365	3.647865	0.617965	0.000073
 478	4.7462e+01	9.5061	74.085478	0.000324	3.242547	0.549302	0.000065
 479	4.7561e+01	9.5263	74.170258	0.000426	4.255843	0.720959	0.000085
 480	4.7660e+01	9.5452	74.214666	0.000223	2.229251	0.377645	0.000045
 481	4.7760e+01	9.5641	74.331743	0.000588	5.877116	0.995610	0.000118
 482	4.7859e+01	9.5855	74.372115	0.000203	2.026592	0.343314	0.000041
 483	4.7959e+01	9.6062	74.477080	0.000527	5.269139	0.892616	0.000105
 484	4.8059e+01	9.6258	74.590120	0.000567	5.674457	0.961279	0.000114
 485	4.8158e+01	9.6459	74.598194	0.000041	0.405318	0.068663	0.000008
 486	4.8258e+01	9.6661	74.707197	0.000547	5.471798	0.926948	0.000110
 487	4.8357e+01	9.6856	74.804088	0.000486	4.863821	0.823954	0.000097
 488	4.8456e+01	9.7045	74.872719	0.000345	3.445206	0.583634	0.000069
 489	4.8556e+01	9.7247	74.929239	0.000284	2.837229	0.480640	0.000057
 490	4.8656e+01	9.7454	75.009982	0.000405	4.053184	0.686628	0.000081
 491	4.8755e+01	9.7655	75.090725	0.000405	4.053184	0.686628	0.000081
 492	4.8855e+01	9.7851	75.159356	0.000345	3.445206	0.583634	0.000069
 493	4.8954e+01	9.8058	75.256247	0.000486	4.863821	0.823954	0.000097
 494	4.9053e+01	9.8254	75.341027	0.000426	4.255843	0.720959	0.000085
 495	4.9153e+01	9.8443	75.413696	0.000365	3.647865	0.617965	0.000073
 496	4.9252e+01	9.8644	75.462141	0.000243	2.431910	0.411977	0.000049
 497	4.9352e+01	9.8858	75.554995	0.000466	4.661161	0.789622	0.000093
 498	4.9452e+01	9.9047	75.611515	0.000284	2.837229	0.480640	0.000057
 499	4.9551e+01	9.9236	75.708406	0.000486	4.863821	0.823954	0.000097
 500	4.9651e+01	9.9444	75.785112	0.000385	3.850525	0.652297	0.000077
 501	4.9750e+01	9.9651	75.873929	0.000446	4.458502	0.755291	0.000089
 502	4.9849e+01	9.9847	75.966783	0.000466	4.661161	0.789622	0.000093
 503	4.9949e+01	9.9999	76.003117	0.000182	1.823933	0.308983	0.000037
 504	5.0048e+01	9.9853	75.982932	0.000101	1.013296	0.171657	-0.000020
 505	5.0148e+01	9.9651	75.938523	0.000223	2.229251	0.377645	-0.000045
 506	5.0248e+01	9.9438	75.821446	0.000588	5.877116	0.995610	-0.000118
 507	5.0347e+01	9.9249	75.825483	-0.000020	-0.202659	-0.034331	0.000004
 508	5.0447e+01	9.9047	75.764926	0.000304	3.039888	0.514971	-0.000061
 509	5.0546e+01	9.8846	75.696295	0.000345	3.445206	0.583634	-0.000069
 510	5.0645e+01	9.8632	75.651887	0.000223	2.229251	0.377645	-0.000045
 511	5.0745e+01	9.8443	75.587292	0.000324	3.242547	0.549302	-0.000065
 512	5.0844e+01	9.8241	75.514624	0.000365	3.647865	0.617965	-0.000073
 513	5.0944e+01	9.8052	75.437918	0.000385	3.850525	0.652297	-0.000077
 514	5.1044e+01	9.7851	75.433881	0.000020	0.202659	0.034331	-0.000004
 515	5.1143e+01	9.7649	75.345064	0.000446	4.458502	0.755291	-0.000089
 516	5.1242e+01	9.7454	75.284507	0.000304	3.039888	0.514971	-0.000061
 517	5.1342e+01	9.7259	75.227987	0.000284	2.837229	0.480640	-0.000057
 518	5.1441e+01	9.7051	75.175505	0.000263	2.634569	0.446308	-0.000053
 519	5.1541e+01	9.6856	75.102836	0.000365	3.647865	0.617965	-0.000073
 520	5.1641e+01	9.6661	75.050353	0.000263	2.634569	0.446308	-0.000053
 521	5.1740e+01	9.6453	74.997871	0.000263	2.634569	0.446308	-0.000053
 522	5.1840e+01	9.6252	74.941351	0.000284	2.837229	0.480640	-0.000057
 523	5.1939e+01	9.6062	74.852534	0.000446	4.458502	0.755291	-0.000089
 524	5.2038e+01	9.5861	74.812162	0.000203	2.026592	0.343314	-0.000041
 525	5.2138e+01	9.5660	74.739494	0.000365	3.647865	0.617965	-0.000073
 526	5.2237e+01	9.5452	74.691048	0.000243	2.431910	0.411977	-0.000049
 527	5.2337e+01	9.5263	74.590120	0.000507	5.066480	0.858285	-0.000101
 528	5.2437e+01	9.5055	74.537637	0.000263	2.634569	0.446308	-0.000053
 529	5.2536e+01	9.4860	74.481117	0.000284	2.837229	0.480640	-0.000057
 530	5.2636e+01	9.4665	74.448820	0.000162	1.621274	0.274651	-0.000032
 531	5.2735e+01	9.4463	74.380189	0.000345	3.445206	0.583634	-0.000069
 532	5.2834e+01	9.4268	74.327706	0.000263	2.634569	0.446308	-0.000053
 533	5.2934e+01	9.4061	74.279260	0.000243	2.431910	0.411977	-0.000049
 534	5.3033e+01	9.3865	74.186406	0.000466	4.661161	0.789622	-0.000093
 535	5.3133e+01	9.3670	74.137961	0.000243	2.431910	0.411977	-0.000049
 536	5.3233e+01	9.3468	74.113738	0.000122	1.215955	0.205988	-0.000024
 537	5.3332e+01	9.3279	74.024921	0.000446	4.458502	0.755291	-0.000089
 538	5.3431e+01	9.3072	73.980512	0.000223	2.229251	0.377645	-0.000045
 539	5.3531e+01	9.2876	73.891695	0.000446	4.458502	0.755291	-0.000089
 540	5.3630e+01	9.2669	73.827101	0.000324	3.242547	0.549302	-0.000065
 541	5.3730e+01	9.2480	73.770581	0.000284	2.837229	0.480640	-0.000057
 542	5.3830e+01	9.2272	73.742321	0.000142	1.418614	0.240320	-0.000028
 543	5.3929e+01	9.2071	73.617170	0.000628	6.282435	1.064273	-0.000126
 544	5.4029e+01	9.1869	73.540465	0.000385	3.850525	0.652297	-0.000077
 545	5.4128e+01	9.1680	73.500093	0.000203	2.026592	0.343314	-0.000041
 546	5.4227e+01	9.1473	73.443573	0.000284	2.837229	0.480640	-0.000057
 547	5.4327e+01	9.1277	73.350719	0.000466	4.661161	0.789622	-0.000093
 548	5.4426e+01	9.1082	73.298236	0.000263	2.634569	0.446308	-0.000053
 549	5.4526e+01	9.0874	73.245754	0.000263	2.634569	0.446308	-0.000053
 550	5.4626e+01	9.0679	73.148862	0.000486	4.863821	0.823954	-0.000097
 551	5.4725e+01	9.0478	73.076194	0.000365	3.647865	0.617965	-0.000073
 552	5.4825e+01	9.0276	73.023711	0.000263	2.634569	0.446308	-0.000053
 553	5.4924e+01	9.0087	72.975266	0.000243	2.431910	0.411977	-0.000049
 554	5.5023e+01	8.9886	72.902597	0.000365	3.647865	0.617965	-0.000073
 555	5.5123e+01	8.9672	72.817817	0.000426	4.255843	0.720959	-0.000085
 556	5.5222e+01	8.9483	72.789557	0.000142	1.418614	0.240320	-0.000028
 557	5.5322e+01	8.9281	72.749186	0.000203	2.026592	0.343314	-0.000041
 558	5.5422e+01	8.9086	72.632109	0.000588	5.877116	0.995610	-0.000118
 559	5.5521e+01	8.8891	72.571552	0.000304	3.039888	0.514971	-0.000061
 560	5.5620e+01	8.8686	72.531181	0.000203	2.026592	0.343314	-0.000041
 561	5.5720e+01	8.8482	72.438327	0.000466	4.661161	0.789622	-0.000093
 562	5.5819e+01	8.8299	72.401992	0.000182	1.823933	0.308983	-0.000037
 563	5.5919e+01	8.8110	72.288953	0.000567	5.674457	0.961279	-0.000114
 564	5.6019e+01	8.7896	72.228395	0.000304	3.039888	0.514971	-0.000061
 565	5.6118e+01	8.7695	72.192061	0.000182	1.823933	0.308983	-0.000037
 566	5.6218e+01	8.7487	72.131504	0.000304	3.039888	0.514971	-0.000061
 567	5.6317e+01	8.7298	72.046724	0.000426	4.255843	0.720959	-0.000085
 568	5.6416e+01	8.7096	71.974056	0.000365	3.647865	0.617965	-0.000073
 569	5.6516e+01	8.6907	71.929647	0.000223	2.229251	0.377645	-0.000045
 570	5.6615e+01	8.6706	71.865053	0.000324	3.242547	0.549302	-0.000065
 571	5.6715e+01	8.6498	71.800459	0.000324	3.242547	0.549302	-0.000065
 572	5.6815e+01	8.6297	71.743939	0.000284	2.837229	0.480640	-0.000057
 573	5.6914e+01	8.6089	71.683382	0.000304	3.039888	0.514971	-0.000061
 574	5.7014e+01	8.5900	71.602639	0.000405	4.053184	0.686628	-0.000081
 575	5.7113e+01	8.5711	71.570342	0.000162	1.621274	0.274651	-0.000032
 576	5.7212e+01	8.5503	71.477488	0.000466	4.661161	0.789622	-0.000093
 577	5.7312e+01	8.5308	71.449228	0.000142	1.418614	0.240320	-0.000028
 578	5.7411e+01	8.5101	71.344263	0.000527	5.269139	0.892616	-0.000105
 579	5.7511e+01	8.4911	71.291780	0.000263	2.634569	0.446308	-0.000053
 580	5.7611e+01	8.4716	71.215074	0.000385	3.850525	0.652297	-0.000077
 581	5.7710e+01	8.4515	71.166629	0.000243	2.431910	0.411977	-0.000049
 582	5.7809e+01	8.4319	71.069738	0.000486	4.863821	0.823954	-0.000097
 583	5.7909e+01	8.4106	71.001106	0.000345	3.445206	0.583634	-0.000069
 584	5.8008e+01	8.3910	70.980921	0.000101	1.013296	0.171657	-0.000020
 585	5.8108e+01	8.3706	70.867881	0.000567	5.674457	0.961279	-0.000114
 586	5.8208e+01	8.3520	70.811361	0.000284	2.837229	0.480640	-0.000057
 587	5.8307e+01	8.3312	70.734655	0.000385	3.850525	0.652297	-0.000077
 588	5.8407e+01	8.3114	70.674098	0.000304	3.039888	0.514971	-0.000061
 589	5.8506e+01	8.2915	70.641801	0.000162	1.621274	0.274651	-0.000032
 590	5.8605e+01	8.2720	70.536836	0.000527	5.269139	0.892616	-0.000105
 591	5.8705e+01	8.2519	70.484353	0.000263	2.634569	0.446308	-0.000053
 592	5.8804e+01	8.2311	70.460130	0.000122	1.215955	0.205988	-0.000024
 593	5.8904e+01	8.2110	70.351127	0.000547	5.471798	0.926948	-0.000110
 594	5.9004e+01	8.1921	70.294607	0.000284	2.837229	0.480640	-0.000057
 595	5.9103e+01	8.1725	70.225976	0.000345	3.445206	0.583634	-0.000069
 596	5.9203e+01	8.1530	70.161382	0.000324	3.242547	0.549302	-0.000065
 597	5.9302e+01	8.1322	70.080639	0.000405	4.053184	0.686628	-0.000081
 598	5.9401e+01	8.1121	70.016045	0.000324	3.242547	0.549302	-0.000065
 599	5.9501e+01	8.0929	69.943377	0.000365	3.647865	0.617965	-0.000073
 600	5.9600e+01	8.0727	69.882820	0.000304	3.039888	0.514971	-0.000061
 601	5.9700e+01	8.0517	69.838411	0.000223	2.229251	0.377645	-0.000045
 602	5.9800e+01	8.0322	69.765743	0.000365	3.647865	0.617965	-0.000073
 603	5.9899e+01	8.0126	69.697111	0.000345	3.445206	0.583634	-0.000069
 604	5.9998e+01	7.9931	69.636554	0.000304	3.039888	0.514971	-0.000061
 605	6.0098e+01	7.9723	69.567923	0.000345	3.445206	0.583634	-0.000069
 606	6.0197e+01	7.9522	69.507366	0.000304	3.039888	0.514971	-0.000061
 607	6.0297e+01	7.9333	69.426623	0.000405	4.053184	0.686628	-0.000081
 608	6.0397e+01	7.9131	69.345881	0.000405	4.053184	0.686628	-0.000081
 609	6.0496e+01	7.8918	69.293398	0.000263	2.634569	0.446308	-0.000053
 610	6.0596e+01	7.8747	69.220729	0.000365	3.647865	0.617965	-0.000073
 611	6.0695e+01	7.8527	69.168247	0.000263	2.634569	0.446308	-0.000053
 612	6.0794e+01	7.8344	69.079430	0.000446	4.458502	0.755291	-0.000089
 613	6.0894e+01	7.8136	69.035021	0.000223	2.229251	0.377645	-0.000045
 614	6.0993e+01	7.7926	68.942167	0.000466	4.661161	0.789622	-0.000093
 615	6.1093e+01	7.7728	68.909870	0.000162	1.621274	0.274651	-0.000032
 616	6.1193e+01	7.7532	68.833164	0.000385	3.850525	0.652297	-0.000077
 617	6.1292e+01	7.7325	68.752422	0.000405	4.053184	0.686628	-0.000081
 618	6.1392e+01	7.7135	68.703976	0.000243	2.431910	0.411977	-0.000049
 619	6.1491e+01	7.6946	68.611122	0.000466	4.661161	0.789622	-0.000093
 620	6.1590e+01	7.6733	68.518268	0.000466	4.661161	0.789622	-0.000093
 621	6.1690e+01	7.6537	68.461748	0.000284	2.837229	0.480640	-0.000057
 622	6.1789e+01	7.6348	68.385042	0.000385	3.850525	0.652297	-0.000077
 623	6.1889e+01	7.6147	68.352745	0.000162	1.621274	0.274651	-0.000032
 624	6.1989e+01	7.5938	68.235668	0.000588	5.877116	0.995610	-0.000118
 625	6.2088e+01	7.5744	68.215483	0.000101	1.013296	0.171657	-0.000020
 626	6.2188e+01	7.5552	68.114554	0.000507	5.066480	0.858285	-0.000101
 627	6.2287e+01	7.5335	68.066109	0.000243	2.431910	0.411977	-0.000049
 628	6.2386e+01	7.5138	67.981329	0.000426	4.255843	0.720959	-0.000085
 629	6.2486e+01	7.4950	67.916735	0.000324	3.242547	0.549302	-0.000065
 630	6.2586e+01	7.4740	67.864252	0.000263	2.634569	0.446308	-0.000053
 631	6.2685e+01	7.4541	67.759286	0.000527	5.269139	0.892616	-0.000105
 632	6.2785e+01	7.4346	67.706803	0.000263	2.634569	0.446308	-0.000053
 633	6.2884e+01	7.4157	67.654321	0.000263	2.634569	0.446308	-0.000053
 634	6.2983e+01	7.3943	67.573578	0.000405	4.053184	0.686628	-0.000081
 635	6.3083e+01	7.3748	67.504947	0.000345	3.445206	0.583634	-0.000069
 636	6.3182e+01	7.3544	67.444390	0.000304	3.039888	0.514971	-0.000061
 637	6.3282e+01	7.3351	67.351536	0.000466	4.661161	0.789622	-0.000093
 638	6.3382e+01	7.3156	67.299053	0.000263	2.634569	0.446308	-0.000053
 639	6.3481e+01	7.2948	67.206199	0.000466	4.661161	0.789622	-0.000093
 640	6.3581e+01	7.2759	67.161790	0.000223	2.229251	0.377645	-0.000045
 641	6.3680e+01	7.2549	67.089122	0.000365	3.647865	0.617965	-0.000073
 642	6.3779e+01	7.2356	67.012416	0.000385	3.850525	0.652297	-0.000077
 643	6.3879e+01	7.2155	66.931673	0.000405	4.053184	0.686628	-0.000081
 644	6.3978e+01	7.1957	66.871116	0.000304	3.039888	0.514971	-0.000061
 645	6.4078e+01	7.1752	66.794411	0.000385	3.850525	0.652297	-0.000077
 646	6.4177e+01	7.1551	66.713668	0.000405	4.053184	0.686628	-0.000081
 647	6.4277e+01	7.1355	66.616777	0.000486	4.863821	0.823954	-0.000097
 648	6.4376e+01	7.1163	66.540071	0.000385	3.850525	0.652297	-0.000077
 649	6.4476e+01	7.0965	66.483551	0.000284	2.837229	0.480640	-0.000057
 650	6.4576e+01	7.0757	66.414920	0.000345	3.445206	0.583634	-0.000069
 651	6.4675e+01	7.0568	66.346289	0.000345	3.445206	0.583634	-0.000069
 652	6.4775e+01	7.0361	66.281695	0.000324	3.242547	0.549302	-0.000065
 653	6.4874e+01	7.0159	66.204989	0.000385	3.850525	0.652297	-0.000077
 654	6.4974e+01	6.9958	66.112135	0.000466	4.661161	0.789622	-0.000093
 655	6.5073e+01	6.9769	66.035429	0.000385	3.850525	0.652297	-0.000077
 656	6.5172e+01	6.9561	65.946612	0.000446	4.458502	0.755291	-0.000089
 657	6.5272e+01	6.9353	65.853758	0.000466	4.661161	0.789622	-0.000093
 658	6.5371e+01	6.9164	65.821461	0.000162	1.621274	0.274651	-0.000032
 659	6.5471e+01	6.8975	65.744755	0.000385	3.850525	0.652297	-0.000077
 660	6.5570e+01	6.8768	65.680161	0.000324	3.242547	0.549302	-0.000065
 661	6.5670e+01	6.8566	65.599419	0.000405	4.053184	0.686628	-0.000081
 662	6.5769e+01	6.8377	65.514639	0.000426	4.255843	0.720959	-0.000085
 663	6.5869e+01	6.8176	65.405636	0.000547	5.471798	0.926948	-0.000110
 664	6.5969e+01	6.7968	65.353153	0.000263	2.634569	0.446308	-0.000053
 665	6.6068e+01	6.7773	65.280485	0.000365	3.647865	0.617965	-0.000073
 666	6.6168e+01	6.7571	65.167445	0.000567	5.674457	0.961279	-0.000114
 667	6.6267e+01	6.7379	65.131111	0.000182	1.823933	0.308983	-0.000037
 668	6.6367e+01	6.7168	65.018071	0.000567	5.674457	0.961279	-0.000114
 669	6.6466e+01	6.6970	64.949440	0.000345	3.445206	0.583634	-0.000069
 670	6.6566e+01	6.6784	64.917143	0.000162	1.621274	0.274651	-0.000032
 671	6.6665e+01	6.6576	64.779880	0.000689	6.890412	1.167267	-0.000138
 672	6.6764e+01	6.6372	64.715286	0.000324	3.242547	0.549302	-0.000065
 673	6.6864e+01	6.6186	64.658766	0.000284	2.837229	0.480640	-0.000057
 674	6.6963e+01	6.5990	64.561875	0.000486	4.863821	0.823954	-0.000097
 675	6.7063e+01	6.5777	64.460946	0.000507	5.066480	0.858285	-0.000101
 676	6.7162e+01	6.5569	64.440761	0.000101	1.013296	0.171657	-0.000020
 677	6.7262e+01	6.5386	64.319647	0.000608	6.079776	1.029942	-0.000122
 678	6.7362e+01	6.5173	64.255052	0.000324	3.242547	0.549302	-0.000065
 679	6.7461e+01	6.4974	64.121827	0.000669	6.687753	1.132936	-0.000134
 680	6.7561e+01	6.4782	64.081456	0.000203	2.026592	0.343314	-0.000041
 681	6.7660e+01	6.4581	63.992639	0.000446	4.458502	0.755291	-0.000089
 682	6.7760e+01	6.4376	63.936119	0.000284	2.837229	0.480640	-0.000057
 683	6.7859e+01	6.4190	63.847302	0.000446	4.458502	0.755291	-0.000089
 684	6.7959e+01	6.3982	63.766559	0.000405	4.053184	0.686628	-0.000081
 685	6.8058e+01	6.3787	63.681779	0.000426	4.255843	0.720959	-0.000085
 686	6.8157e+01	6.3580	63.609111	0.000365	3.647865	0.617965	-0.000073
 687	6.8257e+01	6.3390	63.520294	0.000446	4.458502	0.755291	-0.000089
 688	6.8356e+01	6.3180	63.411291	0.000547	5.471798	0.926948	-0.000110
 689	6.8456e+01	6.2991	63.338623	0.000365	3.647865	0.617965	-0.000073
 690	6.8555e+01	6.2792	63.265954	0.000365	3.647865	0.617965	-0.000073
 691	6.8655e+01	6.2591	63.185211	0.000405	4.053184	0.686628	-0.000081
 692	6.8754e+01	6.2402	63.084283	0.000507	5.066480	0.858285	-0.000101
 693	6.8854e+01	6.2200	63.015652	0.000345	3.445206	0.583634	-0.000069
 694	6.8954e+01	6.1993	62.975280	0.000203	2.026592	0.343314	-0.000041
 695	6.9053e+01	6.1791	62.846092	0.000649	6.485094	1.098605	-0.000130
 696	6.9153e+01	6.1596	62.801684	0.000223	2.229251	0.377645	-0.000045
 697	6.9252e+01	6.1401	62.664421	0.000689	6.890412	1.167267	-0.000138
 698	6.9352e+01	6.1205	62.628087	0.000182	1.823933	0.308983	-0.000037
 699	6.9451e+01	6.0998	62.506973	0.000608	6.079776	1.029942	-0.000122
 700	6.9550e+01	6.0809	62.434304	0.000365	3.647865	0.617965	-0.000073
 701	6.9650e+01	6.0601	62.329339	0.000527	5.269139	0.892616	-0.000105
 702	6.9749e+01	6.0397	62.293004	0.000182	1.823933	0.308983	-0.000037
 703	6.9849e+01	6.0198	62.228410	0.000324	3.242547	0.549302	-0.000065
 704	6.9948e+01	6.0009	62.143630	0.000426	4.255843	0.720959	-0.000085
 705	7.0048e+01	5.9798	62.042702	0.000507	5.066480	0.858285	-0.000101
 706	7.0147e+01	5.9599	61.978108	0.000324	3.242547	0.549302	-0.000065
 707	7.0247e+01	5.9399	61.901402	0.000385	3.850525	0.652297	-0.000077
 708	7.0347e+01	5.9209	61.788362	0.000567	5.674457	0.961279	-0.000114
 709	7.0446e+01	5.9008	61.703583	0.000426	4.255843	0.720959	-0.000085
 710	7.0546e+01	5.8813	61.610728	0.000466	4.661161	0.789622	-0.000093
 711	7.0645e+01	5.8611	61.570357	0.000203	2.026592	0.343314	-0.000041
 712	7.0745e+01	5.8410	61.433095	0.000689	6.890412	1.167267	-0.000138
 713	7.0844e+01	5.8207	61.372537	0.000304	3.039888	0.514971	-0.000061
 714	7.0944e+01	5.8013	61.311980	0.000304	3.039888	0.514971	-0.000061
 715	7.1043e+01	5.7816	61.178755	0.000669	6.687753	1.132936	-0.000134
 716	7.1142e+01	5.7604	61.069752	0.000547	5.471798	0.926948	-0.000110
 717	7.1242e+01	5.7409	61.037455	0.000162	1.621274	0.274651	-0.000032
 718	7.1341e+01	5.7217	60.968824	0.000345	3.445206	0.583634	-0.000069
 719	7.1441e+01	5.7003	60.847710	0.000608	6.079776	1.029942	-0.000122
 720	7.1540e+01	5.6808	60.758893	0.000446	4.458502	0.755291	-0.000089
 721	7.1640e+01	5.6609	60.670076	0.000446	4.458502	0.755291	-0.000089
 722	7.1740e+01	5.6426	60.617593	0.000263	2.634569	0.446308	-0.000053
 723	7.1839e+01	5.6231	60.512628	0.000527	5.269139	0.892616	-0.000105
 724	7.1939e+01	5.6023	60.439959	0.000365	3.647865	0.617965	-0.000073
 725	7.2038e+01	5.5819	60.363254	0.000385	3.850525	0.652297	-0.000077
 726	7.2138e+01	5.5618	60.290585	0.000365	3.647865	0.617965	-0.000073
 727	7.2237e+01	5.5425	60.173508	0.000588	5.877116	0.995610	-0.000118
 728	7.2337e+01	5.5221	60.100840	0.000365	3.647865	0.617965	-0.000073
 729	7.2436e+01	5.5016	59.987800	0.000567	5.674457	0.961279	-0.000114
 730	7.2535e+01	5.4826	59.939354	0.000243	2.431910	0.411977	-0.000049
 731	7.2635e+01	5.4613	59.846500	0.000466	4.661161	0.789622	-0.000093
 732	7.2734e+01	5.4424	59.781906	0.000324	3.242547	0.549302	-0.000065
 733	7.2834e+01	5.4229	59.697126	0.000426	4.255843	0.720959	-0.000085
 734	7.2933e+01	5.4021	59.596198	0.000507	5.066480	0.858285	-0.000101
 735	7.3033e+01	5.3829	59.507381	0.000446	4.458502	0.755291	-0.000089
 736	7.3132e+01	5.3631	59.426638	0.000405	4.053184	0.686628	-0.000081
 737	7.3232e+01	5.3423	59.370118	0.000284	2.837229	0.480640	-0.000057
 738	7.3332e+01	5.3234	59.265153	0.000527	5.269139	0.892616	-0.000105
 739	7.3431e+01	5.3020	59.180373	0.000426	4.255843	0.720959	-0.000085
 740	7.3531e+01	5.2825	59.091556	0.000446	4.458502	0.755291	-0.000089
 741	7.3630e+01	5.2634	59.035036	0.000284	2.837229	0.480640	-0.000057
 742	7.3730e+01	5.2428	58.934108	0.000507	5.066480	0.858285	-0.000101
 743	7.3829e+01	5.2233	58.841253	0.000466	4.661161	0.789622	-0.000093
 744	7.3928e+01	5.2038	58.728214	0.000567	5.674457	0.961279	-0.000114
 745	7.4028e+01	5.1833	58.659582	0.000345	3.445206	0.583634	-0.000069
 746	7.4127e+01	5.1633	58.582877	0.000385	3.850525	0.652297	-0.000077
 747	7.4227e+01	5.1434	58.485985	0.000486	4.863821	0.823954	-0.000097
 748	7.4326e+01	5.1232	58.421391	0.000324	3.242547	0.549302	-0.000065
 749	7.4426e+01	5.1031	58.320463	0.000507	5.066480	0.858285	-0.000101
 750	7.4525e+01	5.0828	58.247794	0.000365	3.647865	0.617965	-0.000073
 751	7.4625e+01	5.0640	58.175126	0.000365	3.647865	0.617965	-0.000073
 752	7.4725e+01	5.0445	58.102458	0.000365	3.647865	0.617965	-0.000073
 753	7.4824e+01	5.0237	57.993455	0.000547	5.471798	0.926948	-0.000110
 754	7.4924e+01	5.0042	57.896564	0.000486	4.863821	0.823954	-0.000097
 755	7.5023e+01	4.9845	57.807747	0.000446	4.458502	0.755291	-0.000089
 756	7.5123e+01	4.9644	57.747190	0.000304	3.039888	0.514971	-0.000061
 757	7.5222e+01	4.9438	57.650298	0.000486	4.863821	0.823954	-0.000097
 758	7.5322e+01	4.9241	57.569556	0.000405	4.053184	0.686628	-0.000081
 759	7.5421e+01	4.9041	57.480739	0.000446	4.458502	0.755291	-0.000089
 760	7.5520e+01	4.8852	57.391922	0.000446	4.458502	0.755291	-0.000089
 761	7.5620e+01	4.8647	57.299068	0.000466	4.661161	0.789622	-0.000093
 762	7.5719e+01	4.8437	57.226399	0.000365	3.647865	0.617965	-0.000073
 763	7.5819e+01	4.8241	57.157768	0.000345	3.445206	0.583634	-0.000069
 764	7.5918e+01	4.8046	57.056839	0.000507	5.066480	0.858285	-0.000101
 765	7.6018e+01	4.7854	56.943800	0.000567	5.674457	0.961279	-0.000114
 766	7.6118e+01	4.7665	56.895354	0.000243	2.431910	0.411977	-0.000049
 767	7.6217e+01	4.7442	56.818648	0.000385	3.850525	0.652297	-0.000077
 768	7.6317e+01	4.7253	56.745980	0.000365	3.647865	0.617965	-0.000073
 769	7.6416e+01	4.7051	56.636977	0.000547	5.471798	0.926948	-0.000110
 770	7.6516e+01	4.6850	56.532012	0.000527	5.269139	0.892616	-0.000105
 771	7.6615e+01	4.6655	56.439158	0.000466	4.661161	0.789622	-0.000093
 772	7.6715e+01	4.6453	56.382638	0.000284	2.837229	0.480640	-0.000057
 773	7.6814e+01	4.6243	56.269598	0.000567	5.674457	0.961279	-0.000114
 774	7.6913e+01	4.6056	56.209041	0.000304	3.039888	0.514971	-0.000061
 775	7.7013e+01	4.5855	56.108112	0.000507	5.066480	0.858285	-0.000101
 776	7.7112e+01	4.5654	56.007184	0.000507	5.066480	0.858285	-0.000101
 777	7.7212e+01	4.5449	55.966813	0.000203	2.026592	0.343314	-0.000041
 778	7.7311e+01	4.5257	55.845699	0.000608	6.079776	1.029942	-0.000122
 779	7.7411e+01	4.5055	55.793216	0.000263	2.634569	0.446308	-0.000053
 780	7.7510e+01	4.4854	55.672102	0.000608	6.079776	1.029942	-0.000122
 781	7.7610e+01	4.4653	55.607508	0.000324	3.242547	0.549302	-0.000065
 782	7.7710e+01	4.4457	55.474282	0.000669	6.687753	1.132936	-0.000134
 783	7.7809e+01	4.4254	55.429874	0.000223	2.229251	0.377645	-0.000045
 784	7.7909e+01	4.4061	55.349131	0.000405	4.053184	0.686628	-0.000081
 785	7.8008e+01	4.3859	55.260314	0.000446	4.458502	0.755291	-0.000089
 786	7.8108e+01	4.3664	55.167460	0.000466	4.661161	0.789622	-0.000093
 787	7.8207e+01	4.3465	55.090754	0.000385	3.850525	0.652297	-0.000077
 788	7.8306e+01	4.3258	54.969640	0.000608	6.079776	1.029942	-0.000122
 789	7.8406e+01	4.3064	54.876786	0.000466	4.661161	0.789622	-0.000093
 790	7.8505e+01	4.2870	54.763746	0.000567	5.674457	0.961279	-0.000114
 791	7.8605e+01	4.2657	54.703189	0.000304	3.039888	0.514971	-0.000061
 792	7.8704e+01	4.2464	54.618409	0.000426	4.255843	0.720959	-0.000085
 793	7.8804e+01	4.2260	54.549778	0.000345	3.445206	0.583634	-0.000069
 794	7.8903e+01	4.2075	54.432701	0.000588	5.877116	0.995610	-0.000118
 795	7.9003e+01	4.1863	54.327736	0.000527	5.269139	0.892616	-0.000105
 796	7.9103e+01	4.1686	54.271216	0.000284	2.837229	0.480640	-0.000057
 797	7.9202e+01	4.1463	54.186436	0.000426	4.255843	0.720959	-0.000085
 798	7.9302e+01	4.1271	54.065322	0.000608	6.079776	1.029942	-0.000122
 799	7.9401e+01	4.1064	53.988616	0.000385	3.850525	0.652297	-0.000077
 800	7.9501e+01	4.0862	53.915948	0.000365	3.647865	0.617965	-0.000073
 801	7.9600e+01	4.0673	53.819057	0.000486	4.863821	0.823954	-0.000097
 802	7.9700e+01	4.0472	53.722165	0.000486	4.863821	0.823954	-0.000097
 803	7.9799e+01	4.0273	53.661608	0.000304	3.039888	0.514971	-0.000061
 804	7.9898e+01	4.0078	53.504160	0.000790	7.903708	1.338924	-0.000158
 805	7.9998e+01	3.9867	53.435529	0.000345	3.445206	0.583634	-0.000069
 806	8.0097e+01	3.9678	53.370934	0.000324	3.242547	0.549302	-0.000065
 807	8.0197e+01	3.9483	53.241746	0.000649	6.485094	1.098605	-0.000130
 808	8.0296e+01	3.9273	53.177152	0.000324	3.242547	0.549302	-0.000065
 809	8.0396e+01	3.9080	53.068149	0.000547	5.471798	0.926948	-0.000110
 810	8.0496e+01	3.8882	52.942998	0.000628	6.282435	1.064273	-0.000126
 811	8.0595e+01	3.8677	52.886478	0.000284	2.837229	0.480640	-0.000057
 812	8.0695e+01	3.8473	52.809773	0.000385	3.850525	0.652297	-0.000077
 813	8.0794e+01	3.8284	52.729030	0.000405	4.053184	0.686628	-0.000081
 814	8.0894e+01	3.8078	52.620027	0.000547	5.471798	0.926948	-0.000110
 815	8.0993e+01	3.7877	52.531210	0.000446	4.458502	0.755291	-0.000089
 816	8.1093e+01	3.7688	52.434319	0.000486	4.863821	0.823954	-0.000097
 817	8.1192e+01	3.7496	52.349539	0.000426	4.255843	0.720959	-0.000085
 818	8.1291e+01	3.7292	52.272834	0.000385	3.850525	0.652297	-0.000077
 819	8.1391e+01	3.7088	52.147682	0.000628	6.282435	1.064273	-0.000126
 820	8.1490e+01	3.6880	52.046754	0.000507	5.066480	0.858285	-0.000101
 821	8.1590e+01	3.6687	51.961974	0.000426	4.255843	0.720959	-0.000085
 822	8.1689e+01	3.6480	51.865083	0.000486	4.863821	0.823954	-0.000097
 823	8.1789e+01	3.6294	51.748006	0.000588	5.877116	0.995610	-0.000118
 824	8.1888e+01	3.6089	51.679375	0.000345	3.445206	0.583634	-0.000069
 825	8.1988e+01	3.5894	51.578446	0.000507	5.066480	0.858285	-0.000101
 826	8.2088e+01	3.5691	51.453295	0.000628	6.282435	1.064273	-0.000126
 827	8.2187e+01	3.5485	51.368515	0.000426	4.255843	0.720959	-0.000085
 828	8.2287e+01	3.5299	51.291810	0.000385	3.850525	0.652297	-0.000077
 829	8.2386e+01	3.5087	51.211067	0.000405	4.053184	0.686628	-0.000081
 830	8.2486e+01	3.4896	51.089953	0.000608	6.079776	1.029942	-0.000122
 831	8.2585e+01	3.4690	50.989024	0.000507	5.066480	0.858285	-0.000101
 832	8.2684e+01	3.4489	50.908282	0.000405	4.053184	0.686628	-0.000081
 833	8.2784e+01	3.4301	50.807353	0.000507	5.066480	0.858285	-0.000101
 834	8.2883e+01	3.4093	50.694313	0.000567	5.674457	0.961279	-0.000114
 835	8.2983e+01	3.3901	50.613571	0.000405	4.053184	0.686628	-0.000081
 836	8.3082e+01	3.3700	50.468234	0.000730	7.295731	1.235930	-0.000146
 837	8.3182e+01	3.3495	50.383454	0.000426	4.255843	0.720959	-0.000085
 838	8.3281e+01	3.3288	50.298674	0.000426	4.255843	0.720959	-0.000085
 839	8.3381e+01	3.3108	50.209857	0.000446	4.458502	0.755291	-0.000089
 840	8.3481e+01	3.2896	50.108929	0.000507	5.066480	0.858285	-0.000101
 841	8.3580e+01	3.2696	49.975703	0.000669	6.687753	1.132936	-0.000134
 842	8.3680e+01	3.2500	49.943406	0.000162	1.621274	0.274651	-0.000032
 843	8.3779e+01	3.2293	49.810181	0.000669	6.687753	1.132936	-0.000134
 844	8.3879e+01	3.2104	49.705215	0.000527	5.269139	0.892616	-0.000105
 845	8.3978e+01	3.1899	49.604287	0.000507	5.066480	0.858285	-0.000101
 846	8.4078e+01	3.1701	49.495284	0.000547	5.471798	0.926948	-0.000110
 847	8.4177e+01	3.1510	49.394356	0.000507	5.066480	0.858285	-0.000101
 848	8.4276e+01	3.1304	49.285353	0.000547	5.471798	0.926948	-0.000110
 849	8.4376e+01	3.1101	49.200573	0.000426	4.255843	0.720959	-0.000085
 850	8.4475e+01	3.0907	49.115793	0.000426	4.255843	0.720959	-0.000085
 851	8.4575e+01	3.0709	48.966419	0.000750	7.498390	1.270262	-0.000150
 852	8.4674e+01	3.0521	48.865491	0.000507	5.066480	0.858285	-0.000101
 853	8.4774e+01	3.0303	48.813008	0.000263	2.634569	0.446308	-0.000053
 854	8.4874e+01	3.0117	48.683820	0.000649	6.485094	1.098605	-0.000130
 855	8.4973e+01	2.9900	48.578854	0.000527	5.269139	0.892616	-0.000105
 856	8.5073e+01	2.9711	48.449666	0.000649	6.485094	1.098605	-0.000130
 857	8.5172e+01	2.9508	48.376998	0.000365	3.647865	0.617965	-0.000073
 858	8.5272e+01	2.9317	48.255883	0.000608	6.079776	1.029942	-0.000122
 859	8.5371e+01	2.9113	48.150918	0.000527	5.269139	0.892616	-0.000105
 860	8.5471e+01	2.8912	48.094398	0.000284	2.837229	0.480640	-0.000057
 861	8.5570e+01	2.8715	47.949061	0.000730	7.295731	1.235930	-0.000146
 862	8.5669e+01	2.8509	47.864281	0.000426	4.255843	0.720959	-0.000085
 863	8.5769e+01	2.8313	47.783539	0.000405	4.053184	0.686628	-0.000081
 864	8.5868e+01	2.8123	47.622053	0.000811	8.106368	1.373256	-0.000162
 865	8.5968e+01	2.7911	47.500939	0.000608	6.079776	1.029942	-0.000122
 866	8.6067e+01	2.7712	47.420196	0.000405	4.053184	0.686628	-0.000081
 867	8.6167e+01	2.7515	47.319268	0.000507	5.066480	0.858285	-0.000101
 868	8.6266e+01	2.7308	47.246600	0.000365	3.647865	0.617965	-0.000073
 869	8.6366e+01	2.7115	47.141634	0.000527	5.269139	0.892616	-0.000105
 870	8.6466e+01	2.6923	47.052817	0.000446	4.458502	0.755291	-0.000089
 871	8.6565e+01	2.6714	46.907480	0.000730	7.295731	1.235930	-0.000146
 872	8.6665e+01	2.6519	46.822700	0.000426	4.255843	0.720959	-0.000085
 873	8.6764e+01	2.6311	46.717735	0.000527	5.269139	0.892616	-0.000105
 874	8.6864e+01	2.6119	46.624881	0.000466	4.661161	0.789622	-0.000093
 875	8.6963e+01	2.5951	46.519915	0.000527	5.269139	0.892616	-0.000105
 876	8.7063e+01	2.5719	46.418987	0.000507	5.066480	0.858285	-0.000101
 877	8.7162e+01	2.5512	46.281724	0.000689	6.890412	1.167267	-0.000138
 878	8.7261e+01	2.5327	46.217130	0.000324	3.242547	0.549302	-0.000065
 879	8.7361e+01	2.5126	46.083904	0.000669	6.687753	1.132936	-0.000134
 880	8.7460e+01	2.4937	45.978939	0.000527	5.269139	0.892616	-0.000105
 881	8.7560e+01	2.4731	45.910308	0.000345	3.445206	0.583634	-0.000069
 882	8.7659e+01	2.4532	45.769008	0.000709	7.093072	1.201599	-0.000142
 883	8.7759e+01	2.4340	45.688265	0.000405	4.053184	0.686628	-0.000081
 884	8.7859e+01	2.4131	45.551003	0.000689	6.890412	1.167267	-0.000138
 885	8.7958e+01	2.3933	45.433926	0.000588	5.877116	0.995610	-0.000118
 886	8.8058e+01	2.3736	45.361257	0.000365	3.647865	0.617965	-0.000073
 887	8.8157e+01	2.3534	45.232069	0.000649	6.485094	1.098605	-0.000130
 888	8.8257e+01	2.3335	45.123066	0.000547	5.471798	0.926948	-0.000110
 889	8.8356e+01	2.3125	45.038286	0.000426	4.255843	0.720959	-0.000085
 890	8.8456e+01	2.2934	44.909098	0.000649	6.485094	1.098605	-0.000130
 891	8.8555e+01	2.2735	44.824318	0.000426	4.255843	0.720959	-0.000085
 892	8.8654e+01	2.2537	44.715315	0.000547	5.471798	0.926948	-0.000110
 893	8.8754e+01	2.2332	44.614387	0.000507	5.066480	0.858285	-0.000101
 894	8.8853e+01	2.2136	44.493273	0.000608	6.079776	1.029942	-0.000122
 895	8.8953e+01	2.1944	44.380233	0.000567	5.674457	0.961279	-0.000114
 896	8.9052e+01	2.1734	44.299490	0.000405	4.053184	0.686628	-0.000081
 897	8.9152e+01	2.1539	44.210673	0.000446	4.458502	0.755291	-0.000089
 898	8.9251e+01	2.1331	44.101671	0.000547	5.471798	0.926948	-0.000110
 899	8.9351e+01	2.1144	43.996705	0.000527	5.269139	0.892616	-0.000105
 900	8.9451e+01	2.0934	43.907888	0.000446	4.458502	0.755291	-0.000089
 901	8.9550e+01	2.0739	43.790811	0.000588	5.877116	0.995610	-0.000118
 902	8.9650e+01	2.0541	43.677772	0.000567	5.674457	0.961279	-0.000114
 903	8.9749e+01	2.0333	43.588955	0.000446	4.458502	0.755291	-0.000089
 904	8.9849e+01	2.0139	43.463803	0.000628	6.282435	1.064273	-0.000126
 905	8.9948e+01	1.9946	43.354801	0.000547	5.471798	0.926948	-0.000110
 906	9.0047e+01	1.9743	43.237724	0.000588	5.877116	0.995610	-0.000118
 907	9.0147e+01	1.9546	43.132758	0.000527	5.269139	0.892616	-0.000105
 908	9.0246e+01	1.9347	43.015681	0.000588	5.877116	0.995610	-0.000118
 909	9.0346e+01	1.9146	42.918790	0.000486	4.863821	0.823954	-0.000097
 910	9.0445e+01	1.8954	42.821899	0.000486	4.863821	0.823954	-0.000097
 911	9.0545e+01	1.8747	42.716933	0.000527	5.269139	0.892616	-0.000105
 912	9.0644e+01	1.8542	42.599856	0.000588	5.877116	0.995610	-0.000118
 913	9.0744e+01	1.8340	42.535262	0.000324	3.242547	0.549302	-0.000065
 914	9.0844e+01	1.8151	42.406074	0.000649	6.485094	1.098605	-0.000130
 915	9.0943e+01	1.7950	42.288997	0.000588	5.877116	0.995610	-0.000118
 916	9.1043e+01	1.7748	42.192106	0.000486	4.863821	0.823954	-0.000097
 917	9.1142e+01	1.7558	42.062917	0.000649	6.485094	1.098605	-0.000130
 918	9.1242e+01	1.7344	41.986212	0.000385	3.850525	0.652297	-0.000077
 919	9.1341e+01	1.7150	41.905469	0.000405	4.053184	0.686628	-0.000081
 920	9.1441e+01	1.6958	41.748021	0.000790	7.903708	1.338924	-0.000158
 921	9.1540e+01	1.6750	41.663241	0.000426	4.255843	0.720959	-0.000085
 922	9.1639e+01	1.6553	41.566350	0.000486	4.863821	0.823954	-0.000097
 923	9.1739e+01	1.6352	41.461384	0.000527	5.269139	0.892616	-0.000105
 924	9.1838e+01	1.6161	41.324121	0.000689	6.890412	1.167267	-0.000138
 925	9.1938e+01	1.5948	41.227230	0.000486	4.863821	0.823954	-0.000097
 926	9.2037e+01	1.5750	41.122265	0.000527	5.269139	0.892616	-0.000105
 927	9.2137e+01	1.5557	41.033448	0.000446	4.458502	0.755291	-0.000089
 928	9.2237e+01	1.5348	40.940594	0.000466	4.661161	0.789622	-0.000093
 929	9.2336e+01	1.5156	40.766997	0.000871	8.714345	1.476250	-0.000174
 930	9.2436e+01	1.4952	40.662031	0.000527	5.269139	0.892616	-0.000105
 931	9.2535e+01	1.4755	40.601474	0.000304	3.039888	0.514971	-0.000061
 932	9.2635e+01	1.4547	40.512657	0.000446	4.458502	0.755291	-0.000089
 933	9.2734e+01	1.4373	40.407692	0.000527	5.269139	0.892616	-0.000105
 934	9.2834e+01	1.4137	40.290615	0.000588	5.877116	0.995610	-0.000118
 935	9.2933e+01	1.3970	40.157389	0.000669	6.687753	1.132936	-0.000134
 936	9.3032e+01	1.3758	40.088758	0.000345	3.445206	0.583634	-0.000069
 937	9.3132e+01	1.3567	39.967644	0.000608	6.079776	1.029942	-0.000122
 938	9.3231e+01	1.3359	39.838455	0.000649	6.485094	1.098605	-0.000130
 939	9.3331e+01	1.3169	39.737527	0.000507	5.066480	0.858285	-0.000101
 940	9.3430e+01	1.2966	39.632562	0.000527	5.269139	0.892616	-0.000105
 941	9.3530e+01	1.2762	39.523559	0.000547	5.471798	0.926948	-0.000110
 942	9.3629e+01	1.2576	39.434742	0.000446	4.458502	0.755291	-0.000089
 943	9.3729e+01	1.2373	39.349962	0.000426	4.255843	0.720959	-0.000085
 944	9.3829e+01	1.2177	39.236922	0.000567	5.674457	0.961279	-0.000114
 945	9.3928e+01	1.1980	39.115808	0.000608	6.079776	1.029942	-0.000122
 946	9.4028e+01	1.1765	38.994694	0.000608	6.079776	1.029942	-0.000122
 947	9.4127e+01	1.1579	38.885691	0.000547	5.471798	0.926948	-0.000110
 948	9.4227e+01	1.1385	38.788800	0.000486	4.863821	0.823954	-0.000097
 949	9.4326e+01	1.1178	38.623278	0.000831	8.309027	1.407587	-0.000166
 950	9.4425e+01	1.0966	38.570795	0.000263	2.634569	0.446308	-0.000053
 951	9.4525e+01	1.0775	38.453718	0.000588	5.877116	0.995610	-0.000118
 952	9.4624e+01	1.0587	38.340678	0.000567	5.674457	0.961279	-0.000114
 953	9.4724e+01	1.0372	38.235713	0.000527	5.269139	0.892616	-0.000105
 954	9.4823e+01	1.0179	38.150933	0.000426	4.255843	0.720959	-0.000085
 955	9.4923e+01	0.9975	38.017707	0.000669	6.687753	1.132936	-0.000134
 956	9.5022e+01	0.9780	37.892556	0.000628	6.282435	1.064273	-0.000126
 957	9.5122e+01	0.9583	37.779516	0.000567	5.674457	0.961279	-0.000114
 958	9.5222e+01	0.9403	37.666476	0.000567	5.674457	0.961279	-0.000114
 959	9.5321e+01	0.9190	37.553437	0.000567	5.674457	0.961279	-0.000114
 960	9.5421e+01	0.8985	37.436360	0.000588	5.877116	0.995610	-0.000118
 961	9.5520e+01	0.8784	37.379840	0.000284	2.837229	0.480640	-0.000057
 962	9.5620e+01	0.8591	37.234503	0.000730	7.295731	1.235930	-0.000146
 963	9.5719e+01	0.8393	37.129537	0.000527	5.269139	0.892616	-0.000105
 964	9.5819e+01	0.8187	37.028609	0.000507	5.066480	0.858285	-0.000101
 965	9.5918e+01	0.7996	36.931718	0.000486	4.863821	0.823954	-0.000097
 966	9.6017e+01	0.7787	36.802529	0.000649	6.485094	1.098605	-0.000130
 967	9.6117e+01	0.7588	36.669304	0.000669	6.687753	1.132936	-0.000134
 968	9.6216e+01	0.7396	36.540116	0.000649	6.485094	1.098605	-0.000130
 969	9.6316e+01	0.7183	36.423039	0.000588	5.877116	0.995610	-0.000118
 970	9.6415e+01	0.6994	36.354407	0.000345	3.445206	0.583634	-0.000069
 971	9.6515e+01	0.6783	36.245405	0.000547	5.471798	0.926948	-0.000110
 972	9.6615e+01	0.6585	36.132365	0.000567	5.674457	0.961279	-0.000114
 973	9.6714e+01	0.6385	36.027399	0.000527	5.269139	0.892616	-0.000105
 974	9.6814e+01	0.6193	35.878025	0.000750	7.498390	1.270262	-0.000150
 975	9.6913e+01	0.5990	35.821505	0.000284	2.837229	0.480640	-0.000057
 976	9.7013e+01	0.5790	35.672131	0.000750	7.498390	1.270262	-0.000150
 977	9.7112e+01	0.5594	35.559092	0.000567	5.674457	0.961279	-0.000114
 978	9.7212e+01	0.5386	35.470275	0.000446	4.458502	0.755291	-0.000089
 979	9.7311e+01	0.5190	35.341086	0.000649	6.485094	1.098605	-0.000130
 980	9.7410e+01	0.4996	35.228046	0.000567	5.674457	0.961279	-0.000114
 981	9.7510e+01	0.4804	35.106932	0.000608	6.079776	1.029942	-0.000122
 982	9.7609e+01	0.4602	35.018115	0.000446	4.458502	0.755291	-0.000089
 983	9.7709e+01	0.4398	34.909113	0.000547	5.471798	0.926948	-0.000110
 984	9.7808e+01	0.4202	34.812221	0.000486	4.863821	0.823954	-0.000097
 985	9.7908e+01	0.4005	34.654773	0.000790	7.903708	1.338924	-0.000158
 986	9.8007e+01	0.3805	34.525585	0.000649	6.485094	1.098605	-0.000130
 987	9.8107e+01	0.3598	34.424656	0.000507	5.066480	0.858285	-0.000101
 988	9.8207e+01	0.3409	34.295468	0.000649	6.485094	1.098605	-0.000130
 989	9.8306e+01	0.3205	34.222800	0.000365	3.647865	0.617965	-0.000073
 990	9.8406e+01	0.3001	34.089574	0.000669	6.687753	1.132936	-0.000134
 991	9.8505e+01	0.2805	33.944237	0.000730	7.295731	1.235930	-0.000146
 992	9.8605e+01	0.2605	33.871569	0.000365	3.647865	0.617965	-0.000073
 993	9.8704e+01	0.2402	33.746418	0.000628	6.282435	1.064273	-0.000126
 994	9.8803e+01	0.2202	33.625304	0.000608	6.079776	1.029942	-0.000122
 995	9.8903e+01	0.2010	33.484004	0.000709	7.093072	1.201599	-0.000142
 996	9.9002e+01	0.1816	33.375001	0.000547	5.471798	0.926948	-0.000110
 997	9.9102e+01	0.1603	33.282147	0.000466	4.661161	0.789622	-0.000093
 998	9.9201e+01	0.1408	33.152959	0.000649	6.485094	1.098605	-0.000130
 999	9.9301e+01	0.1207	33.011659	0.000709	7.093072	1.201599	-0.000142
1000	9.9400e+01	0.1003	32.902656	0.000547	5.471798	0.926948	-0.000110
1001	9.9500e+01	0.0808	32.793654	0.000547	5.471798	0.926948	-0.000110
1002	9.9600e+01	0.0614	32.664465	0.000649	6.485094	1.098605	-0.000130
1003	9.9699e+01	0.0410	32.535277	0.000649	6.485094	1.098605	-0.000130
1004	9.9799e+01	0.0215	32.466646	0.000345	3.445206	0.583634	-0.000069
1005	9.9898e+01	0.0016	32.325346	0.000709	7.093072	1.201599	-0.000142
1006	9.9998e+01	-0.0171	32.188083	0.000689	6.890412	1.167267	-0.000138
1007	1.0010e+02	-0.0364	32.115415	0.000365	3.647865	0.617965	-0.000073
1008	1.0020e+02	-0.0570	32.006412	0.000547	5.471798	0.926948	-0.000110
1009	1.0030e+02	-0.0767	31.869150	0.000689	6.890412	1.167267	-0.000138
1010	1.0040e+02	-0.0961	31.703627	0.000831	8.309027	1.407587	-0.000166
1011	1.0050e+02	-0.1160	31.626921	0.000385	3.850525	0.652297	-0.000077
1012	1.0059e+02	-0.1361	31.485622	0.000709	7.093072	1.201599	-0.000142
1013	1.0069e+02	-0.1568	31.376619	0.000547	5.471798	0.926948	-0.000110
1014	1.0079e+02	-0.1768	31.255505	0.000608	6.079776	1.029942	-0.000122
1015	1.0089e+02	-0.1966	31.142465	0.000567	5.674457	0.961279	-0.000114
1016	1.0099e+02	-0.2153	30.985017	0.000790	7.903708	1.338924	-0.000158
1017	1.0109e+02	-0.2369	30.892163	0.000466	4.661161	0.789622	-0.000093
1018	1.0119e+02	-0.2557	30.754900	0.000689	6.890412	1.167267	-0.000138
1019	1.0129e+02	-0.2757	30.637823	0.000588	5.877116	0.995610	-0.000118
1020	1.0139e+02	-0.2961	30.492486	0.000730	7.295731	1.235930	-0.000146
1021	1.0149e+02	-0.3159	30.423855	0.000345	3.445206	0.583634	-0.000069
1022	1.0159e+02	-0.3362	30.282555	0.000709	7.093072	1.201599	-0.000142
1023	1.0169e+02	-0.3561	30.177590	0.000527	5.269139	0.892616	-0.000105
1024	1.0179e+02	-0.3764	30.044364	0.000669	6.687753	1.132936	-0.000134
1025	1.0189e+02	-0.3957	29.947473	0.000486	4.863821	0.823954	-0.000097
1026	1.0199e+02	-0.4155	29.761765	0.000932	9.322323	1.579244	-0.000187
1027	1.0209e+02	-0.4343	29.660836	0.000507	5.066480	0.858285	-0.000101
1028	1.0219e+02	-0.4549	29.487239	0.000871	8.714345	1.476250	-0.000174
1029	1.0229e+02	-0.4752	29.414571	0.000365	3.647865	0.617965	-0.000073
1030	1.0239e+02	-0.4963	29.317680	0.000486	4.863821	0.823954	-0.000097
1031	1.0248e+02	-0.5148	29.176380	0.000709	7.093072	1.201599	-0.000142
1032	1.0258e+02	-0.5357	29.051229	0.000628	6.282435	1.064273	-0.000126
1033	1.0268e+02	-0.5554	28.934152	0.000588	5.877116	0.995610	-0.000118
1034	1.0278e+02	-0.5751	28.821112	0.000567	5.674457	0.961279	-0.000114
1035	1.0288e+02	-0.5951	28.708072	0.000567	5.674457	0.961279	-0.000114
1036	1.0298e+02	-0.6152	28.595032	0.000567	5.674457	0.961279	-0.000114
1037	1.0308e+02	-0.6352	28.469881	0.000628	6.282435	1.064273	-0.000126
1038	1.0318e+02	-0.6555	28.328581	0.000709	7.093072	1.201599	-0.000142
1039	1.0328e+02	-0.6743	28.203430	0.000628	6.282435	1.064273	-0.000126
1040	1.0338e+02	-0.6948	28.118650	0.000426	4.255843	0.720959	-0.000085
1041	1.0348e+02	-0.7155	27.965239	0.000770	7.701049	1.304593	-0.000154
1042	1.0358e+02	-0.7340	27.815865	0.000750	7.498390	1.270262	-0.000150
1043	1.0368e+02	-0.7548	27.731085	0.000426	4.255843	0.720959	-0.000085
1044	1.0378e+02	-0.7737	27.593823	0.000689	6.890412	1.167267	-0.000138
1045	1.0388e+02	-0.7949	27.468672	0.000628	6.282435	1.064273	-0.000126
1046	1.0398e+02	-0.8146	27.375817	0.000466	4.661161	0.789622	-0.000093
1047	1.0408e+02	-0.8351	27.254703	0.000608	6.079776	1.029942	-0.000122
1048	1.0418e+02	-0.8546	27.113404	0.000709	7.093072	1.201599	-0.000142
1049	1.0428e+02	-0.8742	26.976141	0.000689	6.890412	1.167267	-0.000138
1050	1.0438e+02	-0.8939	26.875213	0.000507	5.066480	0.858285	-0.000101
1051	1.0447e+02	-0.9145	26.717764	0.000790	7.903708	1.338924	-0.000158
1052	1.0457e+02	-0.9337	26.637022	0.000405	4.053184	0.686628	-0.000081
1053	1.0467e+02	-0.9546	26.491685	0.000730	7.295731	1.235930	-0.000146
1054	1.0477e+02	-0.9745	26.390756	0.000507	5.066480	0.858285	-0.000101
1055	1.0487e+02	-0.9940	26.273679	0.000588	5.877116	0.995610	-0.000118
1056	1.0497e+02	-1.0141	26.172751	0.000507	5.066480	0.858285	-0.000101
1057	1.0507e+02	-1.0339	25.983006	0.000952	9.524982	1.613576	-0.000191
1058	1.0517e+02	-1.0541	25.878040	0.000527	5.269139	0.892616	-0.000105
1059	1.0527e+02	-1.0738	25.756926	0.000608	6.079776	1.029942	-0.000122
1060	1.0537e+02	-1.0929	25.664072	0.000466	4.661161	0.789622	-0.000093
1061	1.0547e+02	-1.1151	25.506624	0.000790	7.903708	1.338924	-0.000158
1062	1.0557e+02	-1.1341	25.397621	0.000547	5.471798	0.926948	-0.000110
1063	1.0567e+02	-1.1529	25.280544	0.000588	5.877116	0.995610	-0.000118
1064	1.0577e+02	-1.1733	25.163467	0.000588	5.877116	0.995610	-0.000118
1065	1.0587e+02	-1.1938	25.014093	0.000750	7.498390	1.270262	-0.000150
1066	1.0597e+02	-1.2128	24.888942	0.000628	6.282435	1.064273	-0.000126
1067	1.0607e+02	-1.2334	24.812236	0.000385	3.850525	0.652297	-0.000077
1068	1.0617e+02	-1.2531	24.674974	0.000689	6.890412	1.167267	-0.000138
1069	1.0627e+02	-1.2731	24.557897	0.000588	5.877116	0.995610	-0.000118
1070	1.0637e+02	-1.2929	24.432745	0.000628	6.282435	1.064273	-0.000126
1071	1.0647e+02	-1.3121	24.291446	0.000709	7.093072	1.201599	-0.000142
1072	1.0656e+02	-1.3357	24.190517	0.000507	5.066480	0.858285	-0.000101
1073	1.0666e+02	-1.3535	24.053255	0.000689	6.890412	1.167267	-0.000138
1074	1.0676e+02	-1.3718	23.960401	0.000466	4.661161	0.789622	-0.000093
1075	1.0686e+02	-1.3916	23.786804	0.000871	8.714345	1.476250	-0.000174
1076	1.0696e+02	-1.4119	23.706061	0.000405	4.053184	0.686628	-0.000081
1077	1.0706e+02	-1.4331	23.584947	0.000608	6.079776	1.029942	-0.000122
1078	1.0716e+02	-1.4523	23.459796	0.000628	6.282435	1.064273	-0.000126
1079	1.0726e+02	-1.4715	23.346756	0.000567	5.674457	0.961279	-0.000114
1080	1.0736e+02	-1.4923	23.213530	0.000669	6.687753	1.132936	-0.000134
1081	1.0746e+02	-1.5125	23.092416	0.000608	6.079776	1.029942	-0.000122
1082	1.0756e+02	-1.5324	22.991488	0.000507	5.066480	0.858285	-0.000101
1083	1.0766e+02	-1.5511	22.854225	0.000689	6.890412	1.167267	-0.000138
1084	1.0776e+02	-1.5726	22.745223	0.000547	5.471798	0.926948	-0.000110
1085	1.0786e+02	-1.5916	22.640257	0.000527	5.269139	0.892616	-0.000105
1086	1.0796e+02	-1.6110	22.498957	0.000709	7.093072	1.201599	-0.000142
1087	1.0806e+02	-1.6321	22.402066	0.000486	4.863821	0.823954	-0.000097
1088	1.0816e+02	-1.6513	22.228469	0.000871	8.714345	1.476250	-0.000174
1089	1.0826e+02	-1.6711	22.131578	0.000486	4.863821	0.823954	-0.000097
1090	1.0836e+02	-1.6904	22.002390	0.000649	6.485094	1.098605	-0.000130
1091	1.0845e+02	-1.7110	21.889350	0.000567	5.674457	0.961279	-0.000114
1092	1.0855e+02	-1.7321	21.808607	0.000405	4.053184	0.686628	-0.000081
1093	1.0865e+02	-1.7517	21.651159	0.000790	7.903708	1.338924	-0.000158
1094	1.0875e+02	-1.7706	21.534082	0.000588	5.877116	0.995610	-0.000118
1095	1.0885e+02	-1.7917	21.429116	0.000527	5.269139	0.892616	-0.000105
1096	1.0895e+02	-1.8115	21.287817	0.000709	7.093072	1.201599	-0.000142
1097	1.0905e+02	-1.8307	21.166703	0.000608	6.079776	1.029942	-0.000122
1098	1.0915e+02	-1.8503	21.118257	0.000243	2.431910	0.411977	-0.000049
1099	1.0925e+02	-1.8726	20.932549	0.000932	9.322323	1.579244	-0.000187
1100	1.0935e+02	-1.8906	20.827583	0.000527	5.269139	0.892616	-0.000105
1101	1.0945e+02	-1.9106	20.726655	0.000507	5.066480	0.858285	-0.000101
1102	1.0955e+02	-1.9302	20.581318	0.000730	7.295731	1.235930	-0.000146
1103	1.0965e+02	-1.9516	20.480390	0.000507	5.066480	0.858285	-0.000101
1104	1.0975e+02	-1.9702	20.355238	0.000628	6.282435	1.064273	-0.000126
1105	1.0985e+02	-1.9901	20.270459	0.000426	4.255843	0.720959	-0.000085
1106	1.0995e+02	-2.0108	20.125122	0.000730	7.295731	1.235930	-0.000146
1107	1.1005e+02	-2.0306	20.028230	0.000486	4.863821	0.823954	-0.000097
1108	1.1015e+02	-2.0502	19.931339	0.000486	4.863821	0.823954	-0.000097
1109	1.1025e+02	-2.0706	19.757742	0.000871	8.714345	1.476250	-0.000174
1110	1.1035e+02	-2.0895	19.681037	0.000385	3.850525	0.652297	-0.000077
1111	1.1044e+02	-2.1098	19.555886	0.000628	6.282435	1.064273	-0.000126
1112	1.1054e+02	-2.1302	19.414586	0.000709	7.093072	1.201599	-0.000142
1113	1.1064e+02	-2.1499	19.313657	0.000507	5.066480	0.858285	-0.000101
1114	1.1074e+02	-2.1698	19.184469	0.000649	6.485094	1.098605	-0.000130
1115	1.1084e+02	-2.1893	19.059318	0.000628	6.282435	1.064273	-0.000126
1116	1.1094e+02	-2.2101	19.002798	0.000284	2.837229	0.480640	-0.000057
1117	1.1104e+02	-2.2302	18.813053	0.000952	9.524982	1.613576	-0.000191
1118	1.1114e+02	-2.2498	18.724236	0.000446	4.458502	0.755291	-0.000089
1119	1.1124e+02	-2.2696	18.591010	0.000669	6.687753	1.132936	-0.000134
1120	1.1134e+02	-2.2894	18.486045	0.000527	5.269139	0.892616	-0.000105
1121	1.1144e+02	-2.3102	18.340708	0.000730	7.295731	1.235930	-0.000146
1122	1.1154e+02	-2.3303	18.264002	0.000385	3.850525	0.652297	-0.000077
1123	1.1164e+02	-2.3492	18.118665	0.000730	7.295731	1.235930	-0.000146
1124	1.1174e+02	-2.3689	17.997551	0.000608	6.079776	1.029942	-0.000122
1125	1.1184e+02	-2.3895	17.860289	0.000689	6.890412	1.167267	-0.000138
1126	1.1194e+02	-2.4087	17.747249	0.000567	5.674457	0.961279	-0.000114
1127	1.1204e+02	-2.4300	17.666506	0.000405	4.053184	0.686628	-0.000081
1128	1.1214e+02	-2.4486	17.492909	0.000871	8.714345	1.476250	-0.000174
1129	1.1224e+02	-2.4685	17.428315	0.000324	3.242547	0.549302	-0.000065
1130	1.1234e+02	-2.4892	17.323349	0.000527	5.269139	0.892616	-0.000105
1131	1.1244e+02	-2.5085	17.165901	0.000790	7.903708	1.338924	-0.000158
1132	1.1253e+02	-2.5281	17.028639	0.000689	6.890412	1.167267	-0.000138
1133	1.1263e+02	-2.5485	16.927710	0.000507	5.066480	0.858285	-0.000101
1134	1.1273e+02	-2.5679	16.851005	0.000385	3.850525	0.652297	-0.000077
1135	1.1283e+02	-2.5880	16.681445	0.000851	8.511686	1.441919	-0.000170
1136	1.1293e+02	-2.6082	16.596665	0.000426	4.255843	0.720959	-0.000085
1137	1.1303e+02	-2.6297	16.467477	0.000649	6.485094	1.098605	-0.000130
1138	1.1313e+02	-2.6486	16.350400	0.000588	5.877116	0.995610	-0.000118
1139	1.1323e+02	-2.6672	16.233323	0.000588	5.877116	0.995610	-0.000118
1140	1.1333e+02	-2.6871	16.116246	0.000588	5.877116	0.995610	-0.000118
1141	1.1343e+02	-2.7072	16.003206	0.000567	5.674457	0.961279	-0.000114
1142	1.1353e+02	-2.7277	15.886129	0.000588	5.877116	0.995610	-0.000118
1143	1.1363e+02	-2.7469	15.765015	0.000608	6.079776	1.029942	-0.000122
1144	1.1373e+02	-2.7673	15.631790	0.000669	6.687753	1.132936	-0.000134
1145	1.1383e+02	-2.7873	15.526824	0.000527	5.269139	0.892616	-0.000105
1146	1.1393e+02	-2.8076	15.433970	0.000466	4.661161	0.789622	-0.000093
1147	1.1403e+02	-2.8264	15.337079	0.000486	4.863821	0.823954	-0.000097
1148	1.1413e+02	-2.8473	15.203853	0.000669	6.687753	1.132936	-0.000134
1149	1.1423e+02	-2.8676	15.046405	0.000790	7.903708	1.338924	-0.000158
1150	1.1433e+02	-2.8864	14.945477	0.000507	5.066480	0.858285	-0.000101
1151	1.1442e+02	-2.9071	14.820325	0.000628	6.282435	1.064273	-0.000126
1152	1.1452e+02	-2.9274	14.727471	0.000466	4.661161	0.789622	-0.000093
1153	1.1462e+02	-2.9468	14.594246	0.000669	6.687753	1.132936	-0.000134
1154	1.1472e+02	-2.9663	14.461020	0.000669	6.687753	1.132936	-0.000134
1155	1.1482e+02	-2.9857	14.356055	0.000527	5.269139	0.892616	-0.000105
1156	1.1492e+02	-3.0071	14.243015	0.000567	5.674457	0.961279	-0.000114
1157	1.1502e+02	-3.0267	14.129975	0.000567	5.674457	0.961279	-0.000114
1158	1.1512e+02	-3.0469	14.029047	0.000507	5.066480	0.858285	-0.000101
1159	1.1522e+02	-3.0670	13.875636	0.000770	7.701049	1.304593	-0.000154
1160	1.1532e+02	-3.0867	13.758559	0.000588	5.877116	0.995610	-0.000118
1161	1.1542e+02	-3.1058	13.689927	0.000345	3.445206	0.583634	-0.000069
1162	1.1552e+02	-3.1262	13.488071	0.001013	10.132959	1.716570	-0.000203
1163	1.1562e+02	-3.1461	13.455773	0.000162	1.621274	0.274651	-0.000032
1164	1.1572e+02	-3.1667	13.278139	0.000892	8.917004	1.510581	-0.000179
1165	1.1582e+02	-3.1862	13.157025	0.000608	6.079776	1.029942	-0.000122
1166	1.1592e+02	-3.2060	13.068208	0.000446	4.458502	0.755291	-0.000089
1167	1.1602e+02	-3.2263	12.951131	0.000588	5.877116	0.995610	-0.000118
1168	1.1612e+02	-3.2446	12.821943	0.000649	6.485094	1.098605	-0.000130
1169	1.1622e+02	-3.2654	12.716978	0.000527	5.269139	0.892616	-0.000105
1170	1.1632e+02	-3.2855	12.603938	0.000567	5.674457	0.961279	-0.000114
1171	1.1642e+02	-3.3057	12.466675	0.000689	6.890412	1.167267	-0.000138
1172	1.1651e+02	-3.3261	12.365747	0.000507	5.066480	0.858285	-0.000101
1173	1.1661e+02	-3.3459	12.216373	0.000750	7.498390	1.270262	-0.000150
1174	1.1671e+02	-3.3652	12.107370	0.000547	5.471798	0.926948	-0.000110
1175	1.1681e+02	-3.3855	12.034702	0.000365	3.647865	0.617965	-0.000073
1176	1.1691e+02	-3.4052	11.881290	0.000770	7.701049	1.304593	-0.000154
1177	1.1701e+02	-3.4250	11.760176	0.000608	6.079776	1.029942	-0.000122
1178	1.1711e+02	-3.4445	11.626951	0.000669	6.687753	1.132936	-0.000134
1179	1.1721e+02	-3.4650	11.546208	0.000405	4.053184	0.686628	-0.000081
1180	1.1731e+02	-3.4853	11.429131	0.000588	5.877116	0.995610	-0.000118
1181	1.1741e+02	-3.5042	11.291869	0.000689	6.890412	1.167267	-0.000138
1182	1.1751e+02	-3.5254	11.190940	0.000507	5.066480	0.858285	-0.000101
1183	1.1761e+02	-3.5448	11.013306	0.000892	8.917004	1.510581	-0.000179
1184	1.1771e+02	-3.5655	10.944675	0.000345	3.445206	0.583634	-0.000069
1185	1.1781e+02	-3.5852	10.815487	0.000649	6.485094	1.098605	-0.000130
1186	1.1791e+02	-3.6047	10.734744	0.000405	4.053184	0.686628	-0.000081
1187	1.1801e+02	-3.6243	10.577296	0.000790	7.903708	1.338924	-0.000158
1188	1.1811e+02	-3.6450	10.460219	0.000588	5.877116	0.995610	-0.000118
1189	1.1821e+02	-3.6655	10.363327	0.000486	4.863821	0.823954	-0.000097
1190	1.1831e+02	-3.6838	10.217991	0.000730	7.295731	1.235930	-0.000146
1191	1.1841e+02	-3.7036	10.108988	0.000547	5.471798	0.926948	-0.000110
1192	1.1850e+02	-3.7241	9.951540	0.000790	7.903708	1.338924	-0.000158
1193	1.1860e+02	-3.7448	9.895020	0.000284	2.837229	0.480640	-0.000057
1194	1.1870e+02	-3.7646	9.749683	0.000730	7.295731	1.235930	-0.000146
1195	1.1880e+02	-3.7836	9.664903	0.000426	4.255843	0.720959	-0.000085
1196	1.1890e+02	-3.8025	9.531677	0.000669	6.687753	1.132936	-0.000134
1197	1.1900e+02	-3.8235	9.390378	0.000709	7.093072	1.201599	-0.000142
1198	1.1910e+02	-3.8440	9.285412	0.000527	5.269139	0.892616	-0.000105
1199	1.1920e+02	-3.8628	9.172372	0.000567	5.674457	0.961279	-0.000114
1200	1.1930e+02	-3.8823	9.059333	0.000567	5.674457	0.961279	-0.000114
1201	1.1940e+02	-3.9035	8.913996	0.000730	7.295731	1.235930	-0.000146
1202	1.1950e+02	-3.9237	8.817104	0.000486	4.863821	0.823954	-0.000097
1203	1.1960e+02	-3.9435	8.679842	0.000689	6.890412	1.167267	-0.000138
1204	1.1970e+02	-3.9630	8.591025	0.000446	4.458502	0.755291	-0.000089
1205	1.1980e+02	-3.9841	8.494134	0.000486	4.863821	0.823954	-0.000097
1206	1.1990e+02	-4.0038	8.368982	0.000628	6.282435	1.064273	-0.000126
1207	1.2000e+02	-4.0233	8.227683	0.000709	7.093072	1.201599	-0.000142
1208	1.2010e+02	-4.0424	8.122717	0.000527	5.269139	0.892616	-0.000105
1209	1.2020e+02	-4.0631	7.981417	0.000709	7.093072	1.201599	-0.000142
1210	1.2030e+02	-4.0825	7.848192	0.000669	6.687753	1.132936	-0.000134
1211	1.2039e+02	-4.1031	7.767449	0.000405	4.053184	0.686628	-0.000081
1212	1.2049e+02	-4.1229	7.630187	0.000689	6.890412	1.167267	-0.000138
1213	1.2059e+02	-4.1428	7.500998	0.000649	6.485094	1.098605	-0.000130
1214	1.2069e+02	-4.1629	7.375847	0.000628	6.282435	1.064273	-0.000126
1215	1.2079e+02	-4.1821	7.266844	0.000547	5.471798	0.926948	-0.000110
1216	1.2089e+02	-4.2032	7.161879	0.000527	5.269139	0.892616	-0.000105
1217	1.2099e+02	-4.2224	7.024616	0.000689	6.890412	1.167267	-0.000138
1218	1.2109e+02	-4.2422	6.935799	0.000446	4.458502	0.755291	-0.000089
1219	1.2119e+02	-4.2621	6.794499	0.000709	7.093072	1.201599	-0.000142
1220	1.2129e+02	-4.2828	6.689534	0.000527	5.269139	0.892616	-0.000105
1221	1.2139e+02	-4.3024	6.588606	0.000507	5.066480	0.858285	-0.000101
1222	1.2149e+02	-4.3222	6.443269	0.000730	7.295731	1.235930	-0.000146
1223	1.2159e+02	-4.3433	6.273709	0.000851	8.511686	1.441919	-0.000170
1224	1.2169e+02	-4.3619	6.209115	0.000324	3.242547	0.549302	-0.000065
1225	1.2179e+02	-4.3826	6.112224	0.000486	4.863821	0.823954	-0.000097
1226	1.2189e+02	-4.4019	5.962849	0.000750	7.498390	1.270262	-0.000150
1227	1.2199e+02	-4.4214	5.821550	0.000709	7.093072	1.201599	-0.000142
1228	1.2209e+02	-4.4420	5.728696	0.000466	4.661161	0.789622	-0.000093
1229	1.2219e+02	-4.4611	5.587396	0.000709	7.093072	1.201599	-0.000142
1230	1.2229e+02	-4.4812	5.462245	0.000628	6.282435	1.064273	-0.000126
1231	1.2239e+02	-4.5007	5.353242	0.000547	5.471798	0.926948	-0.000110
1232	1.2248e+02	-4.5212	5.228091	0.000628	6.282435	1.064273	-0.000126
1233	1.2258e+02	-4.5410	5.123125	0.000527	5.269139	0.892616	-0.000105
1234	1.2268e+02	-4.5605	5.006048	0.000588	5.877116	0.995610	-0.000118
1235	1.2278e+02	-4.5813	4.893009	0.000567	5.674457	0.961279	-0.000114
1236	1.2288e+02	-4.6017	4.792080	0.000507	5.066480	0.858285	-0.000101
1237	1.2298e+02	-4.6216	4.654818	0.000689	6.890412	1.167267	-0.000138
1238	1.2308e+02	-4.6417	4.537741	0.000588	5.877116	0.995610	-0.000118
1239	1.2318e+02	-4.6613	4.392404	0.000730	7.295731	1.235930	-0.000146
1240	1.2328e+02	-4.6823	4.275327	0.000588	5.877116	0.995610	-0.000118
1241	1.2338e+02	-4.7009	4.170361	0.000527	5.269139	0.892616	-0.000105
1242	1.2348e+02	-4.7214	4.029061	0.000709	7.093072	1.201599	-0.000142
1243	1.2358e+02	-4.7406	3.899873	0.000649	6.485094	1.098605	-0.000130
1244	1.2368e+02	-4.7610	3.746462	0.000770	7.701049	1.304593	-0.000154
1245	1.2378e+02	-4.7803	3.661682	0.000426	4.255843	0.720959	-0.000085
1246	1.2388e+02	-4.8001	3.564791	0.000486	4.863821	0.823954	-0.000097
1247	1.2398e+02	-4.8212	3.423491	0.000709	7.093072	1.201599	-0.000142
1248	1.2408e+02	-4.8406	3.274117	0.000750	7.498390	1.270262	-0.000150
1249	1.2418e+02	-4.8611	3.189337	0.000426	4.255843	0.720959	-0.000085
1250	1.2428e+02	-4.8801	3.015740	0.000871	8.714345	1.476250	-0.000174
1251	1.2438e+02	-4.8999	2.910775	0.000527	5.269139	0.892616	-0.000105
1252	1.2447e+02	-4.9191	2.793698	0.000588	5.877116	0.995610	-0.000118
1253	1.2457e+02	-4.9408	2.668547	0.000628	6.282435	1.064273	-0.000126
1254	1.2467e+02	-4.9603	2.547433	0.000608	6.079776	1.029942	-0.000122
1255	1.2477e+02	-4.9811	2.438430	0.000547	5.471798	0.926948	-0.000110
1256	1.2487e+02	-5.0006	2.297130	0.000709	7.093072	1.201599	-0.000142
1257	1.2497e+02	-5.0208	2.171979	0.000628	6.282435	1.064273	-0.000126
1258	1.2507e+02	-5.0403	2.026642	0.000730	7.295731	1.235930	-0.000146
1259	1.2517e+02	-5.0595	1.921677	0.000527	5.269139	0.892616	-0.000105
1260	1.2527e+02	-5.0793	1.796525	0.000628	6.282435	1.064273	-0.000126
1261	1.2537e+02	-5.0989	1.639077	0.000790	7.903708	1.338924	-0.000158
1262	1.2547e+02	-5.1190	1.534112	0.000527	5.269139	0.892616	-0.000105
1263	1.2557e+02	-5.1391	1.388775	0.000730	7.295731	1.235930	-0.000146
1264	1.2567e+02	-5.1593	1.259586	0.000649	6.485094	1.098605	-0.000130
1265	1.2577e+02	-5.1788	1.138472	0.000608	6.079776	1.029942	-0.000122
1266	1.2587e+02	-5.1987	1.061767	0.000385	3.850525	0.652297	-0.000077
1267	1.2597e+02	-5.2185	0.892207	0.000851	8.511686	1.441919	-0.000170
1268	1.2607e+02	-5.2386	0.763019	0.000649	6.485094	1.098605	-0.000130
1269	1.2617e+02	-5.2594	0.605570	0.000790	7.903708	1.338924	-0.000158
1270	1.2627e+02	-5.2789	0.504642	0.000507	5.066480	0.858285	-0.000101
1271	1.2636e+02	-5.2983	0.351231	0.000770	7.701049	1.304593	-0.000154
1272	1.2646e+02	-5.3186	0.238191	0.000567	5.674457	0.961279	-0.000114
1273	1.2656e+02	-5.3387	0.141300	0.000486	4.863821	0.823954	-0.000097
1274	1.2666e+02	-5.3583	-0.032297	0.000871	8.714345	1.476250	-0.000174
1275	1.2676e+02	-5.3790	-0.185708	0.000770	7.701049	1.304593	-0.000154
1276	1.2686e+02	-5.3998	-0.298748	0.000567	5.674457	0.961279	-0.000114
1277	1.2696e+02	-5.4178	-0.419862	0.000608	6.079776	1.029942	-0.000122
1278	1.2706e+02	-5.4382	-0.569236	0.000750	7.498390	1.270262	-0.000150
1279	1.2716e+02	-5.4578	-0.702462	0.000669	6.687753	1.132936	-0.000134
1280	1.2726e+02	-5.4788	-0.855873	0.000770	7.701049	1.304593	-0.000154
1281	1.2736e+02	-5.4987	-0.972950	0.000588	5.877116	0.995610	-0.000118
1282	1.2746e+02	-5.5186	-1.118287	0.000730	7.295731	1.235930	-0.000146
1283	1.2756e+02	-5.5383	-1.267661	0.000750	7.498390	1.270262	-0.000150
1284	1.2766e+02	-5.5579	-1.425109	0.000790	7.903708	1.338924	-0.000158
1285	1.2776e+02	-5.5783	-1.546223	0.000608	6.079776	1.029942	-0.000122
1286	1.2786e+02	-5.5975	-1.711746	0.000831	8.309027	1.407587	-0.000166
1287	1.2796e+02	-5.6174	-1.820748	0.000547	5.471798	0.926948	-0.000110
1288	1.2806e+02	-5.6372	-1.990308	0.000851	8.511686	1.441919	-0.000170
1289	1.2816e+02	-5.6578	-2.139682	0.000750	7.498390	1.270262	-0.000150
1290	1.2826e+02	-5.6787	-2.280982	0.000709	7.093072	1.201599	-0.000142
1291	1.2835e+02	-5.6981	-2.442467	0.000811	8.106368	1.373256	-0.000162
1292	1.2845e+02	-5.7172	-2.547433	0.000527	5.269139	0.892616	-0.000105
1293	1.2855e+02	-5.7373	-2.725067	0.000892	8.917004	1.510581	-0.000179
1294	1.2865e+02	-5.7573	-2.894626	0.000851	8.511686	1.441919	-0.000170
1295	1.2875e+02	-5.7773	-3.023815	0.000649	6.485094	1.098605	-0.000130
1296	1.2885e+02	-5.7974	-3.157040	0.000669	6.687753	1.132936	-0.000134
1297	1.2895e+02	-5.8179	-3.306414	0.000750	7.498390	1.270262	-0.000150
1298	1.2905e+02	-5.8368	-3.431565	0.000628	6.282435	1.064273	-0.000126
1299	1.2915e+02	-5.8566	-3.609199	0.000892	8.917004	1.510581	-0.000179
1300	1.2925e+02	-5.8771	-3.734351	0.000628	6.282435	1.064273	-0.000126
1301	1.2935e+02	-5.8966	-3.932170	0.000993	9.930300	1.682238	-0.000199
1302	1.2945e+02	-5.9174	-4.077507	0.000730	7.295731	1.235930	-0.000146
1303	1.2955e+02	-5.9326	-4.210733	0.000669	6.687753	1.132936	-0.000134
1304	1.2965e+02	-5.9570	-4.364144	0.000770	7.701049	1.304593	-0.000154
1305	1.2975e+02	-5.9766	-4.505443	0.000709	7.093072	1.201599	-0.000142
1306	1.2985e+02	-5.9973	-4.642706	0.000689	6.890412	1.167267	-0.000138
1307	1.2995e+02	-6.0168	-4.828414	0.000932	9.322323	1.579244	-0.000187
1308	1.3005e+02	-6.0358	-4.993937	0.000831	8.309027	1.407587	-0.000166
1309	1.3015e+02	-6.0565	-5.106977	0.000567	5.674457	0.961279	-0.000114
1310	1.3025e+02	-6.0760	-5.316908	0.001054	10.538278	1.785233	-0.000211
1311	1.3034e+02	-6.0956	-5.462245	0.000730	7.295731	1.235930	-0.000146
1312	1.3044e+02	-6.1157	-5.595470	0.000669	6.687753	1.132936	-0.000134
1313	1.3054e+02	-6.1359	-5.789253	0.000973	9.727641	1.647907	-0.000195
1314	1.3064e+02	-6.1557	-5.946701	0.000790	7.903708	1.338924	-0.000158
1315	1.3074e+02	-6.1754	-6.096075	0.000750	7.498390	1.270262	-0.000150
1316	1.3084e+02	-6.1961	-6.273709	0.000892	8.917004	1.510581	-0.000179
1317	1.3094e+02	-6.2155	-6.423083	0.000750	7.498390	1.270262	-0.000150
1318	1.3104e+02	-6.2360	-6.604754	0.000912	9.119664	1.544913	-0.000183
1319	1.3114e+02	-6.2561	-6.774314	0.000851	8.511686	1.441919	-0.000170
1320	1.3124e+02	-6.2759	-6.951948	0.000892	8.917004	1.510581	-0.000179
1321	1.3134e+02	-6.2952	-7.113433	0.000811	8.106368	1.373256	-0.000162
1322	1.3144e+02	-6.3147	-7.295104	0.000912	9.119664	1.544913	-0.000183
1323	1.3154e+02	-6.3342	-7.452553	0.000790	7.903708	1.338924	-0.000158
1324	1.3164e+02	-6.3550	-7.650372	0.000993	9.930300	1.682238	-0.000199
1325	1.3174e+02	-6.3745	-7.840118	0.000952	9.524982	1.613576	-0.000191
1326	1.3184e+02	-6.3950	-8.005640	0.000831	8.309027	1.407587	-0.000166
1327	1.3194e+02	-6.4136	-8.175200	0.000851	8.511686	1.441919	-0.000170
1328	1.3204e+02	-6.4349	-8.328611	0.000770	7.701049	1.304593	-0.000154
1329	1.3214e+02	-6.4551	-8.534505	0.001034	10.335619	1.750901	-0.000207
1330	1.3224e+02	-6.4740	-8.708102	0.000871	8.714345	1.476250	-0.000174
1331	1.3234e+02	-6.4954	-8.889773	0.000912	9.119664	1.544913	-0.000183
1332	1.3243e+02	-6.5149	-9.055295	0.000831	8.309027	1.407587	-0.000166
1333	1.3253e+02	-6.5344	-9.245041	0.000952	9.524982	1.613576	-0.000191
1334	1.3263e+02	-6.5546	-9.418638	0.000871	8.714345	1.476250	-0.000174
1335	1.3273e+02	-6.5738	-9.608383	0.000952	9.524982	1.613576	-0.000191
1336	1.3283e+02	-6.5945	-9.777943	0.000851	8.511686	1.441919	-0.000170
1337	1.3293e+02	-6.6138	-9.987874	0.001054	10.538278	1.785233	-0.000211
1338	1.3303e+02	-6.6345	-10.153396	0.000831	8.309027	1.407587	-0.000166
1339	1.3313e+02	-6.6544	-10.347179	0.000973	9.727641	1.647907	-0.000195
1340	1.3323e+02	-6.6742	-10.561147	0.001074	10.740937	1.819564	-0.000215
1341	1.3333e+02	-6.6931	-10.738781	0.000892	8.917004	1.510581	-0.000179
1342	1.3343e+02	-6.7151	-10.944675	0.001034	10.335619	1.750901	-0.000207
1343	1.3353e+02	-6.7340	-11.162680	0.001094	10.943596	1.853895	-0.000219
1344	1.3363e+02	-6.7535	-11.344351	0.000912	9.119664	1.544913	-0.000183
1345	1.3373e+02	-6.7737	-11.501800	0.000790	7.903708	1.338924	-0.000158
1346	1.3383e+02	-6.7932	-11.707694	0.001034	10.335619	1.750901	-0.000207
1347	1.3393e+02	-6.8140	-11.885328	0.000892	8.917004	1.510581	-0.000179
1348	1.3403e+02	-6.8329	-12.087184	0.001013	10.132959	1.716570	-0.000203
1349	1.3413e+02	-6.8535	-12.305190	0.001094	10.943596	1.853895	-0.000219
1350	1.3423e+02	-6.8738	-12.498972	0.000973	9.727641	1.647907	-0.000195
1351	1.3432e+02	-6.8933	-12.741200	0.001216	12.159551	2.059884	-0.000243
1352	1.3442e+02	-6.9135	-12.918834	0.000892	8.917004	1.510581	-0.000179
1353	1.3452e+02	-6.9342	-13.120691	0.001013	10.132959	1.716570	-0.000203
1354	1.3462e+02	-6.9531	-13.334659	0.001074	10.740937	1.819564	-0.000215
1355	1.3472e+02	-6.9727	-13.584962	0.001256	12.564870	2.128547	-0.000252
1356	1.3482e+02	-6.9934	-13.758559	0.000871	8.714345	1.476250	-0.000174
1357	1.3492e+02	-7.0120	-13.984638	0.001135	11.348915	1.922558	-0.000227
1358	1.3502e+02	-7.0334	-14.182458	0.000993	9.930300	1.682238	-0.000199
1359	1.3512e+02	-7.0514	-14.372203	0.000952	9.524982	1.613576	-0.000191
1360	1.3522e+02	-7.0721	-14.590209	0.001094	10.943596	1.853895	-0.000219
1361	1.3532e+02	-7.0929	-14.783991	0.000973	9.727641	1.647907	-0.000195
1362	1.3542e+02	-7.1130	-15.054479	0.001358	13.578166	2.300204	-0.000272
1363	1.3552e+02	-7.1332	-15.252299	0.000993	9.930300	1.682238	-0.000199
1364	1.3562e+02	-7.1527	-15.502601	0.001256	12.564870	2.128547	-0.000252
1365	1.3572e+02	-7.1716	-15.696384	0.000973	9.727641	1.647907	-0.000195
1366	1.3582e+02	-7.1930	-15.922463	0.001135	11.348915	1.922558	-0.000227
1367	1.3592e+02	-7.2125	-16.108172	0.000932	9.322323	1.579244	-0.000187
1368	1.3602e+02	-7.2321	-16.346363	0.001196	11.956892	2.025552	-0.000239
1369	1.3612e+02	-7.2516	-16.588591	0.001216	12.159551	2.059884	-0.000243
1370	1.3622e+02	-7.2723	-16.810633	0.001115	11.146255	1.888227	-0.000223
1371	1.3631e+02	-7.2922	-17.036713	0.001135	11.348915	1.922558	-0.000227
1372	1.3641e+02	-7.3120	-17.250681	0.001074	10.740937	1.819564	-0.000215
1373	1.3651e+02	-7.3328	-17.464649	0.001074	10.740937	1.819564	-0.000215
1374	1.3661e+02	-7.3523	-17.735137	0.001358	13.578166	2.300204	-0.000272
1375	1.3671e+02	-7.3715	-17.957180	0.001115	11.146255	1.888227	-0.000223
1376	1.3681e+02	-7.3917	-18.203445	0.001236	12.362211	2.094215	-0.000248
1377	1.3691e+02	-7.4115	-18.389153	0.000932	9.322323	1.579244	-0.000187
1378	1.3701e+02	-7.4316	-18.671753	0.001419	14.186143	2.403198	-0.000284
1379	1.3711e+02	-7.4518	-18.877647	0.001034	10.335619	1.750901	-0.000207
1380	1.3721e+02	-7.4707	-19.144098	0.001338	13.375506	2.265872	-0.000268
1381	1.3731e+02	-7.4915	-19.394400	0.001256	12.564870	2.128547	-0.000252
1382	1.3741e+02	-7.5107	-19.612405	0.001094	10.943596	1.853895	-0.000219
1383	1.3751e+02	-7.5311	-19.842522	0.001155	11.551574	1.956890	-0.000231
1384	1.3761e+02	-7.5494	-20.104936	0.001317	13.172847	2.231541	-0.000264
1385	1.3771e+02	-7.5708	-20.343127	0.001196	11.956892	2.025552	-0.000239
1386	1.3781e+02	-7.5897	-20.629764	0.001439	14.388802	2.437529	-0.000288
1387	1.3791e+02	-7.6105	-20.851806	0.001115	11.146255	1.888227	-0.000223
1388	1.3801e+02	-7.6303	-21.094034	0.001216	12.159551	2.059884	-0.000243
1389	1.3811e+02	-7.6508	-21.372597	0.001398	13.983484	2.368866	-0.000280
1390	1.3821e+02	-7.6697	-21.630973	0.001297	12.970188	2.197209	-0.000260
1391	1.3831e+02	-7.6889	-21.857053	0.001135	11.348915	1.922558	-0.000227
1392	1.3840e+02	-7.7106	-22.107355	0.001256	12.564870	2.128547	-0.000252
1393	1.3850e+02	-7.7304	-22.349583	0.001216	12.159551	2.059884	-0.000243
1394	1.3860e+02	-7.7502	-22.624109	0.001378	13.780825	2.334535	-0.000276
1395	1.3870e+02	-7.7704	-22.918820	0.001479	14.794121	2.506192	-0.000296
1396	1.3880e+02	-7.7893	-23.128751	0.001054	10.538278	1.785233	-0.000211
1397	1.3890e+02	-7.8104	-23.439610	0.001560	15.604758	2.643517	-0.000312
1398	1.3900e+02	-7.8296	-23.689913	0.001256	12.564870	2.128547	-0.000252
1399	1.3910e+02	-7.8497	-23.948289	0.001297	12.970188	2.197209	-0.000260
1400	1.3920e+02	-7.8711	-24.218777	0.001358	13.578166	2.300204	-0.000272
1401	1.3930e+02	-7.8897	-24.489265	0.001358	13.578166	2.300204	-0.000272
1402	1.3940e+02	-7.9095	-24.751679	0.001317	13.172847	2.231541	-0.000264
1403	1.3950e+02	-7.9297	-25.030242	0.001398	13.983484	2.368866	-0.000280
1404	1.3960e+02	-7.9486	-25.300730	0.001358	13.578166	2.300204	-0.000272
1405	1.3970e+02	-7.9688	-25.575255	0.001378	13.780825	2.334535	-0.000276
1406	1.3980e+02	-7.9889	-25.861892	0.001439	14.388802	2.437529	-0.000288
1407	1.3990e+02	-8.0096	-26.120268	0.001297	12.970188	2.197209	-0.000260
1408	1.4000e+02	-8.0292	-26.423053	0.001520	15.199439	2.574855	-0.000304
1409	1.4010e+02	-8.0487	-26.725839	0.001520	15.199439	2.574855	-0.000304
1410	1.4020e+02	-8.0682	-26.992290	0.001338	13.375506	2.265872	-0.000268
1411	1.4029e+02	-8.0884	-27.278926	0.001439	14.388802	2.437529	-0.000288
1412	1.4039e+02	-8.1082	-27.533266	0.001277	12.767529	2.162878	-0.000256
1413	1.4049e+02	-8.1274	-27.836051	0.001520	15.199439	2.574855	-0.000304
1414	1.4059e+02	-8.1494	-28.134799	0.001500	14.996780	2.540523	-0.000300
1415	1.4069e+02	-8.1677	-28.445658	0.001560	15.604758	2.643517	-0.000312
1416	1.4079e+02	-8.1885	-28.732295	0.001439	14.388802	2.437529	-0.000288
1417	1.4089e+02	-8.2074	-29.035080	0.001520	15.199439	2.574855	-0.000304
1418	1.4099e+02	-8.2288	-29.321717	0.001439	14.388802	2.437529	-0.000288
1419	1.4109e+02	-8.2483	-29.632576	0.001560	15.604758	2.643517	-0.000312
1420	1.4119e+02	-8.2678	-29.935361	0.001520	15.199439	2.574855	-0.000304
1421	1.4129e+02	-8.2880	-30.234110	0.001500	14.996780	2.540523	-0.000300
1422	1.4139e+02	-8.3075	-30.520746	0.001439	14.388802	2.437529	-0.000288
1423	1.4149e+02	-8.3276	-30.827568	0.001540	15.402098	2.609186	-0.000308
1424	1.4159e+02	-8.3478	-31.146502	0.001601	16.010076	2.712180	-0.000321
1425	1.4169e+02	-8.3679	-31.445250	0.001500	14.996780	2.540523	-0.000300
1426	1.4179e+02	-8.3881	-31.800518	0.001783	17.834009	3.021163	-0.000357
1427	1.4189e+02	-8.4070	-32.091192	0.001459	14.591462	2.471861	-0.000292
1428	1.4199e+02	-8.4259	-32.393977	0.001520	15.199439	2.574855	-0.000304
1429	1.4209e+02	-8.4464	-32.737134	0.001723	17.226031	2.918169	-0.000345
1430	1.4219e+02	-8.4668	-33.047993	0.001560	15.604758	2.643517	-0.000312
1431	1.4228e+02	-8.4857	-33.346741	0.001500	14.996780	2.540523	-0.000300
1432	1.4238e+02	-8.5065	-33.677786	0.001662	16.618053	2.815174	-0.000333
1433	1.4248e+02	-8.5272	-34.069388	0.001966	19.657941	3.330145	-0.000394
1434	1.4258e+02	-8.5474	-34.360062	0.001459	14.591462	2.471861	-0.000292
1435	1.4268e+02	-8.5675	-34.683033	0.001621	16.212735	2.746512	-0.000325
1436	1.4278e+02	-8.5876	-35.010041	0.001642	16.415394	2.780843	-0.000329
1437	1.4288e+02	-8.6069	-35.361272	0.001763	17.631349	2.986831	-0.000353
1438	1.4298e+02	-8.6267	-35.696354	0.001682	16.820713	2.849506	-0.000337
1439	1.4308e+02	-8.6469	-36.027399	0.001662	16.618053	2.815174	-0.000333
1440	1.4318e+02	-8.6664	-36.362482	0.001682	16.820713	2.849506	-0.000337
1441	1.4328e+02	-8.6859	-36.729861	0.001844	18.441986	3.124157	-0.000369
1442	1.4338e+02	-8.7073	-37.068980	0.001702	17.023372	2.883837	-0.000341
1443	1.4348e+02	-8.7268	-37.452508	0.001925	19.252623	3.261483	-0.000385
1444	1.4358e+02	-8.7463	-37.747219	0.001479	14.794121	2.506192	-0.000296
1445	1.4368e+02	-8.7665	-38.114599	0.001844	18.441986	3.124157	-0.000369
1446	1.4378e+02	-8.7854	-38.469866	0.001783	17.834009	3.021163	-0.000357
1447	1.4388e+02	-8.8049	-38.857431	0.001946	19.455282	3.295814	-0.000390
1448	1.4398e+02	-8.8257	-39.156180	0.001500	14.996780	2.540523	-0.000300
1449	1.4408e+02	-8.8446	-39.559893	0.002027	20.265919	3.433140	-0.000406
1450	1.4418e+02	-8.8654	-39.951495	0.001966	19.657941	3.330145	-0.000394
1451	1.4428e+02	-8.8849	-40.298689	0.001743	17.428690	2.952500	-0.000349
1452	1.4437e+02	-8.9056	-40.653957	0.001783	17.834009	3.021163	-0.000357
1453	1.4447e+02	-8.9258	-41.061708	0.002047	20.468578	3.467471	-0.000410
1454	1.4457e+02	-8.9447	-41.449273	0.001946	19.455282	3.295814	-0.000390
1455	1.4467e+02	-8.9648	-41.820689	0.001864	18.644645	3.158488	-0.000373
1456	1.4477e+02	-8.9850	-42.248625	0.002148	21.481874	3.639128	-0.000430
1457	1.4487e+02	-9.0063	-42.620042	0.001864	18.644645	3.158488	-0.000373
1458	1.4497e+02	-9.0247	-42.995496	0.001885	18.847305	3.192820	-0.000377
1459	1.4507e+02	-9.0460	-43.387098	0.001966	19.657941	3.330145	-0.000394
1460	1.4517e+02	-9.0649	-43.794848	0.002047	20.468578	3.467471	-0.000410
1461	1.4527e+02	-9.0833	-44.150116	0.001783	17.834009	3.021163	-0.000357
1462	1.4537e+02	-9.1052	-44.569979	0.002108	21.076556	3.570465	-0.000422
1463	1.4547e+02	-9.1254	-44.981766	0.002067	20.671237	3.501802	-0.000414
1464	1.4557e+02	-9.1443	-45.397591	0.002087	20.873896	3.536134	-0.000418
1465	1.4567e+02	-9.1638	-45.833602	0.002189	21.887192	3.707791	-0.000438
1466	1.4577e+02	-9.1846	-46.225204	0.001966	19.657941	3.330145	-0.000394
1467	1.4587e+02	-9.2047	-46.641029	0.002087	20.873896	3.536134	-0.000418
1468	1.4597e+02	-9.2236	-47.077040	0.002189	21.887192	3.707791	-0.000438
1469	1.4607e+02	-9.2444	-47.513051	0.002189	21.887192	3.707791	-0.000438
1470	1.4617e+02	-9.2651	-47.880430	0.001844	18.441986	3.124157	-0.000369
1471	1.4626e+02	-9.2841	-48.340663	0.002310	23.103148	3.913779	-0.000463
1472	1.4636e+02	-9.3036	-48.756488	0.002087	20.873896	3.536134	-0.000418
1473	1.4646e+02	-9.3243	-49.188462	0.002168	21.684533	3.673459	-0.000434
1474	1.4656e+02	-9.3439	-49.660807	0.002371	23.711125	4.016773	-0.000475
1475	1.4666e+02	-9.3640	-50.084706	0.002128	21.279215	3.604797	-0.000426
1476	1.4676e+02	-9.3848	-50.516679	0.002168	21.684533	3.673459	-0.000434
1477	1.4686e+02	-9.4037	-50.964802	0.002250	22.495170	3.810785	-0.000450
1478	1.4696e+02	-9.4232	-51.449258	0.002432	24.319103	4.119768	-0.000487
1479	1.4706e+02	-9.4440	-51.869120	0.002108	21.076556	3.570465	-0.000422
1480	1.4716e+02	-9.4623	-52.329353	0.002310	23.103148	3.913779	-0.000463
1481	1.4726e+02	-9.4843	-52.817847	0.002452	24.521762	4.154099	-0.000491
1482	1.4736e+02	-9.5032	-53.225598	0.002047	20.468578	3.467471	-0.000410
1483	1.4746e+02	-9.5227	-53.734277	0.002554	25.535058	4.325756	-0.000511
1484	1.4756e+02	-9.5416	-54.226807	0.002472	24.724421	4.188430	-0.000495
1485	1.4766e+02	-9.5624	-54.687041	0.002310	23.103148	3.913779	-0.000463
1486	1.4776e+02	-9.5825	-55.195720	0.002554	25.535058	4.325756	-0.000511
1487	1.4786e+02	-9.6021	-55.676139	0.002412	24.116443	4.085436	-0.000483
1488	1.4796e+02	-9.6228	-56.156558	0.002412	24.116443	4.085436	-0.000483
1489	1.4806e+02	-9.6436	-56.669274	0.002574	25.737717	4.360087	-0.000515
1490	1.4816e+02	-9.6643	-57.137582	0.002351	23.508466	3.982442	-0.000471
1491	1.4825e+02	-9.6832	-57.698744	0.002817	28.169627	4.772064	-0.000564
1492	1.4835e+02	-9.7018	-58.154940	0.002290	22.900488	3.879448	-0.000458
1493	1.4845e+02	-9.7229	-58.679768	0.002635	26.345695	4.463081	-0.000527
1494	1.4855e+02	-9.7430	-59.208633	0.002655	26.548354	4.497413	-0.000532
1495	1.4865e+02	-9.7620	-59.729423	0.002614	26.143035	4.428750	-0.000523
1496	1.4875e+02	-9.7821	-60.250214	0.002614	26.143035	4.428750	-0.000523
1497	1.4885e+02	-9.8016	-60.775041	0.002635	26.345695	4.463081	-0.000527
1498	1.4895e+02	-9.8218	-61.307943	0.002675	26.751013	4.531744	-0.000536
1499	1.4905e+02	-9.8419	-61.865068	0.002797	27.966968	4.737733	-0.000560
1500	1.4915e+02	-9.8621	-62.377784	0.002574	25.737717	4.360087	-0.000515
1501	1.4925e+02	-9.8825	-62.918760	0.002716	27.156331	4.600407	-0.000544
1502	1.4935e+02	-9.9023	-63.516257	0.002999	29.993560	5.081047	-0.000600
1503	1.4945e+02	-9.9216	-64.028973	0.002574	25.737717	4.360087	-0.000515
1504	1.4955e+02	-9.9420	-64.598209	0.002857	28.574946	4.840727	-0.000572
1505	1.4965e+02	-9.9634	-65.127074	0.002655	26.548354	4.497413	-0.000532
1506	1.4975e+02	-9.9823	-65.728607	0.003020	30.196219	5.115378	-0.000605
1507	1.4985e+02	-10.0000	-66.269583	0.002716	27.156331	4.600407	-0.000544
1508	1.4995e+02	-9.9817	-66.709631	-0.002209	-22.089852	-3.742122	-0.000442
1509	1.5005e+02	-9.9622	-67.085085	-0.001885	-18.847305	-3.192820	-0.000377
1510	1.5015e+02	-9.9414	-67.468612	-0.001925	-19.252623	-3.261483	-0.000385
1511	1.5025e+02	-9.9225	-67.811769	-0.001723	-17.226031	-2.918169	-0.000345
1512	1.5034e+02	-9.9011	-68.183185	-0.001864	-18.644645	-3.158488	-0.000373
1513	1.5044e+02	-9.8816	-68.502119	-0.001601	-16.010076	-2.712180	-0.000321
1514	1.5054e+02	-9.8611	-68.821053	-0.001601	-16.010076	-2.712180	-0.000321
1515	1.5064e+02	-9.8419	-69.127875	-0.001540	-15.402098	-2.609186	-0.000308
1516	1.5074e+02	-9.8224	-69.386252	-0.001297	-12.970188	-2.197209	-0.000260
1517	1.5084e+02	-9.8022	-69.697111	-0.001560	-15.604758	-2.643517	-0.000312
1518	1.5094e+02	-9.7827	-69.967599	-0.001358	-13.578166	-2.300204	-0.000272
1519	1.5104e+02	-9.7632	-70.234050	-0.001338	-13.375506	-2.265872	-0.000268
1520	1.5114e+02	-9.7424	-70.452056	-0.001094	-10.943596	-1.853895	-0.000219
1521	1.5124e+02	-9.7223	-70.690247	-0.001196	-11.956892	-2.025552	-0.000239
1522	1.5134e+02	-9.7021	-70.928438	-0.001196	-11.956892	-2.025552	-0.000239
1523	1.5144e+02	-9.6832	-71.190852	-0.001317	-13.172847	-2.231541	-0.000264
1524	1.5154e+02	-9.6631	-71.368486	-0.000892	-8.917004	-1.510581	-0.000179
1525	1.5164e+02	-9.6423	-71.566305	-0.000993	-9.930300	-1.682238	-0.000199
1526	1.5174e+02	-9.6222	-71.780273	-0.001074	-10.740937	-1.819564	-0.000215
1527	1.5184e+02	-9.6033	-71.978093	-0.000993	-9.930300	-1.682238	-0.000199
1528	1.5194e+02	-9.5825	-72.171876	-0.000973	-9.727641	-1.647907	-0.000195
1529	1.5204e+02	-9.5630	-72.353547	-0.000912	-9.119664	-1.544913	-0.000183
1530	1.5214e+02	-9.5441	-72.523106	-0.000851	-8.511686	-1.441919	-0.000170
1531	1.5224e+02	-9.5233	-72.700740	-0.000892	-8.917004	-1.510581	-0.000179
1532	1.5233e+02	-9.5044	-72.850114	-0.000750	-7.498390	-1.270262	-0.000150
1533	1.5243e+02	-9.4830	-72.991414	-0.000709	-7.093072	-1.201599	-0.000142
1534	1.5253e+02	-9.4635	-73.169048	-0.000892	-8.917004	-1.510581	-0.000179
1535	1.5263e+02	-9.4452	-73.314385	-0.000730	-7.295731	-1.235930	-0.000146
1536	1.5273e+02	-9.4232	-73.447610	-0.000669	-6.687753	-1.132936	-0.000134
1537	1.5283e+02	-9.4031	-73.588910	-0.000709	-7.093072	-1.201599	-0.000142
1538	1.5293e+02	-9.3829	-73.681764	-0.000466	-4.661161	-0.789622	-0.000093
1539	1.5303e+02	-9.3640	-73.782693	-0.000507	-5.066480	-0.858285	-0.000101
1540	1.5313e+02	-9.3427	-73.956290	-0.000871	-8.714345	-1.476250	-0.000174
1541	1.5323e+02	-9.3250	-74.057218	-0.000507	-5.066480	-0.858285	-0.000101
1542	1.5333e+02	-9.3030	-74.174295	-0.000588	-5.877116	-0.995610	-0.000118
1543	1.5343e+02	-9.2847	-74.271186	-0.000486	-4.863821	-0.823954	-0.000097
1544	1.5353e+02	-9.2639	-74.327706	-0.000284	-2.837229	-0.480640	-0.000057
1545	1.5363e+02	-9.2444	-74.493229	-0.000831	-8.309027	-1.407587	-0.000166
1546	1.5373e+02	-9.2242	-74.557823	-0.000324	-3.242547	-0.549302	-0.000065
1547	1.5383e+02	-9.2047	-74.638566	-0.000405	-4.053184	-0.686628	-0.000081
1548	1.5393e+02	-9.1840	-74.763717	-0.000628	-6.282435	-1.064273	-0.000126
1549	1.5403e+02	-9.1638	-74.820237	-0.000284	-2.837229	-0.480640	-0.000057
1550	1.5413e+02	-9.1449	-74.909054	-0.000446	-4.458502	-0.755291	-0.000089
1551	1.5422e+02	-9.1254	-74.993833	-0.000426	-4.255843	-0.720959	-0.000085
1552	1.5432e+02	-9.1046	-75.050353	-0.000284	-2.837229	-0.480640	-0.000057
1553	1.5442e+02	-9.0845	-75.135133	-0.000426	-4.255843	-0.720959	-0.000085
1554	1.5452e+02	-9.0649	-75.191653	-0.000284	-2.837229	-0.480640	-0.000057
1555	1.5462e+02	-9.0442	-75.288544	-0.000486	-4.863821	-0.823954	-0.000097
1556	1.5472e+02	-9.0253	-75.304693	-0.000081	-0.810637	-0.137326	-0.000016
1557	1.5482e+02	-9.0060	-75.405621	-0.000507	-5.066480	-0.858285	-0.000101
1558	1.5492e+02	-8.9850	-75.417733	-0.000061	-0.607978	-0.102994	-0.000012
1559	1.5502e+02	-8.9648	-75.490401	-0.000365	-3.647865	-0.617965	-0.000073
1560	1.5512e+02	-8.9453	-75.530773	-0.000203	-2.026592	-0.343314	-0.000041
1561	1.5522e+02	-8.9258	-75.567107	-0.000182	-1.823933	-0.308983	-0.000037
1562	1.5532e+02	-8.9056	-75.651887	-0.000426	-4.255843	-0.720959	-0.000085
1563	1.5542e+02	-8.8855	-75.672072	-0.000101	-1.013296	-0.171657	-0.000020
1564	1.5552e+02	-8.8660	-75.732629	-0.000304	-3.039888	-0.514971	-0.000061
1565	1.5562e+02	-8.8452	-75.773001	-0.000203	-2.026592	-0.343314	-0.000041
1566	1.5572e+02	-8.8257	-75.777038	-0.000020	-0.202659	-0.034331	-0.000004
1567	1.5582e+02	-8.8062	-75.829521	-0.000263	-2.634569	-0.446308	-0.000053
1568	1.5592e+02	-8.7860	-75.837595	-0.000041	-0.405318	-0.068663	-0.000008
1569	1.5602e+02	-8.7671	-75.865855	-0.000142	-1.418614	-0.240320	-0.000028
1570	1.5612e+02	-8.7463	-75.906226	-0.000203	-2.026592	-0.343314	-0.000041
1571	1.5622e+02	-8.7280	-75.910263	-0.000020	-0.202659	-0.034331	-0.000004
1572	1.5631e+02	-8.7061	-75.906226	0.000020	0.202659	0.034331	0.000004
1573	1.5641e+02	-8.6865	-75.922375	-0.000081	-0.810637	-0.137326	-0.000016
1574	1.5651e+02	-8.6664	-75.938523	-0.000081	-0.810637	-0.137326	-0.000016
1575	1.5661e+02	-8.6459	-75.954672	-0.000081	-0.810637	-0.137326	-0.000016
1576	1.5671e+02	-8.6273	-75.982932	-0.000142	-1.418614	-0.240320	-0.000028
1577	1.5681e+02	-8.6072	-75.999080	-0.000081	-0.810637	-0.137326	-0.000016
1578	1.5691e+02	-8.5876	-75.950635	0.000243	2.431910	0.411977	0.000049
1579	1.5701e+02	-8.5675	-75.999080	-0.000243	-2.431910	-0.411977	-0.000049
1580	1.5711e+02	-8.5461	-76.003117	-0.000020	-0.202659	-0.034331	-0.000004
1581	1.5721e+02	-8.5266	-75.978895	0.000122	1.215955	0.205988	0.000024
1582	1.5731e+02	-8.5059	-75.991006	-0.000061	-0.607978	-0.102994	-0.000012
1583	1.5741e+02	-8.4863	-75.966783	0.000122	1.215955	0.205988	0.000024
1584	1.5751e+02	-8.4674	-75.970820	-0.000020	-0.202659	-0.034331	-0.000004
1585	1.5761e+02	-8.4473	-75.958709	0.000061	0.607978	0.102994	0.000012
1586	1.5771e+02	-8.4271	-75.986969	-0.000142	-1.418614	-0.240320	-0.000028
1587	1.5781e+02	-8.4067	-75.902189	0.000426	4.255843	0.720959	0.000085
1588	1.5791e+02	-8.3875	-75.954672	-0.000263	-2.634569	-0.446308	-0.000053
1589	1.5801e+02	-8.3667	-75.930449	0.000122	1.215955	0.205988	0.000024
1590	1.5811e+02	-8.3472	-75.934486	-0.000020	-0.202659	-0.034331	-0.000004
1591	1.5821e+02	-8.3276	-75.906226	0.000142	1.418614	0.240320	0.000028
1592	1.5830e+02	-8.3081	-75.890078	0.000081	0.810637	0.137326	0.000016
1593	1.5840e+02	-8.2880	-75.877966	0.000061	0.607978	0.102994	0.000012
1594	1.5850e+02	-8.2675	-75.845669	0.000162	1.621274	0.274651	0.000032
1595	1.5860e+02	-8.2477	-75.845669	0.000000	0.000000	0.000000	0.000000
1596	1.5870e+02	-8.2281	-75.813372	0.000162	1.621274	0.274651	0.000032
1597	1.5880e+02	-8.2074	-75.764926	0.000243	2.431910	0.411977	0.000049
1598	1.5890e+02	-8.1891	-75.768964	-0.000020	-0.202659	-0.034331	-0.000004
1599	1.5900e+02	-8.1683	-75.700332	0.000345	3.445206	0.583634	0.000069
1600	1.5910e+02	-8.1488	-75.696295	0.000020	0.202659	0.034331	0.000004
1601	1.5920e+02	-8.1293	-75.643812	0.000263	2.634569	0.446308	0.000053
1602	1.5930e+02	-8.1082	-75.680147	-0.000182	-1.823933	-0.308983	-0.000037
1603	1.5940e+02	-8.0878	-75.607478	0.000365	3.647865	0.617965	0.000073
1604	1.5950e+02	-8.0687	-75.591330	0.000081	0.810637	0.137326	0.000016
1605	1.5960e+02	-8.0490	-75.550958	0.000203	2.026592	0.343314	0.000041
1606	1.5970e+02	-8.0286	-75.470215	0.000405	4.053184	0.686628	0.000081
1607	1.5980e+02	-8.0084	-75.474253	-0.000020	-0.202659	-0.034331	-0.000004
1608	1.5990e+02	-7.9889	-75.425807	0.000243	2.431910	0.411977	0.000049
1609	1.6000e+02	-7.9688	-75.397547	0.000142	1.418614	0.240320	0.000028
1610	1.6010e+02	-7.9492	-75.385436	0.000061	0.607978	0.102994	0.000012
1611	1.6019e+02	-7.9303	-75.320841	0.000324	3.242547	0.549302	0.000065
1612	1.6029e+02	-7.9095	-75.304693	0.000081	0.810637	0.137326	0.000016
1613	1.6039e+02	-7.8894	-75.248173	0.000284	2.837229	0.480640	0.000057
1614	1.6049e+02	-7.8693	-75.167430	0.000405	4.053184	0.686628	0.000081
1615	1.6059e+02	-7.8490	-75.155319	0.000061	0.607978	0.102994	0.000012
1616	1.6069e+02	-7.8302	-75.102836	0.000263	2.634569	0.446308	0.000053
1617	1.6079e+02	-7.8101	-75.066502	0.000182	1.823933	0.308983	0.000037
1618	1.6089e+02	-7.7902	-75.009982	0.000284	2.837229	0.480640	0.000057
1619	1.6099e+02	-7.7692	-74.957499	0.000263	2.634569	0.446308	0.000053
1620	1.6109e+02	-7.7484	-74.945388	0.000061	0.607978	0.102994	0.000012
1621	1.6119e+02	-7.7289	-74.913091	0.000162	1.621274	0.274651	0.000032
1622	1.6129e+02	-7.7100	-74.884831	0.000142	1.418614	0.240320	0.000028
1623	1.6139e+02	-7.6898	-74.779865	0.000527	5.269139	0.892616	0.000105
1624	1.6149e+02	-7.6709	-74.783902	-0.000020	-0.202659	-0.034331	-0.000004
1625	1.6159e+02	-7.6508	-74.715271	0.000345	3.445206	0.583634	0.000069
1626	1.6169e+02	-7.6291	-74.695085	0.000101	1.013296	0.171657	0.000020
1627	1.6179e+02	-7.6099	-74.586083	0.000547	5.471798	0.926948	0.000110
1628	1.6189e+02	-7.5903	-74.590120	-0.000020	-0.202659	-0.034331	-0.000004
1629	1.6199e+02	-7.5714	-74.513414	0.000385	3.850525	0.652297	0.000077
1630	1.6209e+02	-7.5507	-74.485154	0.000142	1.418614	0.240320	0.000028
1631	1.6219e+02	-7.5317	-74.432672	0.000263	2.634569	0.446308	0.000053
1632	1.6228e+02	-7.5122	-74.392300	0.000203	2.026592	0.343314	0.000041
1633	1.6238e+02	-7.4915	-74.287335	0.000527	5.269139	0.892616	0.000105
1634	1.6248e+02	-7.4713	-74.234852	0.000263	2.634569	0.446308	0.000053
1635	1.6258e+02	-7.4509	-74.230815	0.000020	0.202659	0.034331	0.000004
1636	1.6268e+02	-7.4310	-74.150072	0.000405	4.053184	0.686628	0.000081
1637	1.6278e+02	-7.4109	-74.081441	0.000345	3.445206	0.583634	0.000069
1638	1.6288e+02	-7.3914	-74.028958	0.000263	2.634569	0.446308	0.000053
1639	1.6298e+02	-7.3712	-74.032995	-0.000020	-0.202659	-0.034331	-0.000004
1640	1.6308e+02	-7.3517	-73.903807	0.000649	6.485094	1.098605	0.000130
1641	1.6318e+02	-7.3325	-73.859398	0.000223	2.229251	0.377645	0.000045
1642	1.6328e+02	-7.3120	-73.798841	0.000304	3.039888	0.514971	0.000061
1643	1.6338e+02	-7.2913	-73.770581	0.000142	1.418614	0.240320	0.000028
1644	1.6348e+02	-7.2714	-73.657542	0.000567	5.674457	0.961279	0.000114
1645	1.6358e+02	-7.2528	-73.613133	0.000223	2.229251	0.377645	0.000045
1646	1.6368e+02	-7.2318	-73.637356	-0.000122	-1.215955	-0.205988	-0.000024
1647	1.6378e+02	-7.2125	-73.492019	0.000730	7.295731	1.235930	0.000146
1648	1.6388e+02	-7.1921	-73.451648	0.000203	2.026592	0.343314	0.000041
1649	1.6398e+02	-7.1722	-73.407239	0.000223	2.229251	0.377645	0.000045
1650	1.6408e+02	-7.1527	-73.362831	0.000223	2.229251	0.377645	0.000045
1651	1.6418e+02	-7.1320	-73.294199	0.000345	3.445206	0.583634	0.000069
1652	1.6427e+02	-7.1118	-73.229605	0.000324	3.242547	0.549302	0.000065
1653	1.6437e+02	-7.0929	-73.156937	0.000365	3.647865	0.617965	0.000073
1654	1.6447e+02	-7.0724	-73.104454	0.000263	2.634569	0.446308	0.000053
1655	1.6457e+02	-7.0529	-73.031786	0.000365	3.647865	0.617965	0.000073
1656	1.6467e+02	-7.0337	-72.971228	0.000304	3.039888	0.514971	0.000061
1657	1.6477e+02	-7.0129	-72.890486	0.000405	4.053184	0.686628	0.000081
1658	1.6487e+02	-6.9946	-72.874337	0.000081	0.810637	0.137326	0.000016
1659	1.6497e+02	-6.9727	-72.789557	0.000426	4.255843	0.720959	0.000085
1660	1.6507e+02	-6.9525	-72.773409	0.000081	0.810637	0.137326	0.000016
1661	1.6517e+02	-6.9330	-72.672480	0.000507	5.066480	0.858285	0.000101
1662	1.6527e+02	-6.9135	-72.607886	0.000324	3.242547	0.549302	0.000065
1663	1.6537e+02	-6.8930	-72.571552	0.000182	1.823933	0.308983	0.000037
1664	1.6547e+02	-6.8741	-72.543292	0.000142	1.418614	0.240320	0.000028
1665	1.6557e+02	-6.8542	-72.466586	0.000385	3.850525	0.652297	0.000077
1666	1.6567e+02	-6.8335	-72.389881	0.000385	3.850525	0.652297	0.000077
1667	1.6577e+02	-6.8140	-72.301064	0.000446	4.458502	0.755291	0.000089
1668	1.6587e+02	-6.7938	-72.228395	0.000365	3.647865	0.617965	0.000073
1669	1.6597e+02	-6.7740	-72.183987	0.000223	2.229251	0.377645	0.000045
1670	1.6607e+02	-6.7542	-72.163801	0.000101	1.013296	0.171657	0.000020
1671	1.6616e+02	-6.7343	-72.074984	0.000446	4.458502	0.755291	0.000089
1672	1.6626e+02	-6.7142	-71.998279	0.000385	3.850525	0.652297	0.000077
1673	1.6636e+02	-6.6940	-71.949833	0.000243	2.431910	0.411977	0.000049
1674	1.6646e+02	-6.6739	-71.869090	0.000405	4.053184	0.686628	0.000081
1675	1.6656e+02	-6.6541	-71.812571	0.000284	2.837229	0.480640	0.000057
1676	1.6666e+02	-6.6345	-71.727791	0.000426	4.255843	0.720959	0.000085
1677	1.6676e+02	-6.6150	-71.675308	0.000263	2.634569	0.446308	0.000053
1678	1.6686e+02	-6.5942	-71.602639	0.000365	3.647865	0.617965	0.000073
1679	1.6696e+02	-6.5747	-71.481525	0.000608	6.079776	1.029942	0.000122
1680	1.6706e+02	-6.5540	-71.469414	0.000061	0.607978	0.102994	0.000012
1681	1.6716e+02	-6.5344	-71.429043	0.000203	2.026592	0.343314	0.000041
1682	1.6726e+02	-6.5155	-71.324077	0.000527	5.269139	0.892616	0.000105
1683	1.6736e+02	-6.4941	-71.303891	0.000101	1.013296	0.171657	0.000020
1684	1.6746e+02	-6.4745	-71.211037	0.000466	4.661161	0.789622	0.000093
1685	1.6756e+02	-6.4545	-71.170666	0.000203	2.026592	0.343314	0.000041
1686	1.6766e+02	-6.4355	-71.065700	0.000527	5.269139	0.892616	0.000105
1687	1.6776e+02	-6.4142	-70.988995	0.000385	3.850525	0.652297	0.000077
1688	1.6786e+02	-6.3947	-70.948623	0.000203	2.026592	0.343314	0.000041
1689	1.6796e+02	-6.3751	-70.863844	0.000426	4.255843	0.720959	0.000085
1690	1.6806e+02	-6.3554	-70.819435	0.000223	2.229251	0.377645	0.000045
1691	1.6816e+02	-6.3354	-70.738692	0.000405	4.053184	0.686628	0.000081
1692	1.6825e+02	-6.3153	-70.674098	0.000324	3.242547	0.549302	0.000065
1693	1.6835e+02	-6.2961	-70.589318	0.000426	4.255843	0.720959	0.000085
1694	1.6845e+02	-6.2747	-70.520687	0.000345	3.445206	0.583634	0.000069
1695	1.6855e+02	-6.2561	-70.496464	0.000122	1.215955	0.205988	0.000024
1696	1.6865e+02	-6.2360	-70.419759	0.000385	3.850525	0.652297	0.000077
1697	1.6875e+02	-6.2158	-70.330942	0.000446	4.458502	0.755291	0.000089
1698	1.6885e+02	-6.1963	-70.270385	0.000304	3.039888	0.514971	0.000061
1699	1.6895e+02	-6.1755	-70.197716	0.000365	3.647865	0.617965	0.000073
1700	1.6905e+02	-6.1560	-70.133122	0.000324	3.242547	0.549302	0.000065
1701	1.6915e+02	-6.1371	-70.100825	0.000162	1.621274	0.274651	0.000032
1702	1.6925e+02	-6.1157	-70.020082	0.000405	4.053184	0.686628	0.000081
1703	1.6935e+02	-6.0962	-69.939340	0.000405	4.053184	0.686628	0.000081
1704	1.6945e+02	-6.0760	-69.846485	0.000466	4.661161	0.789622	0.000093
1705	1.6955e+02	-6.0556	-69.810151	0.000182	1.823933	0.308983	0.000037
1706	1.6965e+02	-6.0376	-69.685000	0.000628	6.282435	1.064273	0.000126
1707	1.6975e+02	-6.0162	-69.624443	0.000304	3.039888	0.514971	0.000061
1708	1.6985e+02	-5.9943	-69.575997	0.000243	2.431910	0.411977	0.000049
1709	1.6995e+02	-5.9766	-69.483143	0.000466	4.661161	0.789622	0.000093
1710	1.7005e+02	-5.9564	-69.422586	0.000304	3.039888	0.514971	0.000061
1711	1.7015e+02	-5.9369	-69.366066	0.000284	2.837229	0.480640	0.000057
1712	1.7024e+02	-5.9177	-69.261101	0.000527	5.269139	0.892616	0.000105
1713	1.7034e+02	-5.8966	-69.224767	0.000182	1.823933	0.308983	0.000037
1714	1.7044e+02	-5.8771	-69.131912	0.000466	4.661161	0.789622	0.000093
1715	1.7054e+02	-5.8575	-69.067318	0.000324	3.242547	0.549302	0.000065
1716	1.7064e+02	-5.8386	-69.006761	0.000304	3.039888	0.514971	0.000061
1717	1.7074e+02	-5.8173	-68.942167	0.000324	3.242547	0.549302	0.000065
1718	1.7084e+02	-5.7965	-68.865461	0.000385	3.850525	0.652297	0.000077
1719	1.7094e+02	-5.7764	-68.784719	0.000405	4.053184	0.686628	0.000081
1720	1.7104e+02	-5.7571	-68.712050	0.000365	3.647865	0.617965	0.000073
1721	1.7114e+02	-5.7370	-68.627270	0.000426	4.255843	0.720959	0.000085
1722	1.7124e+02	-5.7172	-68.534416	0.000466	4.661161	0.789622	0.000093
1723	1.7134e+02	-5.6976	-68.465785	0.000345	3.445206	0.583634	0.000069
1724	1.7144e+02	-5.6763	-68.421376	0.000223	2.229251	0.377645	0.000045
1725	1.7154e+02	-5.6573	-68.324485	0.000486	4.863821	0.823954	0.000097
1726	1.7164e+02	-5.6384	-68.223557	0.000507	5.066480	0.858285	0.000101
1727	1.7174e+02	-5.6177	-68.195297	0.000142	1.418614	0.240320	0.000028
1728	1.7184e+02	-5.5975	-68.122628	0.000365	3.647865	0.617965	0.000073
1729	1.7194e+02	-5.5780	-67.997477	0.000628	6.282435	1.064273	0.000126
1730	1.7204e+02	-5.5579	-67.969217	0.000142	1.418614	0.240320	0.000028
1731	1.7213e+02	-5.5383	-67.912697	0.000284	2.837229	0.480640	0.000057
1732	1.7223e+02	-5.5176	-67.819843	0.000466	4.661161	0.789622	0.000093
1733	1.7233e+02	-5.4971	-67.747175	0.000365	3.647865	0.617965	0.000073
1734	1.7243e+02	-5.4791	-67.642209	0.000527	5.269139	0.892616	0.000105
1735	1.7253e+02	-5.4583	-67.533207	0.000547	5.471798	0.926948	0.000110
1736	1.7263e+02	-5.4376	-67.504947	0.000142	1.418614	0.240320	0.000028
1737	1.7273e+02	-5.4181	-67.412093	0.000466	4.661161	0.789622	0.000093
1738	1.7283e+02	-5.3989	-67.339424	0.000365	3.647865	0.617965	0.000073
1739	1.7293e+02	-5.3787	-67.214273	0.000628	6.282435	1.064273	0.000126
1740	1.7303e+02	-5.3589	-67.157753	0.000284	2.837229	0.480640	0.000057
1741	1.7313e+02	-5.3387	-67.101233	0.000284	2.837229	0.480640	0.000057
1742	1.7323e+02	-5.3186	-67.004342	0.000486	4.863821	0.823954	0.000097
1743	1.7333e+02	-5.2985	-66.899376	0.000527	5.269139	0.892616	0.000105
1744	1.7343e+02	-5.2789	-66.830745	0.000345	3.445206	0.583634	0.000069
1745	1.7353e+02	-5.2588	-66.750002	0.000405	4.053184	0.686628	0.000081
1746	1.7363e+02	-5.2386	-66.669260	0.000405	4.053184	0.686628	0.000081
1747	1.7373e+02	-5.2191	-66.604665	0.000324	3.242547	0.549302	0.000065
1748	1.7383e+02	-5.1990	-66.507774	0.000486	4.863821	0.823954	0.000097
1749	1.7393e+02	-5.1782	-66.418957	0.000446	4.458502	0.755291	0.000089
1750	1.7403e+02	-5.1590	-66.366474	0.000263	2.634569	0.446308	0.000053
1751	1.7413e+02	-5.1395	-66.277657	0.000446	4.458502	0.755291	0.000089
1752	1.7422e+02	-5.1202	-66.184803	0.000466	4.661161	0.789622	0.000093
1753	1.7432e+02	-5.0999	-66.116172	0.000345	3.445206	0.583634	0.000069
1754	1.7442e+02	-5.0797	-66.015244	0.000507	5.066480	0.858285	0.000101
1755	1.7452e+02	-5.0592	-65.950649	0.000324	3.242547	0.549302	0.000065
1756	1.7462e+02	-5.0394	-65.813387	0.000689	6.890412	1.167267	0.000138
1757	1.7472e+02	-5.0198	-65.777053	0.000182	1.823933	0.308983	0.000037
1758	1.7482e+02	-4.9992	-65.692273	0.000426	4.255843	0.720959	0.000085
1759	1.7492e+02	-4.9796	-65.583270	0.000547	5.471798	0.926948	0.000110
1760	1.7502e+02	-4.9603	-65.510602	0.000365	3.647865	0.617965	0.000073
1761	1.7512e+02	-4.9406	-65.413710	0.000486	4.863821	0.823954	0.000097
1762	1.7522e+02	-4.9203	-65.337005	0.000385	3.850525	0.652297	0.000077
1763	1.7532e+02	-4.8993	-65.300671	0.000182	1.823933	0.308983	0.000037
1764	1.7542e+02	-4.8802	-65.191668	0.000547	5.471798	0.926948	0.000110
1765	1.7552e+02	-4.8602	-65.082665	0.000547	5.471798	0.926948	0.000110
1766	1.7562e+02	-4.8401	-64.993848	0.000446	4.458502	0.755291	0.000089
1767	1.7572e+02	-4.8208	-64.921180	0.000365	3.647865	0.617965	0.000073
1768	1.7582e+02	-4.8010	-64.812177	0.000547	5.471798	0.926948	0.000110
1769	1.7592e+02	-4.7803	-64.723360	0.000446	4.458502	0.755291	0.000089
1770	1.7602e+02	-4.7610	-64.650692	0.000365	3.647865	0.617965	0.000073
1771	1.7612e+02	-4.7403	-64.553800	0.000486	4.863821	0.823954	0.000097
1772	1.7621e+02	-4.7217	-64.424612	0.000649	6.485094	1.098605	0.000130
1773	1.7631e+02	-4.7009	-64.351944	0.000365	3.647865	0.617965	0.000073
1774	1.7641e+02	-4.6813	-64.303498	0.000243	2.431910	0.411977	0.000049
1775	1.7651e+02	-4.6613	-64.206607	0.000486	4.863821	0.823954	0.000097
1776	1.7661e+02	-4.6411	-64.129901	0.000385	3.850525	0.652297	0.000077
1777	1.7671e+02	-4.6216	-64.037047	0.000466	4.661161	0.789622	0.000093
1778	1.7681e+02	-4.6014	-63.940156	0.000486	4.863821	0.823954	0.000097
1779	1.7691e+02	-4.5810	-63.819042	0.000608	6.079776	1.029942	0.000122
1780	1.7701e+02	-4.5609	-63.762522	0.000284	2.837229	0.480640	0.000057
1781	1.7711e+02	-4.5413	-63.637371	0.000628	6.282435	1.064273	0.000126
1782	1.7721e+02	-4.5216	-63.572776	0.000324	3.242547	0.549302	0.000065
1783	1.7731e+02	-4.5013	-63.500108	0.000365	3.647865	0.617965	0.000073
1784	1.7741e+02	-4.4809	-63.395142	0.000527	5.269139	0.892616	0.000105
1785	1.7751e+02	-4.4614	-63.269991	0.000628	6.282435	1.064273	0.000126
1786	1.7761e+02	-4.4412	-63.189249	0.000405	4.053184	0.686628	0.000081
1787	1.7771e+02	-4.4212	-63.128692	0.000304	3.039888	0.514971	0.000061
1788	1.7781e+02	-4.4012	-63.003540	0.000628	6.282435	1.064273	0.000126
1789	1.7791e+02	-4.3820	-62.963169	0.000203	2.026592	0.343314	0.000041
1790	1.7801e+02	-4.3628	-62.846092	0.000588	5.877116	0.995610	0.000118
1791	1.7810e+02	-4.3420	-62.757275	0.000446	4.458502	0.755291	0.000089
1792	1.7820e+02	-4.3219	-62.688644	0.000345	3.445206	0.583634	0.000069
1793	1.7830e+02	-4.3021	-62.567530	0.000608	6.079776	1.029942	0.000122
1794	1.7840e+02	-4.2827	-62.494861	0.000365	3.647865	0.617965	0.000073
1795	1.7850e+02	-4.2615	-62.402007	0.000466	4.661161	0.789622	0.000093
1796	1.7860e+02	-4.2436	-62.288967	0.000567	5.674457	0.961279	0.000114
1797	1.7870e+02	-4.2227	-62.196113	0.000466	4.661161	0.789622	0.000093
1798	1.7880e+02	-4.2029	-62.131519	0.000324	3.242547	0.549302	0.000065
1799	1.7890e+02	-4.1824	-62.014442	0.000588	5.877116	0.995610	0.000118
1800	1.7900e+02	-4.1626	-61.945811	0.000345	3.445206	0.583634	0.000069
1801	1.7910e+02	-4.1428	-61.816622	0.000649	6.485094	1.098605	0.000130
1802	1.7920e+02	-4.1226	-61.731843	0.000426	4.255843	0.720959	0.000085
1803	1.7930e+02	-4.1018	-61.659174	0.000365	3.647865	0.617965	0.000073
1804	1.7940e+02	-4.0833	-61.538060	0.000608	6.079776	1.029942	0.000122
1805	1.7950e+02	-4.0628	-61.457317	0.000405	4.053184	0.686628	0.000081
1806	1.7960e+02	-4.0436	-61.352352	0.000527	5.269139	0.892616	0.000105
1807	1.7970e+02	-4.0228	-61.299869	0.000263	2.634569	0.446308	0.000053
1808	1.7980e+02	-4.0030	-61.158569	0.000709	7.093072	1.201599	0.000142
1809	1.7990e+02	-3.9836	-61.073789	0.000426	4.255843	0.720959	0.000085
1810	1.8000e+02	-3.9639	-60.968824	0.000527	5.269139	0.892616	0.000105
1811	1.8009e+02	-3.9429	-60.855784	0.000567	5.674457	0.961279	0.000114
1812	1.8019e+02	-3.9226	-60.783116	0.000365	3.647865	0.617965	0.000073
1813	1.8029e+02	-3.9035	-60.726596	0.000284	2.837229	0.480640	0.000057
1814	1.8039e+02	-3.8834	-60.569147	0.000790	7.903708	1.338924	0.000158
1815	1.8049e+02	-3.8641	-60.548962	0.000101	1.013296	0.171657	0.000020
1816	1.8059e+02	-3.8440	-60.403625	0.000730	7.295731	1.235930	0.000146
1817	1.8069e+02	-3.8248	-60.322882	0.000405	4.053184	0.686628	0.000081
1818	1.8079e+02	-3.8034	-60.298659	0.000122	1.215955	0.205988	0.000024
1819	1.8089e+02	-3.7842	-60.145248	0.000770	7.701049	1.304593	0.000154
1820	1.8099e+02	-3.7648	-60.020097	0.000628	6.282435	1.064273	0.000126
1821	1.8109e+02	-3.7442	-59.947429	0.000365	3.647865	0.617965	0.000073
1822	1.8119e+02	-3.7251	-59.826315	0.000608	6.079776	1.029942	0.000122
1823	1.8129e+02	-3.7045	-59.785943	0.000203	2.026592	0.343314	0.000041
1824	1.8139e+02	-3.6847	-59.664829	0.000608	6.079776	1.029942	0.000122
1825	1.8149e+02	-3.6655	-59.580049	0.000426	4.255843	0.720959	0.000085
1826	1.8159e+02	-3.6441	-59.462972	0.000588	5.877116	0.995610	0.000118
1827	1.8169e+02	-3.6243	-59.406452	0.000284	2.837229	0.480640	0.000057
1828	1.8179e+02	-3.6041	-59.269190	0.000689	6.890412	1.167267	0.000138
1829	1.8189e+02	-3.5849	-59.196521	0.000365	3.647865	0.617965	0.000073
1830	1.8199e+02	-3.5645	-59.087519	0.000547	5.471798	0.926948	0.000110
1831	1.8209e+02	-3.5449	-58.986590	0.000507	5.066480	0.858285	0.000101
1832	1.8218e+02	-3.5253	-58.893736	0.000466	4.661161	0.789622	0.000093
1833	1.8228e+02	-3.5039	-58.804919	0.000446	4.458502	0.755291	0.000089
1834	1.8238e+02	-3.4848	-58.695916	0.000547	5.471798	0.926948	0.000110
1835	1.8248e+02	-3.4656	-58.619211	0.000385	3.850525	0.652297	0.000077
1836	1.8258e+02	-3.4451	-58.473874	0.000730	7.295731	1.235930	0.000146
1837	1.8268e+02	-3.4246	-58.401206	0.000365	3.647865	0.617965	0.000073
1838	1.8278e+02	-3.4048	-58.332574	0.000345	3.445206	0.583634	0.000069
1839	1.8288e+02	-3.3858	-58.239720	0.000466	4.661161	0.789622	0.000093
1840	1.8298e+02	-3.3655	-58.150903	0.000446	4.458502	0.755291	0.000089
1841	1.8308e+02	-3.3459	-58.025752	0.000628	6.282435	1.064273	0.000126
1842	1.8318e+02	-3.3258	-57.924824	0.000507	5.066480	0.858285	0.000101
1843	1.8328e+02	-3.3057	-57.856192	0.000345	3.445206	0.583634	0.000069
1844	1.8338e+02	-3.2855	-57.735078	0.000608	6.079776	1.029942	0.000122
1845	1.8348e+02	-3.2658	-57.654335	0.000405	4.053184	0.686628	0.000081
1846	1.8358e+02	-3.2458	-57.525147	0.000649	6.485094	1.098605	0.000130
1847	1.8368e+02	-3.2257	-57.416144	0.000547	5.471798	0.926948	0.000110
1848	1.8378e+02	-3.2065	-57.371736	0.000223	2.229251	0.377645	0.000045
1849	1.8388e+02	-3.1864	-57.226399	0.000730	7.295731	1.235930	0.000146
1850	1.8398e+02	-3.1659	-57.133545	0.000466	4.661161	0.789622	0.000093
1851	1.8407e+02	-3.1461	-57.056839	0.000385	3.850525	0.652297	0.000077
1852	1.8417e+02	-3.1261	-56.963985	0.000466	4.661161	0.789622	0.000093
1853	1.8427e+02	-3.1064	-56.867094	0.000486	4.863821	0.823954	0.000097
1854	1.8437e+02	-3.0862	-56.790388	0.000385	3.850525	0.652297	0.000077
1855	1.8447e+02	-3.0670	-56.717720	0.000365	3.647865	0.617965	0.000073
1856	1.8457e+02	-3.0466	-56.584495	0.000669	6.687753	1.132936	0.000134
1857	1.8467e+02	-3.0266	-56.463380	0.000608	6.079776	1.029942	0.000122
1858	1.8477e+02	-3.0072	-56.354378	0.000547	5.471798	0.926948	0.000110
1859	1.8487e+02	-2.9858	-56.309969	0.000223	2.229251	0.377645	0.000045
1860	1.8497e+02	-2.9666	-56.196929	0.000567	5.674457	0.961279	0.000114
1861	1.8507e+02	-2.9477	-56.091964	0.000527	5.269139	0.892616	0.000105
1862	1.8517e+02	-2.9269	-56.003147	0.000446	4.458502	0.755291	0.000089
1863	1.8527e+02	-2.9068	-55.894144	0.000547	5.471798	0.926948	0.000110
1864	1.8537e+02	-2.8865	-55.773030	0.000608	6.079776	1.029942	0.000122
1865	1.8547e+02	-2.8668	-55.680176	0.000466	4.661161	0.789622	0.000093
1866	1.8557e+02	-2.8470	-55.563099	0.000588	5.877116	0.995610	0.000118
1867	1.8567e+02	-2.8271	-55.490431	0.000365	3.647865	0.617965	0.000073
1868	1.8577e+02	-2.8070	-55.417762	0.000365	3.647865	0.617965	0.000073
1869	1.8587e+02	-2.7873	-55.304722	0.000567	5.674457	0.961279	0.000114
1870	1.8597e+02	-2.7686	-55.159386	0.000730	7.295731	1.235930	0.000146
1871	1.8606e+02	-2.7466	-55.139200	0.000101	1.013296	0.171657	0.000020
1872	1.8616e+02	-2.7271	-54.957529	0.000912	9.119664	1.544913	0.000183
1873	1.8626e+02	-2.7078	-54.880823	0.000385	3.850525	0.652297	0.000077
1874	1.8636e+02	-2.6867	-54.775858	0.000527	5.269139	0.892616	0.000105
1875	1.8646e+02	-2.6677	-54.711264	0.000324	3.242547	0.549302	0.000065
1876	1.8656e+02	-2.6477	-54.586112	0.000628	6.282435	1.064273	0.000126
1877	1.8666e+02	-2.6288	-54.464998	0.000608	6.079776	1.029942	0.000122
1878	1.8676e+02	-2.6071	-54.396367	0.000345	3.445206	0.583634	0.000069
1879	1.8686e+02	-2.5873	-54.255067	0.000709	7.093072	1.201599	0.000142
1880	1.8696e+02	-2.5687	-54.182399	0.000365	3.647865	0.617965	0.000073
1881	1.8706e+02	-2.5488	-54.097619	0.000426	4.255843	0.720959	0.000085
1882	1.8716e+02	-2.5275	-53.972468	0.000628	6.282435	1.064273	0.000126
1883	1.8726e+02	-2.5095	-53.843279	0.000649	6.485094	1.098605	0.000130
1884	1.8736e+02	-2.4881	-53.770611	0.000365	3.647865	0.617965	0.000073
1885	1.8746e+02	-2.4692	-53.685831	0.000426	4.255843	0.720959	0.000085
1886	1.8756e+02	-2.4499	-53.524346	0.000811	8.106368	1.373256	0.000162
1887	1.8766e+02	-2.4289	-53.455714	0.000345	3.445206	0.583634	0.000069
1888	1.8776e+02	-2.4094	-53.322489	0.000669	6.687753	1.132936	0.000134
1889	1.8786e+02	-2.3901	-53.290192	0.000162	1.621274	0.274651	0.000032
1890	1.8796e+02	-2.3697	-53.173115	0.000588	5.877116	0.995610	0.000118
1891	1.8806e+02	-2.3486	-53.039889	0.000669	6.687753	1.132936	0.000134
1892	1.8815e+02	-2.3290	-52.955109	0.000426	4.255843	0.720959	0.000085
1893	1.8825e+02	-2.3096	-52.821884	0.000669	6.687753	1.132936	0.000134
1894	1.8835e+02	-2.2903	-52.741141	0.000405	4.053184	0.686628	0.000081
1895	1.8845e+02	-2.2687	-52.632139	0.000547	5.471798	0.926948	0.000110
1896	1.8855e+02	-2.2501	-52.535247	0.000486	4.863821	0.823954	0.000097
1897	1.8865e+02	-2.2296	-52.406059	0.000649	6.485094	1.098605	0.000130
1898	1.8875e+02	-2.2102	-52.288982	0.000588	5.877116	0.995610	0.000118
1899	1.8885e+02	-2.1898	-52.208239	0.000405	4.053184	0.686628	0.000081
1900	1.8895e+02	-2.1706	-52.111348	0.000486	4.863821	0.823954	0.000097
1901	1.8905e+02	-2.1503	-51.961974	0.000750	7.498390	1.270262	0.000150
1902	1.8915e+02	-2.1307	-51.881231	0.000405	4.053184	0.686628	0.000081
1903	1.8925e+02	-2.1105	-51.748006	0.000669	6.687753	1.132936	0.000134
1904	1.8935e+02	-2.0897	-51.634966	0.000567	5.674457	0.961279	0.000114
1905	1.8945e+02	-2.0700	-51.566335	0.000345	3.445206	0.583634	0.000069
1906	1.8955e+02	-2.0505	-51.441184	0.000628	6.282435	1.064273	0.000126
1907	1.8965e+02	-2.0300	-51.307958	0.000669	6.687753	1.132936	0.000134
1908	1.8975e+02	-2.0105	-51.186844	0.000608	6.079776	1.029942	0.000122
1909	1.8985e+02	-1.9894	-51.118213	0.000345	3.445206	0.583634	0.000069
1910	1.8995e+02	-1.9696	-50.952690	0.000831	8.309027	1.407587	0.000166
1911	1.9004e+02	-1.9502	-50.835613	0.000588	5.877116	0.995610	0.000118
1912	1.9014e+02	-1.9299	-50.742759	0.000466	4.661161	0.789622	0.000093
1913	1.9024e+02	-1.9107	-50.641831	0.000507	5.066480	0.858285	0.000101
1914	1.9034e+02	-1.8901	-50.540902	0.000507	5.066480	0.858285	0.000101
1915	1.9044e+02	-1.8709	-50.435937	0.000527	5.269139	0.892616	0.000105
1916	1.9054e+02	-1.8500	-50.330971	0.000527	5.269139	0.892616	0.000105
1917	1.9064e+02	-1.8307	-50.209857	0.000608	6.079776	1.029942	0.000122
1918	1.9074e+02	-1.8111	-50.068557	0.000709	7.093072	1.201599	0.000142
1919	1.9084e+02	-1.7903	-49.967629	0.000507	5.066480	0.858285	0.000101
1920	1.9094e+02	-1.7709	-49.894961	0.000365	3.647865	0.617965	0.000073
1921	1.9104e+02	-1.7517	-49.737512	0.000790	7.903708	1.338924	0.000158
1922	1.9114e+02	-1.7317	-49.628510	0.000547	5.471798	0.926948	0.000110
1923	1.9124e+02	-1.7123	-49.539693	0.000446	4.458502	0.755291	0.000089
1924	1.9134e+02	-1.6920	-49.382244	0.000790	7.903708	1.338924	0.000158
1925	1.9144e+02	-1.6716	-49.301502	0.000405	4.053184	0.686628	0.000081
1926	1.9154e+02	-1.6516	-49.212685	0.000446	4.458502	0.755291	0.000089
1927	1.9164e+02	-1.6315	-49.051199	0.000811	8.106368	1.373256	0.000162
1928	1.9174e+02	-1.6109	-48.958345	0.000466	4.661161	0.789622	0.000093
1929	1.9184e+02	-1.5926	-48.877602	0.000405	4.053184	0.686628	0.000081
1930	1.9194e+02	-1.5714	-48.752451	0.000628	6.282435	1.064273	0.000126
1931	1.9203e+02	-1.5511	-48.623263	0.000649	6.485094	1.098605	0.000130
1932	1.9213e+02	-1.5319	-48.522334	0.000507	5.066480	0.858285	0.000101
1933	1.9223e+02	-1.5121	-48.385072	0.000689	6.890412	1.167267	0.000138
1934	1.9233e+02	-1.4916	-48.239735	0.000730	7.295731	1.235930	0.000146
1935	1.9243e+02	-1.4716	-48.150918	0.000446	4.458502	0.755291	0.000089
1936	1.9253e+02	-1.4519	-48.062101	0.000446	4.458502	0.755291	0.000089
1937	1.9263e+02	-1.4322	-47.888504	0.000871	8.714345	1.476250	0.000174
1938	1.9273e+02	-1.4113	-47.771427	0.000588	5.877116	0.995610	0.000118
1939	1.9283e+02	-1.3916	-47.674536	0.000486	4.863821	0.823954	0.000097
1940	1.9293e+02	-1.3721	-47.569570	0.000527	5.269139	0.892616	0.000105
1941	1.9303e+02	-1.3516	-47.428271	0.000709	7.093072	1.201599	0.000142
1942	1.9313e+02	-1.3328	-47.299082	0.000649	6.485094	1.098605	0.000130
1943	1.9323e+02	-1.3123	-47.161820	0.000689	6.890412	1.167267	0.000138
1944	1.9333e+02	-1.2932	-47.073003	0.000446	4.458502	0.755291	0.000089
1945	1.9343e+02	-1.2731	-46.951889	0.000608	6.079776	1.029942	0.000122
1946	1.9353e+02	-1.2531	-46.838849	0.000567	5.674457	0.961279	0.000114
1947	1.9363e+02	-1.2335	-46.741958	0.000486	4.863821	0.823954	0.000097
1948	1.9373e+02	-1.2131	-46.636992	0.000527	5.269139	0.892616	0.000105
1949	1.9383e+02	-1.1929	-46.443210	0.000973	9.727641	1.647907	0.000195
1950	1.9393e+02	-1.1731	-46.366504	0.000385	3.850525	0.652297	0.000077
1951	1.9403e+02	-1.1536	-46.237316	0.000649	6.485094	1.098605	0.000130
1952	1.9412e+02	-1.1344	-46.148499	0.000446	4.458502	0.755291	0.000089
1953	1.9422e+02	-1.1129	-46.027385	0.000608	6.079776	1.029942	0.000122
1954	1.9432e+02	-1.0938	-45.898196	0.000649	6.485094	1.098605	0.000130
1955	1.9442e+02	-1.0723	-45.781119	0.000588	5.877116	0.995610	0.000118
1956	1.9452e+02	-1.0536	-45.611560	0.000851	8.511686	1.441919	0.000170
1957	1.9462e+02	-1.0337	-45.494483	0.000588	5.877116	0.995610	0.000118
1958	1.9472e+02	-1.0134	-45.389517	0.000527	5.269139	0.892616	0.000105
1959	1.9482e+02	-0.9938	-45.304737	0.000426	4.255843	0.720959	0.000085
1960	1.9492e+02	-0.9738	-45.183623	0.000608	6.079776	1.029942	0.000122
1961	1.9502e+02	-0.9542	-45.062509	0.000608	6.079776	1.029942	0.000122
1962	1.9512e+02	-0.9335	-44.921209	0.000709	7.093072	1.201599	0.000142
1963	1.9522e+02	-0.9140	-44.832392	0.000446	4.458502	0.755291	0.000089
1964	1.9532e+02	-0.8936	-44.743575	0.000446	4.458502	0.755291	0.000089
1965	1.9542e+02	-0.8739	-44.574016	0.000851	8.511686	1.441919	0.000170
1966	1.9552e+02	-0.8537	-44.505384	0.000345	3.445206	0.583634	0.000069
1967	1.9562e+02	-0.8346	-44.291416	0.001074	10.740937	1.819564	0.000215
1968	1.9572e+02	-0.8152	-44.214711	0.000385	3.850525	0.652297	0.000077
1969	1.9582e+02	-0.7950	-44.113782	0.000507	5.066480	0.858285	0.000101
1970	1.9592e+02	-0.7742	-43.976520	0.000689	6.890412	1.167267	0.000138
1971	1.9601e+02	-0.7553	-43.847331	0.000649	6.485094	1.098605	0.000130
1972	1.9611e+02	-0.7340	-43.718143	0.000649	6.485094	1.098605	0.000130
1973	1.9621e+02	-0.7150	-43.653549	0.000324	3.242547	0.549302	0.000065
1974	1.9631e+02	-0.6954	-43.475915	0.000892	8.917004	1.510581	0.000179
1975	1.9641e+02	-0.6754	-43.431506	0.000223	2.229251	0.377645	0.000045
1976	1.9651e+02	-0.6539	-43.221575	0.001054	10.538278	1.785233	0.000211
1977	1.9661e+02	-0.6353	-43.128721	0.000466	4.661161	0.789622	0.000093
1978	1.9671e+02	-0.6155	-42.991458	0.000689	6.890412	1.167267	0.000138
1979	1.9681e+02	-0.5947	-42.910716	0.000405	4.053184	0.686628	0.000081
1980	1.9691e+02	-0.5754	-42.729045	0.000912	9.119664	1.544913	0.000183
1981	1.9701e+02	-0.5556	-42.616005	0.000567	5.674457	0.961279	0.000114
1982	1.9711e+02	-0.5357	-42.519114	0.000486	4.863821	0.823954	0.000097
1983	1.9721e+02	-0.5151	-42.406074	0.000567	5.674457	0.961279	0.000114
1984	1.9731e+02	-0.4949	-42.248625	0.000790	7.903708	1.338924	0.000158
1985	1.9741e+02	-0.4755	-42.143660	0.000527	5.269139	0.892616	0.000105
1986	1.9751e+02	-0.4552	-42.050806	0.000466	4.661161	0.789622	0.000093
1987	1.9761e+02	-0.4353	-41.881246	0.000851	8.511686	1.441919	0.000170
1988	1.9771e+02	-0.4150	-41.800503	0.000405	4.053184	0.686628	0.000081
1989	1.9781e+02	-0.3959	-41.679389	0.000608	6.079776	1.029942	0.000122
1990	1.9791e+02	-0.3754	-41.562312	0.000588	5.877116	0.995610	0.000118
1991	1.9800e+02	-0.3564	-41.441198	0.000608	6.079776	1.029942	0.000122
1992	1.9810e+02	-0.3362	-41.324121	0.000588	5.877116	0.995610	0.000118
1993	1.9820e+02	-0.3165	-41.174747	0.000750	7.498390	1.270262	0.000150
1994	1.9830e+02	-0.2962	-41.094005	0.000405	4.053184	0.686628	0.000081
1995	1.9840e+02	-0.2760	-40.960779	0.000669	6.687753	1.132936	0.000134
1996	1.9850e+02	-0.2560	-40.835628	0.000628	6.282435	1.064273	0.000126
1997	1.9860e+02	-0.2360	-40.750848	0.000426	4.255843	0.720959	0.000085
1998	1.9870e+02	-0.2164	-40.573214	0.000892	8.917004	1.510581	0.000179
1999	1.9880e+02	-0.1968	-40.484397	0.000446	4.458502	0.755291	0.000089
2000	1.9890e+02	-0.1756	-40.326949	0.000790	7.903708	1.338924	0.000158
2001	1.9900e+02	-0.1563	-40.234095	0.000466	4.661161	0.789622	0.000093
2002	1.9910e+02	-0.1364	-40.104906	0.000649	6.485094	1.098605	0.000130
2003	1.9920e+02	-0.1170	-40.003978	0.000507	5.066480	0.858285	0.000101
2004	1.9930e+02	-0.0957	-39.890938	0.000567	5.674457	0.961279	0.000114
2005	1.9940e+02	-0.0766	-39.765787	0.000628	6.282435	1.064273	0.000126
2006	1.9950e+02	-0.0566	-39.628524	0.000689	6.890412	1.167267	0.000138
2007	1.9960e+02	-0.0362	-39.527596	0.000507	5.066480	0.858285	0.000101
2008	1.9970e+02	-0.0165	-39.394371	0.000669	6.687753	1.132936	0.000134
2009	1.9980e+02	0.0021	-39.281331	0.000669	6.687753	1.132936	0.000114

PMax (uC/cm2):	4.91e+01
Pr (uC/cm2):	5.40e+00
-Pr (uC/cm2):	-6.62e+01
PLoss (uC/cm2):	-6.62e+01
-Vc:	-8.87e-01
C (Max-Eff) (nF):	4.91e-01
K (Eff):	8.32e+02
Vert. (+/-Pr) Shift (uC/cm2):	-3.04e+01
Offset (uC/cm2):	-2.69e+01

A (Loop Area - uC/cm2·Volts):	-3.96e-01



Hysteresis Version: 5.48.1 - Radiant Technologies, Inc., 1999 - 9/12/24

