»»»»»»»»»»»»»»»»»»»»»»»»»»»»»»»»»»»» Hysteresis ««««««««««««««««««««««««««««««««««««
»»»  Executed Version:	5.48.1
»»»  Vision Version:	5.48.4 (R)
»»»  Vision Compiled:	9/18/24
»»»  Driver Version:	5.47.0
»»»  Windows Version:	Windows 8 or 8.1
»»»  Processor Information:	x86 (AMD or Intel) - 32 Processors
»»»  Tester Name:	PMF21124-494 (100V)
»»»  Tester S/N:	PMF21124-494
»»»  Internal Amp Type:	100V RevK 270k
»»»  Internal Amp S/N:	iAB2-596/K     
»»»  Execution Count:	1
»»»»»»»»»»»»»»»»»»»»»»»»»»»»»»»»»»»»»»»»»»««««««««««««««««««««««««««««««««««««««««««

Stored:	7/3/2025 - 12:8:13
Configured:	07/03/25 12:01:19 PM
Executed:	07/03/25 12:07:36 PM

»»»»»»»»»»»»»»»»»»»»»»»»»»»»»»»»»»» Sample Info ««««««««««««««««««««««««««««««««««««
Sample Name:	
Lot Name:	
Wafer Name:	
Die Row/Column:	0/0
Capacitor Number:	0
Sample Area (cm2):	1.00e-04
Sample Thickness (microns):	1.50e-01

Amplifier:	Internal

»»»»»»»»»»»»»»»»»»»»»»»»»»»»»»»»»»» Tester Info «««««««««««««««««««««««««««««««««««
Tester Name:	PMF21124-494 (100V)
Tester Serial Number:	PMF21124-494
Return Signal Amp. Level:	0.19 [Index: 3]

»»»»»»»»»»»»»»»»»»»»»»»»»»»»»»»» Hysteresis Info ««««««««««««««««««««««««««««««««««
Task Name:	Hyst-410
Volts:	10.00
Field:	666.67 (kV/cm)
DCBias:	0.00
DCField:	0.00 (kV/cm)
Hysteresis Period (ms):	2.00e+02
Preset:	Enabled
Preset Delay (ms):	1.00e+03
Profile:	Standard Bipolar

»»»»»»»»»»»»»»»»»»»»»»»»»»»»»»»»»»»»»» Data «««««««««««««««««««««««««««««««««««««««
Points:	2009

Valid Data

Point	Time (ms)	Drive Voltage	Measured Polarization (uC/cm2)	Capacitance (uF)	Normalized Capacitance (uF/cm2)	Dielectric Constant	Instantaneous Current (mA)
   1	0.0000e+00	0.0015	28.621274	0.000567	5.674750	0.961329	0.000114
   2	9.9500e-02	0.0205	28.734314	0.000567	5.674750	0.961329	0.000114
   3	1.9900e-01	0.0418	28.823131	0.000446	4.458732	0.755330	0.000089
   4	2.9850e-01	0.0613	28.915985	0.000466	4.661401	0.789663	0.000093
   5	3.9800e-01	0.0822	29.033062	0.000588	5.877419	0.995662	0.000118
   6	4.9750e-01	0.1008	29.150139	0.000588	5.877419	0.995662	0.000118
   7	5.9700e-01	0.1211	29.238956	0.000446	4.458732	0.755330	0.000089
   8	6.9650e-01	0.1407	29.311624	0.000365	3.648053	0.617997	0.000073
   9	7.9600e-01	0.1605	29.481184	0.000851	8.512124	1.441993	0.000170
  10	8.9550e-01	0.1797	29.529629	0.000243	2.432036	0.411998	0.000049
  11	9.9500e-01	0.2010	29.618446	0.000446	4.458732	0.755330	0.000089
  12	1.0945e+00	0.2202	29.743598	0.000628	6.282758	1.064328	0.000126
  13	1.1940e+00	0.2413	29.852600	0.000547	5.472080	0.926995	0.000110
  14	1.2935e+00	0.2615	29.929306	0.000385	3.850723	0.652330	0.000077
  15	1.3930e+00	0.2797	30.026197	0.000486	4.864071	0.823996	0.000097
  16	1.4925e+00	0.2995	30.151348	0.000628	6.282758	1.064328	0.000126
  17	1.5920e+00	0.3201	30.211905	0.000304	3.040044	0.514997	0.000061
  18	1.6915e+00	0.3408	30.353205	0.000709	7.093437	1.201661	0.000142
  19	1.7910e+00	0.3600	30.409725	0.000284	2.837375	0.480664	0.000057
  20	1.8905e+00	0.3802	30.559099	0.000750	7.498776	1.270327	0.000150
  21	1.9900e+00	0.3995	30.651953	0.000466	4.661401	0.789663	0.000093
  22	2.0895e+00	0.4202	30.752881	0.000507	5.066741	0.858329	0.000101
  23	2.1890e+00	0.4391	30.853810	0.000507	5.066741	0.858329	0.000101
  24	2.2885e+00	0.4603	30.962813	0.000547	5.472080	0.926995	0.000110
  25	2.3880e+00	0.4795	31.047592	0.000426	4.256062	0.720996	0.000085
  26	2.4875e+00	0.4987	31.140447	0.000466	4.661401	0.789663	0.000093
  27	2.5870e+00	0.5199	31.273672	0.000669	6.688098	1.132994	0.000134
  28	2.6865e+00	0.5392	31.350378	0.000385	3.850723	0.652330	0.000077
  29	2.7860e+00	0.5587	31.507826	0.000790	7.904115	1.338993	0.000158
  30	2.8855e+00	0.5795	31.592606	0.000426	4.256062	0.720996	0.000085
  31	2.9850e+00	0.5990	31.689497	0.000486	4.864071	0.823996	0.000097
  32	3.0845e+00	0.6189	31.786388	0.000486	4.864071	0.823996	0.000097
  33	3.1840e+00	0.6388	31.899428	0.000567	5.674750	0.961329	0.000114
  34	3.2835e+00	0.6586	32.016505	0.000588	5.877419	0.995662	0.000118
  35	3.3830e+00	0.6786	32.060913	0.000223	2.229366	0.377665	0.000045
  36	3.4825e+00	0.6982	32.206250	0.000730	7.296107	1.235994	0.000146
  37	3.5820e+00	0.7191	32.303142	0.000486	4.864071	0.823996	0.000097
  38	3.6815e+00	0.7393	32.412144	0.000547	5.472080	0.926995	0.000110
  39	3.7810e+00	0.7581	32.521147	0.000547	5.472080	0.926995	0.000110
  40	3.8805e+00	0.7775	32.622075	0.000507	5.066741	0.858329	0.000101
  41	3.9800e+00	0.7983	32.739152	0.000588	5.877419	0.995662	0.000118
  42	4.0795e+00	0.8189	32.856229	0.000588	5.877419	0.995662	0.000118
  43	4.1790e+00	0.8392	32.932935	0.000385	3.850723	0.652330	0.000077
  44	4.2785e+00	0.8574	33.070197	0.000689	6.890767	1.167328	0.000138
  45	4.3780e+00	0.8780	33.154977	0.000426	4.256062	0.720996	0.000085
  46	4.4775e+00	0.8978	33.308388	0.000770	7.701446	1.304660	0.000154
  47	4.5770e+00	0.9177	33.385094	0.000385	3.850723	0.652330	0.000077
  48	4.6765e+00	0.9380	33.510245	0.000628	6.282758	1.064328	0.000126
  49	4.7760e+00	0.9580	33.619248	0.000547	5.472080	0.926995	0.000110
  50	4.8755e+00	0.9776	33.712102	0.000466	4.661401	0.789663	0.000093
  51	4.9750e+00	0.9968	33.873587	0.000811	8.106785	1.373327	0.000162
  52	5.0745e+00	1.0178	33.938182	0.000324	3.242714	0.549331	0.000065
  53	5.1740e+00	1.0375	34.035073	0.000486	4.864071	0.823996	0.000097
  54	5.2735e+00	1.0587	34.156187	0.000608	6.080089	1.029995	0.000122
  55	5.3730e+00	1.0778	34.273264	0.000588	5.877419	0.995662	0.000118
  56	5.4725e+00	1.0983	34.370155	0.000486	4.864071	0.823996	0.000097
  57	5.5720e+00	1.1174	34.454935	0.000426	4.256062	0.720996	0.000085
  58	5.6715e+00	1.1375	34.588160	0.000669	6.688098	1.132994	0.000134
  59	5.7710e+00	1.1571	34.701200	0.000567	5.674750	0.961329	0.000114
  60	5.8705e+00	1.1775	34.810203	0.000547	5.472080	0.926995	0.000110
  61	5.9700e+00	1.1962	34.907094	0.000486	4.864071	0.823996	0.000097
  62	6.0695e+00	1.2180	35.020134	0.000567	5.674750	0.961329	0.000114
  63	6.1690e+00	1.2383	35.133174	0.000567	5.674750	0.961329	0.000114
  64	6.2685e+00	1.2572	35.213916	0.000405	4.053393	0.686663	0.000081
  65	6.3680e+00	1.2756	35.339068	0.000628	6.282758	1.064328	0.000126
  66	6.4675e+00	1.2954	35.431922	0.000466	4.661401	0.789663	0.000093
  67	6.5670e+00	1.3169	35.532850	0.000507	5.066741	0.858329	0.000101
  68	6.6665e+00	1.3354	35.658001	0.000628	6.282758	1.064328	0.000126
  69	6.7660e+00	1.3554	35.742781	0.000426	4.256062	0.720996	0.000085
  70	6.8655e+00	1.3754	35.855821	0.000567	5.674750	0.961329	0.000114
  71	6.9650e+00	1.3952	35.972898	0.000588	5.877419	0.995662	0.000118
  72	7.0645e+00	1.4152	36.102086	0.000649	6.485428	1.098661	0.000130
  73	7.1640e+00	1.4356	36.190903	0.000446	4.458732	0.755330	0.000089
  74	7.2635e+00	1.4560	36.299906	0.000547	5.472080	0.926995	0.000110
  75	7.3630e+00	1.4749	36.429094	0.000649	6.485428	1.098661	0.000130
  76	7.4625e+00	1.4954	36.534060	0.000527	5.269410	0.892662	0.000105
  77	7.5620e+00	1.5154	36.634988	0.000507	5.066741	0.858329	0.000101
  78	7.6615e+00	1.5360	36.743991	0.000547	5.472080	0.926995	0.000110
  79	7.7610e+00	1.5545	36.857031	0.000567	5.674750	0.961329	0.000114
  80	7.8605e+00	1.5759	36.941811	0.000426	4.256062	0.720996	0.000085
  81	7.9600e+00	1.5955	37.062925	0.000608	6.080089	1.029995	0.000122
  82	8.0595e+00	1.6148	37.163853	0.000507	5.066741	0.858329	0.000101
  83	8.1590e+00	1.6354	37.297079	0.000669	6.688098	1.132994	0.000134
  84	8.2585e+00	1.6557	37.389933	0.000466	4.661401	0.789663	0.000093
  85	8.3580e+00	1.6752	37.531232	0.000709	7.093437	1.201661	0.000142
  86	8.4575e+00	1.6946	37.611975	0.000405	4.053393	0.686663	0.000081
  87	8.5570e+00	1.7144	37.696755	0.000426	4.256062	0.720996	0.000085
  88	8.6565e+00	1.7348	37.862278	0.000831	8.309455	1.407660	0.000166
  89	8.7560e+00	1.7549	37.955132	0.000466	4.661401	0.789663	0.000093
  90	8.8555e+00	1.7743	38.060097	0.000527	5.269410	0.892662	0.000105
  91	8.9550e+00	1.7947	38.193323	0.000669	6.688098	1.132994	0.000134
  92	9.0545e+00	1.8151	38.282140	0.000446	4.458732	0.755330	0.000089
  93	9.1540e+00	1.8340	38.407291	0.000628	6.282758	1.064328	0.000126
  94	9.2535e+00	1.8542	38.524368	0.000588	5.877419	0.995662	0.000118
  95	9.3530e+00	1.8749	38.641445	0.000588	5.877419	0.995662	0.000118
  96	9.4525e+00	1.8945	38.730262	0.000446	4.458732	0.755330	0.000089
  97	9.5520e+00	1.9146	38.811004	0.000405	4.053393	0.686663	0.000081
  98	9.6515e+00	1.9335	38.956341	0.000730	7.296107	1.235994	0.000146
  99	9.7510e+00	1.9547	39.073418	0.000588	5.877419	0.995662	0.000118
 100	9.8505e+00	1.9741	39.182421	0.000547	5.472080	0.926995	0.000110
 101	9.9500e+00	1.9949	39.275275	0.000466	4.661401	0.789663	0.000093
 102	1.0050e+01	2.0138	39.432723	0.000790	7.904115	1.338993	0.000158
 103	1.0149e+01	2.0336	39.513466	0.000405	4.053393	0.686663	0.000081
 104	1.0248e+01	2.0535	39.642654	0.000649	6.485428	1.098661	0.000130
 105	1.0348e+01	2.0739	39.739546	0.000486	4.864071	0.823996	0.000097
 106	1.0447e+01	2.0940	39.868734	0.000649	6.485428	1.098661	0.000130
 107	1.0547e+01	2.1134	39.961588	0.000466	4.661401	0.789663	0.000093
 108	1.0646e+01	2.1333	40.082702	0.000608	6.080089	1.029995	0.000122
 109	1.0746e+01	2.1529	40.199779	0.000588	5.877419	0.995662	0.000118
 110	1.0845e+01	2.1740	40.308782	0.000547	5.472080	0.926995	0.000110
 111	1.0945e+01	2.1935	40.421822	0.000567	5.674750	0.961329	0.000114
 112	1.1044e+01	2.2135	40.559084	0.000689	6.890767	1.167328	0.000138
 113	1.1144e+01	2.2329	40.643864	0.000426	4.256062	0.720996	0.000085
 114	1.1243e+01	2.2530	40.752867	0.000547	5.472080	0.926995	0.000110
 115	1.1343e+01	2.2726	40.869944	0.000588	5.877419	0.995662	0.000118
 116	1.1443e+01	2.2924	40.987021	0.000588	5.877419	0.995662	0.000118
 117	1.1542e+01	2.3125	41.100060	0.000567	5.674750	0.961329	0.000114
 118	1.1642e+01	2.3326	41.192915	0.000466	4.661401	0.789663	0.000093
 119	1.1741e+01	2.3525	41.318066	0.000628	6.282758	1.064328	0.000126
 120	1.1841e+01	2.3721	41.427068	0.000547	5.472080	0.926995	0.000110
 121	1.1940e+01	2.3931	41.532034	0.000527	5.269410	0.892662	0.000105
 122	1.2040e+01	2.4126	41.624888	0.000466	4.661401	0.789663	0.000093
 123	1.2139e+01	2.4333	41.725816	0.000507	5.066741	0.858329	0.000101
 124	1.2239e+01	2.4526	41.887302	0.000811	8.106785	1.373327	0.000162
 125	1.2338e+01	2.4733	41.935747	0.000243	2.432036	0.411998	0.000049
 126	1.2438e+01	2.4926	42.085122	0.000750	7.498776	1.270327	0.000150
 127	1.2537e+01	2.5124	42.214310	0.000649	6.485428	1.098661	0.000130
 128	1.2636e+01	2.5321	42.307164	0.000466	4.661401	0.789663	0.000093
 129	1.2736e+01	2.5520	42.420204	0.000567	5.674750	0.961329	0.000114
 130	1.2835e+01	2.5726	42.513058	0.000466	4.661401	0.789663	0.000093
 131	1.2935e+01	2.5909	42.646283	0.000669	6.688098	1.132994	0.000134
 132	1.3034e+01	2.6119	42.779509	0.000669	6.688098	1.132994	0.000134
 133	1.3134e+01	2.6318	42.852177	0.000365	3.648053	0.617997	0.000073
 134	1.3233e+01	2.6517	42.977328	0.000628	6.282758	1.064328	0.000126
 135	1.3333e+01	2.6714	43.086331	0.000547	5.472080	0.926995	0.000110
 136	1.3432e+01	2.6916	43.199371	0.000567	5.674750	0.961329	0.000114
 137	1.3532e+01	2.7120	43.304336	0.000527	5.269410	0.892662	0.000105
 138	1.3632e+01	2.7309	43.437562	0.000669	6.688098	1.132994	0.000134
 139	1.3731e+01	2.7508	43.530416	0.000466	4.661401	0.789663	0.000093
 140	1.3831e+01	2.7714	43.623270	0.000466	4.661401	0.789663	0.000093
 141	1.3930e+01	2.7917	43.716124	0.000466	4.661401	0.789663	0.000093
 142	1.4030e+01	2.8114	43.873573	0.000790	7.904115	1.338993	0.000158
 143	1.4129e+01	2.8304	43.950278	0.000385	3.850723	0.652330	0.000077
 144	1.4229e+01	2.8503	44.075429	0.000628	6.282758	1.064328	0.000126
 145	1.4328e+01	2.8716	44.172321	0.000486	4.864071	0.823996	0.000097
 146	1.4428e+01	2.8899	44.337843	0.000831	8.309455	1.407660	0.000166
 147	1.4527e+01	2.9118	44.410512	0.000365	3.648053	0.617997	0.000073
 148	1.4627e+01	2.9311	44.559886	0.000750	7.498776	1.270327	0.000150
 149	1.4726e+01	2.9513	44.640628	0.000405	4.053393	0.686663	0.000081
 150	1.4825e+01	2.9702	44.777891	0.000689	6.890767	1.167328	0.000138
 151	1.4925e+01	2.9903	44.878819	0.000507	5.066741	0.858329	0.000101
 152	1.5024e+01	3.0108	44.983785	0.000527	5.269410	0.892662	0.000105
 153	1.5124e+01	3.0312	45.112973	0.000649	6.485428	1.098661	0.000130
 154	1.5223e+01	3.0510	45.209865	0.000486	4.864071	0.823996	0.000097
 155	1.5323e+01	3.0706	45.326941	0.000588	5.877419	0.995662	0.000118
 156	1.5422e+01	3.0904	45.427870	0.000507	5.066741	0.858329	0.000101
 157	1.5522e+01	3.1101	45.553021	0.000628	6.282758	1.064328	0.000126
 158	1.5621e+01	3.1303	45.674135	0.000608	6.080089	1.029995	0.000122
 159	1.5721e+01	3.1503	45.795249	0.000608	6.080089	1.029995	0.000122
 160	1.5820e+01	3.1695	45.920400	0.000628	6.282758	1.064328	0.000126
 161	1.5920e+01	3.1893	46.013255	0.000466	4.661401	0.789663	0.000093
 162	1.6020e+01	3.2098	46.130332	0.000588	5.877419	0.995662	0.000118
 163	1.6119e+01	3.2305	46.211074	0.000405	4.053393	0.686663	0.000081
 164	1.6218e+01	3.2499	46.336225	0.000628	6.282758	1.064328	0.000126
 165	1.6318e+01	3.2695	46.449265	0.000567	5.674750	0.961329	0.000114
 166	1.6418e+01	3.2902	46.550194	0.000507	5.066741	0.858329	0.000101
 167	1.6517e+01	3.3099	46.655159	0.000527	5.269410	0.892662	0.000105
 168	1.6616e+01	3.3295	46.784348	0.000649	6.485428	1.098661	0.000130
 169	1.6716e+01	3.3492	46.840867	0.000284	2.837375	0.480664	0.000057
 170	1.6816e+01	3.3697	46.990241	0.000750	7.498776	1.270327	0.000150
 171	1.6915e+01	3.3889	47.123467	0.000669	6.688098	1.132994	0.000134
 172	1.7015e+01	3.4093	47.256692	0.000669	6.688098	1.132994	0.000134
 173	1.7114e+01	3.4295	47.341472	0.000426	4.256062	0.720996	0.000085
 174	1.7213e+01	3.4495	47.446438	0.000527	5.269410	0.892662	0.000105
 175	1.7313e+01	3.4682	47.567552	0.000608	6.080089	1.029995	0.000122
 176	1.7413e+01	3.4899	47.656369	0.000446	4.458732	0.755330	0.000089
 177	1.7512e+01	3.5088	47.769409	0.000567	5.674750	0.961329	0.000114
 178	1.7611e+01	3.5284	47.910708	0.000709	7.093437	1.201661	0.000142
 179	1.7711e+01	3.5484	47.971265	0.000304	3.040044	0.514997	0.000061
 180	1.7811e+01	3.5686	48.092379	0.000608	6.080089	1.029995	0.000122
 181	1.7910e+01	3.5888	48.201382	0.000547	5.472080	0.926995	0.000110
 182	1.8009e+01	3.6089	48.310385	0.000547	5.472080	0.926995	0.000110
 183	1.8109e+01	3.6288	48.411313	0.000507	5.066741	0.858329	0.000101
 184	1.8209e+01	3.6485	48.548576	0.000689	6.890767	1.167328	0.000138
 185	1.8308e+01	3.6681	48.633356	0.000426	4.256062	0.720996	0.000085
 186	1.8407e+01	3.6886	48.738321	0.000527	5.269410	0.892662	0.000105
 187	1.8507e+01	3.7078	48.851361	0.000567	5.674750	0.961329	0.000114
 188	1.8607e+01	3.7280	48.980549	0.000649	6.485428	1.098661	0.000130
 189	1.8706e+01	3.7479	49.093589	0.000567	5.674750	0.961329	0.000114
 190	1.8805e+01	3.7679	49.182406	0.000446	4.458732	0.755330	0.000089
 191	1.8905e+01	3.7872	49.295446	0.000567	5.674750	0.961329	0.000114
 192	1.9005e+01	3.8073	49.388300	0.000466	4.661401	0.789663	0.000093
 193	1.9104e+01	3.8271	49.525563	0.000689	6.890767	1.167328	0.000138
 194	1.9203e+01	3.8468	49.614380	0.000446	4.458732	0.755330	0.000089
 195	1.9303e+01	3.8668	49.739531	0.000628	6.282758	1.064328	0.000126
 196	1.9402e+01	3.8879	49.820274	0.000405	4.053393	0.686663	0.000081
 197	1.9502e+01	3.9074	49.937351	0.000588	5.877419	0.995662	0.000118
 198	1.9602e+01	3.9272	50.026167	0.000446	4.458732	0.755330	0.000089
 199	1.9701e+01	3.9458	50.106910	0.000405	4.053393	0.686663	0.000081
 200	1.9800e+01	3.9672	50.268396	0.000811	8.106785	1.373327	0.000162
 201	1.9900e+01	3.9879	50.337027	0.000345	3.445384	0.583664	0.000069
 202	2.0000e+01	4.0072	50.474290	0.000689	6.890767	1.167328	0.000138
 203	2.0099e+01	4.0264	50.563107	0.000446	4.458732	0.755330	0.000089
 204	2.0198e+01	4.0472	50.647886	0.000426	4.256062	0.720996	0.000085
 205	2.0298e+01	4.0661	50.801298	0.000770	7.701446	1.304660	0.000154
 206	2.0398e+01	4.0862	50.894152	0.000466	4.661401	0.789663	0.000093
 207	2.0497e+01	4.1067	50.995080	0.000507	5.066741	0.858329	0.000101
 208	2.0596e+01	4.1268	51.104083	0.000547	5.472080	0.926995	0.000110
 209	2.0696e+01	4.1473	51.209048	0.000527	5.269410	0.892662	0.000105
 210	2.0796e+01	4.1668	51.309977	0.000507	5.066741	0.858329	0.000101
 211	2.0895e+01	4.1869	51.427054	0.000588	5.877419	0.995662	0.000118
 212	2.0994e+01	4.2065	51.523945	0.000486	4.864071	0.823996	0.000097
 213	2.1094e+01	4.2254	51.628910	0.000527	5.269410	0.892662	0.000105
 214	2.1194e+01	4.2455	51.766173	0.000689	6.890767	1.167328	0.000138
 215	2.1293e+01	4.2663	51.854990	0.000446	4.458732	0.755330	0.000089
 216	2.1392e+01	4.2864	51.959956	0.000527	5.269410	0.892662	0.000105
 217	2.1492e+01	4.3063	52.077032	0.000588	5.877419	0.995662	0.000118
 218	2.1591e+01	4.3261	52.157775	0.000405	4.053393	0.686663	0.000081
 219	2.1691e+01	4.3465	52.299075	0.000709	7.093437	1.201661	0.000142
 220	2.1791e+01	4.3658	52.424226	0.000628	6.282758	1.064328	0.000126
 221	2.1890e+01	4.3865	52.488820	0.000324	3.242714	0.549331	0.000065
 222	2.1989e+01	4.4054	52.601860	0.000567	5.674750	0.961329	0.000114
 223	2.2089e+01	4.4247	52.718937	0.000588	5.877419	0.995662	0.000118
 224	2.2189e+01	4.4451	52.827940	0.000547	5.472080	0.926995	0.000110
 225	2.2288e+01	4.4653	52.932905	0.000527	5.269410	0.892662	0.000105
 226	2.2387e+01	4.4848	52.997499	0.000324	3.242714	0.549331	0.000065
 227	2.2487e+01	4.5054	53.130725	0.000669	6.688098	1.132994	0.000134
 228	2.2587e+01	4.5245	53.215505	0.000426	4.256062	0.720996	0.000085
 229	2.2686e+01	4.5449	53.344693	0.000649	6.485428	1.098661	0.000130
 230	2.2785e+01	4.5647	53.437547	0.000466	4.661401	0.789663	0.000093
 231	2.2885e+01	4.5853	53.550587	0.000567	5.674750	0.961329	0.000114
 232	2.2985e+01	4.6041	53.635367	0.000426	4.256062	0.720996	0.000085
 233	2.3084e+01	4.6246	53.716110	0.000405	4.053393	0.686663	0.000081
 234	2.3183e+01	4.6453	53.813001	0.000486	4.864071	0.823996	0.000097
 235	2.3283e+01	4.6655	53.901818	0.000446	4.458732	0.755330	0.000089
 236	2.3383e+01	4.6844	54.010820	0.000547	5.472080	0.926995	0.000110
 237	2.3482e+01	4.7045	54.119823	0.000547	5.472080	0.926995	0.000110
 238	2.3581e+01	4.7252	54.220752	0.000507	5.066741	0.858329	0.000101
 239	2.3681e+01	4.7442	54.313606	0.000466	4.661401	0.789663	0.000093
 240	2.3780e+01	4.7646	54.418571	0.000527	5.269410	0.892662	0.000105
 241	2.3880e+01	4.7839	54.511425	0.000466	4.661401	0.789663	0.000093
 242	2.3980e+01	4.8034	54.600242	0.000446	4.458732	0.755330	0.000089
 243	2.4079e+01	4.8241	54.705208	0.000527	5.269410	0.892662	0.000105
 244	2.4178e+01	4.8443	54.773839	0.000345	3.445384	0.583664	0.000069
 245	2.4278e+01	4.8650	54.923213	0.000750	7.498776	1.270327	0.000150
 246	2.4378e+01	4.8840	55.036253	0.000567	5.674750	0.961329	0.000114
 247	2.4477e+01	4.9032	55.121033	0.000426	4.256062	0.720996	0.000085
 248	2.4576e+01	4.9236	55.242147	0.000608	6.080089	1.029995	0.000122
 249	2.4676e+01	4.9450	55.335001	0.000466	4.661401	0.789663	0.000093
 250	2.4776e+01	4.9632	55.435929	0.000507	5.066741	0.858329	0.000101
 251	2.4875e+01	4.9834	55.548969	0.000567	5.674750	0.961329	0.000114
 252	2.4974e+01	5.0036	55.629712	0.000405	4.053393	0.686663	0.000081
 253	2.5074e+01	5.0225	55.726603	0.000486	4.864071	0.823996	0.000097
 254	2.5174e+01	5.0433	55.807346	0.000405	4.053393	0.686663	0.000081
 255	2.5273e+01	5.0628	55.928460	0.000608	6.080089	1.029995	0.000122
 256	2.5372e+01	5.0823	56.021314	0.000466	4.661401	0.789663	0.000093
 257	2.5472e+01	5.1031	56.114168	0.000466	4.661401	0.789663	0.000093
 258	2.5572e+01	5.1226	56.227208	0.000567	5.674750	0.961329	0.000114
 259	2.5671e+01	5.1427	56.311988	0.000426	4.256062	0.720996	0.000085
 260	2.5770e+01	5.1623	56.400805	0.000446	4.458732	0.755330	0.000089
 261	2.5870e+01	5.1830	56.538067	0.000689	6.890767	1.167328	0.000138
 262	2.5970e+01	5.2020	56.622847	0.000426	4.256062	0.720996	0.000085
 263	2.6069e+01	5.2215	56.707627	0.000426	4.256062	0.720996	0.000085
 264	2.6169e+01	5.2428	56.820667	0.000567	5.674750	0.961329	0.000114
 265	2.6268e+01	5.2630	56.929670	0.000547	5.472080	0.926995	0.000110
 266	2.6367e+01	5.2821	57.018487	0.000446	4.458732	0.755330	0.000089
 267	2.6467e+01	5.3027	57.107304	0.000446	4.458732	0.755330	0.000089
 268	2.6567e+01	5.3225	57.200158	0.000466	4.661401	0.789663	0.000093
 269	2.6666e+01	5.3423	57.353569	0.000770	7.701446	1.304660	0.000154
 270	2.6765e+01	5.3616	57.393940	0.000203	2.026696	0.343332	0.000041
 271	2.6865e+01	5.3820	57.470646	0.000385	3.850723	0.652330	0.000077
 272	2.6965e+01	5.4021	57.620020	0.000750	7.498776	1.270327	0.000150
 273	2.7064e+01	5.4215	57.712874	0.000466	4.661401	0.789663	0.000093
 274	2.7163e+01	5.4417	57.793617	0.000405	4.053393	0.686663	0.000081
 275	2.7263e+01	5.4617	57.890508	0.000486	4.864071	0.823996	0.000097
 276	2.7363e+01	5.4821	57.963176	0.000365	3.648053	0.617997	0.000073
 277	2.7462e+01	5.5025	58.080253	0.000588	5.877419	0.995662	0.000118
 278	2.7561e+01	5.5206	58.152922	0.000365	3.648053	0.617997	0.000073
 279	2.7661e+01	5.5413	58.261924	0.000547	5.472080	0.926995	0.000110
 280	2.7761e+01	5.5614	58.366890	0.000527	5.269410	0.892662	0.000105
 281	2.7860e+01	5.5804	58.471855	0.000527	5.269410	0.892662	0.000105
 282	2.7959e+01	5.6016	58.580858	0.000547	5.472080	0.926995	0.000110
 283	2.8059e+01	5.6207	58.665638	0.000426	4.256062	0.720996	0.000085
 284	2.8159e+01	5.6414	58.766566	0.000507	5.066741	0.858329	0.000101
 285	2.8258e+01	5.6609	58.859420	0.000466	4.661401	0.789663	0.000093
 286	2.8358e+01	5.6811	58.976497	0.000588	5.877419	0.995662	0.000118
 287	2.8457e+01	5.7006	59.057240	0.000405	4.053393	0.686663	0.000081
 288	2.8556e+01	5.7207	59.137983	0.000405	4.053393	0.686663	0.000081
 289	2.8656e+01	5.7397	59.246986	0.000547	5.472080	0.926995	0.000110
 290	2.8756e+01	5.7603	59.335803	0.000446	4.458732	0.755330	0.000089
 291	2.8855e+01	5.7811	59.432694	0.000486	4.864071	0.823996	0.000097
 292	2.8954e+01	5.8010	59.525548	0.000466	4.661401	0.789663	0.000093
 293	2.9054e+01	5.8205	59.638588	0.000567	5.674750	0.961329	0.000114
 294	2.9154e+01	5.8404	59.719330	0.000405	4.053393	0.686663	0.000081
 295	2.9253e+01	5.8617	59.804110	0.000426	4.256062	0.720996	0.000085
 296	2.9352e+01	5.8807	59.901002	0.000486	4.864071	0.823996	0.000097
 297	2.9452e+01	5.9002	59.973670	0.000365	3.648053	0.617997	0.000073
 298	2.9552e+01	5.9203	60.127081	0.000770	7.701446	1.304660	0.000154
 299	2.9651e+01	5.9405	60.155341	0.000142	1.418687	0.240332	0.000028
 300	2.9750e+01	5.9594	60.280492	0.000628	6.282758	1.064328	0.000126
 301	2.9850e+01	5.9795	60.389495	0.000547	5.472080	0.926995	0.000110
 302	2.9950e+01	6.0003	60.462163	0.000365	3.648053	0.617997	0.000073
 303	3.0049e+01	6.0198	60.587315	0.000628	6.282758	1.064328	0.000126
 304	3.0148e+01	6.0397	60.655946	0.000345	3.445384	0.583664	0.000069
 305	3.0248e+01	6.0595	60.768986	0.000567	5.674750	0.961329	0.000114
 306	3.0348e+01	6.0796	60.857803	0.000446	4.458732	0.755330	0.000089
 307	3.0447e+01	6.0998	60.946620	0.000446	4.458732	0.755330	0.000089
 308	3.0547e+01	6.1187	61.015251	0.000345	3.445384	0.583664	0.000069
 309	3.0646e+01	6.1398	61.112142	0.000486	4.864071	0.823996	0.000097
 310	3.0745e+01	6.1607	61.221145	0.000547	5.472080	0.926995	0.000110
 311	3.0845e+01	6.1796	61.297850	0.000385	3.850723	0.652330	0.000077
 312	3.0945e+01	6.1999	61.423002	0.000628	6.282758	1.064328	0.000126
 313	3.1044e+01	6.2188	61.527967	0.000527	5.269410	0.892662	0.000105
 314	3.1143e+01	6.2400	61.612747	0.000426	4.256062	0.720996	0.000085
 315	3.1243e+01	6.2588	61.697527	0.000426	4.256062	0.720996	0.000085
 316	3.1343e+01	6.2782	61.802492	0.000527	5.269410	0.892662	0.000105
 317	3.1442e+01	6.2994	61.891309	0.000446	4.458732	0.755330	0.000089
 318	3.1541e+01	6.3180	61.980126	0.000446	4.458732	0.755330	0.000089
 319	3.1641e+01	6.3378	62.101240	0.000608	6.080089	1.029995	0.000122
 320	3.1741e+01	6.3586	62.169872	0.000345	3.445384	0.583664	0.000069
 321	3.1840e+01	6.3784	62.286949	0.000588	5.877419	0.995662	0.000118
 322	3.1939e+01	6.3976	62.351543	0.000324	3.242714	0.549331	0.000065
 323	3.2039e+01	6.4190	62.496880	0.000730	7.296107	1.235994	0.000146
 324	3.2139e+01	6.4379	62.577623	0.000405	4.053393	0.686663	0.000081
 325	3.2238e+01	6.4574	62.642217	0.000324	3.242714	0.549331	0.000065
 326	3.2337e+01	6.4773	62.755256	0.000567	5.674750	0.961329	0.000114
 327	3.2437e+01	6.4977	62.840036	0.000426	4.256062	0.720996	0.000085
 328	3.2536e+01	6.5173	62.932890	0.000466	4.661401	0.789663	0.000093
 329	3.2636e+01	6.5379	62.997485	0.000324	3.242714	0.549331	0.000065
 330	3.2736e+01	6.5574	63.134747	0.000689	6.890767	1.167328	0.000138
 331	3.2835e+01	6.5771	63.219527	0.000426	4.256062	0.720996	0.000085
 332	3.2934e+01	6.5974	63.312381	0.000466	4.661401	0.789663	0.000093
 333	3.3034e+01	6.6177	63.397161	0.000426	4.256062	0.720996	0.000085
 334	3.3133e+01	6.6363	63.485978	0.000446	4.458732	0.755330	0.000089
 335	3.3233e+01	6.6573	63.599018	0.000567	5.674750	0.961329	0.000114
 336	3.3333e+01	6.6766	63.687835	0.000446	4.458732	0.755330	0.000089
 337	3.3432e+01	6.6970	63.808949	0.000608	6.080089	1.029995	0.000122
 338	3.3532e+01	6.7168	63.869506	0.000304	3.040044	0.514997	0.000061
 339	3.3631e+01	6.7370	63.958323	0.000446	4.458732	0.755330	0.000089
 340	3.3730e+01	6.7568	64.063288	0.000527	5.269410	0.892662	0.000105
 341	3.3830e+01	6.7767	64.160180	0.000486	4.864071	0.823996	0.000097
 342	3.3929e+01	6.7971	64.220737	0.000304	3.040044	0.514997	0.000061
 343	3.4029e+01	6.8157	64.321665	0.000507	5.066741	0.858329	0.000101
 344	3.4129e+01	6.8359	64.418556	0.000486	4.864071	0.823996	0.000097
 345	3.4228e+01	6.8572	64.503336	0.000426	4.256062	0.720996	0.000085
 346	3.4328e+01	6.8764	64.612339	0.000547	5.472080	0.926995	0.000110
 347	3.4427e+01	6.8961	64.656747	0.000223	2.229366	0.377665	0.000045
 348	3.4526e+01	6.9161	64.798047	0.000709	7.093437	1.201661	0.000142
 349	3.4626e+01	6.9366	64.858604	0.000304	3.040044	0.514997	0.000061
 350	3.4725e+01	6.9555	64.983755	0.000628	6.282758	1.064328	0.000126
 351	3.4825e+01	6.9756	65.048350	0.000324	3.242714	0.549331	0.000065
 352	3.4925e+01	6.9964	65.112944	0.000324	3.242714	0.549331	0.000065
 353	3.5024e+01	7.0153	65.213872	0.000507	5.066741	0.858329	0.000101
 354	3.5123e+01	7.0361	65.302689	0.000446	4.458732	0.755330	0.000089
 355	3.5223e+01	7.0556	65.391506	0.000446	4.458732	0.755330	0.000089
 356	3.5322e+01	7.0751	65.504546	0.000567	5.674750	0.961329	0.000114
 357	3.5422e+01	7.0947	65.625660	0.000608	6.080089	1.029995	0.000122
 358	3.5522e+01	7.1148	65.641809	0.000081	0.810679	0.137333	0.000016
 359	3.5621e+01	7.1355	65.766960	0.000628	6.282758	1.064328	0.000126
 360	3.5721e+01	7.1551	65.871925	0.000527	5.269410	0.892662	0.000105
 361	3.5820e+01	7.1752	65.952668	0.000405	4.053393	0.686663	0.000081
 362	3.5919e+01	7.1954	66.045522	0.000466	4.661401	0.789663	0.000093
 363	3.6019e+01	7.2149	66.122228	0.000385	3.850723	0.652330	0.000077
 364	3.6118e+01	7.2341	66.219119	0.000486	4.864071	0.823996	0.000097
 365	3.6218e+01	7.2549	66.303899	0.000426	4.256062	0.720996	0.000085
 366	3.6318e+01	7.2747	66.384642	0.000405	4.053393	0.686663	0.000081
 367	3.6417e+01	7.2942	66.453273	0.000345	3.445384	0.583664	0.000069
 368	3.6517e+01	7.3147	66.554201	0.000507	5.066741	0.858329	0.000101
 369	3.6616e+01	7.3357	66.638981	0.000426	4.256062	0.720996	0.000085
 370	3.6715e+01	7.3540	66.707612	0.000345	3.445384	0.583664	0.000069
 371	3.6815e+01	7.3748	66.816615	0.000547	5.472080	0.926995	0.000110
 372	3.6914e+01	7.3934	66.901395	0.000426	4.256062	0.720996	0.000085
 373	3.7014e+01	7.4136	67.010398	0.000547	5.472080	0.926995	0.000110
 374	3.7114e+01	7.4337	67.087103	0.000385	3.850723	0.652330	0.000077
 375	3.7213e+01	7.4548	67.216291	0.000649	6.485428	1.098661	0.000130
 376	3.7313e+01	7.4743	67.268774	0.000263	2.634705	0.446331	0.000053
 377	3.7412e+01	7.4944	67.345480	0.000385	3.850723	0.652330	0.000077
 378	3.7511e+01	7.5140	67.458520	0.000567	5.674750	0.961329	0.000114
 379	3.7611e+01	7.5347	67.547337	0.000446	4.458732	0.755330	0.000089
 380	3.7711e+01	7.5530	67.648265	0.000507	5.066741	0.858329	0.000101
 381	3.7810e+01	7.5729	67.700748	0.000263	2.634705	0.446331	0.000053
 382	3.7910e+01	7.5927	67.825899	0.000628	6.282758	1.064328	0.000126
 383	3.8009e+01	7.6128	67.878382	0.000263	2.634705	0.446331	0.000053
 384	3.8108e+01	7.6336	68.011607	0.000669	6.688098	1.132994	0.000134
 385	3.8208e+01	7.6525	68.072164	0.000304	3.040044	0.514997	0.000061
 386	3.8307e+01	7.6731	68.177130	0.000527	5.269410	0.892662	0.000105
 387	3.8407e+01	7.6928	68.253835	0.000385	3.850723	0.652330	0.000077
 388	3.8507e+01	7.7123	68.346689	0.000466	4.661401	0.789663	0.000093
 389	3.8606e+01	7.7331	68.435506	0.000446	4.458732	0.755330	0.000089
 390	3.8706e+01	7.7520	68.492026	0.000284	2.837375	0.480664	0.000057
 391	3.8805e+01	7.7728	68.609103	0.000588	5.877419	0.995662	0.000118
 392	3.8904e+01	7.7917	68.701957	0.000466	4.661401	0.789663	0.000093
 393	3.9004e+01	7.8118	68.782700	0.000405	4.053393	0.686663	0.000081
 394	3.9103e+01	7.8320	68.851331	0.000345	3.445384	0.583664	0.000069
 395	3.9203e+01	7.8521	68.952260	0.000507	5.066741	0.858329	0.000101
 396	3.9303e+01	7.8728	69.049151	0.000486	4.864071	0.823996	0.000097
 397	3.9402e+01	7.8924	69.069337	0.000101	1.013348	0.171666	0.000020
 398	3.9502e+01	7.9119	69.190451	0.000608	6.080089	1.029995	0.000122
 399	3.9601e+01	7.9327	69.287342	0.000486	4.864071	0.823996	0.000097
 400	3.9700e+01	7.9528	69.372122	0.000426	4.256062	0.720996	0.000085
 401	3.9800e+01	7.9723	69.440753	0.000345	3.445384	0.583664	0.000069
 402	3.9900e+01	7.9913	69.533607	0.000466	4.661401	0.789663	0.000093
 403	3.9999e+01	8.0120	69.630499	0.000486	4.864071	0.823996	0.000097
 404	4.0099e+01	8.0315	69.691056	0.000304	3.040044	0.514997	0.000061
 405	4.0198e+01	8.0517	69.739501	0.000243	2.432036	0.411998	0.000049
 406	4.0297e+01	8.0703	69.852541	0.000567	5.674750	0.961329	0.000114
 407	4.0397e+01	8.0907	69.917135	0.000324	3.242714	0.549331	0.000065
 408	4.0496e+01	8.1115	70.005952	0.000446	4.458732	0.755330	0.000089
 409	4.0596e+01	8.1313	70.102844	0.000486	4.864071	0.823996	0.000097
 410	4.0696e+01	8.1518	70.199735	0.000486	4.864071	0.823996	0.000097
 411	4.0795e+01	8.1707	70.256255	0.000284	2.837375	0.480664	0.000057
 412	4.0895e+01	8.1915	70.312775	0.000284	2.837375	0.480664	0.000057
 413	4.0994e+01	8.2104	70.421777	0.000547	5.472080	0.926995	0.000110
 414	4.1093e+01	8.2305	70.494446	0.000365	3.648053	0.617997	0.000073
 415	4.1193e+01	8.2513	70.607485	0.000567	5.674750	0.961329	0.000114
 416	4.1292e+01	8.2702	70.688228	0.000405	4.053393	0.686663	0.000081
 417	4.1392e+01	8.2903	70.756860	0.000345	3.445384	0.583664	0.000069
 418	4.1492e+01	8.3111	70.845676	0.000446	4.458732	0.755330	0.000089
 419	4.1591e+01	8.3303	70.922382	0.000385	3.850723	0.652330	0.000077
 420	4.1691e+01	8.3511	71.019273	0.000486	4.864071	0.823996	0.000097
 421	4.1790e+01	8.3697	71.104053	0.000426	4.256062	0.720996	0.000085
 422	4.1889e+01	8.3907	71.188833	0.000426	4.256062	0.720996	0.000085
 423	4.1989e+01	8.4112	71.265539	0.000385	3.850723	0.652330	0.000077
 424	4.2089e+01	8.4301	71.358393	0.000466	4.661401	0.789663	0.000093
 425	4.2188e+01	8.4496	71.402801	0.000223	2.229366	0.377665	0.000045
 426	4.2288e+01	8.4692	71.507767	0.000527	5.269410	0.892662	0.000105
 427	4.2387e+01	8.4899	71.576398	0.000345	3.445384	0.583664	0.000069
 428	4.2486e+01	8.5094	71.665215	0.000446	4.458732	0.755330	0.000089
 429	4.2586e+01	8.5296	71.745958	0.000405	4.053393	0.686663	0.000081
 430	4.2685e+01	8.5497	71.806515	0.000304	3.040044	0.514997	0.000061
 431	4.2785e+01	8.5699	71.919555	0.000567	5.674750	0.961329	0.000114
 432	4.2885e+01	8.5897	72.012409	0.000466	4.661401	0.789663	0.000093
 433	4.2984e+01	8.6102	72.060854	0.000243	2.432036	0.411998	0.000049
 434	4.3084e+01	8.6297	72.173894	0.000567	5.674750	0.961329	0.000114
 435	4.3183e+01	8.6486	72.234451	0.000304	3.040044	0.514997	0.000061
 436	4.3282e+01	8.6687	72.299045	0.000324	3.242714	0.549331	0.000065
 437	4.3382e+01	8.6895	72.391899	0.000466	4.661401	0.789663	0.000093
 438	4.3481e+01	8.7084	72.456494	0.000324	3.242714	0.549331	0.000065
 439	4.3581e+01	8.7298	72.553385	0.000486	4.864071	0.823996	0.000097
 440	4.3681e+01	8.7487	72.654313	0.000507	5.066741	0.858329	0.000101
 441	4.3780e+01	8.7691	72.735056	0.000405	4.053393	0.686663	0.000081
 442	4.3880e+01	8.7890	72.823873	0.000446	4.458732	0.755330	0.000089
 443	4.3979e+01	8.8091	72.896541	0.000365	3.648053	0.617997	0.000073
 444	4.4078e+01	8.8293	72.997470	0.000507	5.066741	0.858329	0.000101
 445	4.4178e+01	8.8482	73.021693	0.000122	1.216018	0.205999	0.000024
 446	4.4278e+01	8.8671	73.130695	0.000547	5.472080	0.926995	0.000110
 447	4.4377e+01	8.8876	73.183178	0.000263	2.634705	0.446331	0.000053
 448	4.4477e+01	8.9080	73.267958	0.000426	4.256062	0.720996	0.000085
 449	4.4576e+01	8.9269	73.360812	0.000466	4.661401	0.789663	0.000093
 450	4.4675e+01	8.9471	73.445592	0.000426	4.256062	0.720996	0.000085
 451	4.4775e+01	8.9684	73.526335	0.000405	4.053393	0.686663	0.000081
 452	4.4874e+01	8.9867	73.631300	0.000527	5.269410	0.892662	0.000105
 453	4.4974e+01	9.0063	73.699931	0.000345	3.445384	0.583664	0.000069
 454	4.5074e+01	9.0264	73.800860	0.000507	5.066741	0.858329	0.000101
 455	4.5173e+01	9.0466	73.885640	0.000426	4.256062	0.720996	0.000085
 456	4.5273e+01	9.0667	73.958308	0.000365	3.648053	0.617997	0.000073
 457	4.5372e+01	9.0868	74.022902	0.000324	3.242714	0.549331	0.000065
 458	4.5471e+01	9.1064	74.107682	0.000426	4.256062	0.720996	0.000085
 459	4.5571e+01	9.1271	74.156128	0.000243	2.432036	0.411998	0.000049
 460	4.5670e+01	9.1479	74.285316	0.000649	6.485428	1.098661	0.000130
 461	4.5770e+01	9.1668	74.309539	0.000122	1.216018	0.205999	0.000024
 462	4.5870e+01	9.1863	74.390282	0.000405	4.053393	0.686663	0.000081
 463	4.5969e+01	9.2059	74.483136	0.000466	4.661401	0.789663	0.000093
 464	4.6069e+01	9.2254	74.551767	0.000345	3.445384	0.583664	0.000069
 465	4.6168e+01	9.2467	74.620398	0.000345	3.445384	0.583664	0.000069
 466	4.6267e+01	9.2663	74.717290	0.000486	4.864071	0.823996	0.000097
 467	4.6367e+01	9.2861	74.814181	0.000486	4.864071	0.823996	0.000097
 468	4.6467e+01	9.3066	74.866664	0.000263	2.634705	0.446331	0.000053
 469	4.6566e+01	9.3261	74.935295	0.000345	3.445384	0.583664	0.000069
 470	4.6666e+01	9.3462	75.007963	0.000365	3.648053	0.617997	0.000073
 471	4.6765e+01	9.3658	75.133115	0.000628	6.282758	1.064328	0.000126
 472	4.6864e+01	9.3865	75.201746	0.000345	3.445384	0.583664	0.000069
 473	4.6964e+01	9.4061	75.266340	0.000324	3.242714	0.549331	0.000065
 474	4.7063e+01	9.4262	75.343046	0.000385	3.850723	0.652330	0.000077
 475	4.7163e+01	9.4457	75.427826	0.000426	4.256062	0.720996	0.000085
 476	4.7263e+01	9.4659	75.468197	0.000203	2.026696	0.343332	0.000041
 477	4.7362e+01	9.4857	75.569125	0.000507	5.066741	0.858329	0.000101
 478	4.7462e+01	9.5049	75.670054	0.000507	5.066741	0.858329	0.000101
 479	4.7561e+01	9.5251	75.770982	0.000507	5.066741	0.858329	0.000101
 480	4.7660e+01	9.5458	75.815391	0.000223	2.229366	0.377665	0.000045
 481	4.7760e+01	9.5635	75.863836	0.000243	2.432036	0.411998	0.000049
 482	4.7859e+01	9.5849	75.984950	0.000608	6.080089	1.029995	0.000122
 483	4.7959e+01	9.6044	76.065693	0.000405	4.053393	0.686663	0.000081
 484	4.8059e+01	9.6246	76.162584	0.000486	4.864071	0.823996	0.000097
 485	4.8158e+01	9.6453	76.219104	0.000284	2.837375	0.480664	0.000057
 486	4.8258e+01	9.6651	76.299847	0.000405	4.053393	0.686663	0.000081
 487	4.8357e+01	9.6850	76.404812	0.000527	5.269410	0.892662	0.000105
 488	4.8456e+01	9.7039	76.473444	0.000345	3.445384	0.583664	0.000069
 489	4.8556e+01	9.7247	76.525926	0.000263	2.634705	0.446331	0.000053
 490	4.8656e+01	9.7442	76.634929	0.000547	5.472080	0.926995	0.000110
 491	4.8755e+01	9.7643	76.723746	0.000446	4.458732	0.755330	0.000089
 492	4.8855e+01	9.7845	76.796415	0.000365	3.648053	0.617997	0.000073
 493	4.8954e+01	9.8046	76.865046	0.000345	3.445384	0.583664	0.000069
 494	4.9053e+01	9.8248	76.941751	0.000385	3.850723	0.652330	0.000077
 495	4.9153e+01	9.8431	77.038643	0.000486	4.864071	0.823996	0.000097
 496	4.9252e+01	9.8650	77.131497	0.000466	4.661401	0.789663	0.000093
 497	4.9352e+01	9.8840	77.179942	0.000243	2.432036	0.411998	0.000049
 498	4.9452e+01	9.9035	77.280871	0.000507	5.066741	0.858329	0.000101
 499	4.9551e+01	9.9236	77.337391	0.000284	2.837375	0.480664	0.000057
 500	4.9651e+01	9.9438	77.426208	0.000446	4.458732	0.755330	0.000089
 501	4.9750e+01	9.9633	77.502913	0.000385	3.850723	0.652330	0.000077
 502	4.9849e+01	9.9834	77.547322	0.000223	2.229366	0.377665	0.000045
 503	4.9949e+01	9.9999	77.636139	0.000446	4.458732	0.755330	0.000089
 504	5.0048e+01	9.9841	77.595767	0.000203	2.026696	0.343332	-0.000041
 505	5.0148e+01	9.9639	77.547322	0.000243	2.432036	0.411998	-0.000049
 506	5.0248e+01	9.9432	77.490802	0.000284	2.837375	0.480664	-0.000057
 507	5.0347e+01	9.9236	77.466579	0.000122	1.216018	0.205999	-0.000024
 508	5.0447e+01	9.9035	77.406022	0.000304	3.040044	0.514997	-0.000061
 509	5.0546e+01	9.8827	77.345465	0.000304	3.040044	0.514997	-0.000061
 510	5.0645e+01	9.8644	77.305094	0.000203	2.026696	0.343332	-0.000041
 511	5.0745e+01	9.8443	77.232425	0.000365	3.648053	0.617997	-0.000073
 512	5.0844e+01	9.8235	77.167831	0.000324	3.242714	0.549331	-0.000065
 513	5.0944e+01	9.8046	77.119385	0.000243	2.432036	0.411998	-0.000049
 514	5.1044e+01	9.7839	77.095163	0.000122	1.216018	0.205999	-0.000024
 515	5.1143e+01	9.7643	77.002308	0.000466	4.661401	0.789663	-0.000093
 516	5.1242e+01	9.7442	76.953863	0.000243	2.432036	0.411998	-0.000049
 517	5.1342e+01	9.7253	76.877157	0.000385	3.850723	0.652330	-0.000077
 518	5.1441e+01	9.7051	76.804489	0.000365	3.648053	0.617997	-0.000073
 519	5.1541e+01	9.6844	76.764117	0.000203	2.026696	0.343332	-0.000041
 520	5.1641e+01	9.6648	76.703560	0.000304	3.040044	0.514997	-0.000061
 521	5.1740e+01	9.6447	76.659152	0.000223	2.229366	0.377665	-0.000045
 522	5.1840e+01	9.6258	76.606669	0.000263	2.634705	0.446331	-0.000053
 523	5.1939e+01	9.6044	76.513815	0.000466	4.661401	0.789663	-0.000093
 524	5.2038e+01	9.5855	76.513815	-0.000000	-0.000000	-0.000000	0.000000
 525	5.2138e+01	9.5638	76.416924	0.000486	4.864071	0.823996	-0.000097
 526	5.2237e+01	9.5443	76.368478	0.000243	2.432036	0.411998	-0.000049
 527	5.2337e+01	9.5251	76.320033	0.000243	2.432036	0.411998	-0.000049
 528	5.2437e+01	9.5049	76.239290	0.000405	4.053393	0.686663	-0.000081
 529	5.2536e+01	9.4854	76.170659	0.000345	3.445384	0.583664	-0.000069
 530	5.2636e+01	9.4646	76.134324	0.000182	1.824027	0.308998	-0.000037
 531	5.2735e+01	9.4457	76.025322	0.000547	5.472080	0.926995	-0.000110
 532	5.2834e+01	9.4256	75.932468	0.000466	4.661401	0.789663	-0.000093
 533	5.2934e+01	9.4042	75.932468	-0.000000	-0.000000	-0.000000	0.000000
 534	5.3033e+01	9.3859	75.843651	0.000446	4.458732	0.755330	-0.000089
 535	5.3133e+01	9.3658	75.758871	0.000426	4.256062	0.720996	-0.000085
 536	5.3233e+01	9.3456	75.718499	0.000203	2.026696	0.343332	-0.000041
 537	5.3332e+01	9.3266	75.698314	0.000101	1.013348	0.171666	-0.000020
 538	5.3431e+01	9.3060	75.597385	0.000507	5.066741	0.858329	-0.000101
 539	5.3531e+01	9.2870	75.524717	0.000365	3.648053	0.617997	-0.000073
 540	5.3630e+01	9.2663	75.464160	0.000304	3.040044	0.514997	-0.000061
 541	5.3730e+01	9.2455	75.403603	0.000304	3.040044	0.514997	-0.000061
 542	5.3830e+01	9.2254	75.351120	0.000263	2.634705	0.446331	-0.000053
 543	5.3929e+01	9.2065	75.286526	0.000324	3.242714	0.549331	-0.000065
 544	5.4029e+01	9.1863	75.238080	0.000243	2.432036	0.411998	-0.000049
 545	5.4128e+01	9.1662	75.157337	0.000405	4.053393	0.686663	-0.000081
 546	5.4227e+01	9.1479	75.125040	0.000162	1.621357	0.274665	-0.000032
 547	5.4327e+01	9.1271	75.040261	0.000426	4.256062	0.720996	-0.000085
 548	5.4426e+01	9.1073	74.971629	0.000345	3.445384	0.583664	-0.000069
 549	5.4526e+01	9.0868	74.979703	-0.000041	-0.405339	-0.068666	0.000008
 550	5.4626e+01	9.0673	74.814181	0.000831	8.309455	1.407660	-0.000166
 551	5.4725e+01	9.0472	74.802070	0.000061	0.608009	0.102999	-0.000012
 552	5.4825e+01	9.0270	74.733438	0.000345	3.445384	0.583664	-0.000069
 553	5.4924e+01	9.0078	74.636547	0.000486	4.864071	0.823996	-0.000097
 554	5.5023e+01	8.9874	74.580027	0.000284	2.837375	0.480664	-0.000057
 555	5.5123e+01	8.9678	74.563879	0.000081	0.810679	0.137333	-0.000016
 556	5.5222e+01	8.9465	74.471024	0.000466	4.661401	0.789663	-0.000093
 557	5.5322e+01	8.9269	74.422579	0.000243	2.432036	0.411998	-0.000049
 558	5.5422e+01	8.9080	74.357985	0.000324	3.242714	0.549331	-0.000065
 559	5.5521e+01	8.8876	74.253019	0.000527	5.269410	0.892662	-0.000105
 560	5.5620e+01	8.8677	74.184388	0.000345	3.445384	0.583664	-0.000069
 561	5.5720e+01	8.8482	74.135942	0.000243	2.432036	0.411998	-0.000049
 562	5.5819e+01	8.8287	74.063274	0.000365	3.648053	0.617997	-0.000073
 563	5.5919e+01	8.8082	73.986568	0.000385	3.850723	0.652330	-0.000077
 564	5.6019e+01	8.7890	73.889677	0.000486	4.864071	0.823996	-0.000097
 565	5.6118e+01	8.7688	73.857380	0.000162	1.621357	0.274665	-0.000032
 566	5.6218e+01	8.7499	73.776637	0.000405	4.053393	0.686663	-0.000081
 567	5.6317e+01	8.7292	73.695894	0.000405	4.053393	0.686663	-0.000081
 568	5.6416e+01	8.7087	73.619189	0.000385	3.850723	0.652330	-0.000077
 569	5.6516e+01	8.6895	73.615152	0.000020	0.202670	0.034333	-0.000004
 570	5.6615e+01	8.6684	73.510186	0.000527	5.269410	0.892662	-0.000105
 571	5.6715e+01	8.6492	73.425406	0.000426	4.256062	0.720996	-0.000085
 572	5.6815e+01	8.6291	73.368886	0.000284	2.837375	0.480664	-0.000057
 573	5.6914e+01	8.6095	73.300255	0.000345	3.445384	0.583664	-0.000069
 574	5.7014e+01	8.5894	73.223549	0.000385	3.850723	0.652330	-0.000077
 575	5.7113e+01	8.5693	73.150881	0.000365	3.648053	0.617997	-0.000073
 576	5.7212e+01	8.5491	73.066101	0.000426	4.256062	0.720996	-0.000085
 577	5.7312e+01	8.5302	73.001507	0.000324	3.242714	0.549331	-0.000065
 578	5.7411e+01	8.5104	72.949024	0.000263	2.634705	0.446331	-0.000053
 579	5.7511e+01	8.4905	72.888467	0.000304	3.040044	0.514997	-0.000061
 580	5.7611e+01	8.4698	72.799650	0.000446	4.458732	0.755330	-0.000089
 581	5.7710e+01	8.4502	72.759279	0.000203	2.026696	0.343332	-0.000041
 582	5.7809e+01	8.4301	72.670462	0.000446	4.458732	0.755330	-0.000089
 583	5.7909e+01	8.4100	72.601831	0.000345	3.445384	0.583664	-0.000069
 584	5.8008e+01	8.3910	72.529162	0.000365	3.648053	0.617997	-0.000073
 585	5.8108e+01	8.3706	72.464568	0.000324	3.242714	0.549331	-0.000065
 586	5.8208e+01	8.3501	72.351528	0.000567	5.674750	0.961329	-0.000114
 587	5.8307e+01	8.3312	72.286934	0.000324	3.242714	0.549331	-0.000065
 588	5.8407e+01	8.3099	72.230414	0.000284	2.837375	0.480664	-0.000057
 589	5.8506e+01	8.2903	72.181968	0.000243	2.432036	0.411998	-0.000049
 590	5.8605e+01	8.2702	72.109300	0.000365	3.648053	0.617997	-0.000073
 591	5.8705e+01	8.2519	72.040669	0.000345	3.445384	0.583664	-0.000069
 592	5.8804e+01	8.2305	71.963963	0.000385	3.850723	0.652330	-0.000077
 593	5.8904e+01	8.2116	71.879183	0.000426	4.256062	0.720996	-0.000085
 594	5.9004e+01	8.1915	71.810552	0.000345	3.445384	0.583664	-0.000069
 595	5.9103e+01	8.1719	71.749995	0.000304	3.040044	0.514997	-0.000061
 596	5.9203e+01	8.1506	71.685401	0.000324	3.242714	0.549331	-0.000065
 597	5.9302e+01	8.1316	71.592547	0.000466	4.661401	0.789663	-0.000093
 598	5.9401e+01	8.1115	71.515841	0.000385	3.850723	0.652330	-0.000077
 599	5.9501e+01	8.0914	71.479507	0.000182	1.824027	0.308998	-0.000037
 600	5.9600e+01	8.0721	71.398764	0.000405	4.053393	0.686663	-0.000081
 601	5.9700e+01	8.0526	71.330133	0.000345	3.445384	0.583664	-0.000069
 602	5.9800e+01	8.0315	71.233242	0.000486	4.864071	0.823996	-0.000097
 603	5.9899e+01	8.0120	71.188833	0.000223	2.229366	0.377665	-0.000045
 604	5.9998e+01	7.9919	71.047533	0.000709	7.093437	1.201661	-0.000142
 605	6.0098e+01	7.9720	70.995051	0.000263	2.634705	0.446331	-0.000053
 606	6.0197e+01	7.9519	70.946605	0.000243	2.432036	0.411998	-0.000049
 607	6.0297e+01	7.9327	70.886048	0.000304	3.040044	0.514997	-0.000061
 608	6.0397e+01	7.9125	70.797231	0.000446	4.458732	0.755330	-0.000089
 609	6.0496e+01	7.8918	70.712451	0.000426	4.256062	0.720996	-0.000085
 610	6.0596e+01	7.8722	70.659968	0.000263	2.634705	0.446331	-0.000053
 611	6.0695e+01	7.8515	70.583263	0.000385	3.850723	0.652330	-0.000077
 612	6.0794e+01	7.8326	70.502520	0.000405	4.053393	0.686663	-0.000081
 613	6.0894e+01	7.8118	70.458111	0.000223	2.229366	0.377665	-0.000045
 614	6.0993e+01	7.7923	70.341035	0.000588	5.877419	0.995662	-0.000118
 615	6.1093e+01	7.7734	70.324886	0.000081	0.810679	0.137333	-0.000016
 616	6.1193e+01	7.7520	70.244143	0.000405	4.053393	0.686663	-0.000081
 617	6.1292e+01	7.7331	70.131103	0.000567	5.674750	0.961329	-0.000114
 618	6.1392e+01	7.7135	70.102844	0.000142	1.418687	0.240332	-0.000028
 619	6.1491e+01	7.6928	70.005952	0.000486	4.864071	0.823996	-0.000097
 620	6.1590e+01	7.6739	69.933284	0.000365	3.648053	0.617997	-0.000073
 621	6.1690e+01	7.6531	69.880801	0.000263	2.634705	0.446331	-0.000053
 622	6.1789e+01	7.6342	69.804095	0.000385	3.850723	0.652330	-0.000077
 623	6.1889e+01	7.6134	69.719316	0.000426	4.256062	0.720996	-0.000085
 624	6.1989e+01	7.5939	69.650684	0.000345	3.445384	0.583664	-0.000069
 625	6.2088e+01	7.5732	69.557830	0.000466	4.661401	0.789663	-0.000093
 626	6.2188e+01	7.5536	69.493236	0.000324	3.242714	0.549331	-0.000065
 627	6.2287e+01	7.5335	69.428642	0.000324	3.242714	0.549331	-0.000065
 628	6.2386e+01	7.5140	69.355973	0.000365	3.648053	0.617997	-0.000073
 629	6.2486e+01	7.4944	69.283305	0.000365	3.648053	0.617997	-0.000073
 630	6.2586e+01	7.4731	69.202562	0.000405	4.053393	0.686663	-0.000081
 631	6.2685e+01	7.4548	69.093560	0.000547	5.472080	0.926995	-0.000110
 632	6.2785e+01	7.4346	69.008780	0.000426	4.256062	0.720996	-0.000085
 633	6.2884e+01	7.4142	68.964371	0.000223	2.229366	0.377665	-0.000045
 634	6.2983e+01	7.3937	68.859406	0.000527	5.269410	0.892662	-0.000105
 635	6.3083e+01	7.3736	68.794812	0.000324	3.242714	0.549331	-0.000065
 636	6.3182e+01	7.3537	68.730217	0.000324	3.242714	0.549331	-0.000065
 637	6.3282e+01	7.3351	68.633326	0.000486	4.864071	0.823996	-0.000097
 638	6.3382e+01	7.3138	68.528361	0.000527	5.269410	0.892662	-0.000105
 639	6.3481e+01	7.2948	68.492026	0.000182	1.824027	0.308998	-0.000037
 640	6.3581e+01	7.2741	68.423395	0.000345	3.445384	0.583664	-0.000069
 641	6.3680e+01	7.2546	68.362838	0.000304	3.040044	0.514997	-0.000061
 642	6.3779e+01	7.2344	68.269984	0.000466	4.661401	0.789663	-0.000093
 643	6.3879e+01	7.2149	68.189241	0.000405	4.053393	0.686663	-0.000081
 644	6.3978e+01	7.1947	68.124647	0.000324	3.242714	0.549331	-0.000065
 645	6.4078e+01	7.1752	68.035830	0.000446	4.458732	0.755330	-0.000089
 646	6.4177e+01	7.1551	67.975273	0.000304	3.040044	0.514997	-0.000061
 647	6.4277e+01	7.1349	67.918753	0.000284	2.837375	0.480664	-0.000057
 648	6.4376e+01	7.1157	67.817825	0.000507	5.066741	0.858329	-0.000101
 649	6.4476e+01	7.0962	67.761305	0.000284	2.837375	0.480664	-0.000057
 650	6.4576e+01	7.0751	67.712859	0.000243	2.432036	0.411998	-0.000049
 651	6.4675e+01	7.0550	67.632116	0.000405	4.053393	0.686663	-0.000081
 652	6.4775e+01	7.0354	67.535225	0.000486	4.864071	0.823996	-0.000097
 653	6.4874e+01	7.0153	67.466594	0.000345	3.445384	0.583664	-0.000069
 654	6.4974e+01	6.9955	67.377777	0.000446	4.458732	0.755330	-0.000089
 655	6.5073e+01	6.9753	67.309146	0.000345	3.445384	0.583664	-0.000069
 656	6.5172e+01	6.9558	67.232440	0.000385	3.850723	0.652330	-0.000077
 657	6.5272e+01	6.9353	67.175920	0.000284	2.837375	0.480664	-0.000057
 658	6.5371e+01	6.9152	67.111326	0.000324	3.242714	0.549331	-0.000065
 659	6.5471e+01	6.8966	66.986175	0.000628	6.282758	1.064328	-0.000126
 660	6.5570e+01	6.8752	66.941766	0.000223	2.229366	0.377665	-0.000045
 661	6.5670e+01	6.8566	66.848912	0.000466	4.661401	0.789663	-0.000093
 662	6.5769e+01	6.8365	66.784318	0.000324	3.242714	0.549331	-0.000065
 663	6.5869e+01	6.8169	66.691464	0.000466	4.661401	0.789663	-0.000093
 664	6.5969e+01	6.7959	66.622833	0.000345	3.445384	0.583664	-0.000069
 665	6.6068e+01	6.7767	66.570350	0.000263	2.634705	0.446331	-0.000053
 666	6.6168e+01	6.7565	66.461347	0.000547	5.472080	0.926995	-0.000110
 667	6.6267e+01	6.7361	66.388679	0.000365	3.648053	0.617997	-0.000073
 668	6.6367e+01	6.7173	66.332159	0.000284	2.837375	0.480664	-0.000057
 669	6.6466e+01	6.6961	66.251416	0.000405	4.053393	0.686663	-0.000081
 670	6.6566e+01	6.6772	66.134339	0.000588	5.877419	0.995662	-0.000118
 671	6.6665e+01	6.6564	66.069745	0.000324	3.242714	0.549331	-0.000065
 672	6.6764e+01	6.6369	66.017262	0.000263	2.634705	0.446331	-0.000053
 673	6.6864e+01	6.6174	65.956705	0.000304	3.040044	0.514997	-0.000061
 674	6.6963e+01	6.5975	65.831554	0.000628	6.282758	1.064328	-0.000126
 675	6.7063e+01	6.5771	65.750811	0.000405	4.053393	0.686663	-0.000081
 676	6.7162e+01	6.5563	65.694291	0.000284	2.837375	0.480664	-0.000057
 677	6.7262e+01	6.5374	65.589326	0.000527	5.269410	0.892662	-0.000105
 678	6.7362e+01	6.5179	65.552992	0.000182	1.824027	0.308998	-0.000037
 679	6.7461e+01	6.4965	65.464175	0.000446	4.458732	0.755330	-0.000089
 680	6.7561e+01	6.4779	65.383432	0.000405	4.053393	0.686663	-0.000081
 681	6.7660e+01	6.4617	65.286541	0.000486	4.864071	0.823996	-0.000097
 682	6.7760e+01	6.4378	65.230021	0.000284	2.837375	0.480664	-0.000057
 683	6.7859e+01	6.4169	65.153315	0.000385	3.850723	0.652330	-0.000077
 684	6.7959e+01	6.3976	65.080647	0.000365	3.648053	0.617997	-0.000073
 685	6.8058e+01	6.3775	65.012015	0.000345	3.445384	0.583664	-0.000069
 686	6.8157e+01	6.3580	64.903013	0.000547	5.472080	0.926995	-0.000110
 687	6.8257e+01	6.3378	64.870716	0.000162	1.621357	0.274665	-0.000032
 688	6.8356e+01	6.3177	64.761713	0.000547	5.472080	0.926995	-0.000110
 689	6.8456e+01	6.2981	64.693082	0.000345	3.445384	0.583664	-0.000069
 690	6.8555e+01	6.2797	64.604265	0.000446	4.458732	0.755330	-0.000089
 691	6.8655e+01	6.2594	64.495262	0.000547	5.472080	0.926995	-0.000110
 692	6.8754e+01	6.2395	64.430668	0.000324	3.242714	0.549331	-0.000065
 693	6.8854e+01	6.2194	64.357999	0.000365	3.648053	0.617997	-0.000073
 694	6.8954e+01	6.1980	64.285331	0.000365	3.648053	0.617997	-0.000073
 695	6.9053e+01	6.1794	64.192477	0.000466	4.661401	0.789663	-0.000093
 696	6.9153e+01	6.1587	64.119808	0.000365	3.648053	0.617997	-0.000073
 697	6.9252e+01	6.1399	64.002731	0.000588	5.877419	0.995662	-0.000118
 698	6.9352e+01	6.1193	63.974471	0.000142	1.418687	0.240332	-0.000028
 699	6.9451e+01	6.0998	63.869506	0.000527	5.269410	0.892662	-0.000105
 700	6.9550e+01	6.0799	63.752429	0.000588	5.877419	0.995662	-0.000118
 701	6.9650e+01	6.0595	63.703983	0.000243	2.432036	0.411998	-0.000049
 702	6.9749e+01	6.0394	63.611129	0.000466	4.661401	0.789663	-0.000093
 703	6.9849e+01	6.0192	63.534424	0.000385	3.850723	0.652330	-0.000077
 704	6.9948e+01	5.9997	63.457718	0.000385	3.850723	0.652330	-0.000077
 705	7.0048e+01	5.9801	63.401198	0.000284	2.837375	0.480664	-0.000057
 706	7.0147e+01	5.9597	63.272010	0.000649	6.485428	1.098661	-0.000130
 707	7.0247e+01	5.9399	63.179156	0.000466	4.661401	0.789663	-0.000093
 708	7.0347e+01	5.9202	63.134747	0.000223	2.229366	0.377665	-0.000045
 709	7.0446e+01	5.9002	63.049967	0.000426	4.256062	0.720996	-0.000085
 710	7.0546e+01	5.8804	62.981336	0.000345	3.445384	0.583664	-0.000069
 711	7.0645e+01	5.8605	62.916742	0.000324	3.242714	0.549331	-0.000065
 712	7.0745e+01	5.8410	62.823888	0.000466	4.661401	0.789663	-0.000093
 713	7.0844e+01	5.8208	62.722959	0.000507	5.066741	0.858329	-0.000101
 714	7.0944e+01	5.8007	62.666439	0.000284	2.837375	0.480664	-0.000057
 715	7.1043e+01	5.7806	62.557437	0.000547	5.472080	0.926995	-0.000110
 716	7.1142e+01	5.7604	62.492843	0.000324	3.242714	0.549331	-0.000065
 717	7.1242e+01	5.7406	62.371729	0.000608	6.080089	1.029995	-0.000122
 718	7.1341e+01	5.7214	62.343469	0.000142	1.418687	0.240332	-0.000028
 719	7.1441e+01	5.7006	62.250615	0.000466	4.661401	0.789663	-0.000093
 720	7.1540e+01	5.6805	62.165835	0.000426	4.256062	0.720996	-0.000085
 721	7.1640e+01	5.6603	62.117389	0.000243	2.432036	0.411998	-0.000049
 722	7.1740e+01	5.6420	62.032609	0.000426	4.256062	0.720996	-0.000085
 723	7.1839e+01	5.6219	61.951866	0.000405	4.053393	0.686663	-0.000081
 724	7.1939e+01	5.6014	61.806530	0.000730	7.296107	1.235994	-0.000146
 725	7.2038e+01	5.5810	61.790381	0.000081	0.810679	0.137333	-0.000016
 726	7.2138e+01	5.5608	61.645044	0.000730	7.296107	1.235994	-0.000146
 727	7.2237e+01	5.5419	61.576413	0.000345	3.445384	0.583664	-0.000069
 728	7.2337e+01	5.5212	61.519893	0.000284	2.837375	0.480664	-0.000057
 729	7.2436e+01	5.5016	61.398779	0.000608	6.080089	1.029995	-0.000122
 730	7.2535e+01	5.4812	61.285739	0.000567	5.674750	0.961329	-0.000114
 731	7.2635e+01	5.4617	61.237293	0.000243	2.432036	0.411998	-0.000049
 732	7.2734e+01	5.4412	61.132328	0.000527	5.269410	0.892662	-0.000105
 733	7.2834e+01	5.4217	61.039474	0.000466	4.661401	0.789663	-0.000093
 734	7.2933e+01	5.4020	60.962768	0.000385	3.850723	0.652330	-0.000077
 735	7.3033e+01	5.3820	60.877988	0.000426	4.256062	0.720996	-0.000085
 736	7.3132e+01	5.3616	60.817431	0.000304	3.040044	0.514997	-0.000061
 737	7.3232e+01	5.3420	60.712466	0.000527	5.269410	0.892662	-0.000105
 738	7.3332e+01	5.3222	60.631723	0.000405	4.053393	0.686663	-0.000081
 739	7.3431e+01	5.3017	60.502535	0.000649	6.485428	1.098661	-0.000130
 740	7.3531e+01	5.2819	60.389495	0.000567	5.674750	0.961329	-0.000114
 741	7.3630e+01	5.2630	60.337012	0.000263	2.634705	0.446331	-0.000053
 742	7.3730e+01	5.2413	60.236084	0.000507	5.066741	0.858329	-0.000101
 743	7.3829e+01	5.2227	60.143230	0.000466	4.661401	0.789663	-0.000093
 744	7.3928e+01	5.2030	60.082673	0.000304	3.040044	0.514997	-0.000061
 745	7.4028e+01	5.1824	60.010004	0.000365	3.648053	0.617997	-0.000073
 746	7.4127e+01	5.1623	59.909076	0.000507	5.066741	0.858329	-0.000101
 747	7.4227e+01	5.1424	59.832370	0.000385	3.850723	0.652330	-0.000077
 748	7.4326e+01	5.1232	59.687033	0.000730	7.296107	1.235994	-0.000146
 749	7.4426e+01	5.1019	59.658773	0.000142	1.418687	0.240332	-0.000028
 750	7.4525e+01	5.0829	59.549771	0.000547	5.472080	0.926995	-0.000110
 751	7.4625e+01	5.0634	59.452879	0.000486	4.864071	0.823996	-0.000097
 752	7.4725e+01	5.0436	59.380211	0.000365	3.648053	0.617997	-0.000073
 753	7.4824e+01	5.0240	59.295431	0.000426	4.256062	0.720996	-0.000085
 754	7.4924e+01	5.0039	59.230837	0.000324	3.242714	0.549331	-0.000065
 755	7.5023e+01	4.9828	59.125871	0.000527	5.269410	0.892662	-0.000105
 756	7.5123e+01	4.9645	59.041092	0.000426	4.256062	0.720996	-0.000085
 757	7.5222e+01	4.9432	58.936126	0.000527	5.269410	0.892662	-0.000105
 758	7.5322e+01	4.9249	58.851346	0.000426	4.256062	0.720996	-0.000085
 759	7.5421e+01	4.9041	58.742344	0.000547	5.472080	0.926995	-0.000110
 760	7.5520e+01	4.8839	58.693898	0.000243	2.432036	0.411998	-0.000049
 761	7.5620e+01	4.8644	58.584895	0.000547	5.472080	0.926995	-0.000110
 762	7.5719e+01	4.8440	58.496078	0.000446	4.458732	0.755330	-0.000089
 763	7.5819e+01	4.8241	58.374964	0.000608	6.080089	1.029995	-0.000122
 764	7.5918e+01	4.8040	58.306333	0.000345	3.445384	0.583664	-0.000069
 765	7.6018e+01	4.7839	58.205405	0.000507	5.066741	0.858329	-0.000101
 766	7.6118e+01	4.7649	58.128699	0.000385	3.850723	0.652330	-0.000077
 767	7.6217e+01	4.7442	58.068142	0.000304	3.040044	0.514997	-0.000061
 768	7.6317e+01	4.7250	57.983362	0.000426	4.256062	0.720996	-0.000085
 769	7.6416e+01	4.7039	57.858211	0.000628	6.282758	1.064328	-0.000126
 770	7.6516e+01	4.6841	57.781505	0.000385	3.850723	0.652330	-0.000077
 771	7.6615e+01	4.6645	57.700763	0.000405	4.053393	0.686663	-0.000081
 772	7.6715e+01	4.6450	57.579648	0.000608	6.080089	1.029995	-0.000122
 773	7.6814e+01	4.6249	57.470646	0.000547	5.472080	0.926995	-0.000110
 774	7.6913e+01	4.6050	57.434312	0.000182	1.824027	0.308998	-0.000037
 775	7.7013e+01	4.5849	57.317235	0.000588	5.877419	0.995662	-0.000118
 776	7.7112e+01	4.5654	57.276863	0.000203	2.026696	0.343332	-0.000041
 777	7.7212e+01	4.5449	57.139601	0.000689	6.890767	1.167328	-0.000138
 778	7.7311e+01	4.5254	57.050784	0.000446	4.458732	0.755330	-0.000089
 779	7.7411e+01	4.5058	56.966004	0.000426	4.256062	0.720996	-0.000085
 780	7.7510e+01	4.4849	56.840853	0.000628	6.282758	1.064328	-0.000126
 781	7.7610e+01	4.4662	56.812593	0.000142	1.418687	0.240332	-0.000028
 782	7.7710e+01	4.4457	56.671293	0.000709	7.093437	1.201661	-0.000142
 783	7.7809e+01	4.4256	56.614773	0.000284	2.837375	0.480664	-0.000057
 784	7.7909e+01	4.4057	56.513845	0.000507	5.066741	0.858329	-0.000101
 785	7.8008e+01	4.3853	56.445213	0.000345	3.445384	0.583664	-0.000069
 786	7.8108e+01	4.3658	56.320062	0.000628	6.282758	1.064328	-0.000126
 787	7.8207e+01	4.3459	56.223171	0.000486	4.864071	0.823996	-0.000097
 788	7.8306e+01	4.3260	56.130317	0.000466	4.661401	0.789663	-0.000093
 789	7.8406e+01	4.3060	56.057648	0.000365	3.648053	0.617997	-0.000073
 790	7.8505e+01	4.2864	55.952683	0.000527	5.269410	0.892662	-0.000105
 791	7.8605e+01	4.2666	55.884051	0.000345	3.445384	0.583664	-0.000069
 792	7.8704e+01	4.2467	55.795234	0.000446	4.458732	0.755330	-0.000089
 793	7.8804e+01	4.2266	55.662009	0.000669	6.688098	1.132994	-0.000134
 794	7.8903e+01	4.2065	55.573192	0.000446	4.458732	0.755330	-0.000089
 795	7.9003e+01	4.1863	55.472264	0.000507	5.066741	0.858329	-0.000101
 796	7.9103e+01	4.1665	55.375372	0.000486	4.864071	0.823996	-0.000097
 797	7.9202e+01	4.1470	55.314815	0.000304	3.040044	0.514997	-0.000061
 798	7.9302e+01	4.1271	55.185627	0.000649	6.485428	1.098661	-0.000130
 799	7.9401e+01	4.1070	55.112959	0.000365	3.648053	0.617997	-0.000073
 800	7.9501e+01	4.0867	55.016067	0.000486	4.864071	0.823996	-0.000097
 801	7.9600e+01	4.0667	54.878805	0.000689	6.890767	1.167328	-0.000138
 802	7.9700e+01	4.0466	54.850545	0.000142	1.418687	0.240332	-0.000028
 803	7.9799e+01	4.0270	54.713282	0.000689	6.890767	1.167328	-0.000138
 804	7.9898e+01	4.0069	54.616391	0.000486	4.864071	0.823996	-0.000097
 805	7.9998e+01	3.9870	54.539685	0.000385	3.850723	0.652330	-0.000077
 806	8.0097e+01	3.9666	54.446831	0.000466	4.661401	0.789663	-0.000093
 807	8.0197e+01	3.9463	54.309569	0.000689	6.890767	1.167328	-0.000138
 808	8.0296e+01	3.9269	54.265160	0.000223	2.229366	0.377665	-0.000045
 809	8.0396e+01	3.9068	54.164232	0.000507	5.066741	0.858329	-0.000101
 810	8.0496e+01	3.8876	54.051192	0.000567	5.674750	0.961329	-0.000114
 811	8.0595e+01	3.8668	53.962375	0.000446	4.458732	0.755330	-0.000089
 812	8.0695e+01	3.8476	53.893744	0.000345	3.445384	0.583664	-0.000069
 813	8.0794e+01	3.8277	53.796852	0.000486	4.864071	0.823996	-0.000097
 814	8.0894e+01	3.8069	53.683812	0.000567	5.674750	0.961329	-0.000114
 815	8.0993e+01	3.7878	53.534438	0.000750	7.498776	1.270327	-0.000150
 816	8.1093e+01	3.7685	53.534438	-0.000000	-0.000000	-0.000000	0.000000
 817	8.1192e+01	3.7478	53.368916	0.000831	8.309455	1.407660	-0.000166
 818	8.1291e+01	3.7280	53.316433	0.000263	2.634705	0.446331	-0.000053
 819	8.1391e+01	3.7081	53.247802	0.000345	3.445384	0.583664	-0.000069
 820	8.1490e+01	3.6882	53.122651	0.000628	6.282758	1.064328	-0.000126
 821	8.1590e+01	3.6681	53.070168	0.000263	2.634705	0.446331	-0.000053
 822	8.1689e+01	3.6483	52.945017	0.000628	6.282758	1.064328	-0.000126
 823	8.1789e+01	3.6283	52.844088	0.000507	5.066741	0.858329	-0.000101
 824	8.1888e+01	3.6083	52.731048	0.000567	5.674750	0.961329	-0.000114
 825	8.1988e+01	3.5876	52.646269	0.000426	4.256062	0.720996	-0.000085
 826	8.2088e+01	3.5686	52.589749	0.000284	2.837375	0.480664	-0.000057
 827	8.2187e+01	3.5485	52.496895	0.000466	4.661401	0.789663	-0.000093
 828	8.2287e+01	3.5282	52.383855	0.000567	5.674750	0.961329	-0.000114
 829	8.2386e+01	3.5082	52.274852	0.000547	5.472080	0.926995	-0.000110
 830	8.2486e+01	3.4895	52.177961	0.000486	4.864071	0.823996	-0.000097
 831	8.2585e+01	3.4686	52.077032	0.000507	5.066741	0.858329	-0.000101
 832	8.2684e+01	3.4496	51.992253	0.000426	4.256062	0.720996	-0.000085
 833	8.2784e+01	3.4292	51.895361	0.000486	4.864071	0.823996	-0.000097
 834	8.2883e+01	3.4093	51.802507	0.000466	4.661401	0.789663	-0.000093
 835	8.2983e+01	3.3891	51.697542	0.000527	5.269410	0.892662	-0.000105
 836	8.3082e+01	3.3703	51.588539	0.000547	5.472080	0.926995	-0.000110
 837	8.3182e+01	3.3495	51.483573	0.000527	5.269410	0.892662	-0.000105
 838	8.3281e+01	3.3305	51.427054	0.000284	2.837375	0.480664	-0.000057
 839	8.3381e+01	3.3092	51.285754	0.000709	7.093437	1.201661	-0.000142
 840	8.3481e+01	3.2897	51.245382	0.000203	2.026696	0.343332	-0.000041
 841	8.3580e+01	3.2694	51.108120	0.000689	6.890767	1.167328	-0.000138
 842	8.3680e+01	3.2504	51.019303	0.000446	4.458732	0.755330	-0.000089
 843	8.3779e+01	3.2291	50.902226	0.000588	5.877419	0.995662	-0.000118
 844	8.3879e+01	3.2095	50.829558	0.000365	3.648053	0.617997	-0.000073
 845	8.3978e+01	3.1887	50.704406	0.000628	6.282758	1.064328	-0.000126
 846	8.4078e+01	3.1704	50.651924	0.000263	2.634705	0.446331	-0.000053
 847	8.4177e+01	3.1503	50.498512	0.000770	7.701446	1.304660	-0.000154
 848	8.4276e+01	3.1295	50.433918	0.000324	3.242714	0.549331	-0.000065
 849	8.4376e+01	3.1097	50.320878	0.000567	5.674750	0.961329	-0.000114
 850	8.4475e+01	3.0901	50.207839	0.000567	5.674750	0.961329	-0.000114
 851	8.4575e+01	3.0705	50.123059	0.000426	4.256062	0.720996	-0.000085
 852	8.4674e+01	3.0520	50.010019	0.000567	5.674750	0.961329	-0.000114
 853	8.4774e+01	3.0309	49.941388	0.000345	3.445384	0.583664	-0.000069
 854	8.4874e+01	3.0105	49.840459	0.000507	5.066741	0.858329	-0.000101
 855	8.4973e+01	2.9900	49.731457	0.000547	5.472080	0.926995	-0.000110
 856	8.5073e+01	2.9705	49.638602	0.000466	4.661401	0.789663	-0.000093
 857	8.5172e+01	2.9504	49.553823	0.000426	4.256062	0.720996	-0.000085
 858	8.5272e+01	2.9311	49.436746	0.000588	5.877419	0.995662	-0.000118
 859	8.5371e+01	2.9107	49.299483	0.000689	6.890767	1.167328	-0.000138
 860	8.5471e+01	2.8905	49.218740	0.000405	4.053393	0.686663	-0.000081
 861	8.5570e+01	2.8707	49.129923	0.000446	4.458732	0.755330	-0.000089
 862	8.5669e+01	2.8505	49.045144	0.000426	4.256062	0.720996	-0.000085
 863	8.5769e+01	2.8307	48.915955	0.000649	6.485428	1.098661	-0.000130
 864	8.5868e+01	2.8120	48.819064	0.000486	4.864071	0.823996	-0.000097
 865	8.5968e+01	2.7911	48.714098	0.000527	5.269410	0.892662	-0.000105
 866	8.6067e+01	2.7718	48.645467	0.000345	3.445384	0.583664	-0.000069
 867	8.6167e+01	2.7508	48.544539	0.000507	5.066741	0.858329	-0.000101
 868	8.6266e+01	2.7320	48.423425	0.000608	6.080089	1.029995	-0.000122
 869	8.6366e+01	2.7114	48.346719	0.000385	3.850723	0.652330	-0.000077
 870	8.6466e+01	2.6913	48.249828	0.000486	4.864071	0.823996	-0.000097
 871	8.6565e+01	2.6718	48.104491	0.000730	7.296107	1.235994	-0.000146
 872	8.6665e+01	2.6513	48.031822	0.000365	3.648053	0.617997	-0.000073
 873	8.6764e+01	2.6304	47.910708	0.000608	6.080089	1.029995	-0.000122
 874	8.6864e+01	2.6116	47.809780	0.000507	5.066741	0.858329	-0.000101
 875	8.6963e+01	2.5912	47.704814	0.000527	5.269410	0.892662	-0.000105
 876	8.7063e+01	2.5715	47.615997	0.000446	4.458732	0.755330	-0.000089
 877	8.7162e+01	2.5516	47.482772	0.000669	6.688098	1.132994	-0.000134
 878	8.7261e+01	2.5323	47.426252	0.000284	2.837375	0.480664	-0.000057
 879	8.7361e+01	2.5123	47.301101	0.000628	6.282758	1.064328	-0.000126
 880	8.7460e+01	2.4926	47.204210	0.000486	4.864071	0.823996	-0.000097
 881	8.7560e+01	2.4731	47.095207	0.000547	5.472080	0.926995	-0.000110
 882	8.7659e+01	2.4529	47.022539	0.000365	3.648053	0.617997	-0.000073
 883	8.7759e+01	2.4328	46.901424	0.000608	6.080089	1.029995	-0.000122
 884	8.7859e+01	2.4133	46.784348	0.000588	5.877419	0.995662	-0.000118
 885	8.7958e+01	2.3919	46.715716	0.000345	3.445384	0.583664	-0.000069
 886	8.8058e+01	2.3730	46.570379	0.000730	7.296107	1.235994	-0.000146
 887	8.8157e+01	2.3526	46.501748	0.000345	3.445384	0.583664	-0.000069
 888	8.8257e+01	2.3332	46.421005	0.000405	4.053393	0.686663	-0.000081
 889	8.8356e+01	2.3129	46.303928	0.000588	5.877419	0.995662	-0.000118
 890	8.8456e+01	2.2932	46.203000	0.000507	5.066741	0.858329	-0.000101
 891	8.8555e+01	2.2729	46.089960	0.000567	5.674750	0.961329	-0.000114
 892	8.8654e+01	2.2536	45.989032	0.000507	5.066741	0.858329	-0.000101
 893	8.8754e+01	2.2337	45.851769	0.000689	6.890767	1.167328	-0.000138
 894	8.8853e+01	2.2131	45.799286	0.000263	2.634705	0.446331	-0.000053
 895	8.8953e+01	2.1941	45.633764	0.000831	8.309455	1.407660	-0.000166
 896	8.9052e+01	2.1728	45.540910	0.000466	4.661401	0.789663	-0.000093
 897	8.9152e+01	2.1537	45.448056	0.000466	4.661401	0.789663	-0.000093
 898	8.9251e+01	2.1331	45.363276	0.000426	4.256062	0.720996	-0.000085
 899	8.9351e+01	2.1136	45.250236	0.000567	5.674750	0.961329	-0.000114
 900	8.9451e+01	2.0940	45.108936	0.000709	7.093437	1.201661	-0.000142
 901	8.9550e+01	2.0733	44.991859	0.000588	5.877419	0.995662	-0.000118
 902	8.9650e+01	2.0534	44.915154	0.000385	3.850723	0.652330	-0.000077
 903	8.9749e+01	2.0341	44.834411	0.000405	4.053393	0.686663	-0.000081
 904	8.9849e+01	2.0141	44.676963	0.000790	7.904115	1.338993	-0.000158
 905	8.9948e+01	1.9940	44.584109	0.000466	4.661401	0.789663	-0.000093
 906	9.0047e+01	1.9753	44.523551	0.000304	3.040044	0.514997	-0.000061
 907	9.0147e+01	1.9544	44.390326	0.000669	6.688098	1.132994	-0.000134
 908	9.0246e+01	1.9340	44.269212	0.000608	6.080089	1.029995	-0.000122
 909	9.0346e+01	1.9144	44.152135	0.000588	5.877419	0.995662	-0.000118
 910	9.0445e+01	1.8949	44.047169	0.000527	5.269410	0.892662	-0.000105
 911	9.0545e+01	1.8749	43.922018	0.000628	6.282758	1.064328	-0.000126
 912	9.0644e+01	1.8546	43.833201	0.000446	4.458732	0.755330	-0.000089
 913	9.0744e+01	1.8346	43.712087	0.000608	6.080089	1.029995	-0.000122
 914	9.0844e+01	1.8142	43.607122	0.000527	5.269410	0.892662	-0.000105
 915	9.0943e+01	1.7944	43.506193	0.000507	5.066741	0.858329	-0.000101
 916	9.1043e+01	1.7754	43.389116	0.000588	5.877419	0.995662	-0.000118
 917	9.1142e+01	1.7545	43.336634	0.000263	2.634705	0.446331	-0.000053
 918	9.1242e+01	1.7350	43.199371	0.000689	6.890767	1.167328	-0.000138
 919	9.1341e+01	1.7147	43.045960	0.000770	7.701446	1.304660	-0.000154
 920	9.1441e+01	1.6952	42.953106	0.000466	4.661401	0.789663	-0.000093
 921	9.1540e+01	1.6743	42.848140	0.000527	5.269410	0.892662	-0.000105
 922	9.1639e+01	1.6560	42.739137	0.000547	5.472080	0.926995	-0.000110
 923	9.1739e+01	1.6354	42.634172	0.000527	5.269410	0.892662	-0.000105
 924	9.1838e+01	1.6149	42.504984	0.000649	6.485428	1.098661	-0.000130
 925	9.1938e+01	1.5948	42.440389	0.000324	3.242714	0.549331	-0.000065
 926	9.2037e+01	1.5768	42.295053	0.000730	7.296107	1.235994	-0.000146
 927	9.2137e+01	1.5556	42.210273	0.000426	4.256062	0.720996	-0.000085
 928	9.2237e+01	1.5343	42.109344	0.000507	5.066741	0.858329	-0.000101
 929	9.2336e+01	1.5155	41.980156	0.000649	6.485428	1.098661	-0.000130
 930	9.2436e+01	1.4956	41.871153	0.000547	5.472080	0.926995	-0.000110
 931	9.2535e+01	1.4747	41.746002	0.000628	6.282758	1.064328	-0.000126
 932	9.2635e+01	1.4550	41.661222	0.000426	4.256062	0.720996	-0.000085
 933	9.2734e+01	1.4354	41.564331	0.000486	4.864071	0.823996	-0.000097
 934	9.2834e+01	1.4153	41.475514	0.000446	4.458732	0.755330	-0.000089
 935	9.2933e+01	1.3949	41.326140	0.000750	7.498776	1.270327	-0.000150
 936	9.3032e+01	1.3761	41.237323	0.000446	4.458732	0.755330	-0.000089
 937	9.3132e+01	1.3561	41.128320	0.000547	5.472080	0.926995	-0.000110
 938	9.3231e+01	1.3366	41.011243	0.000588	5.877419	0.995662	-0.000118
 939	9.3331e+01	1.3155	40.886092	0.000628	6.282758	1.064328	-0.000126
 940	9.3430e+01	1.2960	40.805349	0.000405	4.053393	0.686663	-0.000081
 941	9.3530e+01	1.2765	40.676161	0.000649	6.485428	1.098661	-0.000130
 942	9.3629e+01	1.2568	40.563121	0.000567	5.674750	0.961329	-0.000114
 943	9.3729e+01	1.2377	40.466230	0.000486	4.864071	0.823996	-0.000097
 944	9.3829e+01	1.2173	40.353190	0.000567	5.674750	0.961329	-0.000114
 945	9.3928e+01	1.1970	40.248225	0.000527	5.269410	0.892662	-0.000105
 946	9.4028e+01	1.1767	40.163445	0.000426	4.256062	0.720996	-0.000085
 947	9.4127e+01	1.1575	40.014071	0.000750	7.498776	1.270327	-0.000150
 948	9.4227e+01	1.1375	39.929291	0.000426	4.256062	0.720996	-0.000085
 949	9.4326e+01	1.1176	39.828363	0.000507	5.066741	0.858329	-0.000101
 950	9.4425e+01	1.0973	39.731471	0.000486	4.864071	0.823996	-0.000097
 951	9.4525e+01	1.0775	39.565949	0.000831	8.309455	1.407660	-0.000166
 952	9.4624e+01	1.0581	39.465020	0.000507	5.066741	0.858329	-0.000101
 953	9.4724e+01	1.0374	39.347943	0.000588	5.877419	0.995662	-0.000118
 954	9.4823e+01	1.0178	39.259126	0.000446	4.458732	0.755330	-0.000089
 955	9.4923e+01	0.9982	39.113790	0.000730	7.296107	1.235994	-0.000146
 956	9.5022e+01	0.9777	39.000750	0.000567	5.674750	0.961329	-0.000114
 957	9.5122e+01	0.9578	38.915970	0.000426	4.256062	0.720996	-0.000085
 958	9.5222e+01	0.9382	38.843302	0.000365	3.648053	0.617997	-0.000073
 959	9.5321e+01	0.9178	38.689890	0.000770	7.701446	1.304660	-0.000154
 960	9.5421e+01	0.8978	38.568776	0.000608	6.080089	1.029995	-0.000122
 961	9.5520e+01	0.8782	38.459774	0.000547	5.472080	0.926995	-0.000110
 962	9.5620e+01	0.8582	38.379031	0.000405	4.053393	0.686663	-0.000081
 963	9.5719e+01	0.8385	38.221583	0.000790	7.904115	1.338993	-0.000158
 964	9.5819e+01	0.8183	38.144877	0.000385	3.850723	0.652330	-0.000077
 965	9.5918e+01	0.7986	37.999540	0.000730	7.296107	1.235994	-0.000146
 966	9.6017e+01	0.7783	37.890537	0.000547	5.472080	0.926995	-0.000110
 967	9.6117e+01	0.7588	37.781535	0.000547	5.472080	0.926995	-0.000110
 968	9.6216e+01	0.7386	37.676569	0.000527	5.269410	0.892662	-0.000105
 969	9.6316e+01	0.7180	37.559492	0.000588	5.877419	0.995662	-0.000118
 970	9.6415e+01	0.6985	37.430304	0.000649	6.485428	1.098661	-0.000130
 971	9.6515e+01	0.6792	37.337450	0.000466	4.661401	0.789663	-0.000093
 972	9.6615e+01	0.6588	37.228447	0.000547	5.472080	0.926995	-0.000110
 973	9.6714e+01	0.6395	37.075036	0.000770	7.701446	1.304660	-0.000154
 974	9.6814e+01	0.6191	36.953922	0.000608	6.080089	1.029995	-0.000122
 975	9.6913e+01	0.5985	36.881254	0.000365	3.648053	0.617997	-0.000073
 976	9.7013e+01	0.5797	36.748028	0.000669	6.688098	1.132994	-0.000134
 977	9.7112e+01	0.5594	36.643063	0.000527	5.269410	0.892662	-0.000105
 978	9.7212e+01	0.5396	36.521948	0.000608	6.080089	1.029995	-0.000122
 979	9.7311e+01	0.5199	36.437169	0.000426	4.256062	0.720996	-0.000085
 980	9.7410e+01	0.4992	36.299906	0.000689	6.890767	1.167328	-0.000138
 981	9.7510e+01	0.4792	36.198978	0.000507	5.066741	0.858329	-0.000101
 982	9.7609e+01	0.4601	36.102086	0.000486	4.864071	0.823996	-0.000097
 983	9.7709e+01	0.4396	35.976935	0.000628	6.282758	1.064328	-0.000126
 984	9.7808e+01	0.4189	35.859858	0.000588	5.877419	0.995662	-0.000118
 985	9.7908e+01	0.3995	35.771041	0.000446	4.458732	0.755330	-0.000089
 986	9.8007e+01	0.3796	35.621667	0.000750	7.498776	1.270327	-0.000150
 987	9.8107e+01	0.3607	35.504590	0.000588	5.877419	0.995662	-0.000118
 988	9.8207e+01	0.3402	35.395588	0.000547	5.472080	0.926995	-0.000110
 989	9.8306e+01	0.3198	35.322919	0.000365	3.648053	0.617997	-0.000073
 990	9.8406e+01	0.2995	35.189694	0.000669	6.688098	1.132994	-0.000134
 991	9.8505e+01	0.2805	35.100877	0.000446	4.458732	0.755330	-0.000089
 992	9.8605e+01	0.2595	34.975725	0.000628	6.282758	1.064328	-0.000126
 993	9.8704e+01	0.2395	34.854611	0.000608	6.080089	1.029995	-0.000122
 994	9.8803e+01	0.2204	34.733497	0.000608	6.080089	1.029995	-0.000122
 995	9.8903e+01	0.2006	34.604309	0.000649	6.485428	1.098661	-0.000130
 996	9.9002e+01	0.1810	34.503381	0.000507	5.066741	0.858329	-0.000101
 997	9.9102e+01	0.1607	34.418601	0.000426	4.256062	0.720996	-0.000085
 998	9.9201e+01	0.1405	34.281338	0.000689	6.890767	1.167328	-0.000138
 999	9.9301e+01	0.1208	34.119853	0.000811	8.106785	1.373327	-0.000162
1000	9.9400e+01	0.1009	34.063333	0.000284	2.837375	0.480664	-0.000057
1001	9.9500e+01	0.0806	33.954330	0.000547	5.472080	0.926995	-0.000110
1002	9.9600e+01	0.0610	33.800919	0.000770	7.701446	1.304660	-0.000154
1003	9.9699e+01	0.0403	33.712102	0.000446	4.458732	0.755330	-0.000089
1004	9.9799e+01	0.0208	33.582914	0.000649	6.485428	1.098661	-0.000130
1005	9.9898e+01	0.0015	33.498134	0.000426	4.256062	0.720996	-0.000085
1006	9.9998e+01	-0.0177	33.381057	0.000588	5.877419	0.995662	-0.000118
1007	1.0010e+02	-0.0368	33.255906	0.000628	6.282758	1.064328	-0.000126
1008	1.0020e+02	-0.0568	33.142866	0.000567	5.674750	0.961329	-0.000114
1009	1.0030e+02	-0.0768	33.021752	0.000608	6.080089	1.029995	-0.000122
1010	1.0040e+02	-0.0967	32.936972	0.000426	4.256062	0.720996	-0.000085
1011	1.0050e+02	-0.1167	32.799709	0.000689	6.890767	1.167328	-0.000138
1012	1.0059e+02	-0.1357	32.727041	0.000365	3.648053	0.617997	-0.000073
1013	1.0069e+02	-0.1558	32.609964	0.000588	5.877419	0.995662	-0.000118
1014	1.0079e+02	-0.1763	32.476738	0.000669	6.688098	1.132994	-0.000134
1015	1.0089e+02	-0.1964	32.335439	0.000709	7.093437	1.201661	-0.000142
1016	1.0099e+02	-0.2158	32.226436	0.000547	5.472080	0.926995	-0.000110
1017	1.0109e+02	-0.2366	32.097248	0.000649	6.485428	1.098661	-0.000130
1018	1.0119e+02	-0.2572	32.004394	0.000466	4.661401	0.789663	-0.000093
1019	1.0129e+02	-0.2756	31.923651	0.000405	4.053393	0.686663	-0.000081
1020	1.0139e+02	-0.2966	31.774277	0.000750	7.498776	1.270327	-0.000150
1021	1.0149e+02	-0.3161	31.661237	0.000567	5.674750	0.961329	-0.000114
1022	1.0159e+02	-0.3357	31.507826	0.000770	7.701446	1.304660	-0.000154
1023	1.0169e+02	-0.3564	31.427083	0.000405	4.053393	0.686663	-0.000081
1024	1.0179e+02	-0.3759	31.318080	0.000547	5.472080	0.926995	-0.000110
1025	1.0189e+02	-0.3960	31.148521	0.000851	8.512124	1.441993	-0.000170
1026	1.0199e+02	-0.4163	31.051630	0.000486	4.864071	0.823996	-0.000097
1027	1.0209e+02	-0.4363	30.974924	0.000385	3.850723	0.652330	-0.000077
1028	1.0219e+02	-0.4556	30.861884	0.000567	5.674750	0.961329	-0.000114
1029	1.0229e+02	-0.4753	30.740770	0.000608	6.080089	1.029995	-0.000122
1030	1.0239e+02	-0.4964	30.591396	0.000750	7.498776	1.270327	-0.000150
1031	1.0248e+02	-0.5157	30.474319	0.000588	5.877419	0.995662	-0.000118
1032	1.0258e+02	-0.5360	30.349168	0.000628	6.282758	1.064328	-0.000126
1033	1.0268e+02	-0.5554	30.248240	0.000507	5.066741	0.858329	-0.000101
1034	1.0278e+02	-0.5754	30.131163	0.000588	5.877419	0.995662	-0.000118
1035	1.0288e+02	-0.5950	30.018123	0.000567	5.674750	0.961329	-0.000114
1036	1.0298e+02	-0.6158	29.884897	0.000669	6.688098	1.132994	-0.000134
1037	1.0308e+02	-0.6347	29.804155	0.000405	4.053393	0.686663	-0.000081
1038	1.0318e+02	-0.6551	29.642669	0.000811	8.106785	1.373327	-0.000162
1039	1.0328e+02	-0.6750	29.537704	0.000527	5.269410	0.892662	-0.000105
1040	1.0338e+02	-0.6952	29.465035	0.000365	3.648053	0.617997	-0.000073
1041	1.0348e+02	-0.7149	29.327773	0.000689	6.890767	1.167328	-0.000138
1042	1.0358e+02	-0.7357	29.198584	0.000649	6.485428	1.098661	-0.000130
1043	1.0368e+02	-0.7536	29.089582	0.000547	5.472080	0.926995	-0.000110
1044	1.0378e+02	-0.7745	28.992690	0.000486	4.864071	0.823996	-0.000097
1045	1.0388e+02	-0.7949	28.875613	0.000588	5.877419	0.995662	-0.000118
1046	1.0398e+02	-0.8154	28.726239	0.000750	7.498776	1.270327	-0.000150
1047	1.0408e+02	-0.8344	28.629348	0.000486	4.864071	0.823996	-0.000097
1048	1.0418e+02	-0.8544	28.528420	0.000507	5.066741	0.858329	-0.000101
1049	1.0428e+02	-0.8754	28.375009	0.000770	7.701446	1.304660	-0.000154
1050	1.0438e+02	-0.8942	28.229672	0.000730	7.296107	1.235994	-0.000146
1051	1.0447e+02	-0.9142	28.185263	0.000223	2.229366	0.377665	-0.000045
1052	1.0457e+02	-0.9334	28.043963	0.000709	7.093437	1.201661	-0.000142
1053	1.0467e+02	-0.9549	27.922849	0.000608	6.080089	1.029995	-0.000122
1054	1.0477e+02	-0.9750	27.846144	0.000385	3.850723	0.652330	-0.000077
1055	1.0487e+02	-0.9927	27.688695	0.000790	7.904115	1.338993	-0.000158
1056	1.0497e+02	-1.0139	27.591804	0.000486	4.864071	0.823996	-0.000097
1057	1.0507e+02	-1.0339	27.466653	0.000628	6.282758	1.064328	-0.000126
1058	1.0517e+02	-1.0538	27.389947	0.000385	3.850723	0.652330	-0.000077
1059	1.0527e+02	-1.0738	27.224425	0.000831	8.309455	1.407660	-0.000166
1060	1.0537e+02	-1.0932	27.111385	0.000567	5.674750	0.961329	-0.000114
1061	1.0547e+02	-1.1138	26.949900	0.000811	8.106785	1.373327	-0.000162
1062	1.0557e+02	-1.1343	26.873194	0.000385	3.850723	0.652330	-0.000077
1063	1.0567e+02	-1.1542	26.727857	0.000730	7.296107	1.235994	-0.000146
1064	1.0577e+02	-1.1737	26.647114	0.000405	4.053393	0.686663	-0.000081
1065	1.0587e+02	-1.1929	26.517926	0.000649	6.485428	1.098661	-0.000130
1066	1.0597e+02	-1.2134	26.400849	0.000588	5.877419	0.995662	-0.000118
1067	1.0607e+02	-1.2332	26.283772	0.000588	5.877419	0.995662	-0.000118
1068	1.0617e+02	-1.2535	26.138435	0.000730	7.296107	1.235994	-0.000146
1069	1.0627e+02	-1.2726	26.061730	0.000385	3.850723	0.652330	-0.000077
1070	1.0637e+02	-1.2926	25.888133	0.000871	8.714794	1.476326	-0.000174
1071	1.0647e+02	-1.3123	25.746833	0.000709	7.093437	1.201661	-0.000142
1072	1.0656e+02	-1.3326	25.662053	0.000426	4.256062	0.720996	-0.000085
1073	1.0666e+02	-1.3519	25.597459	0.000324	3.242714	0.549331	-0.000065
1074	1.0676e+02	-1.3720	25.415788	0.000912	9.120133	1.544992	-0.000183
1075	1.0686e+02	-1.3921	25.306785	0.000547	5.472080	0.926995	-0.000110
1076	1.0696e+02	-1.4120	25.173560	0.000669	6.688098	1.132994	-0.000134
1077	1.0706e+02	-1.4321	25.064557	0.000547	5.472080	0.926995	-0.000110
1078	1.0716e+02	-1.4525	24.955555	0.000547	5.472080	0.926995	-0.000110
1079	1.0726e+02	-1.4717	24.777921	0.000892	8.917464	1.510659	-0.000179
1080	1.0736e+02	-1.4915	24.668918	0.000547	5.472080	0.926995	-0.000110
1081	1.0746e+02	-1.5118	24.555878	0.000567	5.674750	0.961329	-0.000114
1082	1.0756e+02	-1.5317	24.471098	0.000426	4.256062	0.720996	-0.000085
1083	1.0766e+02	-1.5524	24.354021	0.000588	5.877419	0.995662	-0.000118
1084	1.0776e+02	-1.5715	24.216759	0.000689	6.890767	1.167328	-0.000138
1085	1.0786e+02	-1.5913	24.095645	0.000608	6.080089	1.029995	-0.000122
1086	1.0796e+02	-1.6113	23.966456	0.000649	6.485428	1.098661	-0.000130
1087	1.0806e+02	-1.6327	23.881676	0.000426	4.256062	0.720996	-0.000085
1088	1.0816e+02	-1.6522	23.752488	0.000649	6.485428	1.098661	-0.000130
1089	1.0826e+02	-1.6721	23.615225	0.000689	6.890767	1.167328	-0.000138
1090	1.0836e+02	-1.6913	23.506223	0.000547	5.472080	0.926995	-0.000110
1091	1.0845e+02	-1.7120	23.381072	0.000628	6.282758	1.064328	-0.000126
1092	1.0855e+02	-1.7316	23.251883	0.000649	6.485428	1.098661	-0.000130
1093	1.0865e+02	-1.7511	23.154992	0.000486	4.864071	0.823996	-0.000097
1094	1.0875e+02	-1.7711	23.013692	0.000709	7.093437	1.201661	-0.000142
1095	1.0885e+02	-1.7908	22.904690	0.000547	5.472080	0.926995	-0.000110
1096	1.0895e+02	-1.8114	22.807798	0.000486	4.864071	0.823996	-0.000097
1097	1.0905e+02	-1.8311	22.694759	0.000567	5.674750	0.961329	-0.000114
1098	1.0915e+02	-1.8499	22.545385	0.000750	7.498776	1.270327	-0.000150
1099	1.0925e+02	-1.8716	22.488865	0.000284	2.837375	0.480664	-0.000057
1100	1.0935e+02	-1.8909	22.282971	0.001034	10.336151	1.750991	-0.000207
1101	1.0945e+02	-1.9110	22.182042	0.000507	5.066741	0.858329	-0.000101
1102	1.0955e+02	-1.9308	22.085151	0.000486	4.864071	0.823996	-0.000097
1103	1.0965e+02	-1.9505	21.964037	0.000608	6.080089	1.029995	-0.000122
1104	1.0975e+02	-1.9705	21.822737	0.000709	7.093437	1.201661	-0.000142
1105	1.0985e+02	-1.9894	21.705660	0.000588	5.877419	0.995662	-0.000118
1106	1.0995e+02	-2.0100	21.572435	0.000669	6.688098	1.132994	-0.000134
1107	1.1005e+02	-2.0300	21.479581	0.000466	4.661401	0.789663	-0.000093
1108	1.1015e+02	-2.0500	21.394801	0.000426	4.256062	0.720996	-0.000085
1109	1.1025e+02	-2.0704	21.225241	0.000851	8.512124	1.441993	-0.000170
1110	1.1035e+02	-2.0898	21.100090	0.000628	6.282758	1.064328	-0.000126
1111	1.1044e+02	-2.1100	20.999162	0.000507	5.066741	0.858329	-0.000101
1112	1.1054e+02	-2.1303	20.894196	0.000527	5.269410	0.892662	-0.000105
1113	1.1064e+02	-2.1493	20.769045	0.000628	6.282758	1.064328	-0.000126
1114	1.1074e+02	-2.1695	20.627745	0.000709	7.093437	1.201661	-0.000142
1115	1.1084e+02	-2.1899	20.526817	0.000507	5.066741	0.858329	-0.000101
1116	1.1094e+02	-2.2095	20.425888	0.000507	5.066741	0.858329	-0.000101
1117	1.1104e+02	-2.2299	20.296700	0.000649	6.485428	1.098661	-0.000130
1118	1.1114e+02	-2.2507	20.147326	0.000750	7.498776	1.270327	-0.000150
1119	1.1124e+02	-2.2711	20.034286	0.000567	5.674750	0.961329	-0.000114
1120	1.1134e+02	-2.2899	19.925283	0.000547	5.472080	0.926995	-0.000110
1121	1.1144e+02	-2.3096	19.808206	0.000588	5.877419	0.995662	-0.000118
1122	1.1154e+02	-2.3302	19.683055	0.000628	6.282758	1.064328	-0.000126
1123	1.1164e+02	-2.3491	19.578090	0.000527	5.269410	0.892662	-0.000105
1124	1.1174e+02	-2.3691	19.477161	0.000507	5.066741	0.858329	-0.000101
1125	1.1184e+02	-2.3888	19.356047	0.000608	6.080089	1.029995	-0.000122
1126	1.1194e+02	-2.4091	19.214748	0.000709	7.093437	1.201661	-0.000142
1127	1.1204e+02	-2.4297	19.085559	0.000649	6.485428	1.098661	-0.000130
1128	1.1214e+02	-2.4487	18.972519	0.000567	5.674750	0.961329	-0.000114
1129	1.1224e+02	-2.4688	18.827183	0.000730	7.296107	1.235994	-0.000146
1130	1.1234e+02	-2.4884	18.730291	0.000486	4.864071	0.823996	-0.000097
1131	1.1244e+02	-2.5092	18.605140	0.000628	6.282758	1.064328	-0.000126
1132	1.1253e+02	-2.5279	18.479989	0.000628	6.282758	1.064328	-0.000126
1133	1.1263e+02	-2.5482	18.395209	0.000426	4.256062	0.720996	-0.000085
1134	1.1273e+02	-2.5686	18.278132	0.000588	5.877419	0.995662	-0.000118
1135	1.1283e+02	-2.5883	18.120684	0.000790	7.904115	1.338993	-0.000158
1136	1.1293e+02	-2.6074	18.023793	0.000486	4.864071	0.823996	-0.000097
1137	1.1303e+02	-2.6276	17.894604	0.000649	6.485428	1.098661	-0.000130
1138	1.1313e+02	-2.6472	17.809824	0.000426	4.256062	0.720996	-0.000085
1139	1.1323e+02	-2.6672	17.676599	0.000669	6.688098	1.132994	-0.000134
1140	1.1333e+02	-2.6883	17.539336	0.000689	6.890767	1.167328	-0.000138
1141	1.1343e+02	-2.7069	17.434371	0.000527	5.269410	0.892662	-0.000105
1142	1.1353e+02	-2.7274	17.301145	0.000669	6.688098	1.132994	-0.000134
1143	1.1363e+02	-2.7477	17.200217	0.000507	5.066741	0.858329	-0.000101
1144	1.1373e+02	-2.7673	17.066991	0.000669	6.688098	1.132994	-0.000134
1145	1.1383e+02	-2.7872	16.994323	0.000365	3.648053	0.617997	-0.000073
1146	1.1393e+02	-2.8081	16.844949	0.000750	7.498776	1.270327	-0.000150
1147	1.1403e+02	-2.8278	16.687501	0.000790	7.904115	1.338993	-0.000158
1148	1.1413e+02	-2.8471	16.618869	0.000345	3.445384	0.583664	-0.000069
1149	1.1423e+02	-2.8668	16.485644	0.000669	6.688098	1.132994	-0.000134
1150	1.1433e+02	-2.8874	16.396827	0.000446	4.458732	0.755330	-0.000089
1151	1.1442e+02	-2.9070	16.259564	0.000689	6.890767	1.167328	-0.000138
1152	1.1452e+02	-2.9269	16.158636	0.000507	5.066741	0.858329	-0.000101
1153	1.1462e+02	-2.9465	16.045596	0.000567	5.674750	0.961329	-0.000114
1154	1.1472e+02	-2.9659	15.920445	0.000628	6.282758	1.064328	-0.000126
1155	1.1482e+02	-2.9858	15.787219	0.000669	6.688098	1.132994	-0.000134
1156	1.1492e+02	-3.0058	15.653994	0.000669	6.688098	1.132994	-0.000134
1157	1.1502e+02	-3.0261	15.565177	0.000446	4.458732	0.755330	-0.000089
1158	1.1512e+02	-3.0469	15.440026	0.000628	6.282758	1.064328	-0.000126
1159	1.1522e+02	-3.0664	15.355246	0.000426	4.256062	0.720996	-0.000085
1160	1.1532e+02	-3.0865	15.230095	0.000628	6.282758	1.064328	-0.000126
1161	1.1542e+02	-3.1067	15.084758	0.000730	7.296107	1.235994	-0.000146
1162	1.1552e+02	-3.1259	14.995941	0.000446	4.458732	0.755330	-0.000089
1163	1.1562e+02	-3.1464	14.874827	0.000608	6.080089	1.029995	-0.000122
1164	1.1572e+02	-3.1665	14.781973	0.000466	4.661401	0.789663	-0.000093
1165	1.1582e+02	-3.1859	14.628561	0.000770	7.701446	1.304660	-0.000154
1166	1.1592e+02	-3.2047	14.527633	0.000507	5.066741	0.858329	-0.000101
1167	1.1602e+02	-3.2257	14.442853	0.000426	4.256062	0.720996	-0.000085
1168	1.1612e+02	-3.2458	14.281368	0.000811	8.106785	1.373327	-0.000162
1169	1.1622e+02	-3.2654	14.188514	0.000466	4.661401	0.789663	-0.000093
1170	1.1632e+02	-3.2855	14.079511	0.000547	5.472080	0.926995	-0.000110
1171	1.1642e+02	-3.3051	13.974545	0.000527	5.269410	0.892662	-0.000105
1172	1.1651e+02	-3.3252	13.841320	0.000669	6.688098	1.132994	-0.000134
1173	1.1661e+02	-3.3455	13.744429	0.000486	4.864071	0.823996	-0.000097
1174	1.1671e+02	-3.3657	13.607166	0.000689	6.890767	1.167328	-0.000138
1175	1.1681e+02	-3.3865	13.477978	0.000649	6.485428	1.098661	-0.000130
1176	1.1691e+02	-3.4061	13.397235	0.000405	4.053393	0.686663	-0.000081
1177	1.1701e+02	-3.4259	13.251898	0.000730	7.296107	1.235994	-0.000146
1178	1.1711e+02	-3.4456	13.134821	0.000588	5.877419	0.995662	-0.000118
1179	1.1721e+02	-3.4661	13.041967	0.000466	4.661401	0.789663	-0.000093
1180	1.1731e+02	-3.4860	12.912779	0.000649	6.485428	1.098661	-0.000130
1181	1.1741e+02	-3.5045	12.771479	0.000709	7.093437	1.201661	-0.000142
1182	1.1751e+02	-3.5251	12.666513	0.000527	5.269410	0.892662	-0.000105
1183	1.1761e+02	-3.5449	12.585771	0.000405	4.053393	0.686663	-0.000081
1184	1.1771e+02	-3.5644	12.496954	0.000446	4.458732	0.755330	-0.000089
1185	1.1781e+02	-3.5846	12.359691	0.000689	6.890767	1.167328	-0.000138
1186	1.1791e+02	-3.6047	12.242614	0.000588	5.877419	0.995662	-0.000118
1187	1.1801e+02	-3.6249	12.129574	0.000567	5.674750	0.961329	-0.000114
1188	1.1811e+02	-3.6443	12.000386	0.000649	6.485428	1.098661	-0.000130
1189	1.1821e+02	-3.6649	11.867161	0.000669	6.688098	1.132994	-0.000134
1190	1.1831e+02	-3.6845	11.750084	0.000588	5.877419	0.995662	-0.000118
1191	1.1841e+02	-3.7039	11.653192	0.000486	4.864071	0.823996	-0.000097
1192	1.1850e+02	-3.7238	11.560338	0.000466	4.661401	0.789663	-0.000093
1193	1.1860e+02	-3.7450	11.431150	0.000649	6.485428	1.098661	-0.000130
1194	1.1870e+02	-3.7643	11.310036	0.000608	6.080089	1.029995	-0.000122
1195	1.1880e+02	-3.7831	11.184885	0.000628	6.282758	1.064328	-0.000126
1196	1.1890e+02	-3.8037	11.096068	0.000446	4.458732	0.755330	-0.000089
1197	1.1900e+02	-3.8232	10.938619	0.000790	7.904115	1.338993	-0.000158
1198	1.1910e+02	-3.8437	10.857877	0.000405	4.053393	0.686663	-0.000081
1199	1.1920e+02	-3.8638	10.748874	0.000547	5.472080	0.926995	-0.000110
1200	1.1930e+02	-3.8824	10.643908	0.000527	5.269410	0.892662	-0.000105
1201	1.1940e+02	-3.9044	10.482423	0.000811	8.106785	1.373327	-0.000162
1202	1.1950e+02	-3.9227	10.385532	0.000486	4.864071	0.823996	-0.000097
1203	1.1960e+02	-3.9429	10.224046	0.000811	8.106785	1.373327	-0.000162
1204	1.1970e+02	-3.9629	10.163489	0.000304	3.040044	0.514997	-0.000061
1205	1.1980e+02	-3.9832	10.058524	0.000527	5.269410	0.892662	-0.000105
1206	1.1990e+02	-4.0029	9.933372	0.000628	6.282758	1.064328	-0.000126
1207	1.2000e+02	-4.0233	9.808221	0.000628	6.282758	1.064328	-0.000126
1208	1.2010e+02	-4.0416	9.699219	0.000547	5.472080	0.926995	-0.000110
1209	1.2020e+02	-4.0636	9.561956	0.000689	6.890767	1.167328	-0.000138
1210	1.2030e+02	-4.0817	9.456990	0.000527	5.269410	0.892662	-0.000105
1211	1.2039e+02	-4.1034	9.356062	0.000507	5.066741	0.858329	-0.000101
1212	1.2049e+02	-4.1229	9.214762	0.000709	7.093437	1.201661	-0.000142
1213	1.2059e+02	-4.1443	9.061351	0.000770	7.701446	1.304660	-0.000154
1214	1.2069e+02	-4.1620	9.000794	0.000304	3.040044	0.514997	-0.000061
1215	1.2079e+02	-4.1824	8.924089	0.000385	3.850723	0.652330	-0.000077
1216	1.2089e+02	-4.2020	8.746455	0.000892	8.917464	1.510659	-0.000179
1217	1.2099e+02	-4.2221	8.633415	0.000567	5.674750	0.961329	-0.000114
1218	1.2109e+02	-4.2426	8.508264	0.000628	6.282758	1.064328	-0.000126
1219	1.2119e+02	-4.2621	8.387149	0.000608	6.080089	1.029995	-0.000122
1220	1.2129e+02	-4.2831	8.274110	0.000567	5.674750	0.961329	-0.000114
1221	1.2139e+02	-4.3024	8.148958	0.000628	6.282758	1.064328	-0.000126
1222	1.2149e+02	-4.3213	8.048030	0.000507	5.066741	0.858329	-0.000101
1223	1.2159e+02	-4.3427	7.910767	0.000689	6.890767	1.167328	-0.000138
1224	1.2169e+02	-4.3616	7.821950	0.000446	4.458732	0.755330	-0.000089
1225	1.2179e+02	-4.3817	7.692762	0.000649	6.485428	1.098661	-0.000130
1226	1.2189e+02	-4.4019	7.612019	0.000405	4.053393	0.686663	-0.000081
1227	1.2199e+02	-4.4214	7.442460	0.000851	8.512124	1.441993	-0.000170
1228	1.2209e+02	-4.4415	7.365754	0.000385	3.850723	0.652330	-0.000077
1229	1.2219e+02	-4.4614	7.240603	0.000628	6.282758	1.064328	-0.000126
1230	1.2229e+02	-4.4814	7.095266	0.000730	7.296107	1.235994	-0.000146
1231	1.2239e+02	-4.5004	6.986263	0.000547	5.472080	0.926995	-0.000110
1232	1.2248e+02	-4.5221	6.881298	0.000527	5.269410	0.892662	-0.000105
1233	1.2258e+02	-4.5416	6.723850	0.000790	7.904115	1.338993	-0.000158
1234	1.2268e+02	-4.5618	6.594661	0.000649	6.485428	1.098661	-0.000130
1235	1.2278e+02	-4.5819	6.429139	0.000831	8.309455	1.407660	-0.000166
1236	1.2288e+02	-4.6017	6.356470	0.000365	3.648053	0.617997	-0.000073
1237	1.2298e+02	-4.6210	6.203059	0.000770	7.701446	1.304660	-0.000154
1238	1.2308e+02	-4.6417	6.085982	0.000588	5.877419	0.995662	-0.000118
1239	1.2318e+02	-4.6615	5.960831	0.000628	6.282758	1.064328	-0.000126
1240	1.2328e+02	-4.6814	5.855865	0.000527	5.269410	0.892662	-0.000105
1241	1.2338e+02	-4.7009	5.722640	0.000669	6.688098	1.132994	-0.000134
1242	1.2348e+02	-4.7203	5.589414	0.000669	6.688098	1.132994	-0.000134
1243	1.2358e+02	-4.7406	5.464263	0.000628	6.282758	1.064328	-0.000126
1244	1.2368e+02	-4.7607	5.318926	0.000730	7.296107	1.235994	-0.000146
1245	1.2378e+02	-4.7809	5.185701	0.000669	6.688098	1.132994	-0.000134
1246	1.2388e+02	-4.8006	5.060550	0.000628	6.282758	1.064328	-0.000126
1247	1.2398e+02	-4.8209	4.971733	0.000446	4.458732	0.755330	-0.000089
1248	1.2408e+02	-4.8407	4.814284	0.000790	7.904115	1.338993	-0.000158
1249	1.2418e+02	-4.8621	4.648762	0.000831	8.309455	1.407660	-0.000166
1250	1.2428e+02	-4.8801	4.543796	0.000527	5.269410	0.892662	-0.000105
1251	1.2438e+02	-4.9005	4.442868	0.000507	5.066741	0.858329	-0.000101
1252	1.2447e+02	-4.9220	4.301568	0.000709	7.093437	1.201661	-0.000142
1253	1.2457e+02	-4.9405	4.164306	0.000689	6.890767	1.167328	-0.000138
1254	1.2467e+02	-4.9606	3.990709	0.000871	8.714794	1.476326	-0.000174
1255	1.2477e+02	-4.9799	3.909966	0.000405	4.053393	0.686663	-0.000081
1256	1.2487e+02	-4.9997	3.784815	0.000628	6.282758	1.064328	-0.000126
1257	1.2497e+02	-5.0201	3.595069	0.000953	9.525472	1.613659	-0.000191
1258	1.2507e+02	-5.0397	3.510290	0.000426	4.256062	0.720996	-0.000085
1259	1.2517e+02	-5.0586	3.360916	0.000750	7.498776	1.270327	-0.000150
1260	1.2527e+02	-5.0784	3.215579	0.000730	7.296107	1.235994	-0.000146
1261	1.2537e+02	-5.0995	3.090427	0.000628	6.282758	1.064328	-0.000126
1262	1.2547e+02	-5.1184	2.969313	0.000608	6.080089	1.029995	-0.000122
1263	1.2557e+02	-5.1392	2.856274	0.000567	5.674750	0.961329	-0.000114
1264	1.2567e+02	-5.1587	2.682677	0.000871	8.714794	1.476326	-0.000174
1265	1.2577e+02	-5.1788	2.565600	0.000588	5.877419	0.995662	-0.000118
1266	1.2587e+02	-5.1990	2.371817	0.000973	9.728142	1.647992	-0.000195
1267	1.2597e+02	-5.2185	2.303186	0.000345	3.445384	0.583664	-0.000069
1268	1.2607e+02	-5.2386	2.161886	0.000709	7.093437	1.201661	-0.000142
1269	1.2617e+02	-5.2588	1.988289	0.000871	8.714794	1.476326	-0.000174
1270	1.2627e+02	-5.2782	1.834878	0.000770	7.701446	1.304660	-0.000154
1271	1.2636e+02	-5.2985	1.677430	0.000790	7.904115	1.338993	-0.000158
1272	1.2646e+02	-5.3189	1.560353	0.000588	5.877419	0.995662	-0.000118
1273	1.2656e+02	-5.3394	1.423090	0.000689	6.890767	1.167328	-0.000138
1274	1.2666e+02	-5.3583	1.293902	0.000649	6.485428	1.098661	-0.000130
1275	1.2676e+02	-5.3784	1.128379	0.000831	8.309455	1.407660	-0.000166
1276	1.2686e+02	-5.3979	1.011303	0.000588	5.877419	0.995662	-0.000118
1277	1.2696e+02	-5.4175	0.833669	0.000892	8.917464	1.510659	-0.000179
1278	1.2706e+02	-5.4382	0.684295	0.000750	7.498776	1.270327	-0.000150
1279	1.2716e+02	-5.4575	0.563180	0.000608	6.080089	1.029995	-0.000122
1280	1.2726e+02	-5.4785	0.397658	0.000831	8.309455	1.407660	-0.000166
1281	1.2736e+02	-5.4987	0.240210	0.000790	7.904115	1.338993	-0.000158
1282	1.2746e+02	-5.5179	0.098910	0.000709	7.093437	1.201661	-0.000142
1283	1.2756e+02	-5.5386	-0.054501	0.000770	7.701446	1.304660	-0.000154
1284	1.2766e+02	-5.5576	-0.175615	0.000608	6.080089	1.029995	-0.000122
1285	1.2776e+02	-5.5780	-0.316915	0.000709	7.093437	1.201661	-0.000142
1286	1.2786e+02	-5.5981	-0.506661	0.000953	9.525472	1.613659	-0.000191
1287	1.2796e+02	-5.6177	-0.639886	0.000669	6.688098	1.132994	-0.000134
1288	1.2806e+02	-5.6366	-0.761000	0.000608	6.080089	1.029995	-0.000122
1289	1.2816e+02	-5.6586	-0.970931	0.001054	10.538821	1.785325	-0.000211
1290	1.2826e+02	-5.6769	-1.112231	0.000709	7.093437	1.201661	-0.000142
1291	1.2835e+02	-5.6964	-1.293902	0.000912	9.120133	1.544992	-0.000183
1292	1.2845e+02	-5.7172	-1.406942	0.000567	5.674750	0.961329	-0.000114
1293	1.2855e+02	-5.7373	-1.604761	0.000993	9.930812	1.682325	-0.000199
1294	1.2865e+02	-5.7562	-1.750098	0.000730	7.296107	1.235994	-0.000146
1295	1.2875e+02	-5.7770	-1.883324	0.000669	6.688098	1.132994	-0.000134
1296	1.2885e+02	-5.7971	-2.012512	0.000649	6.485428	1.098661	-0.000130
1297	1.2895e+02	-5.8176	-2.210332	0.000993	9.930812	1.682325	-0.000199
1298	1.2905e+02	-5.8368	-2.375854	0.000831	8.309455	1.407660	-0.000166
1299	1.2915e+02	-5.8569	-2.537340	0.000811	8.106785	1.373327	-0.000162
1300	1.2925e+02	-5.8768	-2.690751	0.000770	7.701446	1.304660	-0.000154
1301	1.2935e+02	-5.8966	-2.860311	0.000851	8.512124	1.441993	-0.000170
1302	1.2945e+02	-5.9167	-3.033908	0.000871	8.714794	1.476326	-0.000174
1303	1.2955e+02	-5.9363	-3.171170	0.000689	6.890767	1.167328	-0.000138
1304	1.2965e+02	-5.9564	-3.356878	0.000932	9.322803	1.579326	-0.000187
1305	1.2975e+02	-5.9766	-3.518364	0.000811	8.106785	1.373327	-0.000162
1306	1.2985e+02	-5.9973	-3.667738	0.000750	7.498776	1.270327	-0.000150
1307	1.2995e+02	-6.0153	-3.881706	0.001074	10.741490	1.819658	-0.000215
1308	1.3005e+02	-6.0358	-4.027043	0.000730	7.296107	1.235994	-0.000146
1309	1.3015e+02	-6.0565	-4.196603	0.000851	8.512124	1.441993	-0.000170
1310	1.3025e+02	-6.0760	-4.390385	0.000973	9.728142	1.647992	-0.000195
1311	1.3034e+02	-6.0956	-4.555908	0.000831	8.309455	1.407660	-0.000166
1312	1.3044e+02	-6.1157	-4.741616	0.000932	9.322803	1.579326	-0.000187
1313	1.3054e+02	-6.1353	-4.919250	0.000892	8.917464	1.510659	-0.000179
1314	1.3064e+02	-6.1560	-5.056513	0.000689	6.890767	1.167328	-0.000138
1315	1.3074e+02	-6.1755	-5.234146	0.000892	8.917464	1.510659	-0.000179
1316	1.3084e+02	-6.1957	-5.415818	0.000912	9.120133	1.544992	-0.000183
1317	1.3094e+02	-6.2155	-5.585377	0.000851	8.512124	1.441993	-0.000170
1318	1.3104e+02	-6.2354	-5.758974	0.000871	8.714794	1.476326	-0.000174
1319	1.3114e+02	-6.2549	-5.956794	0.000993	9.930812	1.682325	-0.000199
1320	1.3124e+02	-6.2750	-6.126353	0.000851	8.512124	1.441993	-0.000170
1321	1.3134e+02	-6.2946	-6.324173	0.000993	9.930812	1.682325	-0.000199
1322	1.3144e+02	-6.3150	-6.501807	0.000892	8.917464	1.510659	-0.000179
1323	1.3154e+02	-6.3354	-6.626958	0.000628	6.282758	1.064328	-0.000126
1324	1.3164e+02	-6.3556	-6.857075	0.001155	11.552169	1.956990	-0.000231
1325	1.3174e+02	-6.3745	-7.010486	0.000770	7.701446	1.304660	-0.000154
1326	1.3184e+02	-6.3951	-7.220417	0.001054	10.538821	1.785325	-0.000211
1327	1.3194e+02	-6.4148	-7.369791	0.000750	7.498776	1.270327	-0.000150
1328	1.3204e+02	-6.4349	-7.535314	0.000831	8.309455	1.407660	-0.000166
1329	1.3214e+02	-6.4548	-7.765431	0.001155	11.552169	1.956990	-0.000231
1330	1.3224e+02	-6.4752	-7.939027	0.000871	8.714794	1.476326	-0.000174
1331	1.3234e+02	-6.4935	-8.140884	0.001013	10.133481	1.716658	-0.000203
1332	1.3243e+02	-6.5146	-8.342741	0.001013	10.133481	1.716658	-0.000203
1333	1.3253e+02	-6.5344	-8.520375	0.000892	8.917464	1.510659	-0.000179
1334	1.3263e+02	-6.5544	-8.693972	0.000871	8.714794	1.476326	-0.000174
1335	1.3273e+02	-6.5741	-8.891791	0.000993	9.930812	1.682325	-0.000199
1336	1.3283e+02	-6.5936	-9.085574	0.000973	9.728142	1.647992	-0.000195
1337	1.3293e+02	-6.6138	-9.287431	0.001013	10.133481	1.716658	-0.000203
1338	1.3303e+02	-6.6339	-9.517548	0.001155	11.552169	1.956990	-0.000231
1339	1.3313e+02	-6.6536	-9.650773	0.000669	6.688098	1.132994	-0.000134
1340	1.3323e+02	-6.6736	-9.901075	0.001257	12.565517	2.128656	-0.000252
1341	1.3333e+02	-6.6937	-10.078709	0.000892	8.917464	1.510659	-0.000179
1342	1.3343e+02	-6.7139	-10.304789	0.001135	11.349499	1.922657	-0.000227
1343	1.3353e+02	-6.7331	-10.506646	0.001013	10.133481	1.716658	-0.000203
1344	1.3363e+02	-6.7540	-10.740800	0.001175	11.754838	1.991324	-0.000235
1345	1.3373e+02	-6.7722	-10.882099	0.000709	7.093437	1.201661	-0.000142
1346	1.3383e+02	-6.7938	-11.104142	0.001115	11.146829	1.888324	-0.000223
1347	1.3393e+02	-6.8130	-11.297924	0.000973	9.728142	1.647992	-0.000195
1348	1.3403e+02	-6.8338	-11.580524	0.001419	14.186874	2.403321	-0.000284
1349	1.3413e+02	-6.8539	-11.754121	0.000871	8.714794	1.476326	-0.000174
1350	1.3423e+02	-6.8732	-11.935792	0.000912	9.120133	1.544992	-0.000183
1351	1.3432e+02	-6.8933	-12.169946	0.001175	11.754838	1.991324	-0.000235
1352	1.3442e+02	-6.9128	-12.371802	0.001013	10.133481	1.716658	-0.000203
1353	1.3452e+02	-6.9330	-12.593845	0.001115	11.146829	1.888324	-0.000223
1354	1.3462e+02	-6.9531	-12.807813	0.001074	10.741490	1.819658	-0.000215
1355	1.3472e+02	-6.9733	-12.985447	0.000892	8.917464	1.510659	-0.000179
1356	1.3482e+02	-6.9922	-13.223638	0.001196	11.957508	2.025657	-0.000239
1357	1.3492e+02	-7.0114	-13.465866	0.001216	12.160178	2.059990	-0.000243
1358	1.3502e+02	-7.0325	-13.667723	0.001013	10.133481	1.716658	-0.000203
1359	1.3512e+02	-7.0520	-13.922063	0.001277	12.768186	2.162989	-0.000256
1360	1.3522e+02	-7.0721	-14.103734	0.000912	9.120133	1.544992	-0.000183
1361	1.3532e+02	-7.0911	-14.378259	0.001378	13.781535	2.334655	-0.000276
1362	1.3542e+02	-7.1130	-14.584153	0.001034	10.336151	1.750991	-0.000207
1363	1.3552e+02	-7.1326	-14.786010	0.001013	10.133481	1.716658	-0.000203
1364	1.3562e+02	-7.1524	-15.060535	0.001378	13.781535	2.334655	-0.000276
1365	1.3572e+02	-7.1725	-15.246243	0.000932	9.322803	1.579326	-0.000187
1366	1.3582e+02	-7.1924	-15.492508	0.001236	12.362847	2.094323	-0.000248
1367	1.3592e+02	-7.2125	-15.706477	0.001074	10.741490	1.819658	-0.000215
1368	1.3602e+02	-7.2314	-15.936593	0.001155	11.552169	1.956990	-0.000231
1369	1.3612e+02	-7.2516	-16.215156	0.001398	13.984204	2.368988	-0.000280
1370	1.3622e+02	-7.2717	-16.481607	0.001338	13.376195	2.265989	-0.000268
1371	1.3631e+02	-7.2913	-16.618869	0.000689	6.890767	1.167328	-0.000138
1372	1.3641e+02	-7.3114	-16.905506	0.001439	14.389543	2.437655	-0.000288
1373	1.3651e+02	-7.3312	-17.163883	0.001297	12.970856	2.197322	-0.000260
1374	1.3661e+02	-7.3511	-17.377851	0.001074	10.741490	1.819658	-0.000215
1375	1.3671e+02	-7.3712	-17.632190	0.001277	12.768186	2.162989	-0.000256
1376	1.3681e+02	-7.3914	-17.878456	0.001236	12.362847	2.094323	-0.000248
1377	1.3691e+02	-7.4127	-18.165092	0.001439	14.389543	2.437655	-0.000288
1378	1.3701e+02	-7.4316	-18.395209	0.001155	11.552169	1.956990	-0.000231
1379	1.3711e+02	-7.4518	-18.597066	0.001013	10.133481	1.716658	-0.000203
1380	1.3721e+02	-7.4701	-18.875628	0.001398	13.984204	2.368988	-0.000280
1381	1.3731e+02	-7.4915	-19.101708	0.001135	11.349499	1.922657	-0.000227
1382	1.3741e+02	-7.5110	-19.388344	0.001439	14.389543	2.437655	-0.000288
1383	1.3751e+02	-7.5308	-19.626535	0.001196	11.957508	2.025657	-0.000239
1384	1.3761e+02	-7.5507	-19.880875	0.001277	12.768186	2.162989	-0.000256
1385	1.3771e+02	-7.5708	-20.127140	0.001236	12.362847	2.094323	-0.000248
1386	1.3781e+02	-7.5900	-20.369368	0.001216	12.160178	2.059990	-0.000243
1387	1.3791e+02	-7.6093	-20.656005	0.001439	14.389543	2.437655	-0.000288
1388	1.3801e+02	-7.6294	-20.934567	0.001398	13.984204	2.368988	-0.000280
1389	1.3811e+02	-7.6501	-21.144498	0.001054	10.538821	1.785325	-0.000211
1390	1.3821e+02	-7.6703	-21.431135	0.001439	14.389543	2.437655	-0.000288
1391	1.3831e+02	-7.6892	-21.725846	0.001479	14.794883	2.506321	-0.000296
1392	1.3840e+02	-7.7106	-22.004408	0.001398	13.984204	2.368988	-0.000280
1393	1.3850e+02	-7.7307	-22.206265	0.001013	10.133481	1.716658	-0.000203
1394	1.3860e+02	-7.7496	-22.517125	0.001561	15.605561	2.643654	-0.000312
1395	1.3870e+02	-7.7695	-22.775501	0.001297	12.970856	2.197322	-0.000260
1396	1.3880e+02	-7.7899	-23.050026	0.001378	13.781535	2.334655	-0.000276
1397	1.3890e+02	-7.8088	-23.344737	0.001479	14.794883	2.506321	-0.000296
1398	1.3900e+02	-7.8290	-23.647523	0.001520	15.200222	2.574987	-0.000304
1399	1.3910e+02	-7.8485	-23.918011	0.001358	13.578865	2.300322	-0.000272
1400	1.3920e+02	-7.8693	-24.228870	0.001561	15.605561	2.643654	-0.000312
1401	1.3930e+02	-7.8888	-24.467061	0.001196	11.957508	2.025657	-0.000239
1402	1.3940e+02	-7.9089	-24.741586	0.001378	13.781535	2.334655	-0.000276
1403	1.3950e+02	-7.9297	-25.068594	0.001642	16.416240	2.780986	-0.000329
1404	1.3960e+02	-7.9489	-25.339082	0.001358	13.578865	2.300322	-0.000272
1405	1.3970e+02	-7.9688	-25.629756	0.001459	14.592213	2.471988	-0.000292
1406	1.3980e+02	-7.9883	-25.944653	0.001581	15.808231	2.677987	-0.000316
1407	1.3990e+02	-8.0081	-26.263587	0.001601	16.010900	2.712320	-0.000321
1408	1.4000e+02	-8.0286	-26.534075	0.001358	13.578865	2.300322	-0.000272
1409	1.4010e+02	-8.0487	-26.857045	0.001621	16.213570	2.746653	-0.000325
1410	1.4020e+02	-8.0682	-27.115422	0.001297	12.970856	2.197322	-0.000260
1411	1.4029e+02	-8.0884	-27.474727	0.001804	18.037597	3.055652	-0.000361
1412	1.4039e+02	-8.1079	-27.765401	0.001459	14.592213	2.471988	-0.000292
1413	1.4049e+02	-8.1281	-28.027815	0.001317	13.173526	2.231656	-0.000264
1414	1.4059e+02	-8.1482	-28.362897	0.001682	16.821579	2.849653	-0.000337
1415	1.4069e+02	-8.1683	-28.665682	0.001520	15.200222	2.574987	-0.000304
1416	1.4079e+02	-8.1882	-28.996727	0.001662	16.618909	2.815319	-0.000333
1417	1.4089e+02	-8.2092	-29.267216	0.001358	13.578865	2.300322	-0.000272
1418	1.4099e+02	-8.2275	-29.614409	0.001743	17.429588	2.952652	-0.000349
1419	1.4109e+02	-8.2480	-29.909120	0.001479	14.794883	2.506321	-0.000296
1420	1.4119e+02	-8.2672	-30.244202	0.001682	16.821579	2.849653	-0.000337
1421	1.4129e+02	-8.2864	-30.595433	0.001763	17.632257	2.986985	-0.000353
1422	1.4139e+02	-8.3069	-30.910330	0.001581	15.808231	2.677987	-0.000316
1423	1.4149e+02	-8.3276	-31.241375	0.001662	16.618909	2.815319	-0.000333
1424	1.4159e+02	-8.3472	-31.560309	0.001601	16.010900	2.712320	-0.000321
1425	1.4169e+02	-8.3673	-31.863094	0.001520	15.200222	2.574987	-0.000304
1426	1.4179e+02	-8.3871	-32.186065	0.001621	16.213570	2.746653	-0.000325
1427	1.4189e+02	-8.4076	-32.561518	0.001885	18.848275	3.192984	-0.000377
1428	1.4199e+02	-8.4265	-32.880452	0.001601	16.010900	2.712320	-0.000321
1429	1.4209e+02	-8.4467	-33.223609	0.001723	17.226918	2.918319	-0.000345
1430	1.4219e+02	-8.4662	-33.578877	0.001783	17.834927	3.021318	-0.000357
1431	1.4228e+02	-8.4857	-33.926070	0.001743	17.429588	2.952652	-0.000349
1432	1.4238e+02	-8.5065	-34.208670	0.001419	14.186874	2.403321	-0.000284
1433	1.4248e+02	-8.5272	-34.600272	0.001966	19.658954	3.330317	-0.000394
1434	1.4258e+02	-8.5474	-34.987837	0.001946	19.456284	3.295984	-0.000390
1435	1.4268e+02	-8.5669	-35.330993	0.001723	17.226918	2.918319	-0.000345
1436	1.4278e+02	-8.5870	-35.694336	0.001824	18.240266	3.089985	-0.000365
1437	1.4288e+02	-8.6066	-36.009232	0.001581	15.808231	2.677987	-0.000316
1438	1.4298e+02	-8.6276	-36.368537	0.001804	18.037597	3.055652	-0.000361
1439	1.4308e+02	-8.6459	-36.711694	0.001723	17.226918	2.918319	-0.000345
1440	1.4318e+02	-8.6664	-37.103296	0.001966	19.658954	3.330317	-0.000394
1441	1.4328e+02	-8.6865	-37.462601	0.001804	18.037597	3.055652	-0.000361
1442	1.4338e+02	-8.7061	-37.842092	0.001905	19.050945	3.227317	-0.000381
1443	1.4348e+02	-8.7262	-38.221583	0.001905	19.050945	3.227317	-0.000381
1444	1.4358e+02	-8.7451	-38.572813	0.001763	17.632257	2.986985	-0.000353
1445	1.4368e+02	-8.7671	-38.948267	0.001885	18.848275	3.192984	-0.000377
1446	1.4378e+02	-8.7860	-39.339869	0.001966	19.658954	3.330317	-0.000394
1447	1.4388e+02	-8.8055	-39.715323	0.001885	18.848275	3.192984	-0.000377
1448	1.4398e+02	-8.8257	-40.070591	0.001783	17.834927	3.021318	-0.000357
1449	1.4408e+02	-8.8458	-40.462193	0.001966	19.658954	3.330317	-0.000394
1450	1.4418e+02	-8.8654	-40.841684	0.001905	19.050945	3.227317	-0.000381
1451	1.4428e+02	-8.8849	-41.241360	0.002006	20.064293	3.398983	-0.000402
1452	1.4437e+02	-8.9056	-41.661222	0.002108	21.077641	3.570649	-0.000422
1453	1.4447e+02	-8.9249	-42.008416	0.001743	17.429588	2.952652	-0.000349
1454	1.4457e+02	-8.9447	-42.444427	0.002189	21.888320	3.707982	-0.000438
1455	1.4467e+02	-8.9648	-42.876400	0.002169	21.685650	3.673649	-0.000434
1456	1.4477e+02	-8.9844	-43.263965	0.001946	19.456284	3.295984	-0.000390
1457	1.4487e+02	-9.0057	-43.651530	0.001946	19.456284	3.295984	-0.000390
1458	1.4497e+02	-9.0253	-44.051207	0.002006	20.064293	3.398983	-0.000402
1459	1.4507e+02	-9.0448	-44.487217	0.002189	21.888320	3.707982	-0.000438
1460	1.4517e+02	-9.0637	-44.882857	0.001986	19.861623	3.364650	-0.000398
1461	1.4527e+02	-9.0845	-45.266384	0.001925	19.253614	3.261651	-0.000385
1462	1.4537e+02	-9.1046	-45.726618	0.002310	23.104337	3.913981	-0.000463
1463	1.4547e+02	-9.1248	-46.146480	0.002108	21.077641	3.570649	-0.000422
1464	1.4557e+02	-9.1437	-46.590565	0.002229	22.293659	3.776648	-0.000446
1465	1.4567e+02	-9.1644	-46.998316	0.002047	20.469632	3.467650	-0.000410
1466	1.4577e+02	-9.1846	-47.430289	0.002169	21.685650	3.673649	-0.000434
1467	1.4587e+02	-9.2041	-47.902634	0.002371	23.712346	4.016980	-0.000475
1468	1.4597e+02	-9.2236	-48.298273	0.001986	19.861623	3.364650	-0.000398
1469	1.4607e+02	-9.2438	-48.750433	0.002270	22.698998	3.845314	-0.000454
1470	1.4617e+02	-9.2633	-49.210666	0.002310	23.104337	3.913981	-0.000463
1471	1.4626e+02	-9.2841	-49.630528	0.002108	21.077641	3.570649	-0.000422
1472	1.4636e+02	-9.3042	-50.106910	0.002392	23.915016	4.051313	-0.000479
1473	1.4646e+02	-9.3234	-50.599441	0.002473	24.725694	4.188646	-0.000495
1474	1.4656e+02	-9.3439	-51.023340	0.002128	21.280311	3.604982	-0.000426
1475	1.4666e+02	-9.3634	-51.483573	0.002310	23.104337	3.913981	-0.000463
1476	1.4676e+02	-9.3832	-51.915547	0.002169	21.685650	3.673649	-0.000434
1477	1.4686e+02	-9.4031	-52.432300	0.002594	25.941712	4.394645	-0.000519
1478	1.4696e+02	-9.4226	-52.868311	0.002189	21.888320	3.707982	-0.000438
1479	1.4706e+02	-9.4421	-53.372953	0.002533	25.333703	4.291646	-0.000507
1480	1.4716e+02	-9.4623	-53.829149	0.002290	22.901668	3.879648	-0.000458
1481	1.4726e+02	-9.4830	-54.349940	0.002614	26.144382	4.428978	-0.000523
1482	1.4736e+02	-9.5032	-54.769802	0.002108	21.077641	3.570649	-0.000422
1483	1.4746e+02	-9.5230	-55.298667	0.002655	26.549721	4.497644	-0.000532
1484	1.4756e+02	-9.5435	-55.758900	0.002310	23.104337	3.913981	-0.000463
1485	1.4766e+02	-9.5624	-56.263542	0.002533	25.333703	4.291646	-0.000507
1486	1.4776e+02	-9.5831	-56.739924	0.002392	23.915016	4.051313	-0.000479
1487	1.4786e+02	-9.6014	-57.192083	0.002270	22.698998	3.845314	-0.000454
1488	1.4796e+02	-9.6222	-57.737097	0.002736	27.360399	4.634977	-0.000548
1489	1.4806e+02	-9.6423	-58.253850	0.002594	25.941712	4.394645	-0.000519
1490	1.4816e+02	-9.6631	-58.762529	0.002554	25.536373	4.325979	-0.000511
1491	1.4825e+02	-9.6814	-59.283320	0.002614	26.144382	4.428978	-0.000523
1492	1.4835e+02	-9.7015	-59.800073	0.002594	25.941712	4.394645	-0.000519
1493	1.4845e+02	-9.7223	-60.337012	0.002696	26.955060	4.566311	-0.000540
1494	1.4855e+02	-9.7423	-60.845691	0.002554	25.536373	4.325979	-0.000511
1495	1.4865e+02	-9.7620	-61.394742	0.002756	27.563069	4.669310	-0.000552
1496	1.4875e+02	-9.7821	-61.887272	0.002473	24.725694	4.188646	-0.000495
1497	1.4885e+02	-9.8022	-62.448434	0.002817	28.171078	4.772310	-0.000564
1498	1.4895e+02	-9.8215	-62.973262	0.002635	26.347051	4.463311	-0.000527
1499	1.4905e+02	-9.8413	-63.554609	0.002918	29.184426	4.943976	-0.000584
1500	1.4915e+02	-9.8608	-64.107697	0.002777	27.765739	4.703643	-0.000556
1501	1.4925e+02	-9.8822	-64.628487	0.002614	26.144382	4.428978	-0.000523
1502	1.4935e+02	-9.9017	-65.185612	0.002797	27.968408	4.737977	-0.000560
1503	1.4945e+02	-9.9207	-65.791183	0.003040	30.400444	5.149975	-0.000609
1504	1.4955e+02	-9.9414	-66.332159	0.002716	27.157730	4.600644	-0.000544
1505	1.4965e+02	-9.9622	-66.929655	0.003000	29.995105	5.081308	-0.000600
1506	1.4975e+02	-9.9817	-67.486780	0.002797	27.968408	4.737977	-0.000560
1507	1.4985e+02	-10.0000	-68.084276	0.003000	29.995105	5.081308	-0.000600
1508	1.4995e+02	-9.9817	-68.528361	-0.002229	-22.293659	-3.776648	-0.000446
1509	1.5005e+02	-9.9615	-68.847294	-0.001601	-16.010900	-2.712320	-0.000321
1510	1.5015e+02	-9.9408	-69.283305	-0.002189	-21.888320	-3.707982	-0.000438
1511	1.5025e+02	-9.9219	-69.614350	-0.001662	-16.618909	-2.815319	-0.000333
1512	1.5034e+02	-9.9017	-69.989804	-0.001885	-18.848275	-3.192984	-0.000377
1513	1.5044e+02	-9.8816	-70.328923	-0.001702	-17.024249	-2.883986	-0.000341
1514	1.5054e+02	-9.8621	-70.575188	-0.001236	-12.362847	-2.094323	-0.000248
1515	1.5064e+02	-9.8407	-70.906234	-0.001662	-16.618909	-2.815319	-0.000333
1516	1.5074e+02	-9.8218	-71.188833	-0.001419	-14.186874	-2.403321	-0.000284
1517	1.5084e+02	-9.8010	-71.471433	-0.001419	-14.186874	-2.403321	-0.000284
1518	1.5094e+02	-9.7815	-71.729809	-0.001297	-12.970856	-2.197322	-0.000260
1519	1.5104e+02	-9.7626	-72.004334	-0.001378	-13.781535	-2.334655	-0.000276
1520	1.5114e+02	-9.7421	-72.270785	-0.001338	-13.376195	-2.265989	-0.000268
1521	1.5124e+02	-9.7226	-72.472642	-0.001013	-10.133481	-1.716658	-0.000203
1522	1.5134e+02	-9.7009	-72.670462	-0.000993	-9.930812	-1.682325	-0.000199
1523	1.5144e+02	-9.6820	-72.892504	-0.001115	-11.146829	-1.888324	-0.000223
1524	1.5154e+02	-9.6625	-73.122621	-0.001155	-11.552169	-1.956990	-0.000231
1525	1.5164e+02	-9.6420	-73.344664	-0.001115	-11.146829	-1.888324	-0.000223
1526	1.5174e+02	-9.6228	-73.546520	-0.001013	-10.133481	-1.716658	-0.000203
1527	1.5184e+02	-9.6021	-73.708006	-0.000811	-8.106785	-1.373327	-0.000162
1528	1.5194e+02	-9.5825	-73.877565	-0.000851	-8.512124	-1.441993	-0.000170
1529	1.5204e+02	-9.5624	-74.091534	-0.001074	-10.741490	-1.819658	-0.000215
1530	1.5214e+02	-9.5422	-74.293390	-0.001013	-10.133481	-1.716658	-0.000203
1531	1.5224e+02	-9.5233	-74.414504	-0.000608	-6.080089	-1.029995	-0.000122
1532	1.5233e+02	-9.5032	-74.588101	-0.000871	-8.714794	-1.476326	-0.000174
1533	1.5243e+02	-9.4830	-74.717290	-0.000649	-6.485428	-1.098661	-0.000130
1534	1.5253e+02	-9.4617	-74.870701	-0.000770	-7.701446	-1.304660	-0.000154
1535	1.5263e+02	-9.4434	-74.967592	-0.000486	-4.864071	-0.823996	-0.000097
1536	1.5273e+02	-9.4232	-75.173486	-0.001034	-10.336151	-1.750991	-0.000207
1537	1.5283e+02	-9.4031	-75.318823	-0.000730	-7.296107	-1.235994	-0.000146
1538	1.5293e+02	-9.3842	-75.395528	-0.000385	-3.850723	-0.652330	-0.000077
1539	1.5303e+02	-9.3640	-75.548940	-0.000770	-7.701446	-1.304660	-0.000154
1540	1.5313e+02	-9.3433	-75.633719	-0.000426	-4.256062	-0.720996	-0.000085
1541	1.5323e+02	-9.3234	-75.762908	-0.000649	-6.485428	-1.098661	-0.000130
1542	1.5333e+02	-9.3024	-75.896133	-0.000669	-6.688098	-1.132994	-0.000134
1543	1.5343e+02	-9.2841	-76.001099	-0.000527	-5.269410	-0.892662	-0.000105
1544	1.5353e+02	-9.2636	-76.102027	-0.000507	-5.066741	-0.858329	-0.000101
1545	1.5363e+02	-9.2438	-76.170659	-0.000345	-3.445384	-0.583664	-0.000069
1546	1.5373e+02	-9.2236	-76.263513	-0.000466	-4.661401	-0.789663	-0.000093
1547	1.5383e+02	-9.2047	-76.324070	-0.000304	-3.040044	-0.514997	-0.000061
1548	1.5393e+02	-9.1840	-76.441147	-0.000588	-5.877419	-0.995662	-0.000118
1549	1.5403e+02	-9.1644	-76.501704	-0.000304	-3.040044	-0.514997	-0.000061
1550	1.5413e+02	-9.1455	-76.634929	-0.000669	-6.688098	-1.132994	-0.000134
1551	1.5422e+02	-9.1248	-76.663189	-0.000142	-1.418687	-0.240332	-0.000028
1552	1.5432e+02	-9.1037	-76.727783	-0.000324	-3.242714	-0.549331	-0.000065
1553	1.5442e+02	-9.0845	-76.772192	-0.000223	-2.229366	-0.377665	-0.000045
1554	1.5452e+02	-9.0643	-76.840823	-0.000345	-3.445384	-0.583664	-0.000069
1555	1.5462e+02	-9.0448	-76.913492	-0.000365	-3.648053	-0.617997	-0.000073
1556	1.5472e+02	-9.0240	-76.925603	-0.000061	-0.608009	-0.102999	-0.000012
1557	1.5482e+02	-9.0045	-77.026531	-0.000507	-5.066741	-0.858329	-0.000101
1558	1.5492e+02	-8.9850	-77.050754	-0.000122	-1.216018	-0.205999	-0.000024
1559	1.5502e+02	-8.9642	-77.119385	-0.000345	-3.445384	-0.583664	-0.000069
1560	1.5512e+02	-8.9447	-77.143608	-0.000122	-1.216018	-0.205999	-0.000024
1561	1.5522e+02	-8.9252	-77.175905	-0.000162	-1.621357	-0.274665	-0.000032
1562	1.5532e+02	-8.9056	-77.228388	-0.000263	-2.634705	-0.446331	-0.000053
1563	1.5542e+02	-8.8855	-77.256648	-0.000142	-1.418687	-0.240332	-0.000028
1564	1.5552e+02	-8.8647	-77.309131	-0.000263	-2.634705	-0.446331	-0.000053
1565	1.5562e+02	-8.8446	-77.377762	-0.000345	-3.445384	-0.583664	-0.000069
1566	1.5572e+02	-8.8257	-77.365651	0.000061	0.608009	0.102999	0.000012
1567	1.5582e+02	-8.8068	-77.393911	-0.000142	-1.418687	-0.240332	-0.000028
1568	1.5592e+02	-8.7860	-77.418133	-0.000122	-1.216018	-0.205999	-0.000024
1569	1.5602e+02	-8.7653	-77.478691	-0.000304	-3.040044	-0.514997	-0.000061
1570	1.5612e+02	-8.7454	-77.462542	0.000081	0.810679	0.137333	0.000016
1571	1.5622e+02	-8.7256	-77.523099	-0.000304	-3.040044	-0.514997	-0.000061
1572	1.5631e+02	-8.7057	-77.478691	0.000223	2.229366	0.377665	0.000045
1573	1.5641e+02	-8.6859	-77.543285	-0.000324	-3.242714	-0.549331	-0.000065
1574	1.5651e+02	-8.6658	-77.515025	0.000142	1.418687	0.240332	0.000028
1575	1.5661e+02	-8.6462	-77.539248	-0.000122	-1.216018	-0.205999	-0.000024
1576	1.5671e+02	-8.6267	-77.579619	-0.000203	-2.026696	-0.343332	-0.000041
1577	1.5681e+02	-8.6041	-77.587693	-0.000041	-0.405339	-0.068666	-0.000008
1578	1.5691e+02	-8.5870	-77.587693	0.000000	0.000000	0.000000	0.000000
1579	1.5701e+02	-8.5669	-77.567508	0.000101	1.013348	0.171666	0.000020
1580	1.5711e+02	-8.5468	-77.611916	-0.000223	-2.229366	-0.377665	-0.000045
1581	1.5721e+02	-8.5272	-77.599805	0.000061	0.608009	0.102999	0.000012
1582	1.5731e+02	-8.5065	-77.636139	-0.000182	-1.824027	-0.308998	-0.000037
1583	1.5741e+02	-8.4875	-77.607879	0.000142	1.418687	0.240332	0.000028
1584	1.5751e+02	-8.4662	-77.591730	0.000081	0.810679	0.137333	0.000016
1585	1.5761e+02	-8.4467	-77.579619	0.000061	0.608009	0.102999	0.000012
1586	1.5771e+02	-8.4262	-77.595767	-0.000081	-0.810679	-0.137333	-0.000016
1587	1.5781e+02	-8.4070	-77.555396	0.000203	2.026696	0.343332	0.000041
1588	1.5791e+02	-8.3868	-77.591730	-0.000182	-1.824027	-0.308998	-0.000037
1589	1.5801e+02	-8.3667	-77.563470	0.000142	1.418687	0.240332	0.000028
1590	1.5811e+02	-8.3472	-77.547322	0.000081	0.810679	0.137333	0.000016
1591	1.5821e+02	-8.3270	-77.506950	0.000203	2.026696	0.343332	0.000041
1592	1.5830e+02	-8.3075	-77.494839	0.000061	0.608009	0.102999	0.000012
1593	1.5840e+02	-8.2886	-77.470616	0.000122	1.216018	0.205999	0.000024
1594	1.5850e+02	-8.2678	-77.482728	-0.000061	-0.608009	-0.102999	-0.000012
1595	1.5860e+02	-8.2483	-77.446393	0.000182	1.824027	0.308998	0.000037
1596	1.5870e+02	-8.2281	-77.430245	0.000081	0.810679	0.137333	0.000016
1597	1.5880e+02	-8.2086	-77.414096	0.000081	0.810679	0.137333	0.000016
1598	1.5890e+02	-8.1879	-77.357576	0.000284	2.837375	0.480664	0.000057
1599	1.5900e+02	-8.1677	-77.361614	-0.000020	-0.202670	-0.034333	-0.000004
1600	1.5910e+02	-8.1482	-77.349502	0.000061	0.608009	0.102999	0.000012
1601	1.5920e+02	-8.1284	-77.305094	0.000223	2.229366	0.377665	0.000045
1602	1.5930e+02	-8.1079	-77.260685	0.000223	2.229366	0.377665	0.000045
1603	1.5940e+02	-8.0890	-77.232425	0.000142	1.418687	0.240332	0.000028
1604	1.5950e+02	-8.0688	-77.208202	0.000122	1.216018	0.205999	0.000024
1605	1.5960e+02	-8.0487	-77.216277	-0.000041	-0.405339	-0.068666	-0.000008
1606	1.5970e+02	-8.0292	-77.155720	0.000304	3.040044	0.514997	0.000061
1607	1.5980e+02	-8.0090	-77.151683	0.000020	0.202670	0.034333	0.000004
1608	1.5990e+02	-7.9880	-77.083051	0.000345	3.445384	0.583664	0.000069
1609	1.6000e+02	-7.9681	-77.046717	0.000182	1.824027	0.308998	0.000037
1610	1.6010e+02	-7.9483	-77.058828	-0.000061	-0.608009	-0.102999	-0.000012
1611	1.6019e+02	-7.9285	-76.970011	0.000446	4.458732	0.755330	0.000089
1612	1.6029e+02	-7.9089	-76.945789	0.000122	1.216018	0.205999	0.000024
1613	1.6039e+02	-7.8894	-76.921566	0.000122	1.216018	0.205999	0.000024
1614	1.6049e+02	-7.8699	-76.856972	0.000324	3.242714	0.549331	0.000065
1615	1.6059e+02	-7.8488	-76.848897	0.000041	0.405339	0.068666	0.000008
1616	1.6069e+02	-7.8299	-76.824675	0.000122	1.216018	0.205999	0.000024
1617	1.6079e+02	-7.8088	-76.764117	0.000304	3.040044	0.514997	0.000061
1618	1.6089e+02	-7.7893	-76.707598	0.000284	2.837375	0.480664	0.000057
1619	1.6099e+02	-7.7686	-76.663189	0.000223	2.229366	0.377665	0.000045
1620	1.6109e+02	-7.7484	-76.643003	0.000101	1.013348	0.171666	0.000020
1621	1.6119e+02	-7.7289	-76.570335	0.000365	3.648053	0.617997	0.000073
1622	1.6129e+02	-7.7094	-76.489592	0.000405	4.053393	0.686663	0.000081
1623	1.6139e+02	-7.6892	-76.501704	-0.000061	-0.608009	-0.102999	-0.000012
1624	1.6149e+02	-7.6691	-76.449221	0.000263	2.634705	0.446331	0.000053
1625	1.6159e+02	-7.6501	-76.400775	0.000243	2.432036	0.411998	0.000049
1626	1.6169e+02	-7.6294	-76.324070	0.000385	3.850723	0.652330	0.000077
1627	1.6179e+02	-7.6105	-76.344255	-0.000101	-1.013348	-0.171666	-0.000020
1628	1.6189e+02	-7.5912	-76.243327	0.000507	5.066741	0.858329	0.000101
1629	1.6199e+02	-7.5702	-76.231216	0.000061	0.608009	0.102999	0.000012
1630	1.6209e+02	-7.5507	-76.170659	0.000304	3.040044	0.514997	0.000061
1631	1.6219e+02	-7.5311	-76.093953	0.000385	3.850723	0.652330	0.000077
1632	1.6228e+02	-7.5116	-76.077804	0.000081	0.810679	0.137333	0.000016
1633	1.6238e+02	-7.4902	-76.017247	0.000304	3.040044	0.514997	0.000061
1634	1.6248e+02	-7.4710	-75.952653	0.000324	3.242714	0.549331	0.000065
1635	1.6258e+02	-7.4509	-75.896133	0.000284	2.837375	0.480664	0.000057
1636	1.6268e+02	-7.4310	-75.839613	0.000284	2.837375	0.480664	0.000057
1637	1.6278e+02	-7.4091	-75.787131	0.000263	2.634705	0.446331	0.000053
1638	1.6288e+02	-7.3914	-75.775019	0.000061	0.608009	0.102999	0.000012
1639	1.6298e+02	-7.3712	-75.706388	0.000345	3.445384	0.583664	0.000069
1640	1.6308e+02	-7.3517	-75.633719	0.000365	3.648053	0.617997	0.000073
1641	1.6318e+02	-7.3315	-75.585274	0.000243	2.432036	0.411998	0.000049
1642	1.6328e+02	-7.3117	-75.528754	0.000284	2.837375	0.480664	0.000057
1643	1.6338e+02	-7.2919	-75.496457	0.000162	1.621357	0.274665	0.000032
1644	1.6348e+02	-7.2716	-75.435900	0.000304	3.040044	0.514997	0.000061
1645	1.6358e+02	-7.2522	-75.351120	0.000426	4.256062	0.720996	0.000085
1646	1.6368e+02	-7.2314	-75.306711	0.000223	2.229366	0.377665	0.000045
1647	1.6378e+02	-7.2131	-75.250192	0.000284	2.837375	0.480664	0.000057
1648	1.6388e+02	-7.1924	-75.205783	0.000223	2.229366	0.377665	0.000045
1649	1.6398e+02	-7.1716	-75.137152	0.000345	3.445384	0.583664	0.000069
1650	1.6408e+02	-7.1527	-75.064483	0.000365	3.648053	0.617997	0.000073
1651	1.6418e+02	-7.1332	-75.016038	0.000243	2.432036	0.411998	0.000049
1652	1.6427e+02	-7.1118	-74.955481	0.000304	3.040044	0.514997	0.000061
1653	1.6437e+02	-7.0921	-74.874738	0.000405	4.053393	0.686663	0.000081
1654	1.6447e+02	-7.0721	-74.793995	0.000405	4.053393	0.686663	0.000081
1655	1.6457e+02	-7.0526	-74.769772	0.000122	1.216018	0.205999	0.000024
1656	1.6467e+02	-7.0325	-74.680955	0.000446	4.458732	0.755330	0.000089
1657	1.6477e+02	-7.0129	-74.628473	0.000263	2.634705	0.446331	0.000053
1658	1.6487e+02	-6.9928	-74.592138	0.000182	1.824027	0.308998	0.000037
1659	1.6497e+02	-6.9727	-74.523507	0.000345	3.445384	0.583664	0.000069
1660	1.6507e+02	-6.9525	-74.454876	0.000345	3.445384	0.583664	0.000069
1661	1.6517e+02	-6.9333	-74.374133	0.000405	4.053393	0.686663	0.000081
1662	1.6527e+02	-6.9128	-74.293390	0.000405	4.053393	0.686663	0.000081
1663	1.6537e+02	-6.8927	-74.232833	0.000304	3.040044	0.514997	0.000061
1664	1.6547e+02	-6.8732	-74.164202	0.000345	3.445384	0.583664	0.000069
1665	1.6557e+02	-6.8530	-74.083459	0.000405	4.053393	0.686663	0.000081
1666	1.6567e+02	-6.8329	-74.067311	0.000081	0.810679	0.137333	0.000016
1667	1.6577e+02	-6.8140	-73.958308	0.000547	5.472080	0.926995	0.000110
1668	1.6587e+02	-6.7926	-73.889677	0.000345	3.445384	0.583664	0.000069
1669	1.6597e+02	-6.7731	-73.825083	0.000324	3.242714	0.549331	0.000065
1670	1.6607e+02	-6.7529	-73.752414	0.000365	3.648053	0.617997	0.000073
1671	1.6616e+02	-6.7334	-73.708006	0.000223	2.229366	0.377665	0.000045
1672	1.6626e+02	-6.7139	-73.647449	0.000304	3.040044	0.514997	0.000061
1673	1.6636e+02	-6.6943	-73.582855	0.000324	3.242714	0.549331	0.000065
1674	1.6646e+02	-6.6742	-73.522297	0.000304	3.040044	0.514997	0.000061
1675	1.6656e+02	-6.6534	-73.429443	0.000466	4.661401	0.789663	0.000093
1676	1.6666e+02	-6.6339	-73.368886	0.000304	3.040044	0.514997	0.000061
1677	1.6676e+02	-6.6138	-73.292181	0.000385	3.850723	0.652330	0.000077
1678	1.6686e+02	-6.5948	-73.235661	0.000284	2.837375	0.480664	0.000057
1679	1.6696e+02	-6.5741	-73.146844	0.000446	4.458732	0.755330	0.000089
1680	1.6706e+02	-6.5540	-73.090324	0.000284	2.837375	0.480664	0.000057
1681	1.6716e+02	-6.5350	-73.021693	0.000345	3.445384	0.583664	0.000069
1682	1.6726e+02	-6.5149	-72.940950	0.000405	4.053393	0.686663	0.000081
1683	1.6736e+02	-6.4944	-72.876356	0.000324	3.242714	0.549331	0.000065
1684	1.6746e+02	-6.4740	-72.831947	0.000223	2.229366	0.377665	0.000045
1685	1.6756e+02	-6.4545	-72.747167	0.000426	4.256062	0.720996	0.000085
1686	1.6766e+02	-6.4343	-72.666425	0.000405	4.053393	0.686663	0.000081
1687	1.6776e+02	-6.4142	-72.613942	0.000263	2.634705	0.446331	0.000053
1688	1.6786e+02	-6.3947	-72.541274	0.000365	3.648053	0.617997	0.000073
1689	1.6796e+02	-6.3745	-72.436308	0.000527	5.269410	0.892662	0.000105
1690	1.6806e+02	-6.3562	-72.359602	0.000385	3.850723	0.652330	0.000077
1691	1.6816e+02	-6.3354	-72.290971	0.000345	3.445384	0.583664	0.000069
1692	1.6825e+02	-6.3147	-72.218303	0.000365	3.648053	0.617997	0.000073
1693	1.6835e+02	-6.2958	-72.133523	0.000426	4.256062	0.720996	0.000085
1694	1.6845e+02	-6.2750	-72.077003	0.000284	2.837375	0.480664	0.000057
1695	1.6855e+02	-6.2555	-72.012409	0.000324	3.242714	0.549331	0.000065
1696	1.6865e+02	-6.2363	-71.968000	0.000223	2.229366	0.377665	0.000045
1697	1.6875e+02	-6.2161	-71.846886	0.000608	6.080089	1.029995	0.000122
1698	1.6885e+02	-6.1957	-71.806515	0.000203	2.026696	0.343332	0.000041
1699	1.6895e+02	-6.1755	-71.737883	0.000345	3.445384	0.583664	0.000069
1700	1.6905e+02	-6.1560	-71.645029	0.000466	4.661401	0.789663	0.000093
1701	1.6915e+02	-6.1349	-71.588509	0.000284	2.837375	0.480664	0.000057
1702	1.6925e+02	-6.1163	-71.527952	0.000304	3.040044	0.514997	0.000061
1703	1.6935e+02	-6.0959	-71.427024	0.000507	5.066741	0.858329	0.000101
1704	1.6945e+02	-6.0765	-71.358393	0.000345	3.445384	0.583664	0.000069
1705	1.6955e+02	-6.0559	-71.277650	0.000405	4.053393	0.686663	0.000081
1706	1.6965e+02	-6.0358	-71.233242	0.000223	2.229366	0.377665	0.000045
1707	1.6975e+02	-6.0156	-71.148462	0.000426	4.256062	0.720996	0.000085
1708	1.6985e+02	-5.9967	-71.091942	0.000284	2.837375	0.480664	0.000057
1709	1.6995e+02	-5.9769	-70.954679	0.000689	6.890767	1.167328	0.000138
1710	1.7005e+02	-5.9558	-70.910271	0.000223	2.229366	0.377665	0.000045
1711	1.7015e+02	-5.9357	-70.841639	0.000345	3.445384	0.583664	0.000069
1712	1.7024e+02	-5.9167	-70.756860	0.000426	4.256062	0.720996	0.000085
1713	1.7034e+02	-5.8971	-70.659968	0.000486	4.864071	0.823996	0.000097
1714	1.7044e+02	-5.8765	-70.619597	0.000203	2.026696	0.343332	0.000041
1715	1.7054e+02	-5.8572	-70.538854	0.000405	4.053393	0.686663	0.000081
1716	1.7064e+02	-5.8359	-70.437926	0.000507	5.066741	0.858329	0.000101
1717	1.7074e+02	-5.8167	-70.345072	0.000466	4.661401	0.789663	0.000093
1718	1.7084e+02	-5.7956	-70.264329	0.000405	4.053393	0.686663	0.000081
1719	1.7094e+02	-5.7770	-70.227995	0.000182	1.824027	0.308998	0.000037
1720	1.7104e+02	-5.7559	-70.114955	0.000567	5.674750	0.961329	0.000114
1721	1.7114e+02	-5.7379	-70.058435	0.000284	2.837375	0.480664	0.000057
1722	1.7124e+02	-5.7169	-70.014027	0.000223	2.229366	0.377665	0.000045
1723	1.7134e+02	-5.6970	-69.868690	0.000730	7.296107	1.235994	0.000146
1724	1.7144e+02	-5.6779	-69.844467	0.000122	1.216018	0.205999	0.000024
1725	1.7154e+02	-5.6580	-69.735464	0.000547	5.472080	0.926995	0.000110
1726	1.7164e+02	-5.6378	-69.646647	0.000446	4.458732	0.755330	0.000089
1727	1.7174e+02	-5.6175	-69.578016	0.000345	3.445384	0.583664	0.000069
1728	1.7184e+02	-5.5969	-69.505347	0.000365	3.648053	0.617997	0.000073
1729	1.7194e+02	-5.5780	-69.396345	0.000547	5.472080	0.926995	0.000110
1730	1.7204e+02	-5.5573	-69.360011	0.000182	1.824027	0.308998	0.000037
1731	1.7213e+02	-5.5386	-69.234859	0.000628	6.282758	1.064328	0.000126
1732	1.7223e+02	-5.5179	-69.182377	0.000263	2.634705	0.446331	0.000053
1733	1.7233e+02	-5.4980	-69.133931	0.000243	2.432036	0.411998	0.000049
1734	1.7243e+02	-5.4791	-69.037040	0.000486	4.864071	0.823996	0.000097
1735	1.7253e+02	-5.4584	-68.964371	0.000365	3.648053	0.617997	0.000073
1736	1.7263e+02	-5.4381	-68.847294	0.000588	5.877419	0.995662	0.000118
1737	1.7273e+02	-5.4172	-68.754440	0.000466	4.661401	0.789663	0.000093
1738	1.7283e+02	-5.3979	-68.714069	0.000203	2.026696	0.343332	0.000041
1739	1.7293e+02	-5.3784	-68.621215	0.000466	4.661401	0.789663	0.000093
1740	1.7303e+02	-5.3577	-68.560658	0.000304	3.040044	0.514997	0.000061
1741	1.7313e+02	-5.3391	-68.431469	0.000649	6.485428	1.098661	0.000130
1742	1.7323e+02	-5.3185	-68.395135	0.000182	1.824027	0.308998	0.000037
1743	1.7333e+02	-5.2989	-68.290170	0.000527	5.269410	0.892662	0.000105
1744	1.7343e+02	-5.2789	-68.245761	0.000223	2.229366	0.377665	0.000045
1745	1.7353e+02	-5.2592	-68.144833	0.000507	5.066741	0.858329	0.000101
1746	1.7363e+02	-5.2393	-68.080239	0.000324	3.242714	0.549331	0.000065
1747	1.7373e+02	-5.2191	-68.003533	0.000385	3.850723	0.652330	0.000077
1748	1.7383e+02	-5.1984	-67.918753	0.000426	4.256062	0.720996	0.000085
1749	1.7393e+02	-5.1794	-67.833973	0.000426	4.256062	0.720996	0.000085
1750	1.7403e+02	-5.1593	-67.757268	0.000385	3.850723	0.652330	0.000077
1751	1.7413e+02	-5.1385	-67.696711	0.000304	3.040044	0.514997	0.000061
1752	1.7422e+02	-5.1195	-67.599819	0.000486	4.864071	0.823996	0.000097
1753	1.7432e+02	-5.0992	-67.511002	0.000446	4.458732	0.755330	0.000089
1754	1.7442e+02	-5.0793	-67.397963	0.000567	5.674750	0.961329	0.000114
1755	1.7452e+02	-5.0595	-67.305108	0.000466	4.661401	0.789663	0.000093
1756	1.7462e+02	-5.0394	-67.268774	0.000182	1.824027	0.308998	0.000037
1757	1.7472e+02	-5.0200	-67.196106	0.000365	3.648053	0.617997	0.000073
1758	1.7482e+02	-4.9994	-67.066917	0.000649	6.485428	1.098661	0.000130
1759	1.7492e+02	-4.9799	-66.998286	0.000345	3.445384	0.583664	0.000069
1760	1.7502e+02	-4.9600	-66.974063	0.000122	1.216018	0.205999	0.000024
1761	1.7512e+02	-4.9408	-66.840838	0.000669	6.688098	1.132994	0.000134
1762	1.7522e+02	-4.9200	-66.719724	0.000608	6.080089	1.029995	0.000122
1763	1.7532e+02	-4.9004	-66.699538	0.000101	1.013348	0.171666	0.000020
1764	1.7542e+02	-4.8804	-66.594573	0.000527	5.269410	0.892662	0.000105
1765	1.7552e+02	-4.8596	-66.493644	0.000507	5.066741	0.858329	0.000101
1766	1.7562e+02	-4.8398	-66.425013	0.000345	3.445384	0.583664	0.000069
1767	1.7572e+02	-4.8199	-66.303899	0.000608	6.080089	1.029995	0.000122
1768	1.7582e+02	-4.8004	-66.267565	0.000182	1.824027	0.308998	0.000037
1769	1.7592e+02	-4.7806	-66.186822	0.000405	4.053393	0.686663	0.000081
1770	1.7602e+02	-4.7601	-66.069745	0.000588	5.877419	0.995662	0.000118
1771	1.7612e+02	-4.7406	-66.001114	0.000345	3.445384	0.583664	0.000069
1772	1.7621e+02	-4.7211	-65.916334	0.000426	4.256062	0.720996	0.000085
1773	1.7631e+02	-4.7003	-65.807331	0.000547	5.472080	0.926995	0.000110
1774	1.7641e+02	-4.6808	-65.738700	0.000345	3.445384	0.583664	0.000069
1775	1.7651e+02	-4.6600	-65.678143	0.000304	3.040044	0.514997	0.000061
1776	1.7661e+02	-4.6411	-65.528769	0.000750	7.498776	1.270327	0.000150
1777	1.7671e+02	-4.6213	-65.460137	0.000345	3.445384	0.583664	0.000069
1778	1.7681e+02	-4.6008	-65.407655	0.000263	2.634705	0.446331	0.000053
1779	1.7691e+02	-4.5813	-65.274429	0.000669	6.688098	1.132994	0.000134
1780	1.7701e+02	-4.5619	-65.238095	0.000182	1.824027	0.308998	0.000037
1781	1.7711e+02	-4.5407	-65.116981	0.000608	6.080089	1.029995	0.000122
1782	1.7721e+02	-4.5212	-65.080647	0.000182	1.824027	0.308998	0.000037
1783	1.7731e+02	-4.5026	-64.955495	0.000628	6.282758	1.064328	0.000126
1784	1.7741e+02	-4.4812	-64.846493	0.000547	5.472080	0.926995	0.000110
1785	1.7751e+02	-4.4620	-64.798047	0.000243	2.432036	0.411998	0.000049
1786	1.7761e+02	-4.4415	-64.656747	0.000709	7.093437	1.201661	0.000142
1787	1.7771e+02	-4.4211	-64.612339	0.000223	2.229366	0.377665	0.000045
1788	1.7781e+02	-4.4019	-64.499299	0.000567	5.674750	0.961329	0.000114
1789	1.7791e+02	-4.3823	-64.406445	0.000466	4.661401	0.789663	0.000093
1790	1.7801e+02	-4.3616	-64.345888	0.000304	3.040044	0.514997	0.000061
1791	1.7810e+02	-4.3427	-64.269182	0.000385	3.850723	0.652330	0.000077
1792	1.7820e+02	-4.3219	-64.156143	0.000567	5.674750	0.961329	0.000114
1793	1.7830e+02	-4.3016	-64.095586	0.000304	3.040044	0.514997	0.000061
1794	1.7840e+02	-4.2822	-63.970434	0.000628	6.282758	1.064328	0.000126
1795	1.7850e+02	-4.2627	-63.873543	0.000486	4.864071	0.823996	0.000097
1796	1.7860e+02	-4.2410	-63.776652	0.000486	4.864071	0.823996	0.000097
1797	1.7870e+02	-4.2224	-63.679761	0.000486	4.864071	0.823996	0.000097
1798	1.7880e+02	-4.2026	-63.643426	0.000182	1.824027	0.308998	0.000037
1799	1.7890e+02	-4.1824	-63.510201	0.000669	6.688098	1.132994	0.000134
1800	1.7900e+02	-4.1624	-63.425421	0.000426	4.256062	0.720996	0.000085
1801	1.7910e+02	-4.1428	-63.332567	0.000466	4.661401	0.789663	0.000093
1802	1.7920e+02	-4.1229	-63.272010	0.000304	3.040044	0.514997	0.000061
1803	1.7930e+02	-4.1025	-63.150896	0.000608	6.080089	1.029995	0.000122
1804	1.7940e+02	-4.0820	-63.070153	0.000405	4.053393	0.686663	0.000081
1805	1.7950e+02	-4.0623	-62.981336	0.000446	4.458732	0.755330	0.000089
1806	1.7960e+02	-4.0421	-62.864259	0.000588	5.877419	0.995662	0.000118
1807	1.7970e+02	-4.0234	-62.799665	0.000324	3.242714	0.549331	0.000065
1808	1.7980e+02	-4.0036	-62.690662	0.000547	5.472080	0.926995	0.000110
1809	1.7990e+02	-3.9835	-62.646254	0.000223	2.229366	0.377665	0.000045
1810	1.8000e+02	-3.9636	-62.545325	0.000507	5.066741	0.858329	0.000101
1811	1.8009e+02	-3.9434	-62.480731	0.000324	3.242714	0.549331	0.000065
1812	1.8019e+02	-3.9233	-62.343469	0.000689	6.890767	1.167328	0.000138
1813	1.8029e+02	-3.9032	-62.278874	0.000324	3.242714	0.549331	0.000065
1814	1.8039e+02	-3.8831	-62.173909	0.000527	5.269410	0.892662	0.000105
1815	1.8049e+02	-3.8640	-62.068943	0.000527	5.269410	0.892662	0.000105
1816	1.8059e+02	-3.8434	-61.959941	0.000547	5.472080	0.926995	0.000110
1817	1.8069e+02	-3.8239	-61.887272	0.000365	3.648053	0.617997	0.000073
1818	1.8079e+02	-3.8031	-61.794418	0.000466	4.661401	0.789663	0.000093
1819	1.8089e+02	-3.7839	-61.665230	0.000649	6.485428	1.098661	0.000130
1820	1.8099e+02	-3.7646	-61.592561	0.000365	3.648053	0.617997	0.000073
1821	1.8109e+02	-3.7442	-61.491633	0.000507	5.066741	0.858329	0.000101
1822	1.8119e+02	-3.7244	-61.414927	0.000385	3.850723	0.652330	0.000077
1823	1.8129e+02	-3.7036	-61.322073	0.000466	4.661401	0.789663	0.000093
1824	1.8139e+02	-3.6844	-61.229219	0.000466	4.661401	0.789663	0.000093
1825	1.8149e+02	-3.6662	-61.100031	0.000649	6.485428	1.098661	0.000130
1826	1.8159e+02	-3.6444	-60.991028	0.000547	5.472080	0.926995	0.000110
1827	1.8169e+02	-3.6246	-60.882025	0.000547	5.472080	0.926995	0.000110
1828	1.8179e+02	-3.6041	-60.813394	0.000345	3.445384	0.583664	0.000069
1829	1.8189e+02	-3.5842	-60.692280	0.000608	6.080089	1.029995	0.000122
1830	1.8199e+02	-3.5638	-60.607500	0.000426	4.256062	0.720996	0.000085
1831	1.8209e+02	-3.5449	-60.518683	0.000446	4.458732	0.755330	0.000089
1832	1.8218e+02	-3.5254	-60.421792	0.000486	4.864071	0.823996	0.000097
1833	1.8228e+02	-3.5051	-60.280492	0.000709	7.093437	1.201661	0.000142
1834	1.8238e+02	-3.4851	-60.211861	0.000345	3.445384	0.583664	0.000069
1835	1.8248e+02	-3.4656	-60.102858	0.000547	5.472080	0.926995	0.000110
1836	1.8258e+02	-3.4447	-60.038264	0.000324	3.242714	0.549331	0.000065
1837	1.8268e+02	-3.4246	-59.949447	0.000446	4.458732	0.755330	0.000089
1838	1.8278e+02	-3.4053	-59.844482	0.000527	5.269410	0.892662	0.000105
1839	1.8288e+02	-3.3853	-59.731442	0.000567	5.674750	0.961329	0.000114
1840	1.8298e+02	-3.3669	-59.646662	0.000426	4.256062	0.720996	0.000085
1841	1.8308e+02	-3.3469	-59.517474	0.000649	6.485428	1.098661	0.000130
1842	1.8318e+02	-3.3261	-59.428657	0.000446	4.458732	0.755330	0.000089
1843	1.8328e+02	-3.3060	-59.311580	0.000588	5.877419	0.995662	0.000118
1844	1.8338e+02	-3.2867	-59.214688	0.000486	4.864071	0.823996	0.000097
1845	1.8348e+02	-3.2659	-59.121834	0.000466	4.661401	0.789663	0.000093
1846	1.8358e+02	-3.2446	-59.077426	0.000223	2.229366	0.377665	0.000045
1847	1.8368e+02	-3.2257	-58.924015	0.000770	7.701446	1.304660	0.000154
1848	1.8378e+02	-3.2058	-58.827123	0.000486	4.864071	0.823996	0.000097
1849	1.8388e+02	-3.1863	-58.714084	0.000567	5.674750	0.961329	0.000114
1850	1.8398e+02	-3.1659	-58.625267	0.000446	4.458732	0.755330	0.000089
1851	1.8407e+02	-3.1461	-58.540487	0.000426	4.256062	0.720996	0.000085
1852	1.8417e+02	-3.1256	-58.407261	0.000669	6.688098	1.132994	0.000134
1853	1.8427e+02	-3.1065	-58.362853	0.000223	2.229366	0.377665	0.000045
1854	1.8437e+02	-3.0864	-58.201367	0.000811	8.106785	1.373327	0.000162
1855	1.8447e+02	-3.0667	-58.116588	0.000426	4.256062	0.720996	0.000085
1856	1.8457e+02	-3.0468	-58.035845	0.000405	4.053393	0.686663	0.000081
1857	1.8467e+02	-3.0260	-57.906656	0.000649	6.485428	1.098661	0.000130
1858	1.8477e+02	-3.0074	-57.842062	0.000324	3.242714	0.549331	0.000065
1859	1.8487e+02	-2.9855	-57.684614	0.000790	7.904115	1.338993	0.000158
1860	1.8497e+02	-2.9672	-57.640205	0.000223	2.229366	0.377665	0.000045
1861	1.8507e+02	-2.9462	-57.539277	0.000507	5.066741	0.858329	0.000101
1862	1.8517e+02	-2.9272	-57.414126	0.000628	6.282758	1.064328	0.000126
1863	1.8527e+02	-2.9065	-57.284938	0.000649	6.485428	1.098661	0.000130
1864	1.8537e+02	-2.8882	-57.188046	0.000486	4.864071	0.823996	0.000097
1865	1.8547e+02	-2.8671	-57.083081	0.000527	5.269410	0.892662	0.000105
1866	1.8557e+02	-2.8473	-57.014449	0.000345	3.445384	0.583664	0.000069
1867	1.8567e+02	-2.8265	-56.897373	0.000588	5.877419	0.995662	0.000118
1868	1.8577e+02	-2.8076	-56.792407	0.000527	5.269410	0.892662	0.000105
1869	1.8587e+02	-2.7869	-56.703590	0.000446	4.458732	0.755330	0.000089
1870	1.8597e+02	-2.7682	-56.606699	0.000486	4.864071	0.823996	0.000097
1871	1.8606e+02	-2.7477	-56.481548	0.000628	6.282758	1.064328	0.000126
1872	1.8616e+02	-2.7271	-56.380619	0.000507	5.066741	0.858329	0.000101
1873	1.8626e+02	-2.7080	-56.239319	0.000709	7.093437	1.201661	0.000142
1874	1.8636e+02	-2.6869	-56.186837	0.000263	2.634705	0.446331	0.000053
1875	1.8646e+02	-2.6683	-56.093983	0.000466	4.661401	0.789663	0.000093
1876	1.8656e+02	-2.6480	-56.001128	0.000466	4.661401	0.789663	0.000093
1877	1.8666e+02	-2.6283	-55.867903	0.000669	6.688098	1.132994	0.000134
1878	1.8676e+02	-2.6086	-55.758900	0.000547	5.472080	0.926995	0.000110
1879	1.8686e+02	-2.5872	-55.653935	0.000527	5.269410	0.892662	0.000105
1880	1.8696e+02	-2.5677	-55.516672	0.000689	6.890767	1.167328	0.000138
1881	1.8706e+02	-2.5485	-55.415744	0.000507	5.066741	0.858329	0.000101
1882	1.8716e+02	-2.5279	-55.359224	0.000284	2.837375	0.480664	0.000057
1883	1.8726e+02	-2.5089	-55.238110	0.000608	6.080089	1.029995	0.000122
1884	1.8736e+02	-2.4893	-55.129107	0.000547	5.472080	0.926995	0.000110
1885	1.8746e+02	-2.4688	-55.060476	0.000345	3.445384	0.583664	0.000069
1886	1.8756e+02	-2.4484	-54.923213	0.000689	6.890767	1.167328	0.000138
1887	1.8766e+02	-2.4297	-54.810173	0.000567	5.674750	0.961329	0.000114
1888	1.8776e+02	-2.4090	-54.697134	0.000567	5.674750	0.961329	0.000114
1889	1.8786e+02	-2.3888	-54.608317	0.000446	4.458732	0.755330	0.000089
1890	1.8796e+02	-2.3688	-54.519500	0.000446	4.458732	0.755330	0.000089
1891	1.8806e+02	-2.3495	-54.390311	0.000649	6.485428	1.098661	0.000130
1892	1.8815e+02	-2.3291	-54.301494	0.000446	4.458732	0.755330	0.000089
1893	1.8825e+02	-2.3095	-54.160194	0.000709	7.093437	1.201661	0.000142
1894	1.8835e+02	-2.2890	-54.071378	0.000446	4.458732	0.755330	0.000089
1895	1.8845e+02	-2.2714	-53.938152	0.000669	6.688098	1.132994	0.000134
1896	1.8855e+02	-2.2499	-53.853372	0.000426	4.256062	0.720996	0.000085
1897	1.8865e+02	-2.2302	-53.724184	0.000649	6.485428	1.098661	0.000130
1898	1.8875e+02	-2.2104	-53.623255	0.000507	5.066741	0.858329	0.000101
1899	1.8885e+02	-2.1899	-53.542513	0.000405	4.053393	0.686663	0.000081
1900	1.8895e+02	-2.1698	-53.437547	0.000527	5.269410	0.892662	0.000105
1901	1.8905e+02	-2.1500	-53.328545	0.000547	5.472080	0.926995	0.000110
1902	1.8915e+02	-2.1298	-53.215505	0.000567	5.674750	0.961329	0.000114
1903	1.8925e+02	-2.1103	-53.106502	0.000547	5.472080	0.926995	0.000110
1904	1.8935e+02	-2.0903	-52.997499	0.000547	5.472080	0.926995	0.000110
1905	1.8945e+02	-2.0695	-52.912720	0.000426	4.256062	0.720996	0.000085
1906	1.8955e+02	-2.0503	-52.767383	0.000730	7.296107	1.235994	0.000146
1907	1.8965e+02	-2.0303	-52.698751	0.000345	3.445384	0.583664	0.000069
1908	1.8975e+02	-2.0096	-52.601860	0.000486	4.864071	0.823996	0.000097
1909	1.8985e+02	-1.9901	-52.476709	0.000628	6.282758	1.064328	0.000126
1910	1.8995e+02	-1.9702	-52.355595	0.000608	6.080089	1.029995	0.000122
1911	1.9004e+02	-1.9499	-52.218332	0.000689	6.890767	1.167328	0.000138
1912	1.9014e+02	-1.9307	-52.165849	0.000263	2.634705	0.446331	0.000053
1913	1.9024e+02	-1.9101	-52.101255	0.000324	3.242714	0.549331	0.000065
1914	1.9034e+02	-1.8909	-51.972067	0.000649	6.485428	1.098661	0.000130
1915	1.9044e+02	-1.8713	-51.822693	0.000750	7.498776	1.270327	0.000150
1916	1.9054e+02	-1.8504	-51.717727	0.000527	5.269410	0.892662	0.000105
1917	1.9064e+02	-1.8304	-51.620836	0.000486	4.864071	0.823996	0.000097
1918	1.9074e+02	-1.8109	-51.507796	0.000567	5.674750	0.961329	0.000114
1919	1.9084e+02	-1.7905	-51.447239	0.000304	3.040044	0.514997	0.000061
1920	1.9094e+02	-1.7715	-51.293828	0.000770	7.701446	1.304660	0.000154
1921	1.9104e+02	-1.7508	-51.205011	0.000446	4.458732	0.755330	0.000089
1922	1.9114e+02	-1.7310	-51.100046	0.000527	5.269410	0.892662	0.000105
1923	1.9124e+02	-1.7111	-50.938560	0.000811	8.106785	1.373327	0.000162
1924	1.9134e+02	-1.6911	-50.861855	0.000385	3.850723	0.652330	0.000077
1925	1.9144e+02	-1.6720	-50.769000	0.000466	4.661401	0.789663	0.000093
1926	1.9154e+02	-1.6515	-50.655961	0.000567	5.674750	0.961329	0.000114
1927	1.9164e+02	-1.6318	-50.526772	0.000649	6.485428	1.098661	0.000130
1928	1.9174e+02	-1.6116	-50.413733	0.000567	5.674750	0.961329	0.000114
1929	1.9184e+02	-1.5925	-50.316841	0.000486	4.864071	0.823996	0.000097
1930	1.9194e+02	-1.5729	-50.215913	0.000507	5.066741	0.858329	0.000101
1931	1.9203e+02	-1.5521	-50.054427	0.000811	8.106785	1.373327	0.000162
1932	1.9213e+02	-1.5320	-49.937351	0.000588	5.877419	0.995662	0.000118
1933	1.9223e+02	-1.5124	-49.880831	0.000284	2.837375	0.480664	0.000057
1934	1.9233e+02	-1.4927	-49.743568	0.000689	6.890767	1.167328	0.000138
1935	1.9243e+02	-1.4722	-49.646677	0.000486	4.864071	0.823996	0.000097
1936	1.9253e+02	-1.4526	-49.545748	0.000507	5.066741	0.858329	0.000101
1937	1.9263e+02	-1.4319	-49.444820	0.000507	5.066741	0.858329	0.000101
1938	1.9273e+02	-1.4119	-49.327743	0.000588	5.877419	0.995662	0.000118
1939	1.9283e+02	-1.3916	-49.178369	0.000750	7.498776	1.270327	0.000150
1940	1.9293e+02	-1.3721	-49.129923	0.000243	2.432036	0.411998	0.000049
1941	1.9303e+02	-1.3530	-48.968438	0.000811	8.106785	1.373327	0.000162
1942	1.9313e+02	-1.3326	-48.891732	0.000385	3.850723	0.652330	0.000077
1943	1.9323e+02	-1.3129	-48.790804	0.000507	5.066741	0.858329	0.000101
1944	1.9333e+02	-1.2933	-48.649504	0.000709	7.093437	1.201661	0.000142
1945	1.9343e+02	-1.2733	-48.572799	0.000385	3.850723	0.652330	0.000077
1946	1.9353e+02	-1.2534	-48.427462	0.000730	7.296107	1.235994	0.000146
1947	1.9363e+02	-1.2331	-48.334608	0.000466	4.661401	0.789663	0.000093
1948	1.9373e+02	-1.2133	-48.173122	0.000811	8.106785	1.373327	0.000162
1949	1.9383e+02	-1.1935	-48.084305	0.000446	4.458732	0.755330	0.000089
1950	1.9393e+02	-1.1735	-48.007600	0.000385	3.850723	0.652330	0.000077
1951	1.9403e+02	-1.1535	-47.846114	0.000811	8.106785	1.373327	0.000162
1952	1.9412e+02	-1.1340	-47.781520	0.000324	3.242714	0.549331	0.000065
1953	1.9422e+02	-1.1132	-47.644257	0.000689	6.890767	1.167328	0.000138
1954	1.9432e+02	-1.0939	-47.515069	0.000649	6.485428	1.098661	0.000130
1955	1.9442e+02	-1.0735	-47.442401	0.000365	3.648053	0.617997	0.000073
1956	1.9452e+02	-1.0537	-47.305138	0.000689	6.890767	1.167328	0.000138
1957	1.9462e+02	-1.0342	-47.196135	0.000547	5.472080	0.926995	0.000110
1958	1.9472e+02	-1.0133	-47.099244	0.000486	4.864071	0.823996	0.000097
1959	1.9482e+02	-0.9932	-46.982167	0.000588	5.877419	0.995662	0.000118
1960	1.9492e+02	-0.9737	-46.832793	0.000750	7.498776	1.270327	0.000150
1961	1.9502e+02	-0.9544	-46.735902	0.000486	4.864071	0.823996	0.000097
1962	1.9512e+02	-0.9341	-46.618825	0.000588	5.877419	0.995662	0.000118
1963	1.9522e+02	-0.9133	-46.497711	0.000608	6.080089	1.029995	0.000122
1964	1.9532e+02	-0.8949	-46.380634	0.000588	5.877419	0.995662	0.000118
1965	1.9542e+02	-0.8754	-46.275668	0.000527	5.269410	0.892662	0.000105
1966	1.9552e+02	-0.8543	-46.158591	0.000588	5.877419	0.995662	0.000118
1967	1.9562e+02	-0.8344	-46.049589	0.000547	5.472080	0.926995	0.000110
1968	1.9572e+02	-0.8146	-45.964809	0.000426	4.256062	0.720996	0.000085
1969	1.9582e+02	-0.7950	-45.847732	0.000588	5.877419	0.995662	0.000118
1970	1.9592e+02	-0.7750	-45.657987	0.000953	9.525472	1.613659	0.000191
1971	1.9601e+02	-0.7542	-45.609541	0.000243	2.432036	0.411998	0.000049
1972	1.9611e+02	-0.7346	-45.504575	0.000527	5.269410	0.892662	0.000105
1973	1.9621e+02	-0.7144	-45.379424	0.000628	6.282758	1.064328	0.000126
1974	1.9631e+02	-0.6944	-45.242162	0.000689	6.890767	1.167328	0.000138
1975	1.9641e+02	-0.6748	-45.100862	0.000709	7.093437	1.201661	0.000142
1976	1.9651e+02	-0.6547	-45.024156	0.000385	3.850723	0.652330	0.000077
1977	1.9661e+02	-0.6351	-44.919191	0.000527	5.269410	0.892662	0.000105
1978	1.9671e+02	-0.6148	-44.842485	0.000385	3.850723	0.652330	0.000077
1979	1.9681e+02	-0.5949	-44.721371	0.000608	6.080089	1.029995	0.000122
1980	1.9691e+02	-0.5757	-44.559886	0.000811	8.106785	1.373327	0.000162
1981	1.9701e+02	-0.5553	-44.499329	0.000304	3.040044	0.514997	0.000061
1982	1.9711e+02	-0.5353	-44.362066	0.000689	6.890767	1.167328	0.000138
1983	1.9721e+02	-0.5154	-44.240952	0.000608	6.080089	1.029995	0.000122
1984	1.9731e+02	-0.4957	-44.115801	0.000628	6.282758	1.064328	0.000126
1985	1.9741e+02	-0.4758	-43.978538	0.000689	6.890767	1.167328	0.000138
1986	1.9751e+02	-0.4559	-43.889721	0.000446	4.458732	0.755330	0.000089
1987	1.9761e+02	-0.4356	-43.784756	0.000527	5.269410	0.892662	0.000105
1988	1.9771e+02	-0.4159	-43.651530	0.000669	6.688098	1.132994	0.000134
1989	1.9781e+02	-0.3959	-43.534453	0.000588	5.877419	0.995662	0.000118
1990	1.9791e+02	-0.3759	-43.389116	0.000730	7.296107	1.235994	0.000146
1991	1.9800e+02	-0.3561	-43.292225	0.000486	4.864071	0.823996	0.000097
1992	1.9810e+02	-0.3363	-43.167074	0.000628	6.282758	1.064328	0.000126
1993	1.9820e+02	-0.3167	-43.054034	0.000567	5.674750	0.961329	0.000114
1994	1.9830e+02	-0.2962	-42.920809	0.000669	6.688098	1.132994	0.000134
1995	1.9840e+02	-0.2757	-42.811806	0.000547	5.472080	0.926995	0.000110
1996	1.9850e+02	-0.2564	-42.686655	0.000628	6.282758	1.064328	0.000126
1997	1.9860e+02	-0.2367	-42.569578	0.000588	5.877419	0.995662	0.000118
1998	1.9870e+02	-0.2155	-42.476724	0.000466	4.661401	0.789663	0.000093
1999	1.9880e+02	-0.1965	-42.327350	0.000750	7.498776	1.270327	0.000150
2000	1.9890e+02	-0.1768	-42.198161	0.000649	6.485428	1.098661	0.000130
2001	1.9900e+02	-0.1565	-42.077047	0.000608	6.080089	1.029995	0.000122
2002	1.9910e+02	-0.1373	-41.972082	0.000527	5.269410	0.892662	0.000105
2003	1.9920e+02	-0.1167	-41.891339	0.000405	4.053393	0.686663	0.000081
2004	1.9930e+02	-0.0969	-41.725816	0.000831	8.309455	1.407660	0.000166
2005	1.9940e+02	-0.0770	-41.628925	0.000486	4.864071	0.823996	0.000097
2006	1.9950e+02	-0.0558	-41.491663	0.000689	6.890767	1.167328	0.000138
2007	1.9960e+02	-0.0364	-41.366511	0.000628	6.282758	1.064328	0.000126
2008	1.9970e+02	-0.0185	-41.265583	0.000507	5.066741	0.858329	0.000101
2009	1.9980e+02	0.0006	-41.164655	0.000507	5.066741	0.858329	0.000101

PMax (uC/cm2):	4.90e+01
Pr (uC/cm2):	4.86e+00
-Pr (uC/cm2):	-6.98e+01
PLoss (uC/cm2):	-6.98e+01
-Vc:	-8.34e-01
C (Max-Eff) (nF):	4.90e-01
K (Eff):	8.30e+02
Vert. (+/-Pr) Shift (uC/cm2):	-3.25e+01
Offset (uC/cm2):	-2.86e+01

A (Loop Area - uC/cm2·Volts):	-3.89e-01



Hysteresis Version: 5.48.1 - Radiant Technologies, Inc., 1999 - 9/12/24

