»»»»»»»»»»»»»»»»»»»»»»»»»»»»»»»»»»»» Hysteresis ««««««««««««««««««««««««««««««««««««
»»»  Executed Version:	5.48.1
»»»  Vision Version:	5.48.4 (R)
»»»  Vision Compiled:	9/18/24
»»»  Driver Version:	5.47.0
»»»  Windows Version:	Windows 8 or 8.1
»»»  Processor Information:	x86 (AMD or Intel) - 32 Processors
»»»  Tester Name:	PMF21124-494 (100V)
»»»  Tester S/N:	PMF21124-494
»»»  Internal Amp Type:	100V RevK 270k
»»»  Internal Amp S/N:	iAB2-596/K     
»»»  Execution Count:	1
»»»»»»»»»»»»»»»»»»»»»»»»»»»»»»»»»»»»»»»»»»««««««««««««««««««««««««««««««««««««««««««

Stored:	7/2/2025 - 18:14:21
Configured:	07/02/25 01:35:59 PM
Executed:	07/02/25 06:13:45 PM

»»»»»»»»»»»»»»»»»»»»»»»»»»»»»»»»»»» Sample Info ««««««««««««««««««««««««««««««««««««
Sample Name:	
Lot Name:	
Wafer Name:	
Die Row/Column:	0/0
Capacitor Number:	0
Sample Area (cm2):	1.00e-04
Sample Thickness (microns):	1.50e-01

Amplifier:	Internal

»»»»»»»»»»»»»»»»»»»»»»»»»»»»»»»»»»» Tester Info «««««««««««««««««««««««««««««««««««
Tester Name:	PMF21124-494 (100V)
Tester Serial Number:	PMF21124-494
Return Signal Amp. Level:	0.19 [Index: 3]

»»»»»»»»»»»»»»»»»»»»»»»»»»»»»»»» Hysteresis Info ««««««««««««««««««««««««««««««««««
Task Name:	Hyst-220
Volts:	10.00
Field:	666.67 (kV/cm)
DCBias:	0.00
DCField:	0.00 (kV/cm)
Hysteresis Period (ms):	2.00e+02
Preset:	Enabled
Preset Delay (ms):	1.00e+03
Profile:	Standard Bipolar

»»»»»»»»»»»»»»»»»»»»»»»»»»»»»»»»»»»»»» Data «««««««««««««««««««««««««««««««««««««««
Points:	2009

Valid Data

Point	Time (ms)	Drive Voltage	Measured Polarization (uC/cm2)	Capacitance (uF)	Normalized Capacitance (uF/cm2)	Dielectric Constant	Instantaneous Current (mA)
   1	0.0000e+00	0.0000	52.228425	0.000669	6.689284	1.133195	0.000134
   2	9.9500e-02	0.0188	52.361651	0.000669	6.689284	1.133195	0.000134
   3	1.9900e-01	0.0396	52.446430	0.000426	4.256817	0.721124	0.000085
   4	2.9850e-01	0.0586	52.615990	0.000851	8.513635	1.442249	0.000170
   5	3.9800e-01	0.0784	52.745178	0.000649	6.486579	1.098856	0.000130
   6	4.9750e-01	0.0996	52.789587	0.000223	2.229761	0.377732	0.000045
   7	5.9700e-01	0.1186	52.926850	0.000689	6.891990	1.167535	0.000138
   8	6.9650e-01	0.1390	53.068149	0.000709	7.094695	1.201874	0.000142
   9	7.9600e-01	0.1592	53.177152	0.000547	5.473051	0.927160	0.000110
  10	8.9550e-01	0.1786	53.294229	0.000588	5.878462	0.995838	0.000118
  11	9.9500e-01	0.1984	53.407269	0.000568	5.675756	0.961499	0.000114
  12	1.0945e+00	0.2190	53.516271	0.000547	5.473051	0.927160	0.000110
  13	1.1940e+00	0.2382	53.673720	0.000791	7.905518	1.339231	0.000158
  14	1.2935e+00	0.2591	53.758499	0.000426	4.256817	0.721124	0.000085
  15	1.3930e+00	0.2778	53.883651	0.000628	6.283873	1.064517	0.000126
  16	1.4925e+00	0.2977	54.041099	0.000791	7.905518	1.339231	0.000158
  17	1.5920e+00	0.3185	54.137990	0.000486	4.864934	0.824142	0.000097
  18	1.6915e+00	0.3378	54.271216	0.000669	6.689284	1.133195	0.000134
  19	1.7910e+00	0.3577	54.360033	0.000446	4.459523	0.755464	0.000089
  20	1.8905e+00	0.3778	54.513444	0.000770	7.702812	1.304892	0.000154
  21	1.9900e+00	0.3979	54.614372	0.000507	5.067640	0.858481	0.000101
  22	2.0895e+00	0.4168	54.715301	0.000507	5.067640	0.858481	0.000101
  23	2.1890e+00	0.4370	54.872749	0.000791	7.905518	1.339231	0.000158
  24	2.2885e+00	0.4580	54.969640	0.000486	4.864934	0.824142	0.000097
  25	2.3880e+00	0.4777	55.074606	0.000527	5.270345	0.892821	0.000105
  26	2.4875e+00	0.4974	55.236091	0.000811	8.108223	1.373570	0.000162
  27	2.5870e+00	0.5178	55.373354	0.000689	6.891990	1.167535	0.000138
  28	2.6865e+00	0.5376	55.470245	0.000486	4.864934	0.824142	0.000097
  29	2.7860e+00	0.5563	55.619619	0.000750	7.500107	1.270552	0.000150
  30	2.8855e+00	0.5772	55.740733	0.000608	6.081168	1.030178	0.000122
  31	2.9850e+00	0.5965	55.809364	0.000345	3.445995	0.583767	0.000069
  32	3.0845e+00	0.6171	55.978924	0.000851	8.513635	1.442249	0.000170
  33	3.1840e+00	0.6370	56.087927	0.000547	5.473051	0.927160	0.000110
  34	3.2835e+00	0.6560	56.225189	0.000689	6.891990	1.167535	0.000138
  35	3.3830e+00	0.6769	56.334192	0.000547	5.473051	0.927160	0.000110
  36	3.4825e+00	0.6966	56.463380	0.000649	6.486579	1.098856	0.000130
  37	3.5820e+00	0.7156	56.548160	0.000426	4.256817	0.721124	0.000085
  38	3.6815e+00	0.7353	56.721757	0.000872	8.716340	1.476588	0.000174
  39	3.7810e+00	0.7560	56.810574	0.000446	4.459523	0.755464	0.000089
  40	3.8805e+00	0.7764	56.992245	0.000912	9.121751	1.545266	0.000183
  41	3.9800e+00	0.7965	57.077025	0.000426	4.256817	0.721124	0.000085
  42	4.0795e+00	0.8157	57.238510	0.000811	8.108223	1.373570	0.000162
  43	4.1790e+00	0.8371	57.379810	0.000709	7.094695	1.201874	0.000142
  44	4.2785e+00	0.8567	57.468627	0.000446	4.459523	0.755464	0.000089
  45	4.3780e+00	0.8762	57.618001	0.000750	7.500107	1.270552	0.000150
  46	4.4775e+00	0.8944	57.747190	0.000649	6.486579	1.098856	0.000130
  47	4.5770e+00	0.9157	57.860229	0.000568	5.675756	0.961499	0.000114
  48	4.6765e+00	0.9354	57.993455	0.000669	6.689284	1.133195	0.000134
  49	4.7760e+00	0.9554	58.130717	0.000689	6.891990	1.167535	0.000138
  50	4.8755e+00	0.9749	58.255869	0.000628	6.283873	1.064517	0.000126
  51	4.9750e+00	0.9948	58.405243	0.000750	7.500107	1.270552	0.000150
  52	5.0745e+00	1.0160	58.522320	0.000588	5.878462	0.995838	0.000118
  53	5.1740e+00	1.0357	58.599025	0.000385	3.851406	0.652446	0.000077
  54	5.2735e+00	1.0558	58.744362	0.000730	7.297401	1.236213	0.000146
  55	5.3730e+00	1.0749	58.897773	0.000770	7.702812	1.304892	0.000154
  56	5.4725e+00	1.0947	59.055222	0.000791	7.905518	1.339231	0.000158
  57	5.5720e+00	1.1145	59.172299	0.000588	5.878462	0.995838	0.000118
  58	5.6715e+00	1.1342	59.281301	0.000547	5.473051	0.927160	0.000110
  59	5.7710e+00	1.1550	59.442787	0.000811	8.108223	1.373570	0.000162
  60	5.8705e+00	1.1759	59.555826	0.000568	5.675756	0.961499	0.000114
  61	5.9700e+00	1.1952	59.680978	0.000628	6.283873	1.064517	0.000126
  62	6.0695e+00	1.2151	59.781906	0.000507	5.067640	0.858481	0.000101
  63	6.1690e+00	1.2344	59.931280	0.000750	7.500107	1.270552	0.000150
  64	6.2685e+00	1.2542	60.056431	0.000628	6.283873	1.064517	0.000126
  65	6.3680e+00	1.2737	60.201768	0.000730	7.297401	1.236213	0.000146
  66	6.4675e+00	1.2942	60.343068	0.000709	7.094695	1.201874	0.000142
  67	6.5670e+00	1.3127	60.456108	0.000568	5.675756	0.961499	0.000114
  68	6.6665e+00	1.3333	60.601445	0.000730	7.297401	1.236213	0.000146
  69	6.7660e+00	1.3533	60.734670	0.000669	6.689284	1.133195	0.000134
  70	6.8655e+00	1.3738	60.863858	0.000649	6.486579	1.098856	0.000130
  71	6.9650e+00	1.3931	60.989010	0.000628	6.283873	1.064517	0.000126
  72	7.0645e+00	1.4127	61.122235	0.000669	6.689284	1.133195	0.000134
  73	7.1640e+00	1.4339	61.271609	0.000750	7.500107	1.270552	0.000150
  74	7.2635e+00	1.4532	61.384649	0.000568	5.675756	0.961499	0.000114
  75	7.3630e+00	1.4725	61.497689	0.000568	5.675756	0.961499	0.000114
  76	7.4625e+00	1.4930	61.630914	0.000669	6.689284	1.133195	0.000134
  77	7.5620e+00	1.5122	61.727805	0.000486	4.864934	0.824142	0.000097
  78	7.6615e+00	1.5323	61.945811	0.001095	10.946102	1.854320	0.000219
  79	7.7610e+00	1.5520	62.050776	0.000527	5.270345	0.892821	0.000105
  80	7.8605e+00	1.5733	62.175928	0.000628	6.283873	1.064517	0.000126
  81	7.9600e+00	1.5931	62.301079	0.000628	6.283873	1.064517	0.000126
  82	8.0595e+00	1.6125	62.434304	0.000669	6.689284	1.133195	0.000134
  83	8.1590e+00	1.6326	62.599827	0.000831	8.310929	1.407909	0.000166
  84	8.2585e+00	1.6512	62.636161	0.000182	1.824350	0.309053	0.000037
  85	8.3580e+00	1.6711	62.842055	0.001034	10.337985	1.751302	0.000207
  86	8.4575e+00	1.6924	62.975280	0.000669	6.689284	1.133195	0.000134
  87	8.5570e+00	1.7123	63.084283	0.000547	5.473051	0.927160	0.000110
  88	8.6565e+00	1.7327	63.217509	0.000669	6.689284	1.133195	0.000134
  89	8.7560e+00	1.7524	63.407254	0.000953	9.527162	1.613945	0.000191
  90	8.8555e+00	1.7728	63.500108	0.000466	4.662228	0.789803	0.000093
  91	8.9550e+00	1.7908	63.649482	0.000750	7.500107	1.270552	0.000150
  92	9.0545e+00	1.8121	63.774633	0.000628	6.283873	1.064517	0.000126
  93	9.1540e+00	1.8320	63.879599	0.000527	5.270345	0.892821	0.000105
  94	9.2535e+00	1.8513	64.041084	0.000811	8.108223	1.373570	0.000162
  95	9.3530e+00	1.8723	64.137975	0.000486	4.864934	0.824142	0.000097
  96	9.4525e+00	1.8911	64.307535	0.000851	8.513635	1.442249	0.000170
  97	9.5520e+00	1.9111	64.428649	0.000608	6.081168	1.030178	0.000122
  98	9.6515e+00	1.9309	64.549763	0.000608	6.081168	1.030178	0.000122
  99	9.7510e+00	1.9512	64.691063	0.000709	7.094695	1.201874	0.000142
 100	9.8505e+00	1.9708	64.828326	0.000689	6.891990	1.167535	0.000138
 101	9.9500e+00	1.9904	64.941365	0.000568	5.675756	0.961499	0.000114
 102	1.0050e+01	2.0104	65.110925	0.000851	8.513635	1.442249	0.000170
 103	1.0149e+01	2.0309	65.228002	0.000588	5.878462	0.995838	0.000118
 104	1.0248e+01	2.0515	65.349116	0.000608	6.081168	1.030178	0.000122
 105	1.0348e+01	2.0699	65.514639	0.000831	8.310929	1.407909	0.000166
 106	1.0447e+01	2.0907	65.647864	0.000669	6.689284	1.133195	0.000134
 107	1.0547e+01	2.1108	65.764941	0.000588	5.878462	0.995838	0.000118
 108	1.0646e+01	2.1307	65.882018	0.000588	5.878462	0.995838	0.000118
 109	1.0746e+01	2.1508	66.059652	0.000892	8.919046	1.510927	0.000179
 110	1.0845e+01	2.1709	66.160580	0.000507	5.067640	0.858481	0.000101
 111	1.0945e+01	2.1899	66.318029	0.000791	7.905518	1.339231	0.000158
 112	1.1044e+01	2.2106	66.455291	0.000689	6.891990	1.167535	0.000138
 113	1.1144e+01	2.2303	66.540071	0.000426	4.256817	0.721124	0.000085
 114	1.1243e+01	2.2507	66.713668	0.000872	8.716340	1.476588	0.000174
 115	1.1343e+01	2.2700	66.867079	0.000770	7.702812	1.304892	0.000154
 116	1.1443e+01	2.2905	66.984156	0.000588	5.878462	0.995838	0.000118
 117	1.1542e+01	2.3094	67.089122	0.000527	5.270345	0.892821	0.000105
 118	1.1642e+01	2.3306	67.234459	0.000730	7.297401	1.236213	0.000146
 119	1.1741e+01	2.3496	67.420167	0.000932	9.324457	1.579606	0.000187
 120	1.1841e+01	2.3693	67.513021	0.000466	4.662228	0.789803	0.000093
 121	1.1940e+01	2.3899	67.666432	0.000770	7.702812	1.304892	0.000154
 122	1.2040e+01	2.4094	67.787546	0.000608	6.081168	1.030178	0.000122
 123	1.2139e+01	2.4300	67.916735	0.000649	6.486579	1.098856	0.000130
 124	1.2239e+01	2.4490	68.029774	0.000568	5.675756	0.961499	0.000114
 125	1.2338e+01	2.4697	68.199334	0.000851	8.513635	1.442249	0.000170
 126	1.2438e+01	2.4897	68.308337	0.000547	5.473051	0.927160	0.000110
 127	1.2537e+01	2.5092	68.437525	0.000649	6.486579	1.098856	0.000130
 128	1.2636e+01	2.5282	68.590936	0.000770	7.702812	1.304892	0.000154
 129	1.2736e+01	2.5500	68.720125	0.000649	6.486579	1.098856	0.000130
 130	1.2835e+01	2.5677	68.845276	0.000628	6.283873	1.064517	0.000126
 131	1.2935e+01	2.5887	68.958316	0.000568	5.675756	0.961499	0.000114
 132	1.3034e+01	2.6082	69.135950	0.000892	8.919046	1.510927	0.000179
 133	1.3134e+01	2.6286	69.240915	0.000527	5.270345	0.892821	0.000105
 134	1.3233e+01	2.6482	69.406438	0.000831	8.310929	1.407909	0.000166
 135	1.3333e+01	2.6693	69.527552	0.000608	6.081168	1.030178	0.000122
 136	1.3432e+01	2.6883	69.632517	0.000527	5.270345	0.892821	0.000105
 137	1.3532e+01	2.7071	69.781891	0.000750	7.500107	1.270552	0.000150
 138	1.3632e+01	2.7279	69.915117	0.000669	6.689284	1.133195	0.000134
 139	1.3731e+01	2.7477	70.056416	0.000709	7.094695	1.201874	0.000142
 140	1.3831e+01	2.7686	70.189642	0.000669	6.689284	1.133195	0.000134
 141	1.3930e+01	2.7875	70.302682	0.000568	5.675756	0.961499	0.000114
 142	1.4030e+01	2.8080	70.448019	0.000730	7.297401	1.236213	0.000146
 143	1.4129e+01	2.8286	70.577207	0.000649	6.486579	1.098856	0.000130
 144	1.4229e+01	2.8481	70.722544	0.000730	7.297401	1.236213	0.000146
 145	1.4328e+01	2.8685	70.815398	0.000466	4.662228	0.789803	0.000093
 146	1.4428e+01	2.8880	70.948623	0.000669	6.689284	1.133195	0.000134
 147	1.4527e+01	2.9070	71.110109	0.000811	8.108223	1.373570	0.000162
 148	1.4627e+01	2.9278	71.247372	0.000689	6.891990	1.167535	0.000138
 149	1.4726e+01	2.9472	71.380597	0.000669	6.689284	1.133195	0.000134
 150	1.4825e+01	2.9664	71.542082	0.000811	8.108223	1.373570	0.000162
 151	1.4925e+01	2.9879	71.614751	0.000365	3.648701	0.618107	0.000073
 152	1.5024e+01	3.0078	71.715679	0.000507	5.067640	0.858481	0.000101
 153	1.5124e+01	3.0271	71.889276	0.000872	8.716340	1.476588	0.000174
 154	1.5223e+01	3.0470	72.018464	0.000649	6.486579	1.098856	0.000130
 155	1.5323e+01	3.0672	72.171876	0.000770	7.702812	1.304892	0.000154
 156	1.5422e+01	3.0875	72.268767	0.000486	4.864934	0.824142	0.000097
 157	1.5522e+01	3.1066	72.393918	0.000628	6.283873	1.064517	0.000126
 158	1.5621e+01	3.1271	72.547329	0.000770	7.702812	1.304892	0.000154
 159	1.5721e+01	3.1465	72.716889	0.000851	8.513635	1.442249	0.000170
 160	1.5820e+01	3.1666	72.866263	0.000750	7.500107	1.270552	0.000150
 161	1.5920e+01	3.1869	72.947006	0.000405	4.054112	0.686785	0.000081
 162	1.6020e+01	3.2057	73.076194	0.000649	6.486579	1.098856	0.000130
 163	1.6119e+01	3.2265	73.185197	0.000547	5.473051	0.927160	0.000110
 164	1.6218e+01	3.2468	73.330534	0.000730	7.297401	1.236213	0.000146
 165	1.6318e+01	3.2666	73.459722	0.000649	6.486579	1.098856	0.000130
 166	1.6418e+01	3.2864	73.621207	0.000811	8.108223	1.373570	0.000162
 167	1.6517e+01	3.3056	73.754433	0.000669	6.689284	1.133195	0.000134
 168	1.6616e+01	3.3260	73.851324	0.000486	4.864934	0.824142	0.000097
 169	1.6716e+01	3.3459	73.996661	0.000730	7.297401	1.236213	0.000146
 170	1.6816e+01	3.3663	74.105664	0.000547	5.473051	0.927160	0.000110
 171	1.6915e+01	3.3849	74.238889	0.000669	6.689284	1.133195	0.000134
 172	1.7015e+01	3.4053	74.388263	0.000750	7.500107	1.270552	0.000150
 173	1.7114e+01	3.4257	74.553786	0.000831	8.310929	1.407909	0.000166
 174	1.7213e+01	3.4455	74.650677	0.000486	4.864934	0.824142	0.000097
 175	1.7313e+01	3.4655	74.755642	0.000527	5.270345	0.892821	0.000105
 176	1.7413e+01	3.4856	74.925202	0.000851	8.513635	1.442249	0.000170
 177	1.7512e+01	3.5055	75.050353	0.000628	6.283873	1.064517	0.000126
 178	1.7611e+01	3.5246	75.159356	0.000547	5.473051	0.927160	0.000110
 179	1.7711e+01	3.5444	75.276433	0.000588	5.878462	0.995838	0.000118
 180	1.7811e+01	3.5648	75.421770	0.000730	7.297401	1.236213	0.000146
 181	1.7910e+01	3.5851	75.567107	0.000730	7.297401	1.236213	0.000146
 182	1.8009e+01	3.6048	75.688221	0.000608	6.081168	1.030178	0.000122
 183	1.8109e+01	3.6243	75.773001	0.000426	4.256817	0.721124	0.000085
 184	1.8209e+01	3.6455	75.922375	0.000750	7.500107	1.270552	0.000150
 185	1.8308e+01	3.6653	76.071749	0.000750	7.500107	1.270552	0.000150
 186	1.8407e+01	3.6840	76.180751	0.000547	5.473051	0.927160	0.000110
 187	1.8507e+01	3.7049	76.318014	0.000689	6.891990	1.167535	0.000138
 188	1.8607e+01	3.7243	76.435091	0.000588	5.878462	0.995838	0.000118
 189	1.8706e+01	3.7450	76.624836	0.000953	9.527162	1.613945	0.000191
 190	1.8805e+01	3.7650	76.713653	0.000446	4.459523	0.755464	0.000089
 191	1.8905e+01	3.7833	76.854953	0.000709	7.094695	1.201874	0.000142
 192	1.9005e+01	3.8031	76.992216	0.000689	6.891990	1.167535	0.000138
 193	1.9104e+01	3.8245	77.101218	0.000547	5.473051	0.927160	0.000110
 194	1.9203e+01	3.8439	77.222332	0.000608	6.081168	1.030178	0.000122
 195	1.9303e+01	3.8630	77.343446	0.000608	6.081168	1.030178	0.000122
 196	1.9402e+01	3.8831	77.460523	0.000588	5.878462	0.995838	0.000118
 197	1.9502e+01	3.9030	77.613935	0.000770	7.702812	1.304892	0.000154
 198	1.9602e+01	3.9228	77.755234	0.000709	7.094695	1.201874	0.000142
 199	1.9701e+01	3.9433	77.884423	0.000649	6.486579	1.098856	0.000130
 200	1.9800e+01	3.9631	77.965165	0.000405	4.054112	0.686785	0.000081
 201	1.9900e+01	3.9825	78.134725	0.000851	8.513635	1.442249	0.000170
 202	2.0000e+01	4.0029	78.235653	0.000507	5.067640	0.858481	0.000101
 203	2.0099e+01	4.0228	78.368879	0.000669	6.689284	1.133195	0.000134
 204	2.0198e+01	4.0425	78.510179	0.000709	7.094695	1.201874	0.000142
 205	2.0298e+01	4.0633	78.627256	0.000588	5.878462	0.995838	0.000118
 206	2.0398e+01	4.0826	78.728184	0.000507	5.067640	0.858481	0.000101
 207	2.0497e+01	4.1035	78.865447	0.000689	6.891990	1.167535	0.000138
 208	2.0596e+01	4.1232	79.014821	0.000750	7.500107	1.270552	0.000150
 209	2.0696e+01	4.1427	79.139972	0.000628	6.283873	1.064517	0.000126
 210	2.0796e+01	4.1625	79.253012	0.000568	5.675756	0.961499	0.000114
 211	2.0895e+01	4.1822	79.357977	0.000527	5.270345	0.892821	0.000105
 212	2.0994e+01	4.2025	79.535611	0.000892	8.919046	1.510927	0.000179
 213	2.1094e+01	4.2233	79.656725	0.000608	6.081168	1.030178	0.000122
 214	2.1194e+01	4.2420	79.793988	0.000689	6.891990	1.167535	0.000138
 215	2.1293e+01	4.2627	79.890879	0.000486	4.864934	0.824142	0.000097
 216	2.1392e+01	4.2818	80.052365	0.000811	8.108223	1.373570	0.000162
 217	2.1492e+01	4.3015	80.145219	0.000466	4.662228	0.789803	0.000093
 218	2.1591e+01	4.3220	80.274407	0.000649	6.486579	1.098856	0.000130
 219	2.1691e+01	4.3417	80.431855	0.000791	7.905518	1.339231	0.000158
 220	2.1791e+01	4.3618	80.548932	0.000588	5.878462	0.995838	0.000118
 221	2.1890e+01	4.3813	80.597378	0.000243	2.432467	0.412071	0.000049
 222	2.1989e+01	4.4015	80.758863	0.000811	8.108223	1.373570	0.000162
 223	2.2089e+01	4.4210	80.900163	0.000709	7.094695	1.201874	0.000142
 224	2.2189e+01	4.4413	81.021277	0.000608	6.081168	1.030178	0.000122
 225	2.2288e+01	4.4621	81.194874	0.000872	8.716340	1.476588	0.000174
 226	2.2387e+01	4.4813	81.251394	0.000284	2.837878	0.480750	0.000057
 227	2.2487e+01	4.5011	81.408842	0.000791	7.905518	1.339231	0.000158
 228	2.2587e+01	4.5210	81.509771	0.000507	5.067640	0.858481	0.000101
 229	2.2686e+01	4.5409	81.647033	0.000689	6.891990	1.167535	0.000138
 230	2.2785e+01	4.5617	81.776222	0.000649	6.486579	1.098856	0.000130
 231	2.2885e+01	4.5806	81.885224	0.000547	5.473051	0.927160	0.000110
 232	2.2985e+01	4.6011	82.034598	0.000750	7.500107	1.270552	0.000150
 233	2.3084e+01	4.6211	82.143601	0.000547	5.473051	0.927160	0.000110
 234	2.3183e+01	4.6399	82.272789	0.000649	6.486579	1.098856	0.000130
 235	2.3283e+01	4.6606	82.365643	0.000466	4.662228	0.789803	0.000093
 236	2.3383e+01	4.6806	82.523092	0.000791	7.905518	1.339231	0.000158
 237	2.3482e+01	4.7008	82.648243	0.000628	6.283873	1.064517	0.000126
 238	2.3581e+01	4.7211	82.777431	0.000649	6.486579	1.098856	0.000130
 239	2.3681e+01	4.7408	82.902582	0.000628	6.283873	1.064517	0.000126
 240	2.3780e+01	4.7598	82.987362	0.000426	4.256817	0.721124	0.000085
 241	2.3880e+01	4.7796	83.140773	0.000770	7.702812	1.304892	0.000154
 242	2.3980e+01	4.7998	83.237665	0.000486	4.864934	0.824142	0.000097
 243	2.4079e+01	4.8199	83.399150	0.000811	8.108223	1.373570	0.000162
 244	2.4178e+01	4.8397	83.532376	0.000669	6.689284	1.133195	0.000134
 245	2.4278e+01	4.8598	83.649452	0.000588	5.878462	0.995838	0.000118
 246	2.4378e+01	4.8804	83.754418	0.000527	5.270345	0.892821	0.000105
 247	2.4477e+01	4.8988	83.875532	0.000608	6.081168	1.030178	0.000122
 248	2.4576e+01	4.9200	84.000683	0.000628	6.283873	1.064517	0.000126
 249	2.4676e+01	4.9397	84.109686	0.000547	5.473051	0.927160	0.000110
 250	2.4776e+01	4.9601	84.234837	0.000628	6.283873	1.064517	0.000126
 251	2.4875e+01	4.9795	84.372100	0.000689	6.891990	1.167535	0.000138
 252	2.4974e+01	4.9993	84.501288	0.000649	6.486579	1.098856	0.000130
 253	2.5074e+01	5.0199	84.626439	0.000628	6.283873	1.064517	0.000126
 254	2.5174e+01	5.0396	84.751591	0.000628	6.283873	1.064517	0.000126
 255	2.5273e+01	5.0591	84.868667	0.000588	5.878462	0.995838	0.000118
 256	2.5372e+01	5.0787	84.961522	0.000466	4.662228	0.789803	0.000093
 257	2.5472e+01	5.0988	85.086673	0.000628	6.283873	1.064517	0.000126
 258	2.5572e+01	5.1196	85.191638	0.000527	5.270345	0.892821	0.000105
 259	2.5671e+01	5.1391	85.377347	0.000932	9.324457	1.579606	0.000187
 260	2.5770e+01	5.1585	85.454052	0.000385	3.851406	0.652446	0.000077
 261	2.5870e+01	5.1781	85.631686	0.000892	8.919046	1.510927	0.000179
 262	2.5970e+01	5.1977	85.708392	0.000385	3.851406	0.652446	0.000077
 263	2.6069e+01	5.2175	85.833543	0.000628	6.283873	1.064517	0.000126
 264	2.6169e+01	5.2383	85.910249	0.000385	3.851406	0.652446	0.000077
 265	2.6268e+01	5.2585	86.083845	0.000872	8.716340	1.476588	0.000174
 266	2.6367e+01	5.2775	86.180737	0.000486	4.864934	0.824142	0.000097
 267	2.6467e+01	5.2987	86.301851	0.000608	6.081168	1.030178	0.000122
 268	2.6567e+01	5.3178	86.402779	0.000507	5.067640	0.858481	0.000101
 269	2.6666e+01	5.3371	86.527930	0.000628	6.283873	1.064517	0.000126
 270	2.6765e+01	5.3571	86.673267	0.000730	7.297401	1.236213	0.000146
 271	2.6865e+01	5.3777	86.766121	0.000466	4.662228	0.789803	0.000093
 272	2.6965e+01	5.3960	86.907421	0.000709	7.094695	1.201874	0.000142
 273	2.7064e+01	5.4176	87.052758	0.000730	7.297401	1.236213	0.000146
 274	2.7163e+01	5.4372	87.145612	0.000466	4.662228	0.789803	0.000093
 275	2.7263e+01	5.4571	87.290949	0.000730	7.297401	1.236213	0.000146
 276	2.7363e+01	5.4766	87.399952	0.000547	5.473051	0.927160	0.000110
 277	2.7462e+01	5.4972	87.512991	0.000568	5.675756	0.961499	0.000114
 278	2.7561e+01	5.5163	87.601808	0.000446	4.459523	0.755464	0.000089
 279	2.7661e+01	5.5372	87.747145	0.000730	7.297401	1.236213	0.000146
 280	2.7761e+01	5.5566	87.872296	0.000628	6.283873	1.064517	0.000126
 281	2.7860e+01	5.5769	88.005522	0.000669	6.689284	1.133195	0.000134
 282	2.7959e+01	5.5968	88.090302	0.000426	4.256817	0.721124	0.000085
 283	2.8059e+01	5.6171	88.195267	0.000527	5.270345	0.892821	0.000105
 284	2.8159e+01	5.6365	88.320419	0.000628	6.283873	1.064517	0.000126
 285	2.8258e+01	5.6571	88.465755	0.000730	7.297401	1.236213	0.000146
 286	2.8358e+01	5.6767	88.611092	0.000730	7.297401	1.236213	0.000146
 287	2.8457e+01	5.6959	88.695872	0.000426	4.256817	0.721124	0.000085
 288	2.8556e+01	5.7156	88.816986	0.000608	6.081168	1.030178	0.000122
 289	2.8656e+01	5.7359	88.913877	0.000486	4.864934	0.824142	0.000097
 290	2.8756e+01	5.7557	89.067289	0.000770	7.702812	1.304892	0.000154
 291	2.8855e+01	5.7757	89.168217	0.000507	5.067640	0.858481	0.000101
 292	2.8954e+01	5.7955	89.301443	0.000669	6.689284	1.133195	0.000134
 293	2.9054e+01	5.8164	89.406408	0.000527	5.270345	0.892821	0.000105
 294	2.9154e+01	5.8356	89.507336	0.000507	5.067640	0.858481	0.000101
 295	2.9253e+01	5.8569	89.660748	0.000770	7.702812	1.304892	0.000154
 296	2.9352e+01	5.8764	89.765713	0.000527	5.270345	0.892821	0.000105
 297	2.9452e+01	5.8956	89.919124	0.000770	7.702812	1.304892	0.000154
 298	2.9552e+01	5.9155	90.020053	0.000507	5.067640	0.858481	0.000101
 299	2.9651e+01	5.9350	90.104833	0.000426	4.256817	0.721124	0.000085
 300	2.9750e+01	5.9559	90.225947	0.000608	6.081168	1.030178	0.000122
 301	2.9850e+01	5.9760	90.395506	0.000851	8.513635	1.442249	0.000170
 302	2.9950e+01	5.9956	90.472212	0.000385	3.851406	0.652446	0.000077
 303	3.0049e+01	6.0157	90.605437	0.000669	6.689284	1.133195	0.000134
 304	3.0148e+01	6.0354	90.690217	0.000426	4.256817	0.721124	0.000085
 305	3.0248e+01	6.0548	90.835554	0.000730	7.297401	1.236213	0.000146
 306	3.0348e+01	6.0744	90.972817	0.000689	6.891990	1.167535	0.000138
 307	3.0447e+01	6.0960	91.081819	0.000547	5.473051	0.927160	0.000110
 308	3.0547e+01	6.1149	91.170636	0.000446	4.459523	0.755464	0.000089
 309	3.0646e+01	6.1349	91.287713	0.000588	5.878462	0.995838	0.000118
 310	3.0745e+01	6.1550	91.396716	0.000547	5.473051	0.927160	0.000110
 311	3.0845e+01	6.1749	91.550127	0.000770	7.702812	1.304892	0.000154
 312	3.0945e+01	6.1955	91.630870	0.000405	4.054112	0.686785	0.000081
 313	3.1044e+01	6.2152	91.756021	0.000628	6.283873	1.064517	0.000126
 314	3.1143e+01	6.2337	91.885209	0.000649	6.486579	1.098856	0.000130
 315	3.1243e+01	6.2542	92.014398	0.000649	6.486579	1.098856	0.000130
 316	3.1343e+01	6.2746	92.139549	0.000628	6.283873	1.064517	0.000126
 317	3.1442e+01	6.2940	92.236440	0.000486	4.864934	0.824142	0.000097
 318	3.1541e+01	6.3126	92.337369	0.000507	5.067640	0.858481	0.000101
 319	3.1641e+01	6.3331	92.474631	0.000689	6.891990	1.167535	0.000138
 320	3.1741e+01	6.3529	92.579597	0.000527	5.270345	0.892821	0.000105
 321	3.1840e+01	6.3732	92.684562	0.000527	5.270345	0.892821	0.000105
 322	3.1939e+01	6.3934	92.813751	0.000649	6.486579	1.098856	0.000130
 323	3.2039e+01	6.4120	92.906605	0.000466	4.662228	0.789803	0.000093
 324	3.2139e+01	6.4336	93.011570	0.000527	5.270345	0.892821	0.000105
 325	3.2238e+01	6.4526	93.152870	0.000709	7.094695	1.201874	0.000142
 326	3.2337e+01	6.4721	93.298207	0.000730	7.297401	1.236213	0.000146
 327	3.2437e+01	6.4922	93.391061	0.000466	4.662228	0.789803	0.000093
 328	3.2536e+01	6.5124	93.496027	0.000527	5.270345	0.892821	0.000105
 329	3.2636e+01	6.5334	93.625215	0.000649	6.486579	1.098856	0.000130
 330	3.2736e+01	6.5542	93.762478	0.000689	6.891990	1.167535	0.000138
 331	3.2835e+01	6.5719	93.891666	0.000649	6.486579	1.098856	0.000130
 332	3.2934e+01	6.5918	94.000669	0.000547	5.473051	0.927160	0.000110
 333	3.3034e+01	6.6113	94.085448	0.000426	4.256817	0.721124	0.000085
 334	3.3133e+01	6.6325	94.218674	0.000669	6.689284	1.133195	0.000134
 335	3.3233e+01	6.6526	94.319602	0.000507	5.067640	0.858481	0.000101
 336	3.3333e+01	6.6719	94.448791	0.000649	6.486579	1.098856	0.000130
 337	3.3432e+01	6.6921	94.577979	0.000649	6.486579	1.098856	0.000130
 338	3.3532e+01	6.7120	94.678907	0.000507	5.067640	0.858481	0.000101
 339	3.3631e+01	6.7315	94.804059	0.000628	6.283873	1.064517	0.000126
 340	3.3730e+01	6.7514	94.925173	0.000608	6.081168	1.030178	0.000122
 341	3.3830e+01	6.7712	95.030138	0.000527	5.270345	0.892821	0.000105
 342	3.3929e+01	6.7920	95.118955	0.000446	4.459523	0.755464	0.000089
 343	3.4029e+01	6.8125	95.276403	0.000791	7.905518	1.339231	0.000158
 344	3.4129e+01	6.8311	95.373295	0.000486	4.864934	0.824142	0.000097
 345	3.4228e+01	6.8526	95.458075	0.000426	4.256817	0.721124	0.000085
 346	3.4328e+01	6.8713	95.619560	0.000811	8.108223	1.373570	0.000162
 347	3.4427e+01	6.8908	95.716451	0.000486	4.864934	0.824142	0.000097
 348	3.4526e+01	6.9112	95.837565	0.000608	6.081168	1.030178	0.000122
 349	3.4626e+01	6.9310	95.962716	0.000628	6.283873	1.064517	0.000126
 350	3.4725e+01	6.9509	96.112091	0.000750	7.500107	1.270552	0.000150
 351	3.4825e+01	6.9708	96.176685	0.000324	3.243289	0.549428	0.000065
 352	3.4925e+01	6.9912	96.297799	0.000608	6.081168	1.030178	0.000122
 353	3.5024e+01	7.0111	96.431024	0.000669	6.689284	1.133195	0.000134
 354	3.5123e+01	7.0313	96.560213	0.000649	6.486579	1.098856	0.000130
 355	3.5223e+01	7.0514	96.689401	0.000649	6.486579	1.098856	0.000130
 356	3.5322e+01	7.0703	96.753995	0.000324	3.243289	0.549428	0.000065
 357	3.5422e+01	7.0908	96.895295	0.000709	7.094695	1.201874	0.000142
 358	3.5522e+01	7.1102	97.004298	0.000547	5.473051	0.927160	0.000110
 359	3.5621e+01	7.1299	97.093114	0.000446	4.459523	0.755464	0.000089
 360	3.5721e+01	7.1510	97.202117	0.000547	5.473051	0.927160	0.000110
 361	3.5820e+01	7.1703	97.355528	0.000770	7.702812	1.304892	0.000154
 362	3.5919e+01	7.1902	97.496828	0.000709	7.094695	1.201874	0.000142
 363	3.6019e+01	7.2100	97.561422	0.000324	3.243289	0.549428	0.000065
 364	3.6118e+01	7.2296	97.702722	0.000709	7.094695	1.201874	0.000142
 365	3.6218e+01	7.2491	97.815762	0.000568	5.675756	0.961499	0.000114
 366	3.6318e+01	7.2700	97.920727	0.000527	5.270345	0.892821	0.000105
 367	3.6417e+01	7.2895	98.037804	0.000588	5.878462	0.995838	0.000118
 368	3.6517e+01	7.3096	98.150844	0.000568	5.675756	0.961499	0.000114
 369	3.6616e+01	7.3298	98.280032	0.000649	6.486579	1.098856	0.000130
 370	3.6715e+01	7.3487	98.405184	0.000628	6.283873	1.064517	0.000126
 371	3.6815e+01	7.3695	98.526298	0.000608	6.081168	1.030178	0.000122
 372	3.6914e+01	7.3893	98.603003	0.000385	3.851406	0.652446	0.000077
 373	3.7014e+01	7.4088	98.720080	0.000588	5.878462	0.995838	0.000118
 374	3.7114e+01	7.4294	98.841194	0.000608	6.081168	1.030178	0.000122
 375	3.7213e+01	7.4483	98.994605	0.000770	7.702812	1.304892	0.000154
 376	3.7313e+01	7.4697	99.111682	0.000588	5.878462	0.995838	0.000118
 377	3.7412e+01	7.4895	99.220685	0.000547	5.473051	0.927160	0.000110
 378	3.7511e+01	7.5094	99.329688	0.000547	5.473051	0.927160	0.000110
 379	3.7611e+01	7.5293	99.414468	0.000426	4.256817	0.721124	0.000085
 380	3.7711e+01	7.5489	99.567879	0.000770	7.702812	1.304892	0.000154
 381	3.7810e+01	7.5692	99.680919	0.000568	5.675756	0.961499	0.000114
 382	3.7910e+01	7.5889	99.777810	0.000486	4.864934	0.824142	0.000097
 383	3.8009e+01	7.6077	99.866627	0.000446	4.459523	0.755464	0.000089
 384	3.8108e+01	7.6283	100.028112	0.000811	8.108223	1.373570	0.000162
 385	3.8208e+01	7.6485	100.116929	0.000446	4.459523	0.755464	0.000089
 386	3.8307e+01	7.6673	100.258229	0.000709	7.094695	1.201874	0.000142
 387	3.8407e+01	7.6884	100.363194	0.000527	5.270345	0.892821	0.000105
 388	3.8507e+01	7.7086	100.484309	0.000608	6.081168	1.030178	0.000122
 389	3.8606e+01	7.7277	100.597348	0.000568	5.675756	0.961499	0.000114
 390	3.8706e+01	7.7480	100.714425	0.000588	5.878462	0.995838	0.000118
 391	3.8805e+01	7.7680	100.827465	0.000568	5.675756	0.961499	0.000114
 392	3.8904e+01	7.7881	100.964728	0.000689	6.891990	1.167535	0.000138
 393	3.9004e+01	7.8076	101.069693	0.000527	5.270345	0.892821	0.000105
 394	3.9103e+01	7.8272	101.162547	0.000466	4.662228	0.789803	0.000093
 395	3.9203e+01	7.8472	101.319996	0.000791	7.905518	1.339231	0.000158
 396	3.9303e+01	7.8675	101.412850	0.000466	4.662228	0.789803	0.000093
 397	3.9402e+01	7.8875	101.521852	0.000547	5.473051	0.927160	0.000110
 398	3.9502e+01	7.9071	101.642966	0.000608	6.081168	1.030178	0.000122
 399	3.9601e+01	7.9273	101.776192	0.000669	6.689284	1.133195	0.000134
 400	3.9700e+01	7.9468	101.848860	0.000365	3.648701	0.618107	0.000073
 401	3.9800e+01	7.9663	102.002272	0.000770	7.702812	1.304892	0.000154
 402	3.9900e+01	7.9864	102.087051	0.000426	4.256817	0.721124	0.000085
 403	3.9999e+01	8.0063	102.208165	0.000608	6.081168	1.030178	0.000122
 404	4.0099e+01	8.0263	102.325242	0.000588	5.878462	0.995838	0.000118
 405	4.0198e+01	8.0470	102.490765	0.000831	8.310929	1.407909	0.000166
 406	4.0297e+01	8.0664	102.547285	0.000284	2.837878	0.480750	0.000057
 407	4.0397e+01	8.0862	102.704733	0.000791	7.905518	1.339231	0.000158
 408	4.0496e+01	8.1055	102.817773	0.000568	5.675756	0.961499	0.000114
 409	4.0596e+01	8.1261	102.942924	0.000628	6.283873	1.064517	0.000126
 410	4.0696e+01	8.1463	103.064038	0.000608	6.081168	1.030178	0.000122
 411	4.0795e+01	8.1670	103.140744	0.000385	3.851406	0.652446	0.000077
 412	4.0895e+01	8.1860	103.261858	0.000608	6.081168	1.030178	0.000122
 413	4.0994e+01	8.2059	103.391046	0.000649	6.486579	1.098856	0.000130
 414	4.1093e+01	8.2253	103.496012	0.000527	5.270345	0.892821	0.000105
 415	4.1193e+01	8.2451	103.645386	0.000750	7.500107	1.270552	0.000150
 416	4.1292e+01	8.2652	103.762463	0.000588	5.878462	0.995838	0.000118
 417	4.1392e+01	8.2851	103.851280	0.000446	4.459523	0.755464	0.000089
 418	4.1492e+01	8.3058	103.984505	0.000669	6.689284	1.133195	0.000134
 419	4.1591e+01	8.3246	104.081396	0.000486	4.864934	0.824142	0.000097
 420	4.1691e+01	8.3447	104.194436	0.000568	5.675756	0.961499	0.000114
 421	4.1790e+01	8.3635	104.327662	0.000669	6.689284	1.133195	0.000134
 422	4.1889e+01	8.3842	104.481073	0.000770	7.702812	1.304892	0.000154
 423	4.1989e+01	8.4054	104.565853	0.000426	4.256817	0.721124	0.000085
 424	4.2089e+01	8.4257	104.703115	0.000689	6.891990	1.167535	0.000138
 425	4.2188e+01	8.4448	104.816155	0.000568	5.675756	0.961499	0.000114
 426	4.2288e+01	8.4644	104.961492	0.000730	7.297401	1.236213	0.000146
 427	4.2387e+01	8.4850	105.030123	0.000345	3.445995	0.583767	0.000069
 428	4.2486e+01	8.5044	105.187572	0.000791	7.905518	1.339231	0.000158
 429	4.2586e+01	8.5239	105.280426	0.000466	4.662228	0.789803	0.000093
 430	4.2685e+01	8.5449	105.417688	0.000689	6.891990	1.167535	0.000138
 431	4.2785e+01	8.5645	105.522654	0.000527	5.270345	0.892821	0.000105
 432	4.2885e+01	8.5846	105.611471	0.000446	4.459523	0.755464	0.000089
 433	4.2984e+01	8.6050	105.740659	0.000649	6.486579	1.098856	0.000130
 434	4.3084e+01	8.6240	105.869848	0.000649	6.486579	1.098856	0.000130
 435	4.3183e+01	8.6441	105.978850	0.000547	5.473051	0.927160	0.000110
 436	4.3282e+01	8.6636	106.116113	0.000689	6.891990	1.167535	0.000138
 437	4.3382e+01	8.6835	106.249338	0.000669	6.689284	1.133195	0.000134
 438	4.3481e+01	8.7033	106.338155	0.000446	4.459523	0.755464	0.000089
 439	4.3581e+01	8.7238	106.483492	0.000730	7.297401	1.236213	0.000146
 440	4.3681e+01	8.7431	106.564235	0.000405	4.054112	0.686785	0.000081
 441	4.3780e+01	8.7641	106.741869	0.000892	8.919046	1.510927	0.000179
 442	4.3880e+01	8.7836	106.834723	0.000466	4.662228	0.789803	0.000093
 443	4.3979e+01	8.8037	106.939689	0.000527	5.270345	0.892821	0.000105
 444	4.4078e+01	8.8232	107.052728	0.000568	5.675756	0.961499	0.000114
 445	4.4178e+01	8.8428	107.194028	0.000709	7.094695	1.201874	0.000142
 446	4.4278e+01	8.8623	107.327254	0.000669	6.689284	1.133195	0.000134
 447	4.4377e+01	8.8822	107.412033	0.000426	4.256817	0.721124	0.000085
 448	4.4477e+01	8.9020	107.541222	0.000649	6.486579	1.098856	0.000130
 449	4.4576e+01	8.9222	107.654262	0.000568	5.675756	0.961499	0.000114
 450	4.4675e+01	8.9423	107.771339	0.000588	5.878462	0.995838	0.000118
 451	4.4775e+01	8.9618	107.892453	0.000608	6.081168	1.030178	0.000122
 452	4.4874e+01	8.9819	108.045864	0.000770	7.702812	1.304892	0.000154
 453	4.4974e+01	9.0015	108.162941	0.000588	5.878462	0.995838	0.000118
 454	4.5074e+01	9.0213	108.275980	0.000568	5.675756	0.961499	0.000114
 455	4.5173e+01	9.0416	108.397095	0.000608	6.081168	1.030178	0.000122
 456	4.5273e+01	9.0618	108.510134	0.000568	5.675756	0.961499	0.000114
 457	4.5372e+01	9.0803	108.619137	0.000547	5.473051	0.927160	0.000110
 458	4.5471e+01	9.1018	108.707954	0.000446	4.459523	0.755464	0.000089
 459	4.5571e+01	9.1214	108.881551	0.000872	8.716340	1.476588	0.000174
 460	4.5670e+01	9.1406	109.014776	0.000669	6.689284	1.133195	0.000134
 461	4.5770e+01	9.1602	109.083408	0.000345	3.445995	0.583767	0.000069
 462	4.5870e+01	9.1809	109.204522	0.000608	6.081168	1.030178	0.000122
 463	4.5969e+01	9.2017	109.366007	0.000811	8.108223	1.373570	0.000162
 464	4.6069e+01	9.2209	109.470973	0.000527	5.270345	0.892821	0.000105
 465	4.6168e+01	9.2411	109.612272	0.000709	7.094695	1.201874	0.000142
 466	4.6267e+01	9.2606	109.709164	0.000486	4.864934	0.824142	0.000097
 467	4.6367e+01	9.2805	109.814129	0.000527	5.270345	0.892821	0.000105
 468	4.6467e+01	9.3006	109.951392	0.000689	6.891990	1.167535	0.000138
 469	4.6566e+01	9.3201	110.068469	0.000588	5.878462	0.995838	0.000118
 470	4.6666e+01	9.3393	110.201694	0.000669	6.689284	1.133195	0.000134
 471	4.6765e+01	9.3609	110.314734	0.000568	5.675756	0.961499	0.000114
 472	4.6864e+01	9.3803	110.451997	0.000689	6.891990	1.167535	0.000138
 473	4.6964e+01	9.4005	110.577148	0.000628	6.283873	1.064517	0.000126
 474	4.7063e+01	9.4205	110.665965	0.000446	4.459523	0.755464	0.000089
 475	4.7163e+01	9.4398	110.815339	0.000750	7.500107	1.270552	0.000150
 476	4.7263e+01	9.4595	110.888007	0.000365	3.648701	0.618107	0.000073
 477	4.7362e+01	9.4797	111.041418	0.000770	7.702812	1.304892	0.000154
 478	4.7462e+01	9.4995	111.174644	0.000669	6.689284	1.133195	0.000134
 479	4.7561e+01	9.5187	111.263461	0.000446	4.459523	0.755464	0.000089
 480	4.7660e+01	9.5370	111.412835	0.000750	7.500107	1.270552	0.000150
 481	4.7760e+01	9.5589	111.542023	0.000649	6.486579	1.098856	0.000130
 482	4.7859e+01	9.5801	111.630840	0.000446	4.459523	0.755464	0.000089
 483	4.7959e+01	9.5991	111.768103	0.000689	6.891990	1.167535	0.000138
 484	4.8059e+01	9.6187	111.933625	0.000831	8.310929	1.407909	0.000166
 485	4.8158e+01	9.6387	112.050702	0.000588	5.878462	0.995838	0.000118
 486	4.8258e+01	9.6585	112.163742	0.000568	5.675756	0.961499	0.000114
 487	4.8357e+01	9.6787	112.280819	0.000588	5.878462	0.995838	0.000118
 488	4.8456e+01	9.6992	112.414045	0.000669	6.689284	1.133195	0.000134
 489	4.8556e+01	9.7184	112.559382	0.000730	7.297401	1.236213	0.000146
 490	4.8656e+01	9.7379	112.615901	0.000284	2.837878	0.480750	0.000057
 491	4.8755e+01	9.7586	112.761238	0.000730	7.297401	1.236213	0.000146
 492	4.8855e+01	9.7787	112.886390	0.000628	6.283873	1.064517	0.000126
 493	4.8954e+01	9.7971	112.999429	0.000568	5.675756	0.961499	0.000114
 494	4.9053e+01	9.8174	113.181100	0.000912	9.121751	1.545266	0.000183
 495	4.9153e+01	9.8380	113.302214	0.000608	6.081168	1.030178	0.000122
 496	4.9252e+01	9.8584	113.395069	0.000466	4.662228	0.789803	0.000093
 497	4.9352e+01	9.8782	113.508108	0.000568	5.675756	0.961499	0.000114
 498	4.9452e+01	9.8975	113.669594	0.000811	8.108223	1.373570	0.000162
 499	4.9551e+01	9.9173	113.790708	0.000608	6.081168	1.030178	0.000122
 500	4.9651e+01	9.9380	113.903748	0.000568	5.675756	0.961499	0.000114
 501	4.9750e+01	9.9576	114.041010	0.000689	6.891990	1.167535	0.000138
 502	4.9849e+01	9.9771	114.174236	0.000669	6.689284	1.133195	0.000134
 503	4.9949e+01	9.9976	114.275164	0.000507	5.067640	0.858481	0.000101
 504	5.0048e+01	9.9771	114.234793	0.000203	2.027056	0.343393	-0.000041
 505	5.0148e+01	9.9578	114.230756	0.000020	0.202706	0.034339	-0.000004
 506	5.0248e+01	9.9384	114.186347	0.000223	2.229761	0.377732	-0.000045
 507	5.0347e+01	9.9177	114.206533	-0.000101	-1.013528	-0.171696	0.000020
 508	5.0447e+01	9.8969	114.154050	0.000264	2.635173	0.446410	-0.000053
 509	5.0546e+01	9.8787	114.141939	0.000061	0.608117	0.103018	-0.000012
 510	5.0645e+01	9.8584	114.113679	0.000142	1.418939	0.240375	-0.000028
 511	5.0745e+01	9.8389	114.057159	0.000284	2.837878	0.480750	-0.000057
 512	5.0844e+01	9.8180	114.053122	0.000020	0.202706	0.034339	-0.000004
 513	5.0944e+01	9.7988	114.028899	0.000122	1.216234	0.206036	-0.000024
 514	5.1044e+01	9.7787	113.964305	0.000324	3.243289	0.549428	-0.000065
 515	5.1143e+01	9.7585	113.936045	0.000142	1.418939	0.240375	-0.000028
 516	5.1242e+01	9.7388	113.923933	0.000061	0.608117	0.103018	-0.000012
 517	5.1342e+01	9.7179	113.863376	0.000304	3.040584	0.515089	-0.000061
 518	5.1441e+01	9.6986	113.823005	0.000203	2.027056	0.343393	-0.000041
 519	5.1541e+01	9.6784	113.806856	0.000081	0.810822	0.137357	-0.000016
 520	5.1641e+01	9.6603	113.762448	0.000223	2.229761	0.377732	-0.000045
 521	5.1740e+01	9.6387	113.730151	0.000162	1.621645	0.274714	-0.000032
 522	5.1840e+01	9.6191	113.709965	0.000101	1.013528	0.171696	-0.000020
 523	5.1939e+01	9.5988	113.637297	0.000365	3.648701	0.618107	-0.000073
 524	5.2038e+01	9.5789	113.572703	0.000324	3.243289	0.549428	-0.000065
 525	5.2138e+01	9.5588	113.536368	0.000182	1.824350	0.309053	-0.000037
 526	5.2237e+01	9.5392	113.528294	0.000041	0.405411	0.068679	-0.000008
 527	5.2337e+01	9.5190	113.516183	0.000061	0.608117	0.103018	-0.000012
 528	5.2437e+01	9.4989	113.419291	0.000486	4.864934	0.824142	-0.000097
 529	5.2536e+01	9.4794	113.407180	0.000061	0.608117	0.103018	-0.000012
 530	5.2636e+01	9.4595	113.374883	0.000162	1.621645	0.274714	-0.000032
 531	5.2735e+01	9.4409	113.310289	0.000324	3.243289	0.549428	-0.000065
 532	5.2834e+01	9.4205	113.265880	0.000223	2.229761	0.377732	-0.000045
 533	5.2934e+01	9.4006	113.245695	0.000101	1.013528	0.171696	-0.000020
 534	5.3033e+01	9.3805	113.209360	0.000182	1.824350	0.309053	-0.000037
 535	5.3133e+01	9.3604	113.128618	0.000405	4.054112	0.686785	-0.000081
 536	5.3233e+01	9.3398	113.112469	0.000081	0.810822	0.137357	-0.000016
 537	5.3332e+01	9.3198	113.047875	0.000324	3.243289	0.549428	-0.000065
 538	5.3431e+01	9.3011	113.011541	0.000182	1.824350	0.309053	-0.000037
 539	5.3531e+01	9.2814	112.926761	0.000426	4.256817	0.721124	-0.000085
 540	5.3630e+01	9.2608	112.886390	0.000203	2.027056	0.343393	-0.000041
 541	5.3730e+01	9.2413	112.882352	0.000020	0.202706	0.034339	-0.000004
 542	5.3830e+01	9.2202	112.805647	0.000385	3.851406	0.652446	-0.000077
 543	5.3929e+01	9.2010	112.781424	0.000122	1.216234	0.206036	-0.000024
 544	5.4029e+01	9.1804	112.737015	0.000223	2.229761	0.377732	-0.000045
 545	5.4128e+01	9.1603	112.648198	0.000446	4.459523	0.755464	-0.000089
 546	5.4227e+01	9.1410	112.652236	-0.000020	-0.202706	-0.034339	0.000004
 547	5.4327e+01	9.1219	112.571493	0.000405	4.054112	0.686785	-0.000081
 548	5.4426e+01	9.1018	112.543233	0.000142	1.418939	0.240375	-0.000028
 549	5.4526e+01	9.0811	112.466527	0.000385	3.851406	0.652446	-0.000077
 550	5.4626e+01	9.0619	112.450379	0.000081	0.810822	0.137357	-0.000016
 551	5.4725e+01	9.0420	112.397896	0.000264	2.635173	0.446410	-0.000053
 552	5.4825e+01	9.0222	112.337339	0.000304	3.040584	0.515089	-0.000061
 553	5.4924e+01	9.0024	112.260633	0.000385	3.851406	0.652446	-0.000077
 554	5.5023e+01	8.9822	112.236411	0.000122	1.216234	0.206036	-0.000024
 555	5.5123e+01	8.9614	112.179891	0.000284	2.837878	0.480750	-0.000057
 556	5.5222e+01	8.9409	112.131445	0.000243	2.432467	0.412071	-0.000049
 557	5.5322e+01	8.9222	112.078962	0.000264	2.635173	0.446410	-0.000053
 558	5.5422e+01	8.9028	111.998220	0.000405	4.054112	0.686785	-0.000081
 559	5.5521e+01	8.8820	111.994183	0.000020	0.202706	0.034339	-0.000004
 560	5.5620e+01	8.8624	111.925551	0.000345	3.445995	0.583767	-0.000069
 561	5.5720e+01	8.8428	111.864994	0.000304	3.040584	0.515089	-0.000061
 562	5.5819e+01	8.8224	111.808474	0.000284	2.837878	0.480750	-0.000057
 563	5.5919e+01	8.8023	111.772140	0.000182	1.824350	0.309053	-0.000037
 564	5.6019e+01	8.7827	111.687360	0.000426	4.256817	0.721124	-0.000085
 565	5.6118e+01	8.7637	111.646989	0.000203	2.027056	0.343393	-0.000041
 566	5.6218e+01	8.7439	111.574320	0.000365	3.648701	0.618107	-0.000073
 567	5.6317e+01	8.7234	111.542023	0.000162	1.621645	0.274714	-0.000032
 568	5.6416e+01	8.7029	111.485503	0.000284	2.837878	0.480750	-0.000057
 569	5.6516e+01	8.6841	111.416872	0.000345	3.445995	0.583767	-0.000069
 570	5.6615e+01	8.6640	111.307869	0.000547	5.473051	0.927160	-0.000110
 571	5.6715e+01	8.6433	111.328055	-0.000101	-1.013528	-0.171696	0.000020
 572	5.6815e+01	8.6244	111.271535	0.000284	2.837878	0.480750	-0.000057
 573	5.6914e+01	8.6044	111.178681	0.000466	4.662228	0.789803	-0.000093
 574	5.7014e+01	8.5841	111.118124	0.000304	3.040584	0.515089	-0.000061
 575	5.7113e+01	8.5646	111.093901	0.000122	1.216234	0.206036	-0.000024
 576	5.7212e+01	8.5449	111.017196	0.000385	3.851406	0.652446	-0.000077
 577	5.7312e+01	8.5247	110.944527	0.000365	3.648701	0.618107	-0.000073
 578	5.7411e+01	8.5045	110.920304	0.000122	1.216234	0.206036	-0.000024
 579	5.7511e+01	8.4848	110.843599	0.000385	3.851406	0.652446	-0.000077
 580	5.7611e+01	8.4644	110.815339	0.000142	1.418939	0.240375	-0.000028
 581	5.7710e+01	8.4442	110.726522	0.000446	4.459523	0.755464	-0.000089
 582	5.7809e+01	8.4235	110.617519	0.000547	5.473051	0.927160	-0.000110
 583	5.7909e+01	8.4037	110.613482	0.000020	0.202706	0.034339	-0.000004
 584	5.8008e+01	8.3847	110.536777	0.000385	3.851406	0.652446	-0.000077
 585	5.8108e+01	8.3659	110.488331	0.000243	2.432467	0.412071	-0.000049
 586	5.8208e+01	8.3447	110.443922	0.000223	2.229761	0.377732	-0.000045
 587	5.8307e+01	8.3256	110.371254	0.000365	3.648701	0.618107	-0.000073
 588	5.8407e+01	8.3057	110.294548	0.000385	3.851406	0.652446	-0.000077
 589	5.8506e+01	8.2850	110.225917	0.000345	3.445995	0.583767	-0.000069
 590	5.8605e+01	8.2652	110.173434	0.000264	2.635173	0.446410	-0.000053
 591	5.8705e+01	8.2457	110.076543	0.000486	4.864934	0.824142	-0.000097
 592	5.8804e+01	8.2256	110.048283	0.000142	1.418939	0.240375	-0.000028
 593	5.8904e+01	8.2049	109.983689	0.000324	3.243289	0.549428	-0.000065
 594	5.9004e+01	8.1857	109.911020	0.000365	3.648701	0.618107	-0.000073
 595	5.9103e+01	8.1660	109.874686	0.000182	1.824350	0.309053	-0.000037
 596	5.9203e+01	8.1467	109.785869	0.000446	4.459523	0.755464	-0.000089
 597	5.9302e+01	8.1256	109.733386	0.000264	2.635173	0.446410	-0.000053
 598	5.9401e+01	8.1062	109.668792	0.000324	3.243289	0.549428	-0.000065
 599	5.9501e+01	8.0862	109.652644	0.000081	0.810822	0.137357	-0.000016
 600	5.9600e+01	8.0661	109.507307	0.000730	7.297401	1.236213	-0.000146
 601	5.9700e+01	8.0462	109.426564	0.000405	4.054112	0.686785	-0.000081
 602	5.9800e+01	8.0269	109.406379	0.000101	1.013528	0.171696	-0.000020
 603	5.9899e+01	8.0065	109.349859	0.000284	2.837878	0.480750	-0.000057
 604	5.9998e+01	7.9866	109.257004	0.000466	4.662228	0.789803	-0.000093
 605	6.0098e+01	7.9663	109.208559	0.000243	2.432467	0.412071	-0.000049
 606	6.0197e+01	7.9465	109.164150	0.000223	2.229761	0.377732	-0.000045
 607	6.0297e+01	7.9272	109.087445	0.000385	3.851406	0.652446	-0.000077
 608	6.0397e+01	7.9069	109.002665	0.000426	4.256817	0.721124	-0.000085
 609	6.0496e+01	7.8867	108.946145	0.000284	2.837878	0.480750	-0.000057
 610	6.0596e+01	7.8680	108.861365	0.000426	4.256817	0.721124	-0.000085
 611	6.0695e+01	7.8481	108.804845	0.000284	2.837878	0.480750	-0.000057
 612	6.0794e+01	7.8274	108.764474	0.000203	2.027056	0.343393	-0.000041
 613	6.0894e+01	7.8072	108.663546	0.000507	5.067640	0.858481	-0.000101
 614	6.0993e+01	7.7866	108.566654	0.000486	4.864934	0.824142	-0.000097
 615	6.1093e+01	7.7670	108.550506	0.000081	0.810822	0.137357	-0.000016
 616	6.1193e+01	7.7470	108.481874	0.000345	3.445995	0.583767	-0.000069
 617	6.1292e+01	7.7277	108.393057	0.000446	4.459523	0.755464	-0.000089
 618	6.1392e+01	7.7070	108.324426	0.000345	3.445995	0.583767	-0.000069
 619	6.1491e+01	7.6875	108.247721	0.000385	3.851406	0.652446	-0.000077
 620	6.1590e+01	7.6684	108.162941	0.000426	4.256817	0.721124	-0.000085
 621	6.1690e+01	7.6475	108.094309	0.000345	3.445995	0.583767	-0.000069
 622	6.1789e+01	7.6286	108.037789	0.000284	2.837878	0.480750	-0.000057
 623	6.1889e+01	7.6077	107.965121	0.000365	3.648701	0.618107	-0.000073
 624	6.1989e+01	7.5883	107.896490	0.000345	3.445995	0.583767	-0.000069
 625	6.2088e+01	7.5689	107.848044	0.000243	2.432467	0.412071	-0.000049
 626	6.2188e+01	7.5483	107.739041	0.000547	5.473051	0.927160	-0.000110
 627	6.2287e+01	7.5286	107.686559	0.000264	2.635173	0.446410	-0.000053
 628	6.2386e+01	7.5071	107.605816	0.000405	4.054112	0.686785	-0.000081
 629	6.2486e+01	7.4893	107.521036	0.000426	4.256817	0.721124	-0.000085
 630	6.2586e+01	7.4686	107.468553	0.000264	2.635173	0.446410	-0.000053
 631	6.2685e+01	7.4478	107.407996	0.000304	3.040584	0.515089	-0.000061
 632	6.2785e+01	7.4299	107.315142	0.000466	4.662228	0.789803	-0.000093
 633	6.2884e+01	7.4096	107.206140	0.000547	5.473051	0.927160	-0.000110
 634	6.2983e+01	7.3897	107.141545	0.000324	3.243289	0.549428	-0.000065
 635	6.3083e+01	7.3688	107.089063	0.000264	2.635173	0.446410	-0.000053
 636	6.3182e+01	7.3492	107.044654	0.000223	2.229761	0.377732	-0.000045
 637	6.3282e+01	7.3292	106.971986	0.000365	3.648701	0.618107	-0.000073
 638	6.3382e+01	7.3096	106.883169	0.000446	4.459523	0.755464	-0.000089
 639	6.3481e+01	7.2894	106.790315	0.000466	4.662228	0.789803	-0.000093
 640	6.3581e+01	7.2698	106.717646	0.000365	3.648701	0.618107	-0.000073
 641	6.3680e+01	7.2505	106.661126	0.000284	2.837878	0.480750	-0.000057
 642	6.3779e+01	7.2297	106.584421	0.000385	3.851406	0.652446	-0.000077
 643	6.3879e+01	7.2097	106.519826	0.000324	3.243289	0.549428	-0.000065
 644	6.3978e+01	7.1901	106.431009	0.000446	4.459523	0.755464	-0.000089
 645	6.4078e+01	7.1701	106.342192	0.000446	4.459523	0.755464	-0.000089
 646	6.4177e+01	7.1501	106.261450	0.000405	4.054112	0.686785	-0.000081
 647	6.4277e+01	7.1308	106.233190	0.000142	1.418939	0.240375	-0.000028
 648	6.4376e+01	7.1105	106.104001	0.000649	6.486579	1.098856	-0.000130
 649	6.4476e+01	7.0901	106.043444	0.000304	3.040584	0.515089	-0.000061
 650	6.4576e+01	7.0701	105.938479	0.000527	5.270345	0.892821	-0.000105
 651	6.4675e+01	7.0508	105.914256	0.000122	1.216234	0.206036	-0.000024
 652	6.4775e+01	7.0297	105.805253	0.000547	5.473051	0.927160	-0.000110
 653	6.4874e+01	7.0117	105.724511	0.000405	4.054112	0.686785	-0.000081
 654	6.4974e+01	6.9915	105.643768	0.000405	4.054112	0.686785	-0.000081
 655	6.5073e+01	6.9703	105.579174	0.000324	3.243289	0.549428	-0.000065
 656	6.5172e+01	6.9514	105.474208	0.000527	5.270345	0.892821	-0.000105
 657	6.5272e+01	6.9314	105.441911	0.000162	1.621645	0.274714	-0.000032
 658	6.5371e+01	6.9109	105.361168	0.000405	4.054112	0.686785	-0.000081
 659	6.5471e+01	6.8917	105.260240	0.000507	5.067640	0.858481	-0.000101
 660	6.5570e+01	6.8714	105.187572	0.000365	3.648701	0.618107	-0.000073
 661	6.5670e+01	6.8517	105.106829	0.000405	4.054112	0.686785	-0.000081
 662	6.5769e+01	6.8318	105.046272	0.000304	3.040584	0.515089	-0.000061
 663	6.5869e+01	6.8128	104.900935	0.000730	7.297401	1.236213	-0.000146
 664	6.5969e+01	6.7912	104.848452	0.000264	2.635173	0.446410	-0.000053
 665	6.6068e+01	6.7712	104.787895	0.000304	3.040584	0.515089	-0.000061
 666	6.6168e+01	6.7513	104.731375	0.000284	2.837878	0.480750	-0.000057
 667	6.6267e+01	6.7320	104.602187	0.000649	6.486579	1.098856	-0.000130
 668	6.6367e+01	6.7123	104.569890	0.000162	1.621645	0.274714	-0.000032
 669	6.6466e+01	6.6920	104.481073	0.000446	4.459523	0.755464	-0.000089
 670	6.6566e+01	6.6726	104.380145	0.000507	5.067640	0.858481	-0.000101
 671	6.6665e+01	6.6522	104.287290	0.000466	4.662228	0.789803	-0.000093
 672	6.6764e+01	6.6317	104.222696	0.000324	3.243289	0.549428	-0.000065
 673	6.6864e+01	6.6126	104.125805	0.000486	4.864934	0.824142	-0.000097
 674	6.6963e+01	6.5923	104.061211	0.000324	3.243289	0.549428	-0.000065
 675	6.7063e+01	6.5730	104.016802	0.000223	2.229761	0.377732	-0.000045
 676	6.7162e+01	6.5527	103.879540	0.000689	6.891990	1.167535	-0.000138
 677	6.7262e+01	6.5333	103.766500	0.000568	5.675756	0.961499	-0.000114
 678	6.7362e+01	6.5123	103.726129	0.000203	2.027056	0.343393	-0.000041
 679	6.7461e+01	6.4928	103.621163	0.000527	5.270345	0.892821	-0.000105
 680	6.7561e+01	6.4727	103.588866	0.000162	1.621645	0.274714	-0.000032
 681	6.7660e+01	6.4526	103.463715	0.000628	6.283873	1.064517	-0.000126
 682	6.7760e+01	6.4330	103.395083	0.000345	3.445995	0.583767	-0.000069
 683	6.7859e+01	6.4124	103.306266	0.000446	4.459523	0.755464	-0.000089
 684	6.7959e+01	6.3921	103.229561	0.000385	3.851406	0.652446	-0.000077
 685	6.8058e+01	6.3734	103.100372	0.000649	6.486579	1.098856	-0.000130
 686	6.8157e+01	6.3522	103.047890	0.000264	2.635173	0.446410	-0.000053
 687	6.8257e+01	6.3334	102.955036	0.000466	4.662228	0.789803	-0.000093
 688	6.8356e+01	6.3137	102.910627	0.000223	2.229761	0.377732	-0.000045
 689	6.8456e+01	6.2947	102.797587	0.000568	5.675756	0.961499	-0.000114
 690	6.8555e+01	6.2744	102.692622	0.000527	5.270345	0.892821	-0.000105
 691	6.8655e+01	6.2534	102.607842	0.000426	4.256817	0.721124	-0.000085
 692	6.8754e+01	6.2350	102.563433	0.000223	2.229761	0.377732	-0.000045
 693	6.8854e+01	6.2145	102.430208	0.000669	6.689284	1.133195	-0.000134
 694	6.8954e+01	6.1944	102.357540	0.000365	3.648701	0.618107	-0.000073
 695	6.9053e+01	6.1745	102.232388	0.000628	6.283873	1.064517	-0.000126
 696	6.9153e+01	6.1545	102.208165	0.000122	1.216234	0.206036	-0.000024
 697	6.9252e+01	6.1355	102.103200	0.000527	5.270345	0.892821	-0.000105
 698	6.9352e+01	6.1140	102.010346	0.000466	4.662228	0.789803	-0.000093
 699	6.9451e+01	6.0949	101.941715	0.000345	3.445995	0.583767	-0.000069
 700	6.9550e+01	6.0748	101.836749	0.000527	5.270345	0.892821	-0.000105
 701	6.9650e+01	6.0538	101.772155	0.000324	3.243289	0.549428	-0.000065
 702	6.9749e+01	6.0354	101.679301	0.000466	4.662228	0.789803	-0.000093
 703	6.9849e+01	6.0153	101.554149	0.000628	6.283873	1.064517	-0.000126
 704	6.9948e+01	5.9951	101.505704	0.000243	2.432467	0.412071	-0.000049
 705	7.0048e+01	5.9765	101.396701	0.000547	5.473051	0.927160	-0.000110
 706	7.0147e+01	5.9553	101.340181	0.000284	2.837878	0.480750	-0.000057
 707	7.0247e+01	5.9357	101.239253	0.000507	5.067640	0.858481	-0.000101
 708	7.0347e+01	5.9162	101.106027	0.000669	6.689284	1.133195	-0.000134
 709	7.0446e+01	5.8959	101.053545	0.000264	2.635173	0.446410	-0.000053
 710	7.0546e+01	5.8755	100.960691	0.000466	4.662228	0.789803	-0.000093
 711	7.0645e+01	5.8562	100.843614	0.000588	5.878462	0.995838	-0.000118
 712	7.0745e+01	5.8366	100.795168	0.000243	2.432467	0.412071	-0.000049
 713	7.0844e+01	5.8155	100.670017	0.000628	6.283873	1.064517	-0.000126
 714	7.0944e+01	5.7949	100.597348	0.000365	3.648701	0.618107	-0.000073
 715	7.1043e+01	5.7761	100.488346	0.000547	5.473051	0.927160	-0.000110
 716	7.1142e+01	5.7549	100.419714	0.000345	3.445995	0.583767	-0.000069
 717	7.1242e+01	5.7365	100.314749	0.000527	5.270345	0.892821	-0.000105
 718	7.1341e+01	5.7166	100.246118	0.000345	3.445995	0.583767	-0.000069
 719	7.1441e+01	5.6966	100.169412	0.000385	3.851406	0.652446	-0.000077
 720	7.1540e+01	5.6764	100.028112	0.000709	7.094695	1.201874	-0.000142
 721	7.1640e+01	5.6568	99.983704	0.000223	2.229761	0.377732	-0.000045
 722	7.1740e+01	5.6365	99.830293	0.000770	7.702812	1.304892	-0.000154
 723	7.1839e+01	5.6164	99.765698	0.000324	3.243289	0.549428	-0.000065
 724	7.1939e+01	5.5975	99.648621	0.000588	5.878462	0.995838	-0.000118
 725	7.2038e+01	5.5775	99.567879	0.000405	4.054112	0.686785	-0.000081
 726	7.2138e+01	5.5575	99.491173	0.000385	3.851406	0.652446	-0.000077
 727	7.2237e+01	5.5369	99.402356	0.000446	4.459523	0.755464	-0.000089
 728	7.2337e+01	5.5166	99.289316	0.000568	5.675756	0.961499	-0.000114
 729	7.2436e+01	5.4974	99.184351	0.000527	5.270345	0.892821	-0.000105
 730	7.2535e+01	5.4769	99.107645	0.000385	3.851406	0.652446	-0.000077
 731	7.2635e+01	5.4568	99.022865	0.000426	4.256817	0.721124	-0.000085
 732	7.2734e+01	5.4367	98.938086	0.000426	4.256817	0.721124	-0.000085
 733	7.2834e+01	5.4169	98.861380	0.000385	3.851406	0.652446	-0.000077
 734	7.2933e+01	5.3980	98.728154	0.000669	6.689284	1.133195	-0.000134
 735	7.3033e+01	5.3773	98.623189	0.000527	5.270345	0.892821	-0.000105
 736	7.3132e+01	5.3574	98.530335	0.000466	4.662228	0.789803	-0.000093
 737	7.3232e+01	5.3379	98.449592	0.000405	4.054112	0.686785	-0.000081
 738	7.3332e+01	5.3181	98.352701	0.000486	4.864934	0.824142	-0.000097
 739	7.3431e+01	5.2981	98.292144	0.000304	3.040584	0.515089	-0.000061
 740	7.3531e+01	5.2785	98.183141	0.000547	5.473051	0.927160	-0.000110
 741	7.3630e+01	5.2588	98.057990	0.000628	6.283873	1.064517	-0.000126
 742	7.3730e+01	5.2374	97.977247	0.000405	4.054112	0.686785	-0.000081
 743	7.3829e+01	5.2181	97.884393	0.000466	4.662228	0.789803	-0.000093
 744	7.3928e+01	5.1981	97.823836	0.000304	3.040584	0.515089	-0.000061
 745	7.4028e+01	5.1788	97.666388	0.000791	7.905518	1.339231	-0.000158
 746	7.4127e+01	5.1576	97.569497	0.000486	4.864934	0.824142	-0.000097
 747	7.4227e+01	5.1381	97.492791	0.000385	3.851406	0.652446	-0.000077
 748	7.4326e+01	5.1185	97.395900	0.000486	4.864934	0.824142	-0.000097
 749	7.4426e+01	5.0993	97.294971	0.000507	5.067640	0.858481	-0.000101
 750	7.4525e+01	5.0793	97.218266	0.000385	3.851406	0.652446	-0.000077
 751	7.4625e+01	5.0591	97.097152	0.000608	6.081168	1.030178	-0.000122
 752	7.4725e+01	5.0391	96.980075	0.000588	5.878462	0.995838	-0.000118
 753	7.4824e+01	5.0202	96.903369	0.000385	3.851406	0.652446	-0.000077
 754	7.4924e+01	5.0001	96.818589	0.000426	4.256817	0.721124	-0.000085
 755	7.5023e+01	4.9799	96.677290	0.000709	7.094695	1.201874	-0.000142
 756	7.5123e+01	4.9604	96.600584	0.000385	3.851406	0.652446	-0.000077
 757	7.5222e+01	4.9400	96.519841	0.000405	4.054112	0.686785	-0.000081
 758	7.5322e+01	4.9199	96.422950	0.000486	4.864934	0.824142	-0.000097
 759	7.5421e+01	4.8992	96.301836	0.000608	6.081168	1.030178	-0.000122
 760	7.5520e+01	4.8795	96.233205	0.000345	3.445995	0.583767	-0.000069
 761	7.5620e+01	4.8595	96.099979	0.000669	6.689284	1.133195	-0.000134
 762	7.5719e+01	4.8391	96.011162	0.000446	4.459523	0.755464	-0.000089
 763	7.5819e+01	4.8195	95.869862	0.000709	7.094695	1.201874	-0.000142
 764	7.5918e+01	4.7996	95.809305	0.000304	3.040584	0.515089	-0.000061
 765	7.6018e+01	4.7803	95.716451	0.000466	4.662228	0.789803	-0.000093
 766	7.6118e+01	4.7611	95.623597	0.000466	4.662228	0.789803	-0.000093
 767	7.6217e+01	4.7402	95.546892	0.000385	3.851406	0.652446	-0.000077
 768	7.6317e+01	4.7210	95.417703	0.000649	6.486579	1.098856	-0.000130
 769	7.6416e+01	4.7009	95.312738	0.000527	5.270345	0.892821	-0.000105
 770	7.6516e+01	4.6803	95.199698	0.000568	5.675756	0.961499	-0.000114
 771	7.6615e+01	4.6606	95.118955	0.000405	4.054112	0.686785	-0.000081
 772	7.6715e+01	4.6412	95.030138	0.000446	4.459523	0.755464	-0.000089
 773	7.6814e+01	4.6206	94.872690	0.000791	7.905518	1.339231	-0.000158
 774	7.6913e+01	4.6008	94.783873	0.000446	4.459523	0.755464	-0.000089
 775	7.7013e+01	4.5809	94.723316	0.000304	3.040584	0.515089	-0.000061
 776	7.7112e+01	4.5605	94.650647	0.000365	3.648701	0.618107	-0.000073
 777	7.7212e+01	4.5411	94.505310	0.000730	7.297401	1.236213	-0.000146
 778	7.7311e+01	4.5211	94.376122	0.000649	6.486579	1.098856	-0.000130
 779	7.7411e+01	4.5004	94.299417	0.000385	3.851406	0.652446	-0.000077
 780	7.7510e+01	4.4813	94.186377	0.000568	5.675756	0.961499	-0.000114
 781	7.7610e+01	4.4616	94.069300	0.000588	5.878462	0.995838	-0.000118
 782	7.7710e+01	4.4410	93.964334	0.000527	5.270345	0.892821	-0.000105
 783	7.7809e+01	4.4215	93.867443	0.000486	4.864934	0.824142	-0.000097
 784	7.7909e+01	4.4012	93.778626	0.000446	4.459523	0.755464	-0.000089
 785	7.8008e+01	4.3818	93.665586	0.000568	5.675756	0.961499	-0.000114
 786	7.8108e+01	4.3621	93.552546	0.000568	5.675756	0.961499	-0.000114
 787	7.8207e+01	4.3426	93.467767	0.000426	4.256817	0.721124	-0.000085
 788	7.8306e+01	4.3218	93.358764	0.000547	5.473051	0.927160	-0.000110
 789	7.8406e+01	4.3030	93.269947	0.000446	4.459523	0.755464	-0.000089
 790	7.8505e+01	4.2822	93.164981	0.000527	5.270345	0.892821	-0.000105
 791	7.8605e+01	4.2620	93.027719	0.000689	6.891990	1.167535	-0.000138
 792	7.8704e+01	4.2425	92.946976	0.000405	4.054112	0.686785	-0.000081
 793	7.8804e+01	4.2220	92.858159	0.000446	4.459523	0.755464	-0.000089
 794	7.8903e+01	4.2023	92.749156	0.000547	5.473051	0.927160	-0.000110
 795	7.9003e+01	4.1828	92.611894	0.000689	6.891990	1.167535	-0.000138
 796	7.9103e+01	4.1615	92.519040	0.000466	4.662228	0.789803	-0.000093
 797	7.9202e+01	4.1427	92.377740	0.000709	7.094695	1.201874	-0.000142
 798	7.9302e+01	4.1235	92.313146	0.000324	3.243289	0.549428	-0.000065
 799	7.9401e+01	4.1030	92.192032	0.000608	6.081168	1.030178	-0.000122
 800	7.9501e+01	4.0824	92.066881	0.000628	6.283873	1.064517	-0.000126
 801	7.9600e+01	4.0629	91.978064	0.000446	4.459523	0.755464	-0.000089
 802	7.9700e+01	4.0448	91.856949	0.000608	6.081168	1.030178	-0.000122
 803	7.9799e+01	4.0231	91.743910	0.000568	5.675756	0.961499	-0.000114
 804	7.9898e+01	4.0030	91.647018	0.000486	4.864934	0.824142	-0.000097
 805	7.9998e+01	3.9840	91.578387	0.000345	3.445995	0.583767	-0.000069
 806	8.0097e+01	3.9639	91.441124	0.000689	6.891990	1.167535	-0.000138
 807	8.0197e+01	3.9431	91.340196	0.000507	5.067640	0.858481	-0.000101
 808	8.0296e+01	3.9234	91.206971	0.000669	6.689284	1.133195	-0.000134
 809	8.0396e+01	3.9043	91.110079	0.000486	4.864934	0.824142	-0.000097
 810	8.0496e+01	3.8841	91.021262	0.000446	4.459523	0.755464	-0.000089
 811	8.0595e+01	3.8641	90.920334	0.000507	5.067640	0.858481	-0.000101
 812	8.0695e+01	3.8445	90.754811	0.000831	8.310929	1.407909	-0.000166
 813	8.0794e+01	3.8237	90.706366	0.000243	2.432467	0.412071	-0.000049
 814	8.0894e+01	3.8035	90.540843	0.000831	8.310929	1.407909	-0.000166
 815	8.0993e+01	3.7832	90.484323	0.000284	2.837878	0.480750	-0.000057
 816	8.1093e+01	3.7638	90.359172	0.000628	6.283873	1.064517	-0.000126
 817	8.1192e+01	3.7450	90.229984	0.000649	6.486579	1.098856	-0.000130
 818	8.1291e+01	3.7254	90.096758	0.000669	6.689284	1.133195	-0.000134
 819	8.1391e+01	3.7042	90.007941	0.000446	4.459523	0.755464	-0.000089
 820	8.1490e+01	3.6848	89.927199	0.000405	4.054112	0.686785	-0.000081
 821	8.1590e+01	3.6652	89.818196	0.000547	5.473051	0.927160	-0.000110
 822	8.1689e+01	3.6446	89.697082	0.000608	6.081168	1.030178	-0.000122
 823	8.1789e+01	3.6251	89.584042	0.000568	5.675756	0.961499	-0.000114
 824	8.1888e+01	3.6047	89.475039	0.000547	5.473051	0.927160	-0.000110
 825	8.1988e+01	3.5849	89.341814	0.000669	6.689284	1.133195	-0.000134
 826	8.2088e+01	3.5645	89.228774	0.000568	5.675756	0.961499	-0.000114
 827	8.2187e+01	3.5453	89.127846	0.000507	5.067640	0.858481	-0.000101
 828	8.2287e+01	3.5259	89.014806	0.000568	5.675756	0.961499	-0.000114
 829	8.2386e+01	3.5050	88.905803	0.000547	5.473051	0.927160	-0.000110
 830	8.2486e+01	3.4844	88.833135	0.000365	3.648701	0.618107	-0.000073
 831	8.2585e+01	3.4662	88.651464	0.000912	9.121751	1.545266	-0.000183
 832	8.2684e+01	3.4457	88.550535	0.000507	5.067640	0.858481	-0.000101
 833	8.2784e+01	3.4252	88.437495	0.000568	5.675756	0.961499	-0.000114
 834	8.2883e+01	3.4058	88.344641	0.000466	4.662228	0.789803	-0.000093
 835	8.2983e+01	3.3862	88.211416	0.000669	6.689284	1.133195	-0.000134
 836	8.3082e+01	3.3668	88.102413	0.000547	5.473051	0.927160	-0.000110
 837	8.3182e+01	3.3466	88.025708	0.000385	3.851406	0.652446	-0.000077
 838	8.3281e+01	3.3257	87.928816	0.000486	4.864934	0.824142	-0.000097
 839	8.3381e+01	3.3063	87.791554	0.000689	6.891990	1.167535	-0.000138
 840	8.3481e+01	3.2857	87.674477	0.000588	5.878462	0.995838	-0.000118
 841	8.3580e+01	3.2653	87.533177	0.000709	7.094695	1.201874	-0.000142
 842	8.3680e+01	3.2453	87.440323	0.000466	4.662228	0.789803	-0.000093
 843	8.3779e+01	3.2269	87.319209	0.000608	6.081168	1.030178	-0.000122
 844	8.3879e+01	3.2055	87.210206	0.000547	5.473051	0.927160	-0.000110
 845	8.3978e+01	3.1857	87.081018	0.000649	6.486579	1.098856	-0.000130
 846	8.4078e+01	3.1670	86.988164	0.000466	4.662228	0.789803	-0.000093
 847	8.4177e+01	3.1475	86.879161	0.000547	5.473051	0.927160	-0.000110
 848	8.4276e+01	3.1264	86.721713	0.000791	7.905518	1.339231	-0.000158
 849	8.4376e+01	3.1067	86.612710	0.000547	5.473051	0.927160	-0.000110
 850	8.4475e+01	3.0859	86.515819	0.000486	4.864934	0.824142	-0.000097
 851	8.4575e+01	3.0669	86.382593	0.000669	6.689284	1.133195	-0.000134
 852	8.4674e+01	3.0465	86.277628	0.000527	5.270345	0.892821	-0.000105
 853	8.4774e+01	3.0272	86.200922	0.000385	3.851406	0.652446	-0.000077
 854	8.4874e+01	3.0071	86.051548	0.000750	7.500107	1.270552	-0.000150
 855	8.4973e+01	2.9870	85.966768	0.000426	4.256817	0.721124	-0.000085
 856	8.5073e+01	2.9677	85.785097	0.000912	9.121751	1.545266	-0.000183
 857	8.5172e+01	2.9473	85.708392	0.000385	3.851406	0.652446	-0.000077
 858	8.5272e+01	2.9272	85.603426	0.000527	5.270345	0.892821	-0.000105
 859	8.5371e+01	2.9076	85.462126	0.000709	7.094695	1.201874	-0.000142
 860	8.5471e+01	2.8876	85.353124	0.000547	5.473051	0.927160	-0.000110
 861	8.5570e+01	2.8680	85.232010	0.000608	6.081168	1.030178	-0.000122
 862	8.5669e+01	2.8483	85.106858	0.000628	6.283873	1.064517	-0.000126
 863	8.5769e+01	2.8288	85.022079	0.000426	4.256817	0.721124	-0.000085
 864	8.5868e+01	2.8080	84.917113	0.000527	5.270345	0.892821	-0.000105
 865	8.5968e+01	2.7878	84.800036	0.000588	5.878462	0.995838	-0.000118
 866	8.6067e+01	2.7689	84.654699	0.000730	7.297401	1.236213	-0.000146
 867	8.6167e+01	2.7479	84.521474	0.000669	6.689284	1.133195	-0.000134
 868	8.6266e+01	2.7291	84.396323	0.000628	6.283873	1.064517	-0.000126
 869	8.6366e+01	2.7089	84.319617	0.000385	3.851406	0.652446	-0.000077
 870	8.6466e+01	2.6888	84.198503	0.000608	6.081168	1.030178	-0.000122
 871	8.6565e+01	2.6685	84.041055	0.000791	7.905518	1.339231	-0.000158
 872	8.6665e+01	2.6488	83.940126	0.000507	5.067640	0.858481	-0.000101
 873	8.6764e+01	2.6289	83.810938	0.000649	6.486579	1.098856	-0.000130
 874	8.6864e+01	2.6076	83.730195	0.000405	4.054112	0.686785	-0.000081
 875	8.6963e+01	2.5893	83.617155	0.000568	5.675756	0.961499	-0.000114
 876	8.7063e+01	2.5682	83.496041	0.000608	6.081168	1.030178	-0.000122
 877	8.7162e+01	2.5488	83.358779	0.000689	6.891990	1.167535	-0.000138
 878	8.7261e+01	2.5291	83.221516	0.000689	6.891990	1.167535	-0.000138
 879	8.7361e+01	2.5094	83.136736	0.000426	4.256817	0.721124	-0.000085
 880	8.7460e+01	2.4889	82.991399	0.000730	7.297401	1.236213	-0.000146
 881	8.7560e+01	2.4697	82.918731	0.000365	3.648701	0.618107	-0.000073
 882	8.7659e+01	2.4490	82.749171	0.000851	8.513635	1.442249	-0.000170
 883	8.7759e+01	2.4291	82.676503	0.000365	3.648701	0.618107	-0.000073
 884	8.7859e+01	2.4094	82.551352	0.000628	6.283873	1.064517	-0.000126
 885	8.7958e+01	2.3894	82.414089	0.000689	6.891990	1.167535	-0.000138
 886	8.8058e+01	2.3695	82.276826	0.000689	6.891990	1.167535	-0.000138
 887	8.8157e+01	2.3505	82.159749	0.000588	5.878462	0.995838	-0.000118
 888	8.8257e+01	2.3290	82.046710	0.000568	5.675756	0.961499	-0.000114
 889	8.8356e+01	2.3098	81.913484	0.000669	6.689284	1.133195	-0.000134
 890	8.8456e+01	2.2890	81.808519	0.000527	5.270345	0.892821	-0.000105
 891	8.8555e+01	2.2695	81.683367	0.000628	6.283873	1.064517	-0.000126
 892	8.8654e+01	2.2508	81.586476	0.000486	4.864934	0.824142	-0.000097
 893	8.8754e+01	2.2292	81.416916	0.000851	8.513635	1.442249	-0.000170
 894	8.8853e+01	2.2104	81.340211	0.000385	3.851406	0.652446	-0.000077
 895	8.8953e+01	2.1905	81.194874	0.000730	7.297401	1.236213	-0.000146
 896	8.9052e+01	2.1703	81.085871	0.000547	5.473051	0.927160	-0.000110
 897	8.9152e+01	2.1505	80.968794	0.000588	5.878462	0.995838	-0.000118
 898	8.9251e+01	2.1302	80.871903	0.000486	4.864934	0.824142	-0.000097
 899	8.9351e+01	2.1107	80.742715	0.000649	6.486579	1.098856	-0.000130
 900	8.9451e+01	2.0904	80.601415	0.000709	7.094695	1.201874	-0.000142
 901	8.9550e+01	2.0706	80.488375	0.000568	5.675756	0.961499	-0.000114
 902	8.9650e+01	2.0493	80.363224	0.000628	6.283873	1.064517	-0.000126
 903	8.9749e+01	2.0311	80.185590	0.000892	8.919046	1.510927	-0.000179
 904	8.9849e+01	2.0106	80.092736	0.000466	4.662228	0.789803	-0.000093
 905	8.9948e+01	1.9906	80.016030	0.000385	3.851406	0.652446	-0.000077
 906	9.0047e+01	1.9714	79.862619	0.000770	7.702812	1.304892	-0.000154
 907	9.0147e+01	1.9517	79.757654	0.000527	5.270345	0.892821	-0.000105
 908	9.0246e+01	1.9305	79.592131	0.000831	8.310929	1.407909	-0.000166
 909	9.0346e+01	1.9114	79.495240	0.000486	4.864934	0.824142	-0.000097
 910	9.0445e+01	1.8899	79.362014	0.000669	6.689284	1.133195	-0.000134
 911	9.0545e+01	1.8723	79.257049	0.000527	5.270345	0.892821	-0.000105
 912	9.0644e+01	1.8517	79.131898	0.000628	6.283873	1.064517	-0.000126
 913	9.0744e+01	1.8317	78.958301	0.000872	8.716340	1.476588	-0.000174
 914	9.0844e+01	1.8123	78.889669	0.000345	3.445995	0.583767	-0.000069
 915	9.0943e+01	1.7919	78.748370	0.000709	7.094695	1.201874	-0.000142
 916	9.1043e+01	1.7722	78.607070	0.000709	7.094695	1.201874	-0.000142
 917	9.1142e+01	1.7522	78.506142	0.000507	5.067640	0.858481	-0.000101
 918	9.1242e+01	1.7318	78.368879	0.000689	6.891990	1.167535	-0.000138
 919	9.1341e+01	1.7125	78.280062	0.000446	4.459523	0.755464	-0.000089
 920	9.1441e+01	1.6930	78.114539	0.000831	8.310929	1.407909	-0.000166
 921	9.1540e+01	1.6730	78.017648	0.000486	4.864934	0.824142	-0.000097
 922	9.1639e+01	1.6521	77.868274	0.000750	7.500107	1.270552	-0.000150
 923	9.1739e+01	1.6323	77.735049	0.000669	6.689284	1.133195	-0.000134
 924	9.1838e+01	1.6122	77.646232	0.000446	4.459523	0.755464	-0.000089
 925	9.1938e+01	1.5929	77.488783	0.000791	7.905518	1.339231	-0.000158
 926	9.2037e+01	1.5735	77.375744	0.000568	5.675756	0.961499	-0.000114
 927	9.2137e+01	1.5504	77.258667	0.000588	5.878462	0.995838	-0.000118
 928	9.2237e+01	1.5321	77.113330	0.000730	7.297401	1.236213	-0.000146
 929	9.2336e+01	1.5134	76.988179	0.000628	6.283873	1.064517	-0.000126
 930	9.2436e+01	1.4918	76.875139	0.000568	5.675756	0.961499	-0.000114
 931	9.2535e+01	1.4736	76.741913	0.000669	6.689284	1.133195	-0.000134
 932	9.2635e+01	1.4524	76.616762	0.000628	6.283873	1.064517	-0.000126
 933	9.2734e+01	1.4333	76.499685	0.000588	5.878462	0.995838	-0.000118
 934	9.2834e+01	1.4127	76.386645	0.000568	5.675756	0.961499	-0.000114
 935	9.2933e+01	1.3934	76.233234	0.000770	7.702812	1.304892	-0.000154
 936	9.3032e+01	1.3729	76.120194	0.000568	5.675756	0.961499	-0.000114
 937	9.3132e+01	1.3540	75.995043	0.000628	6.283873	1.064517	-0.000126
 938	9.3231e+01	1.3330	75.869892	0.000628	6.283873	1.064517	-0.000126
 939	9.3331e+01	1.3141	75.777038	0.000466	4.662228	0.789803	-0.000093
 940	9.3430e+01	1.2936	75.623627	0.000770	7.702812	1.304892	-0.000154
 941	9.3530e+01	1.2734	75.506550	0.000588	5.878462	0.995838	-0.000118
 942	9.3629e+01	1.2540	75.373324	0.000669	6.689284	1.133195	-0.000134
 943	9.3729e+01	1.2335	75.252210	0.000608	6.081168	1.030178	-0.000122
 944	9.3829e+01	1.2145	75.135133	0.000588	5.878462	0.995838	-0.000118
 945	9.3928e+01	1.1947	74.993833	0.000709	7.094695	1.201874	-0.000142
 946	9.4028e+01	1.1744	74.884831	0.000547	5.473051	0.927160	-0.000110
 947	9.4127e+01	1.1545	74.767754	0.000588	5.878462	0.995838	-0.000118
 948	9.4227e+01	1.1351	74.586083	0.000912	9.121751	1.545266	-0.000183
 949	9.4326e+01	1.1157	74.469006	0.000588	5.878462	0.995838	-0.000118
 950	9.4425e+01	1.0949	74.355966	0.000568	5.675756	0.961499	-0.000114
 951	9.4525e+01	1.0751	74.230815	0.000628	6.283873	1.064517	-0.000126
 952	9.4624e+01	1.0551	74.093552	0.000689	6.891990	1.167535	-0.000138
 953	9.4724e+01	1.0349	73.972438	0.000608	6.081168	1.030178	-0.000122
 954	9.4823e+01	1.0149	73.879584	0.000466	4.662228	0.789803	-0.000093
 955	9.4923e+01	0.9951	73.726173	0.000770	7.702812	1.304892	-0.000154
 956	9.5022e+01	0.9754	73.568725	0.000791	7.905518	1.339231	-0.000158
 957	9.5122e+01	0.9560	73.471833	0.000486	4.864934	0.824142	-0.000097
 958	9.5222e+01	0.9361	73.342645	0.000649	6.486579	1.098856	-0.000130
 959	9.5321e+01	0.9156	73.173085	0.000851	8.513635	1.442249	-0.000170
 960	9.5421e+01	0.8951	73.096380	0.000385	3.851406	0.652446	-0.000077
 961	9.5520e+01	0.8755	72.963154	0.000669	6.689284	1.133195	-0.000134
 962	9.5620e+01	0.8562	72.793594	0.000851	8.513635	1.442249	-0.000170
 963	9.5719e+01	0.8360	72.688629	0.000527	5.270345	0.892821	-0.000105
 964	9.5819e+01	0.8152	72.559441	0.000649	6.486579	1.098856	-0.000130
 965	9.5918e+01	0.7931	72.450438	0.000547	5.473051	0.927160	-0.000110
 966	9.6017e+01	0.7761	72.313175	0.000689	6.891990	1.167535	-0.000138
 967	9.6117e+01	0.7565	72.151690	0.000811	8.108223	1.373570	-0.000162
 968	9.6216e+01	0.7359	72.038650	0.000568	5.675756	0.961499	-0.000114
 969	9.6316e+01	0.7153	71.873128	0.000831	8.310929	1.407909	-0.000166
 970	9.6415e+01	0.6969	71.792385	0.000405	4.054112	0.686785	-0.000081
 971	9.6515e+01	0.6770	71.667234	0.000628	6.283873	1.064517	-0.000126
 972	9.6615e+01	0.6566	71.517860	0.000750	7.500107	1.270552	-0.000150
 973	9.6714e+01	0.6377	71.376560	0.000709	7.094695	1.201874	-0.000142
 974	9.6814e+01	0.6161	71.283706	0.000466	4.662228	0.789803	-0.000093
 975	9.6913e+01	0.5970	71.142406	0.000709	7.094695	1.201874	-0.000142
 976	9.7013e+01	0.5771	70.988995	0.000770	7.702812	1.304892	-0.000154
 977	9.7112e+01	0.5567	70.896141	0.000466	4.662228	0.789803	-0.000093
 978	9.7212e+01	0.5379	70.746767	0.000750	7.500107	1.270552	-0.000150
 979	9.7311e+01	0.5166	70.625653	0.000608	6.081168	1.030178	-0.000122
 980	9.7410e+01	0.4979	70.488390	0.000689	6.891990	1.167535	-0.000138
 981	9.7510e+01	0.4765	70.363239	0.000628	6.283873	1.064517	-0.000126
 982	9.7609e+01	0.4569	70.209828	0.000770	7.702812	1.304892	-0.000154
 983	9.7709e+01	0.4375	70.125048	0.000426	4.256817	0.721124	-0.000085
 984	9.7808e+01	0.4176	69.955488	0.000851	8.513635	1.442249	-0.000170
 985	9.7908e+01	0.3976	69.826300	0.000649	6.486579	1.098856	-0.000130
 986	9.8007e+01	0.3777	69.697111	0.000649	6.486579	1.098856	-0.000130
 987	9.8107e+01	0.3585	69.555812	0.000709	7.094695	1.201874	-0.000142
 988	9.8207e+01	0.3378	69.471032	0.000426	4.256817	0.721124	-0.000085
 989	9.8306e+01	0.3180	69.337806	0.000669	6.689284	1.133195	-0.000134
 990	9.8406e+01	0.2974	69.160172	0.000892	8.919046	1.510927	-0.000179
 991	9.8505e+01	0.2787	69.075392	0.000426	4.256817	0.721124	-0.000085
 992	9.8605e+01	0.2574	68.909870	0.000831	8.310929	1.407909	-0.000166
 993	9.8704e+01	0.2381	68.764533	0.000730	7.297401	1.236213	-0.000146
 994	9.8803e+01	0.2176	68.639382	0.000628	6.283873	1.064517	-0.000126
 995	9.8903e+01	0.1984	68.494045	0.000730	7.297401	1.236213	-0.000146
 996	9.9002e+01	0.1785	68.389079	0.000527	5.270345	0.892821	-0.000105
 997	9.9102e+01	0.1579	68.276040	0.000568	5.675756	0.961499	-0.000114
 998	9.9201e+01	0.1389	68.114554	0.000811	8.108223	1.373570	-0.000162
 999	9.9301e+01	0.1180	68.009589	0.000527	5.270345	0.892821	-0.000105
1000	9.9400e+01	0.0992	67.864252	0.000730	7.297401	1.236213	-0.000146
1001	9.9500e+01	0.0784	67.747175	0.000588	5.878462	0.995838	-0.000118
1002	9.9600e+01	0.0586	67.565504	0.000912	9.121751	1.545266	-0.000183
1003	9.9699e+01	0.0400	67.492835	0.000365	3.648701	0.618107	-0.000073
1004	9.9799e+01	0.0194	67.339424	0.000770	7.702812	1.304892	-0.000154
1005	9.9898e+01	-0.0007	67.214273	0.000628	6.283873	1.064517	-0.000126
1006	9.9998e+01	-0.0194	67.052787	0.000811	8.108223	1.373570	-0.000162
1007	1.0010e+02	-0.0400	66.927636	0.000628	6.283873	1.064517	-0.000126
1008	1.0020e+02	-0.0585	66.802485	0.000628	6.283873	1.064517	-0.000126
1009	1.0030e+02	-0.0787	66.717705	0.000426	4.256817	0.721124	-0.000085
1010	1.0040e+02	-0.0990	66.536034	0.000912	9.121751	1.545266	-0.000183
1011	1.0050e+02	-0.1192	66.390697	0.000730	7.297401	1.236213	-0.000146
1012	1.0059e+02	-0.1384	66.281695	0.000547	5.473051	0.927160	-0.000110
1013	1.0069e+02	-0.1585	66.148469	0.000669	6.689284	1.133195	-0.000134
1014	1.0079e+02	-0.1797	66.039466	0.000547	5.473051	0.927160	-0.000110
1015	1.0089e+02	-0.1982	65.910278	0.000649	6.486579	1.098856	-0.000130
1016	1.0099e+02	-0.2190	65.748793	0.000811	8.108223	1.373570	-0.000162
1017	1.0109e+02	-0.2388	65.631716	0.000588	5.878462	0.995838	-0.000118
1018	1.0119e+02	-0.2580	65.441970	0.000953	9.527162	1.613945	-0.000191
1019	1.0129e+02	-0.2777	65.353153	0.000446	4.459523	0.755464	-0.000089
1020	1.0139e+02	-0.2985	65.195705	0.000791	7.905518	1.339231	-0.000158
1021	1.0149e+02	-0.3184	65.066517	0.000649	6.486579	1.098856	-0.000130
1022	1.0159e+02	-0.3385	64.973663	0.000466	4.662228	0.789803	-0.000093
1023	1.0169e+02	-0.3577	64.840437	0.000669	6.689284	1.133195	-0.000134
1024	1.0179e+02	-0.3779	64.658766	0.000912	9.121751	1.545266	-0.000183
1025	1.0189e+02	-0.3966	64.553800	0.000527	5.270345	0.892821	-0.000105
1026	1.0199e+02	-0.4180	64.416538	0.000689	6.891990	1.167535	-0.000138
1027	1.0209e+02	-0.4381	64.351944	0.000324	3.243289	0.549428	-0.000065
1028	1.0219e+02	-0.4572	64.137975	0.001074	10.743396	1.819981	-0.000215
1029	1.0229e+02	-0.4776	64.016861	0.000608	6.081168	1.030178	-0.000122
1030	1.0239e+02	-0.4980	63.863450	0.000770	7.702812	1.304892	-0.000154
1031	1.0248e+02	-0.5181	63.738299	0.000628	6.283873	1.064517	-0.000126
1032	1.0258e+02	-0.5379	63.617185	0.000608	6.081168	1.030178	-0.000122
1033	1.0268e+02	-0.5570	63.483959	0.000669	6.689284	1.133195	-0.000134
1034	1.0278e+02	-0.5762	63.350734	0.000669	6.689284	1.133195	-0.000134
1035	1.0288e+02	-0.5968	63.189249	0.000811	8.108223	1.373570	-0.000162
1036	1.0298e+02	-0.6166	63.056023	0.000669	6.689284	1.133195	-0.000134
1037	1.0308e+02	-0.6374	62.942983	0.000568	5.675756	0.961499	-0.000114
1038	1.0318e+02	-0.6574	62.813795	0.000649	6.486579	1.098856	-0.000130
1039	1.0328e+02	-0.6770	62.668458	0.000730	7.297401	1.236213	-0.000146
1040	1.0338e+02	-0.6970	62.551381	0.000588	5.878462	0.995838	-0.000118
1041	1.0348e+02	-0.7175	62.385859	0.000831	8.310929	1.407909	-0.000166
1042	1.0358e+02	-0.7364	62.288967	0.000486	4.864934	0.824142	-0.000097
1043	1.0368e+02	-0.7565	62.119408	0.000851	8.513635	1.442249	-0.000170
1044	1.0378e+02	-0.7770	61.978108	0.000709	7.094695	1.201874	-0.000142
1045	1.0388e+02	-0.7968	61.873142	0.000527	5.270345	0.892821	-0.000105
1046	1.0398e+02	-0.8165	61.687434	0.000932	9.324457	1.579606	-0.000187
1047	1.0408e+02	-0.8362	61.586506	0.000507	5.067640	0.858481	-0.000101
1048	1.0418e+02	-0.8561	61.473466	0.000568	5.675756	0.961499	-0.000114
1049	1.0428e+02	-0.8754	61.340240	0.000669	6.689284	1.133195	-0.000134
1050	1.0438e+02	-0.8951	61.190866	0.000750	7.500107	1.270552	-0.000150
1051	1.0447e+02	-0.9171	61.005158	0.000932	9.324457	1.579606	-0.000187
1052	1.0457e+02	-0.9361	60.920378	0.000426	4.256817	0.721124	-0.000085
1053	1.0467e+02	-0.9557	60.750819	0.000851	8.513635	1.442249	-0.000170
1054	1.0477e+02	-0.9752	60.649890	0.000507	5.067640	0.858481	-0.000101
1055	1.0487e+02	-0.9957	60.516665	0.000669	6.689284	1.133195	-0.000134
1056	1.0497e+02	-1.0152	60.387476	0.000649	6.486579	1.098856	-0.000130
1057	1.0507e+02	-1.0351	60.238102	0.000750	7.500107	1.270552	-0.000150
1058	1.0517e+02	-1.0558	60.052394	0.000932	9.324457	1.579606	-0.000187
1059	1.0527e+02	-1.0754	59.919169	0.000669	6.689284	1.133195	-0.000134
1060	1.0537e+02	-1.0950	59.846500	0.000365	3.648701	0.618107	-0.000073
1061	1.0547e+02	-1.1150	59.660792	0.000932	9.324457	1.579606	-0.000187
1062	1.0557e+02	-1.1356	59.535641	0.000628	6.283873	1.064517	-0.000126
1063	1.0567e+02	-1.1557	59.414527	0.000608	6.081168	1.030178	-0.000122
1064	1.0577e+02	-1.1746	59.277264	0.000689	6.891990	1.167535	-0.000138
1065	1.0587e+02	-1.1948	59.176336	0.000507	5.067640	0.858481	-0.000101
1066	1.0597e+02	-1.2170	59.051184	0.000628	6.283873	1.064517	-0.000126
1067	1.0607e+02	-1.2342	58.865476	0.000932	9.324457	1.579606	-0.000187
1068	1.0617e+02	-1.2549	58.744362	0.000608	6.081168	1.030178	-0.000122
1069	1.0627e+02	-1.2745	58.599025	0.000730	7.297401	1.236213	-0.000146
1070	1.0637e+02	-1.2999	58.457725	0.000709	7.094695	1.201874	-0.000142
1071	1.0647e+02	-1.3139	58.304314	0.000770	7.702812	1.304892	-0.000154
1072	1.0656e+02	-1.3337	58.195312	0.000547	5.473051	0.927160	-0.000110
1073	1.0666e+02	-1.3535	58.054012	0.000709	7.094695	1.201874	-0.000142
1074	1.0676e+02	-1.3733	57.916749	0.000689	6.891990	1.167535	-0.000138
1075	1.0686e+02	-1.3934	57.799672	0.000588	5.878462	0.995838	-0.000118
1076	1.0696e+02	-1.4134	57.686633	0.000568	5.675756	0.961499	-0.000114
1077	1.0706e+02	-1.4336	57.537259	0.000750	7.500107	1.270552	-0.000150
1078	1.0716e+02	-1.4542	57.379810	0.000791	7.905518	1.339231	-0.000158
1079	1.0726e+02	-1.4734	57.226399	0.000770	7.702812	1.304892	-0.000154
1080	1.0736e+02	-1.4936	57.089136	0.000689	6.891990	1.167535	-0.000138
1081	1.0746e+02	-1.5131	56.976097	0.000568	5.675756	0.961499	-0.000114
1082	1.0756e+02	-1.5334	56.822686	0.000770	7.702812	1.304892	-0.000154
1083	1.0766e+02	-1.5530	56.673311	0.000750	7.500107	1.270552	-0.000150
1084	1.0776e+02	-1.5746	56.564309	0.000547	5.473051	0.927160	-0.000110
1085	1.0786e+02	-1.5936	56.418972	0.000730	7.297401	1.236213	-0.000146
1086	1.0796e+02	-1.6125	56.285746	0.000669	6.689284	1.133195	-0.000134
1087	1.0806e+02	-1.6325	56.132335	0.000770	7.702812	1.304892	-0.000154
1088	1.0816e+02	-1.6525	55.995073	0.000689	6.891990	1.167535	-0.000138
1089	1.0826e+02	-1.6730	55.853773	0.000709	7.094695	1.201874	-0.000142
1090	1.0836e+02	-1.6934	55.756882	0.000486	4.864934	0.824142	-0.000097
1091	1.0845e+02	-1.7132	55.603471	0.000770	7.702812	1.304892	-0.000154
1092	1.0855e+02	-1.7327	55.470245	0.000669	6.689284	1.133195	-0.000134
1093	1.0865e+02	-1.7516	55.328945	0.000709	7.094695	1.201874	-0.000142
1094	1.0875e+02	-1.7721	55.179571	0.000750	7.500107	1.270552	-0.000150
1095	1.0885e+02	-1.7915	55.066531	0.000568	5.675756	0.961499	-0.000114
1096	1.0895e+02	-1.8124	54.929269	0.000689	6.891990	1.167535	-0.000138
1097	1.0905e+02	-1.8318	54.783932	0.000730	7.297401	1.236213	-0.000146
1098	1.0915e+02	-1.8528	54.602261	0.000912	9.121751	1.545266	-0.000183
1099	1.0925e+02	-1.8735	54.481147	0.000608	6.081168	1.030178	-0.000122
1100	1.0935e+02	-1.8916	54.331773	0.000750	7.500107	1.270552	-0.000150
1101	1.0945e+02	-1.9117	54.251030	0.000405	4.054112	0.686785	-0.000081
1102	1.0955e+02	-1.9321	54.065322	0.000932	9.324457	1.579606	-0.000187
1103	1.0965e+02	-1.9516	53.944208	0.000608	6.081168	1.030178	-0.000122
1104	1.0975e+02	-1.9727	53.790797	0.000770	7.702812	1.304892	-0.000154
1105	1.0985e+02	-1.9907	53.661608	0.000649	6.486579	1.098856	-0.000130
1106	1.0995e+02	-2.0119	53.532420	0.000649	6.486579	1.098856	-0.000130
1107	1.1005e+02	-2.0321	53.395157	0.000689	6.891990	1.167535	-0.000138
1108	1.1015e+02	-2.0509	53.318452	0.000385	3.851406	0.652446	-0.000077
1109	1.1025e+02	-2.0708	53.088335	0.001155	11.554218	1.957338	-0.000231
1110	1.1035e+02	-2.0905	53.011629	0.000385	3.851406	0.652446	-0.000077
1111	1.1044e+02	-2.1113	52.870330	0.000709	7.094695	1.201874	-0.000142
1112	1.1054e+02	-2.1307	52.704807	0.000831	8.310929	1.407909	-0.000166
1113	1.1064e+02	-2.1497	52.543322	0.000811	8.108223	1.373570	-0.000162
1114	1.1074e+02	-2.1718	52.430282	0.000568	5.675756	0.961499	-0.000114
1115	1.1084e+02	-2.1912	52.284945	0.000730	7.297401	1.236213	-0.000146
1116	1.1094e+02	-2.2112	52.147682	0.000689	6.891990	1.167535	-0.000138
1117	1.1104e+02	-2.2308	52.006383	0.000709	7.094695	1.201874	-0.000142
1118	1.1114e+02	-2.2512	51.873157	0.000669	6.689284	1.133195	-0.000134
1119	1.1124e+02	-2.2711	51.760117	0.000568	5.675756	0.961499	-0.000114
1120	1.1134e+02	-2.2899	51.610743	0.000750	7.500107	1.270552	-0.000150
1121	1.1144e+02	-2.3095	51.481555	0.000649	6.486579	1.098856	-0.000130
1122	1.1154e+02	-2.3294	51.320070	0.000811	8.108223	1.373570	-0.000162
1123	1.1164e+02	-2.3499	51.219141	0.000507	5.067640	0.858481	-0.000101
1124	1.1174e+02	-2.3696	51.085916	0.000669	6.689284	1.133195	-0.000134
1125	1.1184e+02	-2.3894	50.920393	0.000831	8.310929	1.407909	-0.000166
1126	1.1194e+02	-2.4096	50.783130	0.000689	6.891990	1.167535	-0.000138
1127	1.1204e+02	-2.4301	50.662016	0.000608	6.081168	1.030178	-0.000122
1128	1.1214e+02	-2.4503	50.524754	0.000689	6.891990	1.167535	-0.000138
1129	1.1224e+02	-2.4694	50.403640	0.000608	6.081168	1.030178	-0.000122
1130	1.1234e+02	-2.4899	50.234080	0.000851	8.513635	1.442249	-0.000170
1131	1.1244e+02	-2.5098	50.112966	0.000608	6.081168	1.030178	-0.000122
1132	1.1253e+02	-2.5295	49.979740	0.000669	6.689284	1.133195	-0.000134
1133	1.1263e+02	-2.5491	49.862664	0.000588	5.878462	0.995838	-0.000118
1134	1.1273e+02	-2.5689	49.685030	0.000892	8.919046	1.510927	-0.000179
1135	1.1283e+02	-2.5891	49.563915	0.000608	6.081168	1.030178	-0.000122
1136	1.1293e+02	-2.6093	49.410504	0.000770	7.702812	1.304892	-0.000154
1137	1.1303e+02	-2.6282	49.253056	0.000791	7.905518	1.339231	-0.000158
1138	1.1313e+02	-2.6493	49.152128	0.000507	5.067640	0.858481	-0.000101
1139	1.1323e+02	-2.6686	48.990642	0.000811	8.108223	1.373570	-0.000162
1140	1.1333e+02	-2.6888	48.881640	0.000547	5.473051	0.927160	-0.000110
1141	1.1343e+02	-2.7078	48.720154	0.000811	8.108223	1.373570	-0.000162
1142	1.1353e+02	-2.7294	48.558669	0.000811	8.108223	1.373570	-0.000162
1143	1.1363e+02	-2.7480	48.445629	0.000568	5.675756	0.961499	-0.000114
1144	1.1373e+02	-2.7692	48.304329	0.000709	7.094695	1.201874	-0.000142
1145	1.1383e+02	-2.7879	48.203401	0.000507	5.067640	0.858481	-0.000101
1146	1.1393e+02	-2.8085	48.017692	0.000932	9.324457	1.579606	-0.000187
1147	1.1403e+02	-2.8275	47.912727	0.000527	5.270345	0.892821	-0.000105
1148	1.1413e+02	-2.8481	47.799687	0.000568	5.675756	0.961499	-0.000114
1149	1.1423e+02	-2.8677	47.638202	0.000811	8.108223	1.373570	-0.000162
1150	1.1433e+02	-2.8874	47.488828	0.000750	7.500107	1.270552	-0.000150
1151	1.1442e+02	-2.9073	47.383862	0.000527	5.270345	0.892821	-0.000105
1152	1.1452e+02	-2.9273	47.198154	0.000932	9.324457	1.579606	-0.000187
1153	1.1462e+02	-2.9469	47.068966	0.000649	6.486579	1.098856	-0.000130
1154	1.1472e+02	-2.9671	46.939777	0.000649	6.486579	1.098856	-0.000130
1155	1.1482e+02	-2.9861	46.794440	0.000730	7.297401	1.236213	-0.000146
1156	1.1492e+02	-3.0081	46.685438	0.000547	5.473051	0.927160	-0.000110
1157	1.1502e+02	-3.0270	46.544138	0.000709	7.094695	1.201874	-0.000142
1158	1.1512e+02	-3.0470	46.402838	0.000709	7.094695	1.201874	-0.000142
1159	1.1522e+02	-3.0678	46.265576	0.000689	6.891990	1.167535	-0.000138
1160	1.1532e+02	-3.0876	46.128313	0.000689	6.891990	1.167535	-0.000138
1161	1.1542e+02	-3.1071	45.974902	0.000770	7.702812	1.304892	-0.000154
1162	1.1552e+02	-3.1262	45.865899	0.000547	5.473051	0.927160	-0.000110
1163	1.1562e+02	-3.1467	45.748822	0.000588	5.878462	0.995838	-0.000118
1164	1.1572e+02	-3.1670	45.591374	0.000791	7.905518	1.339231	-0.000158
1165	1.1582e+02	-3.1857	45.442000	0.000750	7.500107	1.270552	-0.000150
1166	1.1592e+02	-3.2072	45.276477	0.000831	8.310929	1.407909	-0.000166
1167	1.1602e+02	-3.2272	45.179586	0.000486	4.864934	0.824142	-0.000097
1168	1.1612e+02	-3.2468	45.030212	0.000750	7.500107	1.270552	-0.000150
1169	1.1622e+02	-3.2661	44.872764	0.000791	7.905518	1.339231	-0.000158
1170	1.1632e+02	-3.2870	44.779910	0.000466	4.662228	0.789803	-0.000093
1171	1.1642e+02	-3.3065	44.634573	0.000730	7.297401	1.236213	-0.000146
1172	1.1651e+02	-3.3260	44.489236	0.000730	7.297401	1.236213	-0.000146
1173	1.1661e+02	-3.3460	44.396382	0.000466	4.662228	0.789803	-0.000093
1174	1.1671e+02	-3.3673	44.234896	0.000811	8.108223	1.373570	-0.000162
1175	1.1681e+02	-3.3863	44.109745	0.000628	6.283873	1.064517	-0.000126
1176	1.1691e+02	-3.4052	43.956334	0.000770	7.702812	1.304892	-0.000154
1177	1.1701e+02	-3.4258	43.831183	0.000628	6.283873	1.064517	-0.000126
1178	1.1711e+02	-3.4461	43.701994	0.000649	6.486579	1.098856	-0.000130
1179	1.1721e+02	-3.4659	43.540509	0.000811	8.108223	1.373570	-0.000162
1180	1.1731e+02	-3.4857	43.403246	0.000689	6.891990	1.167535	-0.000138
1181	1.1741e+02	-3.5045	43.257909	0.000730	7.297401	1.236213	-0.000146
1182	1.1751e+02	-3.5271	43.120647	0.000689	6.891990	1.167535	-0.000138
1183	1.1761e+02	-3.5452	42.999533	0.000608	6.081168	1.030178	-0.000122
1184	1.1771e+02	-3.5650	42.866307	0.000669	6.689284	1.133195	-0.000134
1185	1.1781e+02	-3.5851	42.753267	0.000568	5.675756	0.961499	-0.000114
1186	1.1791e+02	-3.6046	42.587745	0.000831	8.310929	1.407909	-0.000166
1187	1.1801e+02	-3.6260	42.478742	0.000547	5.473051	0.927160	-0.000110
1188	1.1811e+02	-3.6461	42.333405	0.000730	7.297401	1.236213	-0.000146
1189	1.1821e+02	-3.6651	42.212291	0.000608	6.081168	1.030178	-0.000122
1190	1.1831e+02	-3.6852	42.083103	0.000649	6.486579	1.098856	-0.000130
1191	1.1841e+02	-3.7044	41.929692	0.000770	7.702812	1.304892	-0.000154
1192	1.1850e+02	-3.7254	41.792429	0.000689	6.891990	1.167535	-0.000138
1193	1.1860e+02	-3.7450	41.634981	0.000791	7.905518	1.339231	-0.000158
1194	1.1870e+02	-3.7660	41.509830	0.000628	6.283873	1.064517	-0.000126
1195	1.1880e+02	-3.7844	41.400827	0.000547	5.473051	0.927160	-0.000110
1196	1.1890e+02	-3.8034	41.251453	0.000750	7.500107	1.270552	-0.000150
1197	1.1900e+02	-3.8239	41.122265	0.000649	6.486579	1.098856	-0.000130
1198	1.1910e+02	-3.8439	40.985002	0.000689	6.891990	1.167535	-0.000138
1199	1.1920e+02	-3.8635	40.839665	0.000730	7.297401	1.236213	-0.000146
1200	1.1930e+02	-3.8831	40.686254	0.000770	7.702812	1.304892	-0.000154
1201	1.1940e+02	-3.9037	40.565140	0.000608	6.081168	1.030178	-0.000122
1202	1.1950e+02	-3.9236	40.456137	0.000547	5.473051	0.927160	-0.000110
1203	1.1960e+02	-3.9435	40.318875	0.000689	6.891990	1.167535	-0.000138
1204	1.1970e+02	-3.9630	40.165463	0.000770	7.702812	1.304892	-0.000154
1205	1.1980e+02	-3.9841	40.040312	0.000628	6.283873	1.064517	-0.000126
1206	1.1990e+02	-4.0034	39.931310	0.000547	5.473051	0.927160	-0.000110
1207	1.2000e+02	-4.0229	39.733490	0.000993	9.932574	1.682624	-0.000199
1208	1.2010e+02	-4.0431	39.624487	0.000547	5.473051	0.927160	-0.000110
1209	1.2020e+02	-4.0628	39.483188	0.000709	7.094695	1.201874	-0.000142
1210	1.2030e+02	-4.0830	39.386296	0.000486	4.864934	0.824142	-0.000097
1211	1.2039e+02	-4.1031	39.200588	0.000932	9.324457	1.579606	-0.000187
1212	1.2049e+02	-4.1234	39.091585	0.000547	5.473051	0.927160	-0.000110
1213	1.2059e+02	-4.1436	38.942211	0.000750	7.500107	1.270552	-0.000150
1214	1.2069e+02	-4.1634	38.821097	0.000608	6.081168	1.030178	-0.000122
1215	1.2079e+02	-4.1826	38.667686	0.000770	7.702812	1.304892	-0.000154
1216	1.2089e+02	-4.2033	38.578869	0.000446	4.459523	0.755464	-0.000089
1217	1.2099e+02	-4.2226	38.425458	0.000770	7.702812	1.304892	-0.000154
1218	1.2109e+02	-4.2430	38.235713	0.000953	9.527162	1.613945	-0.000191
1219	1.2119e+02	-4.2625	38.142858	0.000466	4.662228	0.789803	-0.000093
1220	1.2129e+02	-4.2844	37.989447	0.000770	7.702812	1.304892	-0.000154
1221	1.2139e+02	-4.3033	37.864296	0.000628	6.283873	1.064517	-0.000126
1222	1.2149e+02	-4.3221	37.710885	0.000770	7.702812	1.304892	-0.000154
1223	1.2159e+02	-4.3424	37.618031	0.000466	4.662228	0.789803	-0.000093
1224	1.2169e+02	-4.3611	37.452508	0.000831	8.310929	1.407909	-0.000166
1225	1.2179e+02	-4.3826	37.319283	0.000669	6.689284	1.133195	-0.000134
1226	1.2189e+02	-4.4016	37.202206	0.000588	5.878462	0.995838	-0.000118
1227	1.2199e+02	-4.4214	37.052832	0.000750	7.500107	1.270552	-0.000150
1228	1.2209e+02	-4.4424	36.935755	0.000588	5.878462	0.995838	-0.000118
1229	1.2219e+02	-4.4617	36.778307	0.000791	7.905518	1.339231	-0.000158
1230	1.2229e+02	-4.4809	36.612784	0.000831	8.310929	1.407909	-0.000166
1231	1.2239e+02	-4.5016	36.532041	0.000405	4.054112	0.686785	-0.000081
1232	1.2248e+02	-4.5215	36.338259	0.000973	9.729868	1.648284	-0.000195
1233	1.2258e+02	-4.5419	36.241368	0.000486	4.864934	0.824142	-0.000097
1234	1.2268e+02	-4.5607	36.059696	0.000912	9.121751	1.545266	-0.000183
1235	1.2278e+02	-4.5816	35.946657	0.000568	5.675756	0.961499	-0.000114
1236	1.2288e+02	-4.6017	35.797283	0.000750	7.500107	1.270552	-0.000150
1237	1.2298e+02	-4.6208	35.651946	0.000730	7.297401	1.236213	-0.000146
1238	1.2308e+02	-4.6408	35.502572	0.000750	7.500107	1.270552	-0.000150
1239	1.2318e+02	-4.6602	35.381458	0.000608	6.081168	1.030178	-0.000122
1240	1.2328e+02	-4.6811	35.264381	0.000588	5.878462	0.995838	-0.000118
1241	1.2338e+02	-4.7005	35.098858	0.000831	8.310929	1.407909	-0.000166
1242	1.2348e+02	-4.7216	34.961595	0.000689	6.891990	1.167535	-0.000138
1243	1.2358e+02	-4.7411	34.824333	0.000689	6.891990	1.167535	-0.000138
1244	1.2368e+02	-4.7618	34.662847	0.000811	8.108223	1.373570	-0.000162
1245	1.2378e+02	-4.7805	34.561919	0.000507	5.067640	0.858481	-0.000101
1246	1.2388e+02	-4.7993	34.408508	0.000770	7.702812	1.304892	-0.000154
1247	1.2398e+02	-4.8204	34.226837	0.000912	9.121751	1.545266	-0.000183
1248	1.2408e+02	-4.8418	34.113797	0.000568	5.675756	0.961499	-0.000114
1249	1.2418e+02	-4.8596	33.944237	0.000851	8.513635	1.442249	-0.000170
1250	1.2428e+02	-4.8810	33.798900	0.000730	7.297401	1.236213	-0.000146
1251	1.2438e+02	-4.9010	33.677786	0.000608	6.081168	1.030178	-0.000122
1252	1.2447e+02	-4.9205	33.512264	0.000831	8.310929	1.407909	-0.000166
1253	1.2457e+02	-4.9403	33.370964	0.000709	7.094695	1.201874	-0.000142
1254	1.2467e+02	-4.9594	33.209479	0.000811	8.108223	1.373570	-0.000162
1255	1.2477e+02	-4.9791	33.060105	0.000750	7.500107	1.270552	-0.000150
1256	1.2487e+02	-4.9995	32.947065	0.000568	5.675756	0.961499	-0.000114
1257	1.2497e+02	-5.0201	32.793654	0.000770	7.702812	1.304892	-0.000154
1258	1.2507e+02	-5.0404	32.668502	0.000628	6.283873	1.064517	-0.000126
1259	1.2517e+02	-5.0591	32.490868	0.000892	8.919046	1.510927	-0.000179
1260	1.2527e+02	-5.0781	32.385903	0.000527	5.270345	0.892821	-0.000105
1261	1.2537e+02	-5.0987	32.196158	0.000953	9.527162	1.613945	-0.000191
1262	1.2547e+02	-5.1186	32.054858	0.000709	7.094695	1.201874	-0.000142
1263	1.2557e+02	-5.1396	31.885298	0.000851	8.513635	1.442249	-0.000170
1264	1.2567e+02	-5.1596	31.764184	0.000608	6.081168	1.030178	-0.000122
1265	1.2577e+02	-5.1788	31.570401	0.000973	9.729868	1.648284	-0.000195
1266	1.2587e+02	-5.1991	31.412953	0.000791	7.905518	1.339231	-0.000158
1267	1.2597e+02	-5.2183	31.299913	0.000568	5.675756	0.961499	-0.000114
1268	1.2607e+02	-5.2379	31.134391	0.000831	8.310929	1.407909	-0.000166
1269	1.2617e+02	-5.2585	30.960794	0.000872	8.716340	1.476588	-0.000174
1270	1.2627e+02	-5.2780	30.839680	0.000608	6.081168	1.030178	-0.000122
1271	1.2636e+02	-5.2972	30.666083	0.000872	8.716340	1.476588	-0.000174
1272	1.2646e+02	-5.3186	30.516709	0.000750	7.500107	1.270552	-0.000150
1273	1.2656e+02	-5.3385	30.343112	0.000872	8.716340	1.476588	-0.000174
1274	1.2666e+02	-5.3575	30.189701	0.000770	7.702812	1.304892	-0.000154
1275	1.2676e+02	-5.3772	30.036290	0.000770	7.702812	1.304892	-0.000154
1276	1.2686e+02	-5.3986	29.874804	0.000811	8.108223	1.373570	-0.000162
1277	1.2696e+02	-5.4184	29.709282	0.000831	8.310929	1.407909	-0.000166
1278	1.2706e+02	-5.4379	29.547796	0.000811	8.108223	1.373570	-0.000162
1279	1.2716e+02	-5.4575	29.366125	0.000912	9.121751	1.545266	-0.000183
1280	1.2726e+02	-5.4776	29.228863	0.000689	6.891990	1.167535	-0.000138
1281	1.2736e+02	-5.4973	29.031043	0.000993	9.932574	1.682624	-0.000199
1282	1.2746e+02	-5.5178	28.909929	0.000608	6.081168	1.030178	-0.000122
1283	1.2756e+02	-5.5380	28.712109	0.000993	9.932574	1.682624	-0.000199
1284	1.2766e+02	-5.5570	28.554661	0.000791	7.905518	1.339231	-0.000158
1285	1.2776e+02	-5.5774	28.356841	0.000993	9.932574	1.682624	-0.000199
1286	1.2786e+02	-5.5972	28.227653	0.000649	6.486579	1.098856	-0.000130
1287	1.2796e+02	-5.6180	28.062131	0.000831	8.310929	1.407909	-0.000166
1288	1.2806e+02	-5.6381	27.856237	0.001034	10.337985	1.751302	-0.000207
1289	1.2816e+02	-5.6567	27.678603	0.000892	8.919046	1.510927	-0.000179
1290	1.2826e+02	-5.6769	27.513080	0.000831	8.310929	1.407909	-0.000166
1291	1.2835e+02	-5.6967	27.367743	0.000730	7.297401	1.236213	-0.000146
1292	1.2845e+02	-5.7175	27.169924	0.000993	9.932574	1.682624	-0.000199
1293	1.2855e+02	-5.7369	27.016512	0.000770	7.702812	1.304892	-0.000154
1294	1.2865e+02	-5.7564	26.846953	0.000851	8.513635	1.442249	-0.000170
1295	1.2875e+02	-5.7767	26.661244	0.000932	9.324457	1.579606	-0.000187
1296	1.2885e+02	-5.7973	26.471499	0.000953	9.527162	1.613945	-0.000191
1297	1.2895e+02	-5.8159	26.314051	0.000791	7.905518	1.339231	-0.000158
1298	1.2905e+02	-5.8365	26.112194	0.001014	10.135279	1.716963	-0.000203
1299	1.2915e+02	-5.8569	25.906300	0.001034	10.337985	1.751302	-0.000207
1300	1.2925e+02	-5.8772	25.740777	0.000831	8.310929	1.407909	-0.000166
1301	1.2935e+02	-5.8966	25.563143	0.000892	8.919046	1.510927	-0.000179
1302	1.2945e+02	-5.9160	25.389547	0.000872	8.716340	1.476588	-0.000174
1303	1.2955e+02	-5.9368	25.183653	0.001034	10.337985	1.751302	-0.000207
1304	1.2965e+02	-5.9567	24.997944	0.000932	9.324457	1.579606	-0.000187
1305	1.2975e+02	-5.9758	24.836459	0.000811	8.108223	1.373570	-0.000162
1306	1.2985e+02	-5.9964	24.602305	0.001176	11.756924	1.991677	-0.000235
1307	1.2995e+02	-6.0159	24.436783	0.000831	8.310929	1.407909	-0.000166
1308	1.3005e+02	-6.0368	24.247037	0.000953	9.527162	1.613945	-0.000191
1309	1.3015e+02	-6.0553	24.061329	0.000932	9.324457	1.579606	-0.000187
1310	1.3025e+02	-6.0760	23.847361	0.001074	10.743396	1.819981	-0.000215
1311	1.3034e+02	-6.0962	23.641467	0.001034	10.337985	1.751302	-0.000207
1312	1.3044e+02	-6.1153	23.463833	0.000892	8.919046	1.510927	-0.000179
1313	1.3054e+02	-6.1346	23.225642	0.001196	11.959629	2.026016	-0.000239
1314	1.3064e+02	-6.1552	23.048008	0.000892	8.919046	1.510927	-0.000179
1315	1.3074e+02	-6.1751	22.842114	0.001034	10.337985	1.751302	-0.000207
1316	1.3084e+02	-6.1960	22.624109	0.001095	10.946102	1.854320	-0.000219
1317	1.3094e+02	-6.2149	22.426289	0.000993	9.932574	1.682624	-0.000199
1318	1.3104e+02	-6.2357	22.240581	0.000932	9.324457	1.579606	-0.000187
1319	1.3114e+02	-6.2549	21.982204	0.001297	12.973157	2.197712	-0.000260
1320	1.3124e+02	-6.2751	21.780347	0.001014	10.135279	1.716963	-0.000203
1321	1.3134e+02	-6.2946	21.598676	0.000912	9.121751	1.545266	-0.000183
1322	1.3144e+02	-6.3150	21.368559	0.001155	11.554218	1.957338	-0.000231
1323	1.3154e+02	-6.3339	21.154591	0.001074	10.743396	1.819981	-0.000215
1324	1.3164e+02	-6.3551	20.944660	0.001054	10.540690	1.785641	-0.000211
1325	1.3174e+02	-6.3741	20.722618	0.001115	11.148807	1.888659	-0.000223
1326	1.3184e+02	-6.3944	20.520761	0.001014	10.135279	1.716963	-0.000203
1327	1.3194e+02	-6.4135	20.322941	0.000993	9.932574	1.682624	-0.000199
1328	1.3204e+02	-6.4351	20.060527	0.001318	13.175863	2.232052	-0.000264
1329	1.3214e+02	-6.4532	19.858671	0.001014	10.135279	1.716963	-0.000203
1330	1.3224e+02	-6.4735	19.604331	0.001277	12.770452	2.163373	-0.000256
1331	1.3234e+02	-6.4938	19.398437	0.001034	10.337985	1.751302	-0.000207
1332	1.3243e+02	-6.5139	19.160246	0.001196	11.959629	2.026016	-0.000239
1333	1.3253e+02	-6.5341	18.926092	0.001176	11.756924	1.991677	-0.000235
1334	1.3263e+02	-6.5528	18.679827	0.001237	12.365041	2.094695	-0.000248
1335	1.3273e+02	-6.5736	18.425488	0.001277	12.770452	2.163373	-0.000256
1336	1.3283e+02	-6.5941	18.223631	0.001014	10.135279	1.716963	-0.000203
1337	1.3293e+02	-6.6125	17.953143	0.001358	13.581274	2.300730	-0.000272
1338	1.3303e+02	-6.6338	17.718989	0.001176	11.756924	1.991677	-0.000235
1339	1.3313e+02	-6.6531	17.472723	0.001237	12.365041	2.094695	-0.000248
1340	1.3323e+02	-6.6732	17.226458	0.001237	12.365041	2.094695	-0.000248
1341	1.3333e+02	-6.6943	16.988267	0.001196	11.959629	2.026016	-0.000239
1342	1.3343e+02	-6.7126	16.766225	0.001115	11.148807	1.888659	-0.000223
1343	1.3353e+02	-6.7331	16.475551	0.001459	14.594802	2.472426	-0.000292
1344	1.3363e+02	-6.7538	16.265620	0.001054	10.540690	1.785641	-0.000211
1345	1.3373e+02	-6.7744	15.995132	0.001358	13.581274	2.300730	-0.000272
1346	1.3383e+02	-6.7929	15.748867	0.001237	12.365041	2.094695	-0.000248
1347	1.3393e+02	-6.8128	15.446081	0.001520	15.202919	2.575444	-0.000304
1348	1.3403e+02	-6.8323	15.240187	0.001034	10.337985	1.751302	-0.000207
1349	1.3413e+02	-6.8517	14.961625	0.001399	13.986685	2.369409	-0.000280
1350	1.3423e+02	-6.8726	14.719397	0.001216	12.162335	2.060355	-0.000243
1351	1.3432e+02	-6.8930	14.388352	0.001662	16.621858	2.815819	-0.000333
1352	1.3442e+02	-6.9121	14.142086	0.001237	12.365041	2.094695	-0.000248
1353	1.3452e+02	-6.9319	13.903895	0.001196	11.959629	2.026016	-0.000239
1354	1.3462e+02	-6.9528	13.593036	0.001561	15.608330	2.644123	-0.000312
1355	1.3472e+02	-6.9721	13.318511	0.001378	13.783980	2.335069	-0.000276
1356	1.3482e+02	-6.9917	13.019763	0.001500	15.000213	2.541105	-0.000300
1357	1.3492e+02	-7.0114	12.737163	0.001419	14.189391	2.403748	-0.000284
1358	1.3502e+02	-7.0316	12.494935	0.001216	12.162335	2.060355	-0.000243
1359	1.3512e+02	-7.0518	12.208298	0.001439	14.392096	2.438087	-0.000288
1360	1.3522e+02	-7.0751	11.929736	0.001399	13.986685	2.369409	-0.000280
1361	1.3532e+02	-7.0914	11.606765	0.001622	16.216447	2.747140	-0.000325
1362	1.3542e+02	-7.1120	11.308017	0.001500	15.000213	2.541105	-0.000300
1363	1.3552e+02	-7.1310	11.033492	0.001378	13.783980	2.335069	-0.000276
1364	1.3562e+02	-7.1514	10.718595	0.001581	15.811036	2.678462	-0.000316
1365	1.3572e+02	-7.1725	10.452144	0.001338	13.378569	2.266391	-0.000268
1366	1.3582e+02	-7.1912	10.125136	0.001642	16.419152	2.781480	-0.000329
1367	1.3592e+02	-7.2104	9.822351	0.001520	15.202919	2.575444	-0.000304
1368	1.3602e+02	-7.2313	9.503418	0.001601	16.013741	2.712801	-0.000321
1369	1.3612e+02	-7.2499	9.168335	0.001682	16.824563	2.850158	-0.000337
1370	1.3622e+02	-7.2717	8.857476	0.001561	15.608330	2.644123	-0.000312
1371	1.3631e+02	-7.2915	8.538542	0.001601	16.013741	2.712801	-0.000321
1372	1.3641e+02	-7.3108	8.247868	0.001459	14.594802	2.472426	-0.000292
1373	1.3651e+02	-7.3315	7.920860	0.001642	16.419152	2.781480	-0.000329
1374	1.3661e+02	-7.3512	7.597889	0.001622	16.216447	2.747140	-0.000325
1375	1.3671e+02	-7.3696	7.270881	0.001642	16.419152	2.781480	-0.000329
1376	1.3681e+02	-7.3900	6.879279	0.001966	19.662442	3.330908	-0.000394
1377	1.3691e+02	-7.4110	6.580531	0.001500	15.000213	2.541105	-0.000300
1378	1.3701e+02	-7.4310	6.269672	0.001561	15.608330	2.644123	-0.000312
1379	1.3711e+02	-7.4507	5.918441	0.001764	17.635386	2.987515	-0.000353
1380	1.3721e+02	-7.4704	5.603544	0.001581	15.811036	2.678462	-0.000316
1381	1.3731e+02	-7.4902	5.211942	0.001966	19.662442	3.330908	-0.000394
1382	1.3741e+02	-7.5108	4.832451	0.001905	19.054325	3.227890	-0.000381
1383	1.3751e+02	-7.5294	4.521592	0.001561	15.608330	2.644123	-0.000312
1384	1.3761e+02	-7.5497	4.162287	0.001804	18.040797	3.056194	-0.000361
1385	1.3771e+02	-7.5690	3.786833	0.001885	18.851619	3.193551	-0.000377
1386	1.3781e+02	-7.5893	3.431565	0.001784	17.838091	3.021854	-0.000357
1387	1.3791e+02	-7.6089	3.104557	0.001642	16.419152	2.781480	-0.000329
1388	1.3801e+02	-7.6261	2.672584	0.002169	21.689497	3.674300	-0.000434
1389	1.3811e+02	-7.6486	2.321353	0.001764	17.635386	2.987515	-0.000353
1390	1.3821e+02	-7.6694	1.966085	0.001784	17.838091	3.021854	-0.000357
1391	1.3831e+02	-7.6891	1.598706	0.001845	18.446208	3.124872	-0.000369
1392	1.3840e+02	-7.7089	1.194992	0.002027	20.270558	3.433926	-0.000406
1393	1.3850e+02	-7.7287	0.835687	0.001804	18.040797	3.056194	-0.000361
1394	1.3860e+02	-7.7486	0.403714	0.002169	21.689497	3.674300	-0.000434
1395	1.3870e+02	-7.7681	0.016149	0.001946	19.459736	3.296569	-0.000390
1396	1.3880e+02	-7.7879	-0.375454	0.001966	19.662442	3.330908	-0.000394
1397	1.3890e+02	-7.8082	-0.791279	0.002088	20.878675	3.536943	-0.000418
1398	1.3900e+02	-7.8277	-1.166732	0.001885	18.851619	3.193551	-0.000377
1399	1.3910e+02	-7.8477	-1.606780	0.002209	22.094909	3.742979	-0.000442
1400	1.3920e+02	-7.8681	-1.986271	0.001905	19.054325	3.227890	-0.000381
1401	1.3930e+02	-7.8876	-2.430356	0.002230	22.297614	3.777318	-0.000446
1402	1.3940e+02	-7.9080	-2.830032	0.002007	20.067853	3.399586	-0.000402
1403	1.3950e+02	-7.9287	-3.249894	0.002108	21.081381	3.571283	-0.000422
1404	1.3960e+02	-7.9449	-3.693979	0.002230	22.297614	3.777318	-0.000446
1405	1.3970e+02	-7.9675	-4.097693	0.002027	20.270558	3.433926	-0.000406
1406	1.3980e+02	-7.9877	-4.578112	0.002412	24.121964	4.086371	-0.000483
1407	1.3990e+02	-8.0073	-5.010085	0.002169	21.689497	3.674300	-0.000434
1408	1.4000e+02	-8.0276	-5.502616	0.002473	24.730081	4.189389	-0.000495
1409	1.4010e+02	-8.0467	-5.906330	0.002027	20.270558	3.433926	-0.000406
1410	1.4020e+02	-8.0672	-6.386749	0.002412	24.121964	4.086371	-0.000483
1411	1.4029e+02	-8.0867	-6.798537	0.002068	20.675970	3.502604	-0.000414
1412	1.4039e+02	-8.1070	-7.258770	0.002311	23.108437	3.914675	-0.000463
1413	1.4049e+02	-8.1262	-7.755338	0.002493	24.932787	4.223728	-0.000499
1414	1.4059e+02	-8.1473	-8.239794	0.002432	24.324670	4.120711	-0.000487
1415	1.4069e+02	-8.1673	-8.700028	0.002311	23.108437	3.914675	-0.000463
1416	1.4079e+02	-8.1856	-9.196595	0.002493	24.932787	4.223728	-0.000499
1417	1.4089e+02	-8.2069	-9.664903	0.002351	23.513848	3.983354	-0.000471
1418	1.4099e+02	-8.2263	-10.133211	0.002351	23.513848	3.983354	-0.000471
1419	1.4109e+02	-8.2473	-10.662075	0.002655	26.554431	4.498442	-0.000532
1420	1.4119e+02	-8.2663	-11.170755	0.002554	25.540904	4.326746	-0.000511
1421	1.4129e+02	-8.2862	-11.667322	0.002493	24.932787	4.223728	-0.000499
1422	1.4139e+02	-8.3066	-12.188113	0.002615	26.149020	4.429764	-0.000523
1423	1.4149e+02	-8.3261	-12.676606	0.002453	24.527376	4.155050	-0.000491
1424	1.4159e+02	-8.3462	-13.233731	0.002797	27.973371	4.738817	-0.000560
1425	1.4169e+02	-8.3664	-13.742410	0.002554	25.540904	4.326746	-0.000511
1426	1.4179e+02	-8.3862	-14.279349	0.002696	26.959843	4.567121	-0.000540
1427	1.4189e+02	-8.4058	-14.824362	0.002737	27.365254	4.635799	-0.000548
1428	1.4199e+02	-8.4266	-15.405710	0.002919	29.189604	4.944853	-0.000584
1429	1.4209e+02	-8.4454	-15.950723	0.002737	27.365254	4.635799	-0.000548
1430	1.4219e+02	-8.4660	-16.487662	0.002696	26.959843	4.567121	-0.000540
1431	1.4228e+02	-8.4851	-17.044787	0.002797	27.973371	4.738817	-0.000560
1432	1.4238e+02	-8.5043	-17.573652	0.002655	26.554431	4.498442	-0.000532
1433	1.4248e+02	-8.5262	-18.183259	0.003061	30.608543	5.185228	-0.000613
1434	1.4258e+02	-8.5451	-18.776718	0.002980	29.797721	5.047871	-0.000596
1435	1.4268e+02	-8.5660	-19.349992	0.002878	28.784193	4.876174	-0.000576
1436	1.4278e+02	-8.5849	-19.935376	0.002939	29.392310	4.979192	-0.000588
1437	1.4288e+02	-8.6046	-20.549021	0.003081	30.811249	5.219567	-0.000617
1438	1.4298e+02	-8.6250	-21.134406	0.002939	29.392310	4.979192	-0.000588
1439	1.4308e+02	-8.6449	-21.764199	0.003162	31.622071	5.356924	-0.000633
1440	1.4318e+02	-8.6648	-22.337472	0.002878	28.784193	4.876174	-0.000576
1441	1.4328e+02	-8.6847	-22.971302	0.003182	31.824777	5.391263	-0.000637
1442	1.4338e+02	-8.7055	-23.605133	0.003182	31.824777	5.391263	-0.000637
1443	1.4348e+02	-8.7254	-24.251074	0.003243	32.432893	5.494281	-0.000649
1444	1.4358e+02	-8.7448	-24.880868	0.003162	31.622071	5.356924	-0.000633
1445	1.4368e+02	-8.7646	-25.530846	0.003264	32.635599	5.528620	-0.000653
1446	1.4378e+02	-8.7852	-26.140454	0.003061	30.608543	5.185228	-0.000613
1447	1.4388e+02	-8.8052	-26.818693	0.003405	34.054538	5.768995	-0.000682
1448	1.4398e+02	-8.8245	-27.513080	0.003487	34.865360	5.906352	-0.000698
1449	1.4408e+02	-8.8439	-28.171133	0.003304	33.041010	5.597299	-0.000661
1450	1.4418e+02	-8.8647	-28.881669	0.003568	35.676183	6.043709	-0.000714
1451	1.4428e+02	-8.8835	-29.563945	0.003426	34.257244	5.803334	-0.000686
1452	1.4437e+02	-8.9043	-30.262369	0.003507	35.068066	5.940691	-0.000702
1453	1.4447e+02	-8.9233	-30.952720	0.003466	34.662655	5.872013	-0.000694
1454	1.4457e+02	-8.9433	-31.659218	0.003547	35.473477	6.009370	-0.000710
1455	1.4467e+02	-8.9630	-32.373791	0.003588	35.878888	6.078048	-0.000718
1456	1.4477e+02	-8.9832	-33.108550	0.003689	36.892416	6.249744	-0.000738
1457	1.4487e+02	-9.0034	-33.831197	0.003628	36.284299	6.146727	-0.000726
1458	1.4497e+02	-9.0229	-34.582105	0.003770	37.703239	6.387102	-0.000755
1459	1.4507e+02	-9.0434	-35.345123	0.003831	38.311355	6.490119	-0.000767
1460	1.4517e+02	-9.0628	-36.071808	0.003649	36.487005	6.181066	-0.000730
1461	1.4527e+02	-9.0839	-36.863086	0.003973	39.730294	6.730494	-0.000795
1462	1.4537e+02	-9.1032	-37.634179	0.003872	38.716766	6.558798	-0.000775
1463	1.4547e+02	-9.1231	-38.429495	0.003993	39.933000	6.764833	-0.000799
1464	1.4557e+02	-9.1422	-39.224811	0.003993	39.933000	6.764833	-0.000799
1465	1.4567e+02	-9.1619	-40.024164	0.004014	40.135706	6.799173	-0.000803
1466	1.4577e+02	-9.1824	-40.815442	0.003973	39.730294	6.730494	-0.000795
1467	1.4587e+02	-9.2023	-41.655167	0.004216	42.162761	7.142565	-0.000844
1468	1.4597e+02	-9.2233	-42.482779	0.004155	41.554645	7.039547	-0.000832
1469	1.4607e+02	-9.2426	-43.326541	0.004237	42.365467	7.176904	-0.000848
1470	1.4617e+02	-9.2632	-44.202599	0.004399	43.987112	7.451618	-0.000880
1471	1.4626e+02	-9.2828	-45.026175	0.004135	41.351939	7.005208	-0.000828
1472	1.4636e+02	-9.3027	-45.902233	0.004399	43.987112	7.451618	-0.000880
1473	1.4646e+02	-9.3210	-46.733883	0.004176	41.757350	7.073887	-0.000836
1474	1.4656e+02	-9.3425	-47.642239	0.004561	45.608756	7.726332	-0.000913
1475	1.4666e+02	-9.3607	-48.530409	0.004460	44.595228	7.554636	-0.000893
1476	1.4676e+02	-9.3823	-49.406467	0.004399	43.987112	7.451618	-0.000880
1477	1.4686e+02	-9.4017	-50.326934	0.004622	46.216873	7.829350	-0.000925
1478	1.4696e+02	-9.4223	-51.259512	0.004682	46.824990	7.932368	-0.000937
1479	1.4706e+02	-9.4421	-52.200165	0.004723	47.230401	8.001047	-0.000945
1480	1.4716e+02	-9.4617	-53.120632	0.004622	46.216873	7.829350	-0.000925
1481	1.4726e+02	-9.4819	-54.093582	0.004885	48.852046	8.275761	-0.000978
1482	1.4736e+02	-9.5017	-55.066531	0.004885	48.852046	8.275761	-0.000978
1483	1.4746e+02	-9.5215	-56.051593	0.004946	49.460162	8.378778	-0.000990
1484	1.4756e+02	-9.5396	-56.976097	0.004642	46.419579	7.863689	-0.000929
1485	1.4766e+02	-9.5601	-57.997492	0.005128	51.284513	8.687832	-0.001027
1486	1.4776e+02	-9.5824	-58.962367	0.004845	48.446634	8.207082	-0.000970
1487	1.4786e+02	-9.6005	-60.036246	0.005392	53.919685	9.134242	-0.001079
1488	1.4796e+02	-9.6222	-61.017270	0.004926	49.257457	8.344439	-0.000986
1489	1.4806e+02	-9.6410	-62.074999	0.005311	53.108863	8.996885	-0.001063
1490	1.4816e+02	-9.6608	-63.120617	0.005250	52.500746	8.893867	-0.001051
1491	1.4825e+02	-9.6805	-64.158161	0.005210	52.095335	8.825189	-0.001043
1492	1.4835e+02	-9.7003	-65.264336	0.005554	55.541330	9.408956	-0.001112
1493	1.4845e+02	-9.7195	-66.398771	0.005696	56.960269	9.649331	-0.001140
1494	1.4855e+02	-9.7398	-67.468612	0.005372	53.716980	9.099903	-0.001075
1495	1.4865e+02	-9.7595	-68.534416	0.005351	53.514274	9.065563	-0.001071
1496	1.4875e+02	-9.7804	-69.685000	0.005777	57.771091	9.786688	-0.001156
1497	1.4885e+02	-9.8001	-70.839621	0.005797	57.973797	9.821027	-0.001160
1498	1.4895e+02	-9.8192	-71.970019	0.005676	56.757563	9.614992	-0.001136
1499	1.4905e+02	-9.8390	-73.128677	0.005818	58.176502	9.855366	-0.001164
1500	1.4915e+02	-9.8604	-74.315595	0.005960	59.595442	10.095741	-0.001193
1501	1.4925e+02	-9.8807	-75.474253	0.005818	58.176502	9.855366	-0.001164
1502	1.4935e+02	-9.8990	-76.713653	0.006223	62.230614	10.542151	-0.001246
1503	1.4945e+02	-9.9200	-77.908645	0.006000	60.000853	10.164420	-0.001201
1504	1.4955e+02	-9.9393	-79.131898	0.006142	61.419792	10.404794	-0.001229
1505	1.4965e+02	-9.9609	-80.407632	0.006405	64.054964	10.851205	-0.001282
1506	1.4975e+02	-9.9794	-81.614736	0.006061	60.608969	10.267437	-0.001213
1507	1.4985e+02	-9.9988	-82.987362	0.006892	68.919898	11.675347	-0.001380
1508	1.4995e+02	-9.9799	-83.956275	-0.004865	-48.649340	-8.241421	-0.000974
1509	1.5005e+02	-9.9604	-84.985744	-0.005169	-51.689924	-8.756510	-0.001035
1510	1.5015e+02	-9.9399	-85.938508	-0.004784	-47.838518	-8.104064	-0.000958
1511	1.5025e+02	-9.9197	-86.863013	-0.004642	-46.419579	-7.863689	-0.000929
1512	1.5034e+02	-9.9002	-87.811739	-0.004764	-47.635812	-8.069725	-0.000953
1513	1.5044e+02	-9.8798	-88.619167	-0.004054	-40.541117	-6.867851	-0.000811
1514	1.5054e+02	-9.8590	-89.483114	-0.004338	-43.378995	-7.348601	-0.000868
1515	1.5064e+02	-9.8395	-90.282467	-0.004014	-40.135706	-6.799173	-0.000803
1516	1.5074e+02	-9.8199	-91.065671	-0.003932	-39.324883	-6.661816	-0.000787
1517	1.5084e+02	-9.7989	-91.820615	-0.003791	-37.905944	-6.421441	-0.000759
1518	1.5094e+02	-9.7798	-92.551337	-0.003669	-36.689711	-6.215405	-0.000734
1519	1.5104e+02	-9.7613	-93.249761	-0.003507	-35.068066	-5.940691	-0.000702
1520	1.5114e+02	-9.7407	-93.932037	-0.003426	-34.257244	-5.803334	-0.000686
1521	1.5124e+02	-9.7205	-94.610276	-0.003405	-34.054538	-5.768995	-0.000682
1522	1.5134e+02	-9.7003	-95.280441	-0.003365	-33.649127	-5.700316	-0.000674
1523	1.5144e+02	-9.6806	-95.881974	-0.003020	-30.203132	-5.116549	-0.000605
1524	1.5154e+02	-9.6611	-96.495618	-0.003081	-30.811249	-5.219567	-0.000617
1525	1.5164e+02	-9.6408	-97.125412	-0.003162	-31.622071	-5.356924	-0.000633
1526	1.5174e+02	-9.6210	-97.662351	-0.002696	-26.959843	-4.567121	-0.000540
1527	1.5184e+02	-9.6005	-98.231587	-0.002858	-28.581487	-4.841835	-0.000572
1528	1.5194e+02	-9.5808	-98.772563	-0.002716	-27.162548	-4.601460	-0.000544
1529	1.5204e+02	-9.5615	-99.317576	-0.002737	-27.365254	-4.635799	-0.000548
1530	1.5214e+02	-9.5410	-99.822218	-0.002534	-25.338198	-4.292407	-0.000507
1531	1.5224e+02	-9.5218	-100.294563	-0.002372	-23.716553	-4.017693	-0.000475
1532	1.5233e+02	-9.5018	-100.811317	-0.002595	-25.946315	-4.395425	-0.000519
1533	1.5243e+02	-9.4821	-101.255401	-0.002230	-22.297614	-3.777318	-0.000446
1534	1.5253e+02	-9.4609	-101.743895	-0.002453	-24.527376	-4.155050	-0.000491
1535	1.5263e+02	-9.4419	-102.187980	-0.002230	-22.297614	-3.777318	-0.000446
1536	1.5273e+02	-9.4215	-102.632065	-0.002230	-22.297614	-3.777318	-0.000446
1537	1.5283e+02	-9.4009	-103.011555	-0.001905	-19.054325	-3.227890	-0.000381
1538	1.5293e+02	-9.3810	-103.431418	-0.002108	-21.081381	-3.571283	-0.000422
1539	1.5303e+02	-9.3611	-103.818983	-0.001946	-19.459736	-3.296569	-0.000390
1540	1.5313e+02	-9.3420	-104.230770	-0.002068	-20.675970	-3.502604	-0.000414
1541	1.5323e+02	-9.3218	-104.573927	-0.001723	-17.229975	-2.918837	-0.000345
1542	1.5333e+02	-9.3022	-104.949381	-0.001885	-18.851619	-3.193551	-0.000377
1543	1.5343e+02	-9.2821	-105.252166	-0.001520	-15.202919	-2.575444	-0.000304
1544	1.5353e+02	-9.2622	-105.595322	-0.001723	-17.229975	-2.918837	-0.000345
1545	1.5363e+02	-9.2427	-105.958665	-0.001824	-18.243503	-3.090533	-0.000365
1546	1.5373e+02	-9.2219	-106.317970	-0.001804	-18.040797	-3.056194	-0.000361
1547	1.5383e+02	-9.2031	-106.596532	-0.001399	-13.986685	-2.369409	-0.000280
1548	1.5393e+02	-9.1827	-106.871057	-0.001378	-13.783980	-2.335069	-0.000276
1549	1.5403e+02	-9.1615	-107.177880	-0.001541	-15.405624	-2.609783	-0.000308
1550	1.5413e+02	-9.1428	-107.468553	-0.001459	-14.594802	-2.472426	-0.000292
1551	1.5422e+02	-9.1225	-107.739041	-0.001358	-13.581274	-2.300730	-0.000272
1552	1.5432e+02	-9.1020	-107.993381	-0.001277	-12.770452	-2.163373	-0.000256
1553	1.5442e+02	-9.0819	-108.288092	-0.001480	-14.797508	-2.506766	-0.000296
1554	1.5452e+02	-9.0630	-108.514172	-0.001135	-11.351513	-1.922998	-0.000227
1555	1.5462e+02	-9.0424	-108.764474	-0.001257	-12.567746	-2.129034	-0.000252
1556	1.5472e+02	-9.0231	-108.978442	-0.001074	-10.743396	-1.819981	-0.000215
1557	1.5482e+02	-9.0034	-109.248930	-0.001358	-13.581274	-2.300730	-0.000272
1558	1.5492e+02	-8.9839	-109.462898	-0.001074	-10.743396	-1.819981	-0.000215
1559	1.5502e+02	-8.9639	-109.664755	-0.001014	-10.135279	-1.716963	-0.000203
1560	1.5512e+02	-8.9439	-109.854501	-0.000953	-9.527162	-1.613945	-0.000191
1561	1.5522e+02	-8.9233	-110.052320	-0.000993	-9.932574	-1.682624	-0.000199
1562	1.5532e+02	-8.9042	-110.258214	-0.001034	-10.337985	-1.751302	-0.000207
1563	1.5542e+02	-8.8824	-110.460071	-0.001014	-10.135279	-1.716963	-0.000203
1564	1.5552e+02	-8.8635	-110.657891	-0.000993	-9.932574	-1.682624	-0.000199
1565	1.5562e+02	-8.8434	-110.791116	-0.000669	-6.689284	-1.133195	-0.000134
1566	1.5572e+02	-8.8245	-110.984899	-0.000973	-9.729868	-1.648284	-0.000195
1567	1.5582e+02	-8.8050	-111.142347	-0.000791	-7.905518	-1.339231	-0.000158
1568	1.5592e+02	-8.7843	-111.291721	-0.000750	-7.500107	-1.270552	-0.000150
1569	1.5602e+02	-8.7643	-111.493578	-0.001014	-10.135279	-1.716963	-0.000203
1570	1.5612e+02	-8.7438	-111.651026	-0.000791	-7.905518	-1.339231	-0.000158
1571	1.5622e+02	-8.7251	-111.772140	-0.000608	-6.081168	-1.030178	-0.000122
1572	1.5631e+02	-8.7027	-111.909403	-0.000689	-6.891990	-1.167535	-0.000138
1573	1.5641e+02	-8.6852	-112.046665	-0.000689	-6.891990	-1.167535	-0.000138
1574	1.5651e+02	-8.6654	-112.147594	-0.000507	-5.067640	-0.858481	-0.000101
1575	1.5661e+02	-8.6450	-112.288893	-0.000709	-7.094695	-1.201874	-0.000142
1576	1.5671e+02	-8.6253	-112.381748	-0.000466	-4.662228	-0.789803	-0.000093
1577	1.5681e+02	-8.6049	-112.486713	-0.000527	-5.270345	-0.892821	-0.000105
1578	1.5691e+02	-8.5859	-112.599753	-0.000568	-5.675756	-0.961499	-0.000114
1579	1.5701e+02	-8.5651	-112.757201	-0.000791	-7.905518	-1.339231	-0.000158
1580	1.5711e+02	-8.5448	-112.793535	-0.000182	-1.824350	-0.309053	-0.000037
1581	1.5721e+02	-8.5251	-112.898501	-0.000527	-5.270345	-0.892821	-0.000105
1582	1.5731e+02	-8.5054	-112.967132	-0.000345	-3.445995	-0.583767	-0.000069
1583	1.5741e+02	-8.4850	-113.100358	-0.000669	-6.689284	-1.133195	-0.000134
1584	1.5751e+02	-8.4654	-113.168989	-0.000345	-3.445995	-0.583767	-0.000069
1585	1.5761e+02	-8.4459	-113.257806	-0.000446	-4.459523	-0.755464	-0.000089
1586	1.5771e+02	-8.4259	-113.370846	-0.000568	-5.675756	-0.961499	-0.000114
1587	1.5781e+02	-8.4058	-113.374883	-0.000020	-0.202706	-0.034339	-0.000004
1588	1.5791e+02	-8.3858	-113.455626	-0.000405	-4.054112	-0.686785	-0.000081
1589	1.5801e+02	-8.3662	-113.540405	-0.000426	-4.256817	-0.721124	-0.000085
1590	1.5811e+02	-8.3455	-113.552517	-0.000061	-0.608117	-0.103018	-0.000012
1591	1.5821e+02	-8.3250	-113.629222	-0.000385	-3.851406	-0.652446	-0.000077
1592	1.5830e+02	-8.3055	-113.730151	-0.000507	-5.067640	-0.858481	-0.000101
1593	1.5840e+02	-8.2864	-113.742262	-0.000061	-0.608117	-0.103018	-0.000012
1594	1.5850e+02	-8.2672	-113.814931	-0.000365	-3.648701	-0.618107	-0.000073
1595	1.5860e+02	-8.2471	-113.867413	-0.000264	-2.635173	-0.446410	-0.000053
1596	1.5870e+02	-8.2277	-113.879525	-0.000061	-0.608117	-0.103018	-0.000012
1597	1.5880e+02	-8.2059	-113.948156	-0.000345	-3.445995	-0.583767	-0.000069
1598	1.5890e+02	-8.1873	-113.992565	-0.000223	-2.229761	-0.377732	-0.000045
1599	1.5900e+02	-8.1669	-114.016788	-0.000122	-1.216234	-0.206036	-0.000024
1600	1.5910e+02	-8.1461	-114.041010	-0.000122	-1.216234	-0.206036	-0.000024
1601	1.5920e+02	-8.1265	-114.097530	-0.000284	-2.837878	-0.480750	-0.000057
1602	1.5930e+02	-8.1078	-114.097530	0.000000	0.000000	0.000000	0.000000
1603	1.5940e+02	-8.0870	-114.117716	-0.000101	-1.013528	-0.171696	-0.000020
1604	1.5950e+02	-8.0667	-114.137902	-0.000101	-1.013528	-0.171696	-0.000020
1605	1.5960e+02	-8.0477	-114.174236	-0.000182	-1.824350	-0.309053	-0.000037
1606	1.5970e+02	-8.0273	-114.190384	-0.000081	-0.810822	-0.137357	-0.000016
1607	1.5980e+02	-8.0082	-114.186347	0.000020	0.202706	0.034339	0.000004
1608	1.5990e+02	-7.9880	-114.202496	-0.000081	-0.810822	-0.137357	-0.000016
1609	1.6000e+02	-7.9675	-114.206533	-0.000020	-0.202706	-0.034339	-0.000004
1610	1.6010e+02	-7.9480	-114.206533	0.000000	0.000000	0.000000	0.000000
1611	1.6019e+02	-7.9283	-114.194421	0.000061	0.608117	0.103018	0.000012
1612	1.6029e+02	-7.9082	-114.246904	-0.000264	-2.635173	-0.446410	-0.000053
1613	1.6039e+02	-7.8885	-114.275164	-0.000142	-1.418939	-0.240375	-0.000028
1614	1.6049e+02	-7.8671	-114.214607	0.000304	3.040584	0.515089	0.000061
1615	1.6059e+02	-7.8481	-114.226719	-0.000061	-0.608117	-0.103018	-0.000012
1616	1.6069e+02	-7.8284	-114.234793	-0.000041	-0.405411	-0.068679	-0.000008
1617	1.6079e+02	-7.8085	-114.259016	-0.000122	-1.216234	-0.206036	-0.000024
1618	1.6089e+02	-7.7883	-114.190384	0.000345	3.445995	0.583767	0.000069
1619	1.6099e+02	-7.7676	-114.178273	0.000061	0.608117	0.103018	0.000012
1620	1.6109e+02	-7.7481	-114.210570	-0.000162	-1.621645	-0.274714	-0.000032
1621	1.6119e+02	-7.7290	-114.178273	0.000162	1.621645	0.274714	0.000032
1622	1.6129e+02	-7.7094	-114.150013	0.000142	1.418939	0.240375	0.000028
1623	1.6139e+02	-7.6886	-114.121753	0.000142	1.418939	0.240375	0.000028
1624	1.6149e+02	-7.6686	-114.178273	-0.000284	-2.837878	-0.480750	-0.000057
1625	1.6159e+02	-7.6488	-114.101567	0.000385	3.851406	0.652446	0.000077
1626	1.6169e+02	-7.6295	-114.077345	0.000122	1.216234	0.206036	0.000024
1627	1.6179e+02	-7.6096	-114.041010	0.000182	1.824350	0.309053	0.000037
1628	1.6189e+02	-7.5897	-114.016788	0.000122	1.216234	0.206036	0.000024
1629	1.6199e+02	-7.5696	-113.996602	0.000101	1.013528	0.171696	0.000020
1630	1.6209e+02	-7.5503	-114.008713	-0.000061	-0.608117	-0.103018	-0.000012
1631	1.6219e+02	-7.5293	-113.972379	0.000182	1.824350	0.309053	0.000037
1632	1.6228e+02	-7.5095	-113.984490	-0.000061	-0.608117	-0.103018	-0.000012
1633	1.6238e+02	-7.4904	-113.927971	0.000284	2.837878	0.480750	0.000057
1634	1.6248e+02	-7.4702	-113.887599	0.000203	2.027056	0.343393	0.000041
1635	1.6258e+02	-7.4537	-113.855302	0.000162	1.621645	0.274714	0.000032
1636	1.6268e+02	-7.4309	-113.823005	0.000162	1.621645	0.274714	0.000032
1637	1.6278e+02	-7.4106	-113.766485	0.000284	2.837878	0.480750	0.000057
1638	1.6288e+02	-7.3904	-113.794745	-0.000142	-1.418939	-0.240375	-0.000028
1639	1.6298e+02	-7.3698	-113.677668	0.000588	5.878462	0.995838	0.000118
1640	1.6308e+02	-7.3509	-113.693817	-0.000081	-0.810822	-0.137357	-0.000016
1641	1.6318e+02	-7.3311	-113.613074	0.000405	4.054112	0.686785	0.000081
1642	1.6328e+02	-7.3106	-113.649408	-0.000182	-1.824350	-0.309053	-0.000037
1643	1.6338e+02	-7.2916	-113.552517	0.000486	4.864934	0.824142	0.000097
1644	1.6348e+02	-7.2704	-113.532331	0.000101	1.013528	0.171696	0.000020
1645	1.6358e+02	-7.2504	-113.495997	0.000182	1.824350	0.309053	0.000037
1646	1.6368e+02	-7.2314	-113.459663	0.000182	1.824350	0.309053	0.000037
1647	1.6378e+02	-7.2107	-113.362772	0.000486	4.864934	0.824142	0.000097
1648	1.6388e+02	-7.1924	-113.302214	0.000304	3.040584	0.515089	0.000061
1649	1.6398e+02	-7.1718	-113.302214	0.000000	0.000000	0.000000	0.000000
1650	1.6408e+02	-7.1526	-113.237620	0.000324	3.243289	0.549428	0.000065
1651	1.6418e+02	-7.1316	-113.168989	0.000345	3.445995	0.583767	0.000069
1652	1.6427e+02	-7.1117	-113.144766	0.000122	1.216234	0.206036	0.000024
1653	1.6437e+02	-7.0923	-113.088246	0.000284	2.837878	0.480750	0.000057
1654	1.6447e+02	-7.0717	-113.035764	0.000264	2.635173	0.446410	0.000053
1655	1.6457e+02	-7.0525	-112.995392	0.000203	2.027056	0.343393	0.000041
1656	1.6467e+02	-7.0313	-112.930798	0.000324	3.243289	0.549428	0.000065
1657	1.6477e+02	-7.0125	-112.922724	0.000041	0.405411	0.068679	0.000008
1658	1.6487e+02	-6.9913	-112.850055	0.000365	3.648701	0.618107	0.000073
1659	1.6497e+02	-6.9722	-112.797573	0.000264	2.635173	0.446410	0.000053
1660	1.6507e+02	-6.9518	-112.720867	0.000385	3.851406	0.652446	0.000077
1661	1.6517e+02	-6.9318	-112.684533	0.000182	1.824350	0.309053	0.000037
1662	1.6527e+02	-6.9125	-112.640124	0.000223	2.229761	0.377732	0.000045
1663	1.6537e+02	-6.8921	-112.543233	0.000486	4.864934	0.824142	0.000097
1664	1.6547e+02	-6.8723	-112.527084	0.000081	0.810822	0.137357	0.000016
1665	1.6557e+02	-6.8515	-112.462490	0.000324	3.243289	0.549428	0.000065
1666	1.6567e+02	-6.8323	-112.430193	0.000162	1.621645	0.274714	0.000032
1667	1.6577e+02	-6.8130	-112.353488	0.000385	3.851406	0.652446	0.000077
1668	1.6587e+02	-6.7926	-112.301005	0.000264	2.635173	0.446410	0.000053
1669	1.6597e+02	-6.7722	-112.208151	0.000466	4.662228	0.789803	0.000093
1670	1.6607e+02	-6.7535	-112.159705	0.000243	2.432467	0.412071	0.000049
1671	1.6616e+02	-6.7331	-112.087037	0.000365	3.648701	0.618107	0.000073
1672	1.6626e+02	-6.7133	-112.050702	0.000182	1.824350	0.309053	0.000037
1673	1.6636e+02	-6.6927	-111.937663	0.000568	5.675756	0.961499	0.000114
1674	1.6646e+02	-6.6747	-111.941700	-0.000020	-0.202706	-0.034339	-0.000004
1675	1.6656e+02	-6.6525	-111.808474	0.000669	6.689284	1.133195	0.000134
1676	1.6666e+02	-6.6334	-111.703509	0.000527	5.270345	0.892821	0.000105
1677	1.6676e+02	-6.6127	-111.711583	-0.000041	-0.405411	-0.068679	-0.000008
1678	1.6686e+02	-6.5945	-111.655063	0.000284	2.837878	0.480750	0.000057
1679	1.6696e+02	-6.5730	-111.578358	0.000385	3.851406	0.652446	0.000077
1680	1.6706e+02	-6.5536	-111.525875	0.000264	2.635173	0.446410	0.000053
1681	1.6716e+02	-6.5332	-111.433021	0.000466	4.662228	0.789803	0.000093
1682	1.6726e+02	-6.5134	-111.368426	0.000324	3.243289	0.549428	0.000065
1683	1.6736e+02	-6.4931	-111.291721	0.000385	3.851406	0.652446	0.000077
1684	1.6746e+02	-6.4748	-111.227127	0.000324	3.243289	0.549428	0.000065
1685	1.6756e+02	-6.4537	-111.150421	0.000385	3.851406	0.652446	0.000077
1686	1.6766e+02	-6.4337	-111.106013	0.000223	2.229761	0.377732	0.000045
1687	1.6776e+02	-6.4140	-111.061604	0.000223	2.229761	0.377732	0.000045
1688	1.6786e+02	-6.3947	-111.001047	0.000304	3.040584	0.515089	0.000061
1689	1.6796e+02	-6.3747	-110.859747	0.000709	7.094695	1.201874	0.000142
1690	1.6806e+02	-6.3545	-110.807265	0.000264	2.635173	0.446410	0.000053
1691	1.6816e+02	-6.3341	-110.730559	0.000385	3.851406	0.652446	0.000077
1692	1.6825e+02	-6.3156	-110.694225	0.000182	1.824350	0.309053	0.000037
1693	1.6835e+02	-6.2943	-110.601371	0.000466	4.662228	0.789803	0.000093
1694	1.6845e+02	-6.2734	-110.532739	0.000345	3.445995	0.583767	0.000069
1695	1.6855e+02	-6.2546	-110.447960	0.000426	4.256817	0.721124	0.000085
1696	1.6865e+02	-6.2360	-110.391440	0.000284	2.837878	0.480750	0.000057
1697	1.6875e+02	-6.2151	-110.318771	0.000365	3.648701	0.618107	0.000073
1698	1.6885e+02	-6.1987	-110.238028	0.000405	4.054112	0.686785	0.000081
1699	1.6895e+02	-6.1755	-110.189583	0.000243	2.432467	0.412071	0.000049
1700	1.6905e+02	-6.1554	-110.076543	0.000568	5.675756	0.961499	0.000114
1701	1.6915e+02	-6.1348	-110.024060	0.000264	2.635173	0.446410	0.000053
1702	1.6925e+02	-6.1160	-109.983689	0.000203	2.027056	0.343393	0.000041
1703	1.6935e+02	-6.0957	-109.882761	0.000507	5.067640	0.858481	0.000101
1704	1.6945e+02	-6.0759	-109.806055	0.000385	3.851406	0.652446	0.000077
1705	1.6955e+02	-6.0556	-109.705127	0.000507	5.067640	0.858481	0.000101
1706	1.6965e+02	-6.0353	-109.632458	0.000365	3.648701	0.618107	0.000073
1707	1.6975e+02	-6.0156	-109.555753	0.000385	3.851406	0.652446	0.000077
1708	1.6985e+02	-5.9964	-109.454824	0.000507	5.067640	0.858481	0.000101
1709	1.6995e+02	-5.9763	-109.410416	0.000223	2.229761	0.377732	0.000045
1710	1.7005e+02	-5.9561	-109.285264	0.000628	6.283873	1.064517	0.000126
1711	1.7015e+02	-5.9366	-109.236819	0.000243	2.432467	0.412071	0.000049
1712	1.7024e+02	-5.9166	-109.131853	0.000527	5.270345	0.892821	0.000105
1713	1.7034e+02	-5.8955	-109.111668	0.000101	1.013528	0.171696	0.000020
1714	1.7044e+02	-5.8768	-108.986516	0.000628	6.283873	1.064517	0.000126
1715	1.7054e+02	-5.8569	-108.913848	0.000365	3.648701	0.618107	0.000073
1716	1.7064e+02	-5.8357	-108.861365	0.000264	2.635173	0.446410	0.000053
1717	1.7074e+02	-5.8160	-108.788697	0.000365	3.648701	0.618107	0.000073
1718	1.7084e+02	-5.7959	-108.683731	0.000527	5.270345	0.892821	0.000105
1719	1.7094e+02	-5.7751	-108.570691	0.000568	5.675756	0.961499	0.000114
1720	1.7104e+02	-5.7563	-108.506097	0.000324	3.243289	0.549428	0.000065
1721	1.7114e+02	-5.7375	-108.453614	0.000264	2.635173	0.446410	0.000053
1722	1.7124e+02	-5.7173	-108.336538	0.000588	5.878462	0.995838	0.000118
1723	1.7134e+02	-5.6974	-108.263869	0.000365	3.648701	0.618107	0.000073
1724	1.7144e+02	-5.6768	-108.195238	0.000345	3.445995	0.583767	0.000069
1725	1.7154e+02	-5.6566	-108.090272	0.000527	5.270345	0.892821	0.000105
1726	1.7164e+02	-5.6382	-108.041827	0.000243	2.432467	0.412071	0.000049
1727	1.7174e+02	-5.6166	-107.928787	0.000568	5.675756	0.961499	0.000114
1728	1.7184e+02	-5.5972	-107.880341	0.000243	2.432467	0.412071	0.000049
1729	1.7194e+02	-5.5771	-107.783450	0.000486	4.864934	0.824142	0.000097
1730	1.7204e+02	-5.5575	-107.694633	0.000446	4.459523	0.755464	0.000089
1731	1.7213e+02	-5.5379	-107.589667	0.000527	5.270345	0.892821	0.000105
1732	1.7223e+02	-5.5176	-107.533148	0.000284	2.837878	0.480750	0.000057
1733	1.7233e+02	-5.4980	-107.428182	0.000527	5.270345	0.892821	0.000105
1734	1.7243e+02	-5.4778	-107.355514	0.000365	3.648701	0.618107	0.000073
1735	1.7253e+02	-5.4576	-107.270734	0.000426	4.256817	0.721124	0.000085
1736	1.7263e+02	-5.4384	-107.165768	0.000527	5.270345	0.892821	0.000105
1737	1.7273e+02	-5.4160	-107.109248	0.000284	2.837878	0.480750	0.000057
1738	1.7283e+02	-5.3977	-106.988134	0.000608	6.081168	1.030178	0.000122
1739	1.7293e+02	-5.3783	-106.927577	0.000304	3.040584	0.515089	0.000061
1740	1.7303e+02	-5.3580	-106.822612	0.000527	5.270345	0.892821	0.000105
1741	1.7313e+02	-5.3391	-106.733795	0.000446	4.459523	0.755464	0.000089
1742	1.7323e+02	-5.3191	-106.628829	0.000527	5.270345	0.892821	0.000105
1743	1.7333e+02	-5.2985	-106.556161	0.000365	3.648701	0.618107	0.000073
1744	1.7343e+02	-5.2782	-106.467344	0.000446	4.459523	0.755464	0.000089
1745	1.7353e+02	-5.2594	-106.435047	0.000162	1.621645	0.274714	0.000032
1746	1.7363e+02	-5.2387	-106.309895	0.000628	6.283873	1.064517	0.000126
1747	1.7373e+02	-5.2182	-106.233190	0.000385	3.851406	0.652446	0.000077
1748	1.7383e+02	-5.1990	-106.108039	0.000628	6.283873	1.064517	0.000126
1749	1.7393e+02	-5.1785	-105.999036	0.000547	5.473051	0.927160	0.000110
1750	1.7403e+02	-5.1594	-105.926367	0.000365	3.648701	0.618107	0.000073
1751	1.7413e+02	-5.1393	-105.829476	0.000486	4.864934	0.824142	0.000097
1752	1.7422e+02	-5.1193	-105.752771	0.000385	3.851406	0.652446	0.000077
1753	1.7432e+02	-5.0987	-105.663954	0.000446	4.459523	0.755464	0.000089
1754	1.7442e+02	-5.0795	-105.546877	0.000588	5.878462	0.995838	0.000118
1755	1.7452e+02	-5.0597	-105.458060	0.000446	4.459523	0.755464	0.000089
1756	1.7462e+02	-5.0394	-105.385391	0.000365	3.648701	0.618107	0.000073
1757	1.7472e+02	-5.0197	-105.272352	0.000568	5.675756	0.961499	0.000114
1758	1.7482e+02	-4.9999	-105.211794	0.000304	3.040584	0.515089	0.000061
1759	1.7492e+02	-4.9810	-105.098755	0.000568	5.675756	0.961499	0.000114
1760	1.7502e+02	-4.9609	-105.034160	0.000324	3.243289	0.549428	0.000065
1761	1.7512e+02	-4.9406	-104.909009	0.000628	6.283873	1.064517	0.000126
1762	1.7522e+02	-4.9199	-104.800007	0.000547	5.473051	0.927160	0.000110
1763	1.7532e+02	-4.9009	-104.719264	0.000405	4.054112	0.686785	0.000081
1764	1.7542e+02	-4.8801	-104.654670	0.000324	3.243289	0.549428	0.000065
1765	1.7552e+02	-4.8605	-104.541630	0.000568	5.675756	0.961499	0.000114
1766	1.7562e+02	-4.8414	-104.477036	0.000324	3.243289	0.549428	0.000065
1767	1.7572e+02	-4.8203	-104.380145	0.000486	4.864934	0.824142	0.000097
1768	1.7582e+02	-4.8003	-104.263068	0.000588	5.878462	0.995838	0.000118
1769	1.7592e+02	-4.7806	-104.190399	0.000365	3.648701	0.618107	0.000073
1770	1.7602e+02	-4.7620	-104.077359	0.000568	5.675756	0.961499	0.000114
1771	1.7612e+02	-4.7411	-103.964320	0.000568	5.675756	0.961499	0.000114
1772	1.7621e+02	-4.7211	-103.879540	0.000426	4.256817	0.721124	0.000085
1773	1.7631e+02	-4.7017	-103.778611	0.000507	5.067640	0.858481	0.000101
1774	1.7641e+02	-4.6812	-103.673646	0.000527	5.270345	0.892821	0.000105
1775	1.7651e+02	-4.6602	-103.588866	0.000426	4.256817	0.721124	0.000085
1776	1.7661e+02	-4.6413	-103.520235	0.000345	3.445995	0.583767	0.000069
1777	1.7671e+02	-4.6208	-103.382972	0.000689	6.891990	1.167535	0.000138
1778	1.7681e+02	-4.6016	-103.318378	0.000324	3.243289	0.549428	0.000065
1779	1.7691e+02	-4.5814	-103.209375	0.000547	5.473051	0.927160	0.000110
1780	1.7701e+02	-4.5615	-103.088261	0.000608	6.081168	1.030178	0.000122
1781	1.7711e+02	-4.5415	-102.963110	0.000628	6.283873	1.064517	0.000126
1782	1.7721e+02	-4.5224	-102.890441	0.000365	3.648701	0.618107	0.000073
1783	1.7731e+02	-4.5013	-102.805662	0.000426	4.256817	0.721124	0.000085
1784	1.7741e+02	-4.4820	-102.704733	0.000507	5.067640	0.858481	0.000101
1785	1.7751e+02	-4.4611	-102.628028	0.000385	3.851406	0.652446	0.000077
1786	1.7761e+02	-4.4413	-102.506914	0.000608	6.081168	1.030178	0.000122
1787	1.7771e+02	-4.4214	-102.414059	0.000466	4.662228	0.789803	0.000093
1788	1.7781e+02	-4.4018	-102.296982	0.000588	5.878462	0.995838	0.000118
1789	1.7791e+02	-4.3820	-102.220277	0.000385	3.851406	0.652446	0.000077
1790	1.7801e+02	-4.3629	-102.111274	0.000547	5.473051	0.927160	0.000110
1791	1.7810e+02	-4.3424	-101.978049	0.000669	6.689284	1.133195	0.000134
1792	1.7820e+02	-4.3221	-101.901343	0.000385	3.851406	0.652446	0.000077
1793	1.7830e+02	-4.3018	-101.784266	0.000588	5.878462	0.995838	0.000118
1794	1.7840e+02	-4.2829	-101.723709	0.000304	3.040584	0.515089	0.000061
1795	1.7850e+02	-4.2632	-101.590484	0.000669	6.689284	1.133195	0.000134
1796	1.7860e+02	-4.2425	-101.521852	0.000345	3.445995	0.583767	0.000069
1797	1.7870e+02	-4.2221	-101.416887	0.000527	5.270345	0.892821	0.000105
1798	1.7880e+02	-4.2025	-101.279624	0.000689	6.891990	1.167535	0.000138
1799	1.7890e+02	-4.1821	-101.178696	0.000507	5.067640	0.858481	0.000101
1800	1.7900e+02	-4.1634	-101.085842	0.000466	4.662228	0.789803	0.000093
1801	1.7910e+02	-4.1426	-101.009136	0.000385	3.851406	0.652446	0.000077
1802	1.7920e+02	-4.1235	-100.904171	0.000527	5.270345	0.892821	0.000105
1803	1.7930e+02	-4.1031	-100.783057	0.000608	6.081168	1.030178	0.000122
1804	1.7940e+02	-4.0815	-100.678091	0.000527	5.270345	0.892821	0.000105
1805	1.7950e+02	-4.0630	-100.573126	0.000527	5.270345	0.892821	0.000105
1806	1.7960e+02	-4.0427	-100.484309	0.000446	4.459523	0.755464	0.000089
1807	1.7970e+02	-4.0233	-100.363194	0.000608	6.081168	1.030178	0.000122
1808	1.7980e+02	-4.0045	-100.250155	0.000568	5.675756	0.961499	0.000114
1809	1.7990e+02	-3.9848	-100.165375	0.000426	4.256817	0.721124	0.000085
1810	1.8000e+02	-3.9639	-100.056372	0.000547	5.473051	0.927160	0.000110
1811	1.8009e+02	-3.9427	-99.911035	0.000730	7.297401	1.236213	0.000146
1812	1.8019e+02	-3.9238	-99.834330	0.000385	3.851406	0.652446	0.000077
1813	1.8029e+02	-3.9047	-99.749550	0.000426	4.256817	0.721124	0.000085
1814	1.8039e+02	-3.8837	-99.628436	0.000608	6.081168	1.030178	0.000122
1815	1.8049e+02	-3.8643	-99.495210	0.000669	6.689284	1.133195	0.000134
1816	1.8059e+02	-3.8449	-99.414468	0.000405	4.054112	0.686785	0.000081
1817	1.8069e+02	-3.8248	-99.317576	0.000486	4.864934	0.824142	0.000097
1818	1.8079e+02	-3.8044	-99.200499	0.000588	5.878462	0.995838	0.000118
1819	1.8089e+02	-3.7841	-99.107645	0.000466	4.662228	0.789803	0.000093
1820	1.8099e+02	-3.7643	-99.030940	0.000385	3.851406	0.652446	0.000077
1821	1.8109e+02	-3.7439	-98.889640	0.000709	7.094695	1.201874	0.000142
1822	1.8119e+02	-3.7247	-98.752377	0.000689	6.891990	1.167535	0.000138
1823	1.8129e+02	-3.7051	-98.647412	0.000527	5.270345	0.892821	0.000105
1824	1.8139e+02	-3.6852	-98.558595	0.000446	4.459523	0.755464	0.000089
1825	1.8149e+02	-3.6649	-98.441518	0.000588	5.878462	0.995838	0.000118
1826	1.8159e+02	-3.6445	-98.336552	0.000527	5.270345	0.892821	0.000105
1827	1.8169e+02	-3.6241	-98.227550	0.000547	5.473051	0.927160	0.000110
1828	1.8179e+02	-3.6056	-98.122584	0.000527	5.270345	0.892821	0.000105
1829	1.8189e+02	-3.5852	-98.013581	0.000547	5.473051	0.927160	0.000110
1830	1.8199e+02	-3.5647	-97.900542	0.000568	5.675756	0.961499	0.000114
1831	1.8209e+02	-3.5451	-97.779428	0.000608	6.081168	1.030178	0.000122
1832	1.8218e+02	-3.5255	-97.686573	0.000466	4.662228	0.789803	0.000093
1833	1.8228e+02	-3.5047	-97.581608	0.000527	5.270345	0.892821	0.000105
1834	1.8238e+02	-3.4852	-97.492791	0.000446	4.459523	0.755464	0.000089
1835	1.8248e+02	-3.4659	-97.363603	0.000649	6.486579	1.098856	0.000130
1836	1.8258e+02	-3.4456	-97.266711	0.000486	4.864934	0.824142	0.000097
1837	1.8268e+02	-3.4256	-97.149634	0.000588	5.878462	0.995838	0.000118
1838	1.8278e+02	-3.4059	-97.044669	0.000527	5.270345	0.892821	0.000105
1839	1.8288e+02	-3.3856	-96.887221	0.000791	7.905518	1.339231	0.000158
1840	1.8298e+02	-3.3667	-96.810515	0.000385	3.851406	0.652446	0.000077
1841	1.8308e+02	-3.3461	-96.693438	0.000588	5.878462	0.995838	0.000118
1842	1.8318e+02	-3.3260	-96.527915	0.000831	8.310929	1.407909	0.000166
1843	1.8328e+02	-3.3071	-96.443136	0.000426	4.256817	0.721124	0.000085
1844	1.8338e+02	-3.2859	-96.305873	0.000689	6.891990	1.167535	0.000138
1845	1.8348e+02	-3.2666	-96.208982	0.000486	4.864934	0.824142	0.000097
1846	1.8358e+02	-3.2477	-96.136313	0.000365	3.648701	0.618107	0.000073
1847	1.8368e+02	-3.2261	-95.982902	0.000770	7.702812	1.304892	0.000154
1848	1.8378e+02	-3.2059	-95.881974	0.000507	5.067640	0.858481	0.000101
1849	1.8388e+02	-3.1866	-95.768934	0.000568	5.675756	0.961499	0.000114
1850	1.8398e+02	-3.1665	-95.647820	0.000608	6.081168	1.030178	0.000122
1851	1.8407e+02	-3.1474	-95.550929	0.000486	4.864934	0.824142	0.000097
1852	1.8417e+02	-3.1264	-95.397517	0.000770	7.702812	1.304892	0.000154
1853	1.8427e+02	-3.1068	-95.300626	0.000486	4.864934	0.824142	0.000097
1854	1.8437e+02	-3.0865	-95.191624	0.000547	5.473051	0.927160	0.000110
1855	1.8447e+02	-3.0667	-95.086658	0.000527	5.270345	0.892821	0.000105
1856	1.8457e+02	-3.0484	-94.981693	0.000527	5.270345	0.892821	0.000105
1857	1.8467e+02	-3.0270	-94.848467	0.000669	6.689284	1.133195	0.000134
1858	1.8477e+02	-3.0083	-94.719279	0.000649	6.486579	1.098856	0.000130
1859	1.8487e+02	-2.9867	-94.630462	0.000446	4.459523	0.755464	0.000089
1860	1.8497e+02	-2.9680	-94.513385	0.000588	5.878462	0.995838	0.000118
1861	1.8507e+02	-2.9483	-94.376122	0.000689	6.891990	1.167535	0.000138
1862	1.8517e+02	-2.9279	-94.255008	0.000608	6.081168	1.030178	0.000122
1863	1.8527e+02	-2.9073	-94.141968	0.000568	5.675756	0.961499	0.000114
1864	1.8537e+02	-2.8877	-94.028928	0.000568	5.675756	0.961499	0.000114
1865	1.8547e+02	-2.8683	-93.940111	0.000446	4.459523	0.755464	0.000089
1866	1.8557e+02	-2.8482	-93.758440	0.000912	9.121751	1.545266	0.000183
1867	1.8567e+02	-2.8284	-93.701920	0.000284	2.837878	0.480750	0.000057
1868	1.8577e+02	-2.8081	-93.605029	0.000486	4.864934	0.824142	0.000097
1869	1.8587e+02	-2.7876	-93.439507	0.000831	8.310929	1.407909	0.000166
1870	1.8597e+02	-2.7687	-93.306281	0.000669	6.689284	1.133195	0.000134
1871	1.8606e+02	-2.7475	-93.209390	0.000486	4.864934	0.824142	0.000097
1872	1.8616e+02	-2.7286	-93.108462	0.000507	5.067640	0.858481	0.000101
1873	1.8626e+02	-2.7084	-92.983310	0.000628	6.283873	1.064517	0.000126
1874	1.8636e+02	-2.6886	-92.837973	0.000730	7.297401	1.236213	0.000146
1875	1.8646e+02	-2.6685	-92.749156	0.000446	4.459523	0.755464	0.000089
1876	1.8656e+02	-2.6480	-92.624005	0.000628	6.283873	1.064517	0.000126
1877	1.8666e+02	-2.6288	-92.523077	0.000507	5.067640	0.858481	0.000101
1878	1.8676e+02	-2.6082	-92.325257	0.000993	9.932574	1.682624	0.000199
1879	1.8686e+02	-2.5884	-92.252589	0.000365	3.648701	0.618107	0.000073
1880	1.8696e+02	-2.5694	-92.131475	0.000608	6.081168	1.030178	0.000122
1881	1.8706e+02	-2.5495	-92.010361	0.000608	6.081168	1.030178	0.000122
1882	1.8716e+02	-2.5285	-91.840801	0.000851	8.513635	1.442249	0.000170
1883	1.8726e+02	-2.5093	-91.760058	0.000405	4.054112	0.686785	0.000081
1884	1.8736e+02	-2.4896	-91.638944	0.000608	6.081168	1.030178	0.000122
1885	1.8746e+02	-2.4706	-91.529941	0.000547	5.473051	0.927160	0.000110
1886	1.8756e+02	-2.4504	-91.348270	0.000912	9.121751	1.545266	0.000183
1887	1.8766e+02	-2.4306	-91.295788	0.000264	2.635173	0.446410	0.000053
1888	1.8776e+02	-2.4100	-91.138339	0.000791	7.905518	1.339231	0.000158
1889	1.8786e+02	-2.3903	-91.021262	0.000588	5.878462	0.995838	0.000118
1890	1.8796e+02	-2.3691	-90.896111	0.000628	6.283873	1.064517	0.000126
1891	1.8806e+02	-2.3506	-90.791146	0.000527	5.270345	0.892821	0.000105
1892	1.8815e+02	-2.3305	-90.690217	0.000507	5.067640	0.858481	0.000101
1893	1.8825e+02	-2.3100	-90.516620	0.000872	8.716340	1.476588	0.000174
1894	1.8835e+02	-2.2910	-90.379358	0.000689	6.891990	1.167535	0.000138
1895	1.8845e+02	-2.2707	-90.330912	0.000243	2.432467	0.412071	0.000049
1896	1.8855e+02	-2.2509	-90.181538	0.000750	7.500107	1.270552	0.000150
1897	1.8865e+02	-2.2308	-90.040238	0.000709	7.094695	1.201874	0.000142
1898	1.8875e+02	-2.2115	-89.898939	0.000709	7.094695	1.201874	0.000142
1899	1.8885e+02	-2.1906	-89.806084	0.000466	4.662228	0.789803	0.000093
1900	1.8895e+02	-2.1714	-89.656710	0.000750	7.500107	1.270552	0.000150
1901	1.8905e+02	-2.1506	-89.567893	0.000446	4.459523	0.755464	0.000089
1902	1.8915e+02	-2.1318	-89.438705	0.000649	6.486579	1.098856	0.000130
1903	1.8925e+02	-2.1103	-89.305480	0.000669	6.689284	1.133195	0.000134
1904	1.8935e+02	-2.0921	-89.131883	0.000872	8.716340	1.476588	0.000174
1905	1.8945e+02	-2.0712	-89.026917	0.000527	5.270345	0.892821	0.000105
1906	1.8955e+02	-2.0519	-88.893692	0.000669	6.689284	1.133195	0.000134
1907	1.8965e+02	-2.0312	-88.800838	0.000466	4.662228	0.789803	0.000093
1908	1.8975e+02	-2.0121	-88.635315	0.000831	8.310929	1.407909	0.000166
1909	1.8985e+02	-1.9914	-88.530350	0.000527	5.270345	0.892821	0.000105
1910	1.8995e+02	-1.9711	-88.405198	0.000628	6.283873	1.064517	0.000126
1911	1.9004e+02	-1.9517	-88.280047	0.000628	6.283873	1.064517	0.000126
1912	1.9014e+02	-1.9320	-88.171045	0.000547	5.473051	0.927160	0.000110
1913	1.9024e+02	-1.9119	-88.021670	0.000750	7.500107	1.270552	0.000150
1914	1.9034e+02	-1.8919	-87.892482	0.000649	6.486579	1.098856	0.000130
1915	1.9044e+02	-1.8721	-87.799628	0.000466	4.662228	0.789803	0.000093
1916	1.9054e+02	-1.8528	-87.634105	0.000831	8.310929	1.407909	0.000166
1917	1.9064e+02	-1.8324	-87.557400	0.000385	3.851406	0.652446	0.000077
1918	1.9074e+02	-1.8135	-87.371692	0.000932	9.324457	1.579606	0.000187
1919	1.9084e+02	-1.7928	-87.266726	0.000527	5.270345	0.892821	0.000105
1920	1.9094e+02	-1.7720	-87.153686	0.000568	5.675756	0.961499	0.000114
1921	1.9104e+02	-1.7514	-86.992201	0.000811	8.108223	1.373570	0.000162
1922	1.9114e+02	-1.7325	-86.858975	0.000669	6.689284	1.133195	0.000134
1923	1.9124e+02	-1.7127	-86.717676	0.000709	7.094695	1.201874	0.000142
1924	1.9134e+02	-1.6922	-86.653081	0.000324	3.243289	0.549428	0.000065
1925	1.9144e+02	-1.6733	-86.495633	0.000791	7.905518	1.339231	0.000158
1926	1.9154e+02	-1.6530	-86.330111	0.000831	8.310929	1.407909	0.000166
1927	1.9164e+02	-1.6327	-86.229182	0.000507	5.067640	0.858481	0.000101
1928	1.9174e+02	-1.6127	-86.108068	0.000608	6.081168	1.030178	0.000122
1929	1.9184e+02	-1.5932	-85.986954	0.000608	6.081168	1.030178	0.000122
1930	1.9194e+02	-1.5736	-85.825469	0.000811	8.108223	1.373570	0.000162
1931	1.9203e+02	-1.5530	-85.700317	0.000628	6.283873	1.064517	0.000126
1932	1.9213e+02	-1.5322	-85.554981	0.000730	7.297401	1.236213	0.000146
1933	1.9223e+02	-1.5131	-85.437904	0.000588	5.878462	0.995838	0.000118
1934	1.9233e+02	-1.4936	-85.304678	0.000669	6.689284	1.133195	0.000134
1935	1.9243e+02	-1.4742	-85.187601	0.000588	5.878462	0.995838	0.000118
1936	1.9253e+02	-1.4542	-85.070524	0.000588	5.878462	0.995838	0.000118
1937	1.9263e+02	-1.4329	-84.925187	0.000730	7.297401	1.236213	0.000146
1938	1.9273e+02	-1.4136	-84.824259	0.000507	5.067640	0.858481	0.000101
1939	1.9283e+02	-1.3936	-84.682959	0.000709	7.094695	1.201874	0.000142
1940	1.9293e+02	-1.3742	-84.545697	0.000689	6.891990	1.167535	0.000138
1941	1.9303e+02	-1.3541	-84.392285	0.000770	7.702812	1.304892	0.000154
1942	1.9313e+02	-1.3341	-84.287320	0.000527	5.270345	0.892821	0.000105
1943	1.9323e+02	-1.3148	-84.170243	0.000588	5.878462	0.995838	0.000118
1944	1.9333e+02	-1.2941	-84.008758	0.000811	8.108223	1.373570	0.000162
1945	1.9343e+02	-1.2737	-83.867458	0.000709	7.094695	1.201874	0.000142
1946	1.9353e+02	-1.2543	-83.734232	0.000669	6.689284	1.133195	0.000134
1947	1.9363e+02	-1.2344	-83.621193	0.000568	5.675756	0.961499	0.000114
1948	1.9373e+02	-1.2148	-83.487967	0.000669	6.689284	1.133195	0.000134
1949	1.9383e+02	-1.1943	-83.334556	0.000770	7.702812	1.304892	0.000154
1950	1.9393e+02	-1.1745	-83.225553	0.000547	5.473051	0.927160	0.000110
1951	1.9403e+02	-1.1553	-83.060031	0.000831	8.310929	1.407909	0.000166
1952	1.9412e+02	-1.1350	-82.934879	0.000628	6.283873	1.064517	0.000126
1953	1.9422e+02	-1.1156	-82.817803	0.000588	5.878462	0.995838	0.000118
1954	1.9432e+02	-1.0957	-82.688614	0.000649	6.486579	1.098856	0.000130
1955	1.9442e+02	-1.0757	-82.567500	0.000608	6.081168	1.030178	0.000122
1956	1.9452e+02	-1.0554	-82.450423	0.000588	5.878462	0.995838	0.000118
1957	1.9462e+02	-1.0345	-82.301049	0.000750	7.500107	1.270552	0.000150
1958	1.9472e+02	-1.0157	-82.119378	0.000912	9.121751	1.545266	0.000183
1959	1.9482e+02	-0.9962	-82.046710	0.000365	3.648701	0.618107	0.000073
1960	1.9492e+02	-0.9761	-81.869076	0.000892	8.919046	1.510927	0.000179
1961	1.9502e+02	-0.9557	-81.780259	0.000446	4.459523	0.755464	0.000089
1962	1.9512e+02	-0.9351	-81.651070	0.000649	6.486579	1.098856	0.000130
1963	1.9522e+02	-0.9157	-81.469399	0.000912	9.121751	1.545266	0.000183
1964	1.9532e+02	-0.8961	-81.376545	0.000466	4.662228	0.789803	0.000093
1965	1.9542e+02	-0.8762	-81.215060	0.000811	8.108223	1.373570	0.000162
1966	1.9552e+02	-0.8568	-81.073760	0.000709	7.094695	1.201874	0.000142
1967	1.9562e+02	-0.8369	-80.936497	0.000689	6.891990	1.167535	0.000138
1968	1.9572e+02	-0.8169	-80.815383	0.000608	6.081168	1.030178	0.000122
1969	1.9582e+02	-0.7961	-80.657935	0.000791	7.905518	1.339231	0.000158
1970	1.9592e+02	-0.7764	-80.524709	0.000669	6.689284	1.133195	0.000134
1971	1.9601e+02	-0.7565	-80.411670	0.000568	5.675756	0.961499	0.000114
1972	1.9611e+02	-0.7365	-80.258258	0.000770	7.702812	1.304892	0.000154
1973	1.9621e+02	-0.7172	-80.149256	0.000547	5.473051	0.927160	0.000110
1974	1.9631e+02	-0.6970	-79.983733	0.000831	8.310929	1.407909	0.000166
1975	1.9641e+02	-0.6767	-79.866656	0.000588	5.878462	0.995838	0.000118
1976	1.9651e+02	-0.6558	-79.729394	0.000689	6.891990	1.167535	0.000138
1977	1.9661e+02	-0.6357	-79.596168	0.000669	6.689284	1.133195	0.000134
1978	1.9671e+02	-0.6174	-79.442757	0.000770	7.702812	1.304892	0.000154
1979	1.9681e+02	-0.5972	-79.313569	0.000649	6.486579	1.098856	0.000130
1980	1.9691e+02	-0.5776	-79.204566	0.000547	5.473051	0.927160	0.000110
1981	1.9701e+02	-0.5574	-79.067303	0.000689	6.891990	1.167535	0.000138
1982	1.9711e+02	-0.5377	-78.893707	0.000872	8.716340	1.476588	0.000174
1983	1.9721e+02	-0.5171	-78.808927	0.000426	4.256817	0.721124	0.000085
1984	1.9731e+02	-0.4974	-78.643404	0.000831	8.310929	1.407909	0.000166
1985	1.9741e+02	-0.4766	-78.522290	0.000608	6.081168	1.030178	0.000122
1986	1.9751e+02	-0.4581	-78.380990	0.000709	7.094695	1.201874	0.000142
1987	1.9761e+02	-0.4375	-78.243728	0.000689	6.891990	1.167535	0.000138
1988	1.9771e+02	-0.4173	-78.070131	0.000872	8.716340	1.476588	0.000174
1989	1.9781e+02	-0.3989	-77.953054	0.000588	5.878462	0.995838	0.000118
1990	1.9791e+02	-0.3781	-77.827903	0.000628	6.283873	1.064517	0.000126
1991	1.9800e+02	-0.3573	-77.690640	0.000689	6.891990	1.167535	0.000138
1992	1.9810e+02	-0.3381	-77.488783	0.001014	10.135279	1.716963	0.000203
1993	1.9820e+02	-0.3185	-77.420152	0.000345	3.445995	0.583767	0.000069
1994	1.9830e+02	-0.2985	-77.286927	0.000669	6.689284	1.133195	0.000134
1995	1.9840e+02	-0.2787	-77.125441	0.000811	8.108223	1.373570	0.000162
1996	1.9850e+02	-0.2582	-77.012401	0.000568	5.675756	0.961499	0.000114
1997	1.9860e+02	-0.2386	-76.883213	0.000649	6.486579	1.098856	0.000130
1998	1.9870e+02	-0.2179	-76.717690	0.000831	8.310929	1.407909	0.000166
1999	1.9880e+02	-0.1997	-76.612725	0.000527	5.270345	0.892821	0.000105
2000	1.9890e+02	-0.1788	-76.463351	0.000750	7.500107	1.270552	0.000150
2001	1.9900e+02	-0.1583	-76.326088	0.000689	6.891990	1.167535	0.000138
2002	1.9910e+02	-0.1350	-76.213048	0.000568	5.675756	0.961499	0.000114
2003	1.9920e+02	-0.1188	-76.063674	0.000750	7.500107	1.270552	0.000150
2004	1.9930e+02	-0.0994	-75.934486	0.000649	6.486579	1.098856	0.000130
2005	1.9940e+02	-0.0793	-75.781075	0.000770	7.702812	1.304892	0.000154
2006	1.9950e+02	-0.0590	-75.619590	0.000811	8.108223	1.373570	0.000162
2007	1.9960e+02	-0.0388	-75.486364	0.000669	6.689284	1.133195	0.000134
2008	1.9970e+02	-0.0197	-75.353139	0.000669	6.689284	1.133195	0.000134
2009	1.9980e+02	-0.0008	-75.268359	0.000669	6.689284	1.133195	0.000085

PMax (uC/cm2):	6.20e+01
Pr (uC/cm2):	1.50e+01
-Pr (uC/cm2):	-1.28e+02
PLoss (uC/cm2):	-1.27e+02
-Vc:	-2.20e+00
C (Max-Eff) (nF):	6.20e-01
K (Eff):	1.05e+03
Vert. (+/-Pr) Shift (uC/cm2):	-5.63e+01
Offset (uC/cm2):	-5.22e+01

A (Loop Area - uC/cm2·Volts):	-1.23e+00



Hysteresis Version: 5.48.1 - Radiant Technologies, Inc., 1999 - 9/12/24

