»»»»»»»»»»»»»»»»»»»»»»»»»»»»»»»»»»»» Hysteresis ««««««««««««««««««««««««««««««««««««
»»»  Executed Version:	5.48.1
»»»  Vision Version:	5.48.4 (R)
»»»  Vision Compiled:	9/18/24
»»»  Driver Version:	5.47.0
»»»  Windows Version:	Windows 8 or 8.1
»»»  Processor Information:	x86 (AMD or Intel) - 32 Processors
»»»  Tester Name:	PMF21124-494 (100V)
»»»  Tester S/N:	PMF21124-494
»»»  Internal Amp Type:	100V RevK 270k
»»»  Internal Amp S/N:	iAB2-596/K     
»»»  Execution Count:	1
»»»»»»»»»»»»»»»»»»»»»»»»»»»»»»»»»»»»»»»»»»««««««««««««««««««««««««««««««««««««««««««

Stored:	7/2/2025 - 18:17:56
Configured:	07/02/25 01:35:59 PM
Executed:	07/02/25 06:17:26 PM

»»»»»»»»»»»»»»»»»»»»»»»»»»»»»»»»»»» Sample Info ««««««««««««««««««««««««««««««««««««
Sample Name:	
Lot Name:	
Wafer Name:	
Die Row/Column:	0/0
Capacitor Number:	0
Sample Area (cm2):	1.00e-04
Sample Thickness (microns):	1.50e-01

Amplifier:	Internal

»»»»»»»»»»»»»»»»»»»»»»»»»»»»»»»»»»» Tester Info «««««««««««««««««««««««««««««««««««
Tester Name:	PMF21124-494 (100V)
Tester Serial Number:	PMF21124-494
Return Signal Amp. Level:	0.19 [Index: 3]

»»»»»»»»»»»»»»»»»»»»»»»»»»»»»»»» Hysteresis Info ««««««««««««««««««««««««««««««««««
Task Name:	Hyst-220
Volts:	10.00
Field:	666.67 (kV/cm)
DCBias:	0.00
DCField:	0.00 (kV/cm)
Hysteresis Period (ms):	2.00e+02
Preset:	Enabled
Preset Delay (ms):	1.00e+03
Profile:	Standard Bipolar

»»»»»»»»»»»»»»»»»»»»»»»»»»»»»»»»»»»»»» Data «««««««««««««««««««««««««««««««««««««««
Points:	2009

Valid Data

Point	Time (ms)	Drive Voltage	Measured Polarization (uC/cm2)	Capacitance (uF)	Normalized Capacitance (uF/cm2)	Dielectric Constant	Instantaneous Current (mA)
   1	0.0000e+00	-0.0006	29.000765	0.000547	5.472633	0.927089	0.000110
   2	9.9500e-02	0.0185	29.109767	0.000547	5.472633	0.927089	0.000110
   3	1.9900e-01	0.0392	29.210696	0.000507	5.067253	0.858416	0.000101
   4	2.9850e-01	0.0593	29.364107	0.000770	7.702224	1.304792	0.000154
   5	3.9800e-01	0.0780	29.420627	0.000284	2.837662	0.480713	0.000057
   6	4.9750e-01	0.1000	29.541741	0.000608	6.080703	1.030099	0.000122
   7	5.9700e-01	0.1189	29.646706	0.000527	5.269943	0.892753	0.000105
   8	6.9650e-01	0.1381	29.755709	0.000547	5.472633	0.927089	0.000110
   9	7.9600e-01	0.1589	29.868749	0.000568	5.675323	0.961426	0.000114
  10	8.9550e-01	0.1789	30.010049	0.000709	7.094154	1.201782	0.000142
  11	9.9500e-01	0.1980	30.090791	0.000405	4.053802	0.686733	0.000081
  12	1.0945e+00	0.2183	30.232091	0.000709	7.094154	1.201782	0.000142
  13	1.1940e+00	0.2383	30.333019	0.000507	5.067253	0.858416	0.000101
  14	1.2935e+00	0.2589	30.478356	0.000730	7.296844	1.236119	0.000146
  15	1.3930e+00	0.2781	30.579285	0.000507	5.067253	0.858416	0.000101
  16	1.4925e+00	0.2980	30.672139	0.000466	4.661873	0.789743	0.000093
  17	1.5920e+00	0.3185	30.769030	0.000486	4.864563	0.824079	0.000097
  18	1.6915e+00	0.3382	30.890144	0.000608	6.080703	1.030099	0.000122
  19	1.7910e+00	0.3572	31.015295	0.000628	6.283394	1.064436	0.000126
  20	1.8905e+00	0.3780	31.128335	0.000568	5.675323	0.961426	0.000114
  21	1.9900e+00	0.3975	31.213115	0.000426	4.256492	0.721069	0.000085
  22	2.0895e+00	0.4182	31.346340	0.000669	6.688774	1.133109	0.000134
  23	2.1890e+00	0.4380	31.459380	0.000568	5.675323	0.961426	0.000114
  24	2.2885e+00	0.4601	31.600680	0.000709	7.094154	1.201782	0.000142
  25	2.3880e+00	0.4775	31.685460	0.000426	4.256492	0.721069	0.000085
  26	2.4875e+00	0.4969	31.834834	0.000750	7.499534	1.270456	0.000150
  27	2.5870e+00	0.5167	31.951911	0.000588	5.878013	0.995762	0.000118
  28	2.6865e+00	0.5363	32.052839	0.000507	5.067253	0.858416	0.000101
  29	2.7860e+00	0.5597	32.186065	0.000669	6.688774	1.133109	0.000134
  30	2.8855e+00	0.5774	32.282956	0.000486	4.864563	0.824079	0.000097
  31	2.9850e+00	0.5978	32.420219	0.000689	6.891464	1.167446	0.000138
  32	3.0845e+00	0.6165	32.569593	0.000750	7.499534	1.270456	0.000150
  33	3.1840e+00	0.6367	32.650335	0.000405	4.053802	0.686733	0.000081
  34	3.2835e+00	0.6561	32.783561	0.000669	6.688774	1.133109	0.000134
  35	3.3830e+00	0.6773	32.888526	0.000527	5.269943	0.892753	0.000105
  36	3.4825e+00	0.6960	33.001566	0.000568	5.675323	0.961426	0.000114
  37	3.5820e+00	0.7172	33.114606	0.000568	5.675323	0.961426	0.000114
  38	3.6815e+00	0.7362	33.183237	0.000345	3.445732	0.583723	0.000069
  39	3.7810e+00	0.7562	33.377020	0.000973	9.729126	1.648158	0.000195
  40	3.8805e+00	0.7763	33.506208	0.000649	6.486084	1.098772	0.000130
  41	3.9800e+00	0.7959	33.590988	0.000426	4.256492	0.721069	0.000085
  42	4.0795e+00	0.8153	33.756510	0.000831	8.310295	1.407802	0.000166
  43	4.1790e+00	0.8361	33.845327	0.000446	4.459183	0.755406	0.000089
  44	4.2785e+00	0.8561	33.930107	0.000426	4.256492	0.721069	0.000085
  45	4.3780e+00	0.8757	34.087556	0.000790	7.904915	1.339129	0.000158
  46	4.4775e+00	0.8959	34.216744	0.000649	6.486084	1.098772	0.000130
  47	4.5770e+00	0.9156	34.337858	0.000608	6.080703	1.030099	0.000122
  48	4.6765e+00	0.9354	34.503381	0.000831	8.310295	1.407802	0.000166
  49	4.7760e+00	0.9560	34.559900	0.000284	2.837662	0.480713	0.000057
  50	4.8755e+00	0.9754	34.709275	0.000750	7.499534	1.270456	0.000150
  51	4.9750e+00	0.9952	34.846537	0.000689	6.891464	1.167446	0.000138
  52	5.0745e+00	1.0155	34.955540	0.000547	5.472633	0.927089	0.000110
  53	5.1740e+00	1.0347	35.117025	0.000811	8.107605	1.373465	0.000162
  54	5.2735e+00	1.0555	35.213916	0.000486	4.864563	0.824079	0.000097
  55	5.3730e+00	1.0755	35.326956	0.000568	5.675323	0.961426	0.000114
  56	5.4725e+00	1.0954	35.476330	0.000750	7.499534	1.270456	0.000150
  57	5.5720e+00	1.1156	35.601482	0.000628	6.283394	1.064436	0.000126
  58	5.6715e+00	1.1356	35.682224	0.000405	4.053802	0.686733	0.000081
  59	5.7710e+00	1.1552	35.835635	0.000770	7.702224	1.304792	0.000154
  60	5.8705e+00	1.1752	35.964824	0.000649	6.486084	1.098772	0.000130
  61	5.9700e+00	1.1946	36.102086	0.000689	6.891464	1.167446	0.000138
  62	6.0695e+00	1.2147	36.247423	0.000730	7.296844	1.236119	0.000146
  63	6.1690e+00	1.2341	36.344314	0.000486	4.864563	0.824079	0.000097
  64	6.2685e+00	1.2534	36.485614	0.000709	7.094154	1.201782	0.000142
  65	6.3680e+00	1.2748	36.586543	0.000507	5.067253	0.858416	0.000101
  66	6.4675e+00	1.2944	36.743991	0.000790	7.904915	1.339129	0.000158
  67	6.5670e+00	1.3131	36.824734	0.000405	4.053802	0.686733	0.000081
  68	6.6665e+00	1.3333	36.974108	0.000750	7.499534	1.270456	0.000150
  69	6.7660e+00	1.3540	37.151742	0.000892	8.918365	1.510812	0.000179
  70	6.8655e+00	1.3721	37.208262	0.000284	2.837662	0.480713	0.000057
  71	6.9650e+00	1.3935	37.325338	0.000588	5.878013	0.995762	0.000118
  72	7.0645e+00	1.4127	37.466638	0.000709	7.094154	1.201782	0.000142
  73	7.1640e+00	1.4327	37.644272	0.000892	8.918365	1.510812	0.000179
  74	7.2635e+00	1.4531	37.749238	0.000527	5.269943	0.892753	0.000105
  75	7.3630e+00	1.4736	37.906686	0.000790	7.904915	1.339129	0.000158
  76	7.4625e+00	1.4922	38.015689	0.000547	5.472633	0.927089	0.000110
  77	7.5620e+00	1.5128	38.128728	0.000568	5.675323	0.961426	0.000114
  78	7.6615e+00	1.5322	38.249843	0.000608	6.080703	1.030099	0.000122
  79	7.7610e+00	1.5525	38.415365	0.000831	8.310295	1.407802	0.000166
  80	7.8605e+00	1.5727	38.520331	0.000527	5.269943	0.892753	0.000105
  81	7.9600e+00	1.5933	38.621259	0.000507	5.067253	0.858416	0.000101
  82	8.0595e+00	1.6129	38.762559	0.000709	7.094154	1.201782	0.000142
  83	8.1590e+00	1.6328	38.891747	0.000649	6.486084	1.098772	0.000130
  84	8.2585e+00	1.6528	39.024973	0.000669	6.688774	1.133109	0.000134
  85	8.3580e+00	1.6727	39.133975	0.000547	5.472633	0.927089	0.000110
  86	8.4575e+00	1.6921	39.315646	0.000912	9.121055	1.545149	0.000183
  87	8.5570e+00	1.7117	39.388315	0.000365	3.648422	0.618059	0.000073
  88	8.6565e+00	1.7326	39.557875	0.000851	8.512985	1.442139	0.000170
  89	8.7560e+00	1.7525	39.658803	0.000507	5.067253	0.858416	0.000101
  90	8.8555e+00	1.7722	39.836437	0.000892	8.918365	1.510812	0.000179
  91	8.9550e+00	1.7910	39.925254	0.000446	4.459183	0.755406	0.000089
  92	9.0545e+00	1.8119	40.062516	0.000689	6.891464	1.167446	0.000138
  93	9.1540e+00	1.8319	40.211891	0.000750	7.499534	1.270456	0.000150
  94	9.2535e+00	1.8509	40.312819	0.000507	5.067253	0.858416	0.000101
  95	9.3530e+00	1.8716	40.417784	0.000527	5.269943	0.892753	0.000105
  96	9.4525e+00	1.8915	40.599456	0.000912	9.121055	1.545149	0.000183
  97	9.5520e+00	1.9121	40.712495	0.000568	5.675323	0.961426	0.000114
  98	9.6515e+00	1.9304	40.801312	0.000446	4.459183	0.755406	0.000089
  99	9.7510e+00	1.9523	40.962798	0.000811	8.107605	1.373465	0.000162
 100	9.8505e+00	1.9711	41.079875	0.000588	5.878013	0.995762	0.000118
 101	9.9500e+00	1.9900	41.253472	0.000872	8.715675	1.476475	0.000174
 102	1.0050e+01	2.0114	41.305954	0.000263	2.634972	0.446376	0.000053
 103	1.0149e+01	2.0306	41.487625	0.000912	9.121055	1.545149	0.000183
 104	1.0248e+01	2.0515	41.584517	0.000486	4.864563	0.824079	0.000097
 105	1.0348e+01	2.0705	41.709668	0.000628	6.283394	1.064436	0.000126
 106	1.0447e+01	2.0901	41.846930	0.000689	6.891464	1.167446	0.000138
 107	1.0547e+01	2.1109	41.939785	0.000466	4.661873	0.789743	0.000093
 108	1.0646e+01	2.1310	42.109344	0.000851	8.512985	1.442139	0.000170
 109	1.0746e+01	2.1509	42.222384	0.000568	5.675323	0.961426	0.000114
 110	1.0845e+01	2.1708	42.375795	0.000770	7.702224	1.304792	0.000154
 111	1.0945e+01	2.1900	42.488835	0.000568	5.675323	0.961426	0.000114
 112	1.1044e+01	2.2103	42.630135	0.000709	7.094154	1.201782	0.000142
 113	1.1144e+01	2.2303	42.718952	0.000446	4.459183	0.755406	0.000089
 114	1.1243e+01	2.2500	42.831992	0.000568	5.675323	0.961426	0.000114
 115	1.1343e+01	2.2705	42.953106	0.000608	6.080703	1.030099	0.000122
 116	1.1443e+01	2.2907	43.126703	0.000872	8.715675	1.476475	0.000174
 117	1.1542e+01	2.3098	43.207445	0.000405	4.053802	0.686733	0.000081
 118	1.1642e+01	2.3298	43.381042	0.000872	8.715675	1.476475	0.000174
 119	1.1741e+01	2.3496	43.481970	0.000507	5.067253	0.858416	0.000101
 120	1.1841e+01	2.3698	43.615196	0.000669	6.688774	1.133109	0.000134
 121	1.1940e+01	2.3907	43.724199	0.000547	5.472633	0.927089	0.000110
 122	1.2040e+01	2.4097	43.837238	0.000568	5.675323	0.961426	0.000114
 123	1.2139e+01	2.4294	43.982575	0.000730	7.296844	1.236119	0.000146
 124	1.2239e+01	2.4499	44.127912	0.000730	7.296844	1.236119	0.000146
 125	1.2338e+01	2.4702	44.220766	0.000466	4.661873	0.789743	0.000093
 126	1.2438e+01	2.4857	44.398400	0.000892	8.918365	1.510812	0.000179
 127	1.2537e+01	2.5092	44.519514	0.000608	6.080703	1.030099	0.000122
 128	1.2636e+01	2.5290	44.604294	0.000426	4.256492	0.721069	0.000085
 129	1.2736e+01	2.5497	44.733483	0.000649	6.486084	1.098772	0.000130
 130	1.2835e+01	2.5689	44.858634	0.000628	6.283394	1.064436	0.000126
 131	1.2935e+01	2.5892	44.979748	0.000608	6.080703	1.030099	0.000122
 132	1.3034e+01	2.6080	45.117010	0.000689	6.891464	1.167446	0.000138
 133	1.3134e+01	2.6287	45.230050	0.000568	5.675323	0.961426	0.000114
 134	1.3233e+01	2.6488	45.351164	0.000608	6.080703	1.030099	0.000122
 135	1.3333e+01	2.6691	45.504575	0.000770	7.702224	1.304792	0.000154
 136	1.3432e+01	2.6881	45.585318	0.000405	4.053802	0.686733	0.000081
 137	1.3532e+01	2.7080	45.714507	0.000649	6.486084	1.098772	0.000130
 138	1.3632e+01	2.7282	45.871955	0.000790	7.904915	1.339129	0.000158
 139	1.3731e+01	2.7479	45.980957	0.000547	5.472633	0.927089	0.000110
 140	1.3831e+01	2.7681	46.077849	0.000486	4.864563	0.824079	0.000097
 141	1.3930e+01	2.7876	46.203000	0.000628	6.283394	1.064436	0.000126
 142	1.4030e+01	2.8077	46.328151	0.000628	6.283394	1.064436	0.000126
 143	1.4129e+01	2.8278	46.509822	0.000912	9.121055	1.545149	0.000183
 144	1.4229e+01	2.8471	46.590565	0.000405	4.053802	0.686733	0.000081
 145	1.4328e+01	2.8674	46.667271	0.000385	3.851112	0.652396	0.000077
 146	1.4428e+01	2.8873	46.844905	0.000892	8.918365	1.510812	0.000179
 147	1.4527e+01	2.9079	46.945833	0.000507	5.067253	0.858416	0.000101
 148	1.4627e+01	2.9275	47.070984	0.000628	6.283394	1.064436	0.000126
 149	1.4726e+01	2.9467	47.224395	0.000770	7.702224	1.304792	0.000154
 150	1.4825e+01	2.9677	47.317249	0.000466	4.661873	0.789743	0.000093
 151	1.4925e+01	2.9861	47.422215	0.000527	5.269943	0.892753	0.000105
 152	1.5024e+01	3.0071	47.523143	0.000507	5.067253	0.858416	0.000101
 153	1.5124e+01	3.0280	47.676554	0.000770	7.702224	1.304792	0.000154
 154	1.5223e+01	3.0469	47.793631	0.000588	5.878013	0.995762	0.000118
 155	1.5323e+01	3.0674	47.910708	0.000588	5.878013	0.995762	0.000118
 156	1.5422e+01	3.0863	48.064120	0.000770	7.702224	1.304792	0.000154
 157	1.5522e+01	3.1078	48.156974	0.000466	4.661873	0.789743	0.000093
 158	1.5621e+01	3.1262	48.310385	0.000770	7.702224	1.304792	0.000154
 159	1.5721e+01	3.1472	48.395165	0.000426	4.256492	0.721069	0.000085
 160	1.5820e+01	3.1665	48.516279	0.000608	6.080703	1.030099	0.000122
 161	1.5920e+01	3.1866	48.592984	0.000385	3.851112	0.652396	0.000077
 162	1.6020e+01	3.2063	48.774655	0.000912	9.121055	1.545149	0.000183
 163	1.6119e+01	3.2259	48.875584	0.000507	5.067253	0.858416	0.000101
 164	1.6218e+01	3.2464	49.000735	0.000628	6.283394	1.064436	0.000126
 165	1.6318e+01	3.2654	49.129923	0.000649	6.486084	1.098772	0.000130
 166	1.6418e+01	3.2851	49.255075	0.000628	6.283394	1.064436	0.000126
 167	1.6517e+01	3.3065	49.343892	0.000446	4.459183	0.755406	0.000089
 168	1.6616e+01	3.3258	49.493266	0.000750	7.499534	1.270456	0.000150
 169	1.6716e+01	3.3453	49.602268	0.000547	5.472633	0.927089	0.000110
 170	1.6816e+01	3.3665	49.707234	0.000527	5.269943	0.892753	0.000105
 171	1.6915e+01	3.3850	49.844496	0.000689	6.891464	1.167446	0.000138
 172	1.7015e+01	3.4057	49.941388	0.000486	4.864563	0.824079	0.000097
 173	1.7114e+01	3.4255	50.066539	0.000628	6.283394	1.064436	0.000126
 174	1.7213e+01	3.4454	50.215913	0.000750	7.499534	1.270456	0.000150
 175	1.7313e+01	3.4650	50.328953	0.000568	5.675323	0.961426	0.000114
 176	1.7413e+01	3.4859	50.429881	0.000507	5.067253	0.858416	0.000101
 177	1.7512e+01	3.5057	50.542921	0.000568	5.675323	0.961426	0.000114
 178	1.7611e+01	3.5259	50.672109	0.000649	6.486084	1.098772	0.000130
 179	1.7711e+01	3.5458	50.789186	0.000588	5.878013	0.995762	0.000118
 180	1.7811e+01	3.5645	50.938560	0.000750	7.499534	1.270456	0.000150
 181	1.7910e+01	3.5873	51.023340	0.000426	4.256492	0.721069	0.000085
 182	1.8009e+01	3.6050	51.160603	0.000689	6.891464	1.167446	0.000138
 183	1.8109e+01	3.6250	51.269605	0.000547	5.472633	0.927089	0.000110
 184	1.8209e+01	3.6455	51.410905	0.000709	7.094154	1.201782	0.000142
 185	1.8308e+01	3.6662	51.568353	0.000790	7.904915	1.339129	0.000158
 186	1.8407e+01	3.6843	51.673319	0.000527	5.269943	0.892753	0.000105
 187	1.8507e+01	3.7054	51.778284	0.000527	5.269943	0.892753	0.000105
 188	1.8607e+01	3.7244	51.875176	0.000486	4.864563	0.824079	0.000097
 189	1.8706e+01	3.7451	52.000327	0.000628	6.283394	1.064436	0.000126
 190	1.8805e+01	3.7646	52.149701	0.000750	7.499534	1.270456	0.000150
 191	1.8905e+01	3.7844	52.303112	0.000770	7.702224	1.304792	0.000154
 192	1.9005e+01	3.8033	52.379818	0.000385	3.851112	0.652396	0.000077
 193	1.9104e+01	3.8239	52.504969	0.000628	6.283394	1.064436	0.000126
 194	1.9203e+01	3.8438	52.634157	0.000649	6.486084	1.098772	0.000130
 195	1.9303e+01	3.8641	52.767383	0.000669	6.688774	1.133109	0.000134
 196	1.9402e+01	3.8826	52.888497	0.000608	6.080703	1.030099	0.000122
 197	1.9502e+01	3.9043	52.981351	0.000466	4.661873	0.789743	0.000093
 198	1.9602e+01	3.9230	53.142836	0.000811	8.107605	1.373465	0.000162
 199	1.9701e+01	3.9433	53.263950	0.000608	6.080703	1.030099	0.000122
 200	1.9800e+01	3.9638	53.336619	0.000365	3.648422	0.618059	0.000073
 201	1.9900e+01	3.9822	53.485993	0.000750	7.499534	1.270456	0.000150
 202	2.0000e+01	4.0035	53.590958	0.000527	5.269943	0.892753	0.000105
 203	2.0099e+01	4.0223	53.728221	0.000689	6.891464	1.167446	0.000138
 204	2.0198e+01	4.0427	53.849335	0.000608	6.080703	1.030099	0.000122
 205	2.0298e+01	4.0631	53.970449	0.000608	6.080703	1.030099	0.000122
 206	2.0398e+01	4.0821	54.063303	0.000466	4.661873	0.789743	0.000093
 207	2.0497e+01	4.1026	54.176343	0.000568	5.675323	0.961426	0.000114
 208	2.0596e+01	4.1227	54.301494	0.000628	6.283394	1.064436	0.000126
 209	2.0696e+01	4.1433	54.418571	0.000588	5.878013	0.995762	0.000118
 210	2.0796e+01	4.1619	54.551797	0.000669	6.688774	1.133109	0.000134
 211	2.0895e+01	4.1813	54.668874	0.000588	5.878013	0.995762	0.000118
 212	2.0994e+01	4.2019	54.794025	0.000628	6.283394	1.064436	0.000126
 213	2.1094e+01	4.2226	54.898990	0.000527	5.269943	0.892753	0.000105
 214	2.1194e+01	4.2419	55.040290	0.000709	7.094154	1.201782	0.000142
 215	2.1293e+01	4.2620	55.157367	0.000588	5.878013	0.995762	0.000118
 216	2.1392e+01	4.2831	55.262333	0.000527	5.269943	0.892753	0.000105
 217	2.1492e+01	4.3018	55.383447	0.000608	6.080703	1.030099	0.000122
 218	2.1591e+01	4.3209	55.528784	0.000730	7.296844	1.236119	0.000146
 219	2.1691e+01	4.3419	55.637786	0.000547	5.472633	0.927089	0.000110
 220	2.1791e+01	4.3616	55.734677	0.000486	4.864563	0.824079	0.000097
 221	2.1890e+01	4.3813	55.875977	0.000709	7.094154	1.201782	0.000142
 222	2.1989e+01	4.3999	55.960757	0.000426	4.256492	0.721069	0.000085
 223	2.2089e+01	4.4212	56.077834	0.000588	5.878013	0.995762	0.000118
 224	2.2189e+01	4.4413	56.215097	0.000689	6.891464	1.167446	0.000138
 225	2.2288e+01	4.4611	56.307951	0.000466	4.661873	0.789743	0.000093
 226	2.2387e+01	4.4814	56.473473	0.000831	8.310295	1.407802	0.000166
 227	2.2487e+01	4.5007	56.598624	0.000628	6.283394	1.064436	0.000126
 228	2.2587e+01	4.5214	56.703590	0.000527	5.269943	0.892753	0.000105
 229	2.2686e+01	4.5418	56.816630	0.000568	5.675323	0.961426	0.000114
 230	2.2785e+01	4.5611	56.933707	0.000588	5.878013	0.995762	0.000118
 231	2.2885e+01	4.5809	57.075006	0.000709	7.094154	1.201782	0.000142
 232	2.2985e+01	4.6014	57.179972	0.000527	5.269943	0.892753	0.000105
 233	2.3084e+01	4.6211	57.325309	0.000730	7.296844	1.236119	0.000146
 234	2.3183e+01	4.6406	57.393940	0.000345	3.445732	0.583723	0.000069
 235	2.3283e+01	4.6602	57.515054	0.000608	6.080703	1.030099	0.000122
 236	2.3383e+01	4.6799	57.660391	0.000730	7.296844	1.236119	0.000146
 237	2.3482e+01	4.7004	57.777468	0.000588	5.878013	0.995762	0.000118
 238	2.3581e+01	4.7198	57.890508	0.000568	5.675323	0.961426	0.000114
 239	2.3681e+01	4.7394	57.999511	0.000547	5.472633	0.927089	0.000110
 240	2.3780e+01	4.7601	58.112550	0.000568	5.675323	0.961426	0.000114
 241	2.3880e+01	4.7804	58.265962	0.000770	7.702224	1.304792	0.000154
 242	2.3980e+01	4.7999	58.383038	0.000588	5.878013	0.995762	0.000118
 243	2.4079e+01	4.8201	58.492041	0.000547	5.472633	0.927089	0.000110
 244	2.4178e+01	4.8404	58.592970	0.000507	5.067253	0.858416	0.000101
 245	2.4278e+01	4.8600	58.710046	0.000588	5.878013	0.995762	0.000118
 246	2.4378e+01	4.8799	58.831161	0.000608	6.080703	1.030099	0.000122
 247	2.4477e+01	4.8994	58.944200	0.000568	5.675323	0.961426	0.000114
 248	2.4576e+01	4.9189	59.053203	0.000547	5.472633	0.927089	0.000110
 249	2.4676e+01	4.9400	59.170280	0.000588	5.878013	0.995762	0.000118
 250	2.4776e+01	4.9606	59.295431	0.000628	6.283394	1.064436	0.000126
 251	2.4875e+01	4.9786	59.420582	0.000628	6.283394	1.064436	0.000126
 252	2.4974e+01	4.9998	59.509399	0.000446	4.459183	0.755406	0.000089
 253	2.5074e+01	5.0193	59.626476	0.000588	5.878013	0.995762	0.000118
 254	2.5174e+01	5.0393	59.767776	0.000709	7.094154	1.201782	0.000142
 255	2.5273e+01	5.0596	59.896964	0.000649	6.486084	1.098772	0.000130
 256	2.5372e+01	5.0784	60.022116	0.000628	6.283394	1.064436	0.000126
 257	2.5472e+01	5.0993	60.070561	0.000243	2.432281	0.412040	0.000049
 258	2.5572e+01	5.1183	60.207824	0.000689	6.891464	1.167446	0.000138
 259	2.5671e+01	5.1395	60.345086	0.000689	6.891464	1.167446	0.000138
 260	2.5770e+01	5.1580	60.437941	0.000466	4.661873	0.789743	0.000093
 261	2.5870e+01	5.1785	60.571166	0.000669	6.688774	1.133109	0.000134
 262	2.5970e+01	5.1975	60.655946	0.000426	4.256492	0.721069	0.000085
 263	2.6069e+01	5.2184	60.785134	0.000649	6.486084	1.098772	0.000130
 264	2.6169e+01	5.2393	60.898174	0.000568	5.675323	0.961426	0.000114
 265	2.6268e+01	5.2584	61.011214	0.000568	5.675323	0.961426	0.000114
 266	2.6367e+01	5.2775	61.116179	0.000527	5.269943	0.892753	0.000105
 267	2.6467e+01	5.2985	61.172699	0.000284	2.837662	0.480713	0.000057
 268	2.6567e+01	5.3172	61.346296	0.000872	8.715675	1.476475	0.000174
 269	2.6666e+01	5.3374	61.491633	0.000730	7.296844	1.236119	0.000146
 270	2.6765e+01	5.3581	61.564301	0.000365	3.648422	0.618059	0.000073
 271	2.6865e+01	5.3775	61.665230	0.000507	5.067253	0.858416	0.000101
 272	2.6965e+01	5.3978	61.826715	0.000811	8.107605	1.373465	0.000162
 273	2.7064e+01	5.4171	61.891309	0.000324	3.243042	0.549386	0.000065
 274	2.7163e+01	5.4369	62.008386	0.000588	5.878013	0.995762	0.000118
 275	2.7263e+01	5.4569	62.097203	0.000446	4.459183	0.755406	0.000089
 276	2.7363e+01	5.4775	62.202169	0.000527	5.269943	0.892753	0.000105
 277	2.7462e+01	5.4967	62.335394	0.000669	6.688774	1.133109	0.000134
 278	2.7561e+01	5.5161	62.428248	0.000466	4.661873	0.789743	0.000093
 279	2.7661e+01	5.5371	62.585697	0.000790	7.904915	1.339129	0.000158
 280	2.7761e+01	5.5570	62.622031	0.000182	1.824211	0.309030	0.000037
 281	2.7860e+01	5.5775	62.759294	0.000689	6.891464	1.167446	0.000138
 282	2.7959e+01	5.5965	62.876371	0.000588	5.878013	0.995762	0.000118
 283	2.8059e+01	5.6171	63.013633	0.000689	6.891464	1.167446	0.000138
 284	2.8159e+01	5.6370	63.106487	0.000466	4.661873	0.789743	0.000093
 285	2.8258e+01	5.6562	63.203379	0.000486	4.864563	0.824079	0.000097
 286	2.8358e+01	5.6763	63.332567	0.000649	6.486084	1.098772	0.000130
 287	2.8457e+01	5.6966	63.389087	0.000284	2.837662	0.480713	0.000057
 288	2.8556e+01	5.7165	63.542498	0.000770	7.702224	1.304792	0.000154
 289	2.8656e+01	5.7372	63.655538	0.000568	5.675323	0.961426	0.000114
 290	2.8756e+01	5.7568	63.764540	0.000547	5.472633	0.927089	0.000110
 291	2.8855e+01	5.7764	63.833172	0.000345	3.445732	0.583723	0.000069
 292	2.8954e+01	5.7964	63.966397	0.000669	6.688774	1.133109	0.000134
 293	2.9054e+01	5.8155	64.035029	0.000345	3.445732	0.583723	0.000069
 294	2.9154e+01	5.8353	64.160180	0.000628	6.283394	1.064436	0.000126
 295	2.9253e+01	5.8555	64.277257	0.000588	5.878013	0.995762	0.000118
 296	2.9352e+01	5.8750	64.374148	0.000486	4.864563	0.824079	0.000097
 297	2.9452e+01	5.8961	64.471039	0.000486	4.864563	0.824079	0.000097
 298	2.9552e+01	5.9161	64.580042	0.000547	5.472633	0.927089	0.000110
 299	2.9651e+01	5.9365	64.685007	0.000527	5.269943	0.892753	0.000105
 300	2.9750e+01	5.9550	64.798047	0.000568	5.675323	0.961426	0.000114
 301	2.9850e+01	5.9747	64.915124	0.000588	5.878013	0.995762	0.000118
 302	2.9950e+01	5.9946	64.999904	0.000426	4.256492	0.721069	0.000085
 303	3.0049e+01	6.0157	65.112944	0.000568	5.675323	0.961426	0.000114
 304	3.0148e+01	6.0358	65.234058	0.000608	6.080703	1.030099	0.000122
 305	3.0248e+01	6.0554	65.310763	0.000385	3.851112	0.652396	0.000077
 306	3.0348e+01	6.0748	65.456100	0.000730	7.296844	1.236119	0.000146
 307	3.0447e+01	6.0956	65.557029	0.000507	5.067253	0.858416	0.000101
 308	3.0547e+01	6.1147	65.649883	0.000466	4.661873	0.789743	0.000093
 309	3.0646e+01	6.1352	65.730626	0.000405	4.053802	0.686733	0.000081
 310	3.0745e+01	6.1553	65.843665	0.000568	5.675323	0.961426	0.000114
 311	3.0845e+01	6.1741	65.960742	0.000588	5.878013	0.995762	0.000118
 312	3.0945e+01	6.1947	66.081856	0.000608	6.080703	1.030099	0.000122
 313	3.1044e+01	6.2145	66.126265	0.000223	2.229591	0.377703	0.000045
 314	3.1143e+01	6.2349	66.255453	0.000649	6.486084	1.098772	0.000130
 315	3.1243e+01	6.2554	66.356382	0.000507	5.067253	0.858416	0.000101
 316	3.1343e+01	6.2739	66.453273	0.000486	4.864563	0.824079	0.000097
 317	3.1442e+01	6.2949	66.538053	0.000426	4.256492	0.721069	0.000085
 318	3.1541e+01	6.3126	66.663204	0.000628	6.283394	1.064436	0.000126
 319	3.1641e+01	6.3329	66.752021	0.000446	4.459183	0.755406	0.000089
 320	3.1741e+01	6.3528	66.873135	0.000608	6.080703	1.030099	0.000122
 321	3.1840e+01	6.3740	66.970026	0.000486	4.864563	0.824079	0.000097
 322	3.1939e+01	6.3929	67.083066	0.000568	5.675323	0.961426	0.000114
 323	3.2039e+01	6.4138	67.179957	0.000486	4.864563	0.824079	0.000097
 324	3.2139e+01	6.4333	67.276849	0.000486	4.864563	0.824079	0.000097
 325	3.2238e+01	6.4527	67.341443	0.000324	3.243042	0.549386	0.000065
 326	3.2337e+01	6.4725	67.482742	0.000709	7.094154	1.201782	0.000142
 327	3.2437e+01	6.4925	67.595782	0.000568	5.675323	0.961426	0.000114
 328	3.2536e+01	6.5124	67.668451	0.000365	3.648422	0.618059	0.000073
 329	3.2636e+01	6.5325	67.805713	0.000689	6.891464	1.167446	0.000138
 330	3.2736e+01	6.5519	67.854159	0.000243	2.432281	0.412040	0.000049
 331	3.2835e+01	6.5720	67.987384	0.000669	6.688774	1.133109	0.000134
 332	3.2934e+01	6.5936	68.072164	0.000426	4.256492	0.721069	0.000085
 333	3.3034e+01	6.6119	68.201353	0.000649	6.486084	1.098772	0.000130
 334	3.3133e+01	6.6331	68.245761	0.000223	2.229591	0.377703	0.000045
 335	3.3233e+01	6.6521	68.383024	0.000689	6.891464	1.167446	0.000138
 336	3.3333e+01	6.6718	68.483952	0.000507	5.067253	0.858416	0.000101
 337	3.3432e+01	6.6924	68.605066	0.000608	6.080703	1.030099	0.000122
 338	3.3532e+01	6.7113	68.681772	0.000385	3.851112	0.652396	0.000077
 339	3.3631e+01	6.7319	68.794812	0.000568	5.675323	0.961426	0.000114
 340	3.3730e+01	6.7518	68.887666	0.000466	4.661873	0.789743	0.000093
 341	3.3830e+01	6.7725	68.996668	0.000547	5.472633	0.927089	0.000110
 342	3.3929e+01	6.7920	69.097597	0.000507	5.067253	0.858416	0.000101
 343	3.4029e+01	6.8117	69.170265	0.000365	3.648422	0.618059	0.000073
 344	3.4129e+01	6.8313	69.295416	0.000628	6.283394	1.064436	0.000126
 345	3.4228e+01	6.8523	69.408456	0.000568	5.675323	0.961426	0.000114
 346	3.4328e+01	6.8715	69.505347	0.000486	4.864563	0.824079	0.000097
 347	3.4427e+01	6.8911	69.614350	0.000547	5.472633	0.927089	0.000110
 348	3.4526e+01	6.9113	69.715278	0.000507	5.067253	0.858416	0.000101
 349	3.4626e+01	6.9311	69.824281	0.000547	5.472633	0.927089	0.000110
 350	3.4725e+01	6.9506	69.977692	0.000770	7.702224	1.304792	0.000154
 351	3.4825e+01	6.9707	70.042286	0.000324	3.243042	0.549386	0.000065
 352	3.4925e+01	6.9894	70.163401	0.000608	6.080703	1.030099	0.000122
 353	3.5024e+01	7.0103	70.227995	0.000324	3.243042	0.549386	0.000065
 354	3.5123e+01	7.0308	70.361220	0.000669	6.688774	1.133109	0.000134
 355	3.5223e+01	7.0513	70.462149	0.000507	5.067253	0.858416	0.000101
 356	3.5322e+01	7.0703	70.526743	0.000324	3.243042	0.549386	0.000065
 357	3.5422e+01	7.0914	70.635745	0.000547	5.472633	0.927089	0.000110
 358	3.5522e+01	7.1105	70.744748	0.000547	5.472633	0.927089	0.000110
 359	3.5621e+01	7.1308	70.841639	0.000486	4.864563	0.824079	0.000097
 360	3.5721e+01	7.1502	70.950642	0.000547	5.472633	0.927089	0.000110
 361	3.5820e+01	7.1704	71.067719	0.000588	5.878013	0.995762	0.000118
 362	3.5919e+01	7.1902	71.172684	0.000527	5.269943	0.892753	0.000105
 363	3.6019e+01	7.2097	71.281687	0.000547	5.472633	0.927089	0.000110
 364	3.6118e+01	7.2295	71.350318	0.000345	3.445732	0.583723	0.000069
 365	3.6218e+01	7.2503	71.479507	0.000649	6.486084	1.098772	0.000130
 366	3.6318e+01	7.2707	71.608695	0.000649	6.486084	1.098772	0.000130
 367	3.6417e+01	7.2906	71.689438	0.000405	4.053802	0.686733	0.000081
 368	3.6517e+01	7.3092	71.810552	0.000608	6.080703	1.030099	0.000122
 369	3.6616e+01	7.3294	71.875146	0.000324	3.243042	0.549386	0.000065
 370	3.6715e+01	7.3493	71.992223	0.000588	5.878013	0.995762	0.000118
 371	3.6815e+01	7.3697	72.085077	0.000466	4.661873	0.789743	0.000093
 372	3.6914e+01	7.3888	72.198117	0.000568	5.675323	0.961426	0.000114
 373	3.7014e+01	7.4095	72.299045	0.000507	5.067253	0.858416	0.000101
 374	3.7114e+01	7.4297	72.412085	0.000568	5.675323	0.961426	0.000114
 375	3.7213e+01	7.4476	72.517051	0.000527	5.269943	0.892753	0.000105
 376	3.7313e+01	7.4680	72.581645	0.000324	3.243042	0.549386	0.000065
 377	3.7412e+01	7.4880	72.710833	0.000649	6.486084	1.098772	0.000130
 378	3.7511e+01	7.5081	72.840022	0.000649	6.486084	1.098772	0.000130
 379	3.7611e+01	7.5282	72.953061	0.000568	5.675323	0.961426	0.000114
 380	3.7711e+01	7.5481	73.029767	0.000385	3.851112	0.652396	0.000077
 381	3.7810e+01	7.5687	73.126658	0.000486	4.864563	0.824079	0.000097
 382	3.7910e+01	7.5886	73.223549	0.000486	4.864563	0.824079	0.000097
 383	3.8009e+01	7.6069	73.332552	0.000547	5.472633	0.927089	0.000110
 384	3.8108e+01	7.6283	73.429443	0.000486	4.864563	0.824079	0.000097
 385	3.8208e+01	7.6479	73.546520	0.000588	5.878013	0.995762	0.000118
 386	3.8307e+01	7.6681	73.671672	0.000628	6.283394	1.064436	0.000126
 387	3.8407e+01	7.6873	73.752414	0.000405	4.053802	0.686733	0.000081
 388	3.8507e+01	7.7071	73.881603	0.000649	6.486084	1.098772	0.000130
 389	3.8606e+01	7.7268	73.954271	0.000365	3.648422	0.618059	0.000073
 390	3.8706e+01	7.7475	74.030977	0.000385	3.851112	0.652396	0.000077
 391	3.8805e+01	7.7679	74.172276	0.000709	7.094154	1.201782	0.000142
 392	3.8904e+01	7.7881	74.281279	0.000547	5.472633	0.927089	0.000110
 393	3.9004e+01	7.8087	74.386245	0.000527	5.269943	0.892753	0.000105
 394	3.9103e+01	7.8281	74.523507	0.000689	6.891464	1.167446	0.000138
 395	3.9203e+01	7.8468	74.608287	0.000426	4.256492	0.721069	0.000085
 396	3.9303e+01	7.8672	74.697104	0.000446	4.459183	0.755406	0.000089
 397	3.9402e+01	7.8866	74.785921	0.000446	4.459183	0.755406	0.000089
 398	3.9502e+01	7.9065	74.882812	0.000486	4.864563	0.824079	0.000097
 399	3.9601e+01	7.9273	75.032186	0.000750	7.499534	1.270456	0.000150
 400	3.9700e+01	7.9468	75.125040	0.000466	4.661873	0.789743	0.000093
 401	3.9800e+01	7.9668	75.193672	0.000345	3.445732	0.583723	0.000069
 402	3.9900e+01	7.9865	75.339009	0.000730	7.296844	1.236119	0.000146
 403	3.9999e+01	8.0078	75.411677	0.000365	3.648422	0.618059	0.000073
 404	4.0099e+01	8.0256	75.528754	0.000588	5.878013	0.995762	0.000118
 405	4.0198e+01	8.0457	75.641794	0.000568	5.675323	0.961426	0.000114
 406	4.0297e+01	8.0664	75.766945	0.000628	6.283394	1.064436	0.000126
 407	4.0397e+01	8.0869	75.847688	0.000405	4.053802	0.686733	0.000081
 408	4.0496e+01	8.1059	75.952653	0.000527	5.269943	0.892753	0.000105
 409	4.0596e+01	8.1269	76.057619	0.000527	5.269943	0.892753	0.000105
 410	4.0696e+01	8.1462	76.154510	0.000486	4.864563	0.824079	0.000097
 411	4.0795e+01	8.1660	76.283698	0.000649	6.486084	1.098772	0.000130
 412	4.0895e+01	8.1853	76.372515	0.000446	4.459183	0.755406	0.000089
 413	4.0994e+01	8.2045	76.449221	0.000385	3.851112	0.652396	0.000077
 414	4.1093e+01	8.2254	76.590521	0.000709	7.094154	1.201782	0.000142
 415	4.1193e+01	8.2464	76.711635	0.000608	6.080703	1.030099	0.000122
 416	4.1292e+01	8.2642	76.808526	0.000486	4.864563	0.824079	0.000097
 417	4.1392e+01	8.2854	76.873120	0.000324	3.243042	0.549386	0.000065
 418	4.1492e+01	8.3051	76.965974	0.000466	4.661873	0.789743	0.000093
 419	4.1591e+01	8.3257	77.123423	0.000790	7.904915	1.339129	0.000158
 420	4.1691e+01	8.3447	77.204165	0.000405	4.053802	0.686733	0.000081
 421	4.1790e+01	8.3649	77.292982	0.000446	4.459183	0.755406	0.000089
 422	4.1889e+01	8.3846	77.393911	0.000507	5.067253	0.858416	0.000101
 423	4.1989e+01	8.4052	77.510988	0.000588	5.878013	0.995762	0.000118
 424	4.2089e+01	8.4241	77.603842	0.000466	4.661873	0.789743	0.000093
 425	4.2188e+01	8.4453	77.688622	0.000426	4.256492	0.721069	0.000085
 426	4.2288e+01	8.4644	77.825884	0.000689	6.891464	1.167446	0.000138
 427	4.2387e+01	8.4846	77.918738	0.000466	4.661873	0.789743	0.000093
 428	4.2486e+01	8.5043	78.027741	0.000547	5.472633	0.927089	0.000110
 429	4.2586e+01	8.5242	78.096372	0.000345	3.445732	0.583723	0.000069
 430	4.2685e+01	8.5433	78.193264	0.000486	4.864563	0.824079	0.000097
 431	4.2785e+01	8.5645	78.330526	0.000689	6.891464	1.167446	0.000138
 432	4.2885e+01	8.5864	78.427417	0.000486	4.864563	0.824079	0.000097
 433	4.2984e+01	8.6047	78.524309	0.000486	4.864563	0.824079	0.000097
 434	4.3084e+01	8.6234	78.637348	0.000568	5.675323	0.961426	0.000114
 435	4.3183e+01	8.6430	78.746351	0.000547	5.472633	0.927089	0.000110
 436	4.3282e+01	8.6630	78.867465	0.000608	6.080703	1.030099	0.000122
 437	4.3382e+01	8.6841	78.948208	0.000405	4.053802	0.686733	0.000081
 438	4.3481e+01	8.7030	79.028951	0.000405	4.053802	0.686733	0.000081
 439	4.3581e+01	8.7235	79.133916	0.000527	5.269943	0.892753	0.000105
 440	4.3681e+01	8.7439	79.263105	0.000649	6.486084	1.098772	0.000130
 441	4.3780e+01	8.7630	79.331736	0.000345	3.445732	0.583723	0.000069
 442	4.3880e+01	8.7833	79.400367	0.000345	3.445732	0.583723	0.000069
 443	4.3979e+01	8.8026	79.517444	0.000588	5.878013	0.995762	0.000118
 444	4.4078e+01	8.8235	79.654707	0.000689	6.891464	1.167446	0.000138
 445	4.4178e+01	8.8420	79.755635	0.000507	5.067253	0.858416	0.000101
 446	4.4278e+01	8.8614	79.852526	0.000486	4.864563	0.824079	0.000097
 447	4.4377e+01	8.8818	79.933269	0.000405	4.053802	0.686733	0.000081
 448	4.4477e+01	8.9021	80.018049	0.000426	4.256492	0.721069	0.000085
 449	4.4576e+01	8.9225	80.143200	0.000628	6.283394	1.064436	0.000126
 450	4.4675e+01	8.9417	80.199720	0.000284	2.837662	0.480713	0.000057
 451	4.4775e+01	8.9622	80.336983	0.000689	6.891464	1.167446	0.000138
 452	4.4874e+01	8.9816	80.433874	0.000486	4.864563	0.824079	0.000097
 453	4.4974e+01	9.0012	80.550951	0.000588	5.878013	0.995762	0.000118
 454	4.5074e+01	9.0211	80.631694	0.000405	4.053802	0.686733	0.000081
 455	4.5173e+01	9.0430	80.724548	0.000466	4.661873	0.789743	0.000093
 456	4.5273e+01	9.0615	80.845662	0.000608	6.080703	1.030099	0.000122
 457	4.5372e+01	9.0820	80.982924	0.000689	6.891464	1.167446	0.000138
 458	4.5471e+01	9.1016	81.011184	0.000142	1.418831	0.240356	0.000028
 459	4.5571e+01	9.1206	81.095964	0.000426	4.256492	0.721069	0.000085
 460	4.5670e+01	9.1416	81.245338	0.000750	7.499534	1.270456	0.000150
 461	4.5770e+01	9.1614	81.346267	0.000507	5.067253	0.858416	0.000101
 462	4.5870e+01	9.1812	81.439121	0.000466	4.661873	0.789743	0.000093
 463	4.5969e+01	9.2007	81.527938	0.000446	4.459183	0.755406	0.000089
 464	4.6069e+01	9.2221	81.584458	0.000284	2.837662	0.480713	0.000057
 465	4.6168e+01	9.2408	81.721720	0.000689	6.891464	1.167446	0.000138
 466	4.6267e+01	9.2609	81.818611	0.000486	4.864563	0.824079	0.000097
 467	4.6367e+01	9.2807	81.935688	0.000588	5.878013	0.995762	0.000118
 468	4.6467e+01	9.3006	82.040654	0.000527	5.269943	0.892753	0.000105
 469	4.6566e+01	9.3189	82.125434	0.000426	4.256492	0.721069	0.000085
 470	4.6666e+01	9.3400	82.230399	0.000527	5.269943	0.892753	0.000105
 471	4.6765e+01	9.3607	82.307105	0.000385	3.851112	0.652396	0.000077
 472	4.6864e+01	9.3799	82.408033	0.000507	5.067253	0.858416	0.000101
 473	4.6964e+01	9.4006	82.517036	0.000547	5.472633	0.927089	0.000110
 474	4.7063e+01	9.4193	82.650261	0.000669	6.688774	1.133109	0.000134
 475	4.7163e+01	9.4409	82.690633	0.000203	2.026901	0.343366	0.000041
 476	4.7263e+01	9.4595	82.811747	0.000608	6.080703	1.030099	0.000122
 477	4.7362e+01	9.4794	82.896527	0.000426	4.256492	0.721069	0.000085
 478	4.7462e+01	9.4995	83.013604	0.000588	5.878013	0.995762	0.000118
 479	4.7561e+01	9.5203	83.074161	0.000304	3.040352	0.515050	0.000061
 480	4.7660e+01	9.5395	83.195275	0.000608	6.080703	1.030099	0.000122
 481	4.7760e+01	9.5599	83.288129	0.000466	4.661873	0.789743	0.000093
 482	4.7859e+01	9.5802	83.364834	0.000385	3.851112	0.652396	0.000077
 483	4.7959e+01	9.5996	83.485948	0.000608	6.080703	1.030099	0.000122
 484	4.8059e+01	9.6196	83.598988	0.000568	5.675323	0.961426	0.000114
 485	4.8158e+01	9.6387	83.699917	0.000507	5.067253	0.858416	0.000101
 486	4.8258e+01	9.6595	83.825068	0.000628	6.283394	1.064436	0.000126
 487	4.8357e+01	9.6783	83.889662	0.000324	3.243042	0.549386	0.000065
 488	4.8456e+01	9.6981	83.974442	0.000426	4.256492	0.721069	0.000085
 489	4.8556e+01	9.7195	84.075370	0.000507	5.067253	0.858416	0.000101
 490	4.8656e+01	9.7382	84.184373	0.000547	5.472633	0.927089	0.000110
 491	4.8755e+01	9.7588	84.285301	0.000507	5.067253	0.858416	0.000101
 492	4.8855e+01	9.7779	84.374118	0.000446	4.459183	0.755406	0.000089
 493	4.8954e+01	9.7976	84.462935	0.000446	4.459183	0.755406	0.000089
 494	4.9053e+01	9.8175	84.539641	0.000385	3.851112	0.652396	0.000077
 495	4.9153e+01	9.8386	84.676904	0.000689	6.891464	1.167446	0.000138
 496	4.9252e+01	9.8576	84.753609	0.000385	3.851112	0.652396	0.000077
 497	4.9352e+01	9.8782	84.866649	0.000568	5.675323	0.961426	0.000114
 498	4.9452e+01	9.8988	84.975652	0.000547	5.472633	0.927089	0.000110
 499	4.9551e+01	9.9179	85.032171	0.000284	2.837662	0.480713	0.000057
 500	4.9651e+01	9.9375	85.141174	0.000547	5.472633	0.927089	0.000110
 501	4.9750e+01	9.9574	85.254214	0.000568	5.675323	0.961426	0.000114
 502	4.9849e+01	9.9771	85.391477	0.000689	6.891464	1.167446	0.000138
 503	4.9949e+01	9.9976	85.452034	0.000304	3.040352	0.515050	0.000061
 504	5.0048e+01	9.9771	85.443959	0.000041	0.405380	0.068673	-0.000008
 505	5.0148e+01	9.9582	85.375328	0.000345	3.445732	0.583723	-0.000069
 506	5.0248e+01	9.9375	85.318808	0.000284	2.837662	0.480713	-0.000057
 507	5.0347e+01	9.9182	85.294585	0.000122	1.216141	0.206020	-0.000024
 508	5.0447e+01	9.8983	85.286511	0.000041	0.405380	0.068673	-0.000008
 509	5.0546e+01	9.8782	85.197694	0.000446	4.459183	0.755406	-0.000089
 510	5.0645e+01	9.8584	85.161360	0.000182	1.824211	0.309030	-0.000037
 511	5.0745e+01	9.8389	85.125026	0.000182	1.824211	0.309030	-0.000037
 512	5.0844e+01	9.8184	85.088691	0.000182	1.824211	0.309030	-0.000037
 513	5.0944e+01	9.7986	85.044283	0.000223	2.229591	0.377703	-0.000045
 514	5.1044e+01	9.7803	84.983726	0.000304	3.040352	0.515050	-0.000061
 515	5.1143e+01	9.7590	84.947392	0.000182	1.824211	0.309030	-0.000037
 516	5.1242e+01	9.7383	84.890872	0.000284	2.837662	0.480713	-0.000057
 517	5.1342e+01	9.7190	84.858575	0.000162	1.621521	0.274693	-0.000032
 518	5.1441e+01	9.6980	84.838389	0.000101	1.013451	0.171683	-0.000020
 519	5.1541e+01	9.6783	84.785906	0.000263	2.634972	0.446376	-0.000053
 520	5.1641e+01	9.6593	84.725349	0.000304	3.040352	0.515050	-0.000061
 521	5.1740e+01	9.6393	84.684978	0.000203	2.026901	0.343366	-0.000041
 522	5.1840e+01	9.6198	84.628458	0.000284	2.837662	0.480713	-0.000057
 523	5.1939e+01	9.5988	84.555789	0.000365	3.648422	0.618059	-0.000073
 524	5.2038e+01	9.5801	84.511381	0.000223	2.229591	0.377703	-0.000045
 525	5.2138e+01	9.5593	84.458898	0.000263	2.634972	0.446376	-0.000053
 526	5.2237e+01	9.5387	84.398341	0.000304	3.040352	0.515050	-0.000061
 527	5.2337e+01	9.5194	84.353933	0.000223	2.229591	0.377703	-0.000045
 528	5.2437e+01	9.5000	84.317598	0.000182	1.824211	0.309030	-0.000037
 529	5.2536e+01	9.4800	84.265116	0.000263	2.634972	0.446376	-0.000053
 530	5.2636e+01	9.4598	84.188410	0.000385	3.851112	0.652396	-0.000077
 531	5.2735e+01	9.4411	84.168224	0.000101	1.013451	0.171683	-0.000020
 532	5.2834e+01	9.4193	84.103630	0.000324	3.243042	0.549386	-0.000065
 533	5.2934e+01	9.3995	84.075370	0.000142	1.418831	0.240356	-0.000028
 534	5.3033e+01	9.3808	84.010776	0.000324	3.243042	0.549386	-0.000065
 535	5.3133e+01	9.3607	83.966368	0.000223	2.229591	0.377703	-0.000045
 536	5.3233e+01	9.3410	83.901773	0.000324	3.243042	0.549386	-0.000065
 537	5.3332e+01	9.3210	83.829105	0.000365	3.648422	0.618059	-0.000073
 538	5.3431e+01	9.2996	83.784697	0.000223	2.229591	0.377703	-0.000045
 539	5.3531e+01	9.2803	83.772585	0.000061	0.608070	0.103010	-0.000012
 540	5.3630e+01	9.2603	83.712028	0.000304	3.040352	0.515050	-0.000061
 541	5.3730e+01	9.2414	83.647434	0.000324	3.243042	0.549386	-0.000065
 542	5.3830e+01	9.2207	83.594951	0.000263	2.634972	0.446376	-0.000053
 543	5.3929e+01	9.2013	83.534394	0.000304	3.040352	0.515050	-0.000061
 544	5.4029e+01	9.1808	83.485948	0.000243	2.432281	0.412040	-0.000049
 545	5.4128e+01	9.1614	83.437503	0.000243	2.432281	0.412040	-0.000049
 546	5.4227e+01	9.1411	83.348686	0.000446	4.459183	0.755406	-0.000089
 547	5.4327e+01	9.1217	83.308315	0.000203	2.026901	0.343366	-0.000041
 548	5.4426e+01	9.1016	83.251795	0.000284	2.837662	0.480713	-0.000057
 549	5.4526e+01	9.0811	83.203349	0.000243	2.432281	0.412040	-0.000049
 550	5.4626e+01	9.0615	83.150866	0.000263	2.634972	0.446376	-0.000053
 551	5.4725e+01	9.0417	83.053975	0.000486	4.864563	0.824079	-0.000097
 552	5.4825e+01	9.0222	83.025715	0.000142	1.418831	0.240356	-0.000028
 553	5.4924e+01	9.0024	82.969195	0.000284	2.837662	0.480713	-0.000057
 554	5.5023e+01	8.9809	82.916712	0.000263	2.634972	0.446376	-0.000053
 555	5.5123e+01	8.9618	82.840007	0.000385	3.851112	0.652396	-0.000077
 556	5.5222e+01	8.9419	82.791561	0.000243	2.432281	0.412040	-0.000049
 557	5.5322e+01	8.9230	82.735041	0.000284	2.837662	0.480713	-0.000057
 558	5.5422e+01	8.9024	82.674484	0.000304	3.040352	0.515050	-0.000061
 559	5.5521e+01	8.8828	82.626039	0.000243	2.432281	0.412040	-0.000049
 560	5.5620e+01	8.8625	82.581630	0.000223	2.229591	0.377703	-0.000045
 561	5.5720e+01	8.8431	82.521073	0.000304	3.040352	0.515050	-0.000061
 562	5.5819e+01	8.8235	82.476665	0.000223	2.229591	0.377703	-0.000045
 563	5.5919e+01	8.8032	82.440330	0.000182	1.824211	0.309030	-0.000037
 564	5.6019e+01	8.7833	82.355550	0.000426	4.256492	0.721069	-0.000085
 565	5.6118e+01	8.7634	82.290956	0.000324	3.243042	0.549386	-0.000065
 566	5.6218e+01	8.7430	82.242511	0.000243	2.432281	0.412040	-0.000049
 567	5.6317e+01	8.7231	82.194065	0.000243	2.432281	0.412040	-0.000049
 568	5.6416e+01	8.7030	82.129471	0.000324	3.243042	0.549386	-0.000065
 569	5.6516e+01	8.6832	82.072951	0.000284	2.837662	0.480713	-0.000057
 570	5.6615e+01	8.6634	81.984134	0.000446	4.459183	0.755406	-0.000089
 571	5.6715e+01	8.6430	81.959911	0.000122	1.216141	0.206020	-0.000024
 572	5.6815e+01	8.6234	81.915503	0.000223	2.229591	0.377703	-0.000045
 573	5.6914e+01	8.6042	81.838797	0.000385	3.851112	0.652396	-0.000077
 574	5.7014e+01	8.5844	81.745943	0.000466	4.661873	0.789743	-0.000093
 575	5.7113e+01	8.5645	81.717683	0.000142	1.418831	0.240356	-0.000028
 576	5.7212e+01	8.5439	81.632903	0.000426	4.256492	0.721069	-0.000085
 577	5.7312e+01	8.5240	81.592532	0.000203	2.026901	0.343366	-0.000041
 578	5.7411e+01	8.5046	81.527938	0.000324	3.243042	0.549386	-0.000065
 579	5.7511e+01	8.4837	81.447195	0.000405	4.053802	0.686733	-0.000081
 580	5.7611e+01	8.4647	81.386638	0.000304	3.040352	0.515050	-0.000061
 581	5.7710e+01	8.4436	81.346267	0.000203	2.026901	0.343366	-0.000041
 582	5.7809e+01	8.4252	81.293784	0.000263	2.634972	0.446376	-0.000053
 583	5.7909e+01	8.4047	81.221115	0.000365	3.648422	0.618059	-0.000073
 584	5.8008e+01	8.3855	81.136335	0.000426	4.256492	0.721069	-0.000085
 585	5.8108e+01	8.3660	81.132298	0.000020	0.202690	0.034337	-0.000004
 586	5.8208e+01	8.3447	80.962739	0.000851	8.512985	1.442139	-0.000170
 587	5.8307e+01	8.3244	80.974850	-0.000061	-0.608070	-0.103010	0.000012
 588	5.8407e+01	8.3051	80.894107	0.000405	4.053802	0.686733	-0.000081
 589	5.8506e+01	8.2856	80.853736	0.000203	2.026901	0.343366	-0.000041
 590	5.8605e+01	8.2650	80.789142	0.000324	3.243042	0.549386	-0.000065
 591	5.8705e+01	8.2456	80.720511	0.000345	3.445732	0.583723	-0.000069
 592	5.8804e+01	8.2259	80.631694	0.000446	4.459183	0.755406	-0.000089
 593	5.8904e+01	8.2056	80.575174	0.000284	2.837662	0.480713	-0.000057
 594	5.9004e+01	8.1860	80.522691	0.000263	2.634972	0.446376	-0.000053
 595	5.9103e+01	8.1657	80.441948	0.000405	4.053802	0.686733	-0.000081
 596	5.9203e+01	8.1464	80.393503	0.000243	2.432281	0.412040	-0.000049
 597	5.9302e+01	8.1257	80.308723	0.000426	4.256492	0.721069	-0.000085
 598	5.9401e+01	8.1062	80.248166	0.000304	3.040352	0.515050	-0.000061
 599	5.9501e+01	8.0884	80.159349	0.000446	4.459183	0.755406	-0.000089
 600	5.9600e+01	8.0657	80.114940	0.000223	2.229591	0.377703	-0.000045
 601	5.9700e+01	8.0462	80.034197	0.000405	4.053802	0.686733	-0.000081
 602	5.9800e+01	8.0267	79.989789	0.000223	2.229591	0.377703	-0.000045
 603	5.9899e+01	8.0072	79.913083	0.000385	3.851112	0.652396	-0.000077
 604	5.9998e+01	7.9869	79.816192	0.000486	4.864563	0.824079	-0.000097
 605	6.0098e+01	7.9669	79.759672	0.000284	2.837662	0.480713	-0.000057
 606	6.0197e+01	7.9471	79.707189	0.000263	2.634972	0.446376	-0.000053
 607	6.0297e+01	7.9270	79.594150	0.000568	5.675323	0.961426	-0.000114
 608	6.0397e+01	7.9070	79.582038	0.000061	0.608070	0.103010	-0.000012
 609	6.0496e+01	7.8867	79.489184	0.000466	4.661873	0.789743	-0.000093
 610	6.0596e+01	7.8668	79.440738	0.000243	2.432281	0.412040	-0.000049
 611	6.0695e+01	7.8472	79.364033	0.000385	3.851112	0.652396	-0.000077
 612	6.0794e+01	7.8271	79.279253	0.000426	4.256492	0.721069	-0.000085
 613	6.0894e+01	7.8079	79.210622	0.000345	3.445732	0.583723	-0.000069
 614	6.0993e+01	7.7884	79.133916	0.000385	3.851112	0.652396	-0.000077
 615	6.1093e+01	7.7671	79.073359	0.000304	3.040352	0.515050	-0.000061
 616	6.1193e+01	7.7477	78.988579	0.000426	4.256492	0.721069	-0.000085
 617	6.1292e+01	7.7286	78.936097	0.000263	2.634972	0.446376	-0.000053
 618	6.1392e+01	7.7079	78.843242	0.000466	4.661873	0.789743	-0.000093
 619	6.1491e+01	7.6876	78.774611	0.000345	3.445732	0.583723	-0.000069
 620	6.1590e+01	7.6676	78.697906	0.000385	3.851112	0.652396	-0.000077
 621	6.1690e+01	7.6479	78.621200	0.000385	3.851112	0.652396	-0.000077
 622	6.1789e+01	7.6276	78.568717	0.000263	2.634972	0.446376	-0.000053
 623	6.1889e+01	7.6077	78.479900	0.000446	4.459183	0.755406	-0.000089
 624	6.1989e+01	7.5879	78.395120	0.000426	4.256492	0.721069	-0.000085
 625	6.2088e+01	7.5684	78.326489	0.000345	3.445732	0.583723	-0.000069
 626	6.2188e+01	7.5478	78.253821	0.000365	3.648422	0.618059	-0.000073
 627	6.2287e+01	7.5285	78.213449	0.000203	2.026901	0.343366	-0.000041
 628	6.2386e+01	7.5089	78.088298	0.000628	6.283394	1.064436	-0.000126
 629	6.2486e+01	7.4889	78.023704	0.000324	3.243042	0.549386	-0.000065
 630	6.2586e+01	7.4685	77.951035	0.000365	3.648422	0.618059	-0.000073
 631	6.2685e+01	7.4493	77.870293	0.000405	4.053802	0.686733	-0.000081
 632	6.2785e+01	7.4291	77.777439	0.000466	4.661873	0.789743	-0.000093
 633	6.2884e+01	7.4082	77.741104	0.000182	1.824211	0.309030	-0.000037
 634	6.2983e+01	7.3882	77.652287	0.000446	4.459183	0.755406	-0.000089
 635	6.3083e+01	7.3695	77.563470	0.000446	4.459183	0.755406	-0.000089
 636	6.3182e+01	7.3492	77.494839	0.000345	3.445732	0.583723	-0.000069
 637	6.3282e+01	7.3296	77.410059	0.000426	4.256492	0.721069	-0.000085
 638	6.3382e+01	7.3088	77.329316	0.000405	4.053802	0.686733	-0.000081
 639	6.3481e+01	7.2895	77.292982	0.000182	1.824211	0.309030	-0.000037
 640	6.3581e+01	7.2678	77.212240	0.000405	4.053802	0.686733	-0.000081
 641	6.3680e+01	7.2504	77.083051	0.000649	6.486084	1.098772	-0.000130
 642	6.3779e+01	7.2292	77.066903	0.000081	0.810760	0.137347	-0.000016
 643	6.3879e+01	7.2105	76.945789	0.000608	6.080703	1.030099	-0.000122
 644	6.3978e+01	7.1893	76.885232	0.000304	3.040352	0.515050	-0.000061
 645	6.4078e+01	7.1712	76.816600	0.000345	3.445732	0.583723	-0.000069
 646	6.4177e+01	7.1503	76.683375	0.000669	6.688774	1.133109	-0.000134
 647	6.4277e+01	7.1302	76.634929	0.000243	2.432281	0.412040	-0.000049
 648	6.4376e+01	7.1098	76.525926	0.000547	5.472633	0.927089	-0.000110
 649	6.4476e+01	7.0901	76.469407	0.000284	2.837662	0.480713	-0.000057
 650	6.4576e+01	7.0704	76.360404	0.000547	5.472633	0.927089	-0.000110
 651	6.4675e+01	7.0500	76.324070	0.000182	1.824211	0.309030	-0.000037
 652	6.4775e+01	7.0307	76.202956	0.000608	6.080703	1.030099	-0.000122
 653	6.4874e+01	7.0101	76.142399	0.000304	3.040352	0.515050	-0.000061
 654	6.4974e+01	6.9909	76.061656	0.000405	4.053802	0.686733	-0.000081
 655	6.5073e+01	6.9727	75.993025	0.000345	3.445732	0.583723	-0.000069
 656	6.5172e+01	6.9516	75.888059	0.000527	5.269943	0.892753	-0.000105
 657	6.5272e+01	6.9311	75.843651	0.000223	2.229591	0.377703	-0.000045
 658	6.5371e+01	6.9112	75.734648	0.000547	5.472633	0.927089	-0.000110
 659	6.5471e+01	6.8913	75.633719	0.000507	5.067253	0.858416	-0.000101
 660	6.5570e+01	6.8714	75.544902	0.000446	4.459183	0.755406	-0.000089
 661	6.5670e+01	6.8507	75.508568	0.000182	1.824211	0.309030	-0.000037
 662	6.5769e+01	6.8312	75.395528	0.000568	5.675323	0.961426	-0.000114
 663	6.5869e+01	6.8108	75.302674	0.000466	4.661873	0.789743	-0.000093
 664	6.5969e+01	6.7913	75.213857	0.000446	4.459183	0.755406	-0.000089
 665	6.6068e+01	6.7718	75.149263	0.000324	3.243042	0.549386	-0.000065
 666	6.6168e+01	6.7519	75.068520	0.000405	4.053802	0.686733	-0.000081
 667	6.6267e+01	6.7318	74.983741	0.000426	4.256492	0.721069	-0.000085
 668	6.6367e+01	6.7117	74.894924	0.000446	4.459183	0.755406	-0.000089
 669	6.6466e+01	6.6911	74.798032	0.000486	4.864563	0.824079	-0.000097
 670	6.6566e+01	6.6721	74.753624	0.000223	2.229591	0.377703	-0.000045
 671	6.6665e+01	6.6518	74.644621	0.000547	5.472633	0.927089	-0.000110
 672	6.6764e+01	6.6320	74.624436	0.000101	1.013451	0.171683	-0.000020
 673	6.6864e+01	6.6125	74.471024	0.000770	7.702224	1.304792	-0.000154
 674	6.6963e+01	6.5920	74.382207	0.000446	4.459183	0.755406	-0.000089
 675	6.7063e+01	6.5719	74.313576	0.000345	3.445732	0.583723	-0.000069
 676	6.7162e+01	6.5528	74.200536	0.000568	5.675323	0.961426	-0.000114
 677	6.7262e+01	6.5322	74.144016	0.000284	2.837662	0.480713	-0.000057
 678	6.7362e+01	6.5124	74.067311	0.000385	3.851112	0.652396	-0.000077
 679	6.7461e+01	6.4919	73.974457	0.000466	4.661873	0.789743	-0.000093
 680	6.7561e+01	6.4727	73.909863	0.000324	3.243042	0.549386	-0.000065
 681	6.7660e+01	6.4529	73.780674	0.000649	6.486084	1.098772	-0.000130
 682	6.7760e+01	6.4327	73.716080	0.000324	3.243042	0.549386	-0.000065
 683	6.7859e+01	6.4136	73.639374	0.000385	3.851112	0.652396	-0.000077
 684	6.7959e+01	6.3932	73.538446	0.000507	5.067253	0.858416	-0.000101
 685	6.8058e+01	6.3738	73.461740	0.000385	3.851112	0.652396	-0.000077
 686	6.8157e+01	6.3528	73.397146	0.000324	3.243042	0.549386	-0.000065
 687	6.8257e+01	6.3326	73.356775	0.000203	2.026901	0.343366	-0.000041
 688	6.8356e+01	6.3135	73.247772	0.000547	5.472633	0.927089	-0.000110
 689	6.8456e+01	6.2936	73.154918	0.000466	4.661873	0.789743	-0.000093
 690	6.8555e+01	6.2737	73.070138	0.000426	4.256492	0.721069	-0.000085
 691	6.8655e+01	6.2536	72.993433	0.000385	3.851112	0.652396	-0.000077
 692	6.8754e+01	6.2347	72.888467	0.000527	5.269943	0.892753	-0.000105
 693	6.8854e+01	6.2150	72.803687	0.000426	4.256492	0.721069	-0.000085
 694	6.8954e+01	6.1940	72.735056	0.000345	3.445732	0.583723	-0.000069
 695	6.9053e+01	6.1742	72.642202	0.000466	4.661873	0.789743	-0.000093
 696	6.9153e+01	6.1547	72.557422	0.000426	4.256492	0.721069	-0.000085
 697	6.9252e+01	6.1346	72.480716	0.000385	3.851112	0.652396	-0.000077
 698	6.9352e+01	6.1149	72.391899	0.000446	4.459183	0.755406	-0.000089
 699	6.9451e+01	6.0952	72.311157	0.000405	4.053802	0.686733	-0.000081
 700	6.9550e+01	6.0748	72.222340	0.000446	4.459183	0.755406	-0.000089
 701	6.9650e+01	6.0549	72.129486	0.000466	4.661873	0.789743	-0.000093
 702	6.9749e+01	6.0354	72.044706	0.000426	4.256492	0.721069	-0.000085
 703	6.9849e+01	6.0156	72.004334	0.000203	2.026901	0.343366	-0.000041
 704	6.9948e+01	5.9965	71.891295	0.000568	5.675323	0.961426	-0.000114
 705	7.0048e+01	5.9788	71.790366	0.000507	5.067253	0.858416	-0.000101
 706	7.0147e+01	5.9551	71.725772	0.000324	3.243042	0.549386	-0.000065
 707	7.0247e+01	5.9351	71.584472	0.000709	7.094154	1.201782	-0.000142
 708	7.0347e+01	5.9150	71.540064	0.000223	2.229591	0.377703	-0.000045
 709	7.0446e+01	5.8951	71.455284	0.000426	4.256492	0.721069	-0.000085
 710	7.0546e+01	5.8758	71.374541	0.000405	4.053802	0.686733	-0.000081
 711	7.0645e+01	5.8554	71.277650	0.000486	4.864563	0.824079	-0.000097
 712	7.0745e+01	5.8347	71.160573	0.000588	5.878013	0.995762	-0.000118
 713	7.0844e+01	5.8163	71.132313	0.000142	1.418831	0.240356	-0.000028
 714	7.0944e+01	5.7960	71.019273	0.000568	5.675323	0.961426	-0.000114
 715	7.1043e+01	5.7767	70.954679	0.000324	3.243042	0.549386	-0.000065
 716	7.1142e+01	5.7558	70.869899	0.000426	4.256492	0.721069	-0.000085
 717	7.1242e+01	5.7363	70.736674	0.000669	6.688774	1.133109	-0.000134
 718	7.1341e+01	5.7162	70.647857	0.000446	4.459183	0.755406	-0.000089
 719	7.1441e+01	5.6963	70.550966	0.000486	4.864563	0.824079	-0.000097
 720	7.1540e+01	5.6768	70.506557	0.000223	2.229591	0.377703	-0.000045
 721	7.1640e+01	5.6564	70.425814	0.000405	4.053802	0.686733	-0.000081
 722	7.1740e+01	5.6363	70.304700	0.000608	6.080703	1.030099	-0.000122
 723	7.1839e+01	5.6174	70.260292	0.000223	2.229591	0.377703	-0.000045
 724	7.1939e+01	5.5962	70.163401	0.000486	4.864563	0.824079	-0.000097
 725	7.2038e+01	5.5773	70.046324	0.000588	5.878013	0.995762	-0.000118
 726	7.2138e+01	5.5567	69.977692	0.000345	3.445732	0.583723	-0.000069
 727	7.2237e+01	5.5373	69.900987	0.000385	3.851112	0.652396	-0.000077
 728	7.2337e+01	5.5171	69.820244	0.000405	4.053802	0.686733	-0.000081
 729	7.2436e+01	5.4972	69.707204	0.000568	5.675323	0.961426	-0.000114
 730	7.2535e+01	5.4775	69.642610	0.000324	3.243042	0.549386	-0.000065
 731	7.2635e+01	5.4575	69.541682	0.000507	5.067253	0.858416	-0.000101
 732	7.2734e+01	5.4368	69.432679	0.000547	5.472633	0.927089	-0.000110
 733	7.2834e+01	5.4168	69.376159	0.000284	2.837662	0.480713	-0.000057
 734	7.2933e+01	5.3981	69.279268	0.000486	4.864563	0.824079	-0.000097
 735	7.3033e+01	5.3777	69.202562	0.000385	3.851112	0.652396	-0.000077
 736	7.3132e+01	5.3576	69.133931	0.000345	3.445732	0.583723	-0.000069
 737	7.3232e+01	5.3374	69.020891	0.000568	5.675323	0.961426	-0.000114
 738	7.3332e+01	5.3173	68.936111	0.000426	4.256492	0.721069	-0.000085
 739	7.3431e+01	5.2969	68.859406	0.000385	3.851112	0.652396	-0.000077
 740	7.3531e+01	5.2776	68.758477	0.000507	5.067253	0.858416	-0.000101
 741	7.3630e+01	5.2581	68.653512	0.000527	5.269943	0.892753	-0.000105
 742	7.3730e+01	5.2384	68.588918	0.000324	3.243042	0.549386	-0.000065
 743	7.3829e+01	5.2177	68.500101	0.000446	4.459183	0.755406	-0.000089
 744	7.3928e+01	5.1980	68.411284	0.000446	4.459183	0.755406	-0.000089
 745	7.4028e+01	5.1793	68.318430	0.000466	4.661873	0.789743	-0.000093
 746	7.4127e+01	5.1583	68.213464	0.000527	5.269943	0.892753	-0.000105
 747	7.4227e+01	5.1382	68.100424	0.000568	5.675323	0.961426	-0.000114
 748	7.4326e+01	5.1182	68.068127	0.000162	1.621521	0.274693	-0.000032
 749	7.4426e+01	5.0987	67.938939	0.000649	6.486084	1.098772	-0.000130
 750	7.4525e+01	5.0787	67.878382	0.000304	3.040352	0.515050	-0.000061
 751	7.4625e+01	5.0588	67.797639	0.000405	4.053802	0.686733	-0.000081
 752	7.4725e+01	5.0397	67.668451	0.000649	6.486084	1.098772	-0.000130
 753	7.4824e+01	5.0197	67.607894	0.000304	3.040352	0.515050	-0.000061
 754	7.4924e+01	4.9989	67.519077	0.000446	4.459183	0.755406	-0.000089
 755	7.5023e+01	4.9786	67.406037	0.000568	5.675323	0.961426	-0.000114
 756	7.5123e+01	4.9597	67.321257	0.000426	4.256492	0.721069	-0.000085
 757	7.5222e+01	4.9393	67.204180	0.000588	5.878013	0.995762	-0.000118
 758	7.5322e+01	4.9194	67.143623	0.000304	3.040352	0.515050	-0.000061
 759	7.5421e+01	4.8995	67.018472	0.000628	6.283394	1.064436	-0.000126
 760	7.5520e+01	4.8790	66.937729	0.000405	4.053802	0.686733	-0.000081
 761	7.5620e+01	4.8602	66.865061	0.000365	3.648422	0.618059	-0.000073
 762	7.5719e+01	4.8409	66.764132	0.000507	5.067253	0.858416	-0.000101
 763	7.5819e+01	4.8208	66.651092	0.000568	5.675323	0.961426	-0.000114
 764	7.5918e+01	4.8006	66.550164	0.000507	5.067253	0.858416	-0.000101
 765	7.6018e+01	4.7791	66.465384	0.000426	4.256492	0.721069	-0.000085
 766	7.6118e+01	4.7597	66.364456	0.000507	5.067253	0.858416	-0.000101
 767	7.6217e+01	4.7397	66.255453	0.000547	5.472633	0.927089	-0.000110
 768	7.6317e+01	4.7204	66.170673	0.000426	4.256492	0.721069	-0.000085
 769	7.6416e+01	4.7013	66.061671	0.000547	5.472633	0.927089	-0.000110
 770	7.6516e+01	4.6808	65.984965	0.000385	3.851112	0.652396	-0.000077
 771	7.6615e+01	4.6601	65.900185	0.000426	4.256492	0.721069	-0.000085
 772	7.6715e+01	4.6404	65.831554	0.000345	3.445732	0.583723	-0.000069
 773	7.6814e+01	4.6216	65.714477	0.000588	5.878013	0.995762	-0.000118
 774	7.6913e+01	4.6003	65.621623	0.000466	4.661873	0.789743	-0.000093
 775	7.7013e+01	4.5812	65.480323	0.000709	7.094154	1.201782	-0.000142
 776	7.7112e+01	4.5603	65.435915	0.000223	2.229591	0.377703	-0.000045
 777	7.7212e+01	4.5415	65.339023	0.000486	4.864563	0.824079	-0.000097
 778	7.7311e+01	4.5209	65.234058	0.000527	5.269943	0.892753	-0.000105
 779	7.7411e+01	4.5020	65.088721	0.000730	7.296844	1.236119	-0.000146
 780	7.7510e+01	4.4816	65.012015	0.000385	3.851112	0.652396	-0.000077
 781	7.7610e+01	4.4608	64.927236	0.000426	4.256492	0.721069	-0.000085
 782	7.7710e+01	4.4414	64.773824	0.000770	7.702224	1.304792	-0.000154
 783	7.7809e+01	4.4210	64.705193	0.000345	3.445732	0.583723	-0.000069
 784	7.7909e+01	4.4025	64.584079	0.000608	6.080703	1.030099	-0.000122
 785	7.8008e+01	4.3823	64.523522	0.000304	3.040352	0.515050	-0.000061
 786	7.8108e+01	4.3604	64.422594	0.000507	5.067253	0.858416	-0.000101
 787	7.8207e+01	4.3413	64.293405	0.000649	6.486084	1.098772	-0.000130
 788	7.8306e+01	4.3221	64.208625	0.000426	4.256492	0.721069	-0.000085
 789	7.8406e+01	4.3021	64.083474	0.000628	6.283394	1.064436	-0.000126
 790	7.8505e+01	4.2818	63.998694	0.000426	4.256492	0.721069	-0.000085
 791	7.8605e+01	4.2617	63.865469	0.000669	6.688774	1.133109	-0.000134
 792	7.8704e+01	4.2416	63.808949	0.000284	2.837662	0.480713	-0.000057
 793	7.8804e+01	4.2219	63.675723	0.000669	6.688774	1.133109	-0.000134
 794	7.8903e+01	4.2025	63.590944	0.000426	4.256492	0.721069	-0.000085
 795	7.9003e+01	4.1821	63.502127	0.000446	4.459183	0.755406	-0.000089
 796	7.9103e+01	4.1622	63.393124	0.000547	5.472633	0.927089	-0.000110
 797	7.9202e+01	4.1431	63.320455	0.000365	3.648422	0.618059	-0.000073
 798	7.9302e+01	4.1225	63.219527	0.000507	5.067253	0.858416	-0.000101
 799	7.9401e+01	4.1020	63.094376	0.000628	6.283394	1.064436	-0.000126
 800	7.9501e+01	4.0832	63.009596	0.000426	4.256492	0.721069	-0.000085
 801	7.9600e+01	4.0646	62.876371	0.000669	6.688774	1.133109	-0.000134
 802	7.9700e+01	4.0429	62.787554	0.000446	4.459183	0.755406	-0.000089
 803	7.9799e+01	4.0231	62.638180	0.000750	7.499534	1.270456	-0.000150
 804	7.9898e+01	4.0026	62.549363	0.000446	4.459183	0.755406	-0.000089
 805	7.9998e+01	3.9837	62.476694	0.000365	3.648422	0.618059	-0.000073
 806	8.0097e+01	3.9637	62.367691	0.000547	5.472633	0.927089	-0.000110
 807	8.0197e+01	3.9434	62.254652	0.000568	5.675323	0.961426	-0.000114
 808	8.0296e+01	3.9226	62.169872	0.000426	4.256492	0.721069	-0.000085
 809	8.0396e+01	3.9037	62.085092	0.000426	4.256492	0.721069	-0.000085
 810	8.0496e+01	3.8834	61.911495	0.000872	8.715675	1.476475	-0.000174
 811	8.0595e+01	3.8638	61.830752	0.000405	4.053802	0.686733	-0.000081
 812	8.0695e+01	3.8428	61.741935	0.000446	4.459183	0.755406	-0.000089
 813	8.0794e+01	3.8244	61.641007	0.000507	5.067253	0.858416	-0.000101
 814	8.0894e+01	3.8038	61.548153	0.000466	4.661873	0.789743	-0.000093
 815	8.0993e+01	3.7847	61.390705	0.000790	7.904915	1.339129	-0.000158
 816	8.1093e+01	3.7645	61.277665	0.000568	5.675323	0.961426	-0.000114
 817	8.1192e+01	3.7463	61.196922	0.000405	4.053802	0.686733	-0.000081
 818	8.1291e+01	3.7244	61.087919	0.000547	5.472633	0.927089	-0.000110
 819	8.1391e+01	3.7045	60.966805	0.000608	6.080703	1.030099	-0.000122
 820	8.1490e+01	3.6849	60.894137	0.000365	3.648422	0.618059	-0.000073
 821	8.1590e+01	3.6658	60.748800	0.000730	7.296844	1.236119	-0.000146
 822	8.1689e+01	3.6440	60.659983	0.000446	4.459183	0.755406	-0.000089
 823	8.1789e+01	3.6252	60.550980	0.000547	5.472633	0.927089	-0.000110
 824	8.1888e+01	3.6051	60.421792	0.000649	6.486084	1.098772	-0.000130
 825	8.1988e+01	3.5849	60.320864	0.000507	5.067253	0.858416	-0.000101
 826	8.2088e+01	3.5645	60.248195	0.000365	3.648422	0.618059	-0.000073
 827	8.2187e+01	3.5455	60.114970	0.000669	6.688774	1.133109	-0.000134
 828	8.2287e+01	3.5255	59.989818	0.000628	6.283394	1.064436	-0.000126
 829	8.2386e+01	3.5049	59.880816	0.000547	5.472633	0.927089	-0.000110
 830	8.2486e+01	3.4849	59.775850	0.000527	5.269943	0.892753	-0.000105
 831	8.2585e+01	3.4647	59.678959	0.000486	4.864563	0.824079	-0.000097
 832	8.2684e+01	3.4466	59.561882	0.000588	5.878013	0.995762	-0.000118
 833	8.2784e+01	3.4261	59.452879	0.000547	5.472633	0.927089	-0.000110
 834	8.2883e+01	3.4051	59.335803	0.000588	5.878013	0.995762	-0.000118
 835	8.2983e+01	3.3848	59.206614	0.000649	6.486084	1.098772	-0.000130
 836	8.3082e+01	3.3648	59.113760	0.000466	4.661873	0.789743	-0.000093
 837	8.3182e+01	3.3453	59.000720	0.000568	5.675323	0.961426	-0.000114
 838	8.3281e+01	3.3259	58.895755	0.000527	5.269943	0.892753	-0.000105
 839	8.3381e+01	3.3056	58.802901	0.000466	4.661873	0.789743	-0.000093
 840	8.3481e+01	3.2858	58.665638	0.000689	6.891464	1.167446	-0.000138
 841	8.3580e+01	3.2664	58.576821	0.000446	4.459183	0.755406	-0.000089
 842	8.3680e+01	3.2467	58.435521	0.000709	7.094154	1.201782	-0.000142
 843	8.3779e+01	3.2265	58.383038	0.000263	2.634972	0.446376	-0.000053
 844	8.3879e+01	3.2058	58.209442	0.000872	8.715675	1.476475	-0.000174
 845	8.3978e+01	3.1860	58.156959	0.000263	2.634972	0.446376	-0.000053
 846	8.4078e+01	3.1654	58.031808	0.000628	6.283394	1.064436	-0.000126
 847	8.4177e+01	3.1472	57.906656	0.000628	6.283394	1.064436	-0.000126
 848	8.4276e+01	3.1267	57.813802	0.000466	4.661873	0.789743	-0.000093
 849	8.4376e+01	3.1070	57.672503	0.000709	7.094154	1.201782	-0.000142
 850	8.4475e+01	3.0864	57.575611	0.000486	4.864563	0.824079	-0.000097
 851	8.4575e+01	3.0671	57.494869	0.000405	4.053802	0.686733	-0.000081
 852	8.4674e+01	3.0463	57.381829	0.000568	5.675323	0.961426	-0.000114
 853	8.4774e+01	3.0267	57.256678	0.000628	6.283394	1.064436	-0.000126
 854	8.4874e+01	3.0077	57.131526	0.000628	6.283394	1.064436	-0.000126
 855	8.4973e+01	2.9876	57.022524	0.000547	5.472633	0.927089	-0.000110
 856	8.5073e+01	2.9674	56.913521	0.000547	5.472633	0.927089	-0.000110
 857	8.5172e+01	2.9474	56.820667	0.000466	4.661873	0.789743	-0.000093
 858	8.5272e+01	2.9272	56.719739	0.000507	5.067253	0.858416	-0.000101
 859	8.5371e+01	2.9074	56.578439	0.000709	7.094154	1.201782	-0.000142
 860	8.5471e+01	2.8863	56.505770	0.000365	3.648422	0.618059	-0.000073
 861	8.5570e+01	2.8675	56.360433	0.000730	7.296844	1.236119	-0.000146
 862	8.5669e+01	2.8480	56.255468	0.000527	5.269943	0.892753	-0.000105
 863	8.5769e+01	2.8277	56.190874	0.000324	3.243042	0.549386	-0.000065
 864	8.5868e+01	2.8082	56.013240	0.000892	8.918365	1.510812	-0.000179
 865	8.5968e+01	2.7880	55.920386	0.000466	4.661873	0.789743	-0.000093
 866	8.6067e+01	2.7677	55.855792	0.000324	3.243042	0.549386	-0.000065
 867	8.6167e+01	2.7480	55.730640	0.000628	6.283394	1.064436	-0.000126
 868	8.6266e+01	2.7271	55.601452	0.000649	6.486084	1.098772	-0.000130
 869	8.6366e+01	2.7074	55.516672	0.000426	4.256492	0.721069	-0.000085
 870	8.6466e+01	2.6888	55.407669	0.000547	5.472633	0.927089	-0.000110
 871	8.6565e+01	2.6690	55.262333	0.000730	7.296844	1.236119	-0.000146
 872	8.6665e+01	2.6476	55.181590	0.000405	4.053802	0.686733	-0.000081
 873	8.6764e+01	2.6283	55.064513	0.000588	5.878013	0.995762	-0.000118
 874	8.6864e+01	2.6082	54.967622	0.000486	4.864563	0.824079	-0.000097
 875	8.6963e+01	2.5880	54.806136	0.000811	8.107605	1.373465	-0.000162
 876	8.7063e+01	2.5690	54.741542	0.000324	3.243042	0.549386	-0.000065
 877	8.7162e+01	2.5490	54.648688	0.000466	4.661873	0.789743	-0.000093
 878	8.7261e+01	2.5282	54.495277	0.000770	7.702224	1.304792	-0.000154
 879	8.7361e+01	2.5100	54.410497	0.000426	4.256492	0.721069	-0.000085
 880	8.7460e+01	2.4893	54.281309	0.000649	6.486084	1.098772	-0.000130
 881	8.7560e+01	2.4694	54.184417	0.000486	4.864563	0.824079	-0.000097
 882	8.7659e+01	2.4496	54.047155	0.000689	6.891464	1.167446	-0.000138
 883	8.7759e+01	2.4294	53.970449	0.000385	3.851112	0.652396	-0.000077
 884	8.7859e+01	2.4085	53.833186	0.000689	6.891464	1.167446	-0.000138
 885	8.7958e+01	2.3888	53.736295	0.000486	4.864563	0.824079	-0.000097
 886	8.8058e+01	2.3701	53.607107	0.000649	6.486084	1.098772	-0.000130
 887	8.8157e+01	2.3492	53.481956	0.000628	6.283394	1.064436	-0.000126
 888	8.8257e+01	2.3299	53.413324	0.000345	3.445732	0.583723	-0.000069
 889	8.8356e+01	2.3107	53.263950	0.000750	7.499534	1.270456	-0.000150
 890	8.8456e+01	2.2899	53.163022	0.000507	5.067253	0.858416	-0.000101
 891	8.8555e+01	2.2697	53.029796	0.000669	6.688774	1.133109	-0.000134
 892	8.8654e+01	2.2499	52.920794	0.000547	5.472633	0.927089	-0.000110
 893	8.8754e+01	2.2304	52.840051	0.000405	4.053802	0.686733	-0.000081
 894	8.8853e+01	2.2108	52.718937	0.000608	6.080703	1.030099	-0.000122
 895	8.8953e+01	2.1899	52.605897	0.000568	5.675323	0.961426	-0.000114
 896	8.9052e+01	2.1704	52.504969	0.000507	5.067253	0.858416	-0.000101
 897	8.9152e+01	2.1519	52.379818	0.000628	6.283394	1.064436	-0.000126
 898	8.9251e+01	2.1295	52.286964	0.000466	4.661873	0.789743	-0.000093
 899	8.9351e+01	2.1102	52.161812	0.000628	6.283394	1.064436	-0.000126
 900	8.9451e+01	2.0901	52.064921	0.000486	4.864563	0.824079	-0.000097
 901	8.9550e+01	2.0716	51.951881	0.000568	5.675323	0.961426	-0.000114
 902	8.9650e+01	2.0507	51.854990	0.000486	4.864563	0.824079	-0.000097
 903	8.9749e+01	2.0306	51.754062	0.000507	5.067253	0.858416	-0.000101
 904	8.9849e+01	2.0110	51.612762	0.000709	7.094154	1.201782	-0.000142
 905	8.9948e+01	1.9910	51.487611	0.000628	6.283394	1.064436	-0.000126
 906	9.0047e+01	1.9709	51.374571	0.000568	5.675323	0.961426	-0.000114
 907	9.0147e+01	1.9514	51.257494	0.000588	5.878013	0.995762	-0.000118
 908	9.0246e+01	1.9315	51.144454	0.000568	5.675323	0.961426	-0.000114
 909	9.0346e+01	1.9117	51.059674	0.000426	4.256492	0.721069	-0.000085
 910	9.0445e+01	1.8906	50.906263	0.000770	7.702224	1.304792	-0.000154
 911	9.0545e+01	1.8719	50.829558	0.000385	3.851112	0.652396	-0.000077
 912	9.0644e+01	1.8520	50.696332	0.000669	6.688774	1.133109	-0.000134
 913	9.0744e+01	1.8319	50.599441	0.000486	4.864563	0.824079	-0.000097
 914	9.0844e+01	1.8126	50.490438	0.000547	5.472633	0.927089	-0.000110
 915	9.0943e+01	1.7912	50.373361	0.000588	5.878013	0.995762	-0.000118
 916	9.1043e+01	1.7714	50.276470	0.000486	4.864563	0.824079	-0.000097
 917	9.1142e+01	1.7524	50.127096	0.000750	7.499534	1.270456	-0.000150
 918	9.1242e+01	1.7325	50.022130	0.000527	5.269943	0.892753	-0.000105
 919	9.1341e+01	1.7115	49.909091	0.000568	5.675323	0.961426	-0.000114
 920	9.1441e+01	1.6918	49.812199	0.000486	4.864563	0.824079	-0.000097
 921	9.1540e+01	1.6726	49.695122	0.000588	5.878013	0.995762	-0.000118
 922	9.1639e+01	1.6518	49.557860	0.000689	6.891464	1.167446	-0.000138
 923	9.1739e+01	1.6324	49.477117	0.000405	4.053802	0.686733	-0.000081
 924	9.1838e+01	1.6116	49.323706	0.000770	7.702224	1.304792	-0.000154
 925	9.1938e+01	1.5922	49.247000	0.000385	3.851112	0.652396	-0.000077
 926	9.2037e+01	1.5723	49.105701	0.000709	7.094154	1.201782	-0.000142
 927	9.2137e+01	1.5524	48.984586	0.000608	6.080703	1.030099	-0.000122
 928	9.2237e+01	1.5328	48.851361	0.000669	6.688774	1.133109	-0.000134
 929	9.2336e+01	1.5127	48.742358	0.000547	5.472633	0.927089	-0.000110
 930	9.2436e+01	1.4924	48.621244	0.000608	6.080703	1.030099	-0.000122
 931	9.2535e+01	1.4730	48.528390	0.000466	4.661873	0.789743	-0.000093
 932	9.2635e+01	1.4532	48.439573	0.000446	4.459183	0.755406	-0.000089
 933	9.2734e+01	1.4333	48.298273	0.000709	7.094154	1.201782	-0.000142
 934	9.2834e+01	1.4133	48.185234	0.000568	5.675323	0.961426	-0.000114
 935	9.2933e+01	1.3930	48.023748	0.000811	8.107605	1.373465	-0.000162
 936	9.3032e+01	1.3738	47.934931	0.000446	4.459183	0.755406	-0.000089
 937	9.3132e+01	1.3526	47.850151	0.000426	4.256492	0.721069	-0.000085
 938	9.3231e+01	1.3332	47.680592	0.000851	8.512985	1.442139	-0.000170
 939	9.3331e+01	1.3142	47.575626	0.000527	5.269943	0.892753	-0.000105
 940	9.3430e+01	1.2946	47.490846	0.000426	4.256492	0.721069	-0.000085
 941	9.3530e+01	1.2737	47.313212	0.000892	8.918365	1.510812	-0.000179
 942	9.3629e+01	1.2537	47.228432	0.000426	4.256492	0.721069	-0.000085
 943	9.3729e+01	1.2341	47.107318	0.000608	6.080703	1.030099	-0.000122
 944	9.3829e+01	1.2148	47.002353	0.000527	5.269943	0.892753	-0.000105
 945	9.3928e+01	1.1947	46.901424	0.000507	5.067253	0.858416	-0.000101
 946	9.4028e+01	1.1744	46.760125	0.000709	7.094154	1.201782	-0.000142
 947	9.4127e+01	1.1538	46.586528	0.000872	8.715675	1.476475	-0.000174
 948	9.4227e+01	1.1349	46.485599	0.000507	5.067253	0.858416	-0.000101
 949	9.4326e+01	1.1145	46.364485	0.000608	6.080703	1.030099	-0.000122
 950	9.4425e+01	1.0950	46.259520	0.000527	5.269943	0.892753	-0.000105
 951	9.4525e+01	1.0749	46.146480	0.000568	5.675323	0.961426	-0.000114
 952	9.4624e+01	1.0559	46.009217	0.000689	6.891464	1.167446	-0.000138
 953	9.4724e+01	1.0346	45.912326	0.000486	4.864563	0.824079	-0.000097
 954	9.4823e+01	1.0154	45.799286	0.000568	5.675323	0.961426	-0.000114
 955	9.4923e+01	0.9946	45.674135	0.000628	6.283394	1.064436	-0.000126
 956	9.5022e+01	0.9749	45.504575	0.000851	8.512985	1.442139	-0.000170
 957	9.5122e+01	0.9559	45.435944	0.000345	3.445732	0.583723	-0.000069
 958	9.5222e+01	0.9355	45.286570	0.000750	7.499534	1.270456	-0.000150
 959	9.5321e+01	0.9161	45.161419	0.000628	6.283394	1.064436	-0.000126
 960	9.5421e+01	0.8959	45.028193	0.000669	6.688774	1.133109	-0.000134
 961	9.5520e+01	0.8766	44.907079	0.000608	6.080703	1.030099	-0.000122
 962	9.5620e+01	0.8550	44.785965	0.000608	6.080703	1.030099	-0.000122
 963	9.5719e+01	0.8360	44.640628	0.000730	7.296844	1.236119	-0.000146
 964	9.5819e+01	0.8159	44.571997	0.000345	3.445732	0.583723	-0.000069
 965	9.5918e+01	0.7958	44.414549	0.000790	7.904915	1.339129	-0.000158
 966	9.6017e+01	0.7770	44.301509	0.000568	5.675323	0.961426	-0.000114
 967	9.6117e+01	0.7563	44.164246	0.000689	6.891464	1.167446	-0.000138
 968	9.6216e+01	0.7367	44.071392	0.000466	4.661873	0.789743	-0.000093
 969	9.6316e+01	0.7171	43.893758	0.000892	8.918365	1.510812	-0.000179
 970	9.6415e+01	0.6965	43.784756	0.000547	5.472633	0.927089	-0.000110
 971	9.6515e+01	0.6763	43.704013	0.000405	4.053802	0.686733	-0.000081
 972	9.6615e+01	0.6567	43.534453	0.000851	8.512985	1.442139	-0.000170
 973	9.6714e+01	0.6359	43.429488	0.000527	5.269943	0.892753	-0.000105
 974	9.6814e+01	0.6169	43.316448	0.000568	5.675323	0.961426	-0.000114
 975	9.6913e+01	0.5971	43.191297	0.000628	6.283394	1.064436	-0.000126
 976	9.7013e+01	0.5776	43.025774	0.000831	8.310295	1.407802	-0.000166
 977	9.7112e+01	0.5573	42.945031	0.000405	4.053802	0.686733	-0.000081
 978	9.7212e+01	0.5373	42.795657	0.000750	7.499534	1.270456	-0.000150
 979	9.7311e+01	0.5171	42.678580	0.000588	5.878013	0.995762	-0.000118
 980	9.7410e+01	0.4970	42.529206	0.000750	7.499534	1.270456	-0.000150
 981	9.7510e+01	0.4776	42.416167	0.000568	5.675323	0.961426	-0.000114
 982	9.7609e+01	0.4573	42.286978	0.000649	6.486084	1.098772	-0.000130
 983	9.7709e+01	0.4374	42.202198	0.000426	4.256492	0.721069	-0.000085
 984	9.7808e+01	0.4169	42.028602	0.000872	8.715675	1.476475	-0.000174
 985	9.7908e+01	0.3974	41.907488	0.000608	6.080703	1.030099	-0.000122
 986	9.8007e+01	0.3775	41.766188	0.000709	7.094154	1.201782	-0.000142
 987	9.8107e+01	0.3576	41.673334	0.000466	4.661873	0.789743	-0.000093
 988	9.8207e+01	0.3377	41.552220	0.000608	6.080703	1.030099	-0.000122
 989	9.8306e+01	0.3183	41.427068	0.000628	6.283394	1.064436	-0.000126
 990	9.8406e+01	0.2975	41.273657	0.000770	7.702224	1.304792	-0.000154
 991	9.8505e+01	0.2777	41.148506	0.000628	6.283394	1.064436	-0.000126
 992	9.8605e+01	0.2583	41.047578	0.000507	5.067253	0.858416	-0.000101
 993	9.8704e+01	0.2385	40.910315	0.000689	6.891464	1.167446	-0.000138
 994	9.8803e+01	0.2181	40.756904	0.000770	7.702224	1.304792	-0.000154
 995	9.8903e+01	0.1981	40.627715	0.000649	6.486084	1.098772	-0.000130
 996	9.9002e+01	0.1782	40.506601	0.000608	6.080703	1.030099	-0.000122
 997	9.9102e+01	0.1582	40.389524	0.000588	5.878013	0.995762	-0.000118
 998	9.9201e+01	0.1383	40.260336	0.000649	6.486084	1.098772	-0.000130
 999	9.9301e+01	0.1185	40.098851	0.000811	8.107605	1.373465	-0.000162
1000	9.9400e+01	0.0991	39.957551	0.000709	7.094154	1.201782	-0.000142
1001	9.9500e+01	0.0789	39.880845	0.000385	3.851112	0.652396	-0.000077
1002	9.9600e+01	0.0584	39.707249	0.000872	8.715675	1.476475	-0.000174
1003	9.9699e+01	0.0389	39.610357	0.000486	4.864563	0.824079	-0.000097
1004	9.9799e+01	0.0196	39.481169	0.000649	6.486084	1.098772	-0.000130
1005	9.9898e+01	-0.0009	39.356018	0.000628	6.283394	1.064436	-0.000126
1006	9.9998e+01	-0.0191	39.222792	0.000669	6.688774	1.133109	-0.000134
1007	1.0010e+02	-0.0389	39.101678	0.000608	6.080703	1.030099	-0.000122
1008	1.0020e+02	-0.0585	38.988638	0.000568	5.675323	0.961426	-0.000114
1009	1.0030e+02	-0.0790	38.855413	0.000669	6.688774	1.133109	-0.000134
1010	1.0040e+02	-0.0977	38.702002	0.000770	7.702224	1.304792	-0.000154
1011	1.0050e+02	-0.1189	38.613185	0.000446	4.459183	0.755406	-0.000089
1012	1.0059e+02	-0.1389	38.443625	0.000851	8.512985	1.442139	-0.000170
1013	1.0069e+02	-0.1588	38.342697	0.000507	5.067253	0.858416	-0.000101
1014	1.0079e+02	-0.1791	38.197360	0.000730	7.296844	1.236119	-0.000146
1015	1.0089e+02	-0.1993	38.035874	0.000811	8.107605	1.373465	-0.000162
1016	1.0099e+02	-0.2182	37.930909	0.000527	5.269943	0.892753	-0.000105
1017	1.0109e+02	-0.2377	37.773461	0.000790	7.904915	1.339129	-0.000158
1018	1.0119e+02	-0.2581	37.688681	0.000426	4.256492	0.721069	-0.000085
1019	1.0129e+02	-0.2792	37.563529	0.000628	6.283394	1.064436	-0.000126
1020	1.0139e+02	-0.2984	37.454527	0.000547	5.472633	0.927089	-0.000110
1021	1.0149e+02	-0.3188	37.301116	0.000770	7.702224	1.304792	-0.000154
1022	1.0159e+02	-0.3376	37.204224	0.000486	4.864563	0.824079	-0.000097
1023	1.0169e+02	-0.3582	37.079073	0.000628	6.283394	1.064436	-0.000126
1024	1.0179e+02	-0.3777	36.941811	0.000689	6.891464	1.167446	-0.000138
1025	1.0189e+02	-0.3970	36.812622	0.000649	6.486084	1.098772	-0.000130
1026	1.0199e+02	-0.4179	36.679397	0.000669	6.688774	1.133109	-0.000134
1027	1.0209e+02	-0.4378	36.562320	0.000588	5.878013	0.995762	-0.000118
1028	1.0219e+02	-0.4587	36.433131	0.000649	6.486084	1.098772	-0.000130
1029	1.0229e+02	-0.4784	36.283757	0.000750	7.499534	1.270456	-0.000150
1030	1.0239e+02	-0.4977	36.211089	0.000365	3.648422	0.618059	-0.000073
1031	1.0248e+02	-0.5168	36.065752	0.000730	7.296844	1.236119	-0.000146
1032	1.0258e+02	-0.5371	35.944638	0.000608	6.080703	1.030099	-0.000122
1033	1.0268e+02	-0.5578	35.811413	0.000669	6.688774	1.133109	-0.000134
1034	1.0278e+02	-0.5770	35.662039	0.000750	7.499534	1.270456	-0.000150
1035	1.0288e+02	-0.5978	35.528813	0.000669	6.688774	1.133109	-0.000134
1036	1.0298e+02	-0.6172	35.415773	0.000568	5.675323	0.961426	-0.000114
1037	1.0308e+02	-0.6366	35.314845	0.000507	5.067253	0.858416	-0.000101
1038	1.0318e+02	-0.6565	35.165471	0.000750	7.499534	1.270456	-0.000150
1039	1.0328e+02	-0.6771	35.040320	0.000628	6.283394	1.064436	-0.000126
1040	1.0338e+02	-0.6966	34.911131	0.000649	6.486084	1.098772	-0.000130
1041	1.0348e+02	-0.7165	34.777906	0.000669	6.688774	1.133109	-0.000134
1042	1.0358e+02	-0.7360	34.652755	0.000628	6.283394	1.064436	-0.000126
1043	1.0368e+02	-0.7565	34.535678	0.000588	5.878013	0.995762	-0.000118
1044	1.0378e+02	-0.7764	34.366118	0.000851	8.512985	1.442139	-0.000170
1045	1.0388e+02	-0.7961	34.293450	0.000365	3.648422	0.618059	-0.000073
1046	1.0398e+02	-0.8164	34.152150	0.000709	7.094154	1.201782	-0.000142
1047	1.0408e+02	-0.8367	34.043147	0.000547	5.472633	0.927089	-0.000110
1048	1.0418e+02	-0.8558	33.926070	0.000588	5.878013	0.995762	-0.000118
1049	1.0428e+02	-0.8749	33.780733	0.000730	7.296844	1.236119	-0.000146
1050	1.0438e+02	-0.8955	33.627322	0.000770	7.702224	1.304792	-0.000154
1051	1.0447e+02	-0.9157	33.510245	0.000588	5.878013	0.995762	-0.000118
1052	1.0457e+02	-0.9361	33.389131	0.000608	6.080703	1.030099	-0.000122
1053	1.0467e+02	-0.9564	33.255906	0.000669	6.688774	1.133109	-0.000134
1054	1.0477e+02	-0.9758	33.154977	0.000507	5.067253	0.858416	-0.000101
1055	1.0487e+02	-0.9949	32.993492	0.000811	8.107605	1.373465	-0.000162
1056	1.0497e+02	-1.0157	32.864303	0.000649	6.486084	1.098772	-0.000130
1057	1.0507e+02	-1.0356	32.731078	0.000669	6.688774	1.133109	-0.000134
1058	1.0517e+02	-1.0567	32.593815	0.000689	6.891464	1.167446	-0.000138
1059	1.0527e+02	-1.0759	32.500961	0.000466	4.661873	0.789743	-0.000093
1060	1.0537e+02	-1.0967	32.371773	0.000649	6.486084	1.098772	-0.000130
1061	1.0547e+02	-1.1159	32.230473	0.000709	7.094154	1.201782	-0.000142
1062	1.0557e+02	-1.1353	32.105322	0.000628	6.283394	1.064436	-0.000126
1063	1.0567e+02	-1.1546	32.004394	0.000507	5.067253	0.858416	-0.000101
1064	1.0577e+02	-1.1737	31.867131	0.000689	6.891464	1.167446	-0.000138
1065	1.0587e+02	-1.1950	31.750054	0.000588	5.878013	0.995762	-0.000118
1066	1.0597e+02	-1.2144	31.632977	0.000588	5.878013	0.995762	-0.000118
1067	1.0607e+02	-1.2349	31.487640	0.000730	7.296844	1.236119	-0.000146
1068	1.0617e+02	-1.2555	31.342303	0.000730	7.296844	1.236119	-0.000146
1069	1.0627e+02	-1.2740	31.273672	0.000345	3.445732	0.583723	-0.000069
1070	1.0637e+02	-1.2945	31.120261	0.000770	7.702224	1.304792	-0.000154
1071	1.0647e+02	-1.3144	31.003184	0.000588	5.878013	0.995762	-0.000118
1072	1.0656e+02	-1.3338	30.878033	0.000628	6.283394	1.064436	-0.000126
1073	1.0666e+02	-1.3540	30.724622	0.000770	7.702224	1.304792	-0.000154
1074	1.0676e+02	-1.3741	30.607545	0.000588	5.878013	0.995762	-0.000118
1075	1.0686e+02	-1.3940	30.486431	0.000608	6.080703	1.030099	-0.000122
1076	1.0696e+02	-1.4133	30.373391	0.000568	5.675323	0.961426	-0.000114
1077	1.0706e+02	-1.4334	30.211905	0.000811	8.107605	1.373465	-0.000162
1078	1.0716e+02	-1.4536	30.094828	0.000588	5.878013	0.995762	-0.000118
1079	1.0726e+02	-1.4735	29.993900	0.000507	5.067253	0.858416	-0.000101
1080	1.0736e+02	-1.4935	29.836452	0.000790	7.904915	1.339129	-0.000158
1081	1.0746e+02	-1.5128	29.719375	0.000588	5.878013	0.995762	-0.000118
1082	1.0756e+02	-1.5324	29.602298	0.000588	5.878013	0.995762	-0.000118
1083	1.0766e+02	-1.5532	29.448887	0.000770	7.702224	1.304792	-0.000154
1084	1.0776e+02	-1.5739	29.360070	0.000446	4.459183	0.755406	-0.000089
1085	1.0786e+02	-1.5933	29.226844	0.000669	6.688774	1.133109	-0.000134
1086	1.0796e+02	-1.6132	29.089582	0.000689	6.891464	1.167446	-0.000138
1087	1.0806e+02	-1.6332	28.968467	0.000608	6.080703	1.030099	-0.000122
1088	1.0816e+02	-1.6531	28.831205	0.000689	6.891464	1.167446	-0.000138
1089	1.0826e+02	-1.6721	28.750462	0.000405	4.053802	0.686733	-0.000081
1090	1.0836e+02	-1.6924	28.593014	0.000790	7.904915	1.339129	-0.000158
1091	1.0845e+02	-1.7117	28.484011	0.000547	5.472633	0.927089	-0.000110
1092	1.0855e+02	-1.7336	28.322526	0.000811	8.107605	1.373465	-0.000162
1093	1.0865e+02	-1.7525	28.221597	0.000507	5.067253	0.858416	-0.000101
1094	1.0875e+02	-1.7729	28.096446	0.000628	6.283394	1.064436	-0.000126
1095	1.0885e+02	-1.7921	27.951109	0.000730	7.296844	1.236119	-0.000146
1096	1.0895e+02	-1.8126	27.842107	0.000547	5.472633	0.927089	-0.000110
1097	1.0905e+02	-1.8329	27.692733	0.000750	7.499534	1.270456	-0.000150
1098	1.0915e+02	-1.8517	27.539321	0.000770	7.702224	1.304792	-0.000154
1099	1.0925e+02	-1.8717	27.434356	0.000527	5.269943	0.892753	-0.000105
1100	1.0935e+02	-1.8929	27.268833	0.000831	8.310295	1.407802	-0.000166
1101	1.0945e+02	-1.9119	27.192128	0.000385	3.851112	0.652396	-0.000077
1102	1.0955e+02	-1.9318	27.042754	0.000750	7.499534	1.270456	-0.000150
1103	1.0965e+02	-1.9519	26.921640	0.000608	6.080703	1.030099	-0.000122
1104	1.0975e+02	-1.9711	26.792451	0.000649	6.486084	1.098772	-0.000130
1105	1.0985e+02	-1.9907	26.663263	0.000649	6.486084	1.098772	-0.000130
1106	1.0995e+02	-2.0119	26.538112	0.000628	6.283394	1.064436	-0.000126
1107	1.1005e+02	-2.0310	26.412961	0.000628	6.283394	1.064436	-0.000126
1108	1.1015e+02	-2.0515	26.255512	0.000790	7.904915	1.339129	-0.000158
1109	1.1025e+02	-2.0724	26.126324	0.000649	6.486084	1.098772	-0.000130
1110	1.1035e+02	-2.0903	26.013284	0.000568	5.675323	0.961426	-0.000114
1111	1.1044e+02	-2.1115	25.904281	0.000547	5.472633	0.927089	-0.000110
1112	1.1054e+02	-2.1313	25.754907	0.000750	7.499534	1.270456	-0.000150
1113	1.1064e+02	-2.1514	25.625719	0.000649	6.486084	1.098772	-0.000130
1114	1.1074e+02	-2.1714	25.456159	0.000851	8.512985	1.442139	-0.000170
1115	1.1084e+02	-2.1906	25.391565	0.000324	3.243042	0.549386	-0.000065
1116	1.1094e+02	-2.2103	25.226043	0.000831	8.310295	1.407802	-0.000166
1117	1.1104e+02	-2.2297	25.113003	0.000568	5.675323	0.961426	-0.000114
1118	1.1114e+02	-2.2511	24.995926	0.000588	5.878013	0.995762	-0.000118
1119	1.1124e+02	-2.2708	24.806181	0.000953	9.526435	1.613822	-0.000191
1120	1.1134e+02	-2.2910	24.701215	0.000527	5.269943	0.892753	-0.000105
1121	1.1144e+02	-2.3106	24.580101	0.000608	6.080703	1.030099	-0.000122
1122	1.1154e+02	-2.3305	24.463024	0.000588	5.878013	0.995762	-0.000118
1123	1.1164e+02	-2.3495	24.349984	0.000568	5.675323	0.961426	-0.000114
1124	1.1174e+02	-2.3697	24.196573	0.000770	7.702224	1.304792	-0.000154
1125	1.1184e+02	-2.3895	24.075459	0.000608	6.080703	1.030099	-0.000122
1126	1.1194e+02	-2.4101	23.950308	0.000628	6.283394	1.064436	-0.000126
1127	1.1204e+02	-2.4305	23.821119	0.000649	6.486084	1.098772	-0.000130
1128	1.1214e+02	-2.4500	23.635411	0.000932	9.323745	1.579485	-0.000187
1129	1.1224e+02	-2.4701	23.510260	0.000628	6.283394	1.064436	-0.000126
1130	1.1234e+02	-2.4899	23.409332	0.000507	5.067253	0.858416	-0.000101
1131	1.1244e+02	-2.5095	23.251883	0.000790	7.904915	1.339129	-0.000158
1132	1.1253e+02	-2.5279	23.159029	0.000466	4.661873	0.789743	-0.000093
1133	1.1263e+02	-2.5497	23.021767	0.000689	6.891464	1.167446	-0.000138
1134	1.1273e+02	-2.5697	22.848170	0.000872	8.715675	1.476475	-0.000174
1135	1.1283e+02	-2.5890	22.759353	0.000446	4.459183	0.755406	-0.000089
1136	1.1293e+02	-2.6089	22.609979	0.000750	7.499534	1.270456	-0.000150
1137	1.1303e+02	-2.6281	22.488865	0.000608	6.080703	1.030099	-0.000122
1138	1.1313e+02	-2.6483	22.359676	0.000649	6.486084	1.098772	-0.000130
1139	1.1323e+02	-2.6684	22.250674	0.000547	5.472633	0.927089	-0.000110
1140	1.1333e+02	-2.6881	22.073040	0.000892	8.918365	1.510812	-0.000179
1141	1.1343e+02	-2.7083	21.947888	0.000628	6.283394	1.064436	-0.000126
1142	1.1353e+02	-2.7282	21.842923	0.000527	5.269943	0.892753	-0.000105
1143	1.1363e+02	-2.7478	21.689512	0.000770	7.702224	1.304792	-0.000154
1144	1.1373e+02	-2.7683	21.592620	0.000486	4.864563	0.824079	-0.000097
1145	1.1383e+02	-2.7882	21.451321	0.000709	7.094154	1.201782	-0.000142
1146	1.1393e+02	-2.8076	21.330207	0.000608	6.080703	1.030099	-0.000122
1147	1.1403e+02	-2.8278	21.144498	0.000932	9.323745	1.579485	-0.000187
1148	1.1413e+02	-2.8478	21.043570	0.000507	5.067253	0.858416	-0.000101
1149	1.1423e+02	-2.8674	20.922456	0.000608	6.080703	1.030099	-0.000122
1150	1.1433e+02	-2.8875	20.793268	0.000649	6.486084	1.098772	-0.000130
1151	1.1442e+02	-2.9076	20.639856	0.000770	7.702224	1.304792	-0.000154
1152	1.1452e+02	-2.9282	20.514705	0.000628	6.283394	1.064436	-0.000126
1153	1.1462e+02	-2.9465	20.381480	0.000669	6.688774	1.133109	-0.000134
1154	1.1472e+02	-2.9675	20.276514	0.000527	5.269943	0.892753	-0.000105
1155	1.1482e+02	-2.9870	20.123103	0.000770	7.702224	1.304792	-0.000154
1156	1.1492e+02	-3.0077	19.961618	0.000811	8.107605	1.373465	-0.000162
1157	1.1502e+02	-3.0273	19.892986	0.000345	3.445732	0.583723	-0.000069
1158	1.1512e+02	-3.0479	19.711315	0.000912	9.121055	1.545149	-0.000183
1159	1.1522e+02	-3.0670	19.634610	0.000385	3.851112	0.652396	-0.000077
1160	1.1532e+02	-3.0862	19.469087	0.000831	8.310295	1.407802	-0.000166
1161	1.1542e+02	-3.1070	19.315676	0.000770	7.702224	1.304792	-0.000154
1162	1.1552e+02	-3.1266	19.202636	0.000568	5.675323	0.961426	-0.000114
1163	1.1562e+02	-3.1465	19.089596	0.000568	5.675323	0.961426	-0.000114
1164	1.1572e+02	-3.1664	18.976557	0.000568	5.675323	0.961426	-0.000114
1165	1.1582e+02	-3.1876	18.827183	0.000750	7.499534	1.270456	-0.000150
1166	1.1592e+02	-3.2074	18.649549	0.000892	8.918365	1.510812	-0.000179
1167	1.1602e+02	-3.2268	18.572843	0.000385	3.851112	0.652396	-0.000077
1168	1.1612e+02	-3.2465	18.471915	0.000507	5.067253	0.858416	-0.000101
1169	1.1622e+02	-3.2656	18.274095	0.000993	9.931816	1.682495	-0.000199
1170	1.1632e+02	-3.2869	18.197389	0.000385	3.851112	0.652396	-0.000077
1171	1.1642e+02	-3.3067	18.027830	0.000851	8.512985	1.442139	-0.000170
1172	1.1651e+02	-3.3266	17.914790	0.000568	5.675323	0.961426	-0.000114
1173	1.1661e+02	-3.3462	17.781564	0.000669	6.688774	1.133109	-0.000134
1174	1.1671e+02	-3.3655	17.628153	0.000770	7.702224	1.304792	-0.000154
1175	1.1681e+02	-3.3865	17.523188	0.000527	5.269943	0.892753	-0.000105
1176	1.1691e+02	-3.4059	17.406111	0.000588	5.878013	0.995762	-0.000118
1177	1.1701e+02	-3.4255	17.264811	0.000709	7.094154	1.201782	-0.000142
1178	1.1711e+02	-3.4461	17.095251	0.000851	8.512985	1.442139	-0.000170
1179	1.1721e+02	-3.4657	16.962026	0.000669	6.688774	1.133109	-0.000134
1180	1.1731e+02	-3.4859	16.877246	0.000426	4.256492	0.721069	-0.000085
1181	1.1741e+02	-3.5060	16.727872	0.000750	7.499534	1.270456	-0.000150
1182	1.1751e+02	-3.5254	16.630981	0.000486	4.864563	0.824079	-0.000097
1183	1.1761e+02	-3.5461	16.509867	0.000608	6.080703	1.030099	-0.000122
1184	1.1771e+02	-3.5651	16.348381	0.000811	8.107605	1.373465	-0.000162
1185	1.1781e+02	-3.5855	16.239379	0.000547	5.472633	0.927089	-0.000110
1186	1.1791e+02	-3.6049	16.150562	0.000446	4.459183	0.755406	-0.000089
1187	1.1801e+02	-3.6248	15.976965	0.000872	8.715675	1.476475	-0.000174
1188	1.1811e+02	-3.6446	15.867962	0.000547	5.472633	0.927089	-0.000110
1189	1.1821e+02	-3.6652	15.758959	0.000547	5.472633	0.927089	-0.000110
1190	1.1831e+02	-3.6850	15.605548	0.000770	7.702224	1.304792	-0.000154
1191	1.1841e+02	-3.7054	15.508657	0.000486	4.864563	0.824079	-0.000097
1192	1.1850e+02	-3.7248	15.343134	0.000831	8.310295	1.407802	-0.000166
1193	1.1860e+02	-3.7446	15.213946	0.000649	6.486084	1.098772	-0.000130
1194	1.1870e+02	-3.7644	15.125129	0.000446	4.459183	0.755406	-0.000089
1195	1.1880e+02	-3.7848	14.975755	0.000750	7.499534	1.270456	-0.000150
1196	1.1890e+02	-3.8035	14.874827	0.000507	5.067253	0.858416	-0.000101
1197	1.1900e+02	-3.8248	14.777935	0.000486	4.864563	0.824079	-0.000097
1198	1.1910e+02	-3.8441	14.628561	0.000750	7.499534	1.270456	-0.000150
1199	1.1920e+02	-3.8640	14.515522	0.000568	5.675323	0.961426	-0.000114
1200	1.1930e+02	-3.8837	14.358073	0.000790	7.904915	1.339129	-0.000158
1201	1.1940e+02	-3.9029	14.293479	0.000324	3.243042	0.549386	-0.000065
1202	1.1950e+02	-3.9235	14.136031	0.000790	7.904915	1.339129	-0.000158
1203	1.1960e+02	-3.9444	13.966471	0.000851	8.512985	1.442139	-0.000170
1204	1.1970e+02	-3.9635	13.897840	0.000345	3.445732	0.583723	-0.000069
1205	1.1980e+02	-3.9832	13.764614	0.000669	6.688774	1.133109	-0.000134
1206	1.1990e+02	-4.0026	13.691946	0.000365	3.648422	0.618059	-0.000073
1207	1.2000e+02	-4.0239	13.494126	0.000993	9.931816	1.682495	-0.000199
1208	1.2010e+02	-4.0435	13.389161	0.000527	5.269943	0.892753	-0.000105
1209	1.2020e+02	-4.0636	13.288232	0.000507	5.067253	0.858416	-0.000101
1210	1.2030e+02	-4.0825	13.167118	0.000608	6.080703	1.030099	-0.000122
1211	1.2039e+02	-4.1035	13.021781	0.000730	7.296844	1.236119	-0.000146
1212	1.2049e+02	-4.1237	12.884519	0.000689	6.891464	1.167446	-0.000138
1213	1.2059e+02	-4.1432	12.823962	0.000304	3.040352	0.515050	-0.000061
1214	1.2069e+02	-4.1631	12.618068	0.001034	10.337196	1.751168	-0.000207
1215	1.2079e+02	-4.1819	12.513102	0.000527	5.269943	0.892753	-0.000105
1216	1.2089e+02	-4.2022	12.436397	0.000385	3.851112	0.652396	-0.000077
1217	1.2099e+02	-4.2228	12.323357	0.000568	5.675323	0.961426	-0.000114
1218	1.2109e+02	-4.2429	12.141686	0.000912	9.121055	1.545149	-0.000183
1219	1.2119e+02	-4.2625	12.012497	0.000649	6.486084	1.098772	-0.000130
1220	1.2129e+02	-4.2830	11.903495	0.000547	5.472633	0.927089	-0.000110
1221	1.2139e+02	-4.3025	11.806603	0.000486	4.864563	0.824079	-0.000097
1222	1.2149e+02	-4.3224	11.653192	0.000770	7.702224	1.304792	-0.000154
1223	1.2159e+02	-4.3420	11.560338	0.000466	4.661873	0.789743	-0.000093
1224	1.2169e+02	-4.3631	11.435187	0.000628	6.283394	1.064436	-0.000126
1225	1.2179e+02	-4.3829	11.342333	0.000466	4.661873	0.789743	-0.000093
1226	1.2189e+02	-4.4006	11.209107	0.000669	6.688774	1.133109	-0.000134
1227	1.2199e+02	-4.4218	11.067808	0.000709	7.094154	1.201782	-0.000142
1228	1.2209e+02	-4.4418	10.966879	0.000507	5.067253	0.858416	-0.000101
1229	1.2219e+02	-4.4618	10.841728	0.000628	6.283394	1.064436	-0.000126
1230	1.2229e+02	-4.4809	10.736762	0.000527	5.269943	0.892753	-0.000105
1231	1.2239e+02	-4.5022	10.591426	0.000730	7.296844	1.236119	-0.000146
1232	1.2248e+02	-4.5227	10.462237	0.000649	6.486084	1.098772	-0.000130
1233	1.2258e+02	-4.5415	10.349197	0.000568	5.675323	0.961426	-0.000114
1234	1.2268e+02	-4.5625	10.236158	0.000568	5.675323	0.961426	-0.000114
1235	1.2278e+02	-4.5812	10.106969	0.000649	6.486084	1.098772	-0.000130
1236	1.2288e+02	-4.6021	9.973744	0.000669	6.688774	1.133109	-0.000134
1237	1.2298e+02	-4.6213	9.884927	0.000446	4.459183	0.755406	-0.000089
1238	1.2308e+02	-4.6416	9.759776	0.000628	6.283394	1.064436	-0.000126
1239	1.2318e+02	-4.6609	9.622513	0.000689	6.891464	1.167446	-0.000138
1240	1.2328e+02	-4.6808	9.513510	0.000547	5.472633	0.927089	-0.000110
1241	1.2338e+02	-4.7009	9.392396	0.000608	6.080703	1.030099	-0.000122
1242	1.2348e+02	-4.7209	9.259171	0.000669	6.688774	1.133109	-0.000134
1243	1.2358e+02	-4.7408	9.170354	0.000446	4.459183	0.755406	-0.000089
1244	1.2368e+02	-4.7615	9.033091	0.000689	6.891464	1.167446	-0.000138
1245	1.2378e+02	-4.7801	8.924089	0.000547	5.472633	0.927089	-0.000110
1246	1.2388e+02	-4.8013	8.798937	0.000628	6.283394	1.064436	-0.000126
1247	1.2398e+02	-4.8206	8.657638	0.000709	7.094154	1.201782	-0.000142
1248	1.2408e+02	-4.8407	8.552672	0.000527	5.269943	0.892753	-0.000105
1249	1.2418e+02	-4.8611	8.435595	0.000588	5.878013	0.995762	-0.000118
1250	1.2428e+02	-4.8808	8.306407	0.000649	6.486084	1.098772	-0.000130
1251	1.2438e+02	-4.9004	8.185293	0.000608	6.080703	1.030099	-0.000122
1252	1.2447e+02	-4.9214	8.043993	0.000709	7.094154	1.201782	-0.000142
1253	1.2457e+02	-4.9414	7.959213	0.000426	4.256492	0.721069	-0.000085
1254	1.2467e+02	-4.9596	7.797728	0.000811	8.107605	1.373465	-0.000162
1255	1.2477e+02	-4.9789	7.672576	0.000628	6.283394	1.064436	-0.000126
1256	1.2487e+02	-4.9992	7.583759	0.000446	4.459183	0.755406	-0.000089
1257	1.2497e+02	-5.0194	7.422274	0.000811	8.107605	1.373465	-0.000162
1258	1.2507e+02	-5.0397	7.325383	0.000486	4.864563	0.824079	-0.000097
1259	1.2517e+02	-5.0588	7.176009	0.000750	7.499534	1.270456	-0.000150
1260	1.2527e+02	-5.0790	7.046820	0.000649	6.486084	1.098772	-0.000130
1261	1.2537e+02	-5.0994	6.933781	0.000568	5.675323	0.961426	-0.000114
1262	1.2547e+02	-5.1193	6.796518	0.000689	6.891464	1.167446	-0.000138
1263	1.2557e+02	-5.1389	6.707701	0.000446	4.459183	0.755406	-0.000089
1264	1.2567e+02	-5.1593	6.562364	0.000730	7.296844	1.236119	-0.000146
1265	1.2577e+02	-5.1788	6.441250	0.000608	6.080703	1.030099	-0.000122
1266	1.2587e+02	-5.1987	6.316099	0.000628	6.283394	1.064436	-0.000126
1267	1.2597e+02	-5.2190	6.190948	0.000628	6.283394	1.064436	-0.000126
1268	1.2607e+02	-5.2390	6.041574	0.000750	7.499534	1.270456	-0.000150
1269	1.2617e+02	-5.2595	5.916422	0.000628	6.283394	1.064436	-0.000126
1270	1.2627e+02	-5.2785	5.771086	0.000730	7.296844	1.236119	-0.000146
1271	1.2636e+02	-5.2984	5.649971	0.000608	6.080703	1.030099	-0.000122
1272	1.2646e+02	-5.3215	5.524820	0.000628	6.283394	1.064436	-0.000126
1273	1.2656e+02	-5.3378	5.367372	0.000790	7.904915	1.339129	-0.000158
1274	1.2666e+02	-5.3583	5.246258	0.000608	6.080703	1.030099	-0.000122
1275	1.2676e+02	-5.3775	5.117070	0.000649	6.486084	1.098772	-0.000130
1276	1.2686e+02	-5.3986	4.979807	0.000689	6.891464	1.167446	-0.000138
1277	1.2696e+02	-5.4178	4.850619	0.000649	6.486084	1.098772	-0.000130
1278	1.2706e+02	-5.4379	4.733542	0.000588	5.878013	0.995762	-0.000118
1279	1.2716e+02	-5.4579	4.576093	0.000790	7.904915	1.339129	-0.000158
1280	1.2726e+02	-5.4762	4.434794	0.000709	7.094154	1.201782	-0.000142
1281	1.2736e+02	-5.4976	4.301568	0.000669	6.688774	1.133109	-0.000134
1282	1.2746e+02	-5.5170	4.168343	0.000669	6.688774	1.133109	-0.000134
1283	1.2756e+02	-5.5374	4.051266	0.000588	5.878013	0.995762	-0.000118
1284	1.2766e+02	-5.5569	3.897855	0.000770	7.702224	1.304792	-0.000154
1285	1.2776e+02	-5.5774	3.768666	0.000649	6.486084	1.098772	-0.000130
1286	1.2786e+02	-5.5971	3.615255	0.000770	7.702224	1.304792	-0.000154
1287	1.2796e+02	-5.6166	3.469918	0.000730	7.296844	1.236119	-0.000146
1288	1.2806e+02	-5.6372	3.364953	0.000527	5.269943	0.892753	-0.000105
1289	1.2816e+02	-5.6573	3.199430	0.000831	8.310295	1.407802	-0.000166
1290	1.2826e+02	-5.6786	3.074279	0.000628	6.283394	1.064436	-0.000126
1291	1.2835e+02	-5.6969	2.904719	0.000851	8.512985	1.442139	-0.000170
1292	1.2845e+02	-5.7172	2.771494	0.000669	6.688774	1.133109	-0.000134
1293	1.2855e+02	-5.7362	2.634231	0.000689	6.891464	1.167446	-0.000138
1294	1.2865e+02	-5.7563	2.484857	0.000750	7.499534	1.270456	-0.000150
1295	1.2875e+02	-5.7771	2.367780	0.000588	5.878013	0.995762	-0.000118
1296	1.2885e+02	-5.7964	2.230517	0.000689	6.891464	1.167446	-0.000138
1297	1.2895e+02	-5.8157	2.060958	0.000851	8.512985	1.442139	-0.000170
1298	1.2905e+02	-5.8366	1.931769	0.000649	6.486084	1.098772	-0.000130
1299	1.2915e+02	-5.8568	1.802581	0.000649	6.486084	1.098772	-0.000130
1300	1.2925e+02	-5.8769	1.657244	0.000730	7.296844	1.236119	-0.000146
1301	1.2935e+02	-5.8966	1.451350	0.001034	10.337196	1.751168	-0.000207
1302	1.2945e+02	-5.9161	1.318125	0.000669	6.688774	1.133109	-0.000134
1303	1.2955e+02	-5.9368	1.201048	0.000588	5.878013	0.995762	-0.000118
1304	1.2965e+02	-5.9561	1.027451	0.000872	8.715675	1.476475	-0.000174
1305	1.2975e+02	-5.9765	0.894226	0.000669	6.688774	1.133109	-0.000134
1306	1.2985e+02	-5.9964	0.756963	0.000689	6.891464	1.167446	-0.000138
1307	1.2995e+02	-6.0168	0.571255	0.000932	9.323745	1.579485	-0.000187
1308	1.3005e+02	-6.0347	0.417844	0.000770	7.702224	1.304792	-0.000154
1309	1.3015e+02	-6.0553	0.276544	0.000709	7.094154	1.201782	-0.000142
1310	1.3025e+02	-6.0763	0.074687	0.001013	10.134506	1.716832	-0.000203
1311	1.3034e+02	-6.0954	-0.042390	0.000588	5.878013	0.995762	-0.000118
1312	1.3044e+02	-6.1154	-0.183690	0.000709	7.094154	1.201782	-0.000142
1313	1.3054e+02	-6.1353	-0.345175	0.000811	8.107605	1.373465	-0.000162
1314	1.3064e+02	-6.1562	-0.494549	0.000750	7.499534	1.270456	-0.000150
1315	1.3074e+02	-6.1751	-0.692369	0.000993	9.931816	1.682495	-0.000199
1316	1.3084e+02	-6.1948	-0.825594	0.000669	6.688774	1.133109	-0.000134
1317	1.3094e+02	-6.2155	-0.991117	0.000831	8.310295	1.407802	-0.000166
1318	1.3104e+02	-6.2349	-1.180862	0.000953	9.526435	1.613822	-0.000191
1319	1.3114e+02	-6.2560	-1.306013	0.000628	6.283394	1.064436	-0.000126
1320	1.3124e+02	-6.2749	-1.467499	0.000811	8.107605	1.373465	-0.000162
1321	1.3134e+02	-6.2949	-1.641096	0.000872	8.715675	1.476475	-0.000174
1322	1.3144e+02	-6.3155	-1.826804	0.000932	9.323745	1.579485	-0.000187
1323	1.3154e+02	-6.3351	-1.951955	0.000628	6.283394	1.064436	-0.000126
1324	1.3164e+02	-6.3536	-2.129589	0.000892	8.918365	1.510812	-0.000179
1325	1.3174e+02	-6.3742	-2.323372	0.000973	9.729126	1.648158	-0.000195
1326	1.3184e+02	-6.3947	-2.505043	0.000912	9.121055	1.545149	-0.000183
1327	1.3194e+02	-6.4146	-2.662491	0.000790	7.904915	1.339129	-0.000158
1328	1.3204e+02	-6.4340	-2.811865	0.000750	7.499534	1.270456	-0.000150
1329	1.3214e+02	-6.4542	-3.001610	0.000953	9.526435	1.613822	-0.000191
1330	1.3224e+02	-6.4743	-3.175207	0.000872	8.715675	1.476475	-0.000174
1331	1.3234e+02	-6.4938	-3.336693	0.000811	8.107605	1.373465	-0.000162
1332	1.3243e+02	-6.5146	-3.522401	0.000932	9.323745	1.579485	-0.000187
1333	1.3253e+02	-6.5337	-3.712146	0.000953	9.526435	1.613822	-0.000191
1334	1.3263e+02	-6.5533	-3.905929	0.000973	9.729126	1.648158	-0.000195
1335	1.3273e+02	-6.5740	-4.047229	0.000709	7.094154	1.201782	-0.000142
1336	1.3283e+02	-6.5930	-4.236974	0.000953	9.526435	1.613822	-0.000191
1337	1.3293e+02	-6.6128	-4.390385	0.000770	7.702224	1.304792	-0.000154
1338	1.3303e+02	-6.6385	-4.580130	0.000953	9.526435	1.613822	-0.000191
1339	1.3313e+02	-6.6521	-4.749690	0.000851	8.512985	1.442139	-0.000170
1340	1.3323e+02	-6.6738	-4.955584	0.001034	10.337196	1.751168	-0.000207
1341	1.3333e+02	-6.6936	-5.161478	0.001034	10.337196	1.751168	-0.000207
1342	1.3343e+02	-6.7139	-5.327001	0.000831	8.310295	1.407802	-0.000166
1343	1.3353e+02	-6.7329	-5.504635	0.000892	8.918365	1.510812	-0.000179
1344	1.3363e+02	-6.7528	-5.702454	0.000993	9.931816	1.682495	-0.000199
1345	1.3373e+02	-6.7747	-5.876051	0.000872	8.715675	1.476475	-0.000174
1346	1.3383e+02	-6.7923	-6.065796	0.000953	9.526435	1.613822	-0.000191
1347	1.3393e+02	-6.8134	-6.251505	0.000932	9.323745	1.579485	-0.000187
1348	1.3403e+02	-6.8327	-6.473547	0.001115	11.147956	1.888515	-0.000223
1349	1.3413e+02	-6.8524	-6.687515	0.001074	10.742576	1.819842	-0.000215
1350	1.3423e+02	-6.8724	-6.840927	0.000770	7.702224	1.304792	-0.000154
1351	1.3432e+02	-6.8917	-7.030672	0.000953	9.526435	1.613822	-0.000191
1352	1.3442e+02	-6.9128	-7.236566	0.001034	10.337196	1.751168	-0.000207
1353	1.3452e+02	-6.9321	-7.414200	0.000892	8.918365	1.510812	-0.000179
1354	1.3462e+02	-6.9516	-7.688725	0.001378	13.782928	2.334891	-0.000276
1355	1.3472e+02	-6.9723	-7.825988	0.000689	6.891464	1.167446	-0.000138
1356	1.3482e+02	-6.9908	-8.015733	0.000953	9.526435	1.613822	-0.000191
1357	1.3492e+02	-7.0117	-8.205478	0.000953	9.526435	1.613822	-0.000191
1358	1.3502e+02	-7.0319	-8.435595	0.001155	11.553337	1.957188	-0.000231
1359	1.3512e+02	-7.0513	-8.629378	0.000973	9.729126	1.648158	-0.000195
1360	1.3522e+02	-7.0715	-8.871606	0.001216	12.161407	2.060198	-0.000243
1361	1.3532e+02	-7.0905	-9.037128	0.000831	8.310295	1.407802	-0.000166
1362	1.3542e+02	-7.1123	-9.255134	0.001095	10.945266	1.854178	-0.000219
1363	1.3552e+02	-7.1310	-9.477176	0.001115	11.147956	1.888515	-0.000223
1364	1.3562e+02	-7.1515	-9.670959	0.000973	9.729126	1.648158	-0.000195
1365	1.3572e+02	-7.1710	-9.884927	0.001074	10.742576	1.819842	-0.000215
1366	1.3582e+02	-7.1919	-10.135229	0.001257	12.566787	2.128871	-0.000252
1367	1.3592e+02	-7.2114	-10.353235	0.001095	10.945266	1.854178	-0.000219
1368	1.3602e+02	-7.2310	-10.559129	0.001034	10.337196	1.751168	-0.000207
1369	1.3612e+02	-7.2514	-10.769060	0.001054	10.539886	1.785505	-0.000211
1370	1.3622e+02	-7.2718	-10.987065	0.001095	10.945266	1.854178	-0.000219
1371	1.3631e+02	-7.2913	-11.184885	0.000993	9.931816	1.682495	-0.000199
1372	1.3641e+02	-7.3111	-11.459410	0.001378	13.782928	2.334891	-0.000276
1373	1.3651e+02	-7.3312	-11.645118	0.000932	9.323745	1.579485	-0.000187
1374	1.3661e+02	-7.3507	-11.915606	0.001358	13.580238	2.300555	-0.000272
1375	1.3671e+02	-7.3706	-12.113426	0.000993	9.931816	1.682495	-0.000199
1376	1.3681e+02	-7.3906	-12.359691	0.001236	12.364097	2.094535	-0.000248
1377	1.3691e+02	-7.4102	-12.593845	0.001176	11.756027	1.991525	-0.000235
1378	1.3701e+02	-7.4298	-12.803776	0.001054	10.539886	1.785505	-0.000211
1379	1.3711e+02	-7.4505	-13.050041	0.001236	12.364097	2.094535	-0.000248
1380	1.3721e+02	-7.4704	-13.292269	0.001216	12.161407	2.060198	-0.000243
1381	1.3731e+02	-7.4910	-13.546609	0.001277	12.769477	2.163208	-0.000256
1382	1.3741e+02	-7.5101	-13.792874	0.001236	12.364097	2.094535	-0.000248
1383	1.3751e+02	-7.5298	-14.051251	0.001297	12.972167	2.197545	-0.000260
1384	1.3761e+02	-7.5507	-14.232922	0.000912	9.121055	1.545149	-0.000183
1385	1.3771e+02	-7.5697	-14.495336	0.001317	13.174858	2.231881	-0.000264
1386	1.3781e+02	-7.5897	-14.757750	0.001317	13.174858	2.231881	-0.000264
1387	1.3791e+02	-7.6093	-14.995941	0.001196	11.958717	2.025861	-0.000239
1388	1.3801e+02	-7.6292	-15.262392	0.001338	13.377548	2.266218	-0.000268
1389	1.3811e+02	-7.6491	-15.520768	0.001297	12.972167	2.197545	-0.000260
1390	1.3821e+02	-7.6689	-15.779145	0.001297	12.972167	2.197545	-0.000260
1391	1.3831e+02	-7.6889	-16.009262	0.001155	11.553337	1.957188	-0.000231
1392	1.3840e+02	-7.7086	-16.295898	0.001439	14.390998	2.437901	-0.000288
1393	1.3850e+02	-7.7293	-16.554275	0.001297	12.972167	2.197545	-0.000260
1394	1.3860e+02	-7.7486	-16.832837	0.001399	13.985618	2.369228	-0.000280
1395	1.3870e+02	-7.7681	-17.079103	0.001236	12.364097	2.094535	-0.000248
1396	1.3880e+02	-7.7893	-17.361702	0.001419	14.188308	2.403564	-0.000284
1397	1.3890e+02	-7.8082	-17.640265	0.001399	13.985618	2.369228	-0.000280
1398	1.3900e+02	-7.8281	-17.918827	0.001399	13.985618	2.369228	-0.000280
1399	1.3910e+02	-7.8476	-18.185278	0.001338	13.377548	2.266218	-0.000268
1400	1.3920e+02	-7.8682	-18.512286	0.001642	16.417899	2.781267	-0.000329
1401	1.3930e+02	-7.8879	-18.718180	0.001034	10.337196	1.751168	-0.000207
1402	1.3940e+02	-7.9078	-19.037114	0.001601	16.012519	2.712594	-0.000321
1403	1.3950e+02	-7.9277	-19.303565	0.001338	13.377548	2.266218	-0.000268
1404	1.3960e+02	-7.9476	-19.602313	0.001500	14.999069	2.540911	-0.000300
1405	1.3970e+02	-7.9675	-19.884912	0.001419	14.188308	2.403564	-0.000284
1406	1.3980e+02	-7.9868	-20.167512	0.001419	14.188308	2.403564	-0.000284
1407	1.3990e+02	-8.0078	-20.446074	0.001399	13.985618	2.369228	-0.000280
1408	1.4000e+02	-8.0273	-20.760971	0.001581	15.809829	2.678258	-0.000316
1409	1.4010e+02	-8.0467	-21.055681	0.001480	14.796378	2.506574	-0.000296
1410	1.4020e+02	-8.0679	-21.342318	0.001439	14.390998	2.437901	-0.000288
1411	1.4029e+02	-8.0872	-21.661252	0.001601	16.012519	2.712594	-0.000321
1412	1.4039e+02	-8.1075	-21.964037	0.001520	15.201759	2.575248	-0.000304
1413	1.4049e+02	-8.1274	-22.266822	0.001520	15.201759	2.575248	-0.000304
1414	1.4059e+02	-8.1470	-22.605942	0.001703	17.025970	2.884277	-0.000341
1415	1.4069e+02	-8.1665	-22.892578	0.001439	14.390998	2.437901	-0.000288
1416	1.4079e+02	-8.1870	-23.235735	0.001723	17.228660	2.918614	-0.000345
1417	1.4089e+02	-8.2069	-23.574854	0.001703	17.025970	2.884277	-0.000341
1418	1.4099e+02	-8.2257	-23.918011	0.001723	17.228660	2.918614	-0.000345
1419	1.4109e+02	-8.2466	-24.196573	0.001399	13.985618	2.369228	-0.000280
1420	1.4119e+02	-8.2661	-24.580101	0.001926	19.255561	3.261980	-0.000385
1421	1.4129e+02	-8.2857	-24.874812	0.001480	14.796378	2.506574	-0.000296
1422	1.4139e+02	-8.3060	-25.193746	0.001601	16.012519	2.712594	-0.000321
1423	1.4149e+02	-8.3264	-25.565162	0.001865	18.647491	3.158970	-0.000373
1424	1.4159e+02	-8.3463	-25.896207	0.001662	16.620590	2.815604	-0.000333
1425	1.4169e+02	-8.3664	-26.255512	0.001804	18.039420	3.055961	-0.000361
1426	1.4179e+02	-8.3861	-26.598669	0.001723	17.228660	2.918614	-0.000345
1427	1.4189e+02	-8.4064	-26.949900	0.001763	17.634040	2.987287	-0.000353
1428	1.4199e+02	-8.4257	-27.333428	0.001926	19.255561	3.261980	-0.000385
1429	1.4209e+02	-8.4459	-27.656398	0.001622	16.215209	2.746931	-0.000325
1430	1.4219e+02	-8.4656	-28.043963	0.001946	19.458251	3.296317	-0.000390
1431	1.4228e+02	-8.4860	-28.375009	0.001662	16.620590	2.815604	-0.000333
1432	1.4238e+02	-8.5054	-28.802945	0.002149	21.485152	3.639683	-0.000430
1433	1.4248e+02	-8.5245	-29.133990	0.001662	16.620590	2.815604	-0.000333
1434	1.4258e+02	-8.5455	-29.525592	0.001966	19.660941	3.330654	-0.000394
1435	1.4268e+02	-8.5663	-29.921232	0.001986	19.863631	3.364990	-0.000398
1436	1.4278e+02	-8.5858	-30.296685	0.001885	18.850181	3.193307	-0.000377
1437	1.4288e+02	-8.6056	-30.651953	0.001784	17.836730	3.021624	-0.000357
1438	1.4298e+02	-8.6258	-31.075852	0.002128	21.282462	3.605347	-0.000426
1439	1.4308e+02	-8.6449	-31.463417	0.001946	19.458251	3.296317	-0.000390
1440	1.4318e+02	-8.6654	-31.867131	0.002027	20.269012	3.433664	-0.000406
1441	1.4328e+02	-8.6853	-32.323327	0.002290	22.903983	3.880040	-0.000458
1442	1.4338e+02	-8.7042	-32.714929	0.001966	19.660941	3.330654	-0.000394
1443	1.4348e+02	-8.7246	-33.122680	0.002047	20.471702	3.468000	-0.000410
1444	1.4358e+02	-8.7442	-33.514282	0.001966	19.660941	3.330654	-0.000394
1445	1.4368e+02	-8.7651	-33.942219	0.002149	21.485152	3.639683	-0.000430
1446	1.4378e+02	-8.7847	-34.374192	0.002169	21.687842	3.674020	-0.000434
1447	1.4388e+02	-8.8040	-34.761757	0.001946	19.458251	3.296317	-0.000390
1448	1.4398e+02	-8.8247	-35.262362	0.002513	25.133574	4.257743	-0.000503
1449	1.4408e+02	-8.8441	-35.653964	0.001966	19.660941	3.330654	-0.000394
1450	1.4418e+02	-8.8637	-36.073826	0.002108	21.079772	3.571010	-0.000422
1451	1.4428e+02	-8.8846	-36.554246	0.002412	24.120124	4.086060	-0.000483
1452	1.4437e+02	-8.9043	-37.026590	0.002371	23.714744	4.017386	-0.000475
1453	1.4447e+02	-8.9229	-37.486824	0.002311	23.106673	3.914376	-0.000463
1454	1.4457e+02	-8.9429	-37.894575	0.002047	20.471702	3.468000	-0.000410
1455	1.4467e+02	-8.9651	-38.415365	0.002615	26.147025	4.429426	-0.000523
1456	1.4477e+02	-8.9838	-38.863487	0.002250	22.498603	3.811367	-0.000450
1457	1.4487e+02	-9.0035	-39.327758	0.002331	23.309363	3.948713	-0.000467
1458	1.4497e+02	-9.0234	-39.820288	0.002473	24.728194	4.189069	-0.000495
1459	1.4507e+02	-9.0439	-40.308782	0.002453	24.525504	4.154733	-0.000491
1460	1.4517e+02	-9.0635	-40.777090	0.002351	23.512053	3.983050	-0.000471
1461	1.4527e+02	-9.0836	-41.273657	0.002493	24.930884	4.223406	-0.000499
1462	1.4537e+02	-9.1025	-41.794448	0.002615	26.147025	4.429426	-0.000523
1463	1.4547e+02	-9.1226	-42.295053	0.002513	25.133574	4.257743	-0.000503
1464	1.4557e+02	-9.1442	-42.771435	0.002392	23.917434	4.051723	-0.000479
1465	1.4567e+02	-9.1626	-43.284151	0.002574	25.741645	4.360753	-0.000515
1466	1.4577e+02	-9.1818	-43.849350	0.002838	28.376616	4.807129	-0.000568
1467	1.4587e+02	-9.2023	-44.337843	0.002453	24.525504	4.154733	-0.000491
1468	1.4597e+02	-9.2227	-44.911117	0.002878	28.781997	4.875802	-0.000576
1469	1.4607e+02	-9.2432	-45.407684	0.002493	24.930884	4.223406	-0.000499
1470	1.4617e+02	-9.2622	-45.948660	0.002716	27.160476	4.601109	-0.000544
1471	1.4626e+02	-9.2833	-46.517897	0.002858	28.579306	4.841466	-0.000572
1472	1.4636e+02	-9.3018	-47.066947	0.002757	27.565856	4.669782	-0.000552
1473	1.4646e+02	-9.3233	-47.607923	0.002716	27.160476	4.601109	-0.000544
1474	1.4656e+02	-9.3422	-48.128714	0.002615	26.147025	4.429426	-0.000523
1475	1.4666e+02	-9.3615	-48.734284	0.003040	30.403517	5.150495	-0.000609
1476	1.4676e+02	-9.3819	-49.279297	0.002736	27.363166	4.635446	-0.000548
1477	1.4686e+02	-9.4022	-49.888905	0.003061	30.606208	5.184832	-0.000613
1478	1.4696e+02	-9.4211	-50.514661	0.003142	31.416968	5.322178	-0.000629
1479	1.4706e+02	-9.4424	-51.071786	0.002797	27.971236	4.738456	-0.000560
1480	1.4716e+02	-9.4617	-51.632948	0.002817	28.173926	4.772792	-0.000564
1481	1.4726e+02	-9.4816	-52.274852	0.003223	32.227728	5.459525	-0.000645
1482	1.4736e+02	-9.5023	-52.864274	0.002959	29.592757	5.013149	-0.000592
1483	1.4746e+02	-9.5210	-53.485993	0.003121	31.214278	5.287842	-0.000625
1484	1.4756e+02	-9.5409	-54.152120	0.003344	33.443869	5.665545	-0.000669
1485	1.4766e+02	-9.5613	-54.765765	0.003081	30.808898	5.219169	-0.000617
1486	1.4776e+02	-9.5818	-55.371335	0.003040	30.403517	5.150495	-0.000609
1487	1.4786e+02	-9.6015	-56.053611	0.003425	34.254630	5.802891	-0.000686
1488	1.4796e+02	-9.6225	-56.695516	0.003223	32.227728	5.459525	-0.000645
1489	1.4806e+02	-9.6411	-57.305123	0.003061	30.606208	5.184832	-0.000613
1490	1.4816e+02	-9.6607	-57.987399	0.003425	34.254630	5.802891	-0.000686
1491	1.4825e+02	-9.6800	-58.685824	0.003507	35.065390	5.940238	-0.000702
1492	1.4835e+02	-9.6999	-59.339840	0.003284	32.835799	5.562535	-0.000657
1493	1.4845e+02	-9.7202	-60.034227	0.003486	34.862700	5.905901	-0.000698
1494	1.4855e+02	-9.7409	-60.724577	0.003466	34.660010	5.871565	-0.000694
1495	1.4865e+02	-9.7602	-61.423002	0.003507	35.065390	5.940238	-0.000702
1496	1.4875e+02	-9.7810	-62.117389	0.003486	34.862700	5.905901	-0.000698
1497	1.4885e+02	-9.8004	-62.852148	0.003689	36.889601	6.249268	-0.000738
1498	1.4895e+02	-9.8203	-63.566721	0.003588	35.876151	6.077584	-0.000718
1499	1.4905e+02	-9.8402	-64.277257	0.003567	35.673460	6.043248	-0.000714
1500	1.4915e+02	-9.8603	-65.020090	0.003729	37.294981	6.317941	-0.000747
1501	1.4925e+02	-9.8794	-65.746774	0.003648	36.484221	6.180594	-0.000730
1502	1.4935e+02	-9.8999	-66.538053	0.003973	39.727263	6.729981	-0.000795
1503	1.4945e+02	-9.9193	-67.248589	0.003567	35.673460	6.043248	-0.000714
1504	1.4955e+02	-9.9396	-68.060053	0.004074	40.740713	6.901664	-0.000816
1505	1.4965e+02	-9.9604	-68.827109	0.003851	38.511122	6.523961	-0.000771
1506	1.4975e+02	-9.9790	-69.602239	0.003892	38.916502	6.592634	-0.000779
1507	1.4985e+02	-9.9997	-70.441963	0.004216	42.159544	7.142020	-0.000844
1508	1.4995e+02	-9.9795	-70.991013	-0.002757	-27.565856	-4.669782	-0.000552
1509	1.5005e+02	-9.9599	-71.665215	-0.003385	-33.849249	-5.734218	-0.000678
1510	1.5015e+02	-9.9393	-72.190043	-0.002635	-26.349715	-4.463763	-0.000527
1511	1.5025e+02	-9.9192	-72.743130	-0.002777	-27.768546	-4.704119	-0.000556
1512	1.5034e+02	-9.8991	-73.195289	-0.002270	-22.701293	-3.845703	-0.000454
1513	1.5044e+02	-9.8795	-73.691857	-0.002493	-24.930884	-4.223406	-0.000499
1514	1.5054e+02	-9.8590	-74.204573	-0.002574	-25.741645	-4.360753	-0.000515
1515	1.5064e+02	-9.8404	-74.588101	-0.001926	-19.255561	-3.261980	-0.000385
1516	1.5074e+02	-9.8196	-75.032186	-0.002230	-22.295913	-3.777030	-0.000446
1517	1.5084e+02	-9.7993	-75.443974	-0.002067	-20.674392	-3.502337	-0.000414
1518	1.5094e+02	-9.7790	-75.831539	-0.001946	-19.458251	-3.296317	-0.000390
1519	1.5104e+02	-9.7610	-76.231216	-0.002007	-20.066322	-3.399327	-0.000402
1520	1.5114e+02	-9.7394	-76.638966	-0.002047	-20.471702	-3.468000	-0.000410
1521	1.5124e+02	-9.7211	-76.957900	-0.001601	-16.012519	-2.712594	-0.000321
1522	1.5134e+02	-9.6996	-77.361614	-0.002027	-20.269012	-3.433664	-0.000406
1523	1.5144e+02	-9.6803	-77.684584	-0.001622	-16.215209	-2.746931	-0.000325
1524	1.5154e+02	-9.6609	-77.971221	-0.001439	-14.390998	-2.437901	-0.000288
1525	1.5164e+02	-9.6407	-78.286118	-0.001581	-15.809829	-2.678258	-0.000316
1526	1.5174e+02	-9.6212	-78.617163	-0.001662	-16.620590	-2.815604	-0.000333
1527	1.5184e+02	-9.6015	-78.863428	-0.001236	-12.364097	-2.094535	-0.000248
1528	1.5194e+02	-9.5813	-79.178325	-0.001581	-15.809829	-2.678258	-0.000316
1529	1.5204e+02	-9.5604	-79.428627	-0.001257	-12.566787	-2.128871	-0.000252
1530	1.5214e+02	-9.5415	-79.666818	-0.001196	-11.958717	-2.025861	-0.000239
1531	1.5224e+02	-9.5210	-79.957492	-0.001459	-14.593688	-2.472238	-0.000292
1532	1.5233e+02	-9.5002	-80.195683	-0.001196	-11.958717	-2.025861	-0.000239
1533	1.5243e+02	-9.4819	-80.466171	-0.001358	-13.580238	-2.300555	-0.000272
1534	1.5253e+02	-9.4624	-80.655916	-0.000953	-9.526435	-1.613822	-0.000191
1535	1.5263e+02	-9.4423	-80.886033	-0.001155	-11.553337	-1.957188	-0.000231
1536	1.5273e+02	-9.4218	-81.116150	-0.001155	-11.553337	-1.957188	-0.000231
1537	1.5283e+02	-9.4009	-81.281672	-0.000831	-8.310295	-1.407802	-0.000166
1538	1.5293e+02	-9.3806	-81.467381	-0.000932	-9.323745	-1.579485	-0.000187
1539	1.5303e+02	-9.3620	-81.689423	-0.001115	-11.147956	-1.888515	-0.000223
1540	1.5313e+02	-9.3422	-81.863020	-0.000872	-8.715675	-1.476475	-0.000174
1541	1.5323e+02	-9.3224	-82.060840	-0.000993	-9.931816	-1.682495	-0.000199
1542	1.5333e+02	-9.3021	-82.230399	-0.000851	-8.512985	-1.442139	-0.000170
1543	1.5343e+02	-9.2821	-82.395922	-0.000831	-8.310295	-1.407802	-0.000166
1544	1.5353e+02	-9.2615	-82.525110	-0.000649	-6.486084	-1.098772	-0.000130
1545	1.5363e+02	-9.2426	-82.678521	-0.000770	-7.702224	-1.304792	-0.000154
1546	1.5373e+02	-9.2224	-82.831933	-0.000770	-7.702224	-1.304792	-0.000154
1547	1.5383e+02	-9.2028	-82.993418	-0.000811	-8.107605	-1.373465	-0.000162
1548	1.5393e+02	-9.1826	-83.110495	-0.000588	-5.878013	-0.995762	-0.000118
1549	1.5403e+02	-9.1631	-83.280055	-0.000851	-8.512985	-1.442139	-0.000170
1550	1.5413e+02	-9.1431	-83.389057	-0.000547	-5.472633	-0.927089	-0.000110
1551	1.5422e+02	-9.1230	-83.542468	-0.000770	-7.702224	-1.304792	-0.000154
1552	1.5432e+02	-9.1031	-83.611100	-0.000345	-3.445732	-0.583723	-0.000069
1553	1.5442e+02	-9.0831	-83.732214	-0.000608	-6.080703	-1.030099	-0.000122
1554	1.5452e+02	-9.0634	-83.825068	-0.000466	-4.661873	-0.789743	-0.000093
1555	1.5462e+02	-9.0431	-83.942145	-0.000588	-5.878013	-0.995762	-0.000118
1556	1.5472e+02	-9.0234	-84.034999	-0.000466	-4.661873	-0.789743	-0.000093
1557	1.5482e+02	-9.0034	-84.107667	-0.000365	-3.648422	-0.618059	-0.000073
1558	1.5492e+02	-8.9833	-84.216670	-0.000547	-5.472633	-0.927089	-0.000110
1559	1.5502e+02	-8.9636	-84.366044	-0.000750	-7.499534	-1.270456	-0.000150
1560	1.5512e+02	-8.9429	-84.378155	-0.000061	-0.608070	-0.103010	-0.000012
1561	1.5522e+02	-8.9232	-84.426601	-0.000243	-2.432281	-0.412040	-0.000049
1562	1.5532e+02	-8.9043	-84.535604	-0.000547	-5.472633	-0.927089	-0.000110
1563	1.5542e+02	-8.8835	-84.580012	-0.000223	-2.229591	-0.377703	-0.000045
1564	1.5552e+02	-8.8632	-84.660755	-0.000405	-4.053802	-0.686733	-0.000081
1565	1.5562e+02	-8.8437	-84.749572	-0.000446	-4.459183	-0.755406	-0.000089
1566	1.5572e+02	-8.8246	-84.822240	-0.000365	-3.648422	-0.618059	-0.000073
1567	1.5582e+02	-8.8032	-84.866649	-0.000223	-2.229591	-0.377703	-0.000045
1568	1.5592e+02	-8.7839	-84.919132	-0.000263	-2.634972	-0.446376	-0.000053
1569	1.5602e+02	-8.7642	-84.931243	-0.000061	-0.608070	-0.103010	-0.000012
1570	1.5612e+02	-8.7451	-84.991800	-0.000304	-3.040352	-0.515050	-0.000061
1571	1.5622e+02	-8.7244	-85.064469	-0.000365	-3.648422	-0.618059	-0.000073
1572	1.5631e+02	-8.7048	-85.072543	-0.000041	-0.405380	-0.068673	-0.000008
1573	1.5641e+02	-8.6855	-85.133100	-0.000304	-3.040352	-0.515050	-0.000061
1574	1.5651e+02	-8.6654	-85.177508	-0.000223	-2.229591	-0.377703	-0.000045
1575	1.5661e+02	-8.6441	-85.217880	-0.000203	-2.026901	-0.343366	-0.000041
1576	1.5671e+02	-8.6255	-85.225954	-0.000041	-0.405380	-0.068673	-0.000008
1577	1.5681e+02	-8.6047	-85.290548	-0.000324	-3.243042	-0.549386	-0.000065
1578	1.5691e+02	-8.5852	-85.278437	0.000061	0.608070	0.103010	0.000012
1579	1.5701e+02	-8.5659	-85.290548	-0.000061	-0.608070	-0.103010	-0.000012
1580	1.5711e+02	-8.5455	-85.338994	-0.000243	-2.432281	-0.412040	-0.000049
1581	1.5721e+02	-8.5258	-85.330920	0.000041	0.405380	0.068673	0.000008
1582	1.5731e+02	-8.5043	-85.338994	-0.000041	-0.405380	-0.068673	-0.000008
1583	1.5741e+02	-8.4859	-85.371291	-0.000162	-1.621521	-0.274693	-0.000032
1584	1.5751e+02	-8.4689	-85.387439	-0.000081	-0.810760	-0.137347	-0.000016
1585	1.5761e+02	-8.4457	-85.395514	-0.000041	-0.405380	-0.068673	-0.000008
1586	1.5771e+02	-8.4259	-85.411662	-0.000081	-0.810760	-0.137347	-0.000016
1587	1.5781e+02	-8.4052	-85.403588	0.000041	0.405380	0.068673	0.000008
1588	1.5791e+02	-8.3865	-85.411662	-0.000041	-0.405380	-0.068673	-0.000008
1589	1.5801e+02	-8.3662	-85.435885	-0.000122	-1.216141	-0.206020	-0.000024
1590	1.5811e+02	-8.3459	-85.423774	0.000061	0.608070	0.103010	0.000012
1591	1.5821e+02	-8.3266	-85.452034	-0.000142	-1.418831	-0.240356	-0.000028
1592	1.5830e+02	-8.3060	-85.419737	0.000162	1.621521	0.274693	0.000032
1593	1.5840e+02	-8.2864	-85.411662	0.000041	0.405380	0.068673	0.000008
1594	1.5850e+02	-8.2661	-85.395514	0.000081	0.810760	0.137347	0.000016
1595	1.5860e+02	-8.2408	-85.407625	-0.000061	-0.608070	-0.103010	-0.000012
1596	1.5870e+02	-8.2257	-85.383402	0.000122	1.216141	0.206020	0.000024
1597	1.5880e+02	-8.2066	-85.379365	0.000020	0.202690	0.034337	0.000004
1598	1.5890e+02	-8.1871	-85.318808	0.000304	3.040352	0.515050	0.000061
1599	1.5900e+02	-8.1676	-85.359179	-0.000203	-2.026901	-0.343366	-0.000041
1600	1.5910e+02	-8.1467	-85.286511	0.000365	3.648422	0.618059	0.000073
1601	1.5920e+02	-8.1260	-85.306697	-0.000101	-1.013451	-0.171683	-0.000020
1602	1.5930e+02	-8.1078	-85.278437	0.000142	1.418831	0.240356	0.000028
1603	1.5940e+02	-8.0876	-85.258251	0.000101	1.013451	0.171683	0.000020
1604	1.5950e+02	-8.0672	-85.266325	-0.000041	-0.405380	-0.068673	-0.000008
1605	1.5960e+02	-8.0486	-85.238065	0.000142	1.418831	0.240356	0.000028
1606	1.5970e+02	-8.0273	-85.217880	0.000101	1.013451	0.171683	0.000020
1607	1.5980e+02	-8.0078	-85.169434	0.000243	2.432281	0.412040	0.000049
1608	1.5990e+02	-7.9871	-85.145211	0.000122	1.216141	0.206020	0.000024
1609	1.6000e+02	-7.9672	-85.133100	0.000061	0.608070	0.103010	0.000012
1610	1.6010e+02	-7.9475	-85.100803	0.000162	1.621521	0.274693	0.000032
1611	1.6019e+02	-7.9282	-85.084654	0.000081	0.810760	0.137347	0.000016
1612	1.6029e+02	-7.9083	-85.076580	0.000041	0.405380	0.068673	0.000008
1613	1.6039e+02	-7.8874	-85.028134	0.000243	2.432281	0.412040	0.000049
1614	1.6049e+02	-7.8680	-84.979689	0.000243	2.432281	0.412040	0.000049
1615	1.6059e+02	-7.8487	-84.947392	0.000162	1.621521	0.274693	0.000032
1616	1.6069e+02	-7.8273	-84.959503	-0.000061	-0.608070	-0.103010	-0.000012
1617	1.6079e+02	-7.8085	-84.870686	0.000446	4.459183	0.755406	0.000089
1618	1.6089e+02	-7.7884	-84.878760	-0.000041	-0.405380	-0.068673	-0.000008
1619	1.6099e+02	-7.7682	-84.842426	0.000182	1.824211	0.309030	0.000037
1620	1.6109e+02	-7.7476	-84.798018	0.000223	2.229591	0.377703	0.000045
1621	1.6119e+02	-7.7283	-84.761683	0.000182	1.824211	0.309030	0.000037
1622	1.6129e+02	-7.7081	-84.741498	0.000101	1.013451	0.171683	0.000020
1623	1.6139e+02	-7.6878	-84.693052	0.000243	2.432281	0.412040	0.000049
1624	1.6149e+02	-7.6685	-84.636532	0.000284	2.837662	0.480713	0.000057
1625	1.6159e+02	-7.6489	-84.588087	0.000243	2.432281	0.412040	0.000049
1626	1.6169e+02	-7.6288	-84.547715	0.000203	2.026901	0.343366	0.000041
1627	1.6179e+02	-7.6086	-84.491195	0.000284	2.837662	0.480713	0.000057
1628	1.6189e+02	-7.5898	-84.450824	0.000203	2.026901	0.343366	0.000041
1629	1.6199e+02	-7.5701	-84.410453	0.000203	2.026901	0.343366	0.000041
1630	1.6209e+02	-7.5488	-84.390267	0.000101	1.013451	0.171683	0.000020
1631	1.6219e+02	-7.5298	-84.374118	0.000081	0.810760	0.137347	0.000016
1632	1.6228e+02	-7.5096	-84.261079	0.000568	5.675323	0.961426	0.000114
1633	1.6238e+02	-7.4902	-84.273190	-0.000061	-0.608070	-0.103010	-0.000012
1634	1.6248e+02	-7.4702	-84.212633	0.000304	3.040352	0.515050	0.000061
1635	1.6258e+02	-7.4507	-84.127853	0.000426	4.256492	0.721069	0.000085
1636	1.6268e+02	-7.4310	-84.156113	-0.000142	-1.418831	-0.240356	-0.000028
1637	1.6278e+02	-7.4100	-84.083445	0.000365	3.648422	0.618059	0.000073
1638	1.6288e+02	-7.3898	-83.974442	0.000547	5.472633	0.927089	0.000110
1639	1.6298e+02	-7.3698	-83.990590	-0.000081	-0.810760	-0.137347	-0.000016
1640	1.6308e+02	-7.3505	-83.841216	0.000750	7.499534	1.270456	0.000150
1641	1.6318e+02	-7.3311	-83.841216	0.000000	0.000000	0.000000	0.000000
1642	1.6328e+02	-7.3108	-83.816994	0.000122	1.216141	0.206020	0.000024
1643	1.6338e+02	-7.2910	-83.764511	0.000263	2.634972	0.446376	0.000053
1644	1.6348e+02	-7.2714	-83.687805	0.000385	3.851112	0.652396	0.000077
1645	1.6358e+02	-7.2510	-83.687805	0.000000	0.000000	0.000000	0.000000
1646	1.6368e+02	-7.2299	-83.643397	0.000223	2.229591	0.377703	0.000045
1647	1.6378e+02	-7.2116	-83.558617	0.000426	4.256492	0.721069	0.000085
1648	1.6388e+02	-7.1918	-83.514208	0.000223	2.229591	0.377703	0.000045
1649	1.6398e+02	-7.1704	-83.465763	0.000243	2.432281	0.412040	0.000049
1650	1.6408e+02	-7.1517	-83.405206	0.000304	3.040352	0.515050	0.000061
1651	1.6418e+02	-7.1313	-83.360797	0.000223	2.229591	0.377703	0.000045
1652	1.6427e+02	-7.1124	-83.280055	0.000405	4.053802	0.686733	0.000081
1653	1.6437e+02	-7.0918	-83.223535	0.000284	2.837662	0.480713	0.000057
1654	1.6447e+02	-7.0709	-83.158940	0.000324	3.243042	0.549386	0.000065
1655	1.6457e+02	-7.0518	-83.078198	0.000405	4.053802	0.686733	0.000081
1656	1.6467e+02	-7.0319	-83.029752	0.000243	2.432281	0.412040	0.000049
1657	1.6477e+02	-7.0111	-82.973232	0.000284	2.837662	0.480713	0.000057
1658	1.6487e+02	-6.9917	-82.953047	0.000101	1.013451	0.171683	0.000020
1659	1.6497e+02	-6.9721	-82.880378	0.000365	3.648422	0.618059	0.000073
1660	1.6507e+02	-6.9528	-82.856155	0.000122	1.216141	0.206020	0.000024
1661	1.6517e+02	-6.9324	-82.739078	0.000588	5.878013	0.995762	0.000118
1662	1.6527e+02	-6.9125	-82.722930	0.000081	0.810760	0.137347	0.000016
1663	1.6537e+02	-6.8918	-82.658336	0.000324	3.243042	0.549386	0.000065
1664	1.6547e+02	-6.8727	-82.585667	0.000365	3.648422	0.618059	0.000073
1665	1.6557e+02	-6.8510	-82.541259	0.000223	2.229591	0.377703	0.000045
1666	1.6567e+02	-6.8332	-82.496850	0.000223	2.229591	0.377703	0.000045
1667	1.6577e+02	-6.8130	-82.391885	0.000527	5.269943	0.892753	0.000105
1668	1.6587e+02	-6.7931	-82.379773	0.000061	0.608070	0.103010	0.000012
1669	1.6597e+02	-6.7728	-82.327291	0.000263	2.634972	0.446376	0.000053
1670	1.6607e+02	-6.7524	-82.250585	0.000385	3.851112	0.652396	0.000077
1671	1.6616e+02	-6.7329	-82.214251	0.000182	1.824211	0.309030	0.000037
1672	1.6626e+02	-6.7120	-82.093137	0.000608	6.080703	1.030099	0.000122
1673	1.6636e+02	-6.6928	-82.064877	0.000142	1.418831	0.240356	0.000028
1674	1.6646e+02	-6.6743	-81.963948	0.000507	5.067253	0.858416	0.000101
1675	1.6656e+02	-6.6537	-81.907428	0.000284	2.837662	0.480713	0.000057
1676	1.6666e+02	-6.6330	-81.830723	0.000385	3.851112	0.652396	0.000077
1677	1.6676e+02	-6.6133	-81.802463	0.000142	1.418831	0.240356	0.000028
1678	1.6686e+02	-6.5938	-81.709609	0.000466	4.661873	0.789743	0.000093
1679	1.6696e+02	-6.5729	-81.653089	0.000284	2.837662	0.480713	0.000057
1680	1.6706e+02	-6.5527	-81.604643	0.000243	2.432281	0.412040	0.000049
1681	1.6716e+02	-6.5331	-81.531975	0.000365	3.648422	0.618059	0.000073
1682	1.6726e+02	-6.5137	-81.467381	0.000324	3.243042	0.549386	0.000065
1683	1.6736e+02	-6.4944	-81.362415	0.000527	5.269943	0.892753	0.000105
1684	1.6746e+02	-6.4737	-81.297821	0.000324	3.243042	0.549386	0.000065
1685	1.6756e+02	-6.4547	-81.273598	0.000122	1.216141	0.206020	0.000024
1686	1.6766e+02	-6.4342	-81.168633	0.000527	5.269943	0.892753	0.000105
1687	1.6776e+02	-6.4139	-81.120187	0.000243	2.432281	0.412040	0.000049
1688	1.6786e+02	-6.3940	-81.027333	0.000466	4.661873	0.789743	0.000093
1689	1.6796e+02	-6.3734	-80.974850	0.000263	2.634972	0.446376	0.000053
1690	1.6806e+02	-6.3535	-80.922367	0.000263	2.634972	0.446376	0.000053
1691	1.6816e+02	-6.3344	-80.809328	0.000568	5.675323	0.961426	0.000114
1692	1.6825e+02	-6.3145	-80.752808	0.000284	2.837662	0.480713	0.000057
1693	1.6835e+02	-6.2952	-80.643805	0.000547	5.472633	0.927089	0.000110
1694	1.6845e+02	-6.2758	-80.595359	0.000243	2.432281	0.412040	0.000049
1695	1.6855e+02	-6.2552	-80.526728	0.000345	3.445732	0.583723	0.000069
1696	1.6865e+02	-6.2357	-80.437911	0.000446	4.459183	0.755406	0.000089
1697	1.6875e+02	-6.2154	-80.357168	0.000405	4.053802	0.686733	0.000081
1698	1.6885e+02	-6.1958	-80.312760	0.000223	2.229591	0.377703	0.000045
1699	1.6895e+02	-6.1752	-80.207794	0.000527	5.269943	0.892753	0.000105
1700	1.6905e+02	-6.1549	-80.187609	0.000101	1.013451	0.171683	0.000020
1701	1.6915e+02	-6.1356	-80.074569	0.000568	5.675323	0.961426	0.000114
1702	1.6925e+02	-6.1159	-80.014012	0.000304	3.040352	0.515050	0.000061
1703	1.6935e+02	-6.0958	-79.900972	0.000568	5.675323	0.961426	0.000114
1704	1.6945e+02	-6.0757	-79.876749	0.000122	1.216141	0.206020	0.000024
1705	1.6955e+02	-6.0560	-79.779858	0.000486	4.864563	0.824079	0.000097
1706	1.6965e+02	-6.0356	-79.678929	0.000507	5.067253	0.858416	0.000101
1707	1.6975e+02	-6.0155	-79.610298	0.000345	3.445732	0.583723	0.000069
1708	1.6985e+02	-5.9969	-79.513407	0.000486	4.864563	0.824079	0.000097
1709	1.6995e+02	-5.9754	-79.452850	0.000304	3.040352	0.515050	0.000061
1710	1.7005e+02	-5.9558	-79.368070	0.000426	4.256492	0.721069	0.000085
1711	1.7015e+02	-5.9363	-79.291364	0.000385	3.851112	0.652396	0.000077
1712	1.7024e+02	-5.9172	-79.222733	0.000345	3.445732	0.583723	0.000069
1713	1.7034e+02	-5.8958	-79.162176	0.000304	3.040352	0.515050	0.000061
1714	1.7044e+02	-5.8760	-79.077396	0.000426	4.256492	0.721069	0.000085
1715	1.7054e+02	-5.8559	-78.996654	0.000405	4.053802	0.686733	0.000081
1716	1.7064e+02	-5.8363	-78.907837	0.000446	4.459183	0.755406	0.000089
1717	1.7074e+02	-5.8166	-78.798834	0.000547	5.472633	0.927089	0.000110
1718	1.7084e+02	-5.7959	-78.754425	0.000223	2.229591	0.377703	0.000045
1719	1.7094e+02	-5.7773	-78.677720	0.000385	3.851112	0.652396	0.000077
1720	1.7104e+02	-5.7563	-78.580829	0.000486	4.864563	0.824079	0.000097
1721	1.7114e+02	-5.7376	-78.500086	0.000405	4.053802	0.686733	0.000081
1722	1.7124e+02	-5.7173	-78.395120	0.000527	5.269943	0.892753	0.000105
1723	1.7134e+02	-5.6976	-78.338600	0.000284	2.837662	0.480713	0.000057
1724	1.7144e+02	-5.6766	-78.245746	0.000466	4.661873	0.789743	0.000093
1725	1.7154e+02	-5.6571	-78.148855	0.000486	4.864563	0.824079	0.000097
1726	1.7164e+02	-5.6371	-78.072149	0.000385	3.851112	0.652396	0.000077
1727	1.7174e+02	-5.6178	-78.003518	0.000345	3.445732	0.583723	0.000069
1728	1.7184e+02	-5.5979	-77.894515	0.000547	5.472633	0.927089	0.000110
1729	1.7194e+02	-5.5771	-77.829921	0.000324	3.243042	0.549386	0.000065
1730	1.7204e+02	-5.5569	-77.761290	0.000345	3.445732	0.583723	0.000069
1731	1.7213e+02	-5.5371	-77.680547	0.000405	4.053802	0.686733	0.000081
1732	1.7223e+02	-5.5171	-77.583656	0.000486	4.864563	0.824079	0.000097
1733	1.7233e+02	-5.4973	-77.486765	0.000486	4.864563	0.824079	0.000097
1734	1.7243e+02	-5.4781	-77.397948	0.000446	4.459183	0.755406	0.000089
1735	1.7253e+02	-5.4581	-77.317205	0.000405	4.053802	0.686733	0.000081
1736	1.7263e+02	-5.4378	-77.216277	0.000507	5.067253	0.858416	0.000101
1737	1.7273e+02	-5.4181	-77.163794	0.000263	2.634972	0.446376	0.000053
1738	1.7283e+02	-5.3983	-77.046717	0.000588	5.878013	0.995762	0.000118
1739	1.7293e+02	-5.3788	-76.974049	0.000365	3.648422	0.618059	0.000073
1740	1.7303e+02	-5.3586	-76.861009	0.000568	5.675323	0.961426	0.000114
1741	1.7313e+02	-5.3377	-76.836786	0.000122	1.216141	0.206020	0.000024
1742	1.7323e+02	-5.3181	-76.731820	0.000527	5.269943	0.892753	0.000105
1743	1.7333e+02	-5.2982	-76.630892	0.000507	5.067253	0.858416	0.000101
1744	1.7343e+02	-5.2788	-76.493629	0.000689	6.891464	1.167446	0.000138
1745	1.7353e+02	-5.2589	-76.424998	0.000345	3.445732	0.583723	0.000069
1746	1.7363e+02	-5.2390	-76.340218	0.000426	4.256492	0.721069	0.000085
1747	1.7373e+02	-5.2191	-76.211030	0.000649	6.486084	1.098772	0.000130
1748	1.7383e+02	-5.1990	-76.178733	0.000162	1.621521	0.274693	0.000032
1749	1.7393e+02	-5.1787	-76.097990	0.000405	4.053802	0.686733	0.000081
1750	1.7403e+02	-5.1591	-75.956690	0.000709	7.094154	1.201782	0.000142
1751	1.7413e+02	-5.1395	-75.904208	0.000263	2.634972	0.446376	0.000053
1752	1.7422e+02	-5.1193	-75.819428	0.000426	4.256492	0.721069	0.000085
1753	1.7432e+02	-5.0998	-75.718499	0.000507	5.067253	0.858416	0.000101
1754	1.7442e+02	-5.0792	-75.629682	0.000446	4.459183	0.755406	0.000089
1755	1.7452e+02	-5.0589	-75.524717	0.000527	5.269943	0.892753	0.000105
1756	1.7462e+02	-5.0397	-75.419751	0.000527	5.269943	0.892753	0.000105
1757	1.7472e+02	-5.0197	-75.359194	0.000304	3.040352	0.515050	0.000061
1758	1.7482e+02	-4.9998	-75.270377	0.000446	4.459183	0.755406	0.000089
1759	1.7492e+02	-4.9796	-75.177523	0.000466	4.661873	0.789743	0.000093
1760	1.7502e+02	-4.9604	-75.076595	0.000507	5.067253	0.858416	0.000101
1761	1.7512e+02	-4.9411	-74.967592	0.000547	5.472633	0.927089	0.000110
1762	1.7522e+02	-4.9205	-74.886849	0.000405	4.053802	0.686733	0.000081
1763	1.7532e+02	-4.9007	-74.822255	0.000324	3.243042	0.549386	0.000065
1764	1.7542e+02	-4.8805	-74.741512	0.000405	4.053802	0.686733	0.000081
1765	1.7552e+02	-4.8595	-74.628473	0.000568	5.675323	0.961426	0.000114
1766	1.7562e+02	-4.8404	-74.539656	0.000446	4.459183	0.755406	0.000089
1767	1.7572e+02	-4.8204	-74.471024	0.000345	3.445732	0.583723	0.000069
1768	1.7582e+02	-4.8013	-74.378170	0.000466	4.661873	0.789743	0.000093
1769	1.7592e+02	-4.7805	-74.261093	0.000588	5.878013	0.995762	0.000118
1770	1.7602e+02	-4.7612	-74.200536	0.000304	3.040352	0.515050	0.000061
1771	1.7612e+02	-4.7409	-74.087496	0.000568	5.675323	0.961426	0.000114
1772	1.7621e+02	-4.7208	-73.966382	0.000608	6.080703	1.030099	0.000122
1773	1.7631e+02	-4.7011	-73.885640	0.000405	4.053802	0.686733	0.000081
1774	1.7641e+02	-4.6820	-73.784711	0.000507	5.067253	0.858416	0.000101
1775	1.7651e+02	-4.6608	-73.695894	0.000446	4.459183	0.755406	0.000089
1776	1.7661e+02	-4.6413	-73.623226	0.000365	3.648422	0.618059	0.000073
1777	1.7671e+02	-4.6215	-73.510186	0.000568	5.675323	0.961426	0.000114
1778	1.7681e+02	-4.6015	-73.445592	0.000324	3.243042	0.549386	0.000065
1779	1.7691e+02	-4.5818	-73.340626	0.000527	5.269943	0.892753	0.000105
1780	1.7701e+02	-4.5606	-73.259884	0.000405	4.053802	0.686733	0.000081
1781	1.7711e+02	-4.5411	-73.146844	0.000568	5.675323	0.961426	0.000114
1782	1.7721e+02	-4.5224	-73.070138	0.000385	3.851112	0.652396	0.000077
1783	1.7731e+02	-4.5005	-72.965173	0.000527	5.269943	0.892753	0.000105
1784	1.7741e+02	-4.4814	-72.880393	0.000426	4.256492	0.721069	0.000085
1785	1.7751e+02	-4.4619	-72.771390	0.000547	5.472633	0.927089	0.000110
1786	1.7761e+02	-4.4417	-72.674499	0.000486	4.864563	0.824079	0.000097
1787	1.7771e+02	-4.4220	-72.613942	0.000304	3.040352	0.515050	0.000061
1788	1.7781e+02	-4.4019	-72.480716	0.000669	6.688774	1.133109	0.000134
1789	1.7791e+02	-4.3826	-72.440345	0.000203	2.026901	0.343366	0.000041
1790	1.7801e+02	-4.3625	-72.339417	0.000507	5.067253	0.858416	0.000101
1791	1.7810e+02	-4.3419	-72.210228	0.000649	6.486084	1.098772	0.000130
1792	1.7820e+02	-4.3216	-72.129486	0.000405	4.053802	0.686733	0.000081
1793	1.7830e+02	-4.3018	-72.012409	0.000588	5.878013	0.995762	0.000118
1794	1.7840e+02	-4.2834	-71.919555	0.000466	4.661873	0.789743	0.000093
1795	1.7850e+02	-4.2632	-71.846886	0.000365	3.648422	0.618059	0.000073
1796	1.7860e+02	-4.2426	-71.749995	0.000486	4.864563	0.824079	0.000097
1797	1.7870e+02	-4.2225	-71.628881	0.000608	6.080703	1.030099	0.000122
1798	1.7880e+02	-4.2032	-71.548138	0.000405	4.053802	0.686733	0.000081
1799	1.7890e+02	-4.1831	-71.431061	0.000588	5.878013	0.995762	0.000118
1800	1.7900e+02	-4.1634	-71.342244	0.000446	4.459183	0.755406	0.000089
1801	1.7910e+02	-4.1429	-71.281687	0.000304	3.040352	0.515050	0.000061
1802	1.7920e+02	-4.1234	-71.144425	0.000689	6.891464	1.167446	0.000138
1803	1.7930e+02	-4.1034	-71.067719	0.000385	3.851112	0.652396	0.000077
1804	1.7940e+02	-4.0829	-70.974865	0.000466	4.661873	0.789743	0.000093
1805	1.7950e+02	-4.0631	-70.877974	0.000486	4.864563	0.824079	0.000097
1806	1.7960e+02	-4.0430	-70.752822	0.000628	6.283394	1.064436	0.000126
1807	1.7970e+02	-4.0241	-70.688228	0.000324	3.243042	0.549386	0.000065
1808	1.7980e+02	-4.0042	-70.555003	0.000669	6.688774	1.133109	0.000134
1809	1.7990e+02	-3.9830	-70.494446	0.000304	3.040352	0.515050	0.000061
1810	1.8000e+02	-3.9644	-70.405629	0.000446	4.459183	0.755406	0.000089
1811	1.8009e+02	-3.9425	-70.292589	0.000568	5.675323	0.961426	0.000114
1812	1.8019e+02	-3.9244	-70.199735	0.000466	4.661873	0.789743	0.000093
1813	1.8029e+02	-3.9040	-70.066509	0.000669	6.688774	1.133109	0.000134
1814	1.8039e+02	-3.8840	-69.997878	0.000345	3.445732	0.583723	0.000069
1815	1.8049e+02	-3.8641	-69.892912	0.000527	5.269943	0.892753	0.000105
1816	1.8059e+02	-3.8445	-69.836393	0.000284	2.837662	0.480713	0.000057
1817	1.8069e+02	-3.8236	-69.711241	0.000628	6.283394	1.064436	0.000126
1818	1.8079e+02	-3.8037	-69.582053	0.000649	6.486084	1.098772	0.000130
1819	1.8089e+02	-3.7852	-69.513422	0.000345	3.445732	0.583723	0.000069
1820	1.8099e+02	-3.7652	-69.355973	0.000790	7.904915	1.339129	0.000158
1821	1.8109e+02	-3.7441	-69.279268	0.000385	3.851112	0.652396	0.000077
1822	1.8119e+02	-3.7254	-69.194488	0.000426	4.256492	0.721069	0.000085
1823	1.8129e+02	-3.7048	-69.085485	0.000547	5.472633	0.927089	0.000110
1824	1.8139e+02	-3.6862	-68.980520	0.000527	5.269943	0.892753	0.000105
1825	1.8149e+02	-3.6661	-68.907851	0.000365	3.648422	0.618059	0.000073
1826	1.8159e+02	-3.6458	-68.802886	0.000527	5.269943	0.892753	0.000105
1827	1.8169e+02	-3.6255	-68.705995	0.000486	4.864563	0.824079	0.000097
1828	1.8179e+02	-3.6053	-68.613140	0.000466	4.661873	0.789743	0.000093
1829	1.8189e+02	-3.5858	-68.524323	0.000446	4.459183	0.755406	0.000089
1830	1.8199e+02	-3.5649	-68.399172	0.000628	6.283394	1.064436	0.000126
1831	1.8209e+02	-3.5454	-68.294207	0.000527	5.269943	0.892753	0.000105
1832	1.8218e+02	-3.5257	-68.213464	0.000405	4.053802	0.686733	0.000081
1833	1.8228e+02	-3.5056	-68.116573	0.000486	4.864563	0.824079	0.000097
1834	1.8238e+02	-3.4856	-68.011607	0.000527	5.269943	0.892753	0.000105
1835	1.8248e+02	-3.4663	-67.926827	0.000426	4.256492	0.721069	0.000085
1836	1.8258e+02	-3.4457	-67.793602	0.000669	6.688774	1.133109	0.000134
1837	1.8268e+02	-3.4262	-67.712859	0.000405	4.053802	0.686733	0.000081
1838	1.8278e+02	-3.4058	-67.624042	0.000446	4.459183	0.755406	0.000089
1839	1.8288e+02	-3.3857	-67.474668	0.000750	7.499534	1.270456	0.000150
1840	1.8298e+02	-3.3653	-67.381814	0.000466	4.661873	0.789743	0.000093
1841	1.8308e+02	-3.3465	-67.313183	0.000345	3.445732	0.583723	0.000069
1842	1.8318e+02	-3.3253	-67.212254	0.000507	5.067253	0.858416	0.000101
1843	1.8328e+02	-3.3069	-67.062880	0.000750	7.499534	1.270456	0.000150
1844	1.8338e+02	-3.2872	-67.030583	0.000162	1.621521	0.274693	0.000032
1845	1.8348e+02	-3.2651	-66.881209	0.000750	7.499534	1.270456	0.000150
1846	1.8358e+02	-3.2468	-66.743947	0.000689	6.891464	1.167446	0.000138
1847	1.8368e+02	-3.2270	-66.683390	0.000304	3.040352	0.515050	0.000061
1848	1.8378e+02	-3.2071	-66.546127	0.000689	6.891464	1.167446	0.000138
1849	1.8388e+02	-3.1870	-66.485570	0.000304	3.040352	0.515050	0.000061
1850	1.8398e+02	-3.1674	-66.392716	0.000466	4.661873	0.789743	0.000093
1851	1.8407e+02	-3.1471	-66.251416	0.000709	7.094154	1.201782	0.000142
1852	1.8417e+02	-3.1270	-66.138376	0.000568	5.675323	0.961426	0.000114
1853	1.8427e+02	-3.1065	-66.053596	0.000426	4.256492	0.721069	0.000085
1854	1.8437e+02	-3.0868	-65.940557	0.000568	5.675323	0.961426	0.000114
1855	1.8447e+02	-3.0675	-65.811368	0.000649	6.486084	1.098772	0.000130
1856	1.8457e+02	-3.0475	-65.678143	0.000669	6.688774	1.133109	0.000134
1857	1.8467e+02	-3.0276	-65.613549	0.000324	3.243042	0.549386	0.000065
1858	1.8477e+02	-3.0080	-65.468212	0.000730	7.296844	1.236119	0.000146
1859	1.8487e+02	-2.9864	-65.375358	0.000466	4.661873	0.789743	0.000093
1860	1.8497e+02	-2.9674	-65.250206	0.000628	6.283394	1.064436	0.000126
1861	1.8507e+02	-2.9478	-65.153315	0.000486	4.864563	0.824079	0.000097
1862	1.8517e+02	-2.9279	-65.060461	0.000466	4.661873	0.789743	0.000093
1863	1.8527e+02	-2.9079	-64.935310	0.000628	6.283394	1.064436	0.000126
1864	1.8537e+02	-2.8875	-64.789973	0.000730	7.296844	1.236119	0.000146
1865	1.8547e+02	-2.8685	-64.717304	0.000365	3.648422	0.618059	0.000073
1866	1.8557e+02	-2.8487	-64.600228	0.000588	5.878013	0.995762	0.000118
1867	1.8567e+02	-2.8276	-64.450853	0.000750	7.499534	1.270456	0.000150
1868	1.8577e+02	-2.8085	-64.362037	0.000446	4.459183	0.755406	0.000089
1869	1.8587e+02	-2.7878	-64.236885	0.000628	6.283394	1.064436	0.000126
1870	1.8597e+02	-2.7679	-64.184403	0.000263	2.634972	0.446376	0.000053
1871	1.8606e+02	-2.7486	-64.018880	0.000831	8.310295	1.407802	0.000166
1872	1.8616e+02	-2.7283	-63.901803	0.000588	5.878013	0.995762	0.000118
1873	1.8626e+02	-2.7078	-63.804912	0.000486	4.864563	0.824079	0.000097
1874	1.8636e+02	-2.6886	-63.699946	0.000527	5.269943	0.892753	0.000105
1875	1.8646e+02	-2.6688	-63.550572	0.000750	7.499534	1.270456	0.000150
1876	1.8656e+02	-2.6483	-63.449644	0.000507	5.067253	0.858416	0.000101
1877	1.8666e+02	-2.6292	-63.324493	0.000628	6.283394	1.064436	0.000126
1878	1.8676e+02	-2.6089	-63.175119	0.000750	7.499534	1.270456	0.000150
1879	1.8686e+02	-2.5889	-63.122636	0.000263	2.634972	0.446376	0.000053
1880	1.8696e+02	-2.5690	-63.013633	0.000547	5.472633	0.927089	0.000110
1881	1.8706e+02	-2.5488	-62.880408	0.000669	6.688774	1.133109	0.000134
1882	1.8716e+02	-2.5287	-62.783516	0.000486	4.864563	0.824079	0.000097
1883	1.8726e+02	-2.5093	-62.654328	0.000649	6.486084	1.098772	0.000130
1884	1.8736e+02	-2.4912	-62.541288	0.000568	5.675323	0.961426	0.000114
1885	1.8746e+02	-2.4703	-62.424211	0.000588	5.878013	0.995762	0.000118
1886	1.8756e+02	-2.4493	-62.311172	0.000568	5.675323	0.961426	0.000114
1887	1.8766e+02	-2.4297	-62.161798	0.000750	7.499534	1.270456	0.000150
1888	1.8776e+02	-2.4100	-62.028572	0.000669	6.688774	1.133109	0.000134
1889	1.8786e+02	-2.3901	-61.939755	0.000446	4.459183	0.755406	0.000089
1890	1.8796e+02	-2.3698	-61.810567	0.000649	6.486084	1.098772	0.000130
1891	1.8806e+02	-2.3504	-61.693490	0.000588	5.878013	0.995762	0.000118
1892	1.8815e+02	-2.3303	-61.548153	0.000730	7.296844	1.236119	0.000146
1893	1.8825e+02	-2.3100	-61.435113	0.000568	5.675323	0.961426	0.000114
1894	1.8835e+02	-2.2906	-61.386667	0.000243	2.432281	0.412040	0.000049
1895	1.8845e+02	-2.2698	-61.196922	0.000953	9.526435	1.613822	0.000191
1896	1.8855e+02	-2.2510	-61.104068	0.000466	4.661873	0.789743	0.000093
1897	1.8865e+02	-2.2303	-61.027362	0.000385	3.851112	0.652396	0.000077
1898	1.8875e+02	-2.2104	-60.886063	0.000709	7.094154	1.201782	0.000142
1899	1.8885e+02	-2.1916	-60.740726	0.000730	7.296844	1.236119	0.000146
1900	1.8895e+02	-2.1707	-60.635760	0.000527	5.269943	0.892753	0.000105
1901	1.8905e+02	-2.1512	-60.482349	0.000770	7.702224	1.304792	0.000154
1902	1.8915e+02	-2.1300	-60.369309	0.000568	5.675323	0.961426	0.000114
1903	1.8925e+02	-2.1115	-60.256269	0.000568	5.675323	0.961426	0.000114
1904	1.8935e+02	-2.0903	-60.147267	0.000547	5.472633	0.927089	0.000110
1905	1.8945e+02	-2.0709	-59.989818	0.000790	7.904915	1.339129	0.000158
1906	1.8955e+02	-2.0522	-59.917150	0.000365	3.648422	0.618059	0.000073
1907	1.8965e+02	-2.0312	-59.796036	0.000608	6.080703	1.030099	0.000122
1908	1.8975e+02	-2.0107	-59.650699	0.000730	7.296844	1.236119	0.000146
1909	1.8985e+02	-1.9914	-59.525548	0.000628	6.283394	1.064436	0.000126
1910	1.8995e+02	-1.9716	-59.400397	0.000628	6.283394	1.064436	0.000126
1911	1.9004e+02	-1.9523	-59.271208	0.000649	6.486084	1.098772	0.000130
1912	1.9014e+02	-1.9308	-59.154131	0.000588	5.878013	0.995762	0.000118
1913	1.9024e+02	-1.9122	-59.000720	0.000770	7.702224	1.304792	0.000154
1914	1.9034e+02	-1.8915	-58.859420	0.000709	7.094154	1.201782	0.000142
1915	1.9044e+02	-1.8725	-58.734269	0.000628	6.283394	1.064436	0.000126
1916	1.9054e+02	-1.8520	-58.641415	0.000466	4.661873	0.789743	0.000093
1917	1.9064e+02	-1.8326	-58.496078	0.000730	7.296844	1.236119	0.000146
1918	1.9074e+02	-1.8130	-58.391113	0.000527	5.269943	0.892753	0.000105
1919	1.9084e+02	-1.7923	-58.253850	0.000689	6.891464	1.167446	0.000138
1920	1.9094e+02	-1.7731	-58.148885	0.000527	5.269943	0.892753	0.000105
1921	1.9104e+02	-1.7525	-57.987399	0.000811	8.107605	1.373465	0.000162
1922	1.9114e+02	-1.7326	-57.894545	0.000466	4.661873	0.789743	0.000093
1923	1.9124e+02	-1.7126	-57.769394	0.000628	6.283394	1.064436	0.000126
1924	1.9134e+02	-1.6930	-57.632131	0.000689	6.891464	1.167446	0.000138
1925	1.9144e+02	-1.6737	-57.490831	0.000709	7.094154	1.201782	0.000142
1926	1.9154e+02	-1.6535	-57.393940	0.000486	4.864563	0.824079	0.000097
1927	1.9164e+02	-1.6333	-57.248603	0.000730	7.296844	1.236119	0.000146
1928	1.9174e+02	-1.6129	-57.103266	0.000730	7.296844	1.236119	0.000146
1929	1.9184e+02	-1.5924	-57.002338	0.000507	5.067253	0.858416	0.000101
1930	1.9194e+02	-1.5746	-56.897373	0.000527	5.269943	0.892753	0.000105
1931	1.9203e+02	-1.5532	-56.735887	0.000811	8.107605	1.373465	0.000162
1932	1.9213e+02	-1.5334	-56.643033	0.000466	4.661873	0.789743	0.000093
1933	1.9223e+02	-1.5128	-56.505770	0.000689	6.891464	1.167446	0.000138
1934	1.9233e+02	-1.4931	-56.364471	0.000709	7.094154	1.201782	0.000142
1935	1.9243e+02	-1.4738	-56.263542	0.000507	5.067253	0.858416	0.000101
1936	1.9253e+02	-1.4538	-56.146465	0.000588	5.878013	0.995762	0.000118
1937	1.9263e+02	-1.4335	-55.980943	0.000831	8.310295	1.407802	0.000166
1938	1.9273e+02	-1.4133	-55.867903	0.000568	5.675323	0.961426	0.000114
1939	1.9283e+02	-1.3934	-55.754863	0.000568	5.675323	0.961426	0.000114
1940	1.9293e+02	-1.3742	-55.613563	0.000709	7.094154	1.201782	0.000142
1941	1.9303e+02	-1.3539	-55.488412	0.000628	6.283394	1.064436	0.000126
1942	1.9313e+02	-1.3336	-55.343075	0.000730	7.296844	1.236119	0.000146
1943	1.9323e+02	-1.3142	-55.258295	0.000426	4.256492	0.721069	0.000085
1944	1.9333e+02	-1.2939	-55.108921	0.000750	7.499534	1.270456	0.000150
1945	1.9343e+02	-1.2742	-54.975696	0.000669	6.688774	1.133109	0.000134
1946	1.9353e+02	-1.2553	-54.874768	0.000507	5.067253	0.858416	0.000101
1947	1.9363e+02	-1.2341	-54.769802	0.000527	5.269943	0.892753	0.000105
1948	1.9373e+02	-1.2147	-54.596205	0.000872	8.715675	1.476475	0.000174
1949	1.9383e+02	-1.1919	-54.495277	0.000507	5.067253	0.858416	0.000101
1950	1.9393e+02	-1.1746	-54.378200	0.000588	5.878013	0.995762	0.000118
1951	1.9403e+02	-1.1552	-54.236900	0.000709	7.094154	1.201782	0.000142
1952	1.9412e+02	-1.1352	-54.119823	0.000588	5.878013	0.995762	0.000118
1953	1.9422e+02	-1.1156	-53.974486	0.000730	7.296844	1.236119	0.000146
1954	1.9432e+02	-1.0957	-53.837224	0.000689	6.891464	1.167446	0.000138
1955	1.9442e+02	-1.0754	-53.752444	0.000426	4.256492	0.721069	0.000085
1956	1.9452e+02	-1.0552	-53.586921	0.000831	8.310295	1.407802	0.000166
1957	1.9462e+02	-1.0355	-53.494067	0.000466	4.661873	0.789743	0.000093
1958	1.9472e+02	-1.0149	-53.368916	0.000628	6.283394	1.064436	0.000126
1959	1.9482e+02	-0.9955	-53.179171	0.000953	9.526435	1.613822	0.000191
1960	1.9492e+02	-0.9756	-53.102465	0.000385	3.851112	0.652396	0.000077
1961	1.9502e+02	-0.9559	-52.989425	0.000568	5.675323	0.961426	0.000114
1962	1.9512e+02	-0.9351	-52.844088	0.000730	7.296844	1.236119	0.000146
1963	1.9522e+02	-0.9167	-52.735086	0.000547	5.472633	0.927089	0.000110
1964	1.9532e+02	-0.8955	-52.561489	0.000872	8.715675	1.476475	0.000174
1965	1.9542e+02	-0.8758	-52.428263	0.000669	6.688774	1.133109	0.000134
1966	1.9552e+02	-0.8559	-52.307149	0.000608	6.080703	1.030099	0.000122
1967	1.9562e+02	-0.8365	-52.202184	0.000527	5.269943	0.892753	0.000105
1968	1.9572e+02	-0.8158	-52.040698	0.000811	8.107605	1.373465	0.000162
1969	1.9582e+02	-0.7965	-51.923621	0.000588	5.878013	0.995762	0.000118
1970	1.9592e+02	-0.7768	-51.798470	0.000628	6.283394	1.064436	0.000126
1971	1.9601e+02	-0.7559	-51.681393	0.000588	5.878013	0.995762	0.000118
1972	1.9611e+02	-0.7363	-51.540093	0.000709	7.094154	1.201782	0.000142
1973	1.9621e+02	-0.7166	-51.455314	0.000426	4.256492	0.721069	0.000085
1974	1.9631e+02	-0.6973	-51.301902	0.000770	7.702224	1.304792	0.000154
1975	1.9641e+02	-0.6774	-51.225197	0.000385	3.851112	0.652396	0.000077
1976	1.9651e+02	-0.6564	-51.043526	0.000912	9.121055	1.545149	0.000183
1977	1.9661e+02	-0.6366	-50.898189	0.000730	7.296844	1.236119	0.000146
1978	1.9671e+02	-0.6172	-50.801298	0.000486	4.864563	0.824079	0.000097
1979	1.9681e+02	-0.5965	-50.651924	0.000750	7.499534	1.270456	0.000150
1980	1.9691e+02	-0.5772	-50.555032	0.000486	4.864563	0.824079	0.000097
1981	1.9701e+02	-0.5570	-50.421807	0.000669	6.688774	1.133109	0.000134
1982	1.9711e+02	-0.5374	-50.264359	0.000790	7.904915	1.339129	0.000158
1983	1.9721e+02	-0.5170	-50.171504	0.000466	4.661873	0.789743	0.000093
1984	1.9731e+02	-0.4971	-50.074613	0.000486	4.864563	0.824079	0.000097
1985	1.9741e+02	-0.4769	-49.933313	0.000709	7.094154	1.201782	0.000142
1986	1.9751e+02	-0.4578	-49.804125	0.000649	6.486084	1.098772	0.000130
1987	1.9761e+02	-0.4374	-49.674937	0.000649	6.486084	1.098772	0.000130
1988	1.9771e+02	-0.4177	-49.513451	0.000811	8.107605	1.373465	0.000162
1989	1.9781e+02	-0.3970	-49.400411	0.000568	5.675323	0.961426	0.000114
1990	1.9791e+02	-0.3780	-49.267186	0.000669	6.688774	1.133109	0.000134
1991	1.9800e+02	-0.3596	-49.158183	0.000547	5.472633	0.927089	0.000110
1992	1.9810e+02	-0.3389	-49.049181	0.000547	5.472633	0.927089	0.000110
1993	1.9820e+02	-0.3185	-48.899807	0.000750	7.499534	1.270456	0.000150
1994	1.9830e+02	-0.2979	-48.798878	0.000507	5.067253	0.858416	0.000101
1995	1.9840e+02	-0.2774	-48.637393	0.000811	8.107605	1.373465	0.000162
1996	1.9850e+02	-0.2610	-48.508204	0.000649	6.486084	1.098772	0.000130
1997	1.9860e+02	-0.2386	-48.403239	0.000527	5.269943	0.892753	0.000105
1998	1.9870e+02	-0.2177	-48.249828	0.000770	7.702224	1.304792	0.000154
1999	1.9880e+02	-0.1987	-48.112565	0.000689	6.891464	1.167446	0.000138
2000	1.9890e+02	-0.1775	-48.015674	0.000486	4.864563	0.824079	0.000097
2001	1.9900e+02	-0.1593	-47.854188	0.000811	8.107605	1.373465	0.000162
2002	1.9910e+02	-0.1376	-47.733074	0.000608	6.080703	1.030099	0.000122
2003	1.9920e+02	-0.1198	-47.660406	0.000365	3.648422	0.618059	0.000073
2004	1.9930e+02	-0.0991	-47.502958	0.000790	7.904915	1.339129	0.000158
2005	1.9940e+02	-0.0791	-47.406066	0.000486	4.864563	0.824079	0.000097
2006	1.9950e+02	-0.0588	-47.268804	0.000689	6.891464	1.167446	0.000138
2007	1.9960e+02	-0.0394	-47.103281	0.000831	8.310295	1.407802	0.000166
2008	1.9970e+02	-0.0194	-46.961981	0.000709	7.094154	1.201782	0.000142
2009	1.9980e+02	-0.0002	-46.857016	0.000709	7.094154	1.201782	0.000105

PMax (uC/cm2):	5.64e+01
Pr (uC/cm2):	1.03e+01
-Pr (uC/cm2):	-7.59e+01
PLoss (uC/cm2):	-7.59e+01
-Vc:	-1.62e+00
C (Max-Eff) (nF):	5.64e-01
K (Eff):	9.56e+02
Vert. (+/-Pr) Shift (uC/cm2):	-3.28e+01
Offset (uC/cm2):	-2.90e+01

A (Loop Area - uC/cm2·Volts):	-5.12e-01



Hysteresis Version: 5.48.1 - Radiant Technologies, Inc., 1999 - 9/12/24

