»»»»»»»»»»»»»»»»»»»»»»»»»»»»»»»»»»»» Hysteresis ««««««««««««««««««««««««««««««««««««
»»»  Executed Version:	5.48.1
»»»  Vision Version:	5.48.4 (R)
»»»  Vision Compiled:	9/18/24
»»»  Driver Version:	5.47.0
»»»  Windows Version:	Windows 8 or 8.1
»»»  Processor Information:	x86 (AMD or Intel) - 32 Processors
»»»  Tester Name:	PMF21124-494 (100V)
»»»  Tester S/N:	PMF21124-494
»»»  Internal Amp Type:	100V RevK 270k
»»»  Internal Amp S/N:	iAB2-596/K     
»»»  Execution Count:	1
»»»»»»»»»»»»»»»»»»»»»»»»»»»»»»»»»»»»»»»»»»««««««««««««««««««««««««««««««««««««««««««

Stored:	7/2/2025 - 18:26:14
Configured:	07/02/25 01:35:59 PM
Executed:	07/02/25 06:25:30 PM

»»»»»»»»»»»»»»»»»»»»»»»»»»»»»»»»»»» Sample Info ««««««««««««««««««««««««««««««««««««
Sample Name:	
Lot Name:	
Wafer Name:	
Die Row/Column:	0/0
Capacitor Number:	0
Sample Area (cm2):	1.00e-04
Sample Thickness (microns):	1.50e-01

Amplifier:	Internal

»»»»»»»»»»»»»»»»»»»»»»»»»»»»»»»»»»» Tester Info «««««««««««««««««««««««««««««««««««
Tester Name:	PMF21124-494 (100V)
Tester Serial Number:	PMF21124-494
Return Signal Amp. Level:	0.19 [Index: 3]

»»»»»»»»»»»»»»»»»»»»»»»»»»»»»»»» Hysteresis Info ««««««««««««««««««««««««««««««««««
Task Name:	Hyst-220
Volts:	10.00
Field:	666.67 (kV/cm)
DCBias:	0.00
DCField:	0.00 (kV/cm)
Hysteresis Period (ms):	2.00e+02
Preset:	Enabled
Preset Delay (ms):	1.00e+03
Profile:	Standard Bipolar

»»»»»»»»»»»»»»»»»»»»»»»»»»»»»»»»»»»»»» Data «««««««««««««««««««««««««««««««««««««««
Points:	2009

Valid Data

Point	Time (ms)	Drive Voltage	Measured Polarization (uC/cm2)	Capacitance (uF)	Normalized Capacitance (uF/cm2)	Dielectric Constant	Instantaneous Current (mA)
   1	0.0000e+00	-0.0007	29.329791	0.000507	5.067330	0.858429	0.000101
   2	9.9500e-02	0.0196	29.430720	0.000507	5.067330	0.858429	0.000101
   3	1.9900e-01	0.0391	29.531648	0.000507	5.067330	0.858429	0.000101
   4	2.9850e-01	0.0587	29.644688	0.000568	5.675410	0.961440	0.000114
   5	3.9800e-01	0.0790	29.749653	0.000527	5.270023	0.892766	0.000105
   6	4.9750e-01	0.0995	29.854619	0.000527	5.270023	0.892766	0.000105
   7	5.9700e-01	0.1185	29.947473	0.000466	4.661944	0.789755	0.000093
   8	6.9650e-01	0.1389	30.076661	0.000649	6.486183	1.098789	0.000130
   9	7.9600e-01	0.1586	30.157404	0.000405	4.053864	0.686743	0.000081
  10	8.9550e-01	0.1786	30.238147	0.000405	4.053864	0.686743	0.000081
  11	9.9500e-01	0.1984	30.326964	0.000446	4.459251	0.755418	0.000089
  12	1.0945e+00	0.2182	30.504598	0.000892	8.918501	1.510835	0.000179
  13	1.1940e+00	0.2380	30.569192	0.000324	3.243091	0.549395	0.000065
  14	1.2935e+00	0.2578	30.710492	0.000709	7.094262	1.201801	0.000142
  15	1.3930e+00	0.2783	30.746826	0.000182	1.824239	0.309034	0.000037
  16	1.4925e+00	0.2973	30.880051	0.000669	6.688876	1.133126	0.000134
  17	1.5920e+00	0.3183	30.960794	0.000405	4.053864	0.686743	0.000081
  18	1.6915e+00	0.3383	31.094019	0.000669	6.688876	1.133126	0.000134
  19	1.7910e+00	0.3570	31.251468	0.000791	7.905035	1.339149	0.000158
  20	1.8905e+00	0.3773	31.279728	0.000142	1.418852	0.240360	0.000028
  21	1.9900e+00	0.3973	31.416990	0.000689	6.891569	1.167463	0.000138
  22	2.0895e+00	0.4174	31.497733	0.000405	4.053864	0.686743	0.000081
  23	2.1890e+00	0.4368	31.566364	0.000345	3.445785	0.583732	0.000069
  24	2.2885e+00	0.4568	31.711701	0.000730	7.296956	1.236138	0.000146
  25	2.3880e+00	0.4774	31.853001	0.000709	7.094262	1.201801	0.000142
  26	2.4875e+00	0.4977	31.917595	0.000324	3.243091	0.549395	0.000065
  27	2.5870e+00	0.5171	32.066969	0.000750	7.499649	1.270475	0.000150
  28	2.6865e+00	0.5368	32.131563	0.000324	3.243091	0.549395	0.000065
  29	2.7860e+00	0.5576	32.260752	0.000649	6.486183	1.098789	0.000130
  30	2.8855e+00	0.5770	32.373791	0.000568	5.675410	0.961440	0.000114
  31	2.9850e+00	0.5965	32.430311	0.000284	2.837705	0.480720	0.000057
  32	3.0845e+00	0.6175	32.555463	0.000628	6.283489	1.064452	0.000126
  33	3.1840e+00	0.6363	32.684651	0.000649	6.486183	1.098789	0.000130
  34	3.2835e+00	0.6558	32.753282	0.000345	3.445785	0.583732	0.000069
  35	3.3830e+00	0.6764	32.854211	0.000507	5.067330	0.858429	0.000101
  36	3.4825e+00	0.6959	33.011659	0.000791	7.905035	1.339149	0.000158
  37	3.5820e+00	0.7174	33.136810	0.000628	6.283489	1.064452	0.000126
  38	3.6815e+00	0.7354	33.169107	0.000162	1.621546	0.274697	0.000032
  39	3.7810e+00	0.7566	33.318481	0.000750	7.499649	1.270475	0.000150
  40	3.8805e+00	0.7762	33.443632	0.000628	6.283489	1.064452	0.000126
  41	3.9800e+00	0.7957	33.552635	0.000547	5.472717	0.927103	0.000110
  42	4.0795e+00	0.8150	33.681823	0.000649	6.486183	1.098789	0.000130
  43	4.1790e+00	0.8355	33.778715	0.000486	4.864637	0.824092	0.000097
  44	4.2785e+00	0.8561	33.871569	0.000466	4.661944	0.789755	0.000093
  45	4.3780e+00	0.8755	34.004794	0.000669	6.688876	1.133126	0.000134
  46	4.4775e+00	0.8958	34.077463	0.000365	3.648478	0.618069	0.000073
  47	4.5770e+00	0.9156	34.218763	0.000709	7.094262	1.201801	0.000142
  48	4.6765e+00	0.9356	34.315654	0.000486	4.864637	0.824092	0.000097
  49	4.7760e+00	0.9563	34.416582	0.000507	5.067330	0.858429	0.000101
  50	4.8755e+00	0.9766	34.517511	0.000507	5.067330	0.858429	0.000101
  51	4.9750e+00	0.9949	34.654773	0.000689	6.891569	1.167463	0.000138
  52	5.0745e+00	1.0156	34.755702	0.000507	5.067330	0.858429	0.000101
  53	5.1740e+00	1.0351	34.864704	0.000547	5.472717	0.927103	0.000110
  54	5.2735e+00	1.0555	34.965633	0.000507	5.067330	0.858429	0.000101
  55	5.3730e+00	1.0758	35.110970	0.000730	7.296956	1.236138	0.000146
  56	5.4725e+00	1.0940	35.236121	0.000628	6.283489	1.064452	0.000126
  57	5.5720e+00	1.1154	35.328975	0.000466	4.661944	0.789755	0.000093
  58	5.6715e+00	1.1337	35.437978	0.000547	5.472717	0.927103	0.000110
  59	5.7710e+00	1.1549	35.559092	0.000608	6.080796	1.030115	0.000122
  60	5.8705e+00	1.1753	35.664057	0.000527	5.270023	0.892766	0.000105
  61	5.9700e+00	1.1953	35.781134	0.000588	5.878103	0.995778	0.000118
  62	6.0695e+00	1.2151	35.865914	0.000426	4.256557	0.721080	0.000085
  63	6.1690e+00	1.2345	36.019325	0.000770	7.702342	1.304812	0.000154
  64	6.2685e+00	1.2540	36.120253	0.000507	5.067330	0.858429	0.000101
  65	6.3680e+00	1.2746	36.188885	0.000345	3.445785	0.583732	0.000069
  66	6.4675e+00	1.2943	36.309999	0.000608	6.080796	1.030115	0.000122
  67	6.5670e+00	1.3132	36.410927	0.000507	5.067330	0.858429	0.000101
  68	6.6665e+00	1.3335	36.536078	0.000628	6.283489	1.064452	0.000126
  69	6.7660e+00	1.3540	36.657193	0.000608	6.080796	1.030115	0.000122
  70	6.8655e+00	1.3723	36.786381	0.000649	6.486183	1.098789	0.000130
  71	6.9650e+00	1.3937	36.899421	0.000568	5.675410	0.961440	0.000114
  72	7.0645e+00	1.4127	37.000349	0.000507	5.067330	0.858429	0.000101
  73	7.1640e+00	1.4339	37.133575	0.000669	6.688876	1.133126	0.000134
  74	7.2635e+00	1.4525	37.222392	0.000446	4.459251	0.755418	0.000089
  75	7.3630e+00	1.4735	37.367728	0.000730	7.296956	1.236138	0.000146
  76	7.4625e+00	1.4931	37.480768	0.000568	5.675410	0.961440	0.000114
  77	7.5620e+00	1.5130	37.593808	0.000568	5.675410	0.961440	0.000114
  78	7.6615e+00	1.5333	37.670514	0.000385	3.851171	0.652406	0.000077
  79	7.7610e+00	1.5524	37.783553	0.000568	5.675410	0.961440	0.000114
  80	7.8605e+00	1.5723	37.932927	0.000750	7.499649	1.270475	0.000150
  81	7.9600e+00	1.5929	37.997522	0.000324	3.243091	0.549395	0.000065
  82	8.0595e+00	1.6125	38.122673	0.000628	6.283489	1.064452	0.000126
  83	8.1590e+00	1.6323	38.255898	0.000669	6.688876	1.133126	0.000134
  84	8.2585e+00	1.6530	38.356827	0.000507	5.067330	0.858429	0.000101
  85	8.3580e+00	1.6724	38.502164	0.000730	7.296956	1.236138	0.000146
  86	8.4575e+00	1.6922	38.615203	0.000568	5.675410	0.961440	0.000114
  87	8.5570e+00	1.7122	38.675760	0.000304	3.040398	0.515057	0.000061
  88	8.6565e+00	1.7324	38.776689	0.000507	5.067330	0.858429	0.000101
  89	8.7560e+00	1.7525	38.913951	0.000689	6.891569	1.167463	0.000138
  90	8.8555e+00	1.7728	39.022954	0.000547	5.472717	0.927103	0.000110
  91	8.9550e+00	1.7915	39.212699	0.000953	9.526581	1.613846	0.000191
  92	9.0545e+00	1.8116	39.261145	0.000243	2.432319	0.412046	0.000049
  93	9.1540e+00	1.8321	39.410519	0.000750	7.499649	1.270475	0.000150
  94	9.2535e+00	1.8511	39.515485	0.000527	5.270023	0.892766	0.000105
  95	9.3530e+00	1.8719	39.620450	0.000527	5.270023	0.892766	0.000105
  96	9.4525e+00	1.8919	39.729453	0.000547	5.472717	0.927103	0.000110
  97	9.5520e+00	1.9115	39.866715	0.000689	6.891569	1.167463	0.000138
  98	9.6515e+00	1.9312	39.999941	0.000669	6.688876	1.133126	0.000134
  99	9.7510e+00	1.9514	40.084721	0.000426	4.256557	0.721080	0.000085
 100	9.8505e+00	1.9709	40.221983	0.000689	6.891569	1.167463	0.000138
 101	9.9500e+00	1.9913	40.375395	0.000770	7.702342	1.304812	0.000154
 102	1.0050e+01	2.0109	40.423840	0.000243	2.432319	0.412046	0.000049
 103	1.0149e+01	2.0318	40.540917	0.000588	5.878103	0.995778	0.000118
 104	1.0248e+01	2.0510	40.633771	0.000466	4.661944	0.789755	0.000093
 105	1.0348e+01	2.0718	40.787182	0.000770	7.702342	1.304812	0.000154
 106	1.0447e+01	2.0910	40.912334	0.000628	6.283489	1.064452	0.000126
 107	1.0547e+01	2.1109	41.065745	0.000770	7.702342	1.304812	0.000154
 108	1.0646e+01	2.1304	41.142450	0.000385	3.851171	0.652406	0.000077
 109	1.0746e+01	2.1506	41.295861	0.000770	7.702342	1.304812	0.000154
 110	1.0845e+01	2.1706	41.396790	0.000507	5.067330	0.858429	0.000101
 111	1.0945e+01	2.1912	41.513867	0.000588	5.878103	0.995778	0.000118
 112	1.1044e+01	2.2102	41.618832	0.000527	5.270023	0.892766	0.000105
 113	1.1144e+01	2.2294	41.735909	0.000588	5.878103	0.995778	0.000118
 114	1.1243e+01	2.2505	41.840875	0.000527	5.270023	0.892766	0.000105
 115	1.1343e+01	2.2695	41.949877	0.000547	5.472717	0.927103	0.000110
 116	1.1443e+01	2.2905	42.111363	0.000811	8.107728	1.373486	0.000162
 117	1.1542e+01	2.3096	42.163846	0.000264	2.635012	0.446383	0.000053
 118	1.1642e+01	2.3301	42.349554	0.000932	9.323888	1.579509	0.000187
 119	1.1741e+01	2.3501	42.438371	0.000446	4.459251	0.755418	0.000089
 120	1.1841e+01	2.3696	42.535262	0.000486	4.864637	0.824092	0.000097
 121	1.1940e+01	2.3895	42.672525	0.000689	6.891569	1.167463	0.000138
 122	1.2040e+01	2.4099	42.781527	0.000547	5.472717	0.927103	0.000110
 123	1.2139e+01	2.4299	42.914753	0.000669	6.688876	1.133126	0.000134
 124	1.2239e+01	2.4490	43.023756	0.000547	5.472717	0.927103	0.000110
 125	1.2338e+01	2.4701	43.169092	0.000730	7.296956	1.236138	0.000146
 126	1.2438e+01	2.4896	43.241761	0.000365	3.648478	0.618069	0.000073
 127	1.2537e+01	2.5082	43.395172	0.000770	7.702342	1.304812	0.000154
 128	1.2636e+01	2.5288	43.471878	0.000385	3.851171	0.652406	0.000077
 129	1.2736e+01	2.5490	43.629326	0.000791	7.905035	1.339149	0.000158
 130	1.2835e+01	2.5688	43.681809	0.000264	2.635012	0.446383	0.000053
 131	1.2935e+01	2.5894	43.835220	0.000770	7.702342	1.304812	0.000154
 132	1.3034e+01	2.6083	43.895777	0.000304	3.040398	0.515057	0.000061
 133	1.3134e+01	2.6298	44.057262	0.000811	8.107728	1.373486	0.000162
 134	1.3233e+01	2.6482	44.154154	0.000486	4.864637	0.824092	0.000097
 135	1.3333e+01	2.6679	44.271231	0.000588	5.878103	0.995778	0.000118
 136	1.3432e+01	2.6887	44.384270	0.000568	5.675410	0.961440	0.000114
 137	1.3532e+01	2.7081	44.497310	0.000568	5.675410	0.961440	0.000114
 138	1.3632e+01	2.7280	44.618424	0.000608	6.080796	1.030115	0.000122
 139	1.3731e+01	2.7483	44.735501	0.000588	5.878103	0.995778	0.000118
 140	1.3831e+01	2.7680	44.856615	0.000608	6.080796	1.030115	0.000122
 141	1.3930e+01	2.7876	44.957544	0.000507	5.067330	0.858429	0.000101
 142	1.4030e+01	2.8078	45.074621	0.000588	5.878103	0.995778	0.000118
 143	1.4129e+01	2.8281	45.183623	0.000547	5.472717	0.927103	0.000110
 144	1.4229e+01	2.8479	45.304737	0.000608	6.080796	1.030115	0.000122
 145	1.4328e+01	2.8677	45.437963	0.000669	6.688876	1.133126	0.000134
 146	1.4428e+01	2.8875	45.546965	0.000547	5.472717	0.927103	0.000110
 147	1.4527e+01	2.9076	45.655968	0.000547	5.472717	0.927103	0.000110
 148	1.4627e+01	2.9272	45.773045	0.000588	5.878103	0.995778	0.000118
 149	1.4726e+01	2.9473	45.853788	0.000405	4.053864	0.686743	0.000081
 150	1.4825e+01	2.9673	45.978939	0.000628	6.283489	1.064452	0.000126
 151	1.4925e+01	2.9865	46.116202	0.000689	6.891569	1.167463	0.000138
 152	1.5024e+01	3.0079	46.241353	0.000628	6.283489	1.064452	0.000126
 153	1.5124e+01	3.0268	46.338244	0.000486	4.864637	0.824092	0.000097
 154	1.5223e+01	3.0473	46.394764	0.000284	2.837705	0.480720	0.000057
 155	1.5323e+01	3.0675	46.564324	0.000851	8.513115	1.442161	0.000170
 156	1.5422e+01	3.0865	46.677363	0.000568	5.675410	0.961440	0.000114
 157	1.5522e+01	3.1071	46.786366	0.000547	5.472717	0.927103	0.000110
 158	1.5621e+01	3.1254	46.883257	0.000486	4.864637	0.824092	0.000097
 159	1.5721e+01	3.1477	47.008409	0.000628	6.283489	1.064452	0.000126
 160	1.5820e+01	3.1670	47.125485	0.000588	5.878103	0.995778	0.000118
 161	1.5920e+01	3.1867	47.258711	0.000669	6.688876	1.133126	0.000134
 162	1.6020e+01	3.2068	47.371751	0.000568	5.675410	0.961440	0.000114
 163	1.6119e+01	3.2273	47.476716	0.000527	5.270023	0.892766	0.000105
 164	1.6218e+01	3.2469	47.569570	0.000466	4.661944	0.789755	0.000093
 165	1.6318e+01	3.2659	47.678573	0.000547	5.472717	0.927103	0.000110
 166	1.6418e+01	3.2847	47.815836	0.000689	6.891569	1.167463	0.000138
 167	1.6517e+01	3.3066	47.928875	0.000568	5.675410	0.961440	0.000114
 168	1.6616e+01	3.3266	48.062101	0.000669	6.688876	1.133126	0.000134
 169	1.6716e+01	3.3463	48.134769	0.000365	3.648478	0.618069	0.000073
 170	1.6816e+01	3.3656	48.276069	0.000709	7.094262	1.201801	0.000142
 171	1.6915e+01	3.3855	48.364886	0.000446	4.459251	0.755418	0.000089
 172	1.7015e+01	3.4059	48.481963	0.000588	5.878103	0.995778	0.000118
 173	1.7114e+01	3.4251	48.590966	0.000547	5.472717	0.927103	0.000110
 174	1.7213e+01	3.4457	48.704006	0.000568	5.675410	0.961440	0.000114
 175	1.7313e+01	3.4660	48.788785	0.000426	4.256557	0.721080	0.000085
 176	1.7413e+01	3.4850	48.926048	0.000689	6.891569	1.167463	0.000138
 177	1.7512e+01	3.5052	49.031014	0.000527	5.270023	0.892766	0.000105
 178	1.7611e+01	3.5258	49.164239	0.000669	6.688876	1.133126	0.000134
 179	1.7711e+01	3.5455	49.249019	0.000426	4.256557	0.721080	0.000085
 180	1.7811e+01	3.5653	49.341873	0.000466	4.661944	0.789755	0.000093
 181	1.7910e+01	3.5849	49.434727	0.000466	4.661944	0.789755	0.000093
 182	1.8009e+01	3.6051	49.584101	0.000750	7.499649	1.270475	0.000150
 183	1.8109e+01	3.6249	49.644658	0.000304	3.040398	0.515057	0.000061
 184	1.8209e+01	3.6446	49.773847	0.000649	6.486183	1.098789	0.000130
 185	1.8308e+01	3.6645	49.890923	0.000588	5.878103	0.995778	0.000118
 186	1.8407e+01	3.6845	49.991852	0.000507	5.067330	0.858429	0.000101
 187	1.8507e+01	3.7048	50.064520	0.000365	3.648478	0.618069	0.000073
 188	1.8607e+01	3.7242	50.185634	0.000608	6.080796	1.030115	0.000122
 189	1.8706e+01	3.7447	50.310786	0.000628	6.283489	1.064452	0.000126
 190	1.8805e+01	3.7649	50.403640	0.000466	4.661944	0.789755	0.000093
 191	1.8905e+01	3.7833	50.532828	0.000649	6.486183	1.098789	0.000130
 192	1.9005e+01	3.8030	50.597422	0.000324	3.243091	0.549395	0.000065
 193	1.9104e+01	3.8238	50.710462	0.000568	5.675410	0.961440	0.000114
 194	1.9203e+01	3.8428	50.835613	0.000628	6.283489	1.064452	0.000126
 195	1.9303e+01	3.8641	50.928467	0.000466	4.661944	0.789755	0.000093
 196	1.9402e+01	3.8830	51.041507	0.000568	5.675410	0.961440	0.000114
 197	1.9502e+01	3.9041	51.142436	0.000507	5.067330	0.858429	0.000101
 198	1.9602e+01	3.9227	51.255475	0.000568	5.675410	0.961440	0.000114
 199	1.9701e+01	3.9449	51.376589	0.000608	6.080796	1.030115	0.000122
 200	1.9800e+01	3.9639	51.445221	0.000345	3.445785	0.583732	0.000069
 201	1.9900e+01	3.9831	51.610743	0.000831	8.310422	1.407824	0.000166
 202	2.0000e+01	4.0026	51.691486	0.000405	4.053864	0.686743	0.000081
 203	2.0099e+01	4.0234	51.792414	0.000507	5.067330	0.858429	0.000101
 204	2.0198e+01	4.0429	51.885269	0.000466	4.661944	0.789755	0.000093
 205	2.0298e+01	4.0636	51.974085	0.000446	4.459251	0.755418	0.000089
 206	2.0398e+01	4.0823	52.091162	0.000588	5.878103	0.995778	0.000118
 207	2.0497e+01	4.1044	52.208239	0.000588	5.878103	0.995778	0.000118
 208	2.0596e+01	4.1224	52.313205	0.000527	5.270023	0.892766	0.000105
 209	2.0696e+01	4.1438	52.418170	0.000527	5.270023	0.892766	0.000105
 210	2.0796e+01	4.1628	52.502950	0.000426	4.256557	0.721080	0.000085
 211	2.0895e+01	4.1823	52.644250	0.000709	7.094262	1.201801	0.000142
 212	2.0994e+01	4.2019	52.716918	0.000365	3.648478	0.618069	0.000073
 213	2.1094e+01	4.2229	52.833995	0.000588	5.878103	0.995778	0.000118
 214	2.1194e+01	4.2420	52.934924	0.000507	5.067330	0.858429	0.000101
 215	2.1293e+01	4.2619	53.027778	0.000466	4.661944	0.789755	0.000093
 216	2.1392e+01	4.2823	53.148892	0.000608	6.080796	1.030115	0.000122
 217	2.1492e+01	4.3018	53.249820	0.000507	5.067330	0.858429	0.000101
 218	2.1591e+01	4.3206	53.383046	0.000669	6.688876	1.133126	0.000134
 219	2.1691e+01	4.3404	53.475900	0.000466	4.661944	0.789755	0.000093
 220	2.1791e+01	4.3616	53.544531	0.000345	3.445785	0.583732	0.000069
 221	2.1890e+01	4.3818	53.653534	0.000547	5.472717	0.927103	0.000110
 222	2.1989e+01	4.4009	53.786759	0.000669	6.688876	1.133126	0.000134
 223	2.2089e+01	4.4210	53.851354	0.000324	3.243091	0.549395	0.000065
 224	2.2189e+01	4.4417	54.000728	0.000750	7.499649	1.270475	0.000150
 225	2.2288e+01	4.4610	54.117805	0.000588	5.878103	0.995778	0.000118
 226	2.2387e+01	4.4808	54.178362	0.000304	3.040398	0.515057	0.000061
 227	2.2487e+01	4.5016	54.267179	0.000446	4.459251	0.755418	0.000089
 228	2.2587e+01	4.5210	54.404441	0.000689	6.891569	1.167463	0.000138
 229	2.2686e+01	4.5408	54.537667	0.000669	6.688876	1.133126	0.000134
 230	2.2785e+01	4.5615	54.586112	0.000243	2.432319	0.412046	0.000049
 231	2.2885e+01	4.5810	54.735486	0.000750	7.499649	1.270475	0.000150
 232	2.2985e+01	4.6003	54.848526	0.000568	5.675410	0.961440	0.000114
 233	2.3084e+01	4.6207	54.909083	0.000304	3.040398	0.515057	0.000061
 234	2.3183e+01	4.6407	55.058457	0.000750	7.499649	1.270475	0.000150
 235	2.3283e+01	4.6600	55.131126	0.000365	3.648478	0.618069	0.000073
 236	2.3383e+01	4.6803	55.219943	0.000446	4.459251	0.755418	0.000089
 237	2.3482e+01	4.6999	55.341057	0.000608	6.080796	1.030115	0.000122
 238	2.3581e+01	4.7211	55.425837	0.000426	4.256557	0.721080	0.000085
 239	2.3681e+01	4.7406	55.542913	0.000588	5.878103	0.995778	0.000118
 240	2.3780e+01	4.7604	55.651916	0.000547	5.472717	0.927103	0.000110
 241	2.3880e+01	4.7803	55.736696	0.000426	4.256557	0.721080	0.000085
 242	2.3980e+01	4.7999	55.849736	0.000568	5.675410	0.961440	0.000114
 243	2.4079e+01	4.8200	55.954701	0.000527	5.270023	0.892766	0.000105
 244	2.4178e+01	4.8392	56.055630	0.000507	5.067330	0.858429	0.000101
 245	2.4278e+01	4.8602	56.156558	0.000507	5.067330	0.858429	0.000101
 246	2.4378e+01	4.8821	56.225189	0.000345	3.445785	0.583732	0.000069
 247	2.4477e+01	4.8995	56.334192	0.000547	5.472717	0.927103	0.000110
 248	2.4576e+01	4.9195	56.443195	0.000547	5.472717	0.927103	0.000110
 249	2.4676e+01	4.9394	56.532012	0.000446	4.459251	0.755418	0.000089
 250	2.4776e+01	4.9600	56.657163	0.000628	6.283489	1.064452	0.000126
 251	2.4875e+01	4.9799	56.729831	0.000365	3.648478	0.618069	0.000073
 252	2.4974e+01	5.0002	56.818648	0.000446	4.459251	0.755418	0.000089
 253	2.5074e+01	5.0198	56.927651	0.000547	5.472717	0.927103	0.000110
 254	2.5174e+01	5.0391	57.048765	0.000608	6.080796	1.030115	0.000122
 255	2.5273e+01	5.0592	57.141619	0.000466	4.661944	0.789755	0.000093
 256	2.5372e+01	5.0780	57.254659	0.000568	5.675410	0.961440	0.000114
 257	2.5472e+01	5.0992	57.359625	0.000527	5.270023	0.892766	0.000105
 258	2.5572e+01	5.1186	57.436330	0.000385	3.851171	0.652406	0.000077
 259	2.5671e+01	5.1385	57.517073	0.000405	4.053864	0.686743	0.000081
 260	2.5770e+01	5.1577	57.642224	0.000628	6.283489	1.064452	0.000126
 261	2.5870e+01	5.1786	57.714893	0.000365	3.648478	0.618069	0.000073
 262	2.5970e+01	5.1971	57.840044	0.000628	6.283489	1.064452	0.000126
 263	2.6069e+01	5.2182	57.949046	0.000547	5.472717	0.927103	0.000110
 264	2.6169e+01	5.2389	58.054012	0.000527	5.270023	0.892766	0.000105
 265	2.6268e+01	5.2579	58.167052	0.000568	5.675410	0.961440	0.000114
 266	2.6367e+01	5.2769	58.239720	0.000365	3.648478	0.618069	0.000073
 267	2.6467e+01	5.2975	58.348723	0.000547	5.472717	0.927103	0.000110
 268	2.6567e+01	5.3188	58.481948	0.000669	6.688876	1.133126	0.000134
 269	2.6666e+01	5.3386	58.578840	0.000486	4.864637	0.824092	0.000097
 270	2.6765e+01	5.3573	58.671694	0.000466	4.661944	0.789755	0.000093
 271	2.6865e+01	5.3770	58.776659	0.000527	5.270023	0.892766	0.000105
 272	2.6965e+01	5.3973	58.897773	0.000608	6.080796	1.030115	0.000122
 273	2.7064e+01	5.4176	58.930070	0.000162	1.621546	0.274697	0.000032
 274	2.7163e+01	5.4374	59.095593	0.000831	8.310422	1.407824	0.000166
 275	2.7263e+01	5.4571	59.180373	0.000426	4.256557	0.721080	0.000085
 276	2.7363e+01	5.4773	59.297450	0.000588	5.878103	0.995778	0.000118
 277	2.7462e+01	5.4971	59.362044	0.000324	3.243091	0.549395	0.000065
 278	2.7561e+01	5.5173	59.434712	0.000365	3.648478	0.618069	0.000073
 279	2.7661e+01	5.5378	59.600235	0.000831	8.310422	1.407824	0.000166
 280	2.7761e+01	5.5567	59.644643	0.000223	2.229625	0.377709	0.000045
 281	2.7860e+01	5.5773	59.781906	0.000689	6.891569	1.167463	0.000138
 282	2.7959e+01	5.5958	59.886872	0.000527	5.270023	0.892766	0.000105
 283	2.8059e+01	5.6173	59.975689	0.000446	4.459251	0.755418	0.000089
 284	2.8159e+01	5.6364	60.072580	0.000486	4.864637	0.824092	0.000097
 285	2.8258e+01	5.6559	60.121025	0.000243	2.432319	0.412046	0.000049
 286	2.8358e+01	5.6767	60.266362	0.000730	7.296956	1.236138	0.000146
 287	2.8457e+01	5.6960	60.383439	0.000588	5.878103	0.995778	0.000118
 288	2.8556e+01	5.7160	60.464182	0.000405	4.053864	0.686743	0.000081
 289	2.8656e+01	5.7354	60.536850	0.000365	3.648478	0.618069	0.000073
 290	2.8756e+01	5.7565	60.674113	0.000689	6.891569	1.167463	0.000138
 291	2.8855e+01	5.7764	60.738707	0.000324	3.243091	0.549395	0.000065
 292	2.8954e+01	5.7956	60.855784	0.000588	5.878103	0.995778	0.000118
 293	2.9054e+01	5.8153	60.948638	0.000466	4.661944	0.789755	0.000093
 294	2.9154e+01	5.8352	61.049567	0.000507	5.067330	0.858429	0.000101
 295	2.9253e+01	5.8558	61.146458	0.000486	4.864637	0.824092	0.000097
 296	2.9352e+01	5.8758	61.211052	0.000324	3.243091	0.549395	0.000065
 297	2.9452e+01	5.8952	61.344278	0.000669	6.688876	1.133126	0.000134
 298	2.9552e+01	5.9158	61.425020	0.000405	4.053864	0.686743	0.000081
 299	2.9651e+01	5.9351	61.546134	0.000608	6.080796	1.030115	0.000122
 300	2.9750e+01	5.9551	61.630914	0.000426	4.256557	0.721080	0.000085
 301	2.9850e+01	5.9756	61.723768	0.000466	4.661944	0.789755	0.000093
 302	2.9950e+01	5.9960	61.820660	0.000486	4.864637	0.824092	0.000097
 303	3.0049e+01	6.0152	61.889291	0.000345	3.445785	0.583732	0.000069
 304	3.0148e+01	6.0352	62.026553	0.000689	6.891569	1.167463	0.000138
 305	3.0248e+01	6.0555	62.111333	0.000426	4.256557	0.721080	0.000085
 306	3.0348e+01	6.0749	62.171890	0.000304	3.040398	0.515057	0.000061
 307	3.0447e+01	6.0950	62.313190	0.000709	7.094262	1.201801	0.000142
 308	3.0547e+01	6.1141	62.377784	0.000324	3.243091	0.549395	0.000065
 309	3.0646e+01	6.1355	62.482750	0.000527	5.270023	0.892766	0.000105
 310	3.0745e+01	6.1550	62.571567	0.000446	4.459251	0.755418	0.000089
 311	3.0845e+01	6.1739	62.660384	0.000446	4.459251	0.755418	0.000089
 312	3.0945e+01	6.1939	62.753238	0.000466	4.661944	0.789755	0.000093
 313	3.1044e+01	6.2141	62.878389	0.000628	6.283489	1.064452	0.000126
 314	3.1143e+01	6.2346	62.979318	0.000507	5.067330	0.858429	0.000101
 315	3.1243e+01	6.2542	63.056023	0.000385	3.851171	0.652406	0.000077
 316	3.1343e+01	6.2731	63.160989	0.000527	5.270023	0.892766	0.000105
 317	3.1442e+01	6.2938	63.225583	0.000324	3.243091	0.549395	0.000065
 318	3.1541e+01	6.3128	63.302288	0.000385	3.851171	0.652406	0.000077
 319	3.1641e+01	6.3328	63.419365	0.000588	5.878103	0.995778	0.000118
 320	3.1741e+01	6.3532	63.520294	0.000507	5.067330	0.858429	0.000101
 321	3.1840e+01	6.3734	63.601036	0.000405	4.053864	0.686743	0.000081
 322	3.1939e+01	6.3944	63.710039	0.000547	5.472717	0.927103	0.000110
 323	3.2039e+01	6.4133	63.798856	0.000446	4.459251	0.755418	0.000089
 324	3.2139e+01	6.4331	63.903822	0.000527	5.270023	0.892766	0.000105
 325	3.2238e+01	6.4524	64.012824	0.000547	5.472717	0.927103	0.000110
 326	3.2337e+01	6.4728	64.105678	0.000466	4.661944	0.789755	0.000093
 327	3.2437e+01	6.4921	64.162198	0.000284	2.837705	0.480720	0.000057
 328	3.2536e+01	6.5115	64.275238	0.000568	5.675410	0.961440	0.000114
 329	3.2636e+01	6.5333	64.372129	0.000486	4.864637	0.824092	0.000097
 330	3.2736e+01	6.5528	64.432686	0.000304	3.040398	0.515057	0.000061
 331	3.2835e+01	6.5716	64.553800	0.000608	6.080796	1.030115	0.000122
 332	3.2934e+01	6.5936	64.650692	0.000486	4.864637	0.824092	0.000097
 333	3.3034e+01	6.6140	64.723360	0.000365	3.648478	0.618069	0.000073
 334	3.3133e+01	6.6317	64.840437	0.000588	5.878103	0.995778	0.000118
 335	3.3233e+01	6.6527	64.965588	0.000628	6.283489	1.064452	0.000126
 336	3.3333e+01	6.6722	65.034220	0.000345	3.445785	0.583732	0.000069
 337	3.3432e+01	6.6920	65.139185	0.000527	5.270023	0.892766	0.000105
 338	3.3532e+01	6.7107	65.203779	0.000324	3.243091	0.549395	0.000065
 339	3.3631e+01	6.7309	65.296633	0.000466	4.661944	0.789755	0.000093
 340	3.3730e+01	6.7511	65.409673	0.000568	5.675410	0.961440	0.000114
 341	3.3830e+01	6.7712	65.437933	0.000142	1.418852	0.240360	0.000028
 342	3.3929e+01	6.7920	65.567122	0.000649	6.486183	1.098789	0.000130
 343	3.4029e+01	6.8114	65.631716	0.000324	3.243091	0.549395	0.000065
 344	3.4129e+01	6.8303	65.756867	0.000628	6.283489	1.064452	0.000126
 345	3.4228e+01	6.8511	65.805313	0.000243	2.432319	0.412046	0.000049
 346	3.4328e+01	6.8716	65.926427	0.000608	6.080796	1.030115	0.000122
 347	3.4427e+01	6.8917	66.007169	0.000405	4.053864	0.686743	0.000081
 348	3.4526e+01	6.9112	66.075801	0.000345	3.445785	0.583732	0.000069
 349	3.4626e+01	6.9305	66.128283	0.000264	2.635012	0.446383	0.000053
 350	3.4725e+01	6.9495	66.269583	0.000709	7.094262	1.201801	0.000142
 351	3.4825e+01	6.9714	66.330140	0.000304	3.040398	0.515057	0.000061
 352	3.4925e+01	6.9910	66.427031	0.000486	4.864637	0.824092	0.000097
 353	3.5024e+01	7.0107	66.499700	0.000365	3.648478	0.618069	0.000073
 354	3.5123e+01	7.0306	66.596591	0.000486	4.864637	0.824092	0.000097
 355	3.5223e+01	7.0509	66.693482	0.000486	4.864637	0.824092	0.000097
 356	3.5322e+01	7.0705	66.786337	0.000466	4.661944	0.789755	0.000093
 357	3.5422e+01	7.0901	66.867079	0.000405	4.053864	0.686743	0.000081
 358	3.5522e+01	7.1110	66.972045	0.000527	5.270023	0.892766	0.000105
 359	3.5621e+01	7.1294	66.996268	0.000122	1.216159	0.206023	0.000024
 360	3.5721e+01	7.1502	67.141604	0.000730	7.296956	1.236138	0.000146
 361	3.5820e+01	7.1700	67.210236	0.000345	3.445785	0.583732	0.000069
 362	3.5919e+01	7.1902	67.286941	0.000385	3.851171	0.652406	0.000077
 363	3.6019e+01	7.2099	67.420167	0.000669	6.688876	1.133126	0.000134
 364	3.6118e+01	7.2291	67.476687	0.000284	2.837705	0.480720	0.000057
 365	3.6218e+01	7.2494	67.573578	0.000486	4.864637	0.824092	0.000097
 366	3.6318e+01	7.2692	67.597801	0.000122	1.216159	0.206023	0.000024
 367	3.6417e+01	7.2894	67.743138	0.000730	7.296956	1.236138	0.000146
 368	3.6517e+01	7.3090	67.872326	0.000649	6.486183	1.098789	0.000130
 369	3.6616e+01	7.3296	67.912697	0.000203	2.026932	0.343372	0.000041
 370	3.6715e+01	7.3492	68.025737	0.000568	5.675410	0.961440	0.000114
 371	3.6815e+01	7.3684	68.074183	0.000243	2.432319	0.412046	0.000049
 372	3.6914e+01	7.3895	68.211445	0.000689	6.891569	1.167463	0.000138
 373	3.7014e+01	7.4096	68.267965	0.000284	2.837705	0.480720	0.000057
 374	3.7114e+01	7.4287	68.336597	0.000345	3.445785	0.583732	0.000069
 375	3.7213e+01	7.4488	68.449636	0.000568	5.675410	0.961440	0.000114
 376	3.7313e+01	7.4688	68.522305	0.000365	3.648478	0.618069	0.000073
 377	3.7412e+01	7.4889	68.599010	0.000385	3.851171	0.652406	0.000077
 378	3.7511e+01	7.5094	68.687827	0.000446	4.459251	0.755418	0.000089
 379	3.7611e+01	7.5286	68.764533	0.000385	3.851171	0.652406	0.000077
 380	3.7711e+01	7.5489	68.865461	0.000507	5.067330	0.858429	0.000101
 381	3.7810e+01	7.5681	68.970427	0.000527	5.270023	0.892766	0.000105
 382	3.7910e+01	7.5881	69.026947	0.000284	2.837705	0.480720	0.000057
 383	3.8009e+01	7.6077	69.148061	0.000608	6.080796	1.030115	0.000122
 384	3.8108e+01	7.6282	69.228804	0.000405	4.053864	0.686743	0.000081
 385	3.8208e+01	7.6484	69.273212	0.000223	2.229625	0.377709	0.000045
 386	3.8307e+01	7.6678	69.394326	0.000608	6.080796	1.030115	0.000122
 387	3.8407e+01	7.6882	69.479106	0.000426	4.256557	0.721080	0.000085
 388	3.8507e+01	7.7082	69.555812	0.000385	3.851171	0.652406	0.000077
 389	3.8606e+01	7.7271	69.628480	0.000365	3.648478	0.618069	0.000073
 390	3.8706e+01	7.7473	69.781891	0.000770	7.702342	1.304812	0.000154
 391	3.8805e+01	7.7679	69.806114	0.000122	1.216159	0.206023	0.000024
 392	3.8904e+01	7.7882	69.915117	0.000547	5.472717	0.927103	0.000110
 393	3.9004e+01	7.8082	69.999897	0.000426	4.256557	0.721080	0.000085
 394	3.9103e+01	7.8266	70.076602	0.000385	3.851171	0.652406	0.000077
 395	3.9203e+01	7.8475	70.153308	0.000385	3.851171	0.652406	0.000077
 396	3.9303e+01	7.8678	70.258273	0.000527	5.270023	0.892766	0.000105
 397	3.9402e+01	7.8869	70.334979	0.000385	3.851171	0.652406	0.000077
 398	3.9502e+01	7.9066	70.431870	0.000486	4.864637	0.824092	0.000097
 399	3.9601e+01	7.9272	70.512613	0.000405	4.053864	0.686743	0.000081
 400	3.9700e+01	7.9479	70.585281	0.000365	3.648478	0.618069	0.000073
 401	3.9800e+01	7.9673	70.670061	0.000426	4.256557	0.721080	0.000085
 402	3.9900e+01	7.9865	70.762915	0.000466	4.661944	0.789755	0.000093
 403	3.9999e+01	8.0067	70.831547	0.000345	3.445785	0.583732	0.000069
 404	4.0099e+01	8.0263	70.884029	0.000264	2.635012	0.446383	0.000053
 405	4.0198e+01	8.0464	71.001106	0.000588	5.878103	0.995778	0.000118
 406	4.0297e+01	8.0667	71.089923	0.000446	4.459251	0.755418	0.000089
 407	4.0397e+01	8.0862	71.154517	0.000324	3.243091	0.549395	0.000065
 408	4.0496e+01	8.1060	71.235260	0.000405	4.053864	0.686743	0.000081
 409	4.0596e+01	8.1259	71.316003	0.000405	4.053864	0.686743	0.000081
 410	4.0696e+01	8.1461	71.441154	0.000628	6.283489	1.064452	0.000126
 411	4.0795e+01	8.1654	71.497674	0.000284	2.837705	0.480720	0.000057
 412	4.0895e+01	8.1857	71.610714	0.000568	5.675410	0.961440	0.000114
 413	4.0994e+01	8.2056	71.667234	0.000284	2.837705	0.480720	0.000057
 414	4.1093e+01	8.2253	71.760088	0.000466	4.661944	0.789755	0.000093
 415	4.1193e+01	8.2452	71.865053	0.000527	5.270023	0.892766	0.000105
 416	4.1292e+01	8.2653	71.929647	0.000324	3.243091	0.549395	0.000065
 417	4.1392e+01	8.2856	72.006353	0.000385	3.851171	0.652406	0.000077
 418	4.1492e+01	8.3050	72.074984	0.000345	3.445785	0.583732	0.000069
 419	4.1591e+01	8.3252	72.163801	0.000446	4.459251	0.755418	0.000089
 420	4.1691e+01	8.3454	72.248581	0.000426	4.256557	0.721080	0.000085
 421	4.1790e+01	8.3649	72.325287	0.000385	3.851171	0.652406	0.000077
 422	4.1889e+01	8.3854	72.422178	0.000486	4.864637	0.824092	0.000097
 423	4.1989e+01	8.4042	72.506958	0.000426	4.256557	0.721080	0.000085
 424	4.2089e+01	8.4251	72.603849	0.000486	4.864637	0.824092	0.000097
 425	4.2188e+01	8.4439	72.680555	0.000385	3.851171	0.652406	0.000077
 426	4.2288e+01	8.4644	72.745149	0.000324	3.243091	0.549395	0.000065
 427	4.2387e+01	8.4853	72.809743	0.000324	3.243091	0.549395	0.000065
 428	4.2486e+01	8.5044	72.942969	0.000669	6.688876	1.133126	0.000134
 429	4.2586e+01	8.5254	73.023711	0.000405	4.053864	0.686743	0.000081
 430	4.2685e+01	8.5449	73.116565	0.000466	4.661944	0.789755	0.000093
 431	4.2785e+01	8.5682	73.213457	0.000486	4.864637	0.824092	0.000097
 432	4.2885e+01	8.5843	73.269977	0.000284	2.837705	0.480720	0.000057
 433	4.2984e+01	8.6039	73.350719	0.000405	4.053864	0.686743	0.000081
 434	4.3084e+01	8.6236	73.463759	0.000568	5.675410	0.961440	0.000114
 435	4.3183e+01	8.6435	73.576799	0.000568	5.675410	0.961440	0.000114
 436	4.3282e+01	8.6630	73.617170	0.000203	2.026932	0.343372	0.000041
 437	4.3382e+01	8.6837	73.710024	0.000466	4.661944	0.789755	0.000093
 438	4.3481e+01	8.7025	73.790767	0.000405	4.053864	0.686743	0.000081
 439	4.3581e+01	8.7239	73.863435	0.000365	3.648478	0.618069	0.000073
 440	4.3681e+01	8.7479	73.964364	0.000507	5.067330	0.858429	0.000101
 441	4.3780e+01	8.7649	74.085478	0.000608	6.080796	1.030115	0.000122
 442	4.3880e+01	8.7838	74.166221	0.000405	4.053864	0.686743	0.000081
 443	4.3979e+01	8.8029	74.222741	0.000284	2.837705	0.480720	0.000057
 444	4.4078e+01	8.8232	74.295409	0.000365	3.648478	0.618069	0.000073
 445	4.4178e+01	8.8417	74.396337	0.000507	5.067330	0.858429	0.000101
 446	4.4278e+01	8.8630	74.481117	0.000426	4.256557	0.721080	0.000085
 447	4.4377e+01	8.8832	74.565897	0.000426	4.256557	0.721080	0.000085
 448	4.4477e+01	8.9014	74.666825	0.000507	5.067330	0.858429	0.000101
 449	4.4576e+01	8.9233	74.731420	0.000324	3.243091	0.549395	0.000065
 450	4.4675e+01	8.9417	74.828311	0.000486	4.864637	0.824092	0.000097
 451	4.4775e+01	8.9616	74.929239	0.000507	5.067330	0.858429	0.000101
 452	4.4874e+01	8.9813	74.989796	0.000304	3.040398	0.515057	0.000061
 453	4.4974e+01	9.0024	75.078613	0.000446	4.459251	0.755418	0.000089
 454	4.5074e+01	9.0221	75.143207	0.000324	3.243091	0.549395	0.000065
 455	4.5173e+01	9.0421	75.256247	0.000568	5.675410	0.961440	0.000114
 456	4.5273e+01	9.0617	75.292582	0.000182	1.824239	0.309034	0.000037
 457	4.5372e+01	9.0812	75.417733	0.000628	6.283489	1.064452	0.000126
 458	4.5471e+01	9.1019	75.474253	0.000284	2.837705	0.480720	0.000057
 459	4.5571e+01	9.1221	75.575181	0.000507	5.067330	0.858429	0.000101
 460	4.5670e+01	9.1414	75.659961	0.000426	4.256557	0.721080	0.000085
 461	4.5770e+01	9.1612	75.732629	0.000365	3.648478	0.618069	0.000073
 462	4.5870e+01	9.1811	75.821446	0.000446	4.459251	0.755418	0.000089
 463	4.5969e+01	9.2011	75.873929	0.000264	2.635012	0.446383	0.000053
 464	4.6069e+01	9.2209	75.970820	0.000486	4.864637	0.824092	0.000097
 465	4.6168e+01	9.2400	76.055600	0.000426	4.256557	0.721080	0.000085
 466	4.6267e+01	9.2603	76.136343	0.000405	4.053864	0.686743	0.000081
 467	4.6367e+01	9.2802	76.241308	0.000527	5.270023	0.892766	0.000105
 468	4.6467e+01	9.3004	76.309940	0.000345	3.445785	0.583732	0.000069
 469	4.6566e+01	9.3208	76.386645	0.000385	3.851171	0.652406	0.000077
 470	4.6666e+01	9.3410	76.471425	0.000426	4.256557	0.721080	0.000085
 471	4.6765e+01	9.3604	76.568316	0.000486	4.864637	0.824092	0.000097
 472	4.6864e+01	9.3790	76.673282	0.000527	5.270023	0.892766	0.000105
 473	4.6964e+01	9.4003	76.754025	0.000405	4.053864	0.686743	0.000081
 474	4.7063e+01	9.4190	76.790359	0.000182	1.824239	0.309034	0.000037
 475	4.7163e+01	9.4389	76.927621	0.000689	6.891569	1.167463	0.000138
 476	4.7263e+01	9.4595	76.967993	0.000203	2.026932	0.343372	0.000041
 477	4.7362e+01	9.4794	77.056810	0.000446	4.459251	0.755418	0.000089
 478	4.7462e+01	9.4994	77.117367	0.000304	3.040398	0.515057	0.000061
 479	4.7561e+01	9.5188	77.210221	0.000466	4.661944	0.789755	0.000093
 480	4.7660e+01	9.5393	77.331335	0.000608	6.080796	1.030115	0.000122
 481	4.7760e+01	9.5588	77.424189	0.000466	4.661944	0.789755	0.000093
 482	4.7859e+01	9.5792	77.484746	0.000304	3.040398	0.515057	0.000061
 483	4.7959e+01	9.5996	77.549340	0.000324	3.243091	0.549395	0.000065
 484	4.8059e+01	9.6191	77.634120	0.000426	4.256557	0.721080	0.000085
 485	4.8158e+01	9.6387	77.718900	0.000426	4.256557	0.721080	0.000085
 486	4.8258e+01	9.6582	77.787531	0.000345	3.445785	0.583732	0.000069
 487	4.8357e+01	9.6790	77.888460	0.000507	5.067330	0.858429	0.000101
 488	4.8456e+01	9.6982	77.953054	0.000324	3.243091	0.549395	0.000065
 489	4.8556e+01	9.7192	78.045908	0.000466	4.661944	0.789755	0.000093
 490	4.8656e+01	9.7376	78.126651	0.000405	4.053864	0.686743	0.000081
 491	4.8755e+01	9.7587	78.235653	0.000547	5.472717	0.927103	0.000110
 492	4.8855e+01	9.7785	78.308322	0.000365	3.648478	0.618069	0.000073
 493	4.8954e+01	9.7974	78.393102	0.000426	4.256557	0.721080	0.000085
 494	4.9053e+01	9.8187	78.445585	0.000264	2.635012	0.446383	0.000053
 495	4.9153e+01	9.8380	78.562661	0.000588	5.878103	0.995778	0.000118
 496	4.9252e+01	9.8576	78.627256	0.000324	3.243091	0.549395	0.000065
 497	4.9352e+01	9.8788	78.707998	0.000405	4.053864	0.686743	0.000081
 498	4.9452e+01	9.8981	78.812964	0.000527	5.270023	0.892766	0.000105
 499	4.9551e+01	9.9171	78.877558	0.000324	3.243091	0.549395	0.000065
 500	4.9651e+01	9.9381	78.958301	0.000405	4.053864	0.686743	0.000081
 501	4.9750e+01	9.9580	79.035006	0.000385	3.851171	0.652406	0.000077
 502	4.9849e+01	9.9775	79.119786	0.000426	4.256557	0.721080	0.000085
 503	4.9949e+01	9.9976	79.168232	0.000243	2.432319	0.412046	0.000049
 504	5.0048e+01	9.9769	79.152083	0.000081	0.810773	0.137349	-0.000016
 505	5.0148e+01	9.9590	79.107675	0.000223	2.229625	0.377709	-0.000045
 506	5.0248e+01	9.9365	79.067303	0.000203	2.026932	0.343372	-0.000041
 507	5.0347e+01	9.9170	78.986561	0.000405	4.053864	0.686743	-0.000081
 508	5.0447e+01	9.8987	78.966375	0.000101	1.013466	0.171686	-0.000020
 509	5.0546e+01	9.8780	78.889669	0.000385	3.851171	0.652406	-0.000077
 510	5.0645e+01	9.8584	78.861410	0.000142	1.418852	0.240360	-0.000028
 511	5.0745e+01	9.8389	78.772593	0.000446	4.459251	0.755418	-0.000089
 512	5.0844e+01	9.8182	78.695887	0.000385	3.851171	0.652406	-0.000077
 513	5.0944e+01	9.7984	78.651478	0.000223	2.229625	0.377709	-0.000045
 514	5.1044e+01	9.7784	78.631293	0.000101	1.013466	0.171686	-0.000020
 515	5.1143e+01	9.7585	78.510179	0.000608	6.080796	1.030115	-0.000122
 516	5.1242e+01	9.7388	78.522290	-0.000061	-0.608080	-0.103011	0.000012
 517	5.1342e+01	9.7192	78.421362	0.000507	5.067330	0.858429	-0.000101
 518	5.1441e+01	9.6987	78.393102	0.000142	1.418852	0.240360	-0.000028
 519	5.1541e+01	9.6792	78.332545	0.000304	3.040398	0.515057	-0.000061
 520	5.1641e+01	9.6591	78.271988	0.000304	3.040398	0.515057	-0.000061
 521	5.1740e+01	9.6390	78.227579	0.000223	2.229625	0.377709	-0.000045
 522	5.1840e+01	9.6180	78.183171	0.000223	2.229625	0.377709	-0.000045
 523	5.1939e+01	9.5991	78.098391	0.000426	4.256557	0.721080	-0.000085
 524	5.2038e+01	9.5789	78.017648	0.000405	4.053864	0.686743	-0.000081
 525	5.2138e+01	9.5594	77.940943	0.000385	3.851171	0.652406	-0.000077
 526	5.2237e+01	9.5404	77.880386	0.000304	3.040398	0.515057	-0.000061
 527	5.2337e+01	9.5194	77.840014	0.000203	2.026932	0.343372	-0.000041
 528	5.2437e+01	9.4999	77.803680	0.000182	1.824239	0.309034	-0.000037
 529	5.2536e+01	9.4803	77.702752	0.000507	5.067330	0.858429	-0.000101
 530	5.2636e+01	9.4588	77.626046	0.000385	3.851171	0.652406	-0.000077
 531	5.2735e+01	9.4409	77.609897	0.000081	0.810773	0.137349	-0.000016
 532	5.2834e+01	9.4207	77.492820	0.000588	5.878103	0.995778	-0.000118
 533	5.2934e+01	9.4000	77.424189	0.000345	3.445785	0.583732	-0.000069
 534	5.3033e+01	9.3808	77.391892	0.000162	1.621546	0.274697	-0.000032
 535	5.3133e+01	9.3594	77.307112	0.000426	4.256557	0.721080	-0.000085
 536	5.3233e+01	9.3408	77.242518	0.000324	3.243091	0.549395	-0.000065
 537	5.3332e+01	9.3207	77.202147	0.000203	2.026932	0.343372	-0.000041
 538	5.3431e+01	9.2994	77.161775	0.000203	2.026932	0.343372	-0.000041
 539	5.3531e+01	9.2812	77.093144	0.000345	3.445785	0.583732	-0.000069
 540	5.3630e+01	9.2599	77.024513	0.000345	3.445785	0.583732	-0.000069
 541	5.3730e+01	9.2410	76.951844	0.000365	3.648478	0.618069	-0.000073
 542	5.3830e+01	9.2212	76.891287	0.000304	3.040398	0.515057	-0.000061
 543	5.3929e+01	9.2017	76.830730	0.000304	3.040398	0.515057	-0.000061
 544	5.4029e+01	9.1801	76.766136	0.000324	3.243091	0.549395	-0.000065
 545	5.4128e+01	9.1606	76.657133	0.000547	5.472717	0.927103	-0.000110
 546	5.4227e+01	9.1413	76.661171	-0.000020	-0.202693	-0.034337	0.000004
 547	5.4327e+01	9.1211	76.580428	0.000405	4.053864	0.686743	-0.000081
 548	5.4426e+01	9.1017	76.499685	0.000405	4.053864	0.686743	-0.000081
 549	5.4526e+01	9.0820	76.402794	0.000486	4.864637	0.824092	-0.000097
 550	5.4626e+01	9.0609	76.394720	0.000041	0.405386	0.068674	-0.000008
 551	5.4725e+01	9.0417	76.326088	0.000345	3.445785	0.583732	-0.000069
 552	5.4825e+01	9.0222	76.265531	0.000304	3.040398	0.515057	-0.000061
 553	5.4924e+01	9.0034	76.160566	0.000527	5.270023	0.892766	-0.000105
 554	5.5023e+01	8.9819	76.112120	0.000243	2.432319	0.412046	-0.000049
 555	5.5123e+01	8.9629	76.071749	0.000203	2.026932	0.343372	-0.000041
 556	5.5222e+01	8.9429	75.974857	0.000486	4.864637	0.824092	-0.000097
 557	5.5322e+01	8.9226	75.938523	0.000182	1.824239	0.309034	-0.000037
 558	5.5422e+01	8.9014	75.873929	0.000324	3.243091	0.549395	-0.000065
 559	5.5521e+01	8.8818	75.801261	0.000365	3.648478	0.618069	-0.000073
 560	5.5620e+01	8.8623	75.720518	0.000405	4.053864	0.686743	-0.000081
 561	5.5720e+01	8.8420	75.647849	0.000365	3.648478	0.618069	-0.000073
 562	5.5819e+01	8.8232	75.611515	0.000182	1.824239	0.309034	-0.000037
 563	5.5919e+01	8.8026	75.550958	0.000304	3.040398	0.515057	-0.000061
 564	5.6019e+01	8.7824	75.450030	0.000507	5.067330	0.858429	-0.000101
 565	5.6118e+01	8.7637	75.417733	0.000162	1.621546	0.274697	-0.000032
 566	5.6218e+01	8.7438	75.341027	0.000385	3.851171	0.652406	-0.000077
 567	5.6317e+01	8.7240	75.248173	0.000466	4.661944	0.789755	-0.000093
 568	5.6416e+01	8.7036	75.147245	0.000507	5.067330	0.858429	-0.000101
 569	5.6516e+01	8.6845	75.123022	0.000122	1.216159	0.206023	-0.000024
 570	5.6615e+01	8.6639	75.058428	0.000324	3.243091	0.549395	-0.000065
 571	5.6715e+01	8.6436	74.993833	0.000324	3.243091	0.549395	-0.000065
 572	5.6815e+01	8.6244	74.933276	0.000304	3.040398	0.515057	-0.000061
 573	5.6914e+01	8.6035	74.828311	0.000527	5.270023	0.892766	-0.000105
 574	5.7014e+01	8.5844	74.775828	0.000264	2.635012	0.446383	-0.000053
 575	5.7113e+01	8.5638	74.719308	0.000284	2.837705	0.480720	-0.000057
 576	5.7212e+01	8.5435	74.638566	0.000405	4.053864	0.686743	-0.000081
 577	5.7312e+01	8.5240	74.602231	0.000182	1.824239	0.309034	-0.000037
 578	5.7411e+01	8.5040	74.513414	0.000446	4.459251	0.755418	-0.000089
 579	5.7511e+01	8.4834	74.456894	0.000284	2.837705	0.480720	-0.000057
 580	5.7611e+01	8.4655	74.355966	0.000507	5.067330	0.858429	-0.000101
 581	5.7710e+01	8.4442	74.307520	0.000243	2.432319	0.412046	-0.000049
 582	5.7809e+01	8.4243	74.271186	0.000182	1.824239	0.309034	-0.000037
 583	5.7909e+01	8.4043	74.137961	0.000669	6.688876	1.133126	-0.000134
 584	5.8008e+01	8.3855	74.065292	0.000365	3.648478	0.618069	-0.000073
 585	5.8108e+01	8.3652	74.032995	0.000162	1.621546	0.274697	-0.000032
 586	5.8208e+01	8.3447	73.944178	0.000446	4.459251	0.755418	-0.000089
 587	5.8307e+01	8.3257	73.863435	0.000405	4.053864	0.686743	-0.000081
 588	5.8407e+01	8.3054	73.790767	0.000365	3.648478	0.618069	-0.000073
 589	5.8506e+01	8.2866	73.746359	0.000223	2.229625	0.377709	-0.000045
 590	5.8605e+01	8.2655	73.649467	0.000486	4.864637	0.824092	-0.000097
 591	5.8705e+01	8.2458	73.601022	0.000243	2.432319	0.412046	-0.000049
 592	5.8804e+01	8.2261	73.516242	0.000426	4.256557	0.721080	-0.000085
 593	5.8904e+01	8.2056	73.467796	0.000243	2.432319	0.412046	-0.000049
 594	5.9004e+01	8.1854	73.378979	0.000446	4.459251	0.755418	-0.000089
 595	5.9103e+01	8.1662	73.318422	0.000304	3.040398	0.515057	-0.000061
 596	5.9203e+01	8.1469	73.245754	0.000365	3.648478	0.618069	-0.000073
 597	5.9302e+01	8.1253	73.160974	0.000426	4.256557	0.721080	-0.000085
 598	5.9401e+01	8.1070	73.112528	0.000243	2.432319	0.412046	-0.000049
 599	5.9501e+01	8.0863	73.027748	0.000426	4.256557	0.721080	-0.000085
 600	5.9600e+01	8.0659	72.975266	0.000264	2.635012	0.446383	-0.000053
 601	5.9700e+01	8.0463	72.906634	0.000345	3.445785	0.583732	-0.000069
 602	5.9800e+01	8.0260	72.846077	0.000304	3.040398	0.515057	-0.000061
 603	5.9899e+01	8.0067	72.729000	0.000588	5.878103	0.995778	-0.000118
 604	5.9998e+01	7.9864	72.712852	0.000081	0.810773	0.137349	-0.000016
 605	6.0098e+01	7.9674	72.632109	0.000405	4.053864	0.686743	-0.000081
 606	6.0197e+01	7.9468	72.575589	0.000284	2.837705	0.480720	-0.000057
 607	6.0297e+01	7.9276	72.490809	0.000426	4.256557	0.721080	-0.000085
 608	6.0397e+01	7.9079	72.393918	0.000486	4.864637	0.824092	-0.000097
 609	6.0496e+01	7.8866	72.341435	0.000264	2.635012	0.446383	-0.000053
 610	6.0596e+01	7.8671	72.292990	0.000243	2.432319	0.412046	-0.000049
 611	6.0695e+01	7.8473	72.188024	0.000527	5.270023	0.892766	-0.000105
 612	6.0794e+01	7.8271	72.151690	0.000182	1.824239	0.309034	-0.000037
 613	6.0894e+01	7.8076	72.042687	0.000547	5.472717	0.927103	-0.000110
 614	6.0993e+01	7.7869	71.990204	0.000264	2.635012	0.446383	-0.000053
 615	6.1093e+01	7.7673	71.945796	0.000223	2.229625	0.377709	-0.000045
 616	6.1193e+01	7.7476	71.861016	0.000426	4.256557	0.721080	-0.000085
 617	6.1292e+01	7.7287	71.764125	0.000486	4.864637	0.824092	-0.000097
 618	6.1392e+01	7.7076	71.723754	0.000203	2.026932	0.343372	-0.000041
 619	6.1491e+01	7.6891	71.638974	0.000426	4.256557	0.721080	-0.000085
 620	6.1590e+01	7.6685	71.586491	0.000264	2.635012	0.446383	-0.000053
 621	6.1690e+01	7.6473	71.534008	0.000264	2.635012	0.446383	-0.000053
 622	6.1789e+01	7.6280	71.441154	0.000466	4.661944	0.789755	-0.000093
 623	6.1889e+01	7.6082	71.368486	0.000365	3.648478	0.618069	-0.000073
 624	6.1989e+01	7.5884	71.299854	0.000345	3.445785	0.583732	-0.000069
 625	6.2088e+01	7.5674	71.198926	0.000507	5.067330	0.858429	-0.000101
 626	6.2188e+01	7.5484	71.110109	0.000446	4.459251	0.755418	-0.000089
 627	6.2287e+01	7.5289	71.057626	0.000264	2.635012	0.446383	-0.000053
 628	6.2386e+01	7.5076	70.972846	0.000426	4.256557	0.721080	-0.000085
 629	6.2486e+01	7.4883	70.948623	0.000122	1.216159	0.206023	-0.000024
 630	6.2586e+01	7.4683	70.843658	0.000527	5.270023	0.892766	-0.000105
 631	6.2685e+01	7.4487	70.779064	0.000324	3.243091	0.549395	-0.000065
 632	6.2785e+01	7.4287	70.710432	0.000345	3.445785	0.583732	-0.000069
 633	6.2884e+01	7.4091	70.609504	0.000507	5.067330	0.858429	-0.000101
 634	6.2983e+01	7.3893	70.581244	0.000142	1.418852	0.240360	-0.000028
 635	6.3083e+01	7.3693	70.472241	0.000547	5.472717	0.927103	-0.000110
 636	6.3182e+01	7.3494	70.371313	0.000507	5.067330	0.858429	-0.000101
 637	6.3282e+01	7.3301	70.318830	0.000264	2.635012	0.446383	-0.000053
 638	6.3382e+01	7.3092	70.205790	0.000568	5.675410	0.961440	-0.000114
 639	6.3481e+01	7.2886	70.177531	0.000142	1.418852	0.240360	-0.000028
 640	6.3581e+01	7.2692	70.129085	0.000243	2.432319	0.412046	-0.000049
 641	6.3680e+01	7.2497	70.012008	0.000588	5.878103	0.995778	-0.000118
 642	6.3779e+01	7.2295	69.975674	0.000182	1.824239	0.309034	-0.000037
 643	6.3879e+01	7.2108	69.894931	0.000405	4.053864	0.686743	-0.000081
 644	6.3978e+01	7.1899	69.806114	0.000446	4.459251	0.755418	-0.000089
 645	6.4078e+01	7.1695	69.717297	0.000446	4.459251	0.755418	-0.000089
 646	6.4177e+01	7.1492	69.660777	0.000284	2.837705	0.480720	-0.000057
 647	6.4277e+01	7.1306	69.535626	0.000628	6.283489	1.064452	-0.000126
 648	6.4376e+01	7.1100	69.507366	0.000142	1.418852	0.240360	-0.000028
 649	6.4476e+01	7.0904	69.390289	0.000588	5.878103	0.995778	-0.000118
 650	6.4576e+01	7.0703	69.353955	0.000182	1.824239	0.309034	-0.000037
 651	6.4675e+01	7.0508	69.293398	0.000304	3.040398	0.515057	-0.000061
 652	6.4775e+01	7.0296	69.192469	0.000507	5.067330	0.858429	-0.000101
 653	6.4874e+01	7.0105	69.156135	0.000182	1.824239	0.309034	-0.000037
 654	6.4974e+01	6.9906	69.018873	0.000689	6.891569	1.167463	-0.000138
 655	6.5073e+01	6.9707	68.966390	0.000264	2.635012	0.446383	-0.000053
 656	6.5172e+01	6.9505	68.905833	0.000304	3.040398	0.515057	-0.000061
 657	6.5272e+01	6.9314	68.825090	0.000405	4.053864	0.686743	-0.000081
 658	6.5371e+01	6.9117	68.740310	0.000426	4.256557	0.721080	-0.000085
 659	6.5471e+01	6.8916	68.671679	0.000345	3.445785	0.583732	-0.000069
 660	6.5570e+01	6.8708	68.582862	0.000446	4.459251	0.755418	-0.000089
 661	6.5670e+01	6.8523	68.542491	0.000203	2.026932	0.343372	-0.000041
 662	6.5769e+01	6.8320	68.429451	0.000568	5.675410	0.961440	-0.000114
 663	6.5869e+01	6.8124	68.385042	0.000223	2.229625	0.377709	-0.000045
 664	6.5969e+01	6.7920	68.247780	0.000689	6.891569	1.167463	-0.000138
 665	6.6068e+01	6.7710	68.247780	-0.000000	-0.000000	-0.000000	0.000000
 666	6.6168e+01	6.7519	68.150888	0.000486	4.864637	0.824092	-0.000097
 667	6.6267e+01	6.7321	68.041886	0.000547	5.472717	0.927103	-0.000110
 668	6.6367e+01	6.7115	67.969217	0.000365	3.648478	0.618069	-0.000073
 669	6.6466e+01	6.6918	67.896549	0.000365	3.648478	0.618069	-0.000073
 670	6.6566e+01	6.6734	67.791583	0.000527	5.270023	0.892766	-0.000105
 671	6.6665e+01	6.6515	67.718915	0.000365	3.648478	0.618069	-0.000073
 672	6.6764e+01	6.6319	67.666432	0.000264	2.635012	0.446383	-0.000053
 673	6.6864e+01	6.6125	67.565504	0.000507	5.067330	0.858429	-0.000101
 674	6.6963e+01	6.5925	67.508984	0.000284	2.837705	0.480720	-0.000057
 675	6.7063e+01	6.5713	67.387870	0.000608	6.080796	1.030115	-0.000122
 676	6.7162e+01	6.5520	67.339424	0.000243	2.432319	0.412046	-0.000049
 677	6.7262e+01	6.5325	67.258681	0.000405	4.053864	0.686743	-0.000081
 678	6.7362e+01	6.5128	67.177939	0.000405	4.053864	0.686743	-0.000081
 679	6.7461e+01	6.4916	67.101233	0.000385	3.851171	0.652406	-0.000077
 680	6.7561e+01	6.4730	67.004342	0.000486	4.864637	0.824092	-0.000097
 681	6.7660e+01	6.4523	66.923599	0.000405	4.053864	0.686743	-0.000081
 682	6.7760e+01	6.4330	66.842856	0.000405	4.053864	0.686743	-0.000081
 683	6.7859e+01	6.4132	66.758077	0.000426	4.256557	0.721080	-0.000085
 684	6.7959e+01	6.3931	66.669260	0.000446	4.459251	0.755418	-0.000089
 685	6.8058e+01	6.3731	66.584480	0.000426	4.256557	0.721080	-0.000085
 686	6.8157e+01	6.3523	66.536034	0.000243	2.432319	0.412046	-0.000049
 687	6.8257e+01	6.3331	66.418957	0.000588	5.878103	0.995778	-0.000118
 688	6.8356e+01	6.3137	66.346289	0.000365	3.648478	0.618069	-0.000073
 689	6.8456e+01	6.2948	66.253435	0.000466	4.661944	0.789755	-0.000093
 690	6.8555e+01	6.2731	66.200952	0.000264	2.635012	0.446383	-0.000053
 691	6.8655e+01	6.2543	66.079838	0.000608	6.080796	1.030115	-0.000122
 692	6.8754e+01	6.2347	66.015244	0.000324	3.243091	0.549395	-0.000065
 693	6.8854e+01	6.2154	65.938538	0.000385	3.851171	0.652406	-0.000077
 694	6.8954e+01	6.1938	65.845684	0.000466	4.661944	0.789755	-0.000093
 695	6.9053e+01	6.1761	65.736681	0.000547	5.472717	0.927103	-0.000110
 696	6.9153e+01	6.1548	65.647864	0.000446	4.459251	0.755418	-0.000089
 697	6.9252e+01	6.1350	65.575196	0.000365	3.648478	0.618069	-0.000073
 698	6.9352e+01	6.1150	65.514639	0.000304	3.040398	0.515057	-0.000061
 699	6.9451e+01	6.0952	65.405636	0.000547	5.472717	0.927103	-0.000110
 700	6.9550e+01	6.0752	65.328931	0.000385	3.851171	0.652406	-0.000077
 701	6.9650e+01	6.0552	65.228002	0.000507	5.067330	0.858429	-0.000101
 702	6.9749e+01	6.0354	65.139185	0.000446	4.459251	0.755418	-0.000089
 703	6.9849e+01	6.0151	65.106888	0.000162	1.621546	0.274697	-0.000032
 704	6.9948e+01	5.9954	64.969625	0.000689	6.891569	1.167463	-0.000138
 705	7.0048e+01	5.9753	64.909068	0.000304	3.040398	0.515057	-0.000061
 706	7.0147e+01	5.9555	64.864660	0.000223	2.229625	0.377709	-0.000045
 707	7.0247e+01	5.9354	64.755657	0.000547	5.472717	0.927103	-0.000110
 708	7.0347e+01	5.9167	64.662803	0.000466	4.661944	0.789755	-0.000093
 709	7.0446e+01	5.8959	64.569949	0.000466	4.661944	0.789755	-0.000093
 710	7.0546e+01	5.8750	64.477095	0.000466	4.661944	0.789755	-0.000093
 711	7.0645e+01	5.8559	64.404426	0.000365	3.648478	0.618069	-0.000073
 712	7.0745e+01	5.8350	64.315609	0.000446	4.459251	0.755418	-0.000089
 713	7.0844e+01	5.8152	64.222755	0.000466	4.661944	0.789755	-0.000093
 714	7.0944e+01	5.7960	64.133938	0.000446	4.459251	0.755418	-0.000089
 715	7.1043e+01	5.7764	64.065307	0.000345	3.445785	0.583732	-0.000069
 716	7.1142e+01	5.7558	63.932082	0.000669	6.688876	1.133126	-0.000134
 717	7.1242e+01	5.7354	63.887673	0.000223	2.229625	0.377709	-0.000045
 718	7.1341e+01	5.7171	63.798856	0.000446	4.459251	0.755418	-0.000089
 719	7.1441e+01	5.6960	63.730225	0.000345	3.445785	0.583732	-0.000069
 720	7.1540e+01	5.6756	63.601036	0.000649	6.486183	1.098789	-0.000130
 721	7.1640e+01	5.6570	63.552591	0.000243	2.432319	0.412046	-0.000049
 722	7.1740e+01	5.6371	63.483959	0.000345	3.445785	0.583732	-0.000069
 723	7.1839e+01	5.6173	63.399180	0.000426	4.256557	0.721080	-0.000085
 724	7.1939e+01	5.5961	63.274028	0.000628	6.283489	1.064452	-0.000126
 725	7.2038e+01	5.5756	63.189249	0.000426	4.256557	0.721080	-0.000085
 726	7.2138e+01	5.5571	63.096394	0.000466	4.661944	0.789755	-0.000093
 727	7.2237e+01	5.5378	63.019689	0.000385	3.851171	0.652406	-0.000077
 728	7.2337e+01	5.5172	62.959132	0.000304	3.040398	0.515057	-0.000061
 729	7.2436e+01	5.4969	62.833981	0.000628	6.283489	1.064452	-0.000126
 730	7.2535e+01	5.4772	62.777461	0.000284	2.837705	0.480720	-0.000057
 731	7.2635e+01	5.4565	62.704792	0.000365	3.648478	0.618069	-0.000073
 732	7.2734e+01	5.4375	62.620012	0.000426	4.256557	0.721080	-0.000085
 733	7.2834e+01	5.4174	62.531195	0.000446	4.459251	0.755418	-0.000089
 734	7.2933e+01	5.3970	62.434304	0.000486	4.864637	0.824092	-0.000097
 735	7.3033e+01	5.3774	62.365673	0.000345	3.445785	0.583732	-0.000069
 736	7.3132e+01	5.3603	62.244559	0.000608	6.080796	1.030115	-0.000122
 737	7.3232e+01	5.3381	62.135556	0.000547	5.472717	0.927103	-0.000110
 738	7.3332e+01	5.3176	62.066925	0.000345	3.445785	0.583732	-0.000069
 739	7.3431e+01	5.2979	62.010405	0.000284	2.837705	0.480720	-0.000057
 740	7.3531e+01	5.2784	61.909477	0.000507	5.067330	0.858429	-0.000101
 741	7.3630e+01	5.2577	61.804511	0.000527	5.270023	0.892766	-0.000105
 742	7.3730e+01	5.2381	61.651100	0.000770	7.702342	1.304812	-0.000154
 743	7.3829e+01	5.2181	61.610728	0.000203	2.026932	0.343372	-0.000041
 744	7.3928e+01	5.1978	61.529986	0.000405	4.053864	0.686743	-0.000081
 745	7.4028e+01	5.1793	61.453280	0.000385	3.851171	0.652406	-0.000077
 746	7.4127e+01	5.1585	61.352352	0.000507	5.067330	0.858429	-0.000101
 747	7.4227e+01	5.1393	61.259498	0.000466	4.661944	0.789755	-0.000093
 748	7.4326e+01	5.1194	61.182792	0.000385	3.851171	0.652406	-0.000077
 749	7.4426e+01	5.0988	61.053604	0.000649	6.486183	1.098789	-0.000130
 750	7.4525e+01	5.0782	60.989010	0.000324	3.243091	0.549395	-0.000065
 751	7.4625e+01	5.0586	60.916341	0.000365	3.648478	0.618069	-0.000073
 752	7.4725e+01	5.0387	60.775041	0.000709	7.094262	1.201801	-0.000142
 753	7.4824e+01	5.0191	60.722559	0.000264	2.635012	0.446383	-0.000053
 754	7.4924e+01	4.9993	60.613556	0.000547	5.472717	0.927103	-0.000110
 755	7.5023e+01	4.9789	60.512628	0.000507	5.067330	0.858429	-0.000101
 756	7.5123e+01	4.9593	60.452071	0.000304	3.040398	0.515057	-0.000061
 757	7.5222e+01	4.9395	60.347105	0.000527	5.270023	0.892766	-0.000105
 758	7.5322e+01	4.9192	60.290585	0.000284	2.837705	0.480720	-0.000057
 759	7.5421e+01	4.8991	60.145248	0.000730	7.296956	1.236138	-0.000146
 760	7.5520e+01	4.8800	60.084691	0.000304	3.040398	0.515057	-0.000061
 761	7.5620e+01	4.8595	59.991837	0.000466	4.661944	0.789755	-0.000093
 762	7.5719e+01	4.8402	59.911094	0.000405	4.053864	0.686743	-0.000081
 763	7.5819e+01	4.8199	59.854574	0.000284	2.837705	0.480720	-0.000057
 764	7.5918e+01	4.8000	59.721349	0.000669	6.688876	1.133126	-0.000134
 765	7.6018e+01	4.7802	59.636569	0.000426	4.256557	0.721080	-0.000085
 766	7.6118e+01	4.7594	59.551789	0.000426	4.256557	0.721080	-0.000085
 767	7.6217e+01	4.7398	59.483158	0.000345	3.445785	0.583732	-0.000069
 768	7.6317e+01	4.7201	59.402415	0.000405	4.053864	0.686743	-0.000081
 769	7.6416e+01	4.7008	59.277264	0.000628	6.283489	1.064452	-0.000126
 770	7.6516e+01	4.6803	59.192484	0.000426	4.256557	0.721080	-0.000085
 771	7.6615e+01	4.6602	59.115779	0.000385	3.851171	0.652406	-0.000077
 772	7.6715e+01	4.6397	59.030999	0.000426	4.256557	0.721080	-0.000085
 773	7.6814e+01	4.6209	58.926033	0.000527	5.270023	0.892766	-0.000105
 774	7.6913e+01	4.6008	58.869513	0.000284	2.837705	0.480720	-0.000057
 775	7.7013e+01	4.5806	58.780696	0.000446	4.459251	0.755418	-0.000089
 776	7.7112e+01	4.5609	58.675731	0.000527	5.270023	0.892766	-0.000105
 777	7.7212e+01	4.5396	58.603062	0.000365	3.648478	0.618069	-0.000073
 778	7.7311e+01	4.5208	58.485985	0.000588	5.878103	0.995778	-0.000118
 779	7.7411e+01	4.5005	58.409280	0.000385	3.851171	0.652406	-0.000077
 780	7.7510e+01	4.4810	58.320463	0.000446	4.459251	0.755418	-0.000089
 781	7.7610e+01	4.4614	58.239720	0.000405	4.053864	0.686743	-0.000081
 782	7.7710e+01	4.4415	58.142829	0.000486	4.864637	0.824092	-0.000097
 783	7.7809e+01	4.4208	58.041901	0.000507	5.067330	0.858429	-0.000101
 784	7.7909e+01	4.4016	57.936935	0.000527	5.270023	0.892766	-0.000105
 785	7.8008e+01	4.3823	57.868304	0.000345	3.445785	0.583732	-0.000069
 786	7.8108e+01	4.3615	57.771412	0.000486	4.864637	0.824092	-0.000097
 787	7.8207e+01	4.3425	57.662410	0.000547	5.472717	0.927103	-0.000110
 788	7.8306e+01	4.3212	57.609927	0.000264	2.635012	0.446383	-0.000053
 789	7.8406e+01	4.3018	57.492850	0.000588	5.878103	0.995778	-0.000118
 790	7.8505e+01	4.2825	57.412107	0.000405	4.053864	0.686743	-0.000081
 791	7.8605e+01	4.2624	57.331365	0.000405	4.053864	0.686743	-0.000081
 792	7.8704e+01	4.2419	57.222362	0.000547	5.472717	0.927103	-0.000110
 793	7.8804e+01	4.2219	57.097211	0.000628	6.283489	1.064452	-0.000126
 794	7.8903e+01	4.2035	57.032617	0.000324	3.243091	0.549395	-0.000065
 795	7.9003e+01	4.1816	56.915540	0.000588	5.878103	0.995778	-0.000118
 796	7.9103e+01	4.1647	56.822686	0.000466	4.661944	0.789755	-0.000093
 797	7.9202e+01	4.1431	56.721757	0.000507	5.067330	0.858429	-0.000101
 798	7.9302e+01	4.1231	56.661200	0.000304	3.040398	0.515057	-0.000061
 799	7.9401e+01	4.1027	56.568346	0.000466	4.661944	0.789755	-0.000093
 800	7.9501e+01	4.0826	56.455306	0.000568	5.675410	0.961440	-0.000114
 801	7.9600e+01	4.0633	56.366489	0.000446	4.459251	0.755418	-0.000089
 802	7.9700e+01	4.0423	56.265561	0.000507	5.067330	0.858429	-0.000101
 803	7.9799e+01	4.0234	56.176744	0.000446	4.459251	0.755418	-0.000089
 804	7.9898e+01	4.0028	56.055630	0.000608	6.080796	1.030115	-0.000122
 805	7.9998e+01	3.9824	55.999110	0.000284	2.837705	0.480720	-0.000057
 806	8.0097e+01	3.9635	55.910293	0.000446	4.459251	0.755418	-0.000089
 807	8.0197e+01	3.9429	55.781104	0.000649	6.486183	1.098789	-0.000130
 808	8.0296e+01	3.9233	55.668065	0.000568	5.675410	0.961440	-0.000114
 809	8.0396e+01	3.9031	55.599433	0.000345	3.445785	0.583732	-0.000069
 810	8.0496e+01	3.8831	55.538876	0.000304	3.040398	0.515057	-0.000061
 811	8.0595e+01	3.8636	55.401614	0.000689	6.891569	1.167463	-0.000138
 812	8.0695e+01	3.8441	55.308760	0.000466	4.661944	0.789755	-0.000093
 813	8.0794e+01	3.8244	55.207831	0.000507	5.067330	0.858429	-0.000101
 814	8.0894e+01	3.8039	55.090754	0.000588	5.878103	0.995778	-0.000118
 815	8.0993e+01	3.7835	55.034234	0.000284	2.837705	0.480720	-0.000057
 816	8.1093e+01	3.7648	54.937343	0.000486	4.864637	0.824092	-0.000097
 817	8.1192e+01	3.7453	54.852563	0.000426	4.256557	0.721080	-0.000085
 818	8.1291e+01	3.7248	54.699152	0.000770	7.702342	1.304812	-0.000154
 819	8.1391e+01	3.7049	54.654744	0.000223	2.229625	0.377709	-0.000045
 820	8.1490e+01	3.6849	54.553815	0.000507	5.067330	0.858429	-0.000101
 821	8.1590e+01	3.6649	54.448850	0.000527	5.270023	0.892766	-0.000105
 822	8.1689e+01	3.6452	54.351958	0.000486	4.864637	0.824092	-0.000097
 823	8.1789e+01	3.6250	54.246993	0.000527	5.270023	0.892766	-0.000105
 824	8.1888e+01	3.6050	54.170287	0.000385	3.851171	0.652406	-0.000077
 825	8.1988e+01	3.5850	54.049173	0.000608	6.080796	1.030115	-0.000122
 826	8.2088e+01	3.5646	53.988616	0.000304	3.040398	0.515057	-0.000061
 827	8.2187e+01	3.5447	53.887688	0.000507	5.067330	0.858429	-0.000101
 828	8.2287e+01	3.5256	53.790797	0.000486	4.864637	0.824092	-0.000097
 829	8.2386e+01	3.5040	53.645460	0.000730	7.296956	1.236138	-0.000146
 830	8.2486e+01	3.4856	53.605088	0.000203	2.026932	0.343372	-0.000041
 831	8.2585e+01	3.4653	53.451677	0.000770	7.702342	1.304812	-0.000154
 832	8.2684e+01	3.4451	53.383046	0.000345	3.445785	0.583732	-0.000069
 833	8.2784e+01	3.4254	53.290192	0.000466	4.661944	0.789755	-0.000093
 834	8.2883e+01	3.4056	53.197338	0.000466	4.661944	0.789755	-0.000093
 835	8.2983e+01	3.3862	53.088335	0.000547	5.472717	0.927103	-0.000110
 836	8.3082e+01	3.3659	52.987407	0.000507	5.067330	0.858429	-0.000101
 837	8.3182e+01	3.3461	52.878404	0.000547	5.472717	0.927103	-0.000110
 838	8.3281e+01	3.3259	52.797661	0.000405	4.053864	0.686743	-0.000081
 839	8.3381e+01	3.3071	52.680584	0.000588	5.878103	0.995778	-0.000118
 840	8.3481e+01	3.2859	52.632139	0.000243	2.432319	0.412046	-0.000049
 841	8.3580e+01	3.2651	52.490839	0.000709	7.094262	1.201801	-0.000142
 842	8.3680e+01	3.2455	52.406059	0.000426	4.256557	0.721080	-0.000085
 843	8.3779e+01	3.2258	52.284945	0.000608	6.080796	1.030115	-0.000122
 844	8.3879e+01	3.2065	52.188054	0.000486	4.864637	0.824092	-0.000097
 845	8.3978e+01	3.1860	52.079051	0.000547	5.472717	0.927103	-0.000110
 846	8.4078e+01	3.1660	52.002345	0.000385	3.851171	0.652406	-0.000077
 847	8.4177e+01	3.1470	51.901417	0.000507	5.067330	0.858429	-0.000101
 848	8.4276e+01	3.1266	51.772229	0.000649	6.486183	1.098789	-0.000130
 849	8.4376e+01	3.1078	51.691486	0.000405	4.053864	0.686743	-0.000081
 850	8.4475e+01	3.0871	51.550186	0.000709	7.094262	1.201801	-0.000142
 851	8.4575e+01	3.0671	51.445221	0.000527	5.270023	0.892766	-0.000105
 852	8.4674e+01	3.0484	51.352367	0.000466	4.661944	0.789755	-0.000093
 853	8.4774e+01	3.0270	51.259512	0.000466	4.661944	0.789755	-0.000093
 854	8.4874e+01	3.0069	51.126287	0.000669	6.688876	1.133126	-0.000134
 855	8.4973e+01	2.9865	51.049581	0.000385	3.851171	0.652406	-0.000077
 856	8.5073e+01	2.9677	50.948653	0.000507	5.067330	0.858429	-0.000101
 857	8.5172e+01	2.9475	50.863873	0.000426	4.256557	0.721080	-0.000085
 858	8.5272e+01	2.9272	50.750833	0.000568	5.675410	0.961440	-0.000114
 859	8.5371e+01	2.9069	50.666054	0.000426	4.256557	0.721080	-0.000085
 860	8.5471e+01	2.8873	50.536865	0.000649	6.486183	1.098789	-0.000130
 861	8.5570e+01	2.8672	50.448048	0.000446	4.459251	0.755418	-0.000089
 862	8.5669e+01	2.8470	50.266377	0.000912	9.121194	1.545172	-0.000183
 863	8.5769e+01	2.8272	50.226006	0.000203	2.026932	0.343372	-0.000041
 864	8.5868e+01	2.8075	50.125077	0.000507	5.067330	0.858429	-0.000101
 865	8.5968e+01	2.7882	50.016075	0.000547	5.472717	0.927103	-0.000110
 866	8.6067e+01	2.7689	49.890923	0.000628	6.283489	1.064452	-0.000126
 867	8.6167e+01	2.7474	49.802106	0.000446	4.459251	0.755418	-0.000089
 868	8.6266e+01	2.7285	49.676955	0.000628	6.283489	1.064452	-0.000126
 869	8.6366e+01	2.7084	49.584101	0.000466	4.661944	0.789755	-0.000093
 870	8.6466e+01	2.6890	49.475098	0.000547	5.472717	0.927103	-0.000110
 871	8.6565e+01	2.6685	49.390319	0.000426	4.256557	0.721080	-0.000085
 872	8.6665e+01	2.6482	49.261130	0.000649	6.486183	1.098789	-0.000130
 873	8.6764e+01	2.6284	49.200573	0.000304	3.040398	0.515057	-0.000061
 874	8.6864e+01	2.6088	49.095608	0.000527	5.270023	0.892766	-0.000105
 875	8.6963e+01	2.5883	48.990642	0.000527	5.270023	0.892766	-0.000105
 876	8.7063e+01	2.5694	48.853380	0.000689	6.891569	1.167463	-0.000138
 877	8.7162e+01	2.5498	48.776674	0.000385	3.851171	0.652406	-0.000077
 878	8.7261e+01	2.5283	48.655560	0.000608	6.080796	1.030115	-0.000122
 879	8.7361e+01	2.5096	48.542520	0.000568	5.675410	0.961440	-0.000114
 880	8.7460e+01	2.4893	48.433517	0.000547	5.472717	0.927103	-0.000110
 881	8.7560e+01	2.4693	48.332589	0.000507	5.067330	0.858429	-0.000101
 882	8.7659e+01	2.4497	48.215512	0.000588	5.878103	0.995778	-0.000118
 883	8.7759e+01	2.4293	48.090361	0.000628	6.283489	1.064452	-0.000126
 884	8.7859e+01	2.4100	48.029804	0.000304	3.040398	0.515057	-0.000061
 885	8.7958e+01	2.3893	47.900616	0.000649	6.486183	1.098789	-0.000130
 886	8.8058e+01	2.3694	47.779501	0.000608	6.080796	1.030115	-0.000122
 887	8.8157e+01	2.3501	47.698759	0.000405	4.053864	0.686743	-0.000081
 888	8.8257e+01	2.3301	47.581682	0.000588	5.878103	0.995778	-0.000118
 889	8.8356e+01	2.3103	47.492865	0.000446	4.459251	0.755418	-0.000089
 890	8.8456e+01	2.2894	47.375788	0.000588	5.878103	0.995778	-0.000118
 891	8.8555e+01	2.2708	47.274859	0.000507	5.067330	0.858429	-0.000101
 892	8.8654e+01	2.2507	47.161820	0.000568	5.675410	0.961440	-0.000114
 893	8.8754e+01	2.2305	47.068966	0.000466	4.661944	0.789755	-0.000093
 894	8.8853e+01	2.2094	46.955926	0.000568	5.675410	0.961440	-0.000114
 895	8.8953e+01	2.1902	46.802515	0.000770	7.702342	1.304812	-0.000154
 896	8.9052e+01	2.1706	46.721772	0.000405	4.053864	0.686743	-0.000081
 897	8.9152e+01	2.1513	46.628918	0.000466	4.661944	0.789755	-0.000093
 898	8.9251e+01	2.1310	46.523952	0.000527	5.270023	0.892766	-0.000105
 899	8.9351e+01	2.1113	46.374578	0.000750	7.499649	1.270475	-0.000150
 900	8.9451e+01	2.0904	46.318058	0.000284	2.837705	0.480720	-0.000057
 901	8.9550e+01	2.0714	46.205019	0.000568	5.675410	0.961440	-0.000114
 902	8.9650e+01	2.0509	46.079867	0.000628	6.283489	1.064452	-0.000126
 903	8.9749e+01	2.0318	45.970865	0.000547	5.472717	0.927103	-0.000110
 904	8.9849e+01	2.0111	45.873973	0.000486	4.864637	0.824092	-0.000097
 905	8.9948e+01	1.9907	45.769008	0.000527	5.270023	0.892766	-0.000105
 906	9.0047e+01	1.9713	45.664042	0.000527	5.270023	0.892766	-0.000105
 907	9.0147e+01	1.9514	45.542928	0.000608	6.080796	1.030115	-0.000122
 908	9.0246e+01	1.9314	45.437963	0.000527	5.270023	0.892766	-0.000105
 909	9.0346e+01	1.9114	45.320886	0.000588	5.878103	0.995778	-0.000118
 910	9.0445e+01	1.8912	45.223995	0.000486	4.864637	0.824092	-0.000097
 911	9.0545e+01	1.8706	45.114992	0.000547	5.472717	0.927103	-0.000110
 912	9.0644e+01	1.8526	44.969655	0.000730	7.296956	1.236138	-0.000146
 913	9.0744e+01	1.8320	44.864689	0.000527	5.270023	0.892766	-0.000105
 914	9.0844e+01	1.8117	44.751650	0.000568	5.675410	0.961440	-0.000114
 915	9.0943e+01	1.7913	44.638610	0.000568	5.675410	0.961440	-0.000114
 916	9.1043e+01	1.7718	44.537681	0.000507	5.067330	0.858429	-0.000101
 917	9.1142e+01	1.7510	44.424642	0.000568	5.675410	0.961440	-0.000114
 918	9.1242e+01	1.7329	44.331788	0.000466	4.661944	0.789755	-0.000093
 919	9.1341e+01	1.7124	44.158191	0.000872	8.715808	1.476498	-0.000174
 920	9.1441e+01	1.6927	44.093597	0.000324	3.243091	0.549395	-0.000065
 921	9.1540e+01	1.6729	43.988631	0.000527	5.270023	0.892766	-0.000105
 922	9.1639e+01	1.6525	43.871554	0.000588	5.878103	0.995778	-0.000118
 923	9.1739e+01	1.6321	43.766589	0.000527	5.270023	0.892766	-0.000105
 924	9.1838e+01	1.6117	43.673734	0.000466	4.661944	0.789755	-0.000093
 925	9.1938e+01	1.5936	43.576843	0.000486	4.864637	0.824092	-0.000097
 926	9.2037e+01	1.5729	43.475915	0.000507	5.067330	0.858429	-0.000101
 927	9.2137e+01	1.5520	43.326541	0.000750	7.499649	1.270475	-0.000150
 928	9.2237e+01	1.5332	43.221575	0.000527	5.270023	0.892766	-0.000105
 929	9.2336e+01	1.5128	43.112573	0.000547	5.472717	0.927103	-0.000110
 930	9.2436e+01	1.4935	43.003570	0.000547	5.472717	0.927103	-0.000110
 931	9.2535e+01	1.4727	42.914753	0.000446	4.459251	0.755418	-0.000089
 932	9.2635e+01	1.4527	42.745193	0.000851	8.513115	1.442161	-0.000170
 933	9.2734e+01	1.4342	42.664450	0.000405	4.053864	0.686743	-0.000081
 934	9.2834e+01	1.4131	42.567559	0.000486	4.864637	0.824092	-0.000097
 935	9.2933e+01	1.3939	42.470668	0.000486	4.864637	0.824092	-0.000097
 936	9.3032e+01	1.3737	42.333405	0.000689	6.891569	1.167463	-0.000138
 937	9.3132e+01	1.3544	42.236514	0.000486	4.864637	0.824092	-0.000097
 938	9.3231e+01	1.3338	42.179994	0.000284	2.837705	0.480720	-0.000057
 939	9.3331e+01	1.3144	42.002360	0.000892	8.918501	1.510835	-0.000179
 940	9.3430e+01	1.2939	41.877209	0.000628	6.283489	1.064452	-0.000126
 941	9.3530e+01	1.2739	41.828763	0.000243	2.432319	0.412046	-0.000049
 942	9.3629e+01	1.2537	41.699575	0.000649	6.486183	1.098789	-0.000130
 943	9.3729e+01	1.2351	41.614795	0.000426	4.256557	0.721080	-0.000085
 944	9.3829e+01	1.2144	41.481570	0.000669	6.688876	1.133126	-0.000134
 945	9.3928e+01	1.1948	41.396790	0.000426	4.256557	0.721080	-0.000085
 946	9.4028e+01	1.1754	41.259527	0.000689	6.891569	1.167463	-0.000138
 947	9.4127e+01	1.1547	41.174747	0.000426	4.256557	0.721080	-0.000085
 948	9.4227e+01	1.1357	41.061708	0.000568	5.675410	0.961440	-0.000114
 949	9.4326e+01	1.1149	40.952705	0.000547	5.472717	0.927103	-0.000110
 950	9.4425e+01	1.0958	40.867925	0.000426	4.256557	0.721080	-0.000085
 951	9.4525e+01	1.0757	40.698365	0.000851	8.513115	1.442161	-0.000170
 952	9.4624e+01	1.0554	40.597437	0.000507	5.067330	0.858429	-0.000101
 953	9.4724e+01	1.0348	40.520731	0.000385	3.851171	0.652406	-0.000077
 954	9.4823e+01	1.0145	40.391543	0.000649	6.486183	1.098789	-0.000130
 955	9.4923e+01	0.9951	40.282540	0.000547	5.472717	0.927103	-0.000110
 956	9.5022e+01	0.9747	40.173538	0.000547	5.472717	0.927103	-0.000110
 957	9.5122e+01	0.9546	40.044349	0.000649	6.486183	1.098789	-0.000130
 958	9.5222e+01	0.9355	39.915161	0.000649	6.486183	1.098789	-0.000130
 959	9.5321e+01	0.9163	39.822307	0.000466	4.661944	0.789755	-0.000093
 960	9.5421e+01	0.8958	39.701193	0.000608	6.080796	1.030115	-0.000122
 961	9.5520e+01	0.8761	39.608339	0.000466	4.661944	0.789755	-0.000093
 962	9.5620e+01	0.8559	39.458965	0.000750	7.499649	1.270475	-0.000150
 963	9.5719e+01	0.8355	39.378222	0.000405	4.053864	0.686743	-0.000081
 964	9.5819e+01	0.8145	39.249034	0.000649	6.486183	1.098789	-0.000130
 965	9.5918e+01	0.7969	39.148105	0.000507	5.067330	0.858429	-0.000101
 966	9.6017e+01	0.7751	39.022954	0.000628	6.283489	1.064452	-0.000126
 967	9.6117e+01	0.7566	38.909914	0.000568	5.675410	0.961440	-0.000114
 968	9.6216e+01	0.7356	38.825134	0.000426	4.256557	0.721080	-0.000085
 969	9.6316e+01	0.7163	38.683835	0.000709	7.094262	1.201801	-0.000142
 970	9.6415e+01	0.6969	38.542535	0.000709	7.094262	1.201801	-0.000142
 971	9.6515e+01	0.6773	38.502164	0.000203	2.026932	0.343372	-0.000041
 972	9.6615e+01	0.6567	38.368938	0.000669	6.688876	1.133126	-0.000134
 973	9.6714e+01	0.6363	38.239750	0.000649	6.486183	1.098789	-0.000130
 974	9.6814e+01	0.6156	38.130747	0.000547	5.472717	0.927103	-0.000110
 975	9.6913e+01	0.5962	37.973299	0.000791	7.905035	1.339149	-0.000158
 976	9.7013e+01	0.5768	37.872370	0.000507	5.067330	0.858429	-0.000101
 977	9.7112e+01	0.5572	37.759331	0.000568	5.675410	0.961440	-0.000114
 978	9.7212e+01	0.5376	37.654365	0.000527	5.270023	0.892766	-0.000105
 979	9.7311e+01	0.5164	37.569585	0.000426	4.256557	0.721080	-0.000085
 980	9.7410e+01	0.4965	37.456545	0.000568	5.675410	0.961440	-0.000114
 981	9.7510e+01	0.4780	37.327357	0.000649	6.486183	1.098789	-0.000130
 982	9.7609e+01	0.4575	37.238540	0.000446	4.459251	0.755418	-0.000089
 983	9.7709e+01	0.4371	37.105315	0.000669	6.688876	1.133126	-0.000134
 984	9.7808e+01	0.4173	36.980163	0.000628	6.283489	1.064452	-0.000126
 985	9.7908e+01	0.3981	36.911532	0.000345	3.445785	0.583732	-0.000069
 986	9.8007e+01	0.3767	36.725824	0.000932	9.323888	1.579509	-0.000187
 987	9.8107e+01	0.3580	36.604710	0.000608	6.080796	1.030115	-0.000122
 988	9.8207e+01	0.3380	36.532041	0.000365	3.648478	0.618069	-0.000073
 989	9.8306e+01	0.3173	36.390742	0.000709	7.094262	1.201801	-0.000142
 990	9.8406e+01	0.2979	36.289813	0.000507	5.067330	0.858429	-0.000101
 991	9.8505e+01	0.2781	36.217145	0.000365	3.648478	0.618069	-0.000073
 992	9.8605e+01	0.2575	36.047585	0.000851	8.513115	1.442161	-0.000170
 993	9.8704e+01	0.2388	35.934545	0.000568	5.675410	0.961440	-0.000114
 994	9.8803e+01	0.2171	35.841691	0.000466	4.661944	0.789755	-0.000093
 995	9.8903e+01	0.1983	35.716540	0.000628	6.283489	1.064452	-0.000126
 996	9.9002e+01	0.1782	35.599463	0.000588	5.878103	0.995778	-0.000118
 997	9.9102e+01	0.1593	35.502572	0.000486	4.864637	0.824092	-0.000097
 998	9.9201e+01	0.1386	35.341086	0.000811	8.107728	1.373486	-0.000162
 999	9.9301e+01	0.1187	35.248232	0.000466	4.661944	0.789755	-0.000093
1000	9.9400e+01	0.0983	35.139229	0.000547	5.472717	0.927103	-0.000110
1001	9.9500e+01	0.0790	35.050412	0.000446	4.459251	0.755418	-0.000089
1002	9.9600e+01	0.0586	34.884890	0.000831	8.310422	1.407824	-0.000166
1003	9.9699e+01	0.0394	34.800110	0.000426	4.256557	0.721080	-0.000085
1004	9.9799e+01	0.0185	34.674959	0.000628	6.283489	1.064452	-0.000126
1005	9.9898e+01	-0.0005	34.574030	0.000507	5.067330	0.858429	-0.000101
1006	9.9998e+01	-0.0198	34.448879	0.000628	6.283489	1.064452	-0.000126
1007	1.0010e+02	-0.0396	34.356025	0.000466	4.661944	0.789755	-0.000093
1008	1.0020e+02	-0.0581	34.170317	0.000932	9.323888	1.579509	-0.000187
1009	1.0030e+02	-0.0785	34.117834	0.000264	2.635012	0.446383	-0.000053
1010	1.0040e+02	-0.0989	33.972497	0.000730	7.296956	1.236138	-0.000146
1011	1.0050e+02	-0.1188	33.851383	0.000608	6.080796	1.030115	-0.000122
1012	1.0059e+02	-0.1391	33.742380	0.000547	5.472717	0.927103	-0.000110
1013	1.0069e+02	-0.1591	33.605118	0.000689	6.891569	1.167463	-0.000138
1014	1.0079e+02	-0.1788	33.516301	0.000446	4.459251	0.755418	-0.000089
1015	1.0089e+02	-0.1981	33.375001	0.000709	7.094262	1.201801	-0.000142
1016	1.0099e+02	-0.2184	33.274073	0.000507	5.067330	0.858429	-0.000101
1017	1.0109e+02	-0.2384	33.152959	0.000608	6.080796	1.030115	-0.000122
1018	1.0119e+02	-0.2584	33.015696	0.000689	6.891569	1.167463	-0.000138
1019	1.0129e+02	-0.2779	32.894582	0.000608	6.080796	1.030115	-0.000122
1020	1.0139e+02	-0.2987	32.765394	0.000649	6.486183	1.098789	-0.000130
1021	1.0149e+02	-0.3180	32.632168	0.000669	6.688876	1.133126	-0.000134
1022	1.0159e+02	-0.3378	32.523166	0.000547	5.472717	0.927103	-0.000110
1023	1.0169e+02	-0.3586	32.373791	0.000750	7.499649	1.270475	-0.000150
1024	1.0179e+02	-0.3772	32.293049	0.000405	4.053864	0.686743	-0.000081
1025	1.0189e+02	-0.3967	32.151749	0.000709	7.094262	1.201801	-0.000142
1026	1.0199e+02	-0.4185	32.046783	0.000527	5.270023	0.892766	-0.000105
1027	1.0209e+02	-0.4381	31.925669	0.000608	6.080796	1.030115	-0.000122
1028	1.0219e+02	-0.4572	31.808592	0.000588	5.878103	0.995778	-0.000118
1029	1.0229e+02	-0.4775	31.659218	0.000750	7.499649	1.270475	-0.000150
1030	1.0239e+02	-0.4972	31.517919	0.000709	7.094262	1.201801	-0.000142
1031	1.0248e+02	-0.5173	31.421027	0.000486	4.864637	0.824092	-0.000097
1032	1.0258e+02	-0.5383	31.295876	0.000628	6.283489	1.064452	-0.000126
1033	1.0268e+02	-0.5578	31.186874	0.000547	5.472717	0.927103	-0.000110
1034	1.0278e+02	-0.5771	31.073834	0.000568	5.675410	0.961440	-0.000114
1035	1.0288e+02	-0.5969	30.936571	0.000689	6.891569	1.167463	-0.000138
1036	1.0298e+02	-0.6168	30.819494	0.000588	5.878103	0.995778	-0.000118
1037	1.0308e+02	-0.6360	30.698380	0.000608	6.080796	1.030115	-0.000122
1038	1.0318e+02	-0.6573	30.597452	0.000507	5.067330	0.858429	-0.000101
1039	1.0328e+02	-0.6770	30.427892	0.000851	8.513115	1.442161	-0.000170
1040	1.0338e+02	-0.6969	30.322927	0.000527	5.270023	0.892766	-0.000105
1041	1.0348e+02	-0.7170	30.226035	0.000486	4.864637	0.824092	-0.000097
1042	1.0358e+02	-0.7372	30.108958	0.000588	5.878103	0.995778	-0.000118
1043	1.0368e+02	-0.7562	29.979770	0.000649	6.486183	1.098789	-0.000130
1044	1.0378e+02	-0.7772	29.858656	0.000608	6.080796	1.030115	-0.000122
1045	1.0388e+02	-0.7970	29.737542	0.000608	6.080796	1.030115	-0.000122
1046	1.0398e+02	-0.8163	29.608354	0.000649	6.486183	1.098789	-0.000130
1047	1.0408e+02	-0.8362	29.499351	0.000547	5.472717	0.927103	-0.000110
1048	1.0418e+02	-0.8566	29.370162	0.000649	6.486183	1.098789	-0.000130
1049	1.0428e+02	-0.8762	29.232900	0.000689	6.891569	1.167463	-0.000138
1050	1.0438e+02	-0.8957	29.140046	0.000466	4.661944	0.789755	-0.000093
1051	1.0447e+02	-0.9166	28.990672	0.000750	7.499649	1.270475	-0.000150
1052	1.0457e+02	-0.9354	28.885706	0.000527	5.270023	0.892766	-0.000105
1053	1.0467e+02	-0.9557	28.776704	0.000547	5.472717	0.927103	-0.000110
1054	1.0477e+02	-0.9757	28.655589	0.000608	6.080796	1.030115	-0.000122
1055	1.0487e+02	-0.9953	28.554661	0.000507	5.067330	0.858429	-0.000101
1056	1.0497e+02	-1.0148	28.389139	0.000831	8.310422	1.407824	-0.000166
1057	1.0507e+02	-1.0350	28.320507	0.000345	3.445785	0.583732	-0.000069
1058	1.0517e+02	-1.0555	28.167096	0.000770	7.702342	1.304812	-0.000154
1059	1.0527e+02	-1.0749	28.045982	0.000608	6.080796	1.030115	-0.000122
1060	1.0537e+02	-1.0962	27.884497	0.000811	8.107728	1.373486	-0.000162
1061	1.0547e+02	-1.1147	27.795680	0.000446	4.459251	0.755418	-0.000089
1062	1.0557e+02	-1.1351	27.670528	0.000628	6.283489	1.064452	-0.000126
1063	1.0567e+02	-1.1552	27.529229	0.000709	7.094262	1.201801	-0.000142
1064	1.0577e+02	-1.1752	27.424263	0.000527	5.270023	0.892766	-0.000105
1065	1.0587e+02	-1.1906	27.291038	0.000669	6.688876	1.133126	-0.000134
1066	1.0597e+02	-1.2143	27.186072	0.000527	5.270023	0.892766	-0.000105
1067	1.0607e+02	-1.2345	27.073032	0.000568	5.675410	0.961440	-0.000114
1068	1.0617e+02	-1.2528	26.959992	0.000568	5.675410	0.961440	-0.000114
1069	1.0627e+02	-1.2738	26.855027	0.000527	5.270023	0.892766	-0.000105
1070	1.0637e+02	-1.2947	26.685467	0.000851	8.513115	1.442161	-0.000170
1071	1.0647e+02	-1.3147	26.580502	0.000527	5.270023	0.892766	-0.000105
1072	1.0656e+02	-1.3338	26.475536	0.000527	5.270023	0.892766	-0.000105
1073	1.0666e+02	-1.3538	26.285791	0.000953	9.526581	1.613846	-0.000191
1074	1.0676e+02	-1.3740	26.180825	0.000527	5.270023	0.892766	-0.000105
1075	1.0686e+02	-1.3941	26.031451	0.000750	7.499649	1.270475	-0.000150
1076	1.0696e+02	-1.4136	25.974931	0.000284	2.837705	0.480720	-0.000057
1077	1.0706e+02	-1.4327	25.821520	0.000770	7.702342	1.304812	-0.000154
1078	1.0716e+02	-1.4529	25.680220	0.000709	7.094262	1.201801	-0.000142
1079	1.0726e+02	-1.4732	25.583329	0.000486	4.864637	0.824092	-0.000097
1080	1.0736e+02	-1.4929	25.442029	0.000709	7.094262	1.201801	-0.000142
1081	1.0746e+02	-1.5135	25.345138	0.000486	4.864637	0.824092	-0.000097
1082	1.0756e+02	-1.5337	25.215950	0.000649	6.486183	1.098789	-0.000130
1083	1.0766e+02	-1.5532	25.098873	0.000588	5.878103	0.995778	-0.000118
1084	1.0776e+02	-1.5730	24.969685	0.000649	6.486183	1.098789	-0.000130
1085	1.0786e+02	-1.5930	24.868756	0.000507	5.067330	0.858429	-0.000101
1086	1.0796e+02	-1.6142	24.703234	0.000831	8.310422	1.407824	-0.000166
1087	1.0806e+02	-1.6328	24.590194	0.000568	5.675410	0.961440	-0.000114
1088	1.0816e+02	-1.6533	24.469080	0.000608	6.080796	1.030115	-0.000122
1089	1.0826e+02	-1.6721	24.352003	0.000588	5.878103	0.995778	-0.000118
1090	1.0836e+02	-1.6930	24.247037	0.000527	5.270023	0.892766	-0.000105
1091	1.0845e+02	-1.7133	24.105737	0.000709	7.094262	1.201801	-0.000142
1092	1.0855e+02	-1.7329	24.000772	0.000527	5.270023	0.892766	-0.000105
1093	1.0865e+02	-1.7520	23.883695	0.000588	5.878103	0.995778	-0.000118
1094	1.0875e+02	-1.7725	23.746432	0.000689	6.891569	1.167463	-0.000138
1095	1.0885e+02	-1.7924	23.609170	0.000689	6.891569	1.167463	-0.000138
1096	1.0895e+02	-1.8124	23.520353	0.000446	4.459251	0.755418	-0.000089
1097	1.0905e+02	-1.8328	23.391164	0.000649	6.486183	1.098789	-0.000130
1098	1.0915e+02	-1.8523	23.261976	0.000649	6.486183	1.098789	-0.000130
1099	1.0925e+02	-1.8726	23.169122	0.000466	4.661944	0.789755	-0.000093
1100	1.0935e+02	-1.8932	23.003599	0.000831	8.310422	1.407824	-0.000166
1101	1.0945e+02	-1.9128	22.874411	0.000649	6.486183	1.098789	-0.000130
1102	1.0955e+02	-1.9318	22.773483	0.000507	5.067330	0.858429	-0.000101
1103	1.0965e+02	-1.9521	22.624109	0.000750	7.499649	1.270475	-0.000150
1104	1.0975e+02	-1.9716	22.563552	0.000304	3.040398	0.515057	-0.000061
1105	1.0985e+02	-1.9911	22.422252	0.000709	7.094262	1.201801	-0.000142
1106	1.0995e+02	-2.0120	22.276915	0.000730	7.296956	1.236138	-0.000146
1107	1.1005e+02	-2.0317	22.163875	0.000568	5.675410	0.961440	-0.000114
1108	1.1015e+02	-2.0518	22.066984	0.000486	4.864637	0.824092	-0.000097
1109	1.1025e+02	-2.0711	21.949907	0.000588	5.878103	0.995778	-0.000118
1110	1.1035e+02	-2.0912	21.836867	0.000568	5.675410	0.961440	-0.000114
1111	1.1044e+02	-2.1109	21.727865	0.000547	5.472717	0.927103	-0.000110
1112	1.1054e+02	-2.1307	21.582528	0.000730	7.296956	1.236138	-0.000146
1113	1.1064e+02	-2.1516	21.445265	0.000689	6.891569	1.167463	-0.000138
1114	1.1074e+02	-2.1717	21.336262	0.000547	5.472717	0.927103	-0.000110
1115	1.1084e+02	-2.1911	21.215148	0.000608	6.080796	1.030115	-0.000122
1116	1.1094e+02	-2.2108	21.134406	0.000405	4.053864	0.686743	-0.000081
1117	1.1104e+02	-2.2311	21.001180	0.000669	6.688876	1.133126	-0.000134
1118	1.1114e+02	-2.2500	20.859880	0.000709	7.094262	1.201801	-0.000142
1119	1.1124e+02	-2.2705	20.779138	0.000405	4.053864	0.686743	-0.000081
1120	1.1134e+02	-2.2903	20.633801	0.000730	7.296956	1.236138	-0.000146
1121	1.1144e+02	-2.3109	20.536909	0.000486	4.864637	0.824092	-0.000097
1122	1.1154e+02	-2.3306	20.407721	0.000649	6.486183	1.098789	-0.000130
1123	1.1164e+02	-2.3508	20.298718	0.000547	5.472717	0.927103	-0.000110
1124	1.1174e+02	-2.3702	20.141270	0.000791	7.905035	1.339149	-0.000158
1125	1.1184e+02	-2.3905	20.060527	0.000405	4.053864	0.686743	-0.000081
1126	1.1194e+02	-2.4104	19.907116	0.000770	7.702342	1.304812	-0.000154
1127	1.1204e+02	-2.4301	19.786002	0.000608	6.080796	1.030115	-0.000122
1128	1.1214e+02	-2.4500	19.664888	0.000608	6.080796	1.030115	-0.000122
1129	1.1224e+02	-2.4697	19.551848	0.000568	5.675410	0.961440	-0.000114
1130	1.1234e+02	-2.4904	19.471106	0.000405	4.053864	0.686743	-0.000081
1131	1.1244e+02	-2.5103	19.333843	0.000689	6.891569	1.167463	-0.000138
1132	1.1253e+02	-2.5293	19.212729	0.000608	6.080796	1.030115	-0.000122
1133	1.1263e+02	-2.5493	19.055281	0.000791	7.905035	1.339149	-0.000158
1134	1.1273e+02	-2.5694	18.950315	0.000527	5.270023	0.892766	-0.000105
1135	1.1283e+02	-2.5887	18.861498	0.000446	4.459251	0.755418	-0.000089
1136	1.1293e+02	-2.6096	18.724236	0.000689	6.891569	1.167463	-0.000138
1137	1.1303e+02	-2.6292	18.607159	0.000588	5.878103	0.995778	-0.000118
1138	1.1313e+02	-2.6480	18.465859	0.000709	7.094262	1.201801	-0.000142
1139	1.1323e+02	-2.6684	18.364930	0.000507	5.067330	0.858429	-0.000101
1140	1.1333e+02	-2.6880	18.239779	0.000628	6.283489	1.064452	-0.000126
1141	1.1343e+02	-2.7087	18.130777	0.000547	5.472717	0.927103	-0.000110
1142	1.1353e+02	-2.7283	18.009663	0.000608	6.080796	1.030115	-0.000122
1143	1.1363e+02	-2.7476	17.884511	0.000628	6.283489	1.064452	-0.000126
1144	1.1373e+02	-2.7688	17.763397	0.000608	6.080796	1.030115	-0.000122
1145	1.1383e+02	-2.7885	17.646320	0.000588	5.878103	0.995778	-0.000118
1146	1.1393e+02	-2.8087	17.509058	0.000689	6.891569	1.167463	-0.000138
1147	1.1403e+02	-2.8278	17.387944	0.000608	6.080796	1.030115	-0.000122
1148	1.1413e+02	-2.8485	17.270867	0.000588	5.878103	0.995778	-0.000118
1149	1.1423e+02	-2.8680	17.190124	0.000405	4.053864	0.686743	-0.000081
1150	1.1433e+02	-2.8882	17.056898	0.000669	6.688876	1.133126	-0.000134
1151	1.1442e+02	-2.9079	16.960007	0.000486	4.864637	0.824092	-0.000097
1152	1.1452e+02	-2.9275	16.826782	0.000669	6.688876	1.133126	-0.000134
1153	1.1462e+02	-2.9466	16.725853	0.000507	5.067330	0.858429	-0.000101
1154	1.1472e+02	-2.9672	16.600702	0.000628	6.283489	1.064452	-0.000126
1155	1.1482e+02	-2.9873	16.491699	0.000547	5.472717	0.927103	-0.000110
1156	1.1492e+02	-3.0078	16.310028	0.000912	9.121194	1.545172	-0.000183
1157	1.1502e+02	-3.0273	16.221211	0.000446	4.459251	0.755418	-0.000089
1158	1.1512e+02	-3.0481	16.124320	0.000486	4.864637	0.824092	-0.000097
1159	1.1522e+02	-3.0672	15.974946	0.000750	7.499649	1.270475	-0.000150
1160	1.1532e+02	-3.0875	15.890166	0.000426	4.256557	0.721080	-0.000085
1161	1.1542e+02	-3.1062	15.752904	0.000689	6.891569	1.167463	-0.000138
1162	1.1552e+02	-3.1256	15.619678	0.000669	6.688876	1.133126	-0.000134
1163	1.1562e+02	-3.1467	15.502601	0.000588	5.878103	0.995778	-0.000118
1164	1.1572e+02	-3.1668	15.385524	0.000588	5.878103	0.995778	-0.000118
1165	1.1582e+02	-3.1871	15.296707	0.000446	4.459251	0.755418	-0.000089
1166	1.1592e+02	-3.2065	15.195779	0.000507	5.067330	0.858429	-0.000101
1167	1.1602e+02	-3.2275	15.050442	0.000730	7.296956	1.236138	-0.000146
1168	1.1612e+02	-3.2469	14.937402	0.000568	5.675410	0.961440	-0.000114
1169	1.1622e+02	-3.2665	14.840511	0.000486	4.864637	0.824092	-0.000097
1170	1.1632e+02	-3.2854	14.695174	0.000730	7.296956	1.236138	-0.000146
1171	1.1642e+02	-3.3060	14.606357	0.000446	4.459251	0.755418	-0.000089
1172	1.1651e+02	-3.3260	14.489280	0.000588	5.878103	0.995778	-0.000118
1173	1.1661e+02	-3.3470	14.356055	0.000669	6.688876	1.133126	-0.000134
1174	1.1671e+02	-3.3667	14.234941	0.000608	6.080796	1.030115	-0.000122
1175	1.1681e+02	-3.3867	14.134012	0.000507	5.067330	0.858429	-0.000101
1176	1.1691e+02	-3.4056	14.016935	0.000588	5.878103	0.995778	-0.000118
1177	1.1701e+02	-3.4262	13.907933	0.000547	5.472717	0.927103	-0.000110
1178	1.1711e+02	-3.4467	13.742410	0.000831	8.310422	1.407824	-0.000166
1179	1.1721e+02	-3.4660	13.625333	0.000588	5.878103	0.995778	-0.000118
1180	1.1731e+02	-3.4858	13.552665	0.000365	3.648478	0.618069	-0.000073
1181	1.1741e+02	-3.5056	13.427513	0.000628	6.283489	1.064452	-0.000126
1182	1.1751e+02	-3.5266	13.266028	0.000811	8.107728	1.373486	-0.000162
1183	1.1761e+02	-3.5461	13.152988	0.000568	5.675410	0.961440	-0.000114
1184	1.1771e+02	-3.5654	13.035911	0.000588	5.878103	0.995778	-0.000118
1185	1.1781e+02	-3.5854	12.934983	0.000507	5.067330	0.858429	-0.000101
1186	1.1791e+02	-3.6060	12.801757	0.000669	6.688876	1.133126	-0.000134
1187	1.1801e+02	-3.6255	12.676606	0.000628	6.283489	1.064452	-0.000126
1188	1.1811e+02	-3.6450	12.595864	0.000405	4.053864	0.686743	-0.000081
1189	1.1821e+02	-3.6641	12.466675	0.000649	6.486183	1.098789	-0.000130
1190	1.1831e+02	-3.6852	12.317301	0.000750	7.499649	1.270475	-0.000150
1191	1.1841e+02	-3.7042	12.212336	0.000527	5.270023	0.892766	-0.000105
1192	1.1850e+02	-3.7241	12.115444	0.000486	4.864637	0.824092	-0.000097
1193	1.1860e+02	-3.7449	12.018553	0.000486	4.864637	0.824092	-0.000097
1194	1.1870e+02	-3.7650	11.881290	0.000689	6.891569	1.167463	-0.000138
1195	1.1880e+02	-3.7852	11.776325	0.000527	5.270023	0.892766	-0.000105
1196	1.1890e+02	-3.8043	11.630988	0.000730	7.296956	1.236138	-0.000146
1197	1.1900e+02	-3.8245	11.497763	0.000669	6.688876	1.133126	-0.000134
1198	1.1910e+02	-3.8437	11.368574	0.000649	6.486183	1.098789	-0.000130
1199	1.1920e+02	-3.8643	11.271683	0.000486	4.864637	0.824092	-0.000097
1200	1.1930e+02	-3.8834	11.130383	0.000709	7.094262	1.201801	-0.000142
1201	1.1940e+02	-3.9037	11.033492	0.000486	4.864637	0.824092	-0.000097
1202	1.1950e+02	-3.9237	10.908341	0.000628	6.283489	1.064452	-0.000126
1203	1.1960e+02	-3.9440	10.815487	0.000466	4.661944	0.789755	-0.000093
1204	1.1970e+02	-3.9646	10.670150	0.000730	7.296956	1.236138	-0.000146
1205	1.1980e+02	-3.9833	10.532887	0.000689	6.891569	1.167463	-0.000138
1206	1.1990e+02	-4.0035	10.423884	0.000547	5.472717	0.927103	-0.000110
1207	1.2000e+02	-4.0240	10.318919	0.000527	5.270023	0.892766	-0.000105
1208	1.2010e+02	-4.0439	10.230102	0.000446	4.459251	0.755418	-0.000089
1209	1.2020e+02	-4.0621	10.104951	0.000628	6.283489	1.064452	-0.000126
1210	1.2030e+02	-4.0838	10.016134	0.000446	4.459251	0.755418	-0.000089
1211	1.2039e+02	-4.1031	9.846574	0.000851	8.513115	1.442161	-0.000170
1212	1.2049e+02	-4.1232	9.721423	0.000628	6.283489	1.064452	-0.000126
1213	1.2059e+02	-4.1434	9.628569	0.000466	4.661944	0.789755	-0.000093
1214	1.2069e+02	-4.1626	9.483232	0.000730	7.296956	1.236138	-0.000146
1215	1.2079e+02	-4.1827	9.358081	0.000628	6.283489	1.064452	-0.000126
1216	1.2089e+02	-4.2020	9.249078	0.000547	5.472717	0.927103	-0.000110
1217	1.2099e+02	-4.2220	9.136038	0.000568	5.675410	0.961440	-0.000114
1218	1.2109e+02	-4.2422	8.982627	0.000770	7.702342	1.304812	-0.000154
1219	1.2119e+02	-4.2621	8.881699	0.000507	5.067330	0.858429	-0.000101
1220	1.2129e+02	-4.2827	8.788845	0.000466	4.661944	0.789755	-0.000093
1221	1.2139e+02	-4.3026	8.671768	0.000588	5.878103	0.995778	-0.000118
1222	1.2149e+02	-4.3219	8.586988	0.000426	4.256557	0.721080	-0.000085
1223	1.2159e+02	-4.3427	8.437614	0.000750	7.499649	1.270475	-0.000150
1224	1.2169e+02	-4.3619	8.300351	0.000689	6.891569	1.167463	-0.000138
1225	1.2179e+02	-4.3834	8.163088	0.000689	6.891569	1.167463	-0.000138
1226	1.2189e+02	-4.4017	8.046012	0.000588	5.878103	0.995778	-0.000118
1227	1.2199e+02	-4.4225	7.961232	0.000426	4.256557	0.721080	-0.000085
1228	1.2209e+02	-4.4417	7.844155	0.000588	5.878103	0.995778	-0.000118
1229	1.2219e+02	-4.4614	7.735152	0.000547	5.472717	0.927103	-0.000110
1230	1.2229e+02	-4.4824	7.630187	0.000527	5.270023	0.892766	-0.000105
1231	1.2239e+02	-4.5020	7.472738	0.000791	7.905035	1.339149	-0.000158
1232	1.2248e+02	-4.5214	7.347587	0.000628	6.283489	1.064452	-0.000126
1233	1.2258e+02	-4.5409	7.246659	0.000507	5.067330	0.858429	-0.000101
1234	1.2268e+02	-4.5612	7.109396	0.000689	6.891569	1.167463	-0.000138
1235	1.2278e+02	-4.5811	6.984245	0.000628	6.283489	1.064452	-0.000126
1236	1.2288e+02	-4.6022	6.887354	0.000486	4.864637	0.824092	-0.000097
1237	1.2298e+02	-4.6207	6.725868	0.000811	8.107728	1.373486	-0.000162
1238	1.2308e+02	-4.6418	6.592643	0.000669	6.688876	1.133126	-0.000134
1239	1.2318e+02	-4.6608	6.515937	0.000385	3.851171	0.652406	-0.000077
1240	1.2328e+02	-4.6806	6.398860	0.000588	5.878103	0.995778	-0.000118
1241	1.2338e+02	-4.7008	6.217189	0.000912	9.121194	1.545172	-0.000183
1242	1.2348e+02	-4.7211	6.092038	0.000628	6.283489	1.064452	-0.000126
1243	1.2358e+02	-4.7406	5.991109	0.000507	5.067330	0.858429	-0.000101
1244	1.2368e+02	-4.7606	5.886144	0.000527	5.270023	0.892766	-0.000105
1245	1.2378e+02	-4.7803	5.769067	0.000588	5.878103	0.995778	-0.000118
1246	1.2388e+02	-4.8005	5.627767	0.000709	7.094262	1.201801	-0.000142
1247	1.2398e+02	-4.8204	5.490505	0.000689	6.891569	1.167463	-0.000138
1248	1.2408e+02	-4.8405	5.369391	0.000608	6.080796	1.030115	-0.000122
1249	1.2418e+02	-4.8608	5.236165	0.000669	6.688876	1.133126	-0.000134
1250	1.2428e+02	-4.8796	5.139274	0.000486	4.864637	0.824092	-0.000097
1251	1.2438e+02	-4.9010	5.026234	0.000568	5.675410	0.961440	-0.000114
1252	1.2447e+02	-4.9200	4.884934	0.000709	7.094262	1.201801	-0.000142
1253	1.2457e+02	-4.9396	4.751709	0.000669	6.688876	1.133126	-0.000134
1254	1.2467e+02	-4.9609	4.638669	0.000568	5.675410	0.961440	-0.000114
1255	1.2477e+02	-4.9803	4.549852	0.000446	4.459251	0.755418	-0.000089
1256	1.2487e+02	-5.0005	4.380292	0.000851	8.513115	1.442161	-0.000170
1257	1.2497e+02	-5.0200	4.267252	0.000568	5.675410	0.961440	-0.000114
1258	1.2507e+02	-5.0397	4.134027	0.000669	6.688876	1.133126	-0.000134
1259	1.2517e+02	-5.0600	3.968504	0.000831	8.310422	1.407824	-0.000166
1260	1.2527e+02	-5.0793	3.843353	0.000628	6.283489	1.064452	-0.000126
1261	1.2537e+02	-5.0983	3.746462	0.000486	4.864637	0.824092	-0.000097
1262	1.2547e+02	-5.1196	3.589014	0.000791	7.905035	1.339149	-0.000158
1263	1.2557e+02	-5.1395	3.492122	0.000486	4.864637	0.824092	-0.000097
1264	1.2567e+02	-5.1593	3.334674	0.000791	7.905035	1.339149	-0.000158
1265	1.2577e+02	-5.1787	3.229709	0.000527	5.270023	0.892766	-0.000105
1266	1.2587e+02	-5.1993	3.112632	0.000588	5.878103	0.995778	-0.000118
1267	1.2597e+02	-5.2187	2.991518	0.000608	6.080796	1.030115	-0.000122
1268	1.2607e+02	-5.2394	2.858292	0.000669	6.688876	1.133126	-0.000134
1269	1.2617e+02	-5.2588	2.721029	0.000689	6.891569	1.167463	-0.000138
1270	1.2627e+02	-5.2790	2.599915	0.000608	6.080796	1.030115	-0.000122
1271	1.2636e+02	-5.2982	2.482838	0.000588	5.878103	0.995778	-0.000118
1272	1.2646e+02	-5.3178	2.369799	0.000568	5.675410	0.961440	-0.000114
1273	1.2656e+02	-5.3387	2.212350	0.000791	7.905035	1.339149	-0.000158
1274	1.2666e+02	-5.3588	2.131608	0.000405	4.053864	0.686743	-0.000081
1275	1.2676e+02	-5.3777	1.941862	0.000953	9.526581	1.613846	-0.000191
1276	1.2686e+02	-5.3989	1.808637	0.000669	6.688876	1.133126	-0.000134
1277	1.2696e+02	-5.4192	1.687523	0.000608	6.080796	1.030115	-0.000122
1278	1.2706e+02	-5.4386	1.566409	0.000608	6.080796	1.030115	-0.000122
1279	1.2716e+02	-5.4570	1.429146	0.000689	6.891569	1.167463	-0.000138
1280	1.2726e+02	-5.4772	1.287846	0.000709	7.094262	1.201801	-0.000142
1281	1.2736e+02	-5.4977	1.158658	0.000649	6.486183	1.098789	-0.000130
1282	1.2746e+02	-5.5167	1.009284	0.000750	7.499649	1.270475	-0.000150
1283	1.2756e+02	-5.5377	0.884133	0.000628	6.283489	1.064452	-0.000126
1284	1.2766e+02	-5.5573	0.754944	0.000649	6.486183	1.098789	-0.000130
1285	1.2776e+02	-5.5785	0.621719	0.000669	6.688876	1.133126	-0.000134
1286	1.2786e+02	-5.5971	0.484456	0.000689	6.891569	1.167463	-0.000138
1287	1.2796e+02	-5.6183	0.379491	0.000527	5.270023	0.892766	-0.000105
1288	1.2806e+02	-5.6372	0.205894	0.000872	8.715808	1.476498	-0.000174
1289	1.2816e+02	-5.6570	0.060557	0.000730	7.296956	1.236138	-0.000146
1290	1.2826e+02	-5.6760	-0.072668	0.000669	6.688876	1.133126	-0.000134
1291	1.2835e+02	-5.6975	-0.262414	0.000953	9.526581	1.613846	-0.000191
1292	1.2845e+02	-5.7173	-0.363342	0.000507	5.067330	0.858429	-0.000101
1293	1.2855e+02	-5.7365	-0.484456	0.000608	6.080796	1.030115	-0.000122
1294	1.2865e+02	-5.7565	-0.597496	0.000568	5.675410	0.961440	-0.000114
1295	1.2875e+02	-5.7770	-0.779167	0.000912	9.121194	1.545172	-0.000183
1296	1.2885e+02	-5.7971	-0.912393	0.000669	6.688876	1.133126	-0.000134
1297	1.2895e+02	-5.8159	-1.090027	0.000892	8.918501	1.510835	-0.000179
1298	1.2905e+02	-5.8364	-1.211141	0.000608	6.080796	1.030115	-0.000122
1299	1.2915e+02	-5.8566	-1.336292	0.000628	6.283489	1.064452	-0.000126
1300	1.2925e+02	-5.8765	-1.501814	0.000831	8.310422	1.407824	-0.000166
1301	1.2935e+02	-5.8951	-1.675411	0.000872	8.715808	1.476498	-0.000174
1302	1.2945e+02	-5.9161	-1.744043	0.000345	3.445785	0.583732	-0.000069
1303	1.2955e+02	-5.9359	-1.953974	0.001054	10.540047	1.785532	-0.000211
1304	1.2965e+02	-5.9565	-2.075088	0.000608	6.080796	1.030115	-0.000122
1305	1.2975e+02	-5.9754	-2.244647	0.000851	8.513115	1.442161	-0.000170
1306	1.2985e+02	-5.9965	-2.361724	0.000588	5.878103	0.995778	-0.000118
1307	1.2995e+02	-6.0156	-2.547433	0.000932	9.323888	1.579509	-0.000187
1308	1.3005e+02	-6.0362	-2.680658	0.000669	6.688876	1.133126	-0.000134
1309	1.3015e+02	-6.0556	-2.842144	0.000811	8.107728	1.373486	-0.000162
1310	1.3025e+02	-6.0753	-3.015740	0.000872	8.715808	1.476498	-0.000174
1311	1.3034e+02	-6.0957	-3.193374	0.000892	8.918501	1.510835	-0.000179
1312	1.3044e+02	-6.1149	-3.306414	0.000568	5.675410	0.961440	-0.000114
1313	1.3054e+02	-6.1346	-3.467900	0.000811	8.107728	1.373486	-0.000162
1314	1.3064e+02	-6.1567	-3.641496	0.000872	8.715808	1.476498	-0.000174
1315	1.3074e+02	-6.1752	-3.778759	0.000689	6.891569	1.167463	-0.000138
1316	1.3084e+02	-6.1952	-3.944282	0.000831	8.310422	1.407824	-0.000166
1317	1.3094e+02	-6.2153	-4.125953	0.000912	9.121194	1.545172	-0.000183
1318	1.3104e+02	-6.2349	-4.307624	0.000912	9.121194	1.545172	-0.000183
1319	1.3114e+02	-6.2553	-4.412589	0.000527	5.270023	0.892766	-0.000105
1320	1.3124e+02	-6.2752	-4.602335	0.000953	9.526581	1.613846	-0.000191
1321	1.3134e+02	-6.2949	-4.727486	0.000628	6.283489	1.064452	-0.000126
1322	1.3144e+02	-6.3156	-4.917231	0.000953	9.526581	1.613846	-0.000191
1323	1.3154e+02	-6.3342	-5.074680	0.000791	7.905035	1.339149	-0.000158
1324	1.3164e+02	-6.3548	-5.260388	0.000932	9.323888	1.579509	-0.000187
1325	1.3174e+02	-6.3744	-5.421873	0.000811	8.107728	1.373486	-0.000162
1326	1.3184e+02	-6.3940	-5.579322	0.000791	7.905035	1.339149	-0.000158
1327	1.3194e+02	-6.4138	-5.732733	0.000770	7.702342	1.304812	-0.000154
1328	1.3204e+02	-6.4340	-5.946701	0.001074	10.742740	1.819869	-0.000215
1329	1.3214e+02	-6.4539	-6.071852	0.000628	6.283489	1.064452	-0.000126
1330	1.3224e+02	-6.4742	-6.277746	0.001034	10.337354	1.751195	-0.000207
1331	1.3234e+02	-6.4940	-6.435194	0.000791	7.905035	1.339149	-0.000158
1332	1.3243e+02	-6.5132	-6.592643	0.000791	7.905035	1.339149	-0.000158
1333	1.3253e+02	-6.5337	-6.778351	0.000932	9.323888	1.579509	-0.000187
1334	1.3263e+02	-6.5540	-6.899465	0.000608	6.080796	1.030115	-0.000122
1335	1.3273e+02	-6.5746	-7.089210	0.000953	9.526581	1.613846	-0.000191
1336	1.3283e+02	-6.5938	-7.295104	0.001034	10.337354	1.751195	-0.000207
1337	1.3293e+02	-6.6132	-7.460627	0.000831	8.310422	1.407824	-0.000166
1338	1.3303e+02	-6.6331	-7.690744	0.001155	11.553513	1.957218	-0.000231
1339	1.3313e+02	-6.6529	-7.828006	0.000689	6.891569	1.167463	-0.000138
1340	1.3323e+02	-6.6731	-7.977380	0.000750	7.499649	1.270475	-0.000150
1341	1.3333e+02	-6.6938	-8.203460	0.001135	11.350820	1.922881	-0.000227
1342	1.3343e+02	-6.7131	-8.393205	0.000953	9.526581	1.613846	-0.000191
1343	1.3353e+02	-6.7331	-8.562765	0.000851	8.513115	1.442161	-0.000170
1344	1.3363e+02	-6.7520	-8.756547	0.000973	9.729274	1.648184	-0.000195
1345	1.3373e+02	-6.7728	-8.918033	0.000811	8.107728	1.373486	-0.000162
1346	1.3383e+02	-6.7918	-9.140075	0.001115	11.148127	1.888544	-0.000223
1347	1.3393e+02	-6.8132	-9.309635	0.000851	8.513115	1.442161	-0.000170
1348	1.3403e+02	-6.8329	-9.535715	0.001135	11.350820	1.922881	-0.000227
1349	1.3413e+02	-6.8527	-9.737571	0.001013	10.134660	1.716858	-0.000203
1350	1.3423e+02	-6.8727	-9.886945	0.000750	7.499649	1.270475	-0.000150
1351	1.3432e+02	-6.8924	-10.125136	0.001196	11.958899	2.025892	-0.000239
1352	1.3442e+02	-6.9128	-10.302770	0.000892	8.918501	1.510835	-0.000179
1353	1.3452e+02	-6.9324	-10.504627	0.001013	10.134660	1.716858	-0.000203
1354	1.3462e+02	-6.9513	-10.706484	0.001013	10.134660	1.716858	-0.000203
1355	1.3472e+02	-6.9721	-10.924489	0.001095	10.945433	1.854207	-0.000219
1356	1.3482e+02	-6.9918	-11.081938	0.000791	7.905035	1.339149	-0.000158
1357	1.3492e+02	-7.0120	-11.320129	0.001196	11.958899	2.025892	-0.000239
1358	1.3502e+02	-7.0313	-11.501800	0.000912	9.121194	1.545172	-0.000183
1359	1.3512e+02	-7.0511	-11.731916	0.001155	11.553513	1.957218	-0.000231
1360	1.3522e+02	-7.0728	-11.933773	0.001013	10.134660	1.716858	-0.000203
1361	1.3532e+02	-7.0920	-12.163890	0.001155	11.553513	1.957218	-0.000231
1362	1.3542e+02	-7.1116	-12.373821	0.001054	10.540047	1.785532	-0.000211
1363	1.3552e+02	-7.1317	-12.616049	0.001216	12.161593	2.060230	-0.000243
1364	1.3562e+02	-7.1513	-12.797720	0.000912	9.121194	1.545172	-0.000183
1365	1.3572e+02	-7.1709	-13.023800	0.001135	11.350820	1.922881	-0.000227
1366	1.3582e+02	-7.1915	-13.233731	0.001054	10.540047	1.785532	-0.000211
1367	1.3592e+02	-7.2115	-13.455773	0.001115	11.148127	1.888544	-0.000223
1368	1.3602e+02	-7.2298	-13.685890	0.001155	11.553513	1.957218	-0.000231
1369	1.3612e+02	-7.2504	-13.883710	0.000993	9.931967	1.682521	-0.000199
1370	1.3622e+02	-7.2707	-14.105752	0.001115	11.148127	1.888544	-0.000223
1371	1.3631e+02	-7.2908	-14.323758	0.001095	10.945433	1.854207	-0.000219
1372	1.3641e+02	-7.3109	-14.570023	0.001236	12.364286	2.094567	-0.000248
1373	1.3651e+02	-7.3299	-14.743620	0.000872	8.715808	1.476498	-0.000174
1374	1.3661e+02	-7.3511	-15.006034	0.001318	13.175059	2.231915	-0.000264
1375	1.3671e+02	-7.3705	-15.252299	0.001236	12.364286	2.094567	-0.000248
1376	1.3681e+02	-7.3906	-15.506638	0.001277	12.769672	2.163241	-0.000256
1377	1.3691e+02	-7.4097	-15.684272	0.000892	8.918501	1.510835	-0.000179
1378	1.3701e+02	-7.4313	-15.914389	0.001155	11.553513	1.957218	-0.000231
1379	1.3711e+02	-7.4500	-16.196989	0.001419	14.188525	2.403601	-0.000284
1380	1.3721e+02	-7.4705	-16.398845	0.001013	10.134660	1.716858	-0.000203
1381	1.3731e+02	-7.4898	-16.649148	0.001257	12.566979	2.128904	-0.000252
1382	1.3741e+02	-7.5104	-16.919636	0.001358	13.580445	2.300590	-0.000272
1383	1.3751e+02	-7.5310	-17.125530	0.001034	10.337354	1.751195	-0.000207
1384	1.3761e+02	-7.5503	-17.335461	0.001054	10.540047	1.785532	-0.000211
1385	1.3771e+02	-7.5684	-17.642283	0.001540	15.404684	2.609624	-0.000308
1386	1.3781e+02	-7.5896	-17.888548	0.001236	12.364286	2.094567	-0.000248
1387	1.3791e+02	-7.6089	-18.118665	0.001155	11.553513	1.957218	-0.000231
1388	1.3801e+02	-7.6292	-18.401265	0.001419	14.188525	2.403601	-0.000284
1389	1.3811e+02	-7.6500	-18.615233	0.001074	10.742740	1.819869	-0.000215
1390	1.3821e+02	-7.6685	-18.881684	0.001338	13.377752	2.266253	-0.000268
1391	1.3831e+02	-7.6889	-19.119875	0.001196	11.958899	2.025892	-0.000239
1392	1.3840e+02	-7.7084	-19.394400	0.001378	13.783138	2.334927	-0.000276
1393	1.3850e+02	-7.7290	-19.604331	0.001054	10.540047	1.785532	-0.000211
1394	1.3860e+02	-7.7492	-19.923265	0.001601	16.012764	2.712636	-0.000321
1395	1.3870e+02	-7.7675	-20.165493	0.001216	12.161593	2.060230	-0.000243
1396	1.3880e+02	-7.7878	-20.444055	0.001399	13.985831	2.369264	-0.000280
1397	1.3890e+02	-7.8085	-20.649949	0.001034	10.337354	1.751195	-0.000207
1398	1.3900e+02	-7.8278	-20.976957	0.001642	16.418150	2.781310	-0.000329
1399	1.3910e+02	-7.8479	-21.190925	0.001074	10.742740	1.819869	-0.000215
1400	1.3920e+02	-7.8677	-21.497748	0.001540	15.404684	2.609624	-0.000308
1401	1.3930e+02	-7.8884	-21.764199	0.001338	13.377752	2.266253	-0.000268
1402	1.3940e+02	-7.9089	-22.079095	0.001581	15.810070	2.678298	-0.000316
1403	1.3950e+02	-7.9279	-22.284989	0.001034	10.337354	1.751195	-0.000207
1404	1.3960e+02	-7.9482	-22.583737	0.001500	14.999298	2.540950	-0.000300
1405	1.3970e+02	-7.9666	-22.878448	0.001480	14.796604	2.506613	-0.000296
1406	1.3980e+02	-7.9871	-23.161048	0.001419	14.188525	2.403601	-0.000284
1407	1.3990e+02	-8.0084	-23.443647	0.001419	14.188525	2.403601	-0.000284
1408	1.4000e+02	-8.0280	-23.689913	0.001236	12.364286	2.094567	-0.000248
1409	1.4010e+02	-8.0469	-24.057292	0.001845	18.445082	3.124681	-0.000369
1410	1.4020e+02	-8.0670	-24.339891	0.001419	14.188525	2.403601	-0.000284
1411	1.4029e+02	-8.0870	-24.646714	0.001540	15.404684	2.609624	-0.000308
1412	1.4039e+02	-8.1071	-24.921239	0.001378	13.783138	2.334927	-0.000276
1413	1.4049e+02	-8.1271	-25.260358	0.001703	17.026230	2.884321	-0.000341
1414	1.4059e+02	-8.1465	-25.506624	0.001236	12.364286	2.094567	-0.000248
1415	1.4069e+02	-8.1665	-25.837669	0.001662	16.620843	2.815647	-0.000333
1416	1.4079e+02	-8.1870	-26.104120	0.001338	13.377752	2.266253	-0.000268
1417	1.4089e+02	-8.2066	-26.402868	0.001500	14.999298	2.540950	-0.000300
1418	1.4099e+02	-8.2270	-26.741987	0.001703	17.026230	2.884321	-0.000341
1419	1.4109e+02	-8.2466	-27.073032	0.001662	16.620843	2.815647	-0.000333
1420	1.4119e+02	-8.2669	-27.367743	0.001480	14.796604	2.506613	-0.000296
1421	1.4129e+02	-8.2862	-27.694751	0.001642	16.418150	2.781310	-0.000329
1422	1.4139e+02	-8.3067	-27.997536	0.001520	15.201991	2.575287	-0.000304
1423	1.4149e+02	-8.3270	-28.320507	0.001622	16.215457	2.746973	-0.000325
1424	1.4159e+02	-8.3456	-28.675775	0.001784	17.837002	3.021670	-0.000357
1425	1.4169e+02	-8.3653	-28.994709	0.001601	16.012764	2.712636	-0.000321
1426	1.4179e+02	-8.3862	-29.301531	0.001540	15.404684	2.609624	-0.000308
1427	1.4189e+02	-8.4055	-29.632576	0.001662	16.620843	2.815647	-0.000333
1428	1.4199e+02	-8.4264	-29.979770	0.001743	17.431616	2.952996	-0.000349
1429	1.4209e+02	-8.4448	-30.318889	0.001703	17.026230	2.884321	-0.000341
1430	1.4219e+02	-8.4663	-30.674157	0.001784	17.837002	3.021670	-0.000357
1431	1.4228e+02	-8.4851	-31.001165	0.001642	16.418150	2.781310	-0.000329
1432	1.4238e+02	-8.4980	-31.299913	0.001500	14.999298	2.540950	-0.000300
1433	1.4248e+02	-8.5264	-31.711701	0.002067	20.674707	3.502390	-0.000414
1434	1.4258e+02	-8.5455	-31.986226	0.001378	13.783138	2.334927	-0.000276
1435	1.4268e+02	-8.5652	-32.369754	0.001926	19.255855	3.262030	-0.000385
1436	1.4278e+02	-8.5863	-32.700799	0.001662	16.620843	2.815647	-0.000333
1437	1.4288e+02	-8.6047	-33.084327	0.001926	19.255855	3.262030	-0.000385
1438	1.4298e+02	-8.6256	-33.391150	0.001540	15.404684	2.609624	-0.000308
1439	1.4308e+02	-8.6456	-33.774678	0.001926	19.255855	3.262030	-0.000385
1440	1.4318e+02	-8.6618	-34.138020	0.001824	18.242389	3.090344	-0.000365
1441	1.4328e+02	-8.6852	-34.497325	0.001804	18.039696	3.056007	-0.000361
1442	1.4338e+02	-8.7055	-34.876816	0.001905	19.053162	3.227693	-0.000381
1443	1.4348e+02	-8.7253	-35.272455	0.001986	19.863935	3.365042	-0.000398
1444	1.4358e+02	-8.7436	-35.615611	0.001723	17.228923	2.918659	-0.000345
1445	1.4368e+02	-8.7646	-35.991065	0.001885	18.850468	3.193356	-0.000377
1446	1.4378e+02	-8.7840	-36.350370	0.001804	18.039696	3.056007	-0.000361
1447	1.4388e+02	-8.8044	-36.721787	0.001865	18.647775	3.159019	-0.000373
1448	1.4398e+02	-8.8245	-37.101277	0.001905	19.053162	3.227693	-0.000381
1449	1.4408e+02	-8.8438	-37.525177	0.002128	21.282787	3.605402	-0.000426
1450	1.4418e+02	-8.8635	-37.924853	0.002007	20.066628	3.399379	-0.000402
1451	1.4428e+02	-8.8841	-38.324530	0.002007	20.066628	3.399379	-0.000402
1452	1.4437e+02	-8.9052	-38.704020	0.001905	19.053162	3.227693	-0.000381
1453	1.4447e+02	-8.9230	-39.123882	0.002108	21.080094	3.571065	-0.000422
1454	1.4457e+02	-8.9442	-39.547782	0.002128	21.282787	3.605402	-0.000426
1455	1.4467e+02	-8.9638	-39.919198	0.001865	18.647775	3.159019	-0.000373
1456	1.4477e+02	-8.9832	-40.335023	0.002088	20.877401	3.536727	-0.000418
1457	1.4487e+02	-9.0034	-40.754885	0.002108	21.080094	3.571065	-0.000422
1458	1.4497e+02	-9.0237	-41.203007	0.002250	22.498946	3.811425	-0.000450
1459	1.4507e+02	-9.0440	-41.594610	0.001966	19.661241	3.330704	-0.000394
1460	1.4517e+02	-9.0628	-42.026583	0.002169	21.688173	3.674076	-0.000434
1461	1.4527e+02	-9.0825	-42.454519	0.002149	21.485480	3.639739	-0.000430
1462	1.4537e+02	-9.1031	-42.918790	0.002331	23.309719	3.948773	-0.000467
1463	1.4547e+02	-9.1222	-43.334615	0.002088	20.877401	3.536727	-0.000418
1464	1.4557e+02	-9.1428	-43.766589	0.002169	21.688173	3.674076	-0.000434
1465	1.4567e+02	-9.1624	-44.198562	0.002169	21.688173	3.674076	-0.000434
1466	1.4577e+02	-9.1814	-44.670907	0.002372	23.715106	4.017448	-0.000475
1467	1.4587e+02	-9.2036	-45.106918	0.002189	21.890867	3.708413	-0.000438
1468	1.4597e+02	-9.2226	-45.546965	0.002209	22.093560	3.742750	-0.000442
1469	1.4607e+02	-9.2429	-46.051607	0.002534	25.336651	4.292145	-0.000507
1470	1.4617e+02	-9.2612	-46.455321	0.002027	20.269321	3.433716	-0.000406
1471	1.4626e+02	-9.2828	-46.972074	0.002594	25.944731	4.395156	-0.000519
1472	1.4636e+02	-9.3027	-47.432308	0.002311	23.107026	3.914436	-0.000463
1473	1.4646e+02	-9.3221	-47.928875	0.002493	24.931265	4.223471	-0.000499
1474	1.4656e+02	-9.3422	-48.352775	0.002128	21.282787	3.605402	-0.000426
1475	1.4666e+02	-9.3619	-48.877602	0.002635	26.350117	4.463831	-0.000527
1476	1.4676e+02	-9.3813	-49.374170	0.002493	24.931265	4.223471	-0.000499
1477	1.4686e+02	-9.4006	-49.810181	0.002189	21.890867	3.708413	-0.000438
1478	1.4696e+02	-9.4215	-50.343083	0.002676	26.755504	4.532505	-0.000536
1479	1.4706e+02	-9.4428	-50.815428	0.002372	23.715106	4.017448	-0.000475
1480	1.4716e+02	-9.4606	-51.340255	0.002635	26.350117	4.463831	-0.000527
1481	1.4726e+02	-9.4819	-51.877194	0.002696	26.958197	4.566842	-0.000540
1482	1.4736e+02	-9.5021	-52.373762	0.002493	24.931265	4.223471	-0.000499
1483	1.4746e+02	-9.5212	-52.874367	0.002513	25.133958	4.257808	-0.000503
1484	1.4756e+02	-9.5410	-53.379009	0.002534	25.336651	4.292145	-0.000507
1485	1.4766e+02	-9.5609	-53.932096	0.002777	27.768970	4.704191	-0.000556
1486	1.4776e+02	-9.5810	-54.489221	0.002797	27.971663	4.738528	-0.000560
1487	1.4786e+02	-9.6013	-55.022123	0.002676	26.755504	4.532505	-0.000536
1488	1.4796e+02	-9.6220	-55.579248	0.002797	27.971663	4.738528	-0.000560
1489	1.4806e+02	-9.6417	-56.140410	0.002817	28.174356	4.772865	-0.000564
1490	1.4816e+02	-9.6609	-56.689460	0.002757	27.566276	4.669854	-0.000552
1491	1.4825e+02	-9.6806	-57.242548	0.002777	27.768970	4.704191	-0.000556
1492	1.4835e+02	-9.7003	-57.739115	0.002493	24.931265	4.223471	-0.000499
1493	1.4845e+02	-9.7211	-58.320463	0.002919	29.187822	4.944551	-0.000584
1494	1.4855e+02	-9.7407	-58.926033	0.003040	30.403981	5.150574	-0.000609
1495	1.4865e+02	-9.7602	-59.471047	0.002736	27.363583	4.635516	-0.000548
1496	1.4875e+02	-9.7803	-60.040283	0.002858	28.579743	4.841539	-0.000572
1497	1.4885e+02	-9.8001	-60.629705	0.002959	29.593209	5.013225	-0.000592
1498	1.4895e+02	-9.8204	-61.219126	0.002959	29.593209	5.013225	-0.000592
1499	1.4905e+02	-9.8405	-61.824697	0.003040	30.403981	5.150574	-0.000609
1500	1.4915e+02	-9.8607	-62.466601	0.003223	32.228220	5.459608	-0.000645
1501	1.4925e+02	-9.8811	-63.051986	0.002939	29.390515	4.978888	-0.000588
1502	1.4935e+02	-9.8997	-63.649482	0.003000	29.998595	5.081900	-0.000600
1503	1.4945e+02	-9.9197	-64.279275	0.003162	31.620141	5.356597	-0.000633
1504	1.4955e+02	-9.9397	-64.909068	0.003162	31.620141	5.356597	-0.000633
1505	1.4965e+02	-9.9599	-65.522713	0.003081	30.809368	5.219248	-0.000617
1506	1.4975e+02	-9.9794	-66.180766	0.003304	33.038993	5.596957	-0.000661
1507	1.4985e+02	-9.9992	-66.822671	0.003223	32.228220	5.459608	-0.000645
1508	1.4995e+02	-9.9786	-67.290978	-0.002351	-23.512412	-3.983110	-0.000471
1509	1.5005e+02	-9.9605	-67.795620	-0.002534	-25.336651	-4.292145	-0.000507
1510	1.5015e+02	-9.9399	-68.191260	-0.001986	-19.863935	-3.365042	-0.000398
1511	1.5025e+02	-9.9197	-68.631308	-0.002209	-22.093560	-3.742750	-0.000442
1512	1.5034e+02	-9.9001	-68.994650	-0.001824	-18.242389	-3.090344	-0.000365
1513	1.5044e+02	-9.8807	-69.426623	-0.002169	-21.688173	-3.674076	-0.000434
1514	1.5054e+02	-9.8599	-69.798040	-0.001865	-18.647775	-3.159019	-0.000373
1515	1.5064e+02	-9.8395	-70.133122	-0.001682	-16.823536	-2.849984	-0.000337
1516	1.5074e+02	-9.8199	-70.500501	-0.001845	-18.445082	-3.124681	-0.000369
1517	1.5084e+02	-9.7997	-70.811361	-0.001561	-15.607377	-2.643961	-0.000312
1518	1.5094e+02	-9.7798	-71.081849	-0.001358	-13.580445	-2.300590	-0.000272
1519	1.5104e+02	-9.7602	-71.445191	-0.001824	-18.242389	-3.090344	-0.000365
1520	1.5114e+02	-9.7409	-71.743939	-0.001500	-14.999298	-2.540950	-0.000300
1521	1.5124e+02	-9.7211	-72.026539	-0.001419	-14.188525	-2.403601	-0.000284
1522	1.5134e+02	-9.7011	-72.288953	-0.001318	-13.175059	-2.231915	-0.000264
1523	1.5144e+02	-9.6809	-72.587701	-0.001500	-14.999298	-2.540950	-0.000300
1524	1.5154e+02	-9.6611	-72.862226	-0.001378	-13.783138	-2.334927	-0.000276
1525	1.5164e+02	-9.6404	-73.104454	-0.001216	-12.161593	-2.060230	-0.000243
1526	1.5174e+02	-9.6196	-73.334571	-0.001155	-11.553513	-1.957218	-0.000231
1527	1.5184e+02	-9.6002	-73.556613	-0.001115	-11.148127	-1.888544	-0.000223
1528	1.5194e+02	-9.5821	-73.810953	-0.001277	-12.769672	-2.163241	-0.000256
1529	1.5204e+02	-9.5605	-74.061255	-0.001257	-12.566979	-2.128904	-0.000252
1530	1.5214e+02	-9.5409	-74.242926	-0.000912	-9.121194	-1.545172	-0.000183
1531	1.5224e+02	-9.5227	-74.452857	-0.001054	-10.540047	-1.785532	-0.000211
1532	1.5233e+02	-9.5004	-74.638566	-0.000932	-9.323888	-1.579509	-0.000187
1533	1.5243e+02	-9.4815	-74.848497	-0.001054	-10.540047	-1.785532	-0.000211
1534	1.5253e+02	-9.4614	-75.038242	-0.000953	-9.526581	-1.613846	-0.000191
1535	1.5263e+02	-9.4416	-75.215876	-0.000892	-8.918501	-1.510835	-0.000179
1536	1.5273e+02	-9.4217	-75.385436	-0.000851	-8.513115	-1.442161	-0.000170
1537	1.5283e+02	-9.4017	-75.550958	-0.000831	-8.310422	-1.407824	-0.000166
1538	1.5293e+02	-9.3819	-75.760889	-0.001054	-10.540047	-1.785532	-0.000211
1539	1.5303e+02	-9.3619	-75.942560	-0.000912	-9.121194	-1.545172	-0.000183
1540	1.5313e+02	-9.3425	-76.043489	-0.000507	-5.067330	-0.858429	-0.000101
1541	1.5323e+02	-9.3221	-76.176714	-0.000669	-6.688876	-1.133126	-0.000134
1542	1.5333e+02	-9.3021	-76.326088	-0.000750	-7.499649	-1.270475	-0.000150
1543	1.5343e+02	-9.2822	-76.487574	-0.000811	-8.107728	-1.373486	-0.000162
1544	1.5353e+02	-9.2624	-76.576391	-0.000446	-4.459251	-0.755418	-0.000089
1545	1.5363e+02	-9.2412	-76.741913	-0.000831	-8.310422	-1.407824	-0.000166
1546	1.5373e+02	-9.2221	-76.818619	-0.000385	-3.851171	-0.652406	-0.000077
1547	1.5383e+02	-9.2021	-76.996253	-0.000892	-8.918501	-1.510835	-0.000179
1548	1.5393e+02	-9.1817	-77.101218	-0.000527	-5.270023	-0.892766	-0.000105
1549	1.5403e+02	-9.1628	-77.198110	-0.000486	-4.864637	-0.824092	-0.000097
1550	1.5413e+02	-9.1432	-77.290964	-0.000466	-4.661944	-0.789755	-0.000093
1551	1.5422e+02	-9.1229	-77.468598	-0.000892	-8.918501	-1.510835	-0.000179
1552	1.5432e+02	-9.1032	-77.508969	-0.000203	-2.026932	-0.343372	-0.000041
1553	1.5442e+02	-9.0823	-77.626046	-0.000588	-5.878103	-0.995778	-0.000118
1554	1.5452e+02	-9.0634	-77.690640	-0.000324	-3.243091	-0.549395	-0.000065
1555	1.5462e+02	-9.0433	-77.783494	-0.000466	-4.661944	-0.789755	-0.000093
1556	1.5472e+02	-9.0237	-77.884423	-0.000507	-5.067330	-0.858429	-0.000101
1557	1.5482e+02	-9.0035	-77.985351	-0.000507	-5.067330	-0.858429	-0.000101
1558	1.5492e+02	-8.9839	-78.037834	-0.000264	-2.635012	-0.446383	-0.000053
1559	1.5502e+02	-8.9630	-78.118577	-0.000405	-4.053864	-0.686743	-0.000081
1560	1.5512e+02	-8.9435	-78.179134	-0.000304	-3.040398	-0.515057	-0.000061
1561	1.5522e+02	-8.9238	-78.276025	-0.000486	-4.864637	-0.824092	-0.000097
1562	1.5532e+02	-8.9049	-78.312359	-0.000182	-1.824239	-0.309034	-0.000037
1563	1.5542e+02	-8.8840	-78.368879	-0.000284	-2.837705	-0.480720	-0.000057
1564	1.5552e+02	-8.8637	-78.449622	-0.000405	-4.053864	-0.686743	-0.000081
1565	1.5562e+02	-8.8437	-78.481919	-0.000162	-1.621546	-0.274697	-0.000032
1566	1.5572e+02	-8.8239	-78.570736	-0.000446	-4.459251	-0.755418	-0.000089
1567	1.5582e+02	-8.8040	-78.619181	-0.000243	-2.432319	-0.412046	-0.000049
1568	1.5592e+02	-8.7848	-78.687813	-0.000345	-3.445785	-0.583732	-0.000069
1569	1.5602e+02	-8.7645	-78.679738	0.000041	0.405386	0.068674	0.000008
1570	1.5612e+02	-8.7454	-78.752407	-0.000365	-3.648478	-0.618069	-0.000073
1571	1.5622e+02	-8.7253	-78.792778	-0.000203	-2.026932	-0.343372	-0.000041
1572	1.5631e+02	-8.7055	-78.817001	-0.000122	-1.216159	-0.206023	-0.000024
1573	1.5641e+02	-8.6860	-78.829112	-0.000061	-0.608080	-0.103011	-0.000012
1574	1.5651e+02	-8.6656	-78.869484	-0.000203	-2.026932	-0.343372	-0.000041
1575	1.5661e+02	-8.6458	-78.950226	-0.000405	-4.053864	-0.686743	-0.000081
1576	1.5671e+02	-8.6258	-78.950226	0.000000	0.000000	0.000000	0.000000
1577	1.5681e+02	-8.6047	-78.962338	-0.000061	-0.608080	-0.103011	-0.000012
1578	1.5691e+02	-8.5849	-79.010784	-0.000243	-2.432319	-0.412046	-0.000049
1579	1.5701e+02	-8.5657	-79.010784	0.000000	0.000000	0.000000	0.000000
1580	1.5711e+02	-8.5455	-79.051155	-0.000203	-2.026932	-0.343372	-0.000041
1581	1.5721e+02	-8.5257	-79.071341	-0.000101	-1.013466	-0.171686	-0.000020
1582	1.5731e+02	-8.5054	-79.067303	0.000020	0.202693	0.034337	0.000004
1583	1.5741e+02	-8.4863	-79.123823	-0.000284	-2.837705	-0.480720	-0.000057
1584	1.5751e+02	-8.4663	-79.091526	0.000162	1.621546	0.274697	0.000032
1585	1.5761e+02	-8.4457	-79.139972	-0.000243	-2.432319	-0.412046	-0.000049
1586	1.5771e+02	-8.4256	-79.160158	-0.000101	-1.013466	-0.171686	-0.000020
1587	1.5781e+02	-8.4062	-79.139972	0.000101	1.013466	0.171686	0.000020
1588	1.5791e+02	-8.3867	-79.168232	-0.000142	-1.418852	-0.240360	-0.000028
1589	1.5801e+02	-8.3661	-79.135935	0.000162	1.621546	0.274697	0.000032
1590	1.5811e+02	-8.3456	-79.135935	0.000000	0.000000	0.000000	0.000000
1591	1.5821e+02	-8.3257	-79.131898	0.000020	0.202693	0.034337	0.000004
1592	1.5830e+02	-8.3063	-79.148046	-0.000081	-0.810773	-0.137349	-0.000016
1593	1.5840e+02	-8.2860	-79.156120	-0.000041	-0.405386	-0.068674	-0.000008
1594	1.5850e+02	-8.2671	-79.123823	0.000162	1.621546	0.274697	0.000032
1595	1.5860e+02	-8.2466	-79.152083	-0.000142	-1.418852	-0.240360	-0.000028
1596	1.5870e+02	-8.2265	-79.164195	-0.000061	-0.608080	-0.103011	-0.000012
1597	1.5880e+02	-8.2062	-79.115749	0.000243	2.432319	0.412046	0.000049
1598	1.5890e+02	-8.1876	-79.119786	-0.000020	-0.202693	-0.034337	-0.000004
1599	1.5900e+02	-8.1664	-79.051155	0.000345	3.445785	0.583732	0.000069
1600	1.5910e+02	-8.1474	-79.099601	-0.000243	-2.432319	-0.412046	-0.000049
1601	1.5920e+02	-8.1268	-79.063266	0.000182	1.824239	0.309034	0.000037
1602	1.5930e+02	-8.1073	-79.067303	-0.000020	-0.202693	-0.034337	-0.000004
1603	1.5940e+02	-8.0875	-78.998672	0.000345	3.445785	0.583732	0.000069
1604	1.5950e+02	-8.0679	-78.990598	0.000041	0.405386	0.068674	0.000008
1605	1.5960e+02	-8.0484	-78.990598	0.000000	0.000000	0.000000	0.000000
1606	1.5970e+02	-8.0276	-78.938115	0.000264	2.635012	0.446383	0.000053
1607	1.5980e+02	-8.0087	-78.938115	0.000000	0.000000	0.000000	0.000000
1608	1.5990e+02	-7.9880	-78.926004	0.000061	0.608080	0.103011	0.000012
1609	1.6000e+02	-7.9672	-78.897744	0.000142	1.418852	0.240360	0.000028
1610	1.6010e+02	-7.9473	-78.865447	0.000162	1.621546	0.274697	0.000032
1611	1.6019e+02	-7.9272	-78.821038	0.000223	2.229625	0.377709	0.000045
1612	1.6029e+02	-7.9073	-78.752407	0.000345	3.445785	0.583732	0.000069
1613	1.6039e+02	-7.8870	-78.756444	-0.000020	-0.202693	-0.034337	-0.000004
1614	1.6049e+02	-7.8682	-78.764518	-0.000041	-0.405386	-0.068674	-0.000008
1615	1.6059e+02	-7.8468	-78.699924	0.000324	3.243091	0.549395	0.000065
1616	1.6069e+02	-7.8290	-78.643404	0.000284	2.837705	0.480720	0.000057
1617	1.6079e+02	-7.8079	-78.651478	-0.000041	-0.405386	-0.068674	-0.000008
1618	1.6089e+02	-7.7884	-78.611107	0.000203	2.026932	0.343372	0.000041
1619	1.6099e+02	-7.7681	-78.534402	0.000385	3.851171	0.652406	0.000077
1620	1.6109e+02	-7.7483	-78.506142	0.000142	1.418852	0.240360	0.000028
1621	1.6119e+02	-7.7292	-78.461733	0.000223	2.229625	0.377709	0.000045
1622	1.6129e+02	-7.7084	-78.453659	0.000041	0.405386	0.068674	0.000008
1623	1.6139e+02	-7.6883	-78.389065	0.000324	3.243091	0.549395	0.000065
1624	1.6149e+02	-7.6688	-78.360805	0.000142	1.418852	0.240360	0.000028
1625	1.6159e+02	-7.6489	-78.316396	0.000223	2.229625	0.377709	0.000045
1626	1.6169e+02	-7.6290	-78.304285	0.000061	0.608080	0.103011	0.000012
1627	1.6179e+02	-7.6086	-78.263913	0.000203	2.026932	0.343372	0.000041
1628	1.6189e+02	-7.5888	-78.187208	0.000385	3.851171	0.652406	0.000077
1629	1.6199e+02	-7.5687	-78.150874	0.000182	1.824239	0.309034	0.000037
1630	1.6209e+02	-7.5491	-78.102428	0.000243	2.432319	0.412046	0.000049
1631	1.6219e+02	-7.5302	-78.058019	0.000223	2.229625	0.377709	0.000045
1632	1.6228e+02	-7.5102	-77.977277	0.000405	4.053864	0.686743	0.000081
1633	1.6238e+02	-7.4905	-77.997462	-0.000101	-1.013466	-0.171686	-0.000020
1634	1.6248e+02	-7.4709	-77.920757	0.000385	3.851171	0.652406	0.000077
1635	1.6258e+02	-7.4507	-77.860200	0.000304	3.040398	0.515057	0.000061
1636	1.6268e+02	-7.4304	-77.823866	0.000182	1.824239	0.309034	0.000037
1637	1.6278e+02	-7.4103	-77.771383	0.000264	2.635012	0.446383	0.000053
1638	1.6288e+02	-7.3904	-77.755234	0.000081	0.810773	0.137349	0.000016
1639	1.6298e+02	-7.3697	-77.662380	0.000466	4.661944	0.789755	0.000093
1640	1.6308e+02	-7.3517	-77.605860	0.000284	2.837705	0.480720	0.000057
1641	1.6318e+02	-7.3314	-77.557415	0.000243	2.432319	0.412046	0.000049
1642	1.6328e+02	-7.3097	-77.537229	0.000101	1.013466	0.171686	0.000020
1643	1.6338e+02	-7.2919	-77.504932	0.000162	1.621546	0.274697	0.000032
1644	1.6348e+02	-7.2713	-77.424189	0.000405	4.053864	0.686743	0.000081
1645	1.6358e+02	-7.2512	-77.371706	0.000264	2.635012	0.446383	0.000053
1646	1.6368e+02	-7.2311	-77.290964	0.000405	4.053864	0.686743	0.000081
1647	1.6378e+02	-7.2110	-77.266741	0.000122	1.216159	0.206023	0.000024
1648	1.6388e+02	-7.1921	-77.206184	0.000304	3.040398	0.515057	0.000061
1649	1.6398e+02	-7.1704	-77.157738	0.000243	2.432319	0.412046	0.000049
1650	1.6408e+02	-7.1518	-77.113330	0.000223	2.229625	0.377709	0.000045
1651	1.6418e+02	-7.1320	-77.056810	0.000284	2.837705	0.480720	0.000057
1652	1.6427e+02	-7.1121	-76.996253	0.000304	3.040398	0.515057	0.000061
1653	1.6437e+02	-7.0912	-76.911473	0.000426	4.256557	0.721080	0.000085
1654	1.6447e+02	-7.0718	-76.879176	0.000162	1.621546	0.274697	0.000032
1655	1.6457e+02	-7.0520	-76.863027	0.000081	0.810773	0.137349	0.000016
1656	1.6467e+02	-7.0317	-76.745950	0.000588	5.878103	0.995778	0.000118
1657	1.6477e+02	-7.0126	-76.681356	0.000324	3.243091	0.549395	0.000065
1658	1.6487e+02	-6.9921	-76.649059	0.000162	1.621546	0.274697	0.000032
1659	1.6497e+02	-6.9724	-76.572354	0.000385	3.851171	0.652406	0.000077
1660	1.6507e+02	-6.9527	-76.495648	0.000385	3.851171	0.652406	0.000077
1661	1.6517e+02	-6.9322	-76.451239	0.000223	2.229625	0.377709	0.000045
1662	1.6527e+02	-6.9122	-76.410868	0.000203	2.026932	0.343372	0.000041
1663	1.6537e+02	-6.8930	-76.313977	0.000486	4.864637	0.824092	0.000097
1664	1.6547e+02	-6.8726	-76.277643	0.000182	1.824239	0.309034	0.000037
1665	1.6557e+02	-6.8517	-76.204974	0.000365	3.648478	0.618069	0.000073
1666	1.6567e+02	-6.8340	-76.128269	0.000385	3.851171	0.652406	0.000077
1667	1.6577e+02	-6.8133	-76.087897	0.000203	2.026932	0.343372	0.000041
1668	1.6587e+02	-6.7921	-76.019266	0.000345	3.445785	0.583732	0.000069
1669	1.6597e+02	-6.7725	-75.938523	0.000405	4.053864	0.686743	0.000081
1670	1.6607e+02	-6.7524	-75.898152	0.000203	2.026932	0.343372	0.000041
1671	1.6616e+02	-6.7330	-75.825483	0.000365	3.648478	0.618069	0.000073
1672	1.6626e+02	-6.7134	-75.740704	0.000426	4.256557	0.721080	0.000085
1673	1.6636e+02	-6.6931	-75.692258	0.000243	2.432319	0.412046	0.000049
1674	1.6646e+02	-6.6743	-75.619590	0.000365	3.648478	0.618069	0.000073
1675	1.6656e+02	-6.6531	-75.546921	0.000365	3.648478	0.618069	0.000073
1676	1.6666e+02	-6.6324	-75.510587	0.000182	1.824239	0.309034	0.000037
1677	1.6676e+02	-6.6135	-75.421770	0.000446	4.459251	0.755418	0.000089
1678	1.6686e+02	-6.5935	-75.373324	0.000243	2.432319	0.412046	0.000049
1679	1.6696e+02	-6.5735	-75.308730	0.000324	3.243091	0.549395	0.000065
1680	1.6706e+02	-6.5533	-75.211839	0.000486	4.864637	0.824092	0.000097
1681	1.6716e+02	-6.5334	-75.151282	0.000304	3.040398	0.515057	0.000061
1682	1.6726e+02	-6.5134	-75.086688	0.000324	3.243091	0.549395	0.000065
1683	1.6736e+02	-6.4942	-75.030168	0.000284	2.837705	0.480720	0.000057
1684	1.6746e+02	-6.4737	-74.957499	0.000365	3.648478	0.618069	0.000073
1685	1.6756e+02	-6.4542	-74.896942	0.000304	3.040398	0.515057	0.000061
1686	1.6766e+02	-6.4340	-74.840422	0.000284	2.837705	0.480720	0.000057
1687	1.6776e+02	-6.4139	-74.804088	0.000182	1.824239	0.309034	0.000037
1688	1.6786e+02	-6.3941	-74.703160	0.000507	5.067330	0.858429	0.000101
1689	1.6796e+02	-6.3736	-74.658751	0.000223	2.229625	0.377709	0.000045
1690	1.6806e+02	-6.3541	-74.594157	0.000324	3.243091	0.549395	0.000065
1691	1.6816e+02	-6.3338	-74.481117	0.000568	5.675410	0.961440	0.000114
1692	1.6825e+02	-6.3144	-74.428634	0.000264	2.635012	0.446383	0.000053
1693	1.6835e+02	-6.2946	-74.360003	0.000345	3.445785	0.583732	0.000069
1694	1.6845e+02	-6.2746	-74.307520	0.000264	2.635012	0.446383	0.000053
1695	1.6855e+02	-6.2544	-74.242926	0.000324	3.243091	0.549395	0.000065
1696	1.6865e+02	-6.2357	-74.170258	0.000365	3.648478	0.618069	0.000073
1697	1.6875e+02	-6.2085	-74.109701	0.000304	3.040398	0.515057	0.000061
1698	1.6885e+02	-6.1954	-74.008772	0.000507	5.067330	0.858429	0.000101
1699	1.6895e+02	-6.1754	-74.000698	0.000041	0.405386	0.068674	0.000008
1700	1.6905e+02	-6.1557	-73.879584	0.000608	6.080796	1.030115	0.000122
1701	1.6915e+02	-6.1355	-73.847287	0.000162	1.621546	0.274697	0.000032
1702	1.6925e+02	-6.1151	-73.701950	0.000730	7.296956	1.236138	0.000146
1703	1.6935e+02	-6.0963	-73.693876	0.000041	0.405386	0.068674	0.000008
1704	1.6945e+02	-6.0760	-73.633319	0.000304	3.040398	0.515057	0.000061
1705	1.6955e+02	-6.0559	-73.576799	0.000284	2.837705	0.480720	0.000057
1706	1.6965e+02	-6.0355	-73.512205	0.000324	3.243091	0.549395	0.000065
1707	1.6975e+02	-6.0154	-73.447610	0.000324	3.243091	0.549395	0.000065
1708	1.6985e+02	-5.9956	-73.342645	0.000527	5.270023	0.892766	0.000105
1709	1.6995e+02	-5.9763	-73.265939	0.000385	3.851171	0.652406	0.000077
1710	1.7005e+02	-5.9557	-73.201345	0.000324	3.243091	0.549395	0.000065
1711	1.7015e+02	-5.9358	-73.108491	0.000466	4.661944	0.789755	0.000093
1712	1.7024e+02	-5.9169	-73.056008	0.000264	2.635012	0.446383	0.000053
1713	1.7034e+02	-5.8964	-72.971228	0.000426	4.256557	0.721080	0.000085
1714	1.7044e+02	-5.8768	-72.898560	0.000365	3.648478	0.618069	0.000073
1715	1.7054e+02	-5.8566	-72.801669	0.000486	4.864637	0.824092	0.000097
1716	1.7064e+02	-5.8356	-72.737075	0.000324	3.243091	0.549395	0.000065
1717	1.7074e+02	-5.8172	-72.640183	0.000486	4.864637	0.824092	0.000097
1718	1.7084e+02	-5.7968	-72.583663	0.000284	2.837705	0.480720	0.000057
1719	1.7094e+02	-5.7773	-72.515032	0.000345	3.445785	0.583732	0.000069
1720	1.7104e+02	-5.7568	-72.422178	0.000466	4.661944	0.789755	0.000093
1721	1.7114e+02	-5.7369	-72.341435	0.000405	4.053864	0.686743	0.000081
1722	1.7124e+02	-5.7166	-72.284915	0.000284	2.837705	0.480720	0.000057
1723	1.7134e+02	-5.6975	-72.252618	0.000162	1.621546	0.274697	0.000032
1724	1.7144e+02	-5.6767	-72.151690	0.000507	5.067330	0.858429	0.000101
1725	1.7154e+02	-5.6571	-72.034613	0.000588	5.878103	0.995778	0.000118
1726	1.7164e+02	-5.6366	-71.990204	0.000223	2.229625	0.377709	0.000045
1727	1.7174e+02	-5.6172	-71.949833	0.000203	2.026932	0.343372	0.000041
1728	1.7184e+02	-5.5972	-71.816608	0.000669	6.688876	1.133126	0.000134
1729	1.7194e+02	-5.5769	-71.739902	0.000385	3.851171	0.652406	0.000077
1730	1.7204e+02	-5.5579	-71.687419	0.000264	2.635012	0.446383	0.000053
1731	1.7213e+02	-5.5383	-71.578417	0.000547	5.472717	0.927103	0.000110
1732	1.7223e+02	-5.5176	-71.517860	0.000304	3.040398	0.515057	0.000061
1733	1.7233e+02	-5.4980	-71.416931	0.000507	5.067330	0.858429	0.000101
1734	1.7243e+02	-5.4779	-71.360411	0.000284	2.837705	0.480720	0.000057
1735	1.7253e+02	-5.4585	-71.271594	0.000446	4.459251	0.755418	0.000089
1736	1.7263e+02	-5.4391	-71.207000	0.000324	3.243091	0.549395	0.000065
1737	1.7273e+02	-5.4185	-71.118183	0.000446	4.459251	0.755418	0.000089
1738	1.7283e+02	-5.3983	-71.013218	0.000527	5.270023	0.892766	0.000105
1739	1.7293e+02	-5.3790	-70.960735	0.000264	2.635012	0.446383	0.000053
1740	1.7303e+02	-5.3581	-70.875955	0.000426	4.256557	0.721080	0.000085
1741	1.7313e+02	-5.3384	-70.819435	0.000284	2.837705	0.480720	0.000057
1742	1.7323e+02	-5.3189	-70.738692	0.000405	4.053864	0.686743	0.000081
1743	1.7333e+02	-5.2980	-70.629690	0.000547	5.472717	0.927103	0.000110
1744	1.7343e+02	-5.2785	-70.565096	0.000324	3.243091	0.549395	0.000065
1745	1.7353e+02	-5.2588	-70.512613	0.000264	2.635012	0.446383	0.000053
1746	1.7363e+02	-5.2396	-70.427833	0.000426	4.256557	0.721080	0.000085
1747	1.7373e+02	-5.2188	-70.294607	0.000669	6.688876	1.133126	0.000134
1748	1.7383e+02	-5.1993	-70.230013	0.000324	3.243091	0.549395	0.000065
1749	1.7393e+02	-5.1790	-70.157345	0.000365	3.648478	0.618069	0.000073
1750	1.7403e+02	-5.1586	-70.052379	0.000527	5.270023	0.892766	0.000105
1751	1.7413e+02	-5.1390	-70.007971	0.000223	2.229625	0.377709	0.000045
1752	1.7422e+02	-5.1192	-69.931265	0.000385	3.851171	0.652406	0.000077
1753	1.7432e+02	-5.0996	-69.806114	0.000628	6.283489	1.064452	0.000126
1754	1.7442e+02	-5.0786	-69.741520	0.000324	3.243091	0.549395	0.000065
1755	1.7452e+02	-5.0584	-69.676926	0.000324	3.243091	0.549395	0.000065
1756	1.7462e+02	-5.0401	-69.584072	0.000466	4.661944	0.789755	0.000093
1757	1.7472e+02	-5.0204	-69.503329	0.000405	4.053864	0.686743	0.000081
1758	1.7482e+02	-5.0002	-69.430660	0.000365	3.648478	0.618069	0.000073
1759	1.7492e+02	-4.9792	-69.317621	0.000568	5.675410	0.961440	0.000114
1760	1.7502e+02	-4.9597	-69.253026	0.000324	3.243091	0.549395	0.000065
1761	1.7512e+02	-4.9414	-69.188432	0.000324	3.243091	0.549395	0.000065
1762	1.7522e+02	-4.9197	-69.075392	0.000568	5.675410	0.961440	0.000114
1763	1.7532e+02	-4.8997	-69.030984	0.000223	2.229625	0.377709	0.000045
1764	1.7542e+02	-4.8798	-68.909870	0.000608	6.080796	1.030115	0.000122
1765	1.7552e+02	-4.8599	-68.817016	0.000466	4.661944	0.789755	0.000093
1766	1.7562e+02	-4.8389	-68.756459	0.000304	3.040398	0.515057	0.000061
1767	1.7572e+02	-4.8207	-68.655530	0.000507	5.067330	0.858429	0.000101
1768	1.7582e+02	-4.8006	-68.562676	0.000466	4.661944	0.789755	0.000093
1769	1.7592e+02	-4.7805	-68.469822	0.000466	4.661944	0.789755	0.000093
1770	1.7602e+02	-4.7604	-68.401191	0.000345	3.445785	0.583732	0.000069
1771	1.7612e+02	-4.7414	-68.272002	0.000649	6.486183	1.098789	0.000130
1772	1.7621e+02	-4.7214	-68.211445	0.000304	3.040398	0.515057	0.000061
1773	1.7631e+02	-4.7012	-68.122628	0.000446	4.459251	0.755418	0.000089
1774	1.7641e+02	-4.6813	-68.005552	0.000588	5.878103	0.995778	0.000118
1775	1.7651e+02	-4.6617	-67.961143	0.000223	2.229625	0.377709	0.000045
1776	1.7661e+02	-4.6421	-67.840029	0.000608	6.080796	1.030115	0.000122
1777	1.7671e+02	-4.6204	-67.755249	0.000426	4.256557	0.721080	0.000085
1778	1.7681e+02	-4.6021	-67.650284	0.000527	5.270023	0.892766	0.000105
1779	1.7691e+02	-4.5810	-67.549355	0.000507	5.067330	0.858429	0.000101
1780	1.7701e+02	-4.5615	-67.460538	0.000446	4.459251	0.755418	0.000089
1781	1.7711e+02	-4.5426	-67.408055	0.000264	2.635012	0.446383	0.000053
1782	1.7721e+02	-4.5221	-67.311164	0.000486	4.864637	0.824092	0.000097
1783	1.7731e+02	-4.5045	-67.198124	0.000568	5.675410	0.961440	0.000114
1784	1.7741e+02	-4.4824	-67.109307	0.000446	4.459251	0.755418	0.000089
1785	1.7751e+02	-4.4609	-67.004342	0.000527	5.270023	0.892766	0.000105
1786	1.7761e+02	-4.4421	-66.895339	0.000547	5.472717	0.927103	0.000110
1787	1.7771e+02	-4.4218	-66.818634	0.000385	3.851171	0.652406	0.000077
1788	1.7781e+02	-4.4008	-66.725779	0.000466	4.661944	0.789755	0.000093
1789	1.7791e+02	-4.3827	-66.620814	0.000527	5.270023	0.892766	0.000105
1790	1.7801e+02	-4.3620	-66.580443	0.000203	2.026932	0.343372	0.000041
1791	1.7810e+02	-4.3419	-66.443180	0.000689	6.891569	1.167463	0.000138
1792	1.7820e+02	-4.3227	-66.346289	0.000486	4.864637	0.824092	0.000097
1793	1.7830e+02	-4.3015	-66.289769	0.000284	2.837705	0.480720	0.000057
1794	1.7840e+02	-4.2828	-66.217100	0.000365	3.648478	0.618069	0.000073
1795	1.7850e+02	-4.2622	-66.132321	0.000426	4.256557	0.721080	0.000085
1796	1.7860e+02	-4.2427	-65.982947	0.000750	7.499649	1.270475	0.000150
1797	1.7870e+02	-4.2232	-65.898167	0.000426	4.256557	0.721080	0.000085
1798	1.7880e+02	-4.2026	-65.793201	0.000527	5.270023	0.892766	0.000105
1799	1.7890e+02	-4.1827	-65.756867	0.000182	1.824239	0.309034	0.000037
1800	1.7900e+02	-4.1637	-65.627679	0.000649	6.486183	1.098789	0.000130
1801	1.7910e+02	-4.1427	-65.522713	0.000527	5.270023	0.892766	0.000105
1802	1.7920e+02	-4.1230	-65.466193	0.000284	2.837705	0.480720	0.000057
1803	1.7930e+02	-4.1039	-65.304708	0.000811	8.107728	1.373486	0.000162
1804	1.7940e+02	-4.0837	-65.244151	0.000304	3.040398	0.515057	0.000061
1805	1.7950e+02	-4.0635	-65.175519	0.000345	3.445785	0.583732	0.000069
1806	1.7960e+02	-4.0439	-65.094777	0.000405	4.053864	0.686743	0.000081
1807	1.7970e+02	-4.0237	-64.977700	0.000588	5.878103	0.995778	0.000118
1808	1.7980e+02	-4.0039	-64.856586	0.000608	6.080796	1.030115	0.000122
1809	1.7990e+02	-3.9832	-64.796029	0.000304	3.040398	0.515057	0.000061
1810	1.8000e+02	-3.9641	-64.674915	0.000608	6.080796	1.030115	0.000122
1811	1.8009e+02	-3.9436	-64.602246	0.000365	3.648478	0.618069	0.000073
1812	1.8019e+02	-3.9229	-64.509392	0.000466	4.661944	0.789755	0.000093
1813	1.8029e+02	-3.9046	-64.420575	0.000446	4.459251	0.755418	0.000089
1814	1.8039e+02	-3.8843	-64.323684	0.000486	4.864637	0.824092	0.000097
1815	1.8049e+02	-3.8641	-64.206607	0.000588	5.878103	0.995778	0.000118
1816	1.8059e+02	-3.8442	-64.133938	0.000365	3.648478	0.618069	0.000073
1817	1.8069e+02	-3.8245	-64.020899	0.000568	5.675410	0.961440	0.000114
1818	1.8079e+02	-3.8040	-63.952267	0.000345	3.445785	0.583732	0.000069
1819	1.8089e+02	-3.7846	-63.786745	0.000831	8.310422	1.407824	0.000166
1820	1.8099e+02	-3.7650	-63.714076	0.000365	3.648478	0.618069	0.000073
1821	1.8109e+02	-3.7447	-63.625259	0.000446	4.459251	0.755418	0.000089
1822	1.8119e+02	-3.7242	-63.532405	0.000466	4.661944	0.789755	0.000093
1823	1.8129e+02	-3.7060	-63.451662	0.000405	4.053864	0.686743	0.000081
1824	1.8139e+02	-3.6854	-63.342660	0.000547	5.472717	0.927103	0.000110
1825	1.8149e+02	-3.6652	-63.209434	0.000669	6.688876	1.133126	0.000134
1826	1.8159e+02	-3.6461	-63.136766	0.000365	3.648478	0.618069	0.000073
1827	1.8169e+02	-3.6255	-63.035837	0.000507	5.067330	0.858429	0.000101
1828	1.8179e+02	-3.6070	-62.963169	0.000365	3.648478	0.618069	0.000073
1829	1.8189e+02	-3.5849	-62.874352	0.000446	4.459251	0.755418	0.000089
1830	1.8199e+02	-3.5666	-62.720941	0.000770	7.702342	1.304812	0.000154
1831	1.8209e+02	-3.5452	-62.644235	0.000385	3.851171	0.652406	0.000077
1832	1.8218e+02	-3.5268	-62.535233	0.000547	5.472717	0.927103	0.000110
1833	1.8228e+02	-3.5052	-62.434304	0.000507	5.067330	0.858429	0.000101
1834	1.8238e+02	-3.4856	-62.333376	0.000507	5.067330	0.858429	0.000101
1835	1.8248e+02	-3.4656	-62.232447	0.000507	5.067330	0.858429	0.000101
1836	1.8258e+02	-3.4463	-62.103259	0.000649	6.486183	1.098789	0.000130
1837	1.8268e+02	-3.4256	-62.062888	0.000203	2.026932	0.343372	0.000041
1838	1.8278e+02	-3.4056	-61.921588	0.000709	7.094262	1.201801	0.000142
1839	1.8288e+02	-3.3862	-61.812585	0.000547	5.472717	0.927103	0.000110
1840	1.8298e+02	-3.3666	-61.739917	0.000365	3.648478	0.618069	0.000073
1841	1.8308e+02	-3.3458	-61.643026	0.000486	4.864637	0.824092	0.000097
1842	1.8318e+02	-3.3260	-61.497689	0.000730	7.296956	1.236138	0.000146
1843	1.8328e+02	-3.3067	-61.433095	0.000324	3.243091	0.549395	0.000065
1844	1.8338e+02	-3.2866	-61.279683	0.000770	7.702342	1.304812	0.000154
1845	1.8348e+02	-3.2655	-61.235275	0.000223	2.229625	0.377709	0.000045
1846	1.8358e+02	-3.2466	-61.077827	0.000791	7.905035	1.339149	0.000158
1847	1.8368e+02	-3.2265	-60.976898	0.000507	5.067330	0.858429	0.000101
1848	1.8378e+02	-3.2059	-60.875970	0.000507	5.067330	0.858429	0.000101
1849	1.8388e+02	-3.1875	-60.799264	0.000385	3.851171	0.652406	0.000077
1850	1.8398e+02	-3.1672	-60.694299	0.000527	5.270023	0.892766	0.000105
1851	1.8407e+02	-3.1467	-60.641816	0.000264	2.635012	0.446383	0.000053
1852	1.8417e+02	-3.1274	-60.504553	0.000689	6.891569	1.167463	0.000138
1853	1.8427e+02	-3.1071	-60.419773	0.000426	4.256557	0.721080	0.000085
1854	1.8437e+02	-3.0871	-60.371328	0.000243	2.432319	0.412046	0.000049
1855	1.8447e+02	-3.0670	-60.230028	0.000709	7.094262	1.201801	0.000142
1856	1.8457e+02	-3.0477	-60.165434	0.000324	3.243091	0.549395	0.000065
1857	1.8467e+02	-3.0278	-60.040283	0.000628	6.283489	1.064452	0.000126
1858	1.8477e+02	-3.0074	-59.923206	0.000588	5.878103	0.995778	0.000118
1859	1.8487e+02	-2.9874	-59.830352	0.000466	4.661944	0.789755	0.000093
1860	1.8497e+02	-2.9669	-59.689052	0.000709	7.094262	1.201801	0.000142
1861	1.8507e+02	-2.9471	-59.604272	0.000426	4.256557	0.721080	0.000085
1862	1.8517e+02	-2.9280	-59.543715	0.000304	3.040398	0.515057	0.000061
1863	1.8527e+02	-2.9071	-59.410490	0.000669	6.688876	1.133126	0.000134
1864	1.8537e+02	-2.8879	-59.305524	0.000527	5.270023	0.892766	0.000105
1865	1.8547e+02	-2.8679	-59.220744	0.000426	4.256557	0.721080	0.000085
1866	1.8557e+02	-2.8484	-59.127890	0.000466	4.661944	0.789755	0.000093
1867	1.8567e+02	-2.8291	-59.010813	0.000588	5.878103	0.995778	0.000118
1868	1.8577e+02	-2.8079	-58.869513	0.000709	7.094262	1.201801	0.000142
1869	1.8587e+02	-2.7884	-58.812993	0.000284	2.837705	0.480720	0.000057
1870	1.8597e+02	-2.7689	-58.683805	0.000649	6.486183	1.098789	0.000130
1871	1.8606e+02	-2.7488	-58.570765	0.000568	5.675410	0.961440	0.000114
1872	1.8616e+02	-2.7293	-58.494060	0.000385	3.851171	0.652406	0.000077
1873	1.8626e+02	-2.7093	-58.405243	0.000446	4.459251	0.755418	0.000089
1874	1.8636e+02	-2.6887	-58.296240	0.000547	5.472717	0.927103	0.000110
1875	1.8646e+02	-2.6693	-58.187237	0.000547	5.472717	0.927103	0.000110
1876	1.8656e+02	-2.6487	-58.078235	0.000547	5.472717	0.927103	0.000110
1877	1.8666e+02	-2.6286	-57.957121	0.000608	6.080796	1.030115	0.000122
1878	1.8676e+02	-2.6091	-57.864267	0.000466	4.661944	0.789755	0.000093
1879	1.8686e+02	-2.5890	-57.714893	0.000750	7.499649	1.270475	0.000150
1880	1.8696e+02	-2.5691	-57.634150	0.000405	4.053864	0.686743	0.000081
1881	1.8706e+02	-2.5496	-57.504961	0.000649	6.486183	1.098789	0.000130
1882	1.8716e+02	-2.5286	-57.432293	0.000365	3.648478	0.618069	0.000073
1883	1.8726e+02	-2.5101	-57.327327	0.000527	5.270023	0.892766	0.000105
1884	1.8736e+02	-2.4899	-57.198139	0.000649	6.486183	1.098789	0.000130
1885	1.8746e+02	-2.4700	-57.101248	0.000486	4.864637	0.824092	0.000097
1886	1.8756e+02	-2.4505	-56.984171	0.000588	5.878103	0.995778	0.000118
1887	1.8766e+02	-2.4305	-56.875168	0.000547	5.472717	0.927103	0.000110
1888	1.8776e+02	-2.4098	-56.766166	0.000547	5.472717	0.927103	0.000110
1889	1.8786e+02	-2.3905	-56.657163	0.000547	5.472717	0.927103	0.000110
1890	1.8796e+02	-2.3698	-56.572383	0.000426	4.256557	0.721080	0.000085
1891	1.8806e+02	-2.3513	-56.483566	0.000446	4.459251	0.755418	0.000089
1892	1.8815e+02	-2.3310	-56.334192	0.000750	7.499649	1.270475	0.000150
1893	1.8825e+02	-2.3103	-56.233264	0.000507	5.067330	0.858429	0.000101
1894	1.8835e+02	-2.2903	-56.116187	0.000588	5.878103	0.995778	0.000118
1895	1.8845e+02	-2.2710	-55.995073	0.000608	6.080796	1.030115	0.000122
1896	1.8855e+02	-2.2502	-55.898181	0.000486	4.864637	0.824092	0.000097
1897	1.8865e+02	-2.2308	-55.809364	0.000446	4.459251	0.755418	0.000089
1898	1.8875e+02	-2.2112	-55.724585	0.000426	4.256557	0.721080	0.000085
1899	1.8885e+02	-2.1912	-55.583285	0.000709	7.094262	1.201801	0.000142
1900	1.8895e+02	-2.1705	-55.502542	0.000405	4.053864	0.686743	0.000081
1901	1.8905e+02	-2.1512	-55.393539	0.000547	5.472717	0.927103	0.000110
1902	1.8915e+02	-2.1304	-55.232054	0.000811	8.107728	1.373486	0.000162
1903	1.8925e+02	-2.1112	-55.123051	0.000547	5.472717	0.927103	0.000110
1904	1.8935e+02	-2.0908	-55.018086	0.000527	5.270023	0.892766	0.000105
1905	1.8945e+02	-2.0698	-54.937343	0.000405	4.053864	0.686743	0.000081
1906	1.8955e+02	-2.0514	-54.816229	0.000608	6.080796	1.030115	0.000122
1907	1.8965e+02	-2.0312	-54.707226	0.000547	5.472717	0.927103	0.000110
1908	1.8975e+02	-2.0123	-54.569964	0.000689	6.891569	1.167463	0.000138
1909	1.8985e+02	-1.9900	-54.469035	0.000507	5.067330	0.858429	0.000101
1910	1.8995e+02	-1.9717	-54.376181	0.000466	4.661944	0.789755	0.000093
1911	1.9004e+02	-1.9525	-54.259104	0.000588	5.878103	0.995778	0.000118
1912	1.9014e+02	-1.9322	-54.146065	0.000568	5.675410	0.961440	0.000114
1913	1.9024e+02	-1.9118	-54.028988	0.000588	5.878103	0.995778	0.000118
1914	1.9034e+02	-1.8921	-53.879614	0.000750	7.499649	1.270475	0.000150
1915	1.9044e+02	-1.8719	-53.790797	0.000446	4.459251	0.755418	0.000089
1916	1.9054e+02	-1.8526	-53.681794	0.000547	5.472717	0.927103	0.000110
1917	1.9064e+02	-1.8318	-53.580866	0.000507	5.067330	0.858429	0.000101
1918	1.9074e+02	-1.8126	-53.483974	0.000486	4.864637	0.824092	0.000097
1919	1.9084e+02	-1.7928	-53.411306	0.000365	3.648478	0.618069	0.000073
1920	1.9094e+02	-1.7728	-53.253858	0.000791	7.905035	1.339149	0.000158
1921	1.9104e+02	-1.7523	-53.169078	0.000426	4.256557	0.721080	0.000085
1922	1.9114e+02	-1.7332	-53.023741	0.000730	7.296956	1.236138	0.000146
1923	1.9124e+02	-1.7127	-52.918775	0.000527	5.270023	0.892766	0.000105
1924	1.9134e+02	-1.6922	-52.813810	0.000527	5.270023	0.892766	0.000105
1925	1.9144e+02	-1.6721	-52.700770	0.000568	5.675410	0.961440	0.000114
1926	1.9154e+02	-1.6528	-52.575619	0.000628	6.283489	1.064452	0.000126
1927	1.9164e+02	-1.6335	-52.498913	0.000385	3.851171	0.652406	0.000077
1928	1.9174e+02	-1.6129	-52.365688	0.000669	6.688876	1.133126	0.000134
1929	1.9184e+02	-1.5933	-52.236499	0.000649	6.486183	1.098789	0.000130
1930	1.9194e+02	-1.5736	-52.070977	0.000831	8.310422	1.407824	0.000166
1931	1.9203e+02	-1.5536	-52.034643	0.000182	1.824239	0.309034	0.000037
1932	1.9213e+02	-1.5336	-51.901417	0.000669	6.688876	1.133126	0.000134
1933	1.9223e+02	-1.5140	-51.768192	0.000669	6.688876	1.133126	0.000134
1934	1.9233e+02	-1.4930	-51.691486	0.000385	3.851171	0.652406	0.000077
1935	1.9243e+02	-1.4714	-51.534038	0.000791	7.905035	1.339149	0.000158
1936	1.9253e+02	-1.4537	-51.465406	0.000345	3.445785	0.583732	0.000069
1937	1.9263e+02	-1.4336	-51.320070	0.000730	7.296956	1.236138	0.000146
1938	1.9273e+02	-1.4136	-51.190881	0.000649	6.486183	1.098789	0.000130
1939	1.9283e+02	-1.3936	-51.073804	0.000588	5.878103	0.995778	0.000118
1940	1.9293e+02	-1.3741	-50.964802	0.000547	5.472717	0.927103	0.000110
1941	1.9303e+02	-1.3531	-50.831576	0.000669	6.688876	1.133126	0.000134
1942	1.9313e+02	-1.3336	-50.698351	0.000669	6.688876	1.133126	0.000134
1943	1.9323e+02	-1.3139	-50.585311	0.000568	5.675410	0.961440	0.000114
1944	1.9333e+02	-1.2936	-50.504568	0.000405	4.053864	0.686743	0.000081
1945	1.9343e+02	-1.2742	-50.367305	0.000689	6.891569	1.167463	0.000138
1946	1.9353e+02	-1.2534	-50.258303	0.000547	5.472717	0.927103	0.000110
1947	1.9363e+02	-1.2338	-50.141226	0.000588	5.878103	0.995778	0.000118
1948	1.9373e+02	-1.2148	-50.008000	0.000669	6.688876	1.133126	0.000134
1949	1.9383e+02	-1.1943	-49.890923	0.000588	5.878103	0.995778	0.000118
1950	1.9393e+02	-1.1754	-49.781921	0.000547	5.472717	0.927103	0.000110
1951	1.9403e+02	-1.1552	-49.628510	0.000770	7.702342	1.304812	0.000154
1952	1.9412e+02	-1.1359	-49.491247	0.000689	6.891569	1.167463	0.000138
1953	1.9422e+02	-1.1154	-49.394356	0.000486	4.864637	0.824092	0.000097
1954	1.9432e+02	-1.0949	-49.281316	0.000568	5.675410	0.961440	0.000114
1955	1.9442e+02	-1.0754	-49.196536	0.000426	4.256557	0.721080	0.000085
1956	1.9452e+02	-1.0558	-49.059273	0.000689	6.891569	1.167463	0.000138
1957	1.9462e+02	-1.0354	-48.958345	0.000507	5.067330	0.858429	0.000101
1958	1.9472e+02	-1.0146	-48.837231	0.000608	6.080796	1.030115	0.000122
1959	1.9482e+02	-0.9963	-48.691894	0.000730	7.296956	1.236138	0.000146
1960	1.9492e+02	-0.9755	-48.578854	0.000568	5.675410	0.961440	0.000114
1961	1.9502e+02	-0.9545	-48.453703	0.000628	6.283489	1.064452	0.000126
1962	1.9512e+02	-0.9363	-48.356812	0.000486	4.864637	0.824092	0.000097
1963	1.9522e+02	-0.9163	-48.239735	0.000588	5.878103	0.995778	0.000118
1964	1.9532e+02	-0.8947	-48.118621	0.000608	6.080796	1.030115	0.000122
1965	1.9542e+02	-0.8760	-47.961173	0.000791	7.905035	1.339149	0.000158
1966	1.9552e+02	-0.8563	-47.872356	0.000446	4.459251	0.755418	0.000089
1967	1.9562e+02	-0.8363	-47.735093	0.000689	6.891569	1.167463	0.000138
1968	1.9572e+02	-0.8163	-47.634165	0.000507	5.067330	0.858429	0.000101
1969	1.9582e+02	-0.7969	-47.468642	0.000831	8.310422	1.407824	0.000166
1970	1.9592e+02	-0.7761	-47.408085	0.000304	3.040398	0.515057	0.000061
1971	1.9601e+02	-0.7565	-47.258711	0.000750	7.499649	1.270475	0.000150
1972	1.9611e+02	-0.7377	-47.165857	0.000466	4.661944	0.789755	0.000093
1973	1.9621e+02	-0.7171	-47.024557	0.000709	7.094262	1.201801	0.000142
1974	1.9631e+02	-0.6965	-46.859035	0.000831	8.310422	1.407824	0.000166
1975	1.9641e+02	-0.6772	-46.750032	0.000547	5.472717	0.927103	0.000110
1976	1.9651e+02	-0.6570	-46.649103	0.000507	5.067330	0.858429	0.000101
1977	1.9661e+02	-0.6370	-46.487618	0.000811	8.107728	1.373486	0.000162
1978	1.9671e+02	-0.6175	-46.410912	0.000385	3.851171	0.652406	0.000077
1979	1.9681e+02	-0.5962	-46.330170	0.000405	4.053864	0.686743	0.000081
1980	1.9691e+02	-0.5772	-46.164647	0.000831	8.310422	1.407824	0.000166
1981	1.9701e+02	-0.5578	-46.067756	0.000486	4.864637	0.824092	0.000097
1982	1.9711e+02	-0.5377	-45.942605	0.000628	6.283489	1.064452	0.000126
1983	1.9721e+02	-0.5169	-45.813416	0.000649	6.486183	1.098789	0.000130
1984	1.9731e+02	-0.4974	-45.676154	0.000689	6.891569	1.167463	0.000138
1985	1.9741e+02	-0.4771	-45.599448	0.000385	3.851171	0.652406	0.000077
1986	1.9751e+02	-0.4578	-45.482371	0.000588	5.878103	0.995778	0.000118
1987	1.9761e+02	-0.4379	-45.337034	0.000730	7.296956	1.236138	0.000146
1988	1.9771e+02	-0.4179	-45.175549	0.000811	8.107728	1.373486	0.000162
1989	1.9781e+02	-0.3977	-45.098843	0.000385	3.851171	0.652406	0.000077
1990	1.9791e+02	-0.3790	-44.977729	0.000608	6.080796	1.030115	0.000122
1991	1.9800e+02	-0.3584	-44.892949	0.000426	4.256557	0.721080	0.000085
1992	1.9810e+02	-0.3387	-44.731464	0.000811	8.107728	1.373486	0.000162
1993	1.9820e+02	-0.3180	-44.606313	0.000628	6.283489	1.064452	0.000126
1994	1.9830e+02	-0.2983	-44.469050	0.000689	6.891569	1.167463	0.000138
1995	1.9840e+02	-0.2782	-44.356010	0.000568	5.675410	0.961440	0.000114
1996	1.9850e+02	-0.2571	-44.230859	0.000628	6.283489	1.064452	0.000126
1997	1.9860e+02	-0.2377	-44.133968	0.000486	4.864637	0.824092	0.000097
1998	1.9870e+02	-0.2190	-44.024965	0.000547	5.472717	0.927103	0.000110
1999	1.9880e+02	-0.1983	-43.847331	0.000892	8.918501	1.510835	0.000179
2000	1.9890e+02	-0.1788	-43.742366	0.000527	5.270023	0.892766	0.000105
2001	1.9900e+02	-0.1588	-43.661623	0.000405	4.053864	0.686743	0.000081
2002	1.9910e+02	-0.1391	-43.528398	0.000669	6.688876	1.133126	0.000134
2003	1.9920e+02	-0.1192	-43.407283	0.000608	6.080796	1.030115	0.000122
2004	1.9930e+02	-0.0987	-43.229649	0.000892	8.918501	1.510835	0.000179
2005	1.9940e+02	-0.0792	-43.136795	0.000466	4.661944	0.789755	0.000093
2006	1.9950e+02	-0.0584	-42.999533	0.000689	6.891569	1.167463	0.000138
2007	1.9960e+02	-0.0388	-42.874382	0.000628	6.283489	1.064452	0.000126
2008	1.9970e+02	-0.0189	-42.757305	0.000588	5.878103	0.995778	0.000118
2009	1.9980e+02	0.0000	-42.624079	0.000588	5.878103	0.995778	0.000134

PMax (uC/cm2):	4.98e+01
Pr (uC/cm2):	5.25e+00
-Pr (uC/cm2):	-7.19e+01
PLoss (uC/cm2):	-7.20e+01
-Vc:	-8.63e-01
C (Max-Eff) (nF):	4.99e-01
K (Eff):	8.45e+02
Vert. (+/-Pr) Shift (uC/cm2):	-3.33e+01
Offset (uC/cm2):	-2.93e+01

A (Loop Area - uC/cm2·Volts):	-4.77e-01



Hysteresis Version: 5.48.1 - Radiant Technologies, Inc., 1999 - 9/12/24

