»»»»»»»»»»»»»»»»»»»»»»»»»»»»»»»»»»»» Hysteresis ««««««««««««««««««««««««««««««««««««
»»»  Executed Version:	5.48.1
»»»  Vision Version:	5.48.4 (R)
»»»  Vision Compiled:	9/18/24
»»»  Driver Version:	5.47.0
»»»  Windows Version:	Windows 8 or 8.1
»»»  Processor Information:	x86 (AMD or Intel) - 32 Processors
»»»  Tester Name:	PMF21124-494 (100V)
»»»  Tester S/N:	PMF21124-494
»»»  Internal Amp Type:	100V RevK 270k
»»»  Internal Amp S/N:	iAB2-596/K     
»»»  Execution Count:	1
»»»»»»»»»»»»»»»»»»»»»»»»»»»»»»»»»»»»»»»»»»««««««««««««««««««««««««««««««««««««««««««

Stored:	7/3/2025 - 13:33:17
Configured:	07/03/25 12:01:19 PM
Executed:	07/03/25 01:32:25 PM

»»»»»»»»»»»»»»»»»»»»»»»»»»»»»»»»»»» Sample Info ««««««««««««««««««««««««««««««««««««
Sample Name:	
Lot Name:	
Wafer Name:	
Die Row/Column:	0/0
Capacitor Number:	0
Sample Area (cm2):	1.00e-04
Sample Thickness (microns):	1.50e-01

Amplifier:	Internal

»»»»»»»»»»»»»»»»»»»»»»»»»»»»»»»»»»» Tester Info «««««««««««««««««««««««««««««««««««
Tester Name:	PMF21124-494 (100V)
Tester Serial Number:	PMF21124-494
Return Signal Amp. Level:	0.19 [Index: 3]

»»»»»»»»»»»»»»»»»»»»»»»»»»»»»»»» Hysteresis Info ««««««««««««««««««««««««««««««««««
Task Name:	Hyst-410
Volts:	10.00
Field:	666.67 (kV/cm)
DCBias:	0.00
DCField:	0.00 (kV/cm)
Hysteresis Period (ms):	2.00e+02
Preset:	Enabled
Preset Delay (ms):	1.00e+03
Profile:	Standard Bipolar

»»»»»»»»»»»»»»»»»»»»»»»»»»»»»»»»»»»»»» Data «««««««««««««««««««««««««««««««««««««««
Points:	2009

Valid Data

Point	Time (ms)	Drive Voltage	Measured Polarization (uC/cm2)	Capacitance (uF)	Normalized Capacitance (uF/cm2)	Dielectric Constant	Instantaneous Current (mA)
   1	0.0000e+00	-0.0005	27.636213	0.000446	4.459276	0.755422	0.000089
   2	9.9500e-02	0.0195	27.725030	0.000446	4.459276	0.755422	0.000089
   3	1.9900e-01	0.0394	27.825958	0.000507	5.067359	0.858434	0.000101
   4	2.9850e-01	0.0584	27.910738	0.000426	4.256582	0.721084	0.000085
   5	3.9800e-01	0.0790	28.035889	0.000628	6.283525	1.064458	0.000126
   6	4.9750e-01	0.0988	28.148929	0.000568	5.675442	0.961446	0.000114
   7	5.9700e-01	0.1185	28.217560	0.000345	3.445804	0.583735	0.000069
   8	6.9650e-01	0.1381	28.326563	0.000547	5.472748	0.927109	0.000110
   9	7.9600e-01	0.1588	28.439603	0.000568	5.675442	0.961446	0.000114
  10	8.9550e-01	0.1787	28.528420	0.000446	4.459276	0.755422	0.000089
  11	9.9500e-01	0.1982	28.629348	0.000507	5.067359	0.858434	0.000101
  12	1.0945e+00	0.2184	28.798908	0.000851	8.513164	1.442169	0.000170
  13	1.1940e+00	0.2385	28.887725	0.000446	4.459276	0.755422	0.000089
  14	1.2935e+00	0.2584	28.960393	0.000365	3.648499	0.618072	0.000073
  15	1.3930e+00	0.2778	29.125916	0.000831	8.310469	1.407832	0.000166
  16	1.4925e+00	0.2994	29.182436	0.000284	2.837721	0.480723	0.000057
  17	1.5920e+00	0.3181	29.303550	0.000608	6.080831	1.030121	0.000122
  18	1.6915e+00	0.3383	29.400441	0.000486	4.864665	0.824097	0.000097
  19	1.7910e+00	0.3580	29.517518	0.000588	5.878137	0.995783	0.000118
  20	1.8905e+00	0.3787	29.598261	0.000405	4.053887	0.686747	0.000081
  21	1.9900e+00	0.3983	29.703226	0.000527	5.270054	0.892771	0.000105
  22	2.0895e+00	0.4174	29.796080	0.000466	4.661970	0.789759	0.000093
  23	2.1890e+00	0.4385	29.941417	0.000730	7.296997	1.236145	0.000146
  24	2.2885e+00	0.4573	30.066568	0.000628	6.283525	1.064458	0.000126
  25	2.3880e+00	0.4792	30.183645	0.000588	5.878137	0.995783	0.000118
  26	2.4875e+00	0.4976	30.288611	0.000527	5.270054	0.892771	0.000105
  27	2.5870e+00	0.5171	30.377428	0.000446	4.459276	0.755422	0.000089
  28	2.6865e+00	0.5381	30.514690	0.000689	6.891609	1.167470	0.000138
  29	2.7860e+00	0.5576	30.595433	0.000405	4.053887	0.686747	0.000081
  30	2.8855e+00	0.5775	30.777104	0.000912	9.121247	1.545181	0.000183
  31	2.9850e+00	0.5971	30.821513	0.000223	2.229638	0.377711	0.000045
  32	3.0845e+00	0.6172	30.942627	0.000608	6.080831	1.030121	0.000122
  33	3.1840e+00	0.6376	31.092001	0.000750	7.499692	1.270482	0.000150
  34	3.2835e+00	0.6567	31.192929	0.000507	5.067359	0.858434	0.000101
  35	3.3830e+00	0.6773	31.257523	0.000324	3.243110	0.549398	0.000065
  36	3.4825e+00	0.6969	31.414972	0.000791	7.905080	1.339157	0.000158
  37	3.5820e+00	0.7160	31.487640	0.000365	3.648499	0.618072	0.000073
  38	3.6815e+00	0.7366	31.620866	0.000669	6.688914	1.133133	0.000134
  39	3.7810e+00	0.7562	31.725831	0.000527	5.270054	0.892771	0.000105
  40	3.8805e+00	0.7764	31.867131	0.000709	7.094303	1.201807	0.000142
  41	3.9800e+00	0.7968	31.976134	0.000547	5.472748	0.927109	0.000110
  42	4.0795e+00	0.8166	32.064951	0.000446	4.459276	0.755422	0.000089
  43	4.1790e+00	0.8362	32.190102	0.000628	6.283525	1.064458	0.000126
  44	4.2785e+00	0.8558	32.331402	0.000709	7.094303	1.201807	0.000142
  45	4.3780e+00	0.8765	32.436367	0.000527	5.270054	0.892771	0.000105
  46	4.4775e+00	0.8969	32.525184	0.000446	4.459276	0.755422	0.000089
  47	4.5770e+00	0.9170	32.658410	0.000669	6.688914	1.133133	0.000134
  48	4.6765e+00	0.9353	32.767412	0.000547	5.472748	0.927109	0.000110
  49	4.7760e+00	0.9560	32.880452	0.000568	5.675442	0.961446	0.000114
  50	4.8755e+00	0.9756	33.017715	0.000689	6.891609	1.167470	0.000138
  51	4.9750e+00	0.9954	33.122680	0.000527	5.270054	0.892771	0.000105
  52	5.0745e+00	1.0162	33.276091	0.000770	7.702386	1.304820	0.000154
  53	5.1740e+00	1.0357	33.364908	0.000446	4.459276	0.755422	0.000089
  54	5.2735e+00	1.0564	33.465837	0.000507	5.067359	0.858434	0.000101
  55	5.3730e+00	1.0717	33.607136	0.000709	7.094303	1.201807	0.000142
  56	5.4725e+00	1.0950	33.695953	0.000446	4.459276	0.755422	0.000089
  57	5.5720e+00	1.1153	33.821105	0.000628	6.283525	1.064458	0.000126
  58	5.6715e+00	1.1362	33.958367	0.000689	6.891609	1.167470	0.000138
  59	5.7710e+00	1.1559	34.075444	0.000588	5.878137	0.995783	0.000118
  60	5.8705e+00	1.1752	34.180410	0.000527	5.270054	0.892771	0.000105
  61	5.9700e+00	1.1938	34.293450	0.000568	5.675442	0.961446	0.000114
  62	6.0695e+00	1.2145	34.418601	0.000628	6.283525	1.064458	0.000126
  63	6.1690e+00	1.2347	34.531641	0.000568	5.675442	0.961446	0.000114
  64	6.2685e+00	1.2542	34.640643	0.000547	5.472748	0.927109	0.000110
  65	6.3680e+00	1.2743	34.713312	0.000365	3.648499	0.618072	0.000073
  66	6.4675e+00	1.2945	34.846537	0.000669	6.688914	1.133133	0.000134
  67	6.5670e+00	1.3144	34.979763	0.000669	6.688914	1.133133	0.000134
  68	6.6665e+00	1.3335	35.112988	0.000669	6.688914	1.133133	0.000134
  69	6.7660e+00	1.3536	35.185657	0.000365	3.648499	0.618072	0.000073
  70	6.8655e+00	1.3737	35.318882	0.000669	6.688914	1.133133	0.000134
  71	6.9650e+00	1.3946	35.452107	0.000669	6.688914	1.133133	0.000134
  72	7.0645e+00	1.4129	35.536887	0.000426	4.256582	0.721084	0.000085
  73	7.1640e+00	1.4340	35.678187	0.000709	7.094303	1.201807	0.000142
  74	7.2635e+00	1.4537	35.767004	0.000446	4.459276	0.755422	0.000089
  75	7.3630e+00	1.4728	35.880044	0.000568	5.675442	0.961446	0.000114
  76	7.4625e+00	1.4933	36.005195	0.000628	6.283525	1.064458	0.000126
  77	7.5620e+00	1.5137	36.154569	0.000750	7.499692	1.270482	0.000150
  78	7.6615e+00	1.5330	36.231275	0.000385	3.851193	0.652410	0.000077
  79	7.7610e+00	1.5530	36.368537	0.000689	6.891609	1.167470	0.000138
  80	7.8605e+00	1.5733	36.465429	0.000486	4.864665	0.824097	0.000097
  81	7.9600e+00	1.5969	36.574431	0.000547	5.472748	0.927109	0.000110
  82	8.0595e+00	1.6125	36.703620	0.000649	6.486220	1.098795	0.000130
  83	8.1590e+00	1.6328	36.812622	0.000547	5.472748	0.927109	0.000110
  84	8.2585e+00	1.6520	36.913551	0.000507	5.067359	0.858434	0.000101
  85	8.3580e+00	1.6726	37.066962	0.000770	7.702386	1.304820	0.000154
  86	8.4575e+00	1.6918	37.159816	0.000466	4.661970	0.789759	0.000093
  87	8.5570e+00	1.7132	37.289004	0.000649	6.486220	1.098795	0.000130
  88	8.6565e+00	1.7321	37.398007	0.000547	5.472748	0.927109	0.000110
  89	8.7560e+00	1.7529	37.511047	0.000568	5.675442	0.961446	0.000114
  90	8.8555e+00	1.7723	37.632161	0.000608	6.080831	1.030121	0.000122
  91	8.9550e+00	1.7922	37.777498	0.000730	7.296997	1.236145	0.000146
  92	9.0545e+00	1.8121	37.870352	0.000466	4.661970	0.789759	0.000093
  93	9.1540e+00	1.8323	37.975317	0.000527	5.270054	0.892771	0.000105
  94	9.2535e+00	1.8517	38.100469	0.000628	6.283525	1.064458	0.000126
  95	9.3530e+00	1.8712	38.241768	0.000709	7.094303	1.201807	0.000142
  96	9.4525e+00	1.8911	38.330585	0.000446	4.459276	0.755422	0.000089
  97	9.5520e+00	1.9118	38.443625	0.000568	5.675442	0.961446	0.000114
  98	9.6515e+00	1.9319	38.532442	0.000446	4.459276	0.755422	0.000089
  99	9.7510e+00	1.9520	38.714113	0.000912	9.121247	1.545181	0.000183
 100	9.8505e+00	1.9714	38.778707	0.000324	3.243110	0.549398	0.000065
 101	9.9500e+00	1.9920	38.940193	0.000811	8.107775	1.373494	0.000162
 102	1.0050e+01	2.0118	39.061307	0.000608	6.080831	1.030121	0.000122
 103	1.0149e+01	2.0313	39.162235	0.000507	5.067359	0.858434	0.000101
 104	1.0248e+01	2.0510	39.247015	0.000426	4.256582	0.721084	0.000085
 105	1.0348e+01	2.0715	39.372166	0.000628	6.283525	1.064458	0.000126
 106	1.0447e+01	2.0905	39.473095	0.000507	5.067359	0.858434	0.000101
 107	1.0547e+01	2.1120	39.590172	0.000588	5.878137	0.995783	0.000118
 108	1.0646e+01	2.1308	39.711286	0.000608	6.080831	1.030121	0.000122
 109	1.0746e+01	2.1510	39.808177	0.000486	4.864665	0.824097	0.000097
 110	1.0845e+01	2.1709	39.941402	0.000669	6.688914	1.133133	0.000134
 111	1.0945e+01	2.1907	40.054442	0.000568	5.675442	0.961446	0.000114
 112	1.1044e+01	2.2106	40.155371	0.000507	5.067359	0.858434	0.000101
 113	1.1144e+01	2.2303	40.256299	0.000507	5.067359	0.858434	0.000101
 114	1.1243e+01	2.2500	40.381450	0.000628	6.283525	1.064458	0.000126
 115	1.1343e+01	2.2705	40.526787	0.000730	7.296997	1.236145	0.000146
 116	1.1443e+01	2.2905	40.631753	0.000527	5.270054	0.892771	0.000105
 117	1.1542e+01	2.3098	40.728644	0.000486	4.864665	0.824097	0.000097
 118	1.1642e+01	2.3290	40.861869	0.000669	6.688914	1.133133	0.000134
 119	1.1741e+01	2.3489	40.991058	0.000649	6.486220	1.098795	0.000130
 120	1.1841e+01	2.3701	41.043540	0.000264	2.635027	0.446386	0.000053
 121	1.1940e+01	2.3908	41.180803	0.000689	6.891609	1.167470	0.000138
 122	1.2040e+01	2.4100	41.305954	0.000628	6.283525	1.064458	0.000126
 123	1.2139e+01	2.4303	41.402846	0.000486	4.864665	0.824097	0.000097
 124	1.2239e+01	2.4499	41.515885	0.000568	5.675442	0.961446	0.000114
 125	1.2338e+01	2.4698	41.616814	0.000507	5.067359	0.858434	0.000101
 126	1.2438e+01	2.4897	41.717742	0.000507	5.067359	0.858434	0.000101
 127	1.2537e+01	2.5092	41.814633	0.000486	4.864665	0.824097	0.000097
 128	1.2636e+01	2.5295	41.955933	0.000709	7.094303	1.201807	0.000142
 129	1.2736e+01	2.5497	42.040713	0.000426	4.256582	0.721084	0.000085
 130	1.2835e+01	2.5698	42.165864	0.000628	6.283525	1.064458	0.000126
 131	1.2935e+01	2.5890	42.274867	0.000547	5.472748	0.927109	0.000110
 132	1.3034e+01	2.6086	42.363684	0.000446	4.459276	0.755422	0.000089
 133	1.3134e+01	2.6289	42.504984	0.000709	7.094303	1.201807	0.000142
 134	1.3233e+01	2.6496	42.609949	0.000527	5.270054	0.892771	0.000105
 135	1.3333e+01	2.6690	42.698766	0.000446	4.459276	0.755422	0.000089
 136	1.3432e+01	2.6886	42.795657	0.000486	4.864665	0.824097	0.000097
 137	1.3532e+01	2.7086	42.916771	0.000608	6.080831	1.030121	0.000122
 138	1.3632e+01	2.7288	43.066145	0.000750	7.499692	1.270482	0.000150
 139	1.3731e+01	2.7484	43.134777	0.000345	3.445804	0.583735	0.000069
 140	1.3831e+01	2.7680	43.247817	0.000568	5.675442	0.961446	0.000114
 141	1.3930e+01	2.7880	43.364894	0.000588	5.878137	0.995783	0.000118
 142	1.4030e+01	2.8091	43.441599	0.000385	3.851193	0.652410	0.000077
 143	1.4129e+01	2.8278	43.546565	0.000527	5.270054	0.892771	0.000105
 144	1.4229e+01	2.8472	43.671716	0.000628	6.283525	1.064458	0.000126
 145	1.4328e+01	2.8679	43.813016	0.000709	7.094303	1.201807	0.000142
 146	1.4428e+01	2.8870	43.893758	0.000405	4.053887	0.686747	0.000081
 147	1.4527e+01	2.9079	44.006798	0.000568	5.675442	0.961446	0.000114
 148	1.4627e+01	2.9282	44.119838	0.000568	5.675442	0.961446	0.000114
 149	1.4726e+01	2.9475	44.212692	0.000466	4.661970	0.789759	0.000093
 150	1.4825e+01	2.9679	44.358029	0.000730	7.296997	1.236145	0.000146
 151	1.4925e+01	2.9871	44.446846	0.000446	4.459276	0.755422	0.000089
 152	1.5024e+01	3.0076	44.555849	0.000547	5.472748	0.927109	0.000110
 153	1.5124e+01	3.0284	44.656777	0.000507	5.067359	0.858434	0.000101
 154	1.5223e+01	3.0471	44.753668	0.000486	4.864665	0.824097	0.000097
 155	1.5323e+01	3.0682	44.899005	0.000730	7.296997	1.236145	0.000146
 156	1.5422e+01	3.0871	44.999934	0.000507	5.067359	0.858434	0.000101
 157	1.5522e+01	3.1075	45.100862	0.000507	5.067359	0.858434	0.000101
 158	1.5621e+01	3.1266	45.238125	0.000689	6.891609	1.167470	0.000138
 159	1.5721e+01	3.1475	45.310793	0.000365	3.648499	0.618072	0.000073
 160	1.5820e+01	3.1670	45.439981	0.000649	6.486220	1.098795	0.000130
 161	1.5920e+01	3.1866	45.557058	0.000588	5.878137	0.995783	0.000118
 162	1.6020e+01	3.2067	45.641838	0.000426	4.256582	0.721084	0.000085
 163	1.6119e+01	3.2267	45.762952	0.000608	6.080831	1.030121	0.000122
 164	1.6218e+01	3.2465	45.867918	0.000527	5.270054	0.892771	0.000105
 165	1.6318e+01	3.2667	45.984995	0.000588	5.878137	0.995783	0.000118
 166	1.6418e+01	3.2864	46.077849	0.000466	4.661970	0.789759	0.000093
 167	1.6517e+01	3.3073	46.227223	0.000750	7.499692	1.270482	0.000150
 168	1.6616e+01	3.3262	46.267594	0.000203	2.026944	0.343374	0.000041
 169	1.6716e+01	3.3469	46.392745	0.000628	6.283525	1.064458	0.000126
 170	1.6816e+01	3.3665	46.489637	0.000486	4.864665	0.824097	0.000097
 171	1.6915e+01	3.3863	46.598639	0.000547	5.472748	0.927109	0.000110
 172	1.7015e+01	3.4060	46.707642	0.000547	5.472748	0.927109	0.000110
 173	1.7114e+01	3.4264	46.792422	0.000426	4.256582	0.721084	0.000085
 174	1.7213e+01	3.4462	46.921610	0.000649	6.486220	1.098795	0.000130
 175	1.7313e+01	3.4654	47.038687	0.000588	5.878137	0.995783	0.000118
 176	1.7413e+01	3.4862	47.167875	0.000649	6.486220	1.098795	0.000130
 177	1.7512e+01	3.5052	47.224395	0.000284	2.837721	0.480723	0.000057
 178	1.7611e+01	3.5294	47.365695	0.000709	7.094303	1.201807	0.000142
 179	1.7711e+01	3.5458	47.474698	0.000547	5.472748	0.927109	0.000110
 180	1.7811e+01	3.5660	47.559478	0.000426	4.256582	0.721084	0.000085
 181	1.7910e+01	3.5857	47.672517	0.000568	5.675442	0.961446	0.000114
 182	1.8009e+01	3.6054	47.781520	0.000547	5.472748	0.927109	0.000110
 183	1.8109e+01	3.6253	47.890523	0.000547	5.472748	0.927109	0.000110
 184	1.8209e+01	3.6449	47.999525	0.000547	5.472748	0.927109	0.000110
 185	1.8308e+01	3.6648	48.088342	0.000446	4.459276	0.755422	0.000089
 186	1.8407e+01	3.6858	48.205419	0.000588	5.878137	0.995783	0.000118
 187	1.8507e+01	3.7045	48.310385	0.000527	5.270054	0.892771	0.000105
 188	1.8607e+01	3.7243	48.407276	0.000486	4.864665	0.824097	0.000097
 189	1.8706e+01	3.7452	48.496093	0.000446	4.459276	0.755422	0.000089
 190	1.8805e+01	3.7649	48.641430	0.000730	7.296997	1.236145	0.000146
 191	1.8905e+01	3.7840	48.742358	0.000507	5.067359	0.858434	0.000101
 192	1.9005e+01	3.8038	48.827138	0.000426	4.256582	0.721084	0.000085
 193	1.9104e+01	3.8241	48.952289	0.000628	6.283525	1.064458	0.000126
 194	1.9203e+01	3.8442	49.045144	0.000466	4.661970	0.789759	0.000093
 195	1.9303e+01	3.8638	49.170295	0.000628	6.283525	1.064458	0.000126
 196	1.9402e+01	3.8834	49.295446	0.000628	6.283525	1.064458	0.000126
 197	1.9502e+01	3.9043	49.368114	0.000365	3.648499	0.618072	0.000073
 198	1.9602e+01	3.9244	49.469043	0.000507	5.067359	0.858434	0.000101
 199	1.9701e+01	3.9438	49.582083	0.000568	5.675442	0.961446	0.000114
 200	1.9800e+01	3.9648	49.703197	0.000608	6.080831	1.030121	0.000122
 201	1.9900e+01	3.9838	49.771828	0.000345	3.445804	0.583735	0.000069
 202	2.0000e+01	4.0043	49.892942	0.000608	6.080831	1.030121	0.000122
 203	2.0099e+01	4.0238	49.965610	0.000365	3.648499	0.618072	0.000073
 204	2.0198e+01	4.0430	50.066539	0.000507	5.067359	0.858434	0.000101
 205	2.0298e+01	4.0638	50.211876	0.000730	7.296997	1.236145	0.000146
 206	2.0398e+01	4.0831	50.320878	0.000547	5.472748	0.927109	0.000110
 207	2.0497e+01	4.1035	50.413733	0.000466	4.661970	0.789759	0.000093
 208	2.0596e+01	4.1225	50.518698	0.000527	5.270054	0.892771	0.000105
 209	2.0696e+01	4.1434	50.623664	0.000527	5.270054	0.892771	0.000105
 210	2.0796e+01	4.1627	50.748815	0.000628	6.283525	1.064458	0.000126
 211	2.0895e+01	4.1821	50.837632	0.000446	4.459276	0.755422	0.000089
 212	2.0994e+01	4.2033	50.966820	0.000649	6.486220	1.098795	0.000130
 213	2.1094e+01	4.2223	51.063711	0.000486	4.864665	0.824097	0.000097
 214	2.1194e+01	4.2421	51.180788	0.000588	5.878137	0.995783	0.000118
 215	2.1293e+01	4.2635	51.269605	0.000446	4.459276	0.755422	0.000089
 216	2.1392e+01	4.2828	51.386682	0.000588	5.878137	0.995783	0.000118
 217	2.1492e+01	4.3035	51.471462	0.000426	4.256582	0.721084	0.000085
 218	2.1591e+01	4.3224	51.608725	0.000689	6.891609	1.167470	0.000138
 219	2.1691e+01	4.3426	51.713690	0.000527	5.270054	0.892771	0.000105
 220	2.1791e+01	4.3614	51.822693	0.000547	5.472748	0.927109	0.000110
 221	2.1890e+01	4.3832	51.907473	0.000426	4.256582	0.721084	0.000085
 222	2.1989e+01	4.4012	52.024550	0.000588	5.878137	0.995783	0.000118
 223	2.2089e+01	4.4224	52.097218	0.000365	3.648499	0.618072	0.000073
 224	2.2189e+01	4.4412	52.210258	0.000568	5.675442	0.961446	0.000114
 225	2.2288e+01	4.4616	52.355595	0.000730	7.296997	1.236145	0.000146
 226	2.2387e+01	4.4817	52.436338	0.000405	4.053887	0.686747	0.000081
 227	2.2487e+01	4.5020	52.541303	0.000527	5.270054	0.892771	0.000105
 228	2.2587e+01	4.5216	52.654343	0.000568	5.675442	0.961446	0.000114
 229	2.2686e+01	4.5412	52.735086	0.000405	4.053887	0.686747	0.000081
 230	2.2785e+01	4.5594	52.856200	0.000608	6.080831	1.030121	0.000122
 231	2.2885e+01	4.5818	52.965202	0.000547	5.472748	0.927109	0.000110
 232	2.2985e+01	4.6020	53.078242	0.000568	5.675442	0.961446	0.000114
 233	2.3084e+01	4.6212	53.138799	0.000304	3.040416	0.515060	0.000061
 234	2.3183e+01	4.6410	53.272025	0.000669	6.688914	1.133133	0.000134
 235	2.3283e+01	4.6600	53.352767	0.000405	4.053887	0.686747	0.000081
 236	2.3383e+01	4.6810	53.465807	0.000568	5.675442	0.961446	0.000114
 237	2.3482e+01	4.7009	53.590958	0.000628	6.283525	1.064458	0.000126
 238	2.3581e+01	4.7210	53.651515	0.000304	3.040416	0.515060	0.000061
 239	2.3681e+01	4.7413	53.784741	0.000669	6.688914	1.133133	0.000134
 240	2.3780e+01	4.7610	53.897781	0.000568	5.675442	0.961446	0.000114
 241	2.3880e+01	4.7816	54.002746	0.000527	5.270054	0.892771	0.000105
 242	2.3980e+01	4.8009	54.095600	0.000466	4.661970	0.789759	0.000093
 243	2.4079e+01	4.8202	54.184417	0.000446	4.459276	0.755422	0.000089
 244	2.4178e+01	4.8403	54.297457	0.000568	5.675442	0.961446	0.000114
 245	2.4278e+01	4.8611	54.398386	0.000507	5.067359	0.858434	0.000101
 246	2.4378e+01	4.8808	54.483165	0.000426	4.256582	0.721084	0.000085
 247	2.4477e+01	4.9007	54.596205	0.000568	5.675442	0.961446	0.000114
 248	2.4576e+01	4.9206	54.685022	0.000446	4.459276	0.755422	0.000089
 249	2.4676e+01	4.9406	54.765765	0.000405	4.053887	0.686747	0.000081
 250	2.4776e+01	4.9592	54.911102	0.000730	7.296997	1.236145	0.000146
 251	2.4875e+01	4.9801	54.999919	0.000446	4.459276	0.755422	0.000089
 252	2.4974e+01	5.0005	55.104884	0.000527	5.270054	0.892771	0.000105
 253	2.5074e+01	5.0198	55.153330	0.000243	2.432332	0.412048	0.000049
 254	2.5174e+01	5.0405	55.274444	0.000608	6.080831	1.030121	0.000122
 255	2.5273e+01	5.0582	55.363261	0.000446	4.459276	0.755422	0.000089
 256	2.5372e+01	5.0787	55.460152	0.000486	4.864665	0.824097	0.000097
 257	2.5472e+01	5.1000	55.609526	0.000750	7.499692	1.270482	0.000150
 258	2.5572e+01	5.1191	55.690269	0.000405	4.053887	0.686747	0.000081
 259	2.5671e+01	5.1389	55.791197	0.000507	5.067359	0.858434	0.000101
 260	2.5770e+01	5.1588	55.924423	0.000669	6.688914	1.133133	0.000134
 261	2.5870e+01	5.1786	55.997091	0.000365	3.648499	0.618072	0.000073
 262	2.5970e+01	5.1986	56.061685	0.000324	3.243110	0.549398	0.000065
 263	2.6069e+01	5.2184	56.170688	0.000547	5.472748	0.927109	0.000110
 264	2.6169e+01	5.2389	56.299876	0.000649	6.486220	1.098795	0.000130
 265	2.6268e+01	5.2583	56.396768	0.000486	4.864665	0.824097	0.000097
 266	2.6367e+01	5.2776	56.469436	0.000365	3.648499	0.618072	0.000073
 267	2.6467e+01	5.2995	56.574402	0.000527	5.270054	0.892771	0.000105
 268	2.6567e+01	5.3179	56.687441	0.000568	5.675442	0.961446	0.000114
 269	2.6666e+01	5.3382	56.772221	0.000426	4.256582	0.721084	0.000085
 270	2.6765e+01	5.3585	56.885261	0.000568	5.675442	0.961446	0.000114
 271	2.6865e+01	5.3791	56.953892	0.000345	3.445804	0.583735	0.000069
 272	2.6965e+01	5.3976	57.038672	0.000426	4.256582	0.721084	0.000085
 273	2.7064e+01	5.4189	57.167861	0.000649	6.486220	1.098795	0.000130
 274	2.7163e+01	5.4395	57.260715	0.000466	4.661970	0.789759	0.000093
 275	2.7263e+01	5.4577	57.337420	0.000385	3.851193	0.652410	0.000077
 276	2.7363e+01	5.4775	57.458534	0.000608	6.080831	1.030121	0.000122
 277	2.7462e+01	5.4972	57.539277	0.000405	4.053887	0.686747	0.000081
 278	2.7561e+01	5.5172	57.640205	0.000507	5.067359	0.858434	0.000101
 279	2.7661e+01	5.5376	57.737097	0.000486	4.864665	0.824097	0.000097
 280	2.7761e+01	5.5567	57.838025	0.000507	5.067359	0.858434	0.000101
 281	2.7860e+01	5.5779	57.906656	0.000345	3.445804	0.583735	0.000069
 282	2.7959e+01	5.5975	58.031808	0.000628	6.283525	1.064458	0.000126
 283	2.8059e+01	5.6171	58.096402	0.000324	3.243110	0.549398	0.000065
 284	2.8159e+01	5.6368	58.209442	0.000568	5.675442	0.961446	0.000114
 285	2.8258e+01	5.6582	58.294221	0.000426	4.256582	0.721084	0.000085
 286	2.8358e+01	5.6767	58.379001	0.000426	4.256582	0.721084	0.000085
 287	2.8457e+01	5.6976	58.488004	0.000547	5.472748	0.927109	0.000110
 288	2.8556e+01	5.7171	58.548561	0.000304	3.040416	0.515060	0.000061
 289	2.8656e+01	5.7365	58.669675	0.000608	6.080831	1.030121	0.000122
 290	2.8756e+01	5.7560	58.786752	0.000588	5.878137	0.995783	0.000118
 291	2.8855e+01	5.7769	58.847309	0.000304	3.040416	0.515060	0.000061
 292	2.8954e+01	5.7964	58.968423	0.000608	6.080831	1.030121	0.000122
 293	2.9054e+01	5.8166	59.033017	0.000324	3.243110	0.549398	0.000065
 294	2.9154e+01	5.8355	59.146057	0.000568	5.675442	0.961446	0.000114
 295	2.9253e+01	5.8561	59.198540	0.000264	2.635027	0.446386	0.000053
 296	2.9352e+01	5.8768	59.307543	0.000547	5.472748	0.927109	0.000110
 297	2.9452e+01	5.8965	59.400397	0.000466	4.661970	0.789759	0.000093
 298	2.9552e+01	5.9162	59.481139	0.000405	4.053887	0.686747	0.000081
 299	2.9651e+01	5.9371	59.578031	0.000486	4.864665	0.824097	0.000097
 300	2.9750e+01	5.9556	59.678959	0.000507	5.067359	0.858434	0.000101
 301	2.9850e+01	5.9753	59.791999	0.000568	5.675442	0.961446	0.000114
 302	2.9950e+01	5.9960	59.844482	0.000264	2.635027	0.446386	0.000053
 303	3.0049e+01	6.0155	59.937336	0.000466	4.661970	0.789759	0.000093
 304	3.0148e+01	6.0352	60.005967	0.000345	3.445804	0.583735	0.000069
 305	3.0248e+01	6.0552	60.098821	0.000466	4.661970	0.789759	0.000093
 306	3.0348e+01	6.0757	60.199750	0.000507	5.067359	0.858434	0.000101
 307	3.0447e+01	6.0955	60.292604	0.000466	4.661970	0.789759	0.000093
 308	3.0547e+01	6.1147	60.389495	0.000486	4.864665	0.824097	0.000097
 309	3.0646e+01	6.1358	60.470238	0.000405	4.053887	0.686747	0.000081
 310	3.0745e+01	6.1546	60.575203	0.000527	5.270054	0.892771	0.000105
 311	3.0845e+01	6.1752	60.672094	0.000486	4.864665	0.824097	0.000097
 312	3.0945e+01	6.1950	60.728614	0.000284	2.837721	0.480723	0.000057
 313	3.1044e+01	6.2148	60.845691	0.000588	5.878137	0.995783	0.000118
 314	3.1143e+01	6.2347	60.894137	0.000243	2.432332	0.412048	0.000049
 315	3.1243e+01	6.2546	60.978917	0.000426	4.256582	0.721084	0.000085
 316	3.1343e+01	6.2749	61.104068	0.000628	6.283525	1.064458	0.000126
 317	3.1442e+01	6.2951	61.196922	0.000466	4.661970	0.789759	0.000093
 318	3.1541e+01	6.3139	61.281702	0.000426	4.256582	0.721084	0.000085
 319	3.1641e+01	6.3338	61.386667	0.000527	5.270054	0.892771	0.000105
 320	3.1741e+01	6.3543	61.455299	0.000345	3.445804	0.583735	0.000069
 321	3.1840e+01	6.3737	61.532004	0.000385	3.851193	0.652410	0.000077
 322	3.1939e+01	6.3943	61.628896	0.000486	4.864665	0.824097	0.000097
 323	3.2039e+01	6.4141	61.733861	0.000527	5.270054	0.892771	0.000105
 324	3.2139e+01	6.4339	61.794418	0.000304	3.040416	0.515060	0.000061
 325	3.2238e+01	6.4529	61.891309	0.000486	4.864665	0.824097	0.000097
 326	3.2337e+01	6.4739	61.980126	0.000446	4.459276	0.755422	0.000089
 327	3.2437e+01	6.4944	62.068943	0.000446	4.459276	0.755422	0.000089
 328	3.2536e+01	6.5137	62.153723	0.000426	4.256582	0.721084	0.000085
 329	3.2636e+01	6.5333	62.246577	0.000466	4.661970	0.789759	0.000093
 330	3.2736e+01	6.5530	62.319246	0.000365	3.648499	0.618072	0.000073
 331	3.2835e+01	6.5728	62.416137	0.000486	4.864665	0.824097	0.000097
 332	3.2934e+01	6.5934	62.500917	0.000426	4.256582	0.721084	0.000085
 333	3.3034e+01	6.6134	62.622031	0.000608	6.080831	1.030121	0.000122
 334	3.3133e+01	6.6334	62.710848	0.000446	4.459276	0.755422	0.000089
 335	3.3233e+01	6.6515	62.799665	0.000446	4.459276	0.755422	0.000089
 336	3.3333e+01	6.6725	62.868296	0.000345	3.445804	0.583735	0.000069
 337	3.3432e+01	6.6928	62.916742	0.000243	2.432332	0.412048	0.000049
 338	3.3532e+01	6.7120	63.025745	0.000547	5.472748	0.927109	0.000110
 339	3.3631e+01	6.7336	63.126673	0.000507	5.067359	0.858434	0.000101
 340	3.3730e+01	6.7524	63.223564	0.000486	4.864665	0.824097	0.000097
 341	3.3830e+01	6.7730	63.276047	0.000264	2.635027	0.446386	0.000053
 342	3.3929e+01	6.7913	63.356790	0.000405	4.053887	0.686747	0.000081
 343	3.4029e+01	6.8125	63.453681	0.000486	4.864665	0.824097	0.000097
 344	3.4129e+01	6.8318	63.542498	0.000446	4.459276	0.755422	0.000089
 345	3.4228e+01	6.8529	63.611129	0.000345	3.445804	0.583735	0.000069
 346	3.4328e+01	6.8729	63.744355	0.000669	6.688914	1.133133	0.000134
 347	3.4427e+01	6.8921	63.776652	0.000162	1.621555	0.274699	0.000032
 348	3.4526e+01	6.9122	63.905840	0.000649	6.486220	1.098795	0.000130
 349	3.4626e+01	6.9329	63.958323	0.000264	2.635027	0.446386	0.000053
 350	3.4725e+01	6.9520	64.075400	0.000588	5.878137	0.995783	0.000118
 351	3.4825e+01	6.9719	64.148068	0.000365	3.648499	0.618072	0.000073
 352	3.4925e+01	6.9901	64.257071	0.000547	5.472748	0.927109	0.000110
 353	3.5024e+01	7.0113	64.329739	0.000365	3.648499	0.618072	0.000073
 354	3.5123e+01	7.0309	64.406445	0.000385	3.851193	0.652410	0.000077
 355	3.5223e+01	7.0512	64.519485	0.000568	5.675442	0.961446	0.000114
 356	3.5322e+01	7.0704	64.620413	0.000507	5.067359	0.858434	0.000101
 357	3.5422e+01	7.0911	64.693082	0.000365	3.648499	0.618072	0.000073
 358	3.5522e+01	7.1114	64.785936	0.000466	4.661970	0.789759	0.000093
 359	3.5621e+01	7.1321	64.830344	0.000223	2.229638	0.377711	0.000045
 360	3.5721e+01	7.1508	64.959533	0.000649	6.486220	1.098795	0.000130
 361	3.5820e+01	7.1716	65.020090	0.000304	3.040416	0.515060	0.000061
 362	3.5919e+01	7.1902	65.096795	0.000385	3.851193	0.652410	0.000077
 363	3.6019e+01	7.2106	65.217909	0.000608	6.080831	1.030121	0.000122
 364	3.6118e+01	7.2300	65.298652	0.000405	4.053887	0.686747	0.000081
 365	3.6218e+01	7.2489	65.411692	0.000568	5.675442	0.961446	0.000114
 366	3.6318e+01	7.2698	65.460137	0.000243	2.432332	0.412048	0.000049
 367	3.6417e+01	7.2900	65.540880	0.000405	4.053887	0.686747	0.000081
 368	3.6517e+01	7.3101	65.633734	0.000466	4.661970	0.789759	0.000093
 369	3.6616e+01	7.3316	65.706403	0.000365	3.648499	0.618072	0.000073
 370	3.6715e+01	7.3505	65.847702	0.000709	7.094303	1.201807	0.000142
 371	3.6815e+01	7.3693	65.892111	0.000223	2.229638	0.377711	0.000045
 372	3.6914e+01	7.3890	65.976891	0.000426	4.256582	0.721084	0.000085
 373	3.7014e+01	7.4099	66.061671	0.000426	4.256582	0.721084	0.000085
 374	3.7114e+01	7.4297	66.118191	0.000284	2.837721	0.480723	0.000057
 375	3.7213e+01	7.4497	66.215082	0.000486	4.864665	0.824097	0.000097
 376	3.7313e+01	7.4693	66.348307	0.000669	6.688914	1.133133	0.000134
 377	3.7412e+01	7.4896	66.400790	0.000264	2.635027	0.446386	0.000053
 378	3.7511e+01	7.5088	66.517867	0.000588	5.878137	0.995783	0.000118
 379	3.7611e+01	7.5296	66.574387	0.000284	2.837721	0.480723	0.000057
 380	3.7711e+01	7.5493	66.703575	0.000649	6.486220	1.098795	0.000130
 381	3.7810e+01	7.5697	66.788355	0.000426	4.256582	0.721084	0.000085
 382	3.7910e+01	7.5906	66.848912	0.000304	3.040416	0.515060	0.000061
 383	3.8009e+01	7.6081	66.933692	0.000426	4.256582	0.721084	0.000085
 384	3.8108e+01	7.6273	67.034620	0.000507	5.067359	0.858434	0.000101
 385	3.8208e+01	7.6495	67.103252	0.000345	3.445804	0.583735	0.000069
 386	3.8307e+01	7.6688	67.224366	0.000608	6.080831	1.030121	0.000122
 387	3.8407e+01	7.6884	67.292997	0.000345	3.445804	0.583735	0.000069
 388	3.8507e+01	7.7084	67.373740	0.000405	4.053887	0.686747	0.000081
 389	3.8606e+01	7.7284	67.490817	0.000588	5.878137	0.995783	0.000118
 390	3.8706e+01	7.7482	67.587708	0.000486	4.864665	0.824097	0.000097
 391	3.8805e+01	7.7679	67.672488	0.000426	4.256582	0.721084	0.000085
 392	3.8904e+01	7.7879	67.749193	0.000385	3.851193	0.652410	0.000077
 393	3.9004e+01	7.8082	67.846085	0.000486	4.864665	0.824097	0.000097
 394	3.9103e+01	7.8277	67.898567	0.000264	2.635027	0.446386	0.000053
 395	3.9203e+01	7.8469	68.031793	0.000669	6.688914	1.133133	0.000134
 396	3.9303e+01	7.8680	68.096387	0.000324	3.243110	0.549398	0.000065
 397	3.9402e+01	7.8873	68.152907	0.000284	2.837721	0.480723	0.000057
 398	3.9502e+01	7.9070	68.221538	0.000345	3.445804	0.583735	0.000069
 399	3.9601e+01	7.9270	68.326504	0.000527	5.270054	0.892771	0.000105
 400	3.9700e+01	7.9479	68.415321	0.000446	4.459276	0.755422	0.000089
 401	3.9800e+01	7.9681	68.492026	0.000385	3.851193	0.652410	0.000077
 402	3.9900e+01	7.9868	68.572769	0.000405	4.053887	0.686747	0.000081
 403	3.9999e+01	8.0079	68.673697	0.000507	5.067359	0.858434	0.000101
 404	4.0099e+01	8.0274	68.750403	0.000385	3.851193	0.652410	0.000077
 405	4.0198e+01	8.0473	68.810960	0.000304	3.040416	0.515060	0.000061
 406	4.0297e+01	8.0669	68.936111	0.000628	6.283525	1.064458	0.000126
 407	4.0397e+01	8.0869	69.004743	0.000345	3.445804	0.583735	0.000069
 408	4.0496e+01	8.1079	69.061263	0.000284	2.837721	0.480723	0.000057
 409	4.0596e+01	8.1272	69.146042	0.000426	4.256582	0.721084	0.000085
 410	4.0696e+01	8.1474	69.238896	0.000466	4.661970	0.789759	0.000093
 411	4.0795e+01	8.1669	69.327713	0.000446	4.459276	0.755422	0.000089
 412	4.0895e+01	8.1857	69.424605	0.000486	4.864665	0.824097	0.000097
 413	4.0994e+01	8.2063	69.525533	0.000507	5.067359	0.858434	0.000101
 414	4.1093e+01	8.2264	69.582053	0.000284	2.837721	0.480723	0.000057
 415	4.1193e+01	8.2457	69.654721	0.000365	3.648499	0.618072	0.000073
 416	4.1292e+01	8.2661	69.735464	0.000405	4.053887	0.686747	0.000081
 417	4.1392e+01	8.2861	69.804095	0.000345	3.445804	0.583735	0.000069
 418	4.1492e+01	8.3057	69.925210	0.000608	6.080831	1.030121	0.000122
 419	4.1591e+01	8.3265	70.001915	0.000385	3.851193	0.652410	0.000077
 420	4.1691e+01	8.3459	70.066509	0.000324	3.243110	0.549398	0.000065
 421	4.1790e+01	8.3668	70.147252	0.000405	4.053887	0.686747	0.000081
 422	4.1889e+01	8.3863	70.252218	0.000527	5.270054	0.892771	0.000105
 423	4.1989e+01	8.4058	70.332960	0.000405	4.053887	0.686747	0.000081
 424	4.2089e+01	8.4255	70.441963	0.000547	5.472748	0.927109	0.000110
 425	4.2188e+01	8.4441	70.510594	0.000345	3.445804	0.583735	0.000069
 426	4.2288e+01	8.4653	70.587300	0.000385	3.851193	0.652410	0.000077
 427	4.2387e+01	8.4856	70.688228	0.000507	5.067359	0.858434	0.000101
 428	4.2486e+01	8.5043	70.756860	0.000345	3.445804	0.583735	0.000069
 429	4.2586e+01	8.5249	70.841639	0.000426	4.256582	0.721084	0.000085
 430	4.2685e+01	8.5455	70.910271	0.000345	3.445804	0.583735	0.000069
 431	4.2785e+01	8.5660	70.991013	0.000405	4.053887	0.686747	0.000081
 432	4.2885e+01	8.5852	71.063682	0.000365	3.648499	0.618072	0.000073
 433	4.2984e+01	8.6053	71.140387	0.000385	3.851193	0.652410	0.000077
 434	4.3084e+01	8.6256	71.245353	0.000527	5.270054	0.892771	0.000105
 435	4.3183e+01	8.6448	71.354356	0.000547	5.472748	0.927109	0.000110
 436	4.3282e+01	8.6646	71.394727	0.000203	2.026944	0.343374	0.000041
 437	4.3382e+01	8.6853	71.467395	0.000365	3.648499	0.618072	0.000073
 438	4.3481e+01	8.7049	71.588509	0.000608	6.080831	1.030121	0.000122
 439	4.3581e+01	8.7240	71.653104	0.000324	3.243110	0.549398	0.000065
 440	4.3681e+01	8.7438	71.729809	0.000385	3.851193	0.652410	0.000077
 441	4.3780e+01	8.7643	71.834775	0.000527	5.270054	0.892771	0.000105
 442	4.3880e+01	8.7836	71.863035	0.000142	1.418861	0.240361	0.000028
 443	4.3979e+01	8.8038	71.984149	0.000608	6.080831	1.030121	0.000122
 444	4.4078e+01	8.8241	72.048743	0.000324	3.243110	0.549398	0.000065
 445	4.4178e+01	8.8428	72.113337	0.000324	3.243110	0.549398	0.000065
 446	4.4278e+01	8.8628	72.202154	0.000446	4.459276	0.755422	0.000089
 447	4.4377e+01	8.8831	72.270785	0.000345	3.445804	0.583735	0.000069
 448	4.4477e+01	8.9037	72.379788	0.000547	5.472748	0.927109	0.000110
 449	4.4576e+01	8.9233	72.452457	0.000365	3.648499	0.618072	0.000073
 450	4.4675e+01	8.9425	72.513014	0.000304	3.040416	0.515060	0.000061
 451	4.4775e+01	8.9632	72.601831	0.000446	4.459276	0.755422	0.000089
 452	4.4874e+01	8.9829	72.698722	0.000486	4.864665	0.824097	0.000097
 453	4.4974e+01	9.0025	72.743130	0.000223	2.229638	0.377711	0.000045
 454	4.5074e+01	9.0228	72.835984	0.000466	4.661970	0.789759	0.000093
 455	4.5173e+01	9.0426	72.908653	0.000365	3.648499	0.618072	0.000073
 456	4.5273e+01	9.0630	72.961136	0.000264	2.635027	0.446386	0.000053
 457	4.5372e+01	9.0821	73.074175	0.000568	5.675442	0.961446	0.000114
 458	4.5471e+01	9.1022	73.130695	0.000284	2.837721	0.480723	0.000057
 459	4.5571e+01	9.1221	73.219512	0.000446	4.459276	0.755422	0.000089
 460	4.5670e+01	9.1419	73.320441	0.000507	5.067359	0.858434	0.000101
 461	4.5770e+01	9.1615	73.360812	0.000203	2.026944	0.343374	0.000041
 462	4.5870e+01	9.1808	73.441555	0.000405	4.053887	0.686747	0.000081
 463	4.5969e+01	9.2017	73.498075	0.000284	2.837721	0.480723	0.000057
 464	4.6069e+01	9.2215	73.611114	0.000568	5.675442	0.961446	0.000114
 465	4.6168e+01	9.2422	73.655523	0.000223	2.229638	0.377711	0.000045
 466	4.6267e+01	9.2617	73.764526	0.000547	5.472748	0.927109	0.000110
 467	4.6367e+01	9.2825	73.849305	0.000426	4.256582	0.721084	0.000085
 468	4.6467e+01	9.3018	73.877565	0.000142	1.418861	0.240361	0.000028
 469	4.6566e+01	9.3213	73.974457	0.000486	4.864665	0.824097	0.000097
 470	4.6666e+01	9.3415	74.010791	0.000182	1.824249	0.309036	0.000037
 471	4.6765e+01	9.3616	74.144016	0.000669	6.688914	1.133133	0.000134
 472	4.6864e+01	9.3818	74.188425	0.000223	2.229638	0.377711	0.000045
 473	4.6964e+01	9.4007	74.265130	0.000385	3.851193	0.652410	0.000077
 474	4.7063e+01	9.4204	74.333762	0.000345	3.445804	0.583735	0.000069
 475	4.7163e+01	9.4410	74.382207	0.000243	2.432332	0.412048	0.000049
 476	4.7263e+01	9.4604	74.499284	0.000588	5.878137	0.995783	0.000118
 477	4.7362e+01	9.4801	74.555804	0.000284	2.837721	0.480723	0.000057
 478	4.7462e+01	9.5002	74.640584	0.000426	4.256582	0.721084	0.000085
 479	4.7561e+01	9.5200	74.684993	0.000223	2.229638	0.377711	0.000045
 480	4.7660e+01	9.5394	74.781884	0.000486	4.864665	0.824097	0.000097
 481	4.7760e+01	9.5608	74.862627	0.000405	4.053887	0.686747	0.000081
 482	4.7859e+01	9.5801	74.951444	0.000446	4.459276	0.755422	0.000089
 483	4.7959e+01	9.5990	75.036223	0.000426	4.256582	0.721084	0.000085
 484	4.8059e+01	9.6204	75.104855	0.000345	3.445804	0.583735	0.000069
 485	4.8158e+01	9.6401	75.197709	0.000466	4.661970	0.789759	0.000093
 486	4.8258e+01	9.6591	75.246154	0.000243	2.432332	0.412048	0.000049
 487	4.8357e+01	9.6802	75.306711	0.000304	3.040416	0.515060	0.000061
 488	4.8456e+01	9.6997	75.387454	0.000405	4.053887	0.686747	0.000081
 489	4.8556e+01	9.7194	75.508568	0.000608	6.080831	1.030121	0.000122
 490	4.8656e+01	9.7400	75.557014	0.000243	2.432332	0.412048	0.000049
 491	4.8755e+01	9.7601	75.633719	0.000385	3.851193	0.652410	0.000077
 492	4.8855e+01	9.7786	75.706388	0.000365	3.648499	0.618072	0.000073
 493	4.8954e+01	9.8011	75.791168	0.000426	4.256582	0.721084	0.000085
 494	4.9053e+01	9.8193	75.867873	0.000385	3.851193	0.652410	0.000077
 495	4.9153e+01	9.8379	75.928430	0.000304	3.040416	0.515060	0.000061
 496	4.9252e+01	9.8586	76.005136	0.000385	3.851193	0.652410	0.000077
 497	4.9352e+01	9.8793	76.114139	0.000547	5.472748	0.927109	0.000110
 498	4.9452e+01	9.8988	76.174696	0.000304	3.040416	0.515060	0.000061
 499	4.9551e+01	9.9189	76.219104	0.000223	2.229638	0.377711	0.000045
 500	4.9651e+01	9.9374	76.320033	0.000507	5.067359	0.858434	0.000101
 501	4.9750e+01	9.9585	76.376552	0.000284	2.837721	0.480723	0.000057
 502	4.9849e+01	9.9780	76.477481	0.000507	5.067359	0.858434	0.000101
 503	4.9949e+01	9.9981	76.550149	0.000365	3.648499	0.618072	0.000073
 504	5.0048e+01	9.9784	76.493629	0.000284	2.837721	0.480723	-0.000057
 505	5.0148e+01	9.9597	76.453258	0.000203	2.026944	0.343374	-0.000041
 506	5.0248e+01	9.9384	76.392701	0.000304	3.040416	0.515060	-0.000061
 507	5.0347e+01	9.9188	76.287735	0.000527	5.270054	0.892771	-0.000105
 508	5.0447e+01	9.8988	76.291773	-0.000020	-0.202694	-0.034337	0.000004
 509	5.0546e+01	9.8792	76.235253	0.000284	2.837721	0.480723	-0.000057
 510	5.0645e+01	9.8591	76.134324	0.000507	5.067359	0.858434	-0.000101
 511	5.0745e+01	9.8392	76.085879	0.000243	2.432332	0.412048	-0.000049
 512	5.0844e+01	9.8187	76.045507	0.000203	2.026944	0.343374	-0.000041
 513	5.0944e+01	9.8000	76.005136	0.000203	2.026944	0.343374	-0.000041
 514	5.1044e+01	9.7803	75.904208	0.000507	5.067359	0.858434	-0.000101
 515	5.1143e+01	9.7598	75.867873	0.000182	1.824249	0.309036	-0.000037
 516	5.1242e+01	9.7393	75.791168	0.000385	3.851193	0.652410	-0.000077
 517	5.1342e+01	9.7196	75.718499	0.000365	3.648499	0.618072	-0.000073
 518	5.1441e+01	9.6990	75.666017	0.000264	2.635027	0.446386	-0.000053
 519	5.1541e+01	9.6802	75.653905	0.000061	0.608083	0.103012	-0.000012
 520	5.1641e+01	9.6596	75.552977	0.000507	5.067359	0.858434	-0.000101
 521	5.1740e+01	9.6392	75.480308	0.000365	3.648499	0.618072	-0.000073
 522	5.1840e+01	9.6194	75.460123	0.000101	1.013472	0.171687	-0.000020
 523	5.1939e+01	9.6002	75.399566	0.000304	3.040416	0.515060	-0.000061
 524	5.2038e+01	9.5803	75.318823	0.000405	4.053887	0.686747	-0.000081
 525	5.2138e+01	9.5601	75.262303	0.000284	2.837721	0.480723	-0.000057
 526	5.2237e+01	9.5405	75.201746	0.000304	3.040416	0.515060	-0.000061
 527	5.2337e+01	9.5205	75.141189	0.000304	3.040416	0.515060	-0.000061
 528	5.2437e+01	9.5004	75.068520	0.000365	3.648499	0.618072	-0.000073
 529	5.2536e+01	9.4810	75.036223	0.000162	1.621555	0.274699	-0.000032
 530	5.2636e+01	9.4595	74.983741	0.000264	2.635027	0.446386	-0.000053
 531	5.2735e+01	9.4405	74.927221	0.000284	2.837721	0.480723	-0.000057
 532	5.2834e+01	9.4207	74.850515	0.000385	3.851193	0.652410	-0.000077
 533	5.2934e+01	9.4013	74.765735	0.000426	4.256582	0.721084	-0.000085
 534	5.3033e+01	9.3821	74.741512	0.000122	1.216166	0.206024	-0.000024
 535	5.3133e+01	9.3610	74.656733	0.000426	4.256582	0.721084	-0.000085
 536	5.3233e+01	9.3408	74.620398	0.000182	1.824249	0.309036	-0.000037
 537	5.3332e+01	9.3215	74.519470	0.000507	5.067359	0.858434	-0.000101
 538	5.3431e+01	9.3018	74.483136	0.000182	1.824249	0.309036	-0.000037
 539	5.3531e+01	9.2822	74.414504	0.000345	3.445804	0.583735	-0.000069
 540	5.3630e+01	9.2616	74.378170	0.000182	1.824249	0.309036	-0.000037
 541	5.3730e+01	9.2417	74.293390	0.000426	4.256582	0.721084	-0.000085
 542	5.3830e+01	9.2207	74.269168	0.000122	1.216166	0.206024	-0.000024
 543	5.3929e+01	9.2016	74.188425	0.000405	4.053887	0.686747	-0.000081
 544	5.4029e+01	9.1809	74.087496	0.000507	5.067359	0.858434	-0.000101
 545	5.4128e+01	9.1622	74.051162	0.000182	1.824249	0.309036	-0.000037
 546	5.4227e+01	9.1431	73.998680	0.000264	2.635027	0.446386	-0.000053
 547	5.4327e+01	9.1222	73.897751	0.000507	5.067359	0.858434	-0.000101
 548	5.4426e+01	9.1022	73.881603	0.000081	0.810777	0.137349	-0.000016
 549	5.4526e+01	9.0826	73.833157	0.000243	2.432332	0.412048	-0.000049
 550	5.4626e+01	9.0627	73.756451	0.000385	3.851193	0.652410	-0.000077
 551	5.4725e+01	9.0434	73.691857	0.000324	3.243110	0.549398	-0.000065
 552	5.4825e+01	9.0232	73.627263	0.000324	3.243110	0.549398	-0.000065
 553	5.4924e+01	9.0029	73.526335	0.000507	5.067359	0.858434	-0.000101
 554	5.5023e+01	8.9822	73.534409	-0.000041	-0.405389	-0.068675	0.000008
 555	5.5123e+01	8.9625	73.437518	0.000486	4.864665	0.824097	-0.000097
 556	5.5222e+01	8.9433	73.360812	0.000385	3.851193	0.652410	-0.000077
 557	5.5322e+01	8.9230	73.300255	0.000304	3.040416	0.515060	-0.000061
 558	5.5422e+01	8.9027	73.263921	0.000182	1.824249	0.309036	-0.000037
 559	5.5521e+01	8.8830	73.203364	0.000304	3.040416	0.515060	-0.000061
 560	5.5620e+01	8.8651	73.138770	0.000324	3.243110	0.549398	-0.000065
 561	5.5720e+01	8.8428	73.086287	0.000264	2.635027	0.446386	-0.000053
 562	5.5819e+01	8.8239	72.997470	0.000446	4.459276	0.755422	-0.000089
 563	5.5919e+01	8.8049	72.912690	0.000426	4.256582	0.721084	-0.000085
 564	5.6019e+01	8.7844	72.876356	0.000182	1.824249	0.309036	-0.000037
 565	5.6118e+01	8.7643	72.803687	0.000365	3.648499	0.618072	-0.000073
 566	5.6218e+01	8.7435	72.710833	0.000466	4.661970	0.789759	-0.000093
 567	5.6317e+01	8.7240	72.682573	0.000142	1.418861	0.240361	-0.000028
 568	5.6416e+01	8.7042	72.622016	0.000304	3.040416	0.515060	-0.000061
 569	5.6516e+01	8.6846	72.549348	0.000365	3.648499	0.618072	-0.000073
 570	5.6615e+01	8.6649	72.480716	0.000345	3.445804	0.583735	-0.000069
 571	5.6715e+01	8.6434	72.383825	0.000486	4.864665	0.824097	-0.000097
 572	5.6815e+01	8.6231	72.375751	0.000041	0.405389	0.068675	-0.000008
 573	5.6914e+01	8.6047	72.295008	0.000405	4.053887	0.686747	-0.000081
 574	5.7014e+01	8.5845	72.230414	0.000324	3.243110	0.549398	-0.000065
 575	5.7113e+01	8.5666	72.133523	0.000486	4.864665	0.824097	-0.000097
 576	5.7212e+01	8.5450	72.028557	0.000527	5.270054	0.892771	-0.000105
 577	5.7312e+01	8.5254	71.980112	0.000243	2.432332	0.412048	-0.000049
 578	5.7411e+01	8.5047	71.963963	0.000081	0.810777	0.137349	-0.000016
 579	5.7511e+01	8.4853	71.867072	0.000486	4.864665	0.824097	-0.000097
 580	5.7611e+01	8.4669	71.822663	0.000223	2.229638	0.377711	-0.000045
 581	5.7710e+01	8.4449	71.749995	0.000365	3.648499	0.618072	-0.000073
 582	5.7809e+01	8.4256	71.661178	0.000446	4.459276	0.755422	-0.000089
 583	5.7909e+01	8.4058	71.576398	0.000426	4.256582	0.721084	-0.000085
 584	5.8008e+01	8.3860	71.531990	0.000223	2.229638	0.377711	-0.000045
 585	5.8108e+01	8.3655	71.463358	0.000345	3.445804	0.583735	-0.000069
 586	5.8208e+01	8.3459	71.406838	0.000284	2.837721	0.480723	-0.000057
 587	5.8307e+01	8.3257	71.334170	0.000365	3.648499	0.618072	-0.000073
 588	5.8407e+01	8.3051	71.265539	0.000345	3.445804	0.583735	-0.000069
 589	5.8506e+01	8.2854	71.241316	0.000122	1.216166	0.206024	-0.000024
 590	5.8605e+01	8.2666	71.120202	0.000608	6.080831	1.030121	-0.000122
 591	5.8705e+01	8.2464	71.083868	0.000182	1.824249	0.309036	-0.000037
 592	5.8804e+01	8.2263	71.011199	0.000365	3.648499	0.618072	-0.000073
 593	5.8904e+01	8.2053	70.926419	0.000426	4.256582	0.721084	-0.000085
 594	5.9004e+01	8.1861	70.894122	0.000162	1.621555	0.274699	-0.000032
 595	5.9103e+01	8.1665	70.773008	0.000608	6.080831	1.030121	-0.000122
 596	5.9203e+01	8.1466	70.704377	0.000345	3.445804	0.583735	-0.000069
 597	5.9302e+01	8.1204	70.647857	0.000284	2.837721	0.480723	-0.000057
 598	5.9401e+01	8.1066	70.599411	0.000243	2.432332	0.412048	-0.000049
 599	5.9501e+01	8.0875	70.530780	0.000345	3.445804	0.583735	-0.000069
 600	5.9600e+01	8.0664	70.437926	0.000466	4.661970	0.789759	-0.000093
 601	5.9700e+01	8.0470	70.377369	0.000304	3.040416	0.515060	-0.000061
 602	5.9800e+01	8.0261	70.292589	0.000426	4.256582	0.721084	-0.000085
 603	5.9899e+01	8.0074	70.240106	0.000264	2.635027	0.446386	-0.000053
 604	5.9998e+01	7.9871	70.159363	0.000405	4.053887	0.686747	-0.000081
 605	6.0098e+01	7.9678	70.074584	0.000426	4.256582	0.721084	-0.000085
 606	6.0197e+01	7.9481	70.046324	0.000142	1.418861	0.240361	-0.000028
 607	6.0297e+01	7.9280	69.969618	0.000385	3.851193	0.652410	-0.000077
 608	6.0397e+01	7.9073	69.900987	0.000345	3.445804	0.583735	-0.000069
 609	6.0496e+01	7.8869	69.796021	0.000527	5.270054	0.892771	-0.000105
 610	6.0596e+01	7.8677	69.739501	0.000284	2.837721	0.480723	-0.000057
 611	6.0695e+01	7.8469	69.678944	0.000304	3.040416	0.515060	-0.000061
 612	6.0794e+01	7.8274	69.646647	0.000162	1.621555	0.274699	-0.000032
 613	6.0894e+01	7.8088	69.533607	0.000568	5.675442	0.961446	-0.000114
 614	6.0993e+01	7.7889	69.444790	0.000446	4.459276	0.755422	-0.000089
 615	6.1093e+01	7.7670	69.412493	0.000162	1.621555	0.274699	-0.000032
 616	6.1193e+01	7.7522	69.335788	0.000385	3.851193	0.652410	-0.000077
 617	6.1292e+01	7.7284	69.246971	0.000446	4.459276	0.755422	-0.000089
 618	6.1392e+01	7.7081	69.166228	0.000405	4.053887	0.686747	-0.000081
 619	6.1491e+01	7.6882	69.085485	0.000405	4.053887	0.686747	-0.000081
 620	6.1590e+01	7.6677	69.037040	0.000243	2.432332	0.412048	-0.000049
 621	6.1690e+01	7.6481	68.940148	0.000486	4.864665	0.824097	-0.000097
 622	6.1789e+01	7.6295	68.895740	0.000223	2.229638	0.377711	-0.000045
 623	6.1889e+01	7.6092	68.774626	0.000608	6.080831	1.030121	-0.000122
 624	6.1989e+01	7.5889	68.714069	0.000304	3.040416	0.515060	-0.000061
 625	6.2088e+01	7.5701	68.673697	0.000203	2.026944	0.343374	-0.000041
 626	6.2188e+01	7.5489	68.568732	0.000527	5.270054	0.892771	-0.000105
 627	6.2287e+01	7.5286	68.483952	0.000426	4.256582	0.721084	-0.000085
 628	6.2386e+01	7.5107	68.411284	0.000365	3.648499	0.618072	-0.000073
 629	6.2486e+01	7.4905	68.366875	0.000223	2.229638	0.377711	-0.000045
 630	6.2586e+01	7.4697	68.253835	0.000568	5.675442	0.961446	-0.000114
 631	6.2685e+01	7.4493	68.185204	0.000345	3.445804	0.583735	-0.000069
 632	6.2785e+01	7.4297	68.120610	0.000324	3.243110	0.549398	-0.000065
 633	6.2884e+01	7.4096	68.035830	0.000426	4.256582	0.721084	-0.000085
 634	6.2983e+01	7.3919	67.942976	0.000466	4.661970	0.789759	-0.000093
 635	6.3083e+01	7.3698	67.862233	0.000405	4.053887	0.686747	-0.000081
 636	6.3182e+01	7.3502	67.797639	0.000324	3.243110	0.549398	-0.000065
 637	6.3282e+01	7.3307	67.733045	0.000324	3.243110	0.549398	-0.000065
 638	6.3382e+01	7.3100	67.632116	0.000507	5.067359	0.858434	-0.000101
 639	6.3481e+01	7.2906	67.579634	0.000264	2.635027	0.446386	-0.000053
 640	6.3581e+01	7.2706	67.478705	0.000507	5.067359	0.858434	-0.000101
 641	6.3680e+01	7.2510	67.381814	0.000486	4.864665	0.824097	-0.000097
 642	6.3779e+01	7.2297	67.313183	0.000345	3.445804	0.583735	-0.000069
 643	6.3879e+01	7.2100	67.244551	0.000345	3.445804	0.583735	-0.000069
 644	6.3978e+01	7.1911	67.151697	0.000466	4.661970	0.789759	-0.000093
 645	6.4078e+01	7.1706	67.111326	0.000203	2.026944	0.343374	-0.000041
 646	6.4177e+01	7.1504	67.042695	0.000345	3.445804	0.583735	-0.000069
 647	6.4277e+01	7.1316	66.909469	0.000669	6.688914	1.133133	-0.000134
 648	6.4376e+01	7.1110	66.844875	0.000324	3.243110	0.549398	-0.000065
 649	6.4476e+01	7.0914	66.760095	0.000426	4.256582	0.721084	-0.000085
 650	6.4576e+01	7.0715	66.695501	0.000324	3.243110	0.549398	-0.000065
 651	6.4675e+01	7.0511	66.610721	0.000426	4.256582	0.721084	-0.000085
 652	6.4775e+01	7.0313	66.517867	0.000466	4.661970	0.789759	-0.000093
 653	6.4874e+01	7.0116	66.481533	0.000182	1.824249	0.309036	-0.000037
 654	6.4974e+01	6.9909	66.392716	0.000446	4.459276	0.755422	-0.000089
 655	6.5073e+01	6.9720	66.340233	0.000264	2.635027	0.446386	-0.000053
 656	6.5172e+01	6.9521	66.231230	0.000547	5.472748	0.927109	-0.000110
 657	6.5272e+01	6.9312	66.146450	0.000426	4.256582	0.721084	-0.000085
 658	6.5371e+01	6.9125	66.061671	0.000426	4.256582	0.721084	-0.000085
 659	6.5471e+01	6.8926	65.968817	0.000466	4.661970	0.789759	-0.000093
 660	6.5570e+01	6.8719	65.884037	0.000426	4.256582	0.721084	-0.000085
 661	6.5670e+01	6.8514	65.843665	0.000203	2.026944	0.343374	-0.000041
 662	6.5769e+01	6.8322	65.746774	0.000486	4.864665	0.824097	-0.000097
 663	6.5869e+01	6.8124	65.678143	0.000345	3.445804	0.583735	-0.000069
 664	6.5969e+01	6.7921	65.617586	0.000304	3.040416	0.515060	-0.000061
 665	6.6068e+01	6.7730	65.524732	0.000466	4.661970	0.789759	-0.000093
 666	6.6168e+01	6.7522	65.464175	0.000304	3.040416	0.515060	-0.000061
 667	6.6267e+01	6.7319	65.359209	0.000527	5.270054	0.892771	-0.000105
 668	6.6367e+01	6.7123	65.274429	0.000426	4.256582	0.721084	-0.000085
 669	6.6466e+01	6.6915	65.213872	0.000304	3.040416	0.515060	-0.000061
 670	6.6566e+01	6.6730	65.100832	0.000568	5.675442	0.961446	-0.000114
 671	6.6665e+01	6.6534	65.052387	0.000243	2.432332	0.412048	-0.000049
 672	6.6764e+01	6.6329	64.979718	0.000365	3.648499	0.618072	-0.000073
 673	6.6864e+01	6.6144	64.878790	0.000507	5.067359	0.858434	-0.000101
 674	6.6963e+01	6.5929	64.781899	0.000486	4.864665	0.824097	-0.000097
 675	6.7063e+01	6.5730	64.721342	0.000304	3.040416	0.515060	-0.000061
 676	6.7162e+01	6.5537	64.616376	0.000527	5.270054	0.892771	-0.000105
 677	6.7262e+01	6.5334	64.576005	0.000203	2.026944	0.343374	-0.000041
 678	6.7362e+01	6.5126	64.438742	0.000689	6.891609	1.167470	-0.000138
 679	6.7461e+01	6.4935	64.386259	0.000264	2.635027	0.446386	-0.000053
 680	6.7561e+01	6.4736	64.309554	0.000385	3.851193	0.652410	-0.000077
 681	6.7660e+01	6.4535	64.269182	0.000203	2.026944	0.343374	-0.000041
 682	6.7760e+01	6.4335	64.144031	0.000628	6.283525	1.064458	-0.000126
 683	6.7859e+01	6.4135	64.067326	0.000385	3.851193	0.652410	-0.000077
 684	6.7959e+01	6.3934	63.966397	0.000507	5.067359	0.858434	-0.000101
 685	6.8058e+01	6.3734	63.905840	0.000304	3.040416	0.515060	-0.000061
 686	6.8157e+01	6.3540	63.853357	0.000264	2.635027	0.446386	-0.000053
 687	6.8257e+01	6.3342	63.756466	0.000486	4.864665	0.824097	-0.000097
 688	6.8356e+01	6.3139	63.695909	0.000304	3.040416	0.515060	-0.000061
 689	6.8456e+01	6.2951	63.611129	0.000426	4.256582	0.721084	-0.000085
 690	6.8555e+01	6.2749	63.542498	0.000345	3.445804	0.583735	-0.000069
 691	6.8655e+01	6.2550	63.429458	0.000568	5.675442	0.961446	-0.000114
 692	6.8754e+01	6.2351	63.312381	0.000588	5.878137	0.995783	-0.000118
 693	6.8854e+01	6.2151	63.215490	0.000486	4.864665	0.824097	-0.000097
 694	6.8954e+01	6.1950	63.191267	0.000122	1.216166	0.206024	-0.000024
 695	6.9053e+01	6.1749	63.102450	0.000446	4.459276	0.755422	-0.000089
 696	6.9153e+01	6.1553	63.005559	0.000486	4.864665	0.824097	-0.000097
 697	6.9252e+01	6.1358	62.932890	0.000365	3.648499	0.618072	-0.000073
 698	6.9352e+01	6.1150	62.856185	0.000385	3.851193	0.652410	-0.000077
 699	6.9451e+01	6.0943	62.803702	0.000264	2.635027	0.446386	-0.000053
 700	6.9550e+01	6.0760	62.718922	0.000426	4.256582	0.721084	-0.000085
 701	6.9650e+01	6.0560	62.613957	0.000527	5.270054	0.892771	-0.000105
 702	6.9749e+01	6.0349	62.504954	0.000547	5.472748	0.927109	-0.000110
 703	6.9849e+01	6.0159	62.452471	0.000264	2.635027	0.446386	-0.000053
 704	6.9948e+01	5.9961	62.347506	0.000527	5.270054	0.892771	-0.000105
 705	7.0048e+01	5.9762	62.299060	0.000243	2.432332	0.412048	-0.000049
 706	7.0147e+01	5.9565	62.218317	0.000405	4.053887	0.686747	-0.000081
 707	7.0247e+01	5.9353	62.113352	0.000527	5.270054	0.892771	-0.000105
 708	7.0347e+01	5.9162	62.032609	0.000405	4.053887	0.686747	-0.000081
 709	7.0446e+01	5.8962	61.984164	0.000243	2.432332	0.412048	-0.000049
 710	7.0546e+01	5.8770	61.887272	0.000486	4.864665	0.824097	-0.000097
 711	7.0645e+01	5.8566	61.794418	0.000466	4.661970	0.789759	-0.000093
 712	7.0745e+01	5.8361	61.729824	0.000324	3.243110	0.549398	-0.000065
 713	7.0844e+01	5.8161	61.645044	0.000426	4.256582	0.721084	-0.000085
 714	7.0944e+01	5.7963	61.552190	0.000466	4.661970	0.789759	-0.000093
 715	7.1043e+01	5.7764	61.455299	0.000486	4.864665	0.824097	-0.000097
 716	7.1142e+01	5.7571	61.398779	0.000284	2.837721	0.480723	-0.000057
 717	7.1242e+01	5.7375	61.334185	0.000324	3.243110	0.549398	-0.000065
 718	7.1341e+01	5.7165	61.245368	0.000446	4.459276	0.755422	-0.000089
 719	7.1441e+01	5.6983	61.140402	0.000527	5.270054	0.892771	-0.000105
 720	7.1540e+01	5.6768	61.067734	0.000365	3.648499	0.618072	-0.000073
 721	7.1640e+01	5.6570	60.982954	0.000426	4.256582	0.721084	-0.000085
 722	7.1740e+01	5.6365	60.918360	0.000324	3.243110	0.549398	-0.000065
 723	7.1839e+01	5.6179	60.849728	0.000345	3.445804	0.583735	-0.000069
 724	7.1939e+01	5.5965	60.748800	0.000507	5.067359	0.858434	-0.000101
 725	7.2038e+01	5.5782	60.680169	0.000345	3.445804	0.583735	-0.000069
 726	7.2138e+01	5.5566	60.607500	0.000365	3.648499	0.618072	-0.000073
 727	7.2237e+01	5.5369	60.526758	0.000405	4.053887	0.686747	-0.000081
 728	7.2337e+01	5.5177	60.454089	0.000365	3.648499	0.618072	-0.000073
 729	7.2436e+01	5.4992	60.324901	0.000649	6.486220	1.098795	-0.000130
 730	7.2535e+01	5.4775	60.260307	0.000324	3.243110	0.549398	-0.000065
 731	7.2635e+01	5.4568	60.191675	0.000345	3.445804	0.583735	-0.000069
 732	7.2734e+01	5.4384	60.074598	0.000588	5.878137	0.995783	-0.000118
 733	7.2834e+01	5.4177	59.997893	0.000385	3.851193	0.652410	-0.000077
 734	7.2933e+01	5.3989	59.953484	0.000223	2.229638	0.377711	-0.000045
 735	7.3033e+01	5.3783	59.848519	0.000527	5.270054	0.892771	-0.000105
 736	7.3132e+01	5.3579	59.747590	0.000507	5.067359	0.858434	-0.000101
 737	7.3232e+01	5.3382	59.674922	0.000365	3.648499	0.618072	-0.000073
 738	7.3332e+01	5.3179	59.582068	0.000466	4.661970	0.789759	-0.000093
 739	7.3431e+01	5.2972	59.545734	0.000182	1.824249	0.309036	-0.000037
 740	7.3531e+01	5.2785	59.408471	0.000689	6.891609	1.167470	-0.000138
 741	7.3630e+01	5.2576	59.347914	0.000304	3.040416	0.515060	-0.000061
 742	7.3730e+01	5.2389	59.246986	0.000507	5.067359	0.858434	-0.000101
 743	7.3829e+01	5.2190	59.137983	0.000547	5.472748	0.927109	-0.000110
 744	7.3928e+01	5.1983	59.077426	0.000304	3.040416	0.515060	-0.000061
 745	7.4028e+01	5.1795	58.984572	0.000466	4.661970	0.789759	-0.000093
 746	7.4127e+01	5.1589	58.907866	0.000385	3.851193	0.652410	-0.000077
 747	7.4227e+01	5.1382	58.802901	0.000527	5.270054	0.892771	-0.000105
 748	7.4326e+01	5.1196	58.722158	0.000405	4.053887	0.686747	-0.000081
 749	7.4426e+01	5.1003	58.625267	0.000486	4.864665	0.824097	-0.000097
 750	7.4525e+01	5.0790	58.560672	0.000324	3.243110	0.549398	-0.000065
 751	7.4625e+01	5.0590	58.471855	0.000446	4.459276	0.755422	-0.000089
 752	7.4725e+01	5.0397	58.346704	0.000628	6.283525	1.064458	-0.000126
 753	7.4824e+01	5.0207	58.306333	0.000203	2.026944	0.343374	-0.000041
 754	7.4924e+01	5.0001	58.189256	0.000588	5.878137	0.995783	-0.000118
 755	7.5023e+01	4.9802	58.116588	0.000365	3.648499	0.618072	-0.000073
 756	7.5123e+01	4.9601	58.064105	0.000264	2.635027	0.446386	-0.000053
 757	7.5222e+01	4.9407	57.930879	0.000669	6.688914	1.133133	-0.000134
 758	7.5322e+01	4.9203	57.846099	0.000426	4.256582	0.721084	-0.000085
 759	7.5421e+01	4.9001	57.769394	0.000385	3.851193	0.652410	-0.000077
 760	7.5520e+01	4.8809	57.664428	0.000527	5.270054	0.892771	-0.000105
 761	7.5620e+01	4.8597	57.595797	0.000345	3.445804	0.583735	-0.000069
 762	7.5719e+01	4.8405	57.531203	0.000324	3.243110	0.549398	-0.000065
 763	7.5819e+01	4.8207	57.434312	0.000486	4.864665	0.824097	-0.000097
 764	7.5918e+01	4.8013	57.313198	0.000608	6.080831	1.030121	-0.000122
 765	7.6018e+01	4.7801	57.236492	0.000385	3.851193	0.652410	-0.000077
 766	7.6118e+01	4.7620	57.143638	0.000466	4.661970	0.789759	-0.000093
 767	7.6217e+01	4.7404	57.079044	0.000324	3.243110	0.549398	-0.000065
 768	7.6317e+01	4.7213	56.986190	0.000466	4.661970	0.789759	-0.000093
 769	7.6416e+01	4.7007	56.889298	0.000486	4.864665	0.824097	-0.000097
 770	7.6516e+01	4.6810	56.816630	0.000365	3.648499	0.618072	-0.000073
 771	7.6615e+01	4.6618	56.715701	0.000507	5.067359	0.858434	-0.000101
 772	7.6715e+01	4.6413	56.655144	0.000304	3.040416	0.515060	-0.000061
 773	7.6814e+01	4.6216	56.534030	0.000608	6.080831	1.030121	-0.000122
 774	7.6913e+01	4.6008	56.425028	0.000547	5.472748	0.927109	-0.000110
 775	7.7013e+01	4.5818	56.348322	0.000385	3.851193	0.652410	-0.000077
 776	7.7112e+01	4.5605	56.275654	0.000365	3.648499	0.618072	-0.000073
 777	7.7212e+01	4.5422	56.211059	0.000324	3.243110	0.549398	-0.000065
 778	7.7311e+01	4.5219	56.093983	0.000588	5.878137	0.995783	-0.000118
 779	7.7411e+01	4.5025	55.984980	0.000547	5.472748	0.927109	-0.000110
 780	7.7510e+01	4.4823	55.900200	0.000426	4.256582	0.721084	-0.000085
 781	7.7610e+01	4.4616	55.779086	0.000608	6.080831	1.030121	-0.000122
 782	7.7710e+01	4.4421	55.714492	0.000324	3.243110	0.549398	-0.000065
 783	7.7809e+01	4.4224	55.633749	0.000405	4.053887	0.686747	-0.000081
 784	7.7909e+01	4.4022	55.532821	0.000507	5.067359	0.858434	-0.000101
 785	7.8008e+01	4.3822	55.456115	0.000385	3.851193	0.652410	-0.000077
 786	7.8108e+01	4.3625	55.314815	0.000709	7.094303	1.201807	-0.000142
 787	7.8207e+01	4.3414	55.242147	0.000365	3.648499	0.618072	-0.000073
 788	7.8306e+01	4.3228	55.165441	0.000385	3.851193	0.652410	-0.000077
 789	7.8406e+01	4.3027	55.068550	0.000486	4.864665	0.824097	-0.000097
 790	7.8505e+01	4.2825	54.987807	0.000405	4.053887	0.686747	-0.000081
 791	7.8605e+01	4.2603	54.874768	0.000568	5.675442	0.961446	-0.000114
 792	7.8704e+01	4.2425	54.785951	0.000446	4.459276	0.755422	-0.000089
 793	7.8804e+01	4.2237	54.697134	0.000446	4.459276	0.755422	-0.000089
 794	7.8903e+01	4.2038	54.596205	0.000507	5.067359	0.858434	-0.000101
 795	7.9003e+01	4.1833	54.507388	0.000446	4.459276	0.755422	-0.000089
 796	7.9103e+01	4.1628	54.349940	0.000791	7.905080	1.339157	-0.000158
 797	7.9202e+01	4.1430	54.333791	0.000081	0.810777	0.137349	-0.000016
 798	7.9302e+01	4.1233	54.196529	0.000689	6.891609	1.167470	-0.000138
 799	7.9401e+01	4.1035	54.123860	0.000365	3.648499	0.618072	-0.000073
 800	7.9501e+01	4.0836	54.010820	0.000568	5.675442	0.961446	-0.000114
 801	7.9600e+01	4.0640	53.917966	0.000466	4.661970	0.789759	-0.000093
 802	7.9700e+01	4.0437	53.804927	0.000568	5.675442	0.961446	-0.000114
 803	7.9799e+01	4.0244	53.716110	0.000446	4.459276	0.755422	-0.000089
 804	7.9898e+01	4.0029	53.594995	0.000608	6.080831	1.030121	-0.000122
 805	7.9998e+01	3.9837	53.514253	0.000405	4.053887	0.686747	-0.000081
 806	8.0097e+01	3.9640	53.401213	0.000568	5.675442	0.961446	-0.000114
 807	8.0197e+01	3.9434	53.364879	0.000182	1.824249	0.309036	-0.000037
 808	8.0296e+01	3.9248	53.219542	0.000730	7.296997	1.236145	-0.000146
 809	8.0396e+01	3.9039	53.134762	0.000426	4.256582	0.721084	-0.000085
 810	8.0496e+01	3.8834	53.041908	0.000466	4.661970	0.789759	-0.000093
 811	8.0595e+01	3.8647	52.940980	0.000507	5.067359	0.858434	-0.000101
 812	8.0695e+01	3.8439	52.844088	0.000486	4.864665	0.824097	-0.000097
 813	8.0794e+01	3.8245	52.690677	0.000770	7.702386	1.304820	-0.000154
 814	8.0894e+01	3.8037	52.638194	0.000264	2.635027	0.446386	-0.000053
 815	8.0993e+01	3.7847	52.553414	0.000426	4.256582	0.721084	-0.000085
 816	8.1093e+01	3.7657	52.416152	0.000689	6.891609	1.167470	-0.000138
 817	8.1192e+01	3.7449	52.319261	0.000486	4.864665	0.824097	-0.000097
 818	8.1291e+01	3.7243	52.234481	0.000426	4.256582	0.721084	-0.000085
 819	8.1391e+01	3.7048	52.157775	0.000385	3.851193	0.652410	-0.000077
 820	8.1490e+01	3.6844	52.040698	0.000588	5.878137	0.995783	-0.000118
 821	8.1590e+01	3.6658	51.955918	0.000426	4.256582	0.721084	-0.000085
 822	8.1689e+01	3.6465	51.854990	0.000507	5.067359	0.858434	-0.000101
 823	8.1789e+01	3.6259	51.729839	0.000628	6.283525	1.064458	-0.000126
 824	8.1888e+01	3.6056	51.649096	0.000405	4.053887	0.686747	-0.000081
 825	8.1988e+01	3.5859	51.560279	0.000446	4.459276	0.755422	-0.000089
 826	8.2088e+01	3.5656	51.463388	0.000486	4.864665	0.824097	-0.000097
 827	8.2187e+01	3.5460	51.354385	0.000547	5.472748	0.927109	-0.000110
 828	8.2287e+01	3.5259	51.253457	0.000507	5.067359	0.858434	-0.000101
 829	8.2386e+01	3.5045	51.172714	0.000405	4.053887	0.686747	-0.000081
 830	8.2486e+01	3.4856	51.055637	0.000588	5.878137	0.995783	-0.000118
 831	8.2585e+01	3.4663	50.974894	0.000405	4.053887	0.686747	-0.000081
 832	8.2684e+01	3.4460	50.861855	0.000568	5.675442	0.961446	-0.000114
 833	8.2784e+01	3.4263	50.760926	0.000507	5.067359	0.858434	-0.000101
 834	8.2883e+01	3.4057	50.655961	0.000527	5.270054	0.892771	-0.000105
 835	8.2983e+01	3.3854	50.550995	0.000527	5.270054	0.892771	-0.000105
 836	8.3082e+01	3.3662	50.446030	0.000527	5.270054	0.892771	-0.000105
 837	8.3182e+01	3.3466	50.324916	0.000608	6.080831	1.030121	-0.000122
 838	8.3281e+01	3.3257	50.256284	0.000345	3.445804	0.583735	-0.000069
 839	8.3381e+01	3.3067	50.147282	0.000547	5.472748	0.927109	-0.000110
 840	8.3481e+01	3.2864	50.014056	0.000669	6.688914	1.133133	-0.000134
 841	8.3580e+01	3.2674	49.957536	0.000284	2.837721	0.480723	-0.000057
 842	8.3680e+01	3.2458	49.828348	0.000649	6.486220	1.098795	-0.000130
 843	8.3779e+01	3.2277	49.751642	0.000385	3.851193	0.652410	-0.000077
 844	8.3879e+01	3.2063	49.638602	0.000568	5.675442	0.961446	-0.000114
 845	8.3978e+01	3.1866	49.545748	0.000466	4.661970	0.789759	-0.000093
 846	8.4078e+01	3.1670	49.493266	0.000264	2.635027	0.446386	-0.000053
 847	8.4177e+01	3.1485	49.380226	0.000568	5.675442	0.961446	-0.000114
 848	8.4276e+01	3.1274	49.251037	0.000649	6.486220	1.098795	-0.000130
 849	8.4376e+01	3.1080	49.162220	0.000446	4.459276	0.755422	-0.000089
 850	8.4475e+01	3.0874	49.053218	0.000547	5.472748	0.927109	-0.000110
 851	8.4575e+01	3.0679	48.948252	0.000527	5.270054	0.892771	-0.000105
 852	8.4674e+01	3.0479	48.827138	0.000608	6.080831	1.030121	-0.000122
 853	8.4774e+01	3.0265	48.738321	0.000446	4.459276	0.755422	-0.000089
 854	8.4874e+01	3.0082	48.653541	0.000426	4.256582	0.721084	-0.000085
 855	8.4973e+01	2.9873	48.524353	0.000649	6.486220	1.098795	-0.000130
 856	8.5073e+01	2.9671	48.419387	0.000527	5.270054	0.892771	-0.000105
 857	8.5172e+01	2.9482	48.310385	0.000547	5.472748	0.927109	-0.000110
 858	8.5272e+01	2.9275	48.213494	0.000486	4.864665	0.824097	-0.000097
 859	8.5371e+01	2.9075	48.112565	0.000507	5.067359	0.858434	-0.000101
 860	8.5471e+01	2.8876	47.995488	0.000588	5.878137	0.995783	-0.000118
 861	8.5570e+01	2.8677	47.926857	0.000345	3.445804	0.583735	-0.000069
 862	8.5669e+01	2.8472	47.850151	0.000385	3.851193	0.652410	-0.000077
 863	8.5769e+01	2.8286	47.737112	0.000568	5.675442	0.961446	-0.000114
 864	8.5868e+01	2.8078	47.611960	0.000628	6.283525	1.064458	-0.000126
 865	8.5968e+01	2.7882	47.519106	0.000466	4.661970	0.789759	-0.000093
 866	8.6067e+01	2.7680	47.418178	0.000507	5.067359	0.858434	-0.000101
 867	8.6167e+01	2.7477	47.297064	0.000608	6.080831	1.030121	-0.000122
 868	8.6266e+01	2.7287	47.184024	0.000568	5.675442	0.961446	-0.000114
 869	8.6366e+01	2.7082	47.083096	0.000507	5.067359	0.858434	-0.000101
 870	8.6466e+01	2.6887	47.022539	0.000304	3.040416	0.515060	-0.000061
 871	8.6565e+01	2.6696	46.885276	0.000689	6.891609	1.167470	-0.000138
 872	8.6665e+01	2.6487	46.828756	0.000284	2.837721	0.480723	-0.000057
 873	8.6764e+01	2.6294	46.699568	0.000649	6.486220	1.098795	-0.000130
 874	8.6864e+01	2.6093	46.622862	0.000385	3.851193	0.652410	-0.000077
 875	8.6963e+01	2.5898	46.469451	0.000770	7.702386	1.304820	-0.000154
 876	8.7063e+01	2.5693	46.400820	0.000345	3.445804	0.583735	-0.000069
 877	8.7162e+01	2.5492	46.271631	0.000649	6.486220	1.098795	-0.000130
 878	8.7261e+01	2.5301	46.194926	0.000385	3.851193	0.652410	-0.000077
 879	8.7361e+01	2.5088	46.114183	0.000405	4.053887	0.686747	-0.000081
 880	8.7460e+01	2.4872	45.964809	0.000750	7.499692	1.270482	-0.000150
 881	8.7560e+01	2.4700	45.888103	0.000385	3.851193	0.652410	-0.000077
 882	8.7659e+01	2.4499	45.775064	0.000568	5.675442	0.961446	-0.000114
 883	8.7759e+01	2.4305	45.706432	0.000345	3.445804	0.583735	-0.000069
 884	8.7859e+01	2.4100	45.649912	0.000284	2.837721	0.480723	-0.000057
 885	8.7958e+01	2.3908	45.476316	0.000872	8.715858	1.476506	-0.000174
 886	8.8058e+01	2.3699	45.363276	0.000568	5.675442	0.961446	-0.000114
 887	8.8157e+01	2.3501	45.274459	0.000446	4.459276	0.755422	-0.000089
 888	8.8257e+01	2.3304	45.197753	0.000385	3.851193	0.652410	-0.000077
 889	8.8356e+01	2.3106	45.068565	0.000649	6.486220	1.098795	-0.000130
 890	8.8456e+01	2.2895	44.987822	0.000405	4.053887	0.686747	-0.000081
 891	8.8555e+01	2.2704	44.850559	0.000689	6.891609	1.167470	-0.000138
 892	8.8654e+01	2.2504	44.765780	0.000426	4.256582	0.721084	-0.000085
 893	8.8754e+01	2.2308	44.705223	0.000304	3.040416	0.515060	-0.000061
 894	8.8853e+01	2.2112	44.555849	0.000750	7.499692	1.270482	-0.000150
 895	8.8953e+01	2.1920	44.458957	0.000486	4.864665	0.824097	-0.000097
 896	8.9052e+01	2.1710	44.378215	0.000405	4.053887	0.686747	-0.000081
 897	8.9152e+01	2.1513	44.265175	0.000568	5.675442	0.961446	-0.000114
 898	8.9251e+01	2.1313	44.156172	0.000547	5.472748	0.927109	-0.000110
 899	8.9351e+01	2.1114	44.031021	0.000628	6.283525	1.064458	-0.000126
 900	8.9451e+01	2.0904	43.938167	0.000466	4.661970	0.789759	-0.000093
 901	8.9550e+01	2.0709	43.813016	0.000628	6.283525	1.064458	-0.000126
 902	8.9650e+01	2.0533	43.740347	0.000365	3.648499	0.618072	-0.000073
 903	8.9749e+01	2.0321	43.615196	0.000628	6.283525	1.064458	-0.000126
 904	8.9849e+01	2.0110	43.498119	0.000588	5.878137	0.995783	-0.000118
 905	8.9948e+01	1.9915	43.405265	0.000466	4.661970	0.789759	-0.000093
 906	9.0047e+01	1.9714	43.304336	0.000507	5.067359	0.858434	-0.000101
 907	9.0147e+01	1.9520	43.215520	0.000446	4.459276	0.755422	-0.000089
 908	9.0246e+01	1.9314	43.102480	0.000568	5.675442	0.961446	-0.000114
 909	9.0346e+01	1.9118	42.981366	0.000608	6.080831	1.030121	-0.000122
 910	9.0445e+01	1.8920	42.852177	0.000649	6.486220	1.098795	-0.000130
 911	9.0545e+01	1.8716	42.763360	0.000446	4.459276	0.755422	-0.000089
 912	9.0644e+01	1.8517	42.666469	0.000486	4.864665	0.824097	-0.000097
 913	9.0744e+01	1.8330	42.569578	0.000486	4.864665	0.824097	-0.000097
 914	9.0844e+01	1.8125	42.444427	0.000628	6.283525	1.064458	-0.000126
 915	9.0943e+01	1.7921	42.331387	0.000568	5.675442	0.961446	-0.000114
 916	9.1043e+01	1.7726	42.242570	0.000446	4.459276	0.755422	-0.000089
 917	9.1142e+01	1.7528	42.125493	0.000588	5.878137	0.995783	-0.000118
 918	9.1242e+01	1.7321	42.008416	0.000588	5.878137	0.995783	-0.000118
 919	9.1341e+01	1.7123	41.907488	0.000507	5.067359	0.858434	-0.000101
 920	9.1441e+01	1.6923	41.782336	0.000628	6.283525	1.064458	-0.000126
 921	9.1540e+01	1.6724	41.709668	0.000365	3.648499	0.618072	-0.000073
 922	9.1639e+01	1.6527	41.580480	0.000649	6.486220	1.098795	-0.000130
 923	9.1739e+01	1.6323	41.503774	0.000385	3.851193	0.652410	-0.000077
 924	9.1838e+01	1.6129	41.410920	0.000466	4.661970	0.789759	-0.000093
 925	9.1938e+01	1.5926	41.229249	0.000912	9.121247	1.545181	-0.000183
 926	9.2037e+01	1.5731	41.156580	0.000365	3.648499	0.618072	-0.000073
 927	9.2137e+01	1.5535	41.075838	0.000405	4.053887	0.686747	-0.000081
 928	9.2237e+01	1.5325	40.970872	0.000527	5.270054	0.892771	-0.000105
 929	9.2336e+01	1.5140	40.861869	0.000547	5.472748	0.927109	-0.000110
 930	9.2436e+01	1.4925	40.732681	0.000649	6.486220	1.098795	-0.000130
 931	9.2535e+01	1.4724	40.627715	0.000527	5.270054	0.892771	-0.000105
 932	9.2635e+01	1.4536	40.530824	0.000486	4.864665	0.824097	-0.000097
 933	9.2734e+01	1.4337	40.397599	0.000669	6.688914	1.133133	-0.000134
 934	9.2834e+01	1.4131	40.288596	0.000547	5.472748	0.927109	-0.000110
 935	9.2933e+01	1.3933	40.207853	0.000405	4.053887	0.686747	-0.000081
 936	9.3032e+01	1.3736	40.066554	0.000709	7.094303	1.201807	-0.000142
 937	9.3132e+01	1.3532	39.937365	0.000649	6.486220	1.098795	-0.000130
 938	9.3231e+01	1.3336	39.852585	0.000426	4.256582	0.721084	-0.000085
 939	9.3331e+01	1.3140	39.759731	0.000466	4.661970	0.789759	-0.000093
 940	9.3430e+01	1.2936	39.634580	0.000628	6.283525	1.064458	-0.000126
 941	9.3530e+01	1.2741	39.489243	0.000730	7.296997	1.236145	-0.000146
 942	9.3629e+01	1.2535	39.428686	0.000304	3.040416	0.515060	-0.000061
 943	9.3729e+01	1.2350	39.327758	0.000507	5.067359	0.858434	-0.000101
 944	9.3829e+01	1.2148	39.198569	0.000649	6.486220	1.098795	-0.000130
 945	9.3928e+01	1.1942	39.069381	0.000649	6.486220	1.098795	-0.000130
 946	9.4028e+01	1.1742	38.956341	0.000568	5.675442	0.961446	-0.000114
 947	9.4127e+01	1.1552	38.891747	0.000324	3.243110	0.549398	-0.000065
 948	9.4227e+01	1.1356	38.750447	0.000709	7.094303	1.201807	-0.000142
 949	9.4326e+01	1.1154	38.641445	0.000547	5.472748	0.927109	-0.000110
 950	9.4425e+01	1.0943	38.528405	0.000568	5.675442	0.961446	-0.000114
 951	9.4525e+01	1.0760	38.407291	0.000608	6.080831	1.030121	-0.000122
 952	9.4624e+01	1.0558	38.290214	0.000588	5.878137	0.995783	-0.000118
 953	9.4724e+01	1.0349	38.193323	0.000486	4.864665	0.824097	-0.000097
 954	9.4823e+01	1.0157	38.060097	0.000669	6.688914	1.133133	-0.000134
 955	9.4923e+01	0.9966	37.955132	0.000527	5.270054	0.892771	-0.000105
 956	9.5022e+01	0.9760	37.817869	0.000689	6.891609	1.167470	-0.000138
 957	9.5122e+01	0.9560	37.737126	0.000405	4.053887	0.686747	-0.000081
 958	9.5222e+01	0.9364	37.587752	0.000750	7.499692	1.270482	-0.000150
 959	9.5321e+01	0.9157	37.486824	0.000507	5.067359	0.858434	-0.000101
 960	9.5421e+01	0.8960	37.381858	0.000527	5.270054	0.892771	-0.000105
 961	9.5520e+01	0.8763	37.276893	0.000527	5.270054	0.892771	-0.000105
 962	9.5620e+01	0.8572	37.163853	0.000568	5.675442	0.961446	-0.000114
 963	9.5719e+01	0.8371	37.038702	0.000628	6.283525	1.064458	-0.000126
 964	9.5819e+01	0.8166	36.925662	0.000568	5.675442	0.961446	-0.000114
 965	9.5918e+01	0.7956	36.784362	0.000709	7.094303	1.201807	-0.000142
 966	9.6017e+01	0.7760	36.707657	0.000385	3.851193	0.652410	-0.000077
 967	9.6117e+01	0.7567	36.566357	0.000709	7.094303	1.201807	-0.000142
 968	9.6216e+01	0.7370	36.429094	0.000689	6.891609	1.167470	-0.000138
 969	9.6316e+01	0.7165	36.380649	0.000243	2.432332	0.412048	-0.000049
 970	9.6415e+01	0.6969	36.223200	0.000791	7.905080	1.339157	-0.000158
 971	9.6515e+01	0.6781	36.102086	0.000608	6.080831	1.030121	-0.000122
 972	9.6615e+01	0.6575	35.980972	0.000608	6.080831	1.030121	-0.000122
 973	9.6714e+01	0.6368	35.884081	0.000486	4.864665	0.824097	-0.000097
 974	9.6814e+01	0.6177	35.730670	0.000770	7.702386	1.304820	-0.000154
 975	9.6913e+01	0.5970	35.613593	0.000588	5.878137	0.995783	-0.000118
 976	9.7013e+01	0.5768	35.488442	0.000628	6.283525	1.064458	-0.000126
 977	9.7112e+01	0.5576	35.383476	0.000527	5.270054	0.892771	-0.000105
 978	9.7212e+01	0.5379	35.314845	0.000345	3.445804	0.583735	-0.000069
 979	9.7311e+01	0.5181	35.137211	0.000892	8.918552	1.510844	-0.000179
 980	9.7410e+01	0.4972	35.020134	0.000588	5.878137	0.995783	-0.000118
 981	9.7510e+01	0.4770	34.903057	0.000588	5.878137	0.995783	-0.000118
 982	9.7609e+01	0.4582	34.785980	0.000588	5.878137	0.995783	-0.000118
 983	9.7709e+01	0.4375	34.664866	0.000608	6.080831	1.030121	-0.000122
 984	9.7808e+01	0.4180	34.523566	0.000709	7.094303	1.201807	-0.000142
 985	9.7908e+01	0.3976	34.471083	0.000264	2.635027	0.446386	-0.000053
 986	9.8007e+01	0.3776	34.341895	0.000649	6.486220	1.098795	-0.000130
 987	9.8107e+01	0.3571	34.200595	0.000709	7.094303	1.201807	-0.000142
 988	9.8207e+01	0.3384	34.099667	0.000507	5.067359	0.858434	-0.000101
 989	9.8306e+01	0.3182	33.998739	0.000507	5.067359	0.858434	-0.000101
 990	9.8406e+01	0.2978	33.849365	0.000750	7.499692	1.270482	-0.000150
 991	9.8505e+01	0.2782	33.728251	0.000608	6.080831	1.030121	-0.000122
 992	9.8605e+01	0.2586	33.619248	0.000547	5.472748	0.927109	-0.000110
 993	9.8704e+01	0.2387	33.469874	0.000750	7.499692	1.270482	-0.000150
 994	9.8803e+01	0.2180	33.381057	0.000446	4.459276	0.755422	-0.000089
 995	9.8903e+01	0.1980	33.268017	0.000568	5.675442	0.961446	-0.000114
 996	9.9002e+01	0.1789	33.175163	0.000466	4.661970	0.789759	-0.000093
 997	9.9102e+01	0.1591	33.037900	0.000689	6.891609	1.167470	-0.000138
 998	9.9201e+01	0.1393	32.864303	0.000872	8.715858	1.476506	-0.000174
 999	9.9301e+01	0.1186	32.755301	0.000547	5.472748	0.927109	-0.000110
1000	9.9400e+01	0.0992	32.670521	0.000426	4.256582	0.721084	-0.000085
1001	9.9500e+01	0.0787	32.537295	0.000669	6.688914	1.133133	-0.000134
1002	9.9600e+01	0.0590	32.432330	0.000527	5.270054	0.892771	-0.000105
1003	9.9699e+01	0.0390	32.311216	0.000608	6.080831	1.030121	-0.000122
1004	9.9799e+01	0.0194	32.226436	0.000426	4.256582	0.721084	-0.000085
1005	9.9898e+01	0.0001	32.073025	0.000770	7.702386	1.304820	-0.000154
1006	9.9998e+01	-0.0188	32.008431	0.000324	3.243110	0.549398	-0.000065
1007	1.0010e+02	-0.0393	31.822722	0.000932	9.323941	1.579518	-0.000187
1008	1.0020e+02	-0.0591	31.709683	0.000568	5.675442	0.961446	-0.000114
1009	1.0030e+02	-0.0789	31.628940	0.000405	4.053887	0.686747	-0.000081
1010	1.0040e+02	-0.0986	31.483603	0.000730	7.296997	1.236145	-0.000146
1011	1.0050e+02	-0.1188	31.362489	0.000608	6.080831	1.030121	-0.000122
1012	1.0059e+02	-0.1377	31.229264	0.000669	6.688914	1.133133	-0.000134
1013	1.0069e+02	-0.1588	31.132372	0.000486	4.864665	0.824097	-0.000097
1014	1.0079e+02	-0.1774	30.966850	0.000831	8.310469	1.407832	-0.000166
1015	1.0089e+02	-0.1988	30.857847	0.000547	5.472748	0.927109	-0.000110
1016	1.0099e+02	-0.2171	30.732696	0.000628	6.283525	1.064458	-0.000126
1017	1.0109e+02	-0.2388	30.583322	0.000750	7.499692	1.270482	-0.000150
1018	1.0119e+02	-0.2581	30.498542	0.000426	4.256582	0.721084	-0.000085
1019	1.0129e+02	-0.2770	30.381465	0.000588	5.878137	0.995783	-0.000118
1020	1.0139e+02	-0.2979	30.284574	0.000486	4.864665	0.824097	-0.000097
1021	1.0149e+02	-0.3178	30.167497	0.000588	5.878137	0.995783	-0.000118
1022	1.0159e+02	-0.3388	30.001974	0.000831	8.310469	1.407832	-0.000166
1023	1.0169e+02	-0.3574	29.925269	0.000385	3.851193	0.652410	-0.000077
1024	1.0179e+02	-0.3767	29.771858	0.000770	7.702386	1.304820	-0.000154
1025	1.0189e+02	-0.3969	29.650743	0.000608	6.080831	1.030121	-0.000122
1026	1.0199e+02	-0.4171	29.553852	0.000486	4.864665	0.824097	-0.000097
1027	1.0209e+02	-0.4382	29.444850	0.000547	5.472748	0.927109	-0.000110
1028	1.0219e+02	-0.4581	29.335847	0.000547	5.472748	0.927109	-0.000110
1029	1.0229e+02	-0.4774	29.170324	0.000831	8.310469	1.407832	-0.000166
1030	1.0239e+02	-0.4979	29.097656	0.000365	3.648499	0.618072	-0.000073
1031	1.0248e+02	-0.5170	28.964430	0.000669	6.688914	1.133133	-0.000134
1032	1.0258e+02	-0.5370	28.802945	0.000811	8.107775	1.373494	-0.000162
1033	1.0268e+02	-0.5572	28.702017	0.000507	5.067359	0.858434	-0.000101
1034	1.0278e+02	-0.5771	28.605125	0.000486	4.864665	0.824097	-0.000097
1035	1.0288e+02	-0.5972	28.467863	0.000689	6.891609	1.167470	-0.000138
1036	1.0298e+02	-0.6165	28.391157	0.000385	3.851193	0.652410	-0.000077
1037	1.0308e+02	-0.6362	28.249857	0.000709	7.094303	1.201807	-0.000142
1038	1.0318e+02	-0.6554	28.120669	0.000649	6.486220	1.098795	-0.000130
1039	1.0328e+02	-0.6773	28.015703	0.000527	5.270054	0.892771	-0.000105
1040	1.0338e+02	-0.6969	27.878441	0.000689	6.891609	1.167470	-0.000138
1041	1.0348e+02	-0.7159	27.741178	0.000689	6.891609	1.167470	-0.000138
1042	1.0358e+02	-0.7367	27.636213	0.000527	5.270054	0.892771	-0.000105
1043	1.0368e+02	-0.7563	27.511061	0.000628	6.283525	1.064458	-0.000126
1044	1.0378e+02	-0.7764	27.410133	0.000507	5.067359	0.858434	-0.000101
1045	1.0388e+02	-0.7958	27.268833	0.000709	7.094303	1.201807	-0.000142
1046	1.0398e+02	-0.8154	27.196165	0.000365	3.648499	0.618072	-0.000073
1047	1.0408e+02	-0.8360	27.034679	0.000811	8.107775	1.373494	-0.000162
1048	1.0418e+02	-0.8553	26.933751	0.000507	5.067359	0.858434	-0.000101
1049	1.0428e+02	-0.8761	26.857045	0.000385	3.851193	0.652410	-0.000077
1050	1.0438e+02	-0.8953	26.699597	0.000791	7.905080	1.339157	-0.000158
1051	1.0447e+02	-0.9155	26.582520	0.000588	5.878137	0.995783	-0.000118
1052	1.0457e+02	-0.9358	26.465443	0.000588	5.878137	0.995783	-0.000118
1053	1.0467e+02	-0.9556	26.320106	0.000730	7.296997	1.236145	-0.000146
1054	1.0477e+02	-0.9756	26.235327	0.000426	4.256582	0.721084	-0.000085
1055	1.0487e+02	-0.9953	26.126324	0.000547	5.472748	0.927109	-0.000110
1056	1.0497e+02	-1.0157	26.005210	0.000608	6.080831	1.030121	-0.000122
1057	1.0507e+02	-1.0352	25.851799	0.000770	7.702386	1.304820	-0.000154
1058	1.0517e+02	-1.0552	25.771056	0.000405	4.053887	0.686747	-0.000081
1059	1.0527e+02	-1.0759	25.637831	0.000669	6.688914	1.133133	-0.000134
1060	1.0537e+02	-1.0947	25.500568	0.000689	6.891609	1.167470	-0.000138
1061	1.0547e+02	-1.1147	25.387528	0.000568	5.675442	0.961446	-0.000114
1062	1.0557e+02	-1.1345	25.286600	0.000507	5.067359	0.858434	-0.000101
1063	1.0567e+02	-1.1546	25.157411	0.000649	6.486220	1.098795	-0.000130
1064	1.0577e+02	-1.1746	25.036297	0.000608	6.080831	1.030121	-0.000122
1065	1.0587e+02	-1.1949	24.899035	0.000689	6.891609	1.167470	-0.000138
1066	1.0597e+02	-1.2140	24.798106	0.000507	5.067359	0.858434	-0.000101
1067	1.0607e+02	-1.2338	24.668918	0.000649	6.486220	1.098795	-0.000130
1068	1.0617e+02	-1.2540	24.563952	0.000527	5.270054	0.892771	-0.000105
1069	1.0627e+02	-1.2738	24.434764	0.000649	6.486220	1.098795	-0.000130
1070	1.0637e+02	-1.2943	24.325761	0.000547	5.472748	0.927109	-0.000110
1071	1.0647e+02	-1.3139	24.224833	0.000507	5.067359	0.858434	-0.000101
1072	1.0656e+02	-1.3345	24.111793	0.000568	5.675442	0.961446	-0.000114
1073	1.0666e+02	-1.3541	23.942233	0.000851	8.513164	1.442169	-0.000170
1074	1.0676e+02	-1.3733	23.845342	0.000486	4.864665	0.824097	-0.000097
1075	1.0686e+02	-1.3946	23.736340	0.000547	5.472748	0.927109	-0.000110
1076	1.0696e+02	-1.4126	23.582928	0.000770	7.702386	1.304820	-0.000154
1077	1.0706e+02	-1.4339	23.490074	0.000466	4.661970	0.789759	-0.000093
1078	1.0716e+02	-1.4540	23.356849	0.000669	6.688914	1.133133	-0.000134
1079	1.0726e+02	-1.4740	23.247846	0.000547	5.472748	0.927109	-0.000110
1080	1.0736e+02	-1.4928	23.110584	0.000689	6.891609	1.167470	-0.000138
1081	1.0746e+02	-1.5140	23.005618	0.000527	5.270054	0.892771	-0.000105
1082	1.0756e+02	-1.5335	22.836058	0.000851	8.513164	1.442169	-0.000170
1083	1.0766e+02	-1.5527	22.775501	0.000304	3.040416	0.515060	-0.000061
1084	1.0776e+02	-1.5730	22.605942	0.000851	8.513164	1.442169	-0.000170
1085	1.0786e+02	-1.5924	22.492902	0.000568	5.675442	0.961446	-0.000114
1086	1.0796e+02	-1.6121	22.379862	0.000568	5.675442	0.961446	-0.000114
1087	1.0806e+02	-1.6329	22.250674	0.000649	6.486220	1.098795	-0.000130
1088	1.0816e+02	-1.6528	22.125522	0.000628	6.283525	1.064458	-0.000126
1089	1.0826e+02	-1.6724	22.016520	0.000547	5.472748	0.927109	-0.000110
1090	1.0836e+02	-1.6924	21.939814	0.000385	3.851193	0.652410	-0.000077
1091	1.0845e+02	-1.7126	21.758143	0.000912	9.121247	1.545181	-0.000183
1092	1.0855e+02	-1.7324	21.701623	0.000284	2.837721	0.480723	-0.000057
1093	1.0865e+02	-1.7516	21.523989	0.000892	8.918552	1.510844	-0.000179
1094	1.0875e+02	-1.7728	21.431135	0.000466	4.661970	0.789759	-0.000093
1095	1.0885e+02	-1.7924	21.342318	0.000446	4.459276	0.755422	-0.000089
1096	1.0895e+02	-1.8124	21.196981	0.000730	7.296997	1.236145	-0.000146
1097	1.0905e+02	-1.8327	21.071830	0.000628	6.283525	1.064458	-0.000126
1098	1.0915e+02	-1.8520	20.970902	0.000507	5.067359	0.858434	-0.000101
1099	1.0925e+02	-1.8723	20.829602	0.000709	7.094303	1.201807	-0.000142
1100	1.0935e+02	-1.8925	20.684265	0.000730	7.296997	1.236145	-0.000146
1101	1.0945e+02	-1.9119	20.603522	0.000405	4.053887	0.686747	-0.000081
1102	1.0955e+02	-1.9315	20.466260	0.000689	6.891609	1.167470	-0.000138
1103	1.0965e+02	-1.9513	20.377443	0.000446	4.459276	0.755422	-0.000089
1104	1.0975e+02	-1.9721	20.224031	0.000770	7.702386	1.304820	-0.000154
1105	1.0985e+02	-1.9907	20.143289	0.000405	4.053887	0.686747	-0.000081
1106	1.0995e+02	-2.0111	20.006026	0.000689	6.891609	1.167470	-0.000138
1107	1.1005e+02	-2.0316	19.848578	0.000791	7.905080	1.339157	-0.000158
1108	1.1015e+02	-2.0512	19.735538	0.000568	5.675442	0.961446	-0.000114
1109	1.1025e+02	-2.0714	19.602313	0.000669	6.688914	1.133133	-0.000134
1110	1.1035e+02	-2.0908	19.501384	0.000507	5.067359	0.858434	-0.000101
1111	1.1044e+02	-2.1112	19.384307	0.000588	5.878137	0.995783	-0.000118
1112	1.1054e+02	-2.1306	19.263193	0.000608	6.080831	1.030121	-0.000122
1113	1.1064e+02	-2.1520	19.117856	0.000730	7.296997	1.236145	-0.000146
1114	1.1074e+02	-2.1709	19.008854	0.000547	5.472748	0.927109	-0.000110
1115	1.1084e+02	-2.1898	18.875628	0.000669	6.688914	1.133133	-0.000134
1116	1.1094e+02	-2.2122	18.806997	0.000345	3.445804	0.583735	-0.000069
1117	1.1104e+02	-2.2292	18.685883	0.000608	6.080831	1.030121	-0.000122
1118	1.1114e+02	-2.2517	18.528434	0.000791	7.905080	1.339157	-0.000158
1119	1.1124e+02	-2.2696	18.415395	0.000568	5.675442	0.961446	-0.000114
1120	1.1134e+02	-2.2905	18.302355	0.000568	5.675442	0.961446	-0.000114
1121	1.1144e+02	-2.3100	18.201426	0.000507	5.067359	0.858434	-0.000101
1122	1.1154e+02	-2.3296	18.039941	0.000811	8.107775	1.373494	-0.000162
1123	1.1164e+02	-2.3507	17.890567	0.000750	7.499692	1.270482	-0.000150
1124	1.1174e+02	-2.3702	17.834047	0.000284	2.837721	0.480723	-0.000057
1125	1.1184e+02	-2.3892	17.660450	0.000872	8.715858	1.476506	-0.000174
1126	1.1194e+02	-2.4095	17.567596	0.000466	4.661970	0.789759	-0.000093
1127	1.1204e+02	-2.4306	17.393999	0.000872	8.715858	1.476506	-0.000174
1128	1.1214e+02	-2.4500	17.293071	0.000507	5.067359	0.858434	-0.000101
1129	1.1224e+02	-2.4702	17.196180	0.000486	4.864665	0.824097	-0.000097
1130	1.1234e+02	-2.4897	17.054880	0.000709	7.094303	1.201807	-0.000142
1131	1.1244e+02	-2.5097	16.929729	0.000628	6.283525	1.064458	-0.000126
1132	1.1253e+02	-2.5287	16.808615	0.000608	6.080831	1.030121	-0.000122
1133	1.1263e+02	-2.5484	16.703649	0.000527	5.270054	0.892771	-0.000105
1134	1.1273e+02	-2.5689	16.590609	0.000568	5.675442	0.961446	-0.000114
1135	1.1283e+02	-2.5885	16.465458	0.000628	6.283525	1.064458	-0.000126
1136	1.1293e+02	-2.6086	16.332233	0.000669	6.688914	1.133133	-0.000134
1137	1.1303e+02	-2.6291	16.207081	0.000628	6.283525	1.064458	-0.000126
1138	1.1313e+02	-2.6472	16.057707	0.000750	7.499692	1.270482	-0.000150
1139	1.1323e+02	-2.6685	15.964853	0.000466	4.661970	0.789759	-0.000093
1140	1.1333e+02	-2.6886	15.815479	0.000750	7.499692	1.270482	-0.000150
1141	1.1343e+02	-2.7084	15.702439	0.000568	5.675442	0.961446	-0.000114
1142	1.1353e+02	-2.7286	15.625734	0.000385	3.851193	0.652410	-0.000077
1143	1.1363e+02	-2.7482	15.472323	0.000770	7.702386	1.304820	-0.000154
1144	1.1373e+02	-2.7686	15.343134	0.000649	6.486220	1.098795	-0.000130
1145	1.1383e+02	-2.7884	15.258355	0.000426	4.256582	0.721084	-0.000085
1146	1.1393e+02	-2.8076	15.117055	0.000709	7.094303	1.201807	-0.000142
1147	1.1403e+02	-2.8285	14.951532	0.000831	8.310469	1.407832	-0.000166
1148	1.1413e+02	-2.8485	14.854641	0.000486	4.864665	0.824097	-0.000097
1149	1.1423e+02	-2.8689	14.729490	0.000628	6.283525	1.064458	-0.000126
1150	1.1433e+02	-2.8873	14.584153	0.000730	7.296997	1.236145	-0.000146
1151	1.1442e+02	-2.9074	14.471113	0.000568	5.675442	0.961446	-0.000114
1152	1.1452e+02	-2.9275	14.358073	0.000568	5.675442	0.961446	-0.000114
1153	1.1462e+02	-2.9468	14.265219	0.000466	4.661970	0.789759	-0.000093
1154	1.1472e+02	-2.9675	14.136031	0.000649	6.486220	1.098795	-0.000130
1155	1.1482e+02	-2.9872	14.039140	0.000486	4.864665	0.824097	-0.000097
1156	1.1492e+02	-3.0068	13.861506	0.000892	8.918552	1.510844	-0.000179
1157	1.1502e+02	-3.0271	13.768651	0.000466	4.661970	0.789759	-0.000093
1158	1.1512e+02	-3.0467	13.675797	0.000466	4.661970	0.789759	-0.000093
1159	1.1522e+02	-3.0672	13.542572	0.000669	6.688914	1.133133	-0.000134
1160	1.1532e+02	-3.0869	13.377049	0.000831	8.310469	1.407832	-0.000166
1161	1.1542e+02	-3.1065	13.304381	0.000365	3.648499	0.618072	-0.000073
1162	1.1552e+02	-3.1268	13.207490	0.000486	4.864665	0.824097	-0.000097
1163	1.1562e+02	-3.1467	13.070227	0.000689	6.891609	1.167470	-0.000138
1164	1.1572e+02	-3.1666	12.941039	0.000649	6.486220	1.098795	-0.000130
1165	1.1582e+02	-3.1863	12.791665	0.000750	7.499692	1.270482	-0.000150
1166	1.1592e+02	-3.2066	12.714959	0.000385	3.851193	0.652410	-0.000077
1167	1.1602e+02	-3.2269	12.573659	0.000709	7.094303	1.201807	-0.000142
1168	1.1612e+02	-3.2471	12.444471	0.000649	6.486220	1.098795	-0.000130
1169	1.1622e+02	-3.2656	12.387951	0.000284	2.837721	0.480723	-0.000057
1170	1.1632e+02	-3.2870	12.242614	0.000730	7.296997	1.236145	-0.000146
1171	1.1642e+02	-3.3066	12.149760	0.000466	4.661970	0.789759	-0.000093
1172	1.1651e+02	-3.3265	11.988275	0.000811	8.107775	1.373494	-0.000162
1173	1.1661e+02	-3.3461	11.863123	0.000628	6.283525	1.064458	-0.000126
1174	1.1671e+02	-3.3661	11.746046	0.000588	5.878137	0.995783	-0.000118
1175	1.1681e+02	-3.3856	11.649155	0.000486	4.864665	0.824097	-0.000097
1176	1.1691e+02	-3.4061	11.495744	0.000770	7.702386	1.304820	-0.000154
1177	1.1701e+02	-3.4261	11.427113	0.000345	3.445804	0.583735	-0.000069
1178	1.1711e+02	-3.4455	11.277739	0.000750	7.499692	1.270482	-0.000150
1179	1.1721e+02	-3.4682	11.148550	0.000649	6.486220	1.098795	-0.000130
1180	1.1731e+02	-3.4857	11.075882	0.000365	3.648499	0.618072	-0.000073
1181	1.1741e+02	-3.5059	10.962842	0.000568	5.675442	0.961446	-0.000114
1182	1.1751e+02	-3.5260	10.797320	0.000831	8.310469	1.407832	-0.000166
1183	1.1761e+02	-3.5460	10.688317	0.000547	5.472748	0.927109	-0.000110
1184	1.1771e+02	-3.5653	10.595463	0.000466	4.661970	0.789759	-0.000093
1185	1.1781e+02	-3.5845	10.478386	0.000588	5.878137	0.995783	-0.000118
1186	1.1791e+02	-3.6044	10.377457	0.000507	5.067359	0.858434	-0.000101
1187	1.1801e+02	-3.6250	10.232121	0.000730	7.296997	1.236145	-0.000146
1188	1.1811e+02	-3.6453	10.094858	0.000689	6.891609	1.167470	-0.000138
1189	1.1821e+02	-3.6650	9.965670	0.000649	6.486220	1.098795	-0.000130
1190	1.1831e+02	-3.6848	9.844555	0.000608	6.080831	1.030121	-0.000122
1191	1.1841e+02	-3.7048	9.763813	0.000405	4.053887	0.686747	-0.000081
1192	1.1850e+02	-3.7244	9.642699	0.000608	6.080831	1.030121	-0.000122
1193	1.1860e+02	-3.7440	9.529659	0.000568	5.675442	0.961446	-0.000114
1194	1.1870e+02	-3.7646	9.420656	0.000547	5.472748	0.927109	-0.000110
1195	1.1880e+02	-3.7839	9.303579	0.000588	5.878137	0.995783	-0.000118
1196	1.1890e+02	-3.8036	9.166317	0.000689	6.891609	1.167470	-0.000138
1197	1.1900e+02	-3.8244	9.053277	0.000568	5.675442	0.961446	-0.000114
1198	1.1910e+02	-3.8437	8.940237	0.000568	5.675442	0.961446	-0.000114
1199	1.1920e+02	-3.8632	8.835272	0.000527	5.270054	0.892771	-0.000105
1200	1.1930e+02	-3.8834	8.710120	0.000628	6.283525	1.064458	-0.000126
1201	1.1940e+02	-3.9033	8.609192	0.000507	5.067359	0.858434	-0.000101
1202	1.1950e+02	-3.9238	8.532486	0.000385	3.851193	0.652410	-0.000077
1203	1.1960e+02	-3.9435	8.371001	0.000811	8.107775	1.373494	-0.000162
1204	1.1970e+02	-3.9632	8.278147	0.000466	4.661970	0.789759	-0.000093
1205	1.1980e+02	-3.9828	8.144921	0.000669	6.688914	1.133133	-0.000134
1206	1.1990e+02	-4.0041	8.027844	0.000588	5.878137	0.995783	-0.000118
1207	1.2000e+02	-4.0231	7.918842	0.000547	5.472748	0.927109	-0.000110
1208	1.2010e+02	-4.0433	7.793691	0.000628	6.283525	1.064458	-0.000126
1209	1.2020e+02	-4.0628	7.684688	0.000547	5.472748	0.927109	-0.000110
1210	1.2030e+02	-4.0829	7.583759	0.000507	5.067359	0.858434	-0.000101
1211	1.2039e+02	-4.1031	7.454571	0.000649	6.486220	1.098795	-0.000130
1212	1.2049e+02	-4.1229	7.333457	0.000608	6.080831	1.030121	-0.000122
1213	1.2059e+02	-4.1429	7.220417	0.000568	5.675442	0.961446	-0.000114
1214	1.2069e+02	-4.1626	7.119489	0.000507	5.067359	0.858434	-0.000101
1215	1.2079e+02	-4.1827	6.998375	0.000608	6.080831	1.030121	-0.000122
1216	1.2089e+02	-4.2032	6.893409	0.000527	5.270054	0.892771	-0.000105
1217	1.2099e+02	-4.2223	6.780369	0.000568	5.675442	0.961446	-0.000114
1218	1.2109e+02	-4.2432	6.667330	0.000568	5.675442	0.961446	-0.000114
1219	1.2119e+02	-4.2622	6.558327	0.000547	5.472748	0.927109	-0.000110
1220	1.2129e+02	-4.2831	6.469510	0.000446	4.459276	0.755422	-0.000089
1221	1.2139e+02	-4.3025	6.295913	0.000872	8.715858	1.476506	-0.000174
1222	1.2149e+02	-4.3224	6.239393	0.000284	2.837721	0.480723	-0.000057
1223	1.2159e+02	-4.3422	6.106168	0.000669	6.688914	1.133133	-0.000134
1224	1.2169e+02	-4.3616	5.985054	0.000608	6.080831	1.030121	-0.000122
1225	1.2179e+02	-4.3825	5.867977	0.000588	5.878137	0.995783	-0.000118
1226	1.2189e+02	-4.4026	5.767048	0.000507	5.067359	0.858434	-0.000101
1227	1.2199e+02	-4.4218	5.662083	0.000527	5.270054	0.892771	-0.000105
1228	1.2209e+02	-4.4419	5.512709	0.000750	7.499692	1.270482	-0.000150
1229	1.2219e+02	-4.4615	5.415818	0.000486	4.864665	0.824097	-0.000097
1230	1.2229e+02	-4.4817	5.278555	0.000689	6.891609	1.167470	-0.000138
1231	1.2239e+02	-4.5015	5.197812	0.000405	4.053887	0.686747	-0.000081
1232	1.2248e+02	-4.5220	5.088810	0.000547	5.472748	0.927109	-0.000110
1233	1.2258e+02	-4.5409	4.959621	0.000649	6.486220	1.098795	-0.000130
1234	1.2268e+02	-4.5612	4.850619	0.000547	5.472748	0.927109	-0.000110
1235	1.2278e+02	-4.5815	4.713356	0.000689	6.891609	1.167470	-0.000138
1236	1.2288e+02	-4.6014	4.576093	0.000689	6.891609	1.167470	-0.000138
1237	1.2298e+02	-4.6214	4.459016	0.000588	5.878137	0.995783	-0.000118
1238	1.2308e+02	-4.6417	4.370199	0.000446	4.459276	0.755422	-0.000089
1239	1.2318e+02	-4.6603	4.216788	0.000770	7.702386	1.304820	-0.000154
1240	1.2328e+02	-4.6819	4.136046	0.000405	4.053887	0.686747	-0.000081
1241	1.2338e+02	-4.6999	3.998783	0.000689	6.891609	1.167470	-0.000138
1242	1.2348e+02	-4.7212	3.861520	0.000689	6.891609	1.167470	-0.000138
1243	1.2358e+02	-4.7412	3.744443	0.000588	5.878137	0.995783	-0.000118
1244	1.2368e+02	-4.7607	3.659664	0.000426	4.256582	0.721084	-0.000085
1245	1.2378e+02	-4.7802	3.518364	0.000709	7.094303	1.201807	-0.000142
1246	1.2388e+02	-4.8016	3.377064	0.000709	7.094303	1.201807	-0.000142
1247	1.2398e+02	-4.8206	3.300358	0.000385	3.851193	0.652410	-0.000077
1248	1.2408e+02	-4.8398	3.159059	0.000709	7.094303	1.201807	-0.000142
1249	1.2418e+02	-4.8602	3.005648	0.000770	7.702386	1.304820	-0.000154
1250	1.2428e+02	-4.8799	2.932979	0.000365	3.648499	0.618072	-0.000073
1251	1.2438e+02	-4.9004	2.799754	0.000669	6.688914	1.133133	-0.000134
1252	1.2447e+02	-4.9199	2.634231	0.000831	8.310469	1.407832	-0.000166
1253	1.2457e+02	-4.9402	2.545414	0.000446	4.459276	0.755422	-0.000089
1254	1.2467e+02	-4.9605	2.428337	0.000588	5.878137	0.995783	-0.000118
1255	1.2477e+02	-4.9803	2.278963	0.000750	7.499692	1.270482	-0.000150
1256	1.2487e+02	-5.0005	2.153812	0.000628	6.283525	1.064458	-0.000126
1257	1.2497e+02	-5.0195	2.056921	0.000486	4.864665	0.824097	-0.000097
1258	1.2507e+02	-5.0397	1.935807	0.000608	6.080831	1.030121	-0.000122
1259	1.2517e+02	-5.0588	1.826804	0.000547	5.472748	0.927109	-0.000110
1260	1.2527e+02	-5.0793	1.677430	0.000750	7.499692	1.270482	-0.000150
1261	1.2537e+02	-5.1007	1.588613	0.000446	4.459276	0.755422	-0.000089
1262	1.2547e+02	-5.1187	1.455387	0.000669	6.688914	1.133133	-0.000134
1263	1.2557e+02	-5.1390	1.330236	0.000628	6.283525	1.064458	-0.000126
1264	1.2567e+02	-5.1587	1.168751	0.000811	8.107775	1.373494	-0.000162
1265	1.2577e+02	-5.1782	1.055711	0.000568	5.675442	0.961446	-0.000114
1266	1.2587e+02	-5.1988	0.906337	0.000750	7.499692	1.270482	-0.000150
1267	1.2597e+02	-5.2182	0.821557	0.000426	4.256582	0.721084	-0.000085
1268	1.2607e+02	-5.2396	0.716592	0.000527	5.270054	0.892771	-0.000105
1269	1.2617e+02	-5.2586	0.547032	0.000851	8.513164	1.442169	-0.000170
1270	1.2627e+02	-5.2783	0.421881	0.000628	6.283525	1.064458	-0.000126
1271	1.2636e+02	-5.2983	0.320952	0.000507	5.067359	0.858434	-0.000101
1272	1.2646e+02	-5.3191	0.163504	0.000791	7.905080	1.339157	-0.000158
1273	1.2656e+02	-5.3380	0.034316	0.000649	6.486220	1.098795	-0.000130
1274	1.2666e+02	-5.3585	-0.058538	0.000466	4.661970	0.789759	-0.000093
1275	1.2676e+02	-5.3784	-0.203875	0.000730	7.296997	1.236145	-0.000146
1276	1.2686e+02	-5.3979	-0.353249	0.000750	7.499692	1.270482	-0.000150
1277	1.2696e+02	-5.4179	-0.498586	0.000730	7.296997	1.236145	-0.000146
1278	1.2706e+02	-5.4376	-0.607589	0.000547	5.472748	0.927109	-0.000110
1279	1.2716e+02	-5.4578	-0.716592	0.000547	5.472748	0.927109	-0.000110
1280	1.2726e+02	-5.4778	-0.874040	0.000791	7.905080	1.339157	-0.000158
1281	1.2736e+02	-5.4976	-1.027451	0.000770	7.702386	1.304820	-0.000154
1282	1.2746e+02	-5.5176	-1.120305	0.000466	4.661970	0.789759	-0.000093
1283	1.2756e+02	-5.5383	-1.265642	0.000730	7.296997	1.236145	-0.000146
1284	1.2766e+02	-5.5583	-1.415016	0.000750	7.499692	1.270482	-0.000150
1285	1.2776e+02	-5.5783	-1.544204	0.000649	6.486220	1.098795	-0.000130
1286	1.2786e+02	-5.5981	-1.685504	0.000709	7.094303	1.201807	-0.000142
1287	1.2796e+02	-5.6176	-1.822767	0.000689	6.891609	1.167470	-0.000138
1288	1.2806e+02	-5.6372	-1.951955	0.000649	6.486220	1.098795	-0.000130
1289	1.2816e+02	-5.6572	-2.073069	0.000608	6.080831	1.030121	-0.000122
1290	1.2826e+02	-5.6773	-2.206295	0.000669	6.688914	1.133133	-0.000134
1291	1.2835e+02	-5.6973	-2.327409	0.000608	6.080831	1.030121	-0.000122
1292	1.2845e+02	-5.7179	-2.533303	0.001034	10.337413	1.751205	-0.000207
1293	1.2855e+02	-5.7370	-2.634231	0.000507	5.067359	0.858434	-0.000101
1294	1.2865e+02	-5.7568	-2.779568	0.000730	7.296997	1.236145	-0.000146
1295	1.2875e+02	-5.7764	-2.892608	0.000568	5.675442	0.961446	-0.000114
1296	1.2885e+02	-5.7959	-3.029870	0.000689	6.891609	1.167470	-0.000138
1297	1.2895e+02	-5.8159	-3.191356	0.000811	8.107775	1.373494	-0.000162
1298	1.2905e+02	-5.8366	-3.360916	0.000851	8.513164	1.442169	-0.000170
1299	1.2915e+02	-5.8572	-3.530475	0.000851	8.513164	1.442169	-0.000170
1300	1.2925e+02	-5.8759	-3.651589	0.000608	6.080831	1.030121	-0.000122
1301	1.2935e+02	-5.8972	-3.784815	0.000669	6.688914	1.133133	-0.000134
1302	1.2945e+02	-5.9167	-3.950337	0.000831	8.310469	1.407832	-0.000166
1303	1.2955e+02	-5.9364	-4.132008	0.000912	9.121247	1.545181	-0.000183
1304	1.2965e+02	-5.9569	-4.216788	0.000426	4.256582	0.721084	-0.000085
1305	1.2975e+02	-5.9758	-4.430756	0.001074	10.742802	1.819880	-0.000215
1306	1.2985e+02	-5.9957	-4.539759	0.000547	5.472748	0.927109	-0.000110
1307	1.2995e+02	-6.0165	-4.685096	0.000730	7.296997	1.236145	-0.000146
1308	1.3005e+02	-6.0359	-4.822359	0.000689	6.891609	1.167470	-0.000138
1309	1.3015e+02	-6.0553	-4.983844	0.000811	8.107775	1.373494	-0.000162
1310	1.3025e+02	-6.0764	-5.137255	0.000770	7.702386	1.304820	-0.000154
1311	1.3034e+02	-6.0956	-5.306815	0.000851	8.513164	1.442169	-0.000170
1312	1.3044e+02	-6.1157	-5.448115	0.000709	7.094303	1.201807	-0.000142
1313	1.3054e+02	-6.1349	-5.621712	0.000872	8.715858	1.476506	-0.000174
1314	1.3064e+02	-6.1557	-5.779160	0.000791	7.905080	1.339157	-0.000158
1315	1.3074e+02	-6.1752	-5.892200	0.000568	5.675442	0.961446	-0.000114
1316	1.3084e+02	-6.1957	-6.106168	0.001074	10.742802	1.819880	-0.000215
1317	1.3094e+02	-6.2151	-6.255542	0.000750	7.499692	1.270482	-0.000150
1318	1.3104e+02	-6.2357	-6.400879	0.000730	7.296997	1.236145	-0.000146
1319	1.3114e+02	-6.2549	-6.562364	0.000811	8.107775	1.373494	-0.000162
1320	1.3124e+02	-6.2750	-6.719812	0.000791	7.905080	1.339157	-0.000158
1321	1.3134e+02	-6.2947	-6.861112	0.000709	7.094303	1.201807	-0.000142
1322	1.3144e+02	-6.3150	-7.026635	0.000831	8.310469	1.407832	-0.000166
1323	1.3154e+02	-6.3347	-7.188120	0.000811	8.107775	1.373494	-0.000162
1324	1.3164e+02	-6.3547	-7.313271	0.000628	6.283525	1.064458	-0.000126
1325	1.3174e+02	-6.3745	-7.523202	0.001054	10.540107	1.785542	-0.000211
1326	1.3184e+02	-6.3950	-7.648354	0.000628	6.283525	1.064458	-0.000126
1327	1.3194e+02	-6.4133	-7.838099	0.000953	9.526635	1.613856	-0.000191
1328	1.3204e+02	-6.4339	-7.995547	0.000791	7.905080	1.339157	-0.000158
1329	1.3214e+02	-6.4526	-8.161070	0.000831	8.310469	1.407832	-0.000166
1330	1.3224e+02	-6.4741	-8.322555	0.000811	8.107775	1.373494	-0.000162
1331	1.3234e+02	-6.4941	-8.471929	0.000750	7.499692	1.270482	-0.000150
1332	1.3243e+02	-6.5135	-8.653600	0.000912	9.121247	1.545181	-0.000183
1333	1.3253e+02	-6.5340	-8.855457	0.001013	10.134718	1.716868	-0.000203
1334	1.3263e+02	-6.5538	-8.992720	0.000689	6.891609	1.167470	-0.000138
1335	1.3273e+02	-6.5733	-9.194577	0.001013	10.134718	1.716868	-0.000203
1336	1.3283e+02	-6.5939	-9.356062	0.000811	8.107775	1.373494	-0.000162
1337	1.3293e+02	-6.6132	-9.553882	0.000993	9.932024	1.682530	-0.000199
1338	1.3303e+02	-6.6344	-9.707293	0.000770	7.702386	1.304820	-0.000154
1339	1.3313e+02	-6.6534	-9.864741	0.000791	7.905080	1.339157	-0.000158
1340	1.3323e+02	-6.6753	-10.010078	0.000730	7.296997	1.236145	-0.000146
1341	1.3333e+02	-6.6925	-10.215972	0.001034	10.337413	1.751205	-0.000207
1342	1.3343e+02	-6.7140	-10.409755	0.000973	9.729330	1.648193	-0.000195
1343	1.3353e+02	-6.7334	-10.579314	0.000851	8.513164	1.442169	-0.000170
1344	1.3363e+02	-6.7523	-10.769060	0.000953	9.526635	1.613856	-0.000191
1345	1.3373e+02	-6.7722	-10.938619	0.000851	8.513164	1.442169	-0.000170
1346	1.3383e+02	-6.7886	-11.120290	0.000912	9.121247	1.545181	-0.000183
1347	1.3393e+02	-6.8130	-11.334259	0.001074	10.742802	1.819880	-0.000215
1348	1.3403e+02	-6.8323	-11.515930	0.000912	9.121247	1.545181	-0.000183
1349	1.3413e+02	-6.8524	-11.685489	0.000851	8.513164	1.442169	-0.000170
1350	1.3423e+02	-6.8730	-11.903495	0.001095	10.945496	1.854217	-0.000219
1351	1.3432e+02	-6.8933	-12.040757	0.000689	6.891609	1.167470	-0.000138
1352	1.3442e+02	-6.9122	-12.299134	0.001297	12.972440	2.197591	-0.000260
1353	1.3452e+02	-6.9316	-12.432360	0.000669	6.688914	1.133133	-0.000134
1354	1.3462e+02	-6.9528	-12.634216	0.001013	10.134718	1.716868	-0.000203
1355	1.3472e+02	-6.9725	-12.819925	0.000932	9.323941	1.579518	-0.000187
1356	1.3482e+02	-6.9919	-12.997559	0.000892	8.918552	1.510844	-0.000179
1357	1.3492e+02	-7.0123	-13.239787	0.001216	12.161662	2.060241	-0.000243
1358	1.3502e+02	-7.0328	-13.433569	0.000973	9.729330	1.648193	-0.000195
1359	1.3512e+02	-7.0518	-13.595055	0.000811	8.107775	1.373494	-0.000162
1360	1.3522e+02	-7.0718	-13.796911	0.001013	10.134718	1.716868	-0.000203
1361	1.3532e+02	-7.0911	-13.994731	0.000993	9.932024	1.682530	-0.000199
1362	1.3542e+02	-7.1147	-14.208699	0.001074	10.742802	1.819880	-0.000215
1363	1.3552e+02	-7.1313	-14.410556	0.001013	10.134718	1.716868	-0.000203
1364	1.3562e+02	-7.1516	-14.592227	0.000912	9.121247	1.545181	-0.000183
1365	1.3572e+02	-7.1713	-14.798121	0.001034	10.337413	1.751205	-0.000207
1366	1.3582e+02	-7.1915	-14.979792	0.000912	9.121247	1.545181	-0.000183
1367	1.3592e+02	-7.2098	-15.189723	0.001054	10.540107	1.785542	-0.000211
1368	1.3602e+02	-7.2302	-15.395617	0.001034	10.337413	1.751205	-0.000207
1369	1.3612e+02	-7.2507	-15.617660	0.001115	11.148190	1.888555	-0.000223
1370	1.3622e+02	-7.2711	-15.855851	0.001196	11.958968	2.025904	-0.000239
1371	1.3631e+02	-7.2922	-16.037522	0.000912	9.121247	1.545181	-0.000183
1372	1.3641e+02	-7.3114	-16.287824	0.001257	12.567051	2.128916	-0.000252
1373	1.3651e+02	-7.3309	-16.457384	0.000851	8.513164	1.442169	-0.000170
1374	1.3661e+02	-7.3515	-16.679426	0.001115	11.148190	1.888555	-0.000223
1375	1.3671e+02	-7.3712	-16.885320	0.001034	10.337413	1.751205	-0.000207
1376	1.3681e+02	-7.3904	-17.111400	0.001135	11.350885	1.922892	-0.000227
1377	1.3691e+02	-7.4107	-17.345554	0.001176	11.756273	1.991567	-0.000235
1378	1.3701e+02	-7.4307	-17.555485	0.001054	10.540107	1.785542	-0.000211
1379	1.3711e+02	-7.4507	-17.757342	0.001013	10.134718	1.716868	-0.000203
1380	1.3721e+02	-7.4700	-17.979384	0.001115	11.148190	1.888555	-0.000223
1381	1.3731e+02	-7.4897	-18.229686	0.001257	12.567051	2.128916	-0.000252
1382	1.3741e+02	-7.5099	-18.427506	0.000993	9.932024	1.682530	-0.000199
1383	1.3751e+02	-7.5302	-18.653586	0.001135	11.350885	1.922892	-0.000227
1384	1.3761e+02	-7.5497	-18.911962	0.001297	12.972440	2.197591	-0.000260
1385	1.3771e+02	-7.5690	-19.129968	0.001095	10.945496	1.854217	-0.000219
1386	1.3781e+02	-7.5891	-19.360084	0.001155	11.553579	1.957229	-0.000231
1387	1.3791e+02	-7.6092	-19.561941	0.001013	10.134718	1.716868	-0.000203
1388	1.3801e+02	-7.6292	-19.800132	0.001196	11.958968	2.025904	-0.000239
1389	1.3811e+02	-7.6495	-20.058509	0.001297	12.972440	2.197591	-0.000260
1390	1.3821e+02	-7.6689	-20.276514	0.001095	10.945496	1.854217	-0.000219
1391	1.3831e+02	-7.6892	-20.490482	0.001074	10.742802	1.819880	-0.000215
1392	1.3840e+02	-7.7090	-20.781156	0.001459	14.593995	2.472290	-0.000292
1393	1.3850e+02	-7.7290	-21.015310	0.001176	11.756273	1.991567	-0.000235
1394	1.3860e+02	-7.7480	-21.257538	0.001216	12.161662	2.060241	-0.000243
1395	1.3870e+02	-7.7684	-21.528026	0.001358	13.580523	2.300603	-0.000272
1396	1.3880e+02	-7.7878	-21.709697	0.000912	9.121247	1.545181	-0.000183
1397	1.3890e+02	-7.8084	-21.980186	0.001358	13.580523	2.300603	-0.000272
1398	1.3900e+02	-7.8287	-22.250674	0.001358	13.580523	2.300603	-0.000272
1399	1.3910e+02	-7.8485	-22.484827	0.001176	11.756273	1.991567	-0.000235
1400	1.3920e+02	-7.8679	-22.727056	0.001216	12.161662	2.060241	-0.000243
1401	1.3930e+02	-7.8888	-23.005618	0.001399	13.985911	2.369278	-0.000280
1402	1.3940e+02	-7.9077	-23.255920	0.001257	12.567051	2.128916	-0.000252
1403	1.3950e+02	-7.9285	-23.498149	0.001216	12.161662	2.060241	-0.000243
1404	1.3960e+02	-7.9475	-23.780748	0.001419	14.188606	2.403615	-0.000284
1405	1.3970e+02	-7.9675	-24.043162	0.001318	13.175134	2.231928	-0.000264
1406	1.3980e+02	-7.9880	-24.301539	0.001297	12.972440	2.197591	-0.000260
1407	1.3990e+02	-8.0079	-24.559915	0.001297	12.972440	2.197591	-0.000260
1408	1.4000e+02	-8.0283	-24.834440	0.001378	13.783217	2.334940	-0.000276
1409	1.4010e+02	-8.0472	-25.113003	0.001399	13.985911	2.369278	-0.000280
1410	1.4020e+02	-8.0673	-25.407714	0.001480	14.796689	2.506627	-0.000296
1411	1.4029e+02	-8.0879	-25.674165	0.001338	13.377828	2.266265	-0.000268
1412	1.4039e+02	-8.1082	-25.932541	0.001297	12.972440	2.197591	-0.000260
1413	1.4049e+02	-8.1258	-26.198992	0.001338	13.377828	2.266265	-0.000268
1414	1.4059e+02	-8.1445	-26.481592	0.001419	14.188606	2.403615	-0.000284
1415	1.4069e+02	-8.1667	-26.768229	0.001439	14.391300	2.437952	-0.000288
1416	1.4079e+02	-8.1873	-27.062939	0.001480	14.796689	2.506627	-0.000296
1417	1.4089e+02	-8.2062	-27.361687	0.001500	14.999383	2.540964	-0.000300
1418	1.4099e+02	-8.2263	-27.664473	0.001520	15.202078	2.575302	-0.000304
1419	1.4109e+02	-8.2475	-27.914775	0.001257	12.567051	2.128916	-0.000252
1420	1.4119e+02	-8.2666	-28.201412	0.001439	14.391300	2.437952	-0.000288
1421	1.4129e+02	-8.2864	-28.528420	0.001642	16.418244	2.781326	-0.000329
1422	1.4139e+02	-8.3066	-28.811019	0.001419	14.188606	2.403615	-0.000284
1423	1.4149e+02	-8.3266	-29.138027	0.001642	16.418244	2.781326	-0.000329
1424	1.4159e+02	-8.3466	-29.396404	0.001297	12.972440	2.197591	-0.000260
1425	1.4169e+02	-8.3655	-29.707263	0.001561	15.607466	2.643976	-0.000312
1426	1.4179e+02	-8.3859	-30.022160	0.001581	15.810161	2.678314	-0.000316
1427	1.4189e+02	-8.4065	-30.349168	0.001642	16.418244	2.781326	-0.000329
1428	1.4199e+02	-8.4265	-30.639842	0.001459	14.593995	2.472290	-0.000292
1429	1.4209e+02	-8.4454	-30.918404	0.001399	13.985911	2.369278	-0.000280
1430	1.4219e+02	-8.4662	-31.265598	0.001743	17.431716	2.953013	-0.000349
1431	1.4228e+02	-8.4860	-31.596643	0.001662	16.620938	2.815663	-0.000333
1432	1.4238e+02	-8.5059	-31.943837	0.001743	17.431716	2.953013	-0.000349
1433	1.4248e+02	-8.5258	-32.190102	0.001236	12.364357	2.094579	-0.000248
1434	1.4258e+02	-8.5459	-32.545370	0.001784	17.837105	3.021687	-0.000357
1435	1.4268e+02	-8.5651	-32.900638	0.001784	17.837105	3.021687	-0.000357
1436	1.4278e+02	-8.5872	-33.227646	0.001642	16.418244	2.781326	-0.000329
1437	1.4288e+02	-8.6052	-33.490060	0.001318	13.175134	2.231928	-0.000264
1438	1.4298e+02	-8.6261	-33.889736	0.002007	20.066743	3.399398	-0.000402
1439	1.4308e+02	-8.6447	-34.216744	0.001642	16.418244	2.781326	-0.000329
1440	1.4318e+02	-8.6642	-34.555863	0.001703	17.026327	2.884338	-0.000341
1441	1.4328e+02	-8.6852	-34.894983	0.001703	17.026327	2.884338	-0.000341
1442	1.4338e+02	-8.7059	-35.246214	0.001763	17.634410	2.987350	-0.000353
1443	1.4348e+02	-8.7256	-35.597444	0.001763	17.634410	2.987350	-0.000353
1444	1.4358e+02	-8.7454	-35.904267	0.001540	15.404772	2.609639	-0.000308
1445	1.4368e+02	-8.7653	-36.299906	0.001986	19.864048	3.365061	-0.000398
1446	1.4378e+02	-8.7842	-36.639025	0.001703	17.026327	2.884338	-0.000341
1447	1.4388e+02	-8.8046	-37.022553	0.001926	19.255965	3.262049	-0.000385
1448	1.4398e+02	-8.8249	-37.385896	0.001824	18.242493	3.090362	-0.000365
1449	1.4408e+02	-8.8446	-37.725015	0.001703	17.026327	2.884338	-0.000341
1450	1.4418e+02	-8.8644	-38.124691	0.002007	20.066743	3.399398	-0.000402
1451	1.4428e+02	-8.8835	-38.467848	0.001723	17.229021	2.918675	-0.000345
1452	1.4437e+02	-8.9041	-38.835227	0.001845	18.445188	3.124699	-0.000369
1453	1.4447e+02	-8.9233	-39.210681	0.001885	18.850576	3.193374	-0.000377
1454	1.4457e+02	-8.9443	-39.610357	0.002007	20.066743	3.399398	-0.000402
1455	1.4467e+02	-8.9635	-40.005997	0.001986	19.864048	3.365061	-0.000398
1456	1.4477e+02	-8.9835	-40.413747	0.002047	20.472131	3.468073	-0.000410
1457	1.4487e+02	-9.0036	-40.781127	0.001845	18.445188	3.124699	-0.000369
1458	1.4497e+02	-9.0268	-41.164655	0.001926	19.255965	3.262049	-0.000385
1459	1.4507e+02	-9.0430	-41.568368	0.002027	20.269437	3.433736	-0.000406
1460	1.4517e+02	-9.0625	-41.968045	0.002007	20.066743	3.399398	-0.000402
1461	1.4527e+02	-9.0826	-42.351572	0.001926	19.255965	3.262049	-0.000385
1462	1.4537e+02	-9.1032	-42.751249	0.002007	20.066743	3.399398	-0.000402
1463	1.4547e+02	-9.1240	-43.154962	0.002027	20.269437	3.433736	-0.000406
1464	1.4557e+02	-9.1443	-43.582899	0.002149	21.485603	3.639760	-0.000430
1465	1.4567e+02	-9.1626	-43.986612	0.002027	20.269437	3.433736	-0.000406
1466	1.4577e+02	-9.1824	-44.446846	0.002311	23.107158	3.914459	-0.000463
1467	1.4587e+02	-9.2029	-44.802114	0.001784	17.837105	3.021687	-0.000357
1468	1.4597e+02	-9.2233	-45.306756	0.002534	25.336796	4.292169	-0.000507
1469	1.4607e+02	-9.2419	-45.722581	0.002088	20.877520	3.536748	-0.000418
1470	1.4617e+02	-9.2622	-46.162629	0.002209	22.093686	3.742772	-0.000442
1471	1.4626e+02	-9.2833	-46.626899	0.002331	23.309852	3.948796	-0.000467
1472	1.4636e+02	-9.3024	-47.046761	0.002108	21.080214	3.571085	-0.000422
1473	1.4646e+02	-9.3213	-47.490846	0.002230	22.296381	3.777109	-0.000446
1474	1.4656e+02	-9.3423	-47.930894	0.002209	22.093686	3.742772	-0.000442
1475	1.4666e+02	-9.3625	-48.399202	0.002351	23.512547	3.983133	-0.000471
1476	1.4676e+02	-9.3823	-48.879621	0.002412	24.120630	4.086145	-0.000483
1477	1.4686e+02	-9.4016	-49.307557	0.002149	21.485603	3.639760	-0.000430
1478	1.4696e+02	-9.4223	-49.812199	0.002534	25.336796	4.292169	-0.000507
1479	1.4706e+02	-9.4418	-50.240136	0.002149	21.485603	3.639760	-0.000430
1480	1.4716e+02	-9.4611	-50.712481	0.002372	23.715241	4.017471	-0.000475
1481	1.4726e+02	-9.4809	-51.233271	0.002615	26.147574	4.429519	-0.000523
1482	1.4736e+02	-9.5020	-51.657170	0.002128	21.282909	3.605422	-0.000426
1483	1.4746e+02	-9.5212	-52.194109	0.002696	26.958351	4.566868	-0.000540
1484	1.4756e+02	-9.5416	-52.686640	0.002473	24.728713	4.189157	-0.000495
1485	1.4766e+02	-9.5612	-53.146873	0.002311	23.107158	3.914459	-0.000463
1486	1.4776e+02	-9.5811	-53.655553	0.002554	25.539491	4.326507	-0.000511
1487	1.4786e+02	-9.6017	-54.127897	0.002372	23.715241	4.017471	-0.000475
1488	1.4796e+02	-9.6218	-54.664836	0.002696	26.958351	4.566868	-0.000540
1489	1.4806e+02	-9.6411	-55.189664	0.002635	26.350268	4.463856	-0.000527
1490	1.4816e+02	-9.6611	-55.641823	0.002270	22.701769	3.845784	-0.000454
1491	1.4825e+02	-9.6808	-56.178762	0.002696	26.958351	4.566868	-0.000540
1492	1.4835e+02	-9.7000	-56.747999	0.002858	28.579906	4.841567	-0.000572
1493	1.4845e+02	-9.7203	-57.240529	0.002473	24.728713	4.189157	-0.000495
1494	1.4855e+02	-9.7407	-57.761320	0.002615	26.147574	4.429519	-0.000523
1495	1.4865e+02	-9.7609	-58.326519	0.002838	28.377212	4.807230	-0.000568
1496	1.4875e+02	-9.7801	-58.847309	0.002615	26.147574	4.429519	-0.000523
1497	1.4885e+02	-9.8009	-59.368100	0.002615	26.147574	4.429519	-0.000523
1498	1.4895e+02	-9.8204	-59.945410	0.002899	28.985295	4.910242	-0.000580
1499	1.4905e+02	-9.8398	-60.538869	0.002980	29.796072	5.047591	-0.000596
1500	1.4915e+02	-9.8587	-61.059659	0.002615	26.147574	4.429519	-0.000523
1501	1.4925e+02	-9.8808	-61.628896	0.002858	28.579906	4.841567	-0.000572
1502	1.4935e+02	-9.8994	-62.218317	0.002959	29.593378	5.013254	-0.000592
1503	1.4945e+02	-9.9194	-62.783516	0.002838	28.377212	4.807230	-0.000568
1504	1.4955e+02	-9.9394	-63.368901	0.002939	29.390684	4.978917	-0.000588
1505	1.4965e+02	-9.9606	-63.942174	0.002878	28.782600	4.875905	-0.000576
1506	1.4975e+02	-9.9799	-64.539670	0.003000	29.998767	5.081929	-0.000600
1507	1.4985e+02	-9.9988	-65.149278	0.003061	30.606850	5.184941	-0.000613
1508	1.4995e+02	-9.9802	-65.569140	-0.002108	-21.080214	-3.571085	-0.000422
1509	1.5005e+02	-9.9605	-66.025336	-0.002290	-22.904464	-3.880121	-0.000458
1510	1.5015e+02	-9.9389	-66.429050	-0.002027	-20.269437	-3.433736	-0.000406
1511	1.5025e+02	-9.9197	-66.812578	-0.001926	-19.255965	-3.262049	-0.000385
1512	1.5034e+02	-9.8996	-67.179957	-0.001845	-18.445188	-3.124699	-0.000369
1513	1.5044e+02	-9.8804	-67.519077	-0.001703	-17.026327	-2.884338	-0.000341
1514	1.5054e+02	-9.8595	-67.866270	-0.001743	-17.431716	-2.953013	-0.000349
1515	1.5064e+02	-9.8405	-68.201353	-0.001682	-16.823633	-2.850001	-0.000337
1516	1.5074e+02	-9.8212	-68.536435	-0.001682	-16.823633	-2.850001	-0.000337
1517	1.5084e+02	-9.7997	-68.831146	-0.001480	-14.796689	-2.506627	-0.000296
1518	1.5094e+02	-9.7800	-69.158154	-0.001642	-16.418244	-2.781326	-0.000329
1519	1.5104e+02	-9.7606	-69.432679	-0.001378	-13.783217	-2.334940	-0.000276
1520	1.5114e+02	-9.7398	-69.662796	-0.001155	-11.553579	-1.957229	-0.000231
1521	1.5124e+02	-9.7211	-69.977692	-0.001581	-15.810161	-2.678314	-0.000316
1522	1.5134e+02	-9.7002	-70.244143	-0.001338	-13.377828	-2.266265	-0.000268
1523	1.5144e+02	-9.6802	-70.490409	-0.001236	-12.364357	-2.094579	-0.000248
1524	1.5154e+02	-9.6606	-70.704377	-0.001074	-10.742802	-1.819880	-0.000215
1525	1.5164e+02	-9.6402	-70.974865	-0.001358	-13.580523	-2.300603	-0.000272
1526	1.5174e+02	-9.6213	-71.196907	-0.001115	-11.148190	-1.888555	-0.000223
1527	1.5184e+02	-9.6011	-71.414913	-0.001095	-10.945496	-1.854217	-0.000219
1528	1.5194e+02	-9.5813	-71.645029	-0.001155	-11.553579	-1.957229	-0.000231
1529	1.5204e+02	-9.5604	-71.802478	-0.000791	-7.905080	-1.339157	-0.000158
1530	1.5214e+02	-9.5413	-72.000297	-0.000993	-9.932024	-1.682530	-0.000199
1531	1.5224e+02	-9.5219	-72.250600	-0.001257	-12.567051	-2.128916	-0.000252
1532	1.5233e+02	-9.5020	-72.391899	-0.000709	-7.094303	-1.201807	-0.000142
1533	1.5243e+02	-9.4828	-72.565496	-0.000872	-8.715858	-1.476506	-0.000174
1534	1.5253e+02	-9.4614	-72.767353	-0.001013	-10.134718	-1.716868	-0.000203
1535	1.5263e+02	-9.4418	-72.904616	-0.000689	-6.891609	-1.167470	-0.000138
1536	1.5273e+02	-9.4215	-73.098398	-0.000973	-9.729330	-1.648193	-0.000195
1537	1.5283e+02	-9.4011	-73.288144	-0.000953	-9.526635	-1.613856	-0.000191
1538	1.5293e+02	-9.3823	-73.421369	-0.000669	-6.688914	-1.133133	-0.000134
1539	1.5303e+02	-9.3616	-73.566706	-0.000730	-7.296997	-1.236145	-0.000146
1540	1.5313e+02	-9.3416	-73.663597	-0.000486	-4.864665	-0.824097	-0.000097
1541	1.5323e+02	-9.3222	-73.829120	-0.000831	-8.310469	-1.407832	-0.000166
1542	1.5333e+02	-9.3024	-73.978494	-0.000750	-7.499692	-1.270482	-0.000150
1543	1.5343e+02	-9.2820	-74.111719	-0.000669	-6.688914	-1.133133	-0.000134
1544	1.5353e+02	-9.2622	-74.224759	-0.000568	-5.675442	-0.961446	-0.000114
1545	1.5363e+02	-9.2426	-74.362022	-0.000689	-6.891609	-1.167470	-0.000138
1546	1.5373e+02	-9.2218	-74.487173	-0.000628	-6.283525	-1.064458	-0.000126
1547	1.5383e+02	-9.2023	-74.547730	-0.000304	-3.040416	-0.515060	-0.000061
1548	1.5393e+02	-9.1827	-74.689030	-0.000709	-7.094303	-1.201807	-0.000142
1549	1.5403e+02	-9.1631	-74.777847	-0.000446	-4.459276	-0.755422	-0.000089
1550	1.5413e+02	-9.1437	-74.850515	-0.000365	-3.648499	-0.618072	-0.000073
1551	1.5422e+02	-9.1220	-74.979703	-0.000649	-6.486220	-1.098795	-0.000130
1552	1.5432e+02	-9.1025	-75.080632	-0.000507	-5.067359	-0.858434	-0.000101
1553	1.5442e+02	-9.0833	-75.185597	-0.000527	-5.270054	-0.892771	-0.000105
1554	1.5452e+02	-9.0631	-75.238080	-0.000264	-2.635027	-0.446386	-0.000053
1555	1.5462e+02	-9.0440	-75.310749	-0.000365	-3.648499	-0.618072	-0.000073
1556	1.5472e+02	-9.0237	-75.379380	-0.000345	-3.445804	-0.583735	-0.000069
1557	1.5482e+02	-9.0064	-75.476271	-0.000486	-4.864665	-0.824097	-0.000097
1558	1.5492e+02	-8.9839	-75.536828	-0.000304	-3.040416	-0.515060	-0.000061
1559	1.5502e+02	-8.9642	-75.629682	-0.000466	-4.661970	-0.789759	-0.000093
1560	1.5512e+02	-8.9413	-75.666017	-0.000182	-1.824249	-0.309036	-0.000037
1561	1.5522e+02	-8.9240	-75.726574	-0.000304	-3.040416	-0.515060	-0.000061
1562	1.5532e+02	-8.9038	-75.815391	-0.000446	-4.459276	-0.755422	-0.000089
1563	1.5542e+02	-8.8838	-75.875948	-0.000304	-3.040416	-0.515060	-0.000061
1564	1.5552e+02	-8.8652	-75.928430	-0.000264	-2.635027	-0.446386	-0.000053
1565	1.5562e+02	-8.8446	-75.940542	-0.000061	-0.608083	-0.103012	-0.000012
1566	1.5572e+02	-8.8251	-75.976876	-0.000182	-1.824249	-0.309036	-0.000037
1567	1.5582e+02	-8.8046	-76.049544	-0.000365	-3.648499	-0.618072	-0.000073
1568	1.5592e+02	-8.7840	-76.110102	-0.000304	-3.040416	-0.515060	-0.000061
1569	1.5602e+02	-8.7648	-76.114139	-0.000020	-0.202694	-0.034337	-0.000004
1570	1.5612e+02	-8.7434	-76.158547	-0.000223	-2.229638	-0.377711	-0.000045
1571	1.5622e+02	-8.7251	-76.219104	-0.000304	-3.040416	-0.515060	-0.000061
1572	1.5631e+02	-8.7036	-76.251401	-0.000162	-1.621555	-0.274699	-0.000032
1573	1.5641e+02	-8.6855	-76.263513	-0.000061	-0.608083	-0.103012	-0.000012
1574	1.5651e+02	-8.6649	-76.320033	-0.000284	-2.837721	-0.480723	-0.000057
1575	1.5661e+02	-8.6447	-76.332144	-0.000061	-0.608083	-0.103012	-0.000012
1576	1.5671e+02	-8.6258	-76.396738	-0.000324	-3.243110	-0.549398	-0.000065
1577	1.5681e+02	-8.6053	-76.404812	-0.000041	-0.405389	-0.068675	-0.000008
1578	1.5691e+02	-8.5852	-76.384627	0.000101	1.013472	0.171687	0.000020
1579	1.5701e+02	-8.5657	-76.412887	-0.000142	-1.418861	-0.240361	-0.000028
1580	1.5711e+02	-8.5461	-76.461332	-0.000243	-2.432332	-0.412048	-0.000049
1581	1.5721e+02	-8.5251	-76.485555	-0.000122	-1.216166	-0.206024	-0.000024
1582	1.5731e+02	-8.5056	-76.521889	-0.000182	-1.824249	-0.309036	-0.000037
1583	1.5741e+02	-8.4859	-76.538038	-0.000081	-0.810777	-0.137349	-0.000016
1584	1.5751e+02	-8.4663	-76.505741	0.000162	1.621555	0.274699	0.000032
1585	1.5761e+02	-8.4469	-76.546112	-0.000203	-2.026944	-0.343374	-0.000041
1586	1.5771e+02	-8.4274	-76.521889	0.000122	1.216166	0.206024	0.000024
1587	1.5781e+02	-8.4050	-76.481518	0.000203	2.026944	0.343374	0.000041
1588	1.5791e+02	-8.3865	-76.501704	-0.000101	-1.013472	-0.171687	-0.000020
1589	1.5801e+02	-8.3655	-76.538038	-0.000182	-1.824249	-0.309036	-0.000037
1590	1.5811e+02	-8.3463	-76.525926	0.000061	0.608083	0.103012	0.000012
1591	1.5821e+02	-8.3268	-76.505741	0.000101	1.013472	0.171687	0.000020
1592	1.5830e+02	-8.3067	-76.501704	0.000020	0.202694	0.034337	0.000004
1593	1.5840e+02	-8.2864	-76.550149	-0.000243	-2.432332	-0.412048	-0.000049
1594	1.5850e+02	-8.2664	-76.493629	0.000284	2.837721	0.480723	0.000057
1595	1.5860e+02	-8.2466	-76.517852	-0.000122	-1.216166	-0.206024	-0.000024
1596	1.5870e+02	-8.2260	-76.437109	0.000405	4.053887	0.686747	0.000081
1597	1.5880e+02	-8.2060	-76.489592	-0.000264	-2.635027	-0.446386	-0.000053
1598	1.5890e+02	-8.1865	-76.429035	0.000304	3.040416	0.515060	0.000061
1599	1.5900e+02	-8.1664	-76.445184	-0.000081	-0.810777	-0.137349	-0.000016
1600	1.5910e+02	-8.1468	-76.473444	-0.000142	-1.418861	-0.240361	-0.000028
1601	1.5920e+02	-8.1268	-76.404812	0.000345	3.445804	0.583735	0.000069
1602	1.5930e+02	-8.1073	-76.396738	0.000041	0.405389	0.068675	0.000008
1603	1.5940e+02	-8.0887	-76.368478	0.000142	1.418861	0.240361	0.000028
1604	1.5950e+02	-8.0676	-76.356367	0.000061	0.608083	0.103012	0.000012
1605	1.5960e+02	-8.0479	-76.384627	-0.000142	-1.418861	-0.240361	-0.000028
1606	1.5970e+02	-8.0273	-76.328107	0.000284	2.837721	0.480723	0.000057
1607	1.5980e+02	-8.0078	-76.311958	0.000081	0.810777	0.137349	0.000016
1608	1.5990e+02	-7.9877	-76.235253	0.000385	3.851193	0.652410	0.000077
1609	1.6000e+02	-7.9683	-76.251401	-0.000081	-0.810777	-0.137349	-0.000016
1610	1.6010e+02	-7.9478	-76.251401	0.000000	0.000000	0.000000	0.000000
1611	1.6019e+02	-7.9279	-76.182770	0.000345	3.445804	0.583735	0.000069
1612	1.6029e+02	-7.9080	-76.146436	0.000182	1.824249	0.309036	0.000037
1613	1.6039e+02	-7.8879	-76.138361	0.000041	0.405389	0.068675	0.000008
1614	1.6049e+02	-7.8686	-76.106064	0.000162	1.621555	0.274699	0.000032
1615	1.6059e+02	-7.8482	-76.073767	0.000162	1.621555	0.274699	0.000032
1616	1.6069e+02	-7.8284	-76.049544	0.000122	1.216166	0.206024	0.000024
1617	1.6079e+02	-7.8073	-76.033396	0.000081	0.810777	0.137349	0.000016
1618	1.6089e+02	-7.7893	-75.993025	0.000203	2.026944	0.343374	0.000041
1619	1.6099e+02	-7.7682	-75.972839	0.000101	1.013472	0.171687	0.000020
1620	1.6109e+02	-7.7485	-75.960727	0.000061	0.608083	0.103012	0.000012
1621	1.6119e+02	-7.7277	-75.875948	0.000426	4.256582	0.721084	0.000085
1622	1.6129e+02	-7.7084	-75.843651	0.000162	1.621555	0.274699	0.000032
1623	1.6139e+02	-7.6891	-75.783094	0.000304	3.040416	0.515060	0.000061
1624	1.6149e+02	-7.6680	-75.762908	0.000101	1.013472	0.171687	0.000020
1625	1.6159e+02	-7.6494	-75.746759	0.000081	0.810777	0.137349	0.000016
1626	1.6169e+02	-7.6294	-75.710425	0.000182	1.824249	0.309036	0.000037
1627	1.6179e+02	-7.6092	-75.653905	0.000284	2.837721	0.480723	0.000057
1628	1.6189e+02	-7.5885	-75.629682	0.000122	1.216166	0.206024	0.000024
1629	1.6199e+02	-7.5694	-75.581237	0.000243	2.432332	0.412048	0.000049
1630	1.6209e+02	-7.5488	-75.536828	0.000223	2.229638	0.377711	0.000045
1631	1.6219e+02	-7.5296	-75.484345	0.000264	2.635027	0.446386	0.000053
1632	1.6228e+02	-7.5110	-75.452048	0.000162	1.621555	0.274699	0.000032
1633	1.6238e+02	-7.4908	-75.423788	0.000142	1.418861	0.240361	0.000028
1634	1.6248e+02	-7.4699	-75.387454	0.000182	1.824249	0.309036	0.000037
1635	1.6258e+02	-7.4496	-75.355157	0.000162	1.621555	0.274699	0.000032
1636	1.6268e+02	-7.4303	-75.294600	0.000304	3.040416	0.515060	0.000061
1637	1.6278e+02	-7.4101	-75.254229	0.000203	2.026944	0.343374	0.000041
1638	1.6288e+02	-7.3905	-75.225969	0.000142	1.418861	0.240361	0.000028
1639	1.6298e+02	-7.3703	-75.137152	0.000446	4.459276	0.755422	0.000089
1640	1.6308e+02	-7.3511	-75.116966	0.000101	1.013472	0.171687	0.000020
1641	1.6318e+02	-7.3318	-75.064483	0.000264	2.635027	0.446386	0.000053
1642	1.6328e+02	-7.3105	-75.056409	0.000041	0.405389	0.068675	0.000008
1643	1.6338e+02	-7.2906	-74.971629	0.000426	4.256582	0.721084	0.000085
1644	1.6348e+02	-7.2710	-74.947406	0.000122	1.216166	0.206024	0.000024
1645	1.6358e+02	-7.2517	-74.850515	0.000486	4.864665	0.824097	0.000097
1646	1.6368e+02	-7.2314	-74.846478	0.000020	0.202694	0.034337	0.000004
1647	1.6378e+02	-7.2105	-74.798032	0.000243	2.432332	0.412048	0.000049
1648	1.6388e+02	-7.1912	-74.761698	0.000182	1.824249	0.309036	0.000037
1649	1.6398e+02	-7.1707	-74.693067	0.000345	3.445804	0.583735	0.000069
1650	1.6408e+02	-7.1497	-74.628473	0.000324	3.243110	0.549398	0.000065
1651	1.6418e+02	-7.1318	-74.588101	0.000203	2.026944	0.343374	0.000041
1652	1.6427e+02	-7.1121	-74.515433	0.000365	3.648499	0.618072	0.000073
1653	1.6437e+02	-7.0914	-74.471024	0.000223	2.229638	0.377711	0.000045
1654	1.6447e+02	-7.0721	-74.422579	0.000243	2.432332	0.412048	0.000049
1655	1.6457e+02	-7.0520	-74.345873	0.000385	3.851193	0.652410	0.000077
1656	1.6467e+02	-7.0322	-74.313576	0.000162	1.621555	0.274699	0.000032
1657	1.6477e+02	-7.0132	-74.273205	0.000203	2.026944	0.343374	0.000041
1658	1.6487e+02	-6.9919	-74.172276	0.000507	5.067359	0.858434	0.000101
1659	1.6497e+02	-6.9727	-74.160165	0.000061	0.608083	0.103012	0.000012
1660	1.6507e+02	-6.9527	-74.095571	0.000324	3.243110	0.549398	0.000065
1661	1.6517e+02	-6.9324	-74.002717	0.000466	4.661970	0.789759	0.000093
1662	1.6527e+02	-6.9122	-73.970420	0.000162	1.621555	0.274699	0.000032
1663	1.6537e+02	-6.8924	-73.926011	0.000223	2.229638	0.377711	0.000045
1664	1.6547e+02	-6.8718	-73.849305	0.000385	3.851193	0.652410	0.000077
1665	1.6557e+02	-6.8523	-73.776637	0.000365	3.648499	0.618072	0.000073
1666	1.6567e+02	-6.8326	-73.728191	0.000243	2.432332	0.412048	0.000049
1667	1.6577e+02	-6.8140	-73.683783	0.000223	2.229638	0.377711	0.000045
1668	1.6587e+02	-6.7926	-73.582855	0.000507	5.067359	0.858434	0.000101
1669	1.6597e+02	-6.7717	-73.558632	0.000122	1.216166	0.206024	0.000024
1670	1.6607e+02	-6.7532	-73.510186	0.000243	2.432332	0.412048	0.000049
1671	1.6616e+02	-6.7329	-73.413295	0.000486	4.864665	0.824097	0.000097
1672	1.6626e+02	-6.7126	-73.372923	0.000203	2.026944	0.343374	0.000041
1673	1.6636e+02	-6.6928	-73.288144	0.000426	4.256582	0.721084	0.000085
1674	1.6646e+02	-6.6748	-73.280069	0.000041	0.405389	0.068675	0.000008
1675	1.6656e+02	-6.6525	-73.183178	0.000486	4.864665	0.824097	0.000097
1676	1.6666e+02	-6.6339	-73.122621	0.000304	3.040416	0.515060	0.000061
1677	1.6676e+02	-6.6135	-73.013618	0.000547	5.472748	0.927109	0.000110
1678	1.6686e+02	-6.5939	-72.977284	0.000182	1.824249	0.309036	0.000037
1679	1.6696e+02	-6.5735	-72.961136	0.000081	0.810777	0.137349	0.000016
1680	1.6706e+02	-6.5543	-72.860207	0.000507	5.067359	0.858434	0.000101
1681	1.6716e+02	-6.5338	-72.771390	0.000446	4.459276	0.755422	0.000089
1682	1.6726e+02	-6.5140	-72.751205	0.000101	1.013472	0.171687	0.000020
1683	1.6736e+02	-6.4937	-72.646239	0.000527	5.270054	0.892771	0.000105
1684	1.6746e+02	-6.4740	-72.589719	0.000284	2.837721	0.480723	0.000057
1685	1.6756e+02	-6.4536	-72.525125	0.000324	3.243110	0.549398	0.000065
1686	1.6766e+02	-6.4348	-72.468605	0.000284	2.837721	0.480723	0.000057
1687	1.6776e+02	-6.4137	-72.412085	0.000284	2.837721	0.480723	0.000057
1688	1.6786e+02	-6.3940	-72.335380	0.000385	3.851193	0.652410	0.000077
1689	1.6796e+02	-6.3739	-72.266748	0.000345	3.445804	0.583735	0.000069
1690	1.6806e+02	-6.3544	-72.210228	0.000284	2.837721	0.480723	0.000057
1691	1.6816e+02	-6.3359	-72.105263	0.000527	5.270054	0.892771	0.000105
1692	1.6825e+02	-6.3138	-72.097189	0.000041	0.405389	0.068675	0.000008
1693	1.6835e+02	-6.2946	-72.000297	0.000486	4.864665	0.824097	0.000097
1694	1.6845e+02	-6.2744	-71.891295	0.000547	5.472748	0.927109	0.000110
1695	1.6855e+02	-6.2549	-71.871109	0.000101	1.013472	0.171687	0.000020
1696	1.6865e+02	-6.2360	-71.794403	0.000385	3.851193	0.652410	0.000077
1697	1.6875e+02	-6.2155	-71.721735	0.000365	3.648499	0.618072	0.000073
1698	1.6885e+02	-6.1958	-71.640992	0.000405	4.053887	0.686747	0.000081
1699	1.6895e+02	-6.1752	-71.564287	0.000385	3.851193	0.652410	0.000077
1700	1.6905e+02	-6.1560	-71.523915	0.000203	2.026944	0.343374	0.000041
1701	1.6915e+02	-6.1363	-71.431061	0.000466	4.661970	0.789759	0.000093
1702	1.6925e+02	-6.1148	-71.382616	0.000243	2.432332	0.412048	0.000049
1703	1.6935e+02	-6.0962	-71.281687	0.000507	5.067359	0.858434	0.000101
1704	1.6945e+02	-6.0761	-71.180759	0.000507	5.067359	0.858434	0.000101
1705	1.6955e+02	-6.0562	-71.120202	0.000304	3.040416	0.515060	0.000061
1706	1.6965e+02	-6.0349	-71.039459	0.000405	4.053887	0.686747	0.000081
1707	1.6975e+02	-6.0159	-71.011199	0.000142	1.418861	0.240361	0.000028
1708	1.6985e+02	-5.9958	-70.922382	0.000446	4.459276	0.755422	0.000089
1709	1.6995e+02	-5.9752	-70.817417	0.000527	5.270054	0.892771	0.000105
1710	1.7005e+02	-5.9561	-70.728600	0.000446	4.459276	0.755422	0.000089
1711	1.7015e+02	-5.9363	-70.692265	0.000182	1.824249	0.309036	0.000037
1712	1.7024e+02	-5.9167	-70.603448	0.000446	4.459276	0.755422	0.000089
1713	1.7034e+02	-5.8960	-70.530780	0.000365	3.648499	0.618072	0.000073
1714	1.7044e+02	-5.8771	-70.466186	0.000324	3.243110	0.549398	0.000065
1715	1.7054e+02	-5.8577	-70.377369	0.000446	4.459276	0.755422	0.000089
1716	1.7064e+02	-5.8369	-70.296626	0.000405	4.053887	0.686747	0.000081
1717	1.7074e+02	-5.8160	-70.232032	0.000324	3.243110	0.549398	0.000065
1718	1.7084e+02	-5.7973	-70.151289	0.000405	4.053887	0.686747	0.000081
1719	1.7094e+02	-5.7774	-70.062472	0.000446	4.459276	0.755422	0.000089
1720	1.7104e+02	-5.7567	-69.981729	0.000405	4.053887	0.686747	0.000081
1721	1.7114e+02	-5.7364	-69.896950	0.000426	4.256582	0.721084	0.000085
1722	1.7124e+02	-5.7164	-69.844467	0.000264	2.635027	0.446386	0.000053
1723	1.7134e+02	-5.6970	-69.755650	0.000446	4.459276	0.755422	0.000089
1724	1.7144e+02	-5.6773	-69.662796	0.000466	4.661970	0.789759	0.000093
1725	1.7154e+02	-5.6578	-69.590127	0.000365	3.648499	0.618072	0.000073
1726	1.7164e+02	-5.6372	-69.509385	0.000405	4.053887	0.686747	0.000081
1727	1.7174e+02	-5.6175	-69.420568	0.000446	4.459276	0.755422	0.000089
1728	1.7184e+02	-5.5974	-69.347899	0.000365	3.648499	0.618072	0.000073
1729	1.7194e+02	-5.5776	-69.230822	0.000588	5.878137	0.995783	0.000118
1730	1.7204e+02	-5.5573	-69.174302	0.000284	2.837721	0.480723	0.000057
1731	1.7213e+02	-5.5367	-69.142005	0.000162	1.621555	0.274699	0.000032
1732	1.7223e+02	-5.5173	-69.024928	0.000588	5.878137	0.995783	0.000118
1733	1.7233e+02	-5.4962	-68.932074	0.000466	4.661970	0.789759	0.000093
1734	1.7243e+02	-5.4781	-68.891703	0.000203	2.026944	0.343374	0.000041
1735	1.7253e+02	-5.4578	-68.774626	0.000588	5.878137	0.995783	0.000118
1736	1.7263e+02	-5.4379	-68.665623	0.000547	5.472748	0.927109	0.000110
1737	1.7273e+02	-5.4179	-68.629289	0.000182	1.824249	0.309036	0.000037
1738	1.7283e+02	-5.3978	-68.528361	0.000507	5.067359	0.858434	0.000101
1739	1.7293e+02	-5.3781	-68.455692	0.000365	3.648499	0.618072	0.000073
1740	1.7303e+02	-5.3589	-68.346689	0.000547	5.472748	0.927109	0.000110
1741	1.7313e+02	-5.3381	-68.298244	0.000243	2.432332	0.412048	0.000049
1742	1.7323e+02	-5.3180	-68.185204	0.000568	5.675442	0.961446	0.000114
1743	1.7333e+02	-5.2981	-68.096387	0.000446	4.459276	0.755422	0.000089
1744	1.7343e+02	-5.2791	-68.039867	0.000284	2.837721	0.480723	0.000057
1745	1.7353e+02	-5.2574	-67.959124	0.000405	4.053887	0.686747	0.000081
1746	1.7363e+02	-5.2388	-67.862233	0.000486	4.864665	0.824097	0.000097
1747	1.7373e+02	-5.2187	-67.793602	0.000345	3.445804	0.583735	0.000069
1748	1.7383e+02	-5.1984	-67.700748	0.000466	4.661970	0.789759	0.000093
1749	1.7393e+02	-5.1778	-67.624042	0.000385	3.851193	0.652410	0.000077
1750	1.7403e+02	-5.1587	-67.555411	0.000345	3.445804	0.583735	0.000069
1751	1.7413e+02	-5.1389	-67.450445	0.000527	5.270054	0.892771	0.000105
1752	1.7422e+02	-5.1190	-67.369703	0.000405	4.053887	0.686747	0.000081
1753	1.7432e+02	-5.0992	-67.264737	0.000527	5.270054	0.892771	0.000105
1754	1.7442e+02	-5.0790	-67.204180	0.000304	3.040416	0.515060	0.000061
1755	1.7452e+02	-5.0576	-67.127474	0.000385	3.851193	0.652410	0.000077
1756	1.7462e+02	-5.0397	-67.058843	0.000345	3.445804	0.583735	0.000069
1757	1.7472e+02	-5.0201	-66.937729	0.000608	6.080831	1.030121	0.000122
1758	1.7482e+02	-4.9997	-66.856986	0.000405	4.053887	0.686747	0.000081
1759	1.7492e+02	-4.9802	-66.780281	0.000385	3.851193	0.652410	0.000077
1760	1.7502e+02	-4.9603	-66.675315	0.000527	5.270054	0.892771	0.000105
1761	1.7512e+02	-4.9400	-66.570350	0.000527	5.270054	0.892771	0.000105
1762	1.7522e+02	-4.9203	-66.509793	0.000304	3.040416	0.515060	0.000061
1763	1.7532e+02	-4.9001	-66.412901	0.000486	4.864665	0.824097	0.000097
1764	1.7542e+02	-4.8803	-66.356382	0.000284	2.837721	0.480723	0.000057
1765	1.7552e+02	-4.8605	-66.239305	0.000588	5.878137	0.995783	0.000118
1766	1.7562e+02	-4.8405	-66.122228	0.000588	5.878137	0.995783	0.000118
1767	1.7572e+02	-4.8198	-66.073782	0.000243	2.432332	0.412048	0.000049
1768	1.7582e+02	-4.8016	-65.968817	0.000527	5.270054	0.892771	0.000105
1769	1.7592e+02	-4.7808	-65.867888	0.000507	5.067359	0.858434	0.000101
1770	1.7602e+02	-4.7609	-65.799257	0.000345	3.445804	0.583735	0.000069
1771	1.7612e+02	-4.7411	-65.718514	0.000405	4.053887	0.686747	0.000081
1772	1.7621e+02	-4.7207	-65.625660	0.000466	4.661970	0.789759	0.000093
1773	1.7631e+02	-4.7012	-65.504546	0.000608	6.080831	1.030121	0.000122
1774	1.7641e+02	-4.6811	-65.443989	0.000304	3.040416	0.515060	0.000061
1775	1.7651e+02	-4.6608	-65.363246	0.000405	4.053887	0.686747	0.000081
1776	1.7661e+02	-4.6417	-65.254244	0.000547	5.472748	0.927109	0.000110
1777	1.7671e+02	-4.6211	-65.189649	0.000324	3.243110	0.549398	0.000065
1778	1.7681e+02	-4.6016	-65.088721	0.000507	5.067359	0.858434	0.000101
1779	1.7691e+02	-4.5811	-65.007978	0.000405	4.053887	0.686747	0.000081
1780	1.7701e+02	-4.5618	-64.890901	0.000588	5.878137	0.995783	0.000118
1781	1.7711e+02	-4.5420	-64.826307	0.000324	3.243110	0.549398	0.000065
1782	1.7721e+02	-4.5215	-64.757676	0.000345	3.445804	0.583735	0.000069
1783	1.7731e+02	-4.5015	-64.620413	0.000689	6.891609	1.167470	0.000138
1784	1.7741e+02	-4.4817	-64.571968	0.000243	2.432332	0.412048	0.000049
1785	1.7751e+02	-4.4617	-64.467002	0.000527	5.270054	0.892771	0.000105
1786	1.7761e+02	-4.4427	-64.341851	0.000628	6.283525	1.064458	0.000126
1787	1.7771e+02	-4.4220	-64.305517	0.000182	1.824249	0.309036	0.000037
1788	1.7781e+02	-4.4025	-64.204588	0.000507	5.067359	0.858434	0.000101
1789	1.7791e+02	-4.3820	-64.131920	0.000365	3.648499	0.618072	0.000073
1790	1.7801e+02	-4.3625	-64.039066	0.000466	4.661970	0.789759	0.000093
1791	1.7810e+02	-4.3456	-63.942174	0.000486	4.864665	0.824097	0.000097
1792	1.7820e+02	-4.3212	-63.849320	0.000466	4.661970	0.789759	0.000093
1793	1.7830e+02	-4.3028	-63.744355	0.000527	5.270054	0.892771	0.000105
1794	1.7840e+02	-4.2818	-63.659575	0.000426	4.256582	0.721084	0.000085
1795	1.7850e+02	-4.2642	-63.554609	0.000527	5.270054	0.892771	0.000105
1796	1.7860e+02	-4.2426	-63.494052	0.000304	3.040416	0.515060	0.000061
1797	1.7870e+02	-4.2221	-63.368901	0.000628	6.283525	1.064458	0.000126
1798	1.7880e+02	-4.2027	-63.328530	0.000203	2.026944	0.343374	0.000041
1799	1.7890e+02	-4.1824	-63.239713	0.000446	4.459276	0.755422	0.000089
1800	1.7900e+02	-4.1625	-63.118599	0.000608	6.080831	1.030121	0.000122
1801	1.7910e+02	-4.1433	-63.001522	0.000588	5.878137	0.995783	0.000118
1802	1.7920e+02	-4.1232	-62.916742	0.000426	4.256582	0.721084	0.000085
1803	1.7930e+02	-4.1025	-62.860222	0.000284	2.837721	0.480723	0.000057
1804	1.7940e+02	-4.0839	-62.771405	0.000446	4.459276	0.755422	0.000089
1805	1.7950e+02	-4.0637	-62.666439	0.000527	5.270054	0.892771	0.000105
1806	1.7960e+02	-4.0434	-62.561474	0.000527	5.270054	0.892771	0.000105
1807	1.7970e+02	-4.0239	-62.492843	0.000345	3.445804	0.583735	0.000069
1808	1.7980e+02	-4.0034	-62.391914	0.000507	5.067359	0.858434	0.000101
1809	1.7990e+02	-3.9838	-62.295023	0.000486	4.864665	0.824097	0.000097
1810	1.8000e+02	-3.9639	-62.226392	0.000345	3.445804	0.583735	0.000069
1811	1.8009e+02	-3.9437	-62.121426	0.000527	5.270054	0.892771	0.000105
1812	1.8019e+02	-3.9233	-62.020498	0.000507	5.067359	0.858434	0.000101
1813	1.8029e+02	-3.9037	-61.935718	0.000426	4.256582	0.721084	0.000085
1814	1.8039e+02	-3.8835	-61.895347	0.000203	2.026944	0.343374	0.000041
1815	1.8049e+02	-3.8640	-61.774232	0.000608	6.080831	1.030121	0.000122
1816	1.8059e+02	-3.8441	-61.657156	0.000588	5.878137	0.995783	0.000118
1817	1.8069e+02	-3.8235	-61.576413	0.000405	4.053887	0.686747	0.000081
1818	1.8079e+02	-3.8040	-61.459336	0.000588	5.878137	0.995783	0.000118
1819	1.8089e+02	-3.7843	-61.374556	0.000426	4.256582	0.721084	0.000085
1820	1.8099e+02	-3.7648	-61.245368	0.000649	6.486220	1.098795	0.000130
1821	1.8109e+02	-3.7451	-61.172699	0.000365	3.648499	0.618072	0.000073
1822	1.8119e+02	-3.7247	-61.071771	0.000507	5.067359	0.858434	0.000101
1823	1.8129e+02	-3.7047	-60.974880	0.000486	4.864665	0.824097	0.000097
1824	1.8139e+02	-3.6850	-60.910285	0.000324	3.243110	0.549398	0.000065
1825	1.8149e+02	-3.6651	-60.789171	0.000608	6.080831	1.030121	0.000122
1826	1.8159e+02	-3.6447	-60.708429	0.000405	4.053887	0.686747	0.000081
1827	1.8169e+02	-3.6255	-60.615575	0.000466	4.661970	0.789759	0.000093
1828	1.8179e+02	-3.6060	-60.567129	0.000243	2.432332	0.412048	0.000049
1829	1.8189e+02	-3.5850	-60.429866	0.000689	6.891609	1.167470	0.000138
1830	1.8199e+02	-3.5661	-60.316826	0.000568	5.675442	0.961446	0.000114
1831	1.8209e+02	-3.5455	-60.240121	0.000385	3.851193	0.652410	0.000077
1832	1.8218e+02	-3.5255	-60.147267	0.000466	4.661970	0.789759	0.000093
1833	1.8228e+02	-3.5051	-60.038264	0.000547	5.472748	0.927109	0.000110
1834	1.8238e+02	-3.4848	-59.921187	0.000588	5.878137	0.995783	0.000118
1835	1.8248e+02	-3.4654	-59.816222	0.000527	5.270054	0.892771	0.000105
1836	1.8258e+02	-3.4462	-59.743553	0.000365	3.648499	0.618072	0.000073
1837	1.8268e+02	-3.4261	-59.622439	0.000608	6.080831	1.030121	0.000122
1838	1.8278e+02	-3.4065	-59.561882	0.000304	3.040416	0.515060	0.000061
1839	1.8288e+02	-3.3859	-59.469028	0.000466	4.661970	0.789759	0.000093
1840	1.8298e+02	-3.3661	-59.327728	0.000709	7.094303	1.201807	0.000142
1841	1.8308e+02	-3.3468	-59.275245	0.000264	2.635027	0.446386	0.000053
1842	1.8318e+02	-3.3255	-59.150094	0.000628	6.283525	1.064458	0.000126
1843	1.8328e+02	-3.3061	-59.073389	0.000385	3.851193	0.652410	0.000077
1844	1.8338e+02	-3.2866	-58.960349	0.000568	5.675442	0.961446	0.000114
1845	1.8348e+02	-3.2650	-58.879606	0.000405	4.053887	0.686747	0.000081
1846	1.8358e+02	-3.2463	-58.738306	0.000709	7.094303	1.201807	0.000142
1847	1.8368e+02	-3.2263	-58.681787	0.000284	2.837721	0.480723	0.000057
1848	1.8378e+02	-3.2063	-58.597007	0.000426	4.256582	0.721084	0.000085
1849	1.8388e+02	-3.1883	-58.447633	0.000750	7.499692	1.270482	0.000150
1850	1.8398e+02	-3.1662	-58.334593	0.000568	5.675442	0.961446	0.000114
1851	1.8407e+02	-3.1479	-58.257887	0.000385	3.851193	0.652410	0.000077
1852	1.8417e+02	-3.1268	-58.201367	0.000284	2.837721	0.480723	0.000057
1853	1.8427e+02	-3.1065	-58.027771	0.000872	8.715858	1.476506	0.000174
1854	1.8437e+02	-3.0872	-57.930879	0.000486	4.864665	0.824097	0.000097
1855	1.8447e+02	-3.0676	-57.842062	0.000446	4.459276	0.755422	0.000089
1856	1.8457e+02	-3.0476	-57.757282	0.000426	4.256582	0.721084	0.000085
1857	1.8467e+02	-3.0267	-57.680577	0.000385	3.851193	0.652410	0.000077
1858	1.8477e+02	-3.0074	-57.567537	0.000568	5.675442	0.961446	0.000114
1859	1.8487e+02	-2.9877	-57.490831	0.000385	3.851193	0.652410	0.000077
1860	1.8497e+02	-2.9672	-57.333383	0.000791	7.905080	1.339157	0.000158
1861	1.8507e+02	-2.9462	-57.240529	0.000466	4.661970	0.789759	0.000093
1862	1.8517e+02	-2.9279	-57.159786	0.000405	4.053887	0.686747	0.000081
1863	1.8527e+02	-2.9076	-57.006375	0.000770	7.702386	1.304820	0.000154
1864	1.8537e+02	-2.8867	-56.953892	0.000264	2.635027	0.446386	0.000053
1865	1.8547e+02	-2.8677	-56.812593	0.000709	7.094303	1.201807	0.000142
1866	1.8557e+02	-2.8484	-56.715701	0.000486	4.864665	0.824097	0.000097
1867	1.8567e+02	-2.8282	-56.606699	0.000547	5.472748	0.927109	0.000110
1868	1.8577e+02	-2.8077	-56.477510	0.000649	6.486220	1.098795	0.000130
1869	1.8587e+02	-2.7887	-56.396768	0.000405	4.053887	0.686747	0.000081
1870	1.8597e+02	-2.7684	-56.287765	0.000547	5.472748	0.927109	0.000110
1871	1.8606e+02	-2.7478	-56.194911	0.000466	4.661970	0.789759	0.000093
1872	1.8616e+02	-2.7287	-56.093983	0.000507	5.067359	0.858434	0.000101
1873	1.8626e+02	-2.7075	-55.964794	0.000649	6.486220	1.098795	0.000130
1874	1.8636e+02	-2.6900	-55.904237	0.000304	3.040416	0.515060	0.000061
1875	1.8646e+02	-2.6688	-55.758900	0.000730	7.296997	1.236145	0.000146
1876	1.8656e+02	-2.6489	-55.662009	0.000486	4.864665	0.824097	0.000097
1877	1.8666e+02	-2.6295	-55.589341	0.000365	3.648499	0.618072	0.000073
1878	1.8676e+02	-2.6077	-55.407669	0.000912	9.121247	1.545181	0.000183
1879	1.8686e+02	-2.5887	-55.339038	0.000345	3.445804	0.583735	0.000069
1880	1.8696e+02	-2.5692	-55.221961	0.000588	5.878137	0.995783	0.000118
1881	1.8706e+02	-2.5499	-55.161404	0.000304	3.040416	0.515060	0.000061
1882	1.8716e+02	-2.5291	-55.003956	0.000791	7.905080	1.339157	0.000158
1883	1.8726e+02	-2.5099	-54.919176	0.000426	4.256582	0.721084	0.000085
1884	1.8736e+02	-2.4903	-54.781913	0.000689	6.891609	1.167470	0.000138
1885	1.8746e+02	-2.4699	-54.685022	0.000486	4.864665	0.824097	0.000097
1886	1.8756e+02	-2.4496	-54.580057	0.000527	5.270054	0.892771	0.000105
1887	1.8766e+02	-2.4300	-54.462980	0.000588	5.878137	0.995783	0.000118
1888	1.8776e+02	-2.4097	-54.325717	0.000689	6.891609	1.167470	0.000138
1889	1.8786e+02	-2.3901	-54.257086	0.000345	3.445804	0.583735	0.000069
1890	1.8796e+02	-2.3701	-54.127897	0.000649	6.486220	1.098795	0.000130
1891	1.8806e+02	-2.3505	-54.010820	0.000588	5.878137	0.995783	0.000118
1892	1.8815e+02	-2.3297	-53.869521	0.000709	7.094303	1.201807	0.000142
1893	1.8825e+02	-2.3095	-53.800889	0.000345	3.445804	0.583735	0.000069
1894	1.8835e+02	-2.2900	-53.619218	0.000912	9.121247	1.545181	0.000183
1895	1.8845e+02	-2.2707	-53.538476	0.000405	4.053887	0.686747	0.000081
1896	1.8855e+02	-2.2510	-53.425436	0.000568	5.675442	0.961446	0.000114
1897	1.8865e+02	-2.2297	-53.324507	0.000507	5.067359	0.858434	0.000101
1898	1.8875e+02	-2.2096	-53.207430	0.000588	5.878137	0.995783	0.000118
1899	1.8885e+02	-2.1918	-53.082279	0.000628	6.283525	1.064458	0.000126
1900	1.8895e+02	-2.1695	-52.965202	0.000588	5.878137	0.995783	0.000118
1901	1.8905e+02	-2.1515	-52.827940	0.000689	6.891609	1.167470	0.000138
1902	1.8915e+02	-2.1309	-52.763346	0.000324	3.243110	0.549398	0.000065
1903	1.8925e+02	-2.1104	-52.666454	0.000486	4.864665	0.824097	0.000097
1904	1.8935e+02	-2.0911	-52.561489	0.000527	5.270054	0.892771	0.000105
1905	1.8945e+02	-2.0714	-52.412115	0.000750	7.499692	1.270482	0.000150
1906	1.8955e+02	-2.0515	-52.327335	0.000426	4.256582	0.721084	0.000085
1907	1.8965e+02	-2.0315	-52.214295	0.000568	5.675442	0.961446	0.000114
1908	1.8975e+02	-2.0123	-52.093181	0.000608	6.080831	1.030121	0.000122
1909	1.8985e+02	-1.9904	-52.000327	0.000466	4.661970	0.789759	0.000093
1910	1.8995e+02	-1.9716	-51.867101	0.000669	6.688914	1.133133	0.000134
1911	1.9004e+02	-1.9518	-51.758099	0.000547	5.472748	0.927109	0.000110
1912	1.9014e+02	-1.9315	-51.701579	0.000284	2.837721	0.480723	0.000057
1913	1.9024e+02	-1.9124	-51.519908	0.000912	9.121247	1.545181	0.000183
1914	1.9034e+02	-1.8918	-51.439165	0.000405	4.053887	0.686747	0.000081
1915	1.9044e+02	-1.8729	-51.293828	0.000730	7.296997	1.236145	0.000146
1916	1.9054e+02	-1.8523	-51.180788	0.000568	5.675442	0.961446	0.000114
1917	1.9064e+02	-1.8323	-51.063711	0.000588	5.878137	0.995783	0.000118
1918	1.9074e+02	-1.8127	-50.970857	0.000466	4.661970	0.789759	0.000093
1919	1.9084e+02	-1.7915	-50.833595	0.000689	6.891609	1.167470	0.000138
1920	1.9094e+02	-1.7729	-50.748815	0.000426	4.256582	0.721084	0.000085
1921	1.9104e+02	-1.7511	-50.623664	0.000628	6.283525	1.064458	0.000126
1922	1.9114e+02	-1.7326	-50.514661	0.000547	5.472748	0.927109	0.000110
1923	1.9124e+02	-1.7120	-50.369324	0.000730	7.296997	1.236145	0.000146
1924	1.9134e+02	-1.6928	-50.232061	0.000689	6.891609	1.167470	0.000138
1925	1.9144e+02	-1.6727	-50.167467	0.000324	3.243110	0.549398	0.000065
1926	1.9154e+02	-1.6526	-50.042316	0.000628	6.283525	1.064458	0.000126
1927	1.9164e+02	-1.6321	-49.921202	0.000608	6.080831	1.030121	0.000122
1928	1.9174e+02	-1.6127	-49.824311	0.000486	4.864665	0.824097	0.000097
1929	1.9184e+02	-1.5933	-49.707234	0.000588	5.878137	0.995783	0.000118
1930	1.9194e+02	-1.5736	-49.618417	0.000446	4.459276	0.755422	0.000089
1931	1.9203e+02	-1.5527	-49.452894	0.000831	8.310469	1.407832	0.000166
1932	1.9213e+02	-1.5317	-49.364077	0.000446	4.459276	0.755422	0.000089
1933	1.9223e+02	-1.5129	-49.242963	0.000608	6.080831	1.030121	0.000122
1934	1.9233e+02	-1.4931	-49.105701	0.000689	6.891609	1.167470	0.000138
1935	1.9243e+02	-1.4727	-48.960364	0.000730	7.296997	1.236145	0.000146
1936	1.9253e+02	-1.4537	-48.879621	0.000405	4.053887	0.686747	0.000081
1937	1.9263e+02	-1.4335	-48.742358	0.000689	6.891609	1.167470	0.000138
1938	1.9273e+02	-1.4134	-48.621244	0.000608	6.080831	1.030121	0.000122
1939	1.9283e+02	-1.3945	-48.520316	0.000507	5.067359	0.858434	0.000101
1940	1.9293e+02	-1.3739	-48.366905	0.000770	7.702386	1.304820	0.000154
1941	1.9303e+02	-1.3536	-48.294236	0.000365	3.648499	0.618072	0.000073
1942	1.9313e+02	-1.3338	-48.124677	0.000851	8.513164	1.442169	0.000170
1943	1.9323e+02	-1.3135	-48.043934	0.000405	4.053887	0.686747	0.000081
1944	1.9333e+02	-1.2943	-47.930894	0.000568	5.675442	0.961446	0.000114
1945	1.9343e+02	-1.2736	-47.817854	0.000568	5.675442	0.961446	0.000114
1946	1.9353e+02	-1.2550	-47.716926	0.000507	5.067359	0.858434	0.000101
1947	1.9363e+02	-1.2341	-47.563515	0.000770	7.702386	1.304820	0.000154
1948	1.9373e+02	-1.2152	-47.450475	0.000568	5.675442	0.961446	0.000114
1949	1.9383e+02	-1.1939	-47.361658	0.000446	4.459276	0.755422	0.000089
1950	1.9393e+02	-1.1749	-47.240544	0.000608	6.080831	1.030121	0.000122
1951	1.9403e+02	-1.1544	-47.087133	0.000770	7.702386	1.304820	0.000154
1952	1.9412e+02	-1.1348	-46.974093	0.000568	5.675442	0.961446	0.000114
1953	1.9422e+02	-1.1147	-46.881239	0.000466	4.661970	0.789759	0.000093
1954	1.9432e+02	-1.0960	-46.780310	0.000507	5.067359	0.858434	0.000101
1955	1.9442e+02	-1.0754	-46.683419	0.000486	4.864665	0.824097	0.000097
1956	1.9452e+02	-1.0553	-46.530008	0.000770	7.702386	1.304820	0.000154
1957	1.9462e+02	-1.0345	-46.412931	0.000588	5.878137	0.995783	0.000118
1958	1.9472e+02	-1.0153	-46.307965	0.000527	5.270054	0.892771	0.000105
1959	1.9482e+02	-0.9965	-46.182814	0.000628	6.283525	1.064458	0.000126
1960	1.9492e+02	-0.9760	-46.061700	0.000608	6.080831	1.030121	0.000122
1961	1.9502e+02	-0.9547	-45.932512	0.000649	6.486220	1.098795	0.000130
1962	1.9512e+02	-0.9351	-45.819472	0.000568	5.675442	0.961446	0.000114
1963	1.9522e+02	-0.9168	-45.706432	0.000568	5.675442	0.961446	0.000114
1964	1.9532e+02	-0.8960	-45.585318	0.000608	6.080831	1.030121	0.000122
1965	1.9542e+02	-0.8754	-45.484390	0.000507	5.067359	0.858434	0.000101
1966	1.9552e+02	-0.8558	-45.423833	0.000304	3.040416	0.515060	0.000061
1967	1.9562e+02	-0.8358	-45.282533	0.000709	7.094303	1.201807	0.000142
1968	1.9572e+02	-0.8162	-45.137196	0.000730	7.296997	1.236145	0.000146
1969	1.9582e+02	-0.7956	-45.052416	0.000426	4.256582	0.721084	0.000085
1970	1.9592e+02	-0.7764	-44.894968	0.000791	7.905080	1.339157	0.000158
1971	1.9601e+02	-0.7564	-44.785965	0.000547	5.472748	0.927109	0.000110
1972	1.9611e+02	-0.7366	-44.685037	0.000507	5.067359	0.858434	0.000101
1973	1.9621e+02	-0.7179	-44.608331	0.000385	3.851193	0.652410	0.000077
1974	1.9631e+02	-0.6966	-44.450883	0.000791	7.905080	1.339157	0.000158
1975	1.9641e+02	-0.6767	-44.329769	0.000608	6.080831	1.030121	0.000122
1976	1.9651e+02	-0.6562	-44.220766	0.000547	5.472748	0.927109	0.000110
1977	1.9661e+02	-0.6371	-44.075429	0.000730	7.296997	1.236145	0.000146
1978	1.9671e+02	-0.6168	-44.002761	0.000365	3.648499	0.618072	0.000073
1979	1.9681e+02	-0.5965	-43.857424	0.000730	7.296997	1.236145	0.000146
1980	1.9691e+02	-0.5772	-43.772644	0.000426	4.256582	0.721084	0.000085
1981	1.9701e+02	-0.5577	-43.639419	0.000669	6.688914	1.133133	0.000134
1982	1.9711e+02	-0.5377	-43.477933	0.000811	8.107775	1.373494	0.000162
1983	1.9721e+02	-0.5172	-43.409302	0.000345	3.445804	0.583735	0.000069
1984	1.9731e+02	-0.4984	-43.263965	0.000730	7.296997	1.236145	0.000146
1985	1.9741e+02	-0.4770	-43.167074	0.000486	4.864665	0.824097	0.000097
1986	1.9751e+02	-0.4573	-43.058071	0.000547	5.472748	0.927109	0.000110
1987	1.9761e+02	-0.4373	-42.957143	0.000507	5.067359	0.858434	0.000101
1988	1.9771e+02	-0.4174	-42.836029	0.000608	6.080831	1.030121	0.000122
1989	1.9781e+02	-0.3972	-42.731063	0.000527	5.270054	0.892771	0.000105
1990	1.9791e+02	-0.3772	-42.549392	0.000912	9.121247	1.545181	0.000183
1991	1.9800e+02	-0.3579	-42.492872	0.000284	2.837721	0.480723	0.000057
1992	1.9810e+02	-0.3378	-42.347535	0.000730	7.296997	1.236145	0.000146
1993	1.9820e+02	-0.3181	-42.222384	0.000628	6.283525	1.064458	0.000126
1994	1.9830e+02	-0.2969	-42.145679	0.000385	3.851193	0.652410	0.000077
1995	1.9840e+02	-0.2775	-41.972082	0.000872	8.715858	1.476506	0.000174
1996	1.9850e+02	-0.2579	-41.915562	0.000284	2.837721	0.480723	0.000057
1997	1.9860e+02	-0.2378	-41.774262	0.000709	7.094303	1.201807	0.000142
1998	1.9870e+02	-0.2180	-41.608739	0.000831	8.310469	1.407832	0.000166
1999	1.9880e+02	-0.1978	-41.548182	0.000304	3.040416	0.515060	0.000061
2000	1.9890e+02	-0.1780	-41.386697	0.000811	8.107775	1.373494	0.000162
2001	1.9900e+02	-0.1582	-41.289806	0.000486	4.864665	0.824097	0.000097
2002	1.9910e+02	-0.1384	-41.196952	0.000466	4.661970	0.789759	0.000093
2003	1.9920e+02	-0.1187	-41.063726	0.000669	6.688914	1.133133	0.000134
2004	1.9930e+02	-0.0984	-40.918389	0.000730	7.296997	1.236145	0.000146
2005	1.9940e+02	-0.0787	-40.809387	0.000547	5.472748	0.927109	0.000110
2006	1.9950e+02	-0.0579	-40.672124	0.000689	6.891609	1.167470	0.000138
2007	1.9960e+02	-0.0375	-40.575233	0.000486	4.864665	0.824097	0.000097
2008	1.9970e+02	-0.0187	-40.421822	0.000770	7.702386	1.304820	0.000154
2009	1.9980e+02	-0.0002	-40.357227	0.000770	7.702386	1.304820	0.000065

PMax (uC/cm2):	4.89e+01
Pr (uC/cm2):	4.44e+00
-Pr (uC/cm2):	-6.80e+01
PLoss (uC/cm2):	-6.80e+01
-Vc:	-7.37e-01
C (Max-Eff) (nF):	4.89e-01
K (Eff):	8.29e+02
Vert. (+/-Pr) Shift (uC/cm2):	-3.18e+01
Offset (uC/cm2):	-2.76e+01

A (Loop Area - uC/cm2·Volts):	-4.56e-01



Hysteresis Version: 5.48.1 - Radiant Technologies, Inc., 1999 - 9/12/24

