»»»»»»»»»»»»»»»»»»»»»»»»»»»»»»»»»»»» Hysteresis ««««««««««««««««««««««««««««««««««««
»»»  Executed Version:	5.48.1
»»»  Vision Version:	5.48.4 (R)
»»»  Vision Compiled:	9/18/24
»»»  Driver Version:	5.47.0
»»»  Windows Version:	Windows 8 or 8.1
»»»  Processor Information:	x86 (AMD or Intel) - 32 Processors
»»»  Tester Name:	PMF21124-494 (100V)
»»»  Tester S/N:	PMF21124-494
»»»  Internal Amp Type:	100V RevK 270k
»»»  Internal Amp S/N:	iAB2-596/K     
»»»  Execution Count:	1
»»»»»»»»»»»»»»»»»»»»»»»»»»»»»»»»»»»»»»»»»»««««««««««««««««««««««««««««««««««««««««««

Stored:	7/3/2025 - 13:38:47
Configured:	07/03/25 12:01:19 PM
Executed:	07/03/25 01:37:34 PM

»»»»»»»»»»»»»»»»»»»»»»»»»»»»»»»»»»» Sample Info ««««««««««««««««««««««««««««««««««««
Sample Name:	
Lot Name:	
Wafer Name:	
Die Row/Column:	0/0
Capacitor Number:	0
Sample Area (cm2):	1.00e-04
Sample Thickness (microns):	1.50e-01

Amplifier:	Internal

»»»»»»»»»»»»»»»»»»»»»»»»»»»»»»»»»»» Tester Info «««««««««««««««««««««««««««««««««««
Tester Name:	PMF21124-494 (100V)
Tester Serial Number:	PMF21124-494
Return Signal Amp. Level:	0.19 [Index: 3]

»»»»»»»»»»»»»»»»»»»»»»»»»»»»»»»» Hysteresis Info ««««««««««««««««««««««««««««««««««
Task Name:	Hyst-410
Volts:	10.00
Field:	666.67 (kV/cm)
DCBias:	0.00
DCField:	0.00 (kV/cm)
Hysteresis Period (ms):	2.00e+02
Preset:	Enabled
Preset Delay (ms):	1.00e+03
Profile:	Standard Bipolar

»»»»»»»»»»»»»»»»»»»»»»»»»»»»»»»»»»»»»» Data «««««««««««««««««««««««««««««««««««««««
Points:	2009

Valid Data

Point	Time (ms)	Drive Voltage	Measured Polarization (uC/cm2)	Capacitance (uF)	Normalized Capacitance (uF/cm2)	Dielectric Constant	Instantaneous Current (mA)
   1	0.0000e+00	-0.0002	16.164691	0.000426	4.256403	0.721054	0.000085
   2	9.9500e-02	0.0198	16.249471	0.000426	4.256403	0.721054	0.000085
   3	1.9900e-01	0.0391	16.366548	0.000588	5.877890	0.995742	0.000118
   4	2.9850e-01	0.0584	16.491699	0.000628	6.283262	1.064413	0.000126
   5	3.9800e-01	0.0797	16.592628	0.000507	5.067147	0.858398	0.000101
   6	4.9750e-01	0.0990	16.693556	0.000507	5.067147	0.858398	0.000101
   7	5.9700e-01	0.1184	16.762188	0.000345	3.445660	0.583711	0.000069
   8	6.9650e-01	0.1383	16.907524	0.000730	7.296691	1.236093	0.000146
   9	7.9600e-01	0.1582	17.060936	0.000770	7.702063	1.304765	0.000154
  10	8.9550e-01	0.1788	17.137641	0.000385	3.851031	0.652382	0.000077
  11	9.9500e-01	0.1991	17.234532	0.000486	4.864461	0.824062	0.000097
  12	1.0945e+00	0.2182	17.331424	0.000486	4.864461	0.824062	0.000097
  13	1.1940e+00	0.2396	17.460612	0.000649	6.485948	1.098749	0.000130
  14	1.2935e+00	0.2586	17.585763	0.000628	6.283262	1.064413	0.000126
  15	1.3930e+00	0.2775	17.662469	0.000385	3.851031	0.652382	0.000077
  16	1.4925e+00	0.2982	17.771472	0.000547	5.472518	0.927070	0.000110
  17	1.5920e+00	0.3174	17.880474	0.000547	5.472518	0.927070	0.000110
  18	1.6915e+00	0.3381	18.025811	0.000730	7.296691	1.236093	0.000146
  19	1.7910e+00	0.3574	18.110591	0.000426	4.256403	0.721054	0.000085
  20	1.8905e+00	0.3773	18.235742	0.000628	6.283262	1.064413	0.000126
  21	1.9900e+00	0.3975	18.348782	0.000568	5.675204	0.961406	0.000114
  22	2.0895e+00	0.4176	18.490082	0.000709	7.094005	1.201757	0.000142
  23	2.1890e+00	0.4378	18.586973	0.000486	4.864461	0.824062	0.000097
  24	2.2885e+00	0.4575	18.671753	0.000426	4.256403	0.721054	0.000085
  25	2.3880e+00	0.4780	18.796904	0.000628	6.283262	1.064413	0.000126
  26	2.4875e+00	0.4974	18.893795	0.000486	4.864461	0.824062	0.000097
  27	2.5870e+00	0.5177	19.031058	0.000689	6.891319	1.167421	0.000138
  28	2.6865e+00	0.5373	19.131986	0.000507	5.067147	0.858398	0.000101
  29	2.7860e+00	0.5573	19.253100	0.000608	6.080576	1.030077	0.000122
  30	2.8855e+00	0.5773	19.354029	0.000507	5.067147	0.858398	0.000101
  31	2.9850e+00	0.5968	19.479180	0.000628	6.283262	1.064413	0.000126
  32	3.0845e+00	0.6162	19.572034	0.000466	4.661775	0.789726	0.000093
  33	3.1840e+00	0.6372	19.717371	0.000730	7.296691	1.236093	0.000146
  34	3.2835e+00	0.6570	19.814262	0.000486	4.864461	0.824062	0.000097
  35	3.3830e+00	0.6778	19.907116	0.000466	4.661775	0.789726	0.000093
  36	3.4825e+00	0.6970	20.036305	0.000649	6.485948	1.098749	0.000130
  37	3.5820e+00	0.7171	20.165493	0.000649	6.485948	1.098749	0.000130
  38	3.6815e+00	0.7370	20.250273	0.000426	4.256403	0.721054	0.000085
  39	3.7810e+00	0.7565	20.359276	0.000547	5.472518	0.927070	0.000110
  40	3.8805e+00	0.7769	20.484427	0.000628	6.283262	1.064413	0.000126
  41	3.9800e+00	0.7961	20.617652	0.000669	6.688633	1.133085	0.000134
  42	4.0795e+00	0.8165	20.730692	0.000568	5.675204	0.961406	0.000114
  43	4.1790e+00	0.8365	20.859880	0.000649	6.485948	1.098749	0.000130
  44	4.2785e+00	0.8559	20.976957	0.000588	5.877890	0.995742	0.000118
  45	4.3780e+00	0.8759	21.053663	0.000385	3.851031	0.652382	0.000077
  46	4.4775e+00	0.8952	21.190925	0.000689	6.891319	1.167421	0.000138
  47	4.5770e+00	0.9172	21.308002	0.000588	5.877890	0.995742	0.000118
  48	4.6765e+00	0.9358	21.417005	0.000547	5.472518	0.927070	0.000110
  49	4.7760e+00	0.9561	21.546193	0.000649	6.485948	1.098749	0.000130
  50	4.8755e+00	0.9761	21.679419	0.000669	6.688633	1.133085	0.000134
  51	4.9750e+00	0.9956	21.796496	0.000588	5.877890	0.995742	0.000118
  52	5.0745e+00	1.0156	21.901461	0.000527	5.269832	0.892734	0.000105
  53	5.1740e+00	1.0358	21.978167	0.000385	3.851031	0.652382	0.000077
  54	5.2735e+00	1.0555	22.115430	0.000689	6.891319	1.167421	0.000138
  55	5.3730e+00	1.0765	22.212321	0.000486	4.864461	0.824062	0.000097
  56	5.4725e+00	1.0957	22.353621	0.000709	7.094005	1.201757	0.000142
  57	5.5720e+00	1.1150	22.474735	0.000608	6.080576	1.030077	0.000122
  58	5.6715e+00	1.1351	22.579700	0.000527	5.269832	0.892734	0.000105
  59	5.7710e+00	1.1556	22.704851	0.000628	6.283262	1.064413	0.000126
  60	5.8705e+00	1.1755	22.838077	0.000669	6.688633	1.133085	0.000134
  61	5.9700e+00	1.1945	22.939005	0.000507	5.067147	0.858398	0.000101
  62	6.0695e+00	1.2160	23.031859	0.000466	4.661775	0.789726	0.000093
  63	6.1690e+00	1.2342	23.209493	0.000892	8.918178	1.510780	0.000179
  64	6.2685e+00	1.2543	23.286199	0.000385	3.851031	0.652382	0.000077
  65	6.3680e+00	1.2745	23.383090	0.000486	4.864461	0.824062	0.000097
  66	6.4675e+00	1.2944	23.540538	0.000790	7.904749	1.339101	0.000158
  67	6.5670e+00	1.3137	23.653578	0.000568	5.675204	0.961406	0.000114
  68	6.6665e+00	1.3344	23.750470	0.000486	4.864461	0.824062	0.000097
  69	6.7660e+00	1.3538	23.903881	0.000770	7.702063	1.304765	0.000154
  70	6.8655e+00	1.3731	23.968475	0.000324	3.242974	0.549375	0.000065
  71	6.9650e+00	1.3934	24.097663	0.000649	6.485948	1.098749	0.000130
  72	7.0645e+00	1.4133	24.202629	0.000527	5.269832	0.892734	0.000105
  73	7.1640e+00	1.4345	24.335854	0.000669	6.688633	1.133085	0.000134
  74	7.2635e+00	1.4536	24.461005	0.000628	6.283262	1.064413	0.000126
  75	7.3630e+00	1.4725	24.598268	0.000689	6.891319	1.167421	0.000138
  76	7.4625e+00	1.4926	24.703234	0.000527	5.269832	0.892734	0.000105
  77	7.5620e+00	1.5133	24.824348	0.000608	6.080576	1.030077	0.000122
  78	7.6615e+00	1.5335	24.913165	0.000446	4.459089	0.755390	0.000089
  79	7.7610e+00	1.5528	25.046390	0.000669	6.688633	1.133085	0.000134
  80	7.8605e+00	1.5736	25.163467	0.000588	5.877890	0.995742	0.000118
  81	7.9600e+00	1.5936	25.244210	0.000405	4.053717	0.686718	0.000081
  82	8.0595e+00	1.6132	25.397621	0.000770	7.702063	1.304765	0.000154
  83	8.1590e+00	1.6323	25.478364	0.000405	4.053717	0.686718	0.000081
  84	8.2585e+00	1.6525	25.627738	0.000750	7.499377	1.270429	0.000150
  85	8.3580e+00	1.6727	25.748852	0.000608	6.080576	1.030077	0.000122
  86	8.4575e+00	1.6921	25.853817	0.000527	5.269832	0.892734	0.000105
  87	8.5570e+00	1.7128	25.987043	0.000669	6.688633	1.133085	0.000134
  88	8.6565e+00	1.7326	26.092008	0.000527	5.269832	0.892734	0.000105
  89	8.7560e+00	1.7530	26.180825	0.000446	4.459089	0.755390	0.000089
  90	8.8555e+00	1.7727	26.326162	0.000730	7.296691	1.236093	0.000146
  91	8.9550e+00	1.7916	26.443239	0.000588	5.877890	0.995742	0.000118
  92	9.0545e+00	1.8132	26.568390	0.000628	6.283262	1.064413	0.000126
  93	9.1540e+00	1.8324	26.681430	0.000568	5.675204	0.961406	0.000114
  94	9.2535e+00	1.8514	26.814656	0.000669	6.688633	1.133085	0.000134
  95	9.3530e+00	1.8723	26.935770	0.000608	6.080576	1.030077	0.000122
  96	9.4525e+00	1.8923	27.056884	0.000608	6.080576	1.030077	0.000122
  97	9.5520e+00	1.9125	27.145701	0.000446	4.459089	0.755390	0.000089
  98	9.6515e+00	1.9294	27.299112	0.000770	7.702063	1.304765	0.000154
  99	9.7510e+00	1.9521	27.420226	0.000608	6.080576	1.030077	0.000122
 100	9.8505e+00	1.9713	27.496932	0.000385	3.851031	0.652382	0.000077
 101	9.9500e+00	1.9910	27.638231	0.000709	7.094005	1.201757	0.000142
 102	1.0050e+01	2.0113	27.751271	0.000568	5.675204	0.961406	0.000114
 103	1.0149e+01	2.0313	27.892571	0.000709	7.094005	1.201757	0.000142
 104	1.0248e+01	2.0516	27.961202	0.000345	3.445660	0.583711	0.000069
 105	1.0348e+01	2.0723	28.122688	0.000811	8.107435	1.373437	0.000162
 106	1.0447e+01	2.0910	28.223616	0.000507	5.067147	0.858398	0.000101
 107	1.0547e+01	2.1115	28.324544	0.000507	5.067147	0.858398	0.000101
 108	1.0646e+01	2.1306	28.437584	0.000568	5.675204	0.961406	0.000114
 109	1.0746e+01	2.1508	28.619255	0.000912	9.120864	1.545116	0.000183
 110	1.0845e+01	2.1711	28.679812	0.000304	3.040288	0.515039	0.000061
 111	1.0945e+01	2.1914	28.796889	0.000588	5.877890	0.995742	0.000118
 112	1.1044e+01	2.2100	28.942226	0.000730	7.296691	1.236093	0.000146
 113	1.1144e+01	2.2295	29.027006	0.000426	4.256403	0.721054	0.000085
 114	1.1243e+01	2.2503	29.131971	0.000527	5.269832	0.892734	0.000105
 115	1.1343e+01	2.2713	29.269234	0.000689	6.891319	1.167421	0.000138
 116	1.1443e+01	2.2904	29.390348	0.000608	6.080576	1.030077	0.000122
 117	1.1542e+01	2.3101	29.487239	0.000486	4.864461	0.824062	0.000097
 118	1.1642e+01	2.3301	29.620465	0.000669	6.688633	1.133085	0.000134
 119	1.1741e+01	2.3507	29.681022	0.000304	3.040288	0.515039	0.000061
 120	1.1841e+01	2.3696	29.866730	0.000932	9.323550	1.579452	0.000187
 121	1.1940e+01	2.3906	29.963621	0.000486	4.864461	0.824062	0.000097
 122	1.2040e+01	2.4100	30.052438	0.000446	4.459089	0.755390	0.000089
 123	1.2139e+01	2.4307	30.213924	0.000811	8.107435	1.373437	0.000162
 124	1.2239e+01	2.4500	30.339075	0.000628	6.283262	1.064413	0.000126
 125	1.2338e+01	2.4697	30.440003	0.000507	5.067147	0.858398	0.000101
 126	1.2438e+01	2.4902	30.565155	0.000628	6.283262	1.064413	0.000126
 127	1.2537e+01	2.5105	30.670120	0.000527	5.269832	0.892734	0.000105
 128	1.2636e+01	2.5289	30.795271	0.000628	6.283262	1.064413	0.000126
 129	1.2736e+01	2.5486	30.867940	0.000365	3.648346	0.618046	0.000073
 130	1.2835e+01	2.5689	31.029425	0.000811	8.107435	1.373437	0.000162
 131	1.2935e+01	2.5890	31.122279	0.000466	4.661775	0.789726	0.000093
 132	1.3034e+01	2.6075	31.215134	0.000466	4.661775	0.789726	0.000093
 133	1.3134e+01	2.6287	31.344322	0.000649	6.485948	1.098749	0.000130
 134	1.3233e+01	2.6492	31.501770	0.000790	7.904749	1.339101	0.000158
 135	1.3333e+01	2.6686	31.598661	0.000486	4.864461	0.824062	0.000097
 136	1.3432e+01	2.6884	31.707664	0.000547	5.472518	0.927070	0.000110
 137	1.3532e+01	2.7085	31.848964	0.000709	7.094005	1.201757	0.000142
 138	1.3632e+01	2.7282	31.949892	0.000507	5.067147	0.858398	0.000101
 139	1.3731e+01	2.7487	32.071006	0.000608	6.080576	1.030077	0.000122
 140	1.3831e+01	2.7692	32.184046	0.000568	5.675204	0.961406	0.000114
 141	1.3930e+01	2.7883	32.321309	0.000689	6.891319	1.167421	0.000138
 142	1.4030e+01	2.8080	32.406089	0.000426	4.256403	0.721054	0.000085
 143	1.4129e+01	2.8284	32.515091	0.000547	5.472518	0.927070	0.000110
 144	1.4229e+01	2.8478	32.616020	0.000507	5.067147	0.858398	0.000101
 145	1.4328e+01	2.8689	32.737134	0.000608	6.080576	1.030077	0.000122
 146	1.4428e+01	2.8885	32.874396	0.000689	6.891319	1.167421	0.000138
 147	1.4527e+01	2.9086	32.959176	0.000426	4.256403	0.721054	0.000085
 148	1.4627e+01	2.9275	33.096439	0.000689	6.891319	1.167421	0.000138
 149	1.4726e+01	2.9476	33.229664	0.000669	6.688633	1.133085	0.000134
 150	1.4825e+01	2.9678	33.310407	0.000405	4.053717	0.686718	0.000081
 151	1.4925e+01	2.9874	33.435558	0.000628	6.283262	1.064413	0.000126
 152	1.5024e+01	3.0071	33.540524	0.000527	5.269832	0.892734	0.000105
 153	1.5124e+01	3.0273	33.657601	0.000588	5.877890	0.995742	0.000118
 154	1.5223e+01	3.0470	33.790826	0.000669	6.688633	1.133085	0.000134
 155	1.5323e+01	3.0682	33.911940	0.000608	6.080576	1.030077	0.000122
 156	1.5422e+01	3.0876	33.996720	0.000426	4.256403	0.721054	0.000085
 157	1.5522e+01	3.1075	34.105723	0.000547	5.472518	0.927070	0.000110
 158	1.5621e+01	3.1266	34.214725	0.000547	5.472518	0.927070	0.000110
 159	1.5721e+01	3.1477	34.347951	0.000669	6.688633	1.133085	0.000134
 160	1.5820e+01	3.1670	34.465028	0.000588	5.877890	0.995742	0.000118
 161	1.5920e+01	3.1874	34.557882	0.000466	4.661775	0.789726	0.000093
 162	1.6020e+01	3.2070	34.678996	0.000608	6.080576	1.030077	0.000122
 163	1.6119e+01	3.2262	34.796073	0.000588	5.877890	0.995742	0.000118
 164	1.6218e+01	3.2464	34.909113	0.000568	5.675204	0.961406	0.000114
 165	1.6318e+01	3.2670	35.038301	0.000649	6.485948	1.098749	0.000130
 166	1.6418e+01	3.2864	35.094821	0.000284	2.837602	0.480703	0.000057
 167	1.6517e+01	3.3060	35.199786	0.000527	5.269832	0.892734	0.000105
 168	1.6616e+01	3.3263	35.365309	0.000831	8.310120	1.407773	0.000166
 169	1.6716e+01	3.3467	35.470275	0.000527	5.269832	0.892734	0.000105
 170	1.6816e+01	3.3625	35.579277	0.000547	5.472518	0.927070	0.000110
 171	1.6915e+01	3.3868	35.692317	0.000568	5.675204	0.961406	0.000114
 172	1.7015e+01	3.4061	35.857840	0.000831	8.310120	1.407773	0.000166
 173	1.7114e+01	3.4255	35.934545	0.000385	3.851031	0.652382	0.000077
 174	1.7213e+01	3.4457	36.039511	0.000527	5.269832	0.892734	0.000105
 175	1.7313e+01	3.4656	36.172736	0.000669	6.688633	1.133085	0.000134
 176	1.7413e+01	3.4859	36.249442	0.000385	3.851031	0.652382	0.000077
 177	1.7512e+01	3.5049	36.358444	0.000547	5.472518	0.927070	0.000110
 178	1.7611e+01	3.5246	36.479559	0.000608	6.080576	1.030077	0.000122
 179	1.7711e+01	3.5458	36.604710	0.000628	6.283262	1.064413	0.000126
 180	1.7811e+01	3.5658	36.709675	0.000527	5.269832	0.892734	0.000105
 181	1.7910e+01	3.5853	36.802529	0.000466	4.661775	0.789726	0.000093
 182	1.8009e+01	3.6044	36.984200	0.000912	9.120864	1.545116	0.000183
 183	1.8109e+01	3.6250	37.028609	0.000223	2.229544	0.377695	0.000045
 184	1.8209e+01	3.6452	37.169909	0.000709	7.094005	1.201757	0.000142
 185	1.8308e+01	3.6654	37.266800	0.000486	4.864461	0.824062	0.000097
 186	1.8407e+01	3.6855	37.339468	0.000365	3.648346	0.618046	0.000073
 187	1.8507e+01	3.7049	37.448471	0.000547	5.472518	0.927070	0.000110
 188	1.8607e+01	3.7255	37.561511	0.000568	5.675204	0.961406	0.000114
 189	1.8706e+01	3.7448	37.678588	0.000588	5.877890	0.995742	0.000118
 190	1.8805e+01	3.7651	37.836036	0.000790	7.904749	1.339101	0.000158
 191	1.8905e+01	3.7841	37.953113	0.000588	5.877890	0.995742	0.000118
 192	1.9005e+01	3.8038	38.037893	0.000426	4.256403	0.721054	0.000085
 193	1.9104e+01	3.8251	38.159007	0.000608	6.080576	1.030077	0.000122
 194	1.9203e+01	3.8445	38.272047	0.000568	5.675204	0.961406	0.000114
 195	1.9303e+01	3.8635	38.332604	0.000304	3.040288	0.515039	0.000061
 196	1.9402e+01	3.8839	38.453718	0.000608	6.080576	1.030077	0.000122
 197	1.9502e+01	3.9046	38.558683	0.000527	5.269832	0.892734	0.000105
 198	1.9602e+01	3.9239	38.663649	0.000527	5.269832	0.892734	0.000105
 199	1.9701e+01	3.9434	38.808986	0.000730	7.296691	1.236093	0.000146
 200	1.9800e+01	3.9639	38.869543	0.000304	3.040288	0.515039	0.000061
 201	1.9900e+01	3.9832	39.010843	0.000709	7.094005	1.201757	0.000142
 202	2.0000e+01	4.0041	39.115808	0.000527	5.269832	0.892734	0.000105
 203	2.0099e+01	4.0246	39.216737	0.000507	5.067147	0.858398	0.000101
 204	2.0198e+01	4.0437	39.341888	0.000628	6.283262	1.064413	0.000126
 205	2.0298e+01	4.0630	39.438779	0.000486	4.864461	0.824062	0.000097
 206	2.0398e+01	4.0829	39.511447	0.000365	3.648346	0.618046	0.000073
 207	2.0497e+01	4.1033	39.652747	0.000709	7.094005	1.201757	0.000142
 208	2.0596e+01	4.1227	39.802121	0.000750	7.499377	1.270429	0.000150
 209	2.0696e+01	4.1430	39.874790	0.000365	3.648346	0.618046	0.000073
 210	2.0796e+01	4.1634	39.995904	0.000608	6.080576	1.030077	0.000122
 211	2.0895e+01	4.1824	40.100869	0.000527	5.269832	0.892734	0.000105
 212	2.0994e+01	4.2031	40.217946	0.000588	5.877890	0.995742	0.000118
 213	2.1094e+01	4.2233	40.298689	0.000405	4.053717	0.686718	0.000081
 214	2.1194e+01	4.2425	40.427877	0.000649	6.485948	1.098749	0.000130
 215	2.1293e+01	4.2630	40.508620	0.000405	4.053717	0.686718	0.000081
 216	2.1392e+01	4.2832	40.613586	0.000527	5.269832	0.892734	0.000105
 217	2.1492e+01	4.3026	40.722588	0.000547	5.472518	0.927070	0.000110
 218	2.1591e+01	4.3218	40.823517	0.000507	5.067147	0.858398	0.000101
 219	2.1691e+01	4.3434	40.928482	0.000527	5.269832	0.892734	0.000105
 220	2.1791e+01	4.3616	41.049596	0.000608	6.080576	1.030077	0.000122
 221	2.1890e+01	4.3806	41.154562	0.000527	5.269832	0.892734	0.000105
 222	2.1989e+01	4.4025	41.231267	0.000385	3.851031	0.652382	0.000077
 223	2.2089e+01	4.4225	41.360456	0.000649	6.485948	1.098749	0.000130
 224	2.2189e+01	4.4418	41.453310	0.000466	4.661775	0.789726	0.000093
 225	2.2288e+01	4.4625	41.586535	0.000669	6.688633	1.133085	0.000134
 226	2.2387e+01	4.4813	41.683426	0.000486	4.864461	0.824062	0.000097
 227	2.2487e+01	4.5016	41.780318	0.000486	4.864461	0.824062	0.000097
 228	2.2587e+01	4.5215	41.921618	0.000709	7.094005	1.201757	0.000142
 229	2.2686e+01	4.5402	41.990249	0.000345	3.445660	0.583711	0.000069
 230	2.2785e+01	4.5615	42.127511	0.000689	6.891319	1.167421	0.000138
 231	2.2885e+01	4.5820	42.196143	0.000345	3.445660	0.583711	0.000069
 232	2.2985e+01	4.6014	42.297071	0.000507	5.067147	0.858398	0.000101
 233	2.3084e+01	4.6215	42.426259	0.000649	6.485948	1.098749	0.000130
 234	2.3183e+01	4.6410	42.511039	0.000426	4.256403	0.721054	0.000085
 235	2.3283e+01	4.6607	42.636191	0.000628	6.283262	1.064413	0.000126
 236	2.3383e+01	4.6806	42.733082	0.000486	4.864461	0.824062	0.000097
 237	2.3482e+01	4.7004	42.850159	0.000588	5.877890	0.995742	0.000118
 238	2.3581e+01	4.7215	42.934939	0.000426	4.256403	0.721054	0.000085
 239	2.3681e+01	4.7411	43.056053	0.000608	6.080576	1.030077	0.000122
 240	2.3780e+01	4.7601	43.144870	0.000446	4.459089	0.755390	0.000089
 241	2.3880e+01	4.7807	43.253872	0.000547	5.472518	0.927070	0.000110
 242	2.3980e+01	4.8009	43.350764	0.000486	4.864461	0.824062	0.000097
 243	2.4079e+01	4.8220	43.463803	0.000568	5.675204	0.961406	0.000114
 244	2.4178e+01	4.8400	43.536472	0.000365	3.648346	0.618046	0.000073
 245	2.4278e+01	4.8608	43.633363	0.000486	4.864461	0.824062	0.000097
 246	2.4378e+01	4.8800	43.754477	0.000608	6.080576	1.030077	0.000122
 247	2.4477e+01	4.9000	43.871554	0.000588	5.877890	0.995742	0.000118
 248	2.4576e+01	4.9197	43.964408	0.000466	4.661775	0.789726	0.000093
 249	2.4676e+01	4.9416	44.089559	0.000628	6.283262	1.064413	0.000126
 250	2.4776e+01	4.9596	44.178376	0.000446	4.459089	0.755390	0.000089
 251	2.4875e+01	4.9810	44.299490	0.000608	6.080576	1.030077	0.000122
 252	2.4974e+01	5.0002	44.404456	0.000527	5.269832	0.892734	0.000105
 253	2.5074e+01	5.0195	44.493273	0.000446	4.459089	0.755390	0.000089
 254	2.5174e+01	5.0363	44.606313	0.000568	5.675204	0.961406	0.000114
 255	2.5273e+01	5.0584	44.707241	0.000507	5.067147	0.858398	0.000101
 256	2.5372e+01	5.0783	44.787984	0.000405	4.053717	0.686718	0.000081
 257	2.5472e+01	5.0996	44.876801	0.000446	4.459089	0.755390	0.000089
 258	2.5572e+01	5.1192	45.001952	0.000628	6.283262	1.064413	0.000126
 259	2.5671e+01	5.1387	45.094806	0.000466	4.661775	0.789726	0.000093
 260	2.5770e+01	5.1583	45.163438	0.000345	3.445660	0.583711	0.000069
 261	2.5870e+01	5.1788	45.328960	0.000831	8.310120	1.407773	0.000166
 262	2.5970e+01	5.2005	45.442000	0.000568	5.675204	0.961406	0.000114
 263	2.6069e+01	5.2184	45.530817	0.000446	4.459089	0.755390	0.000089
 264	2.6169e+01	5.2393	45.627708	0.000486	4.864461	0.824062	0.000097
 265	2.6268e+01	5.2596	45.688265	0.000304	3.040288	0.515039	0.000061
 266	2.6367e+01	5.2776	45.793231	0.000527	5.269832	0.892734	0.000105
 267	2.6467e+01	5.2990	45.906270	0.000568	5.675204	0.961406	0.000114
 268	2.6567e+01	5.3187	45.982976	0.000385	3.851031	0.652382	0.000077
 269	2.6666e+01	5.3384	46.071793	0.000446	4.459089	0.755390	0.000089
 270	2.6765e+01	5.3573	46.172721	0.000507	5.067147	0.858398	0.000101
 271	2.6865e+01	5.3777	46.330170	0.000790	7.904749	1.339101	0.000158
 272	2.6965e+01	5.3986	46.410912	0.000405	4.053717	0.686718	0.000081
 273	2.7064e+01	5.4189	46.467432	0.000284	2.837602	0.480703	0.000057
 274	2.7163e+01	5.4385	46.588546	0.000608	6.080576	1.030077	0.000122
 275	2.7263e+01	5.4574	46.673326	0.000426	4.256403	0.721054	0.000085
 276	2.7363e+01	5.4774	46.798477	0.000628	6.283262	1.064413	0.000126
 277	2.7462e+01	5.4977	46.871146	0.000365	3.648346	0.618046	0.000073
 278	2.7561e+01	5.5166	46.980149	0.000547	5.472518	0.927070	0.000110
 279	2.7661e+01	5.5376	47.056854	0.000385	3.851031	0.652382	0.000077
 280	2.7761e+01	5.5582	47.190080	0.000669	6.688633	1.133085	0.000134
 281	2.7860e+01	5.5772	47.303119	0.000568	5.675204	0.961406	0.000114
 282	2.7959e+01	5.5962	47.379825	0.000385	3.851031	0.652382	0.000077
 283	2.8059e+01	5.6168	47.488828	0.000547	5.472518	0.927070	0.000110
 284	2.8159e+01	5.6362	47.561496	0.000365	3.648346	0.618046	0.000073
 285	2.8258e+01	5.6561	47.702796	0.000709	7.094005	1.201757	0.000142
 286	2.8358e+01	5.6767	47.791613	0.000446	4.459089	0.755390	0.000089
 287	2.8457e+01	5.6969	47.888504	0.000486	4.864461	0.824062	0.000097
 288	2.8556e+01	5.7165	47.989433	0.000507	5.067147	0.858398	0.000101
 289	2.8656e+01	5.7360	48.066138	0.000385	3.851031	0.652382	0.000077
 290	2.8756e+01	5.7565	48.167066	0.000507	5.067147	0.858398	0.000101
 291	2.8855e+01	5.7764	48.267995	0.000507	5.067147	0.858398	0.000101
 292	2.8954e+01	5.7960	48.356812	0.000446	4.459089	0.755390	0.000089
 293	2.9054e+01	5.8163	48.425443	0.000345	3.445660	0.583711	0.000069
 294	2.9154e+01	5.8362	48.538483	0.000568	5.675204	0.961406	0.000114
 295	2.9253e+01	5.8562	48.687857	0.000750	7.499377	1.270429	0.000150
 296	2.9352e+01	5.8764	48.756488	0.000345	3.445660	0.583711	0.000069
 297	2.9452e+01	5.8964	48.865491	0.000547	5.472518	0.927070	0.000110
 298	2.9552e+01	5.9167	48.913937	0.000243	2.432230	0.412031	0.000049
 299	2.9651e+01	5.9368	49.047162	0.000669	6.688633	1.133085	0.000134
 300	2.9750e+01	5.9554	49.131942	0.000426	4.256403	0.721054	0.000085
 301	2.9850e+01	5.9759	49.249019	0.000588	5.877890	0.995742	0.000118
 302	2.9950e+01	5.9951	49.353984	0.000527	5.269832	0.892734	0.000105
 303	3.0049e+01	6.0152	49.434727	0.000405	4.053717	0.686718	0.000081
 304	3.0148e+01	6.0354	49.539693	0.000527	5.269832	0.892734	0.000105
 305	3.0248e+01	6.0558	49.624472	0.000426	4.256403	0.721054	0.000085
 306	3.0348e+01	6.0754	49.713289	0.000446	4.459089	0.755390	0.000089
 307	3.0447e+01	6.0954	49.822292	0.000547	5.472518	0.927070	0.000110
 308	3.0547e+01	6.1153	49.907072	0.000426	4.256403	0.721054	0.000085
 309	3.0646e+01	6.1361	50.020112	0.000568	5.675204	0.961406	0.000114
 310	3.0745e+01	6.1542	50.084706	0.000324	3.242974	0.549375	0.000065
 311	3.0845e+01	6.1752	50.185634	0.000507	5.067147	0.858398	0.000101
 312	3.0945e+01	6.1948	50.290600	0.000527	5.269832	0.892734	0.000105
 313	3.1044e+01	6.2151	50.391528	0.000507	5.067147	0.858398	0.000101
 314	3.1143e+01	6.2354	50.512642	0.000608	6.080576	1.030077	0.000122
 315	3.1243e+01	6.2545	50.581274	0.000345	3.445660	0.583711	0.000069
 316	3.1343e+01	6.2753	50.637794	0.000284	2.837602	0.480703	0.000057
 317	3.1442e+01	6.2948	50.754870	0.000588	5.877890	0.995742	0.000118
 318	3.1541e+01	6.3137	50.819465	0.000324	3.242974	0.549375	0.000065
 319	3.1641e+01	6.3348	50.936542	0.000588	5.877890	0.995742	0.000118
 320	3.1741e+01	6.3534	51.033433	0.000486	4.864461	0.824062	0.000097
 321	3.1840e+01	6.3738	51.118213	0.000426	4.256403	0.721054	0.000085
 322	3.1939e+01	6.3946	51.215104	0.000486	4.864461	0.824062	0.000097
 323	3.2039e+01	6.4137	51.324107	0.000547	5.472518	0.927070	0.000110
 324	3.2139e+01	6.4336	51.408886	0.000426	4.256403	0.721054	0.000085
 325	3.2238e+01	6.4536	51.521926	0.000568	5.675204	0.961406	0.000114
 326	3.2337e+01	6.4730	51.639003	0.000588	5.877890	0.995742	0.000118
 327	3.2437e+01	6.4931	51.675337	0.000182	1.824173	0.309023	0.000037
 328	3.2536e+01	6.5130	51.780303	0.000527	5.269832	0.892734	0.000105
 329	3.2636e+01	6.5336	51.873157	0.000466	4.661775	0.789726	0.000093
 330	3.2736e+01	6.5530	51.966011	0.000466	4.661775	0.789726	0.000093
 331	3.2835e+01	6.5733	52.066940	0.000507	5.067147	0.858398	0.000101
 332	3.2934e+01	6.5971	52.196128	0.000649	6.485948	1.098749	0.000130
 333	3.3034e+01	6.6135	52.256685	0.000304	3.040288	0.515039	0.000061
 334	3.3133e+01	6.6335	52.345502	0.000446	4.459089	0.755390	0.000089
 335	3.3233e+01	6.6520	52.426245	0.000405	4.053717	0.686718	0.000081
 336	3.3333e+01	6.6740	52.523136	0.000486	4.864461	0.824062	0.000097
 337	3.3432e+01	6.6924	52.595804	0.000365	3.648346	0.618046	0.000073
 338	3.3532e+01	6.7126	52.724993	0.000649	6.485948	1.098749	0.000130
 339	3.3631e+01	6.7318	52.805735	0.000405	4.053717	0.686718	0.000081
 340	3.3730e+01	6.7525	52.906664	0.000507	5.067147	0.858398	0.000101
 341	3.3830e+01	6.7725	52.959147	0.000263	2.634916	0.446367	0.000053
 342	3.3929e+01	6.7918	53.092372	0.000669	6.688633	1.133085	0.000134
 343	3.4029e+01	6.8119	53.116595	0.000122	1.216115	0.206015	0.000024
 344	3.4129e+01	6.8319	53.249820	0.000669	6.688633	1.133085	0.000134
 345	3.4228e+01	6.8523	53.346712	0.000486	4.864461	0.824062	0.000097
 346	3.4328e+01	6.8712	53.431491	0.000426	4.256403	0.721054	0.000085
 347	3.4427e+01	6.8923	53.524346	0.000466	4.661775	0.789726	0.000093
 348	3.4526e+01	6.9115	53.633348	0.000547	5.472518	0.927070	0.000110
 349	3.4626e+01	6.9314	53.697942	0.000324	3.242974	0.549375	0.000065
 350	3.4725e+01	6.9512	53.810982	0.000568	5.675204	0.961406	0.000114
 351	3.4825e+01	6.9707	53.891725	0.000405	4.053717	0.686718	0.000081
 352	3.4925e+01	6.9911	53.976505	0.000426	4.256403	0.721054	0.000085
 353	3.5024e+01	7.0115	54.097619	0.000608	6.080576	1.030077	0.000122
 354	3.5123e+01	7.0315	54.142027	0.000223	2.229544	0.377695	0.000045
 355	3.5223e+01	7.0512	54.238919	0.000486	4.864461	0.824062	0.000097
 356	3.5322e+01	7.0718	54.311587	0.000365	3.648346	0.618046	0.000073
 357	3.5422e+01	7.0919	54.424627	0.000568	5.675204	0.961406	0.000114
 358	3.5522e+01	7.1108	54.525555	0.000507	5.067147	0.858398	0.000101
 359	3.5621e+01	7.1310	54.602261	0.000385	3.851031	0.652382	0.000077
 360	3.5721e+01	7.1514	54.707226	0.000527	5.269832	0.892734	0.000105
 361	3.5820e+01	7.1712	54.792006	0.000426	4.256403	0.721054	0.000085
 362	3.5919e+01	7.1907	54.860638	0.000345	3.445660	0.583711	0.000069
 363	3.6019e+01	7.2092	54.961566	0.000507	5.067147	0.858398	0.000101
 364	3.6118e+01	7.2308	55.050383	0.000446	4.459089	0.755390	0.000089
 365	3.6218e+01	7.2501	55.123051	0.000365	3.648346	0.618046	0.000073
 366	3.6318e+01	7.2701	55.236091	0.000568	5.675204	0.961406	0.000114
 367	3.6417e+01	7.2901	55.324908	0.000446	4.459089	0.755390	0.000089
 368	3.6517e+01	7.3096	55.433911	0.000547	5.472518	0.927070	0.000110
 369	3.6616e+01	7.3296	55.486394	0.000263	2.634916	0.446367	0.000053
 370	3.6715e+01	7.3501	55.595396	0.000547	5.472518	0.927070	0.000110
 371	3.6815e+01	7.3704	55.680176	0.000426	4.256403	0.721054	0.000085
 372	3.6914e+01	7.3906	55.744770	0.000324	3.242974	0.549375	0.000065
 373	3.7014e+01	7.4096	55.861847	0.000588	5.877890	0.995742	0.000118
 374	3.7114e+01	7.4303	55.950664	0.000446	4.459089	0.755390	0.000089
 375	3.7213e+01	7.4497	56.039481	0.000446	4.459089	0.755390	0.000089
 376	3.7313e+01	7.4681	56.136372	0.000486	4.864461	0.824062	0.000097
 377	3.7412e+01	7.4890	56.205004	0.000345	3.445660	0.583711	0.000069
 378	3.7511e+01	7.5088	56.314006	0.000547	5.472518	0.927070	0.000110
 379	3.7611e+01	7.5290	56.374563	0.000304	3.040288	0.515039	0.000061
 380	3.7711e+01	7.5478	56.511826	0.000689	6.891319	1.167421	0.000138
 381	3.7810e+01	7.5691	56.548160	0.000182	1.824173	0.309023	0.000037
 382	3.7910e+01	7.5880	56.665237	0.000588	5.877890	0.995742	0.000118
 383	3.8009e+01	7.6092	56.741943	0.000385	3.851031	0.652382	0.000077
 384	3.8108e+01	7.6284	56.810574	0.000345	3.445660	0.583711	0.000069
 385	3.8208e+01	7.6492	56.915540	0.000527	5.269832	0.892734	0.000105
 386	3.8307e+01	7.6689	57.004357	0.000446	4.459089	0.755390	0.000089
 387	3.8407e+01	7.6885	57.113359	0.000547	5.472518	0.927070	0.000110
 388	3.8507e+01	7.7085	57.153731	0.000203	2.026859	0.343359	0.000041
 389	3.8606e+01	7.7285	57.262733	0.000547	5.472518	0.927070	0.000110
 390	3.8706e+01	7.7474	57.375773	0.000568	5.675204	0.961406	0.000114
 391	3.8805e+01	7.7690	57.464590	0.000446	4.459089	0.755390	0.000089
 392	3.8904e+01	7.7883	57.549370	0.000426	4.256403	0.721054	0.000085
 393	3.9004e+01	7.8091	57.622038	0.000365	3.648346	0.618046	0.000073
 394	3.9103e+01	7.8277	57.710855	0.000446	4.459089	0.755390	0.000089
 395	3.9203e+01	7.8480	57.799672	0.000446	4.459089	0.755390	0.000089
 396	3.9303e+01	7.8679	57.852155	0.000263	2.634916	0.446367	0.000053
 397	3.9402e+01	7.8866	57.989418	0.000689	6.891319	1.167421	0.000138
 398	3.9502e+01	7.9077	58.066123	0.000385	3.851031	0.652382	0.000077
 399	3.9601e+01	7.9284	58.183200	0.000588	5.877890	0.995742	0.000118
 400	3.9700e+01	7.9471	58.239720	0.000284	2.837602	0.480703	0.000057
 401	3.9800e+01	7.9676	58.348723	0.000547	5.472518	0.927070	0.000110
 402	3.9900e+01	7.9871	58.401206	0.000263	2.634916	0.446367	0.000053
 403	3.9999e+01	8.0071	58.518283	0.000588	5.877890	0.995742	0.000118
 404	4.0099e+01	8.0267	58.582877	0.000324	3.242974	0.549375	0.000065
 405	4.0198e+01	8.0479	58.679768	0.000486	4.864461	0.824062	0.000097
 406	4.0297e+01	8.0668	58.784733	0.000527	5.269832	0.892734	0.000105
 407	4.0397e+01	8.0865	58.913922	0.000649	6.485948	1.098749	0.000130
 408	4.0496e+01	8.1069	58.966405	0.000263	2.634916	0.446367	0.000053
 409	4.0596e+01	8.1271	59.047147	0.000405	4.053717	0.686718	0.000081
 410	4.0696e+01	8.1467	59.111741	0.000324	3.242974	0.549375	0.000065
 411	4.0795e+01	8.1660	59.212670	0.000507	5.067147	0.858398	0.000101
 412	4.0895e+01	8.1861	59.313598	0.000507	5.067147	0.858398	0.000101
 413	4.0994e+01	8.2064	59.402415	0.000446	4.459089	0.755390	0.000089
 414	4.1093e+01	8.2261	59.483158	0.000405	4.053717	0.686718	0.000081
 415	4.1193e+01	8.2463	59.640606	0.000790	7.904749	1.339101	0.000158
 416	4.1292e+01	8.2671	59.685015	0.000223	2.229544	0.377695	0.000045
 417	4.1392e+01	8.2862	59.717312	0.000162	1.621487	0.274687	0.000032
 418	4.1492e+01	8.3057	59.870723	0.000770	7.702063	1.304765	0.000154
 419	4.1591e+01	8.3254	59.931280	0.000304	3.040288	0.515039	0.000061
 420	4.1691e+01	8.3462	60.032208	0.000507	5.067147	0.858398	0.000101
 421	4.1790e+01	8.3659	60.112951	0.000405	4.053717	0.686718	0.000081
 422	4.1889e+01	8.3857	60.201768	0.000446	4.459089	0.755390	0.000089
 423	4.1989e+01	8.4052	60.270399	0.000345	3.445660	0.583711	0.000069
 424	4.2089e+01	8.4248	60.383439	0.000568	5.675204	0.961406	0.000114
 425	4.2188e+01	8.4458	60.464182	0.000405	4.053717	0.686718	0.000081
 426	4.2288e+01	8.4650	60.536850	0.000365	3.648346	0.618046	0.000073
 427	4.2387e+01	8.4848	60.629705	0.000466	4.661775	0.789726	0.000093
 428	4.2486e+01	8.5059	60.726596	0.000486	4.864461	0.824062	0.000097
 429	4.2586e+01	8.5260	60.787153	0.000304	3.040288	0.515039	0.000061
 430	4.2685e+01	8.5450	60.896155	0.000547	5.472518	0.927070	0.000110
 431	4.2785e+01	8.5651	60.980935	0.000426	4.256403	0.721054	0.000085
 432	4.2885e+01	8.5845	61.093975	0.000568	5.675204	0.961406	0.000114
 433	4.2984e+01	8.6042	61.194904	0.000507	5.067147	0.858398	0.000101
 434	4.3084e+01	8.6251	61.267572	0.000365	3.648346	0.618046	0.000073
 435	4.3183e+01	8.6443	61.368500	0.000507	5.067147	0.858398	0.000101
 436	4.3282e+01	8.6655	61.441169	0.000365	3.648346	0.618046	0.000073
 437	4.3382e+01	8.6842	61.566320	0.000628	6.283262	1.064413	0.000126
 438	4.3481e+01	8.7050	61.643026	0.000385	3.851031	0.652382	0.000077
 439	4.3581e+01	8.7247	61.719731	0.000385	3.851031	0.652382	0.000077
 440	4.3681e+01	8.7440	61.832771	0.000568	5.675204	0.961406	0.000114
 441	4.3780e+01	8.7656	61.873142	0.000203	2.026859	0.343359	0.000041
 442	4.3880e+01	8.7832	62.006368	0.000669	6.688633	1.133085	0.000134
 443	4.3979e+01	8.8039	62.095185	0.000446	4.459089	0.755390	0.000089
 444	4.4078e+01	8.8239	62.192076	0.000486	4.864461	0.824062	0.000097
 445	4.4178e+01	8.8432	62.276856	0.000426	4.256403	0.721054	0.000085
 446	4.4278e+01	8.8628	62.373747	0.000486	4.864461	0.824062	0.000097
 447	4.4377e+01	8.8833	62.450453	0.000385	3.851031	0.652382	0.000077
 448	4.4477e+01	8.9033	62.579641	0.000649	6.485948	1.098749	0.000130
 449	4.4576e+01	8.9236	62.636161	0.000284	2.837602	0.480703	0.000057
 450	4.4675e+01	8.9429	62.789572	0.000770	7.702063	1.304765	0.000154
 451	4.4775e+01	8.9628	62.894538	0.000527	5.269832	0.892734	0.000105
 452	4.4874e+01	8.9822	62.967206	0.000365	3.648346	0.618046	0.000073
 453	4.4974e+01	9.0030	63.088320	0.000608	6.080576	1.030077	0.000122
 454	4.5074e+01	9.0218	63.177137	0.000446	4.459089	0.755390	0.000089
 455	4.5173e+01	9.0430	63.237694	0.000304	3.040288	0.515039	0.000061
 456	4.5273e+01	9.0621	63.358808	0.000608	6.080576	1.030077	0.000122
 457	4.5372e+01	9.0821	63.471848	0.000568	5.675204	0.961406	0.000114
 458	4.5471e+01	9.1026	63.568739	0.000486	4.864461	0.824062	0.000097
 459	4.5571e+01	9.1218	63.649482	0.000405	4.053717	0.686718	0.000081
 460	4.5670e+01	9.1430	63.746373	0.000486	4.864461	0.824062	0.000097
 461	4.5770e+01	9.1622	63.871525	0.000628	6.283262	1.064413	0.000126
 462	4.5870e+01	9.1814	63.952267	0.000405	4.053717	0.686718	0.000081
 463	4.5969e+01	9.2019	64.089530	0.000689	6.891319	1.167421	0.000138
 464	4.6069e+01	9.2218	64.162198	0.000365	3.648346	0.618046	0.000073
 465	4.6168e+01	9.2416	64.267164	0.000527	5.269832	0.892734	0.000105
 466	4.6267e+01	9.2619	64.384241	0.000588	5.877890	0.995742	0.000118
 467	4.6367e+01	9.2812	64.481132	0.000486	4.864461	0.824062	0.000097
 468	4.6467e+01	9.3012	64.618395	0.000689	6.891319	1.167421	0.000138
 469	4.6566e+01	9.3217	64.703174	0.000426	4.256403	0.721054	0.000085
 470	4.6666e+01	9.3410	64.820251	0.000588	5.877890	0.995742	0.000118
 471	4.6765e+01	9.3604	64.941365	0.000608	6.080576	1.030077	0.000122
 472	4.6864e+01	9.3806	65.054405	0.000568	5.675204	0.961406	0.000114
 473	4.6964e+01	9.4016	65.143222	0.000446	4.459089	0.755390	0.000089
 474	4.7063e+01	9.4202	65.268373	0.000628	6.283262	1.064413	0.000126
 475	4.7163e+01	9.4404	65.353153	0.000426	4.256403	0.721054	0.000085
 476	4.7263e+01	9.4595	65.490416	0.000689	6.891319	1.167421	0.000138
 477	4.7362e+01	9.4808	65.603456	0.000568	5.675204	0.961406	0.000114
 478	4.7462e+01	9.5004	65.712458	0.000547	5.472518	0.927070	0.000110
 479	4.7561e+01	9.5207	65.801275	0.000446	4.459089	0.755390	0.000089
 480	4.7660e+01	9.5406	65.938538	0.000689	6.891319	1.167421	0.000138
 481	4.7760e+01	9.5599	66.091949	0.000770	7.702063	1.304765	0.000154
 482	4.7859e+01	9.5807	66.188840	0.000486	4.864461	0.824062	0.000097
 483	4.7959e+01	9.6004	66.305917	0.000588	5.877890	0.995742	0.000118
 484	4.8059e+01	9.6198	66.386660	0.000405	4.053717	0.686718	0.000081
 485	4.8158e+01	9.6394	66.560257	0.000872	8.715492	1.476444	0.000174
 486	4.8258e+01	9.6597	66.657148	0.000486	4.864461	0.824062	0.000097
 487	4.8357e+01	9.6792	66.782299	0.000628	6.283262	1.064413	0.000126
 488	4.8456e+01	9.6990	66.927636	0.000730	7.296691	1.236093	0.000146
 489	4.8556e+01	9.7193	67.020490	0.000466	4.661775	0.789726	0.000093
 490	4.8656e+01	9.7385	67.198124	0.000892	8.918178	1.510780	0.000179
 491	4.8755e+01	9.7602	67.307127	0.000547	5.472518	0.927070	0.000110
 492	4.8855e+01	9.7796	67.420167	0.000568	5.675204	0.961406	0.000114
 493	4.8954e+01	9.7998	67.581652	0.000811	8.107435	1.373437	0.000162
 494	4.9053e+01	9.8187	67.694692	0.000568	5.675204	0.961406	0.000114
 495	4.9153e+01	9.8389	67.819843	0.000628	6.283262	1.064413	0.000126
 496	4.9252e+01	9.8585	67.969217	0.000750	7.499377	1.270429	0.000150
 497	4.9352e+01	9.8786	68.114554	0.000730	7.296691	1.236093	0.000146
 498	4.9452e+01	9.8978	68.231631	0.000588	5.877890	0.995742	0.000118
 499	4.9551e+01	9.9178	68.389079	0.000790	7.904749	1.339101	0.000158
 500	4.9651e+01	9.9386	68.534416	0.000730	7.296691	1.236093	0.000146
 501	4.9750e+01	9.9592	68.663605	0.000649	6.485948	1.098749	0.000130
 502	4.9849e+01	9.9789	68.812979	0.000750	7.499377	1.270429	0.000150
 503	4.9949e+01	9.9988	68.938130	0.000628	6.283262	1.064413	0.000126
 504	5.0048e+01	9.9790	68.930056	0.000041	0.405372	0.068672	-0.000008
 505	5.0148e+01	9.9578	68.942167	-0.000061	-0.608058	-0.103008	0.000012
 506	5.0248e+01	9.9397	68.942167	-0.000000	-0.000000	-0.000000	0.000000
 507	5.0347e+01	9.9191	68.950241	-0.000041	-0.405372	-0.068672	0.000008
 508	5.0447e+01	9.8982	68.950241	-0.000000	-0.000000	-0.000000	0.000000
 509	5.0546e+01	9.8783	68.954278	-0.000020	-0.202686	-0.034336	0.000004
 510	5.0645e+01	9.8584	68.942167	0.000061	0.608058	0.103008	-0.000012
 511	5.0745e+01	9.8389	68.938130	0.000020	0.202686	0.034336	-0.000004
 512	5.0844e+01	9.8193	68.909870	0.000142	1.418801	0.240351	-0.000028
 513	5.0944e+01	9.7988	68.970427	-0.000304	-3.040288	-0.515039	0.000061
 514	5.1044e+01	9.7793	68.950241	0.000101	1.013429	0.171680	-0.000020
 515	5.1143e+01	9.7607	68.946204	0.000020	0.202686	0.034336	-0.000004
 516	5.1242e+01	9.7395	68.893721	0.000263	2.634916	0.446367	-0.000053
 517	5.1342e+01	9.7208	68.921981	-0.000142	-1.418801	-0.240351	0.000028
 518	5.1441e+01	9.6993	68.921981	-0.000000	-0.000000	-0.000000	0.000000
 519	5.1541e+01	9.6802	68.901796	0.000101	1.013429	0.171680	-0.000020
 520	5.1641e+01	9.6598	68.921981	-0.000101	-1.013429	-0.171680	0.000020
 521	5.1740e+01	9.6394	68.901796	0.000101	1.013429	0.171680	-0.000020
 522	5.1840e+01	9.6200	68.833164	0.000345	3.445660	0.583711	-0.000069
 523	5.1939e+01	9.6003	68.845276	-0.000061	-0.608058	-0.103008	0.000012
 524	5.2038e+01	9.5803	68.833164	0.000061	0.608058	0.103008	-0.000012
 525	5.2138e+01	9.5611	68.796830	0.000182	1.824173	0.309023	-0.000037
 526	5.2237e+01	9.5400	68.825090	-0.000142	-1.418801	-0.240351	0.000028
 527	5.2337e+01	9.5203	68.772607	0.000263	2.634916	0.446367	-0.000053
 528	5.2437e+01	9.5004	68.728199	0.000223	2.229544	0.377695	-0.000045
 529	5.2536e+01	9.4802	68.703976	0.000122	1.216115	0.206015	-0.000024
 530	5.2636e+01	9.4604	68.712050	-0.000041	-0.405372	-0.068672	0.000008
 531	5.2735e+01	9.4410	68.687827	0.000122	1.216115	0.206015	-0.000024
 532	5.2834e+01	9.4215	68.679753	0.000041	0.405372	0.068672	-0.000008
 533	5.2934e+01	9.4007	68.651493	0.000142	1.418801	0.240351	-0.000028
 534	5.3033e+01	9.3816	68.635345	0.000081	0.810743	0.137344	-0.000016
 535	5.3133e+01	9.3610	68.586899	0.000243	2.432230	0.412031	-0.000049
 536	5.3233e+01	9.3423	68.534416	0.000263	2.634916	0.446367	-0.000053
 537	5.3332e+01	9.3195	68.510193	0.000122	1.216115	0.206015	-0.000024
 538	5.3431e+01	9.3008	68.510193	-0.000000	-0.000000	-0.000000	0.000000
 539	5.3531e+01	9.2816	68.473859	0.000182	1.824173	0.309023	-0.000037
 540	5.3630e+01	9.2614	68.465785	0.000041	0.405372	0.068672	-0.000008
 541	5.3730e+01	9.2408	68.409265	0.000284	2.837602	0.480703	-0.000057
 542	5.3830e+01	9.2207	68.413302	-0.000020	-0.202686	-0.034336	0.000004
 543	5.3929e+01	9.2013	68.385042	0.000142	1.418801	0.240351	-0.000028
 544	5.4029e+01	9.1812	68.316411	0.000345	3.445660	0.583711	-0.000069
 545	5.4128e+01	9.1634	68.304300	0.000061	0.608058	0.103008	-0.000012
 546	5.4227e+01	9.1428	68.263928	0.000203	2.026859	0.343359	-0.000041
 547	5.4327e+01	9.1219	68.231631	0.000162	1.621487	0.274687	-0.000032
 548	5.4426e+01	9.1022	68.199334	0.000162	1.621487	0.274687	-0.000032
 549	5.4526e+01	9.0826	68.171074	0.000142	1.418801	0.240351	-0.000028
 550	5.4626e+01	9.0633	68.134740	0.000182	1.824173	0.309023	-0.000037
 551	5.4725e+01	9.0424	68.090331	0.000223	2.229544	0.377695	-0.000045
 552	5.4825e+01	9.0215	68.058034	0.000162	1.621487	0.274687	-0.000032
 553	5.4924e+01	9.0051	68.001514	0.000284	2.837602	0.480703	-0.000057
 554	5.5023e+01	8.9828	67.949032	0.000263	2.634916	0.446367	-0.000053
 555	5.5123e+01	8.9631	67.912697	0.000182	1.824173	0.309023	-0.000037
 556	5.5222e+01	8.9429	67.884437	0.000142	1.418801	0.240351	-0.000028
 557	5.5322e+01	8.9223	67.831955	0.000263	2.634916	0.446367	-0.000053
 558	5.5422e+01	8.9030	67.819843	0.000061	0.608058	0.103008	-0.000012
 559	5.5521e+01	8.8827	67.739101	0.000405	4.053717	0.686718	-0.000081
 560	5.5620e+01	8.8621	67.735063	0.000020	0.202686	0.034336	-0.000004
 561	5.5720e+01	8.8435	67.682581	0.000263	2.634916	0.446367	-0.000053
 562	5.5819e+01	8.8235	67.642209	0.000203	2.026859	0.343359	-0.000041
 563	5.5919e+01	8.8041	67.622024	0.000101	1.013429	0.171680	-0.000020
 564	5.6019e+01	8.7843	67.622024	-0.000000	-0.000000	-0.000000	0.000000
 565	5.6118e+01	8.7650	67.537244	0.000426	4.256403	0.721054	-0.000085
 566	5.6218e+01	8.7454	67.484761	0.000263	2.634916	0.446367	-0.000053
 567	5.6317e+01	8.7240	67.480724	0.000020	0.202686	0.034336	-0.000004
 568	5.6416e+01	8.7029	67.464575	0.000081	0.810743	0.137344	-0.000016
 569	5.6516e+01	8.6845	67.383833	0.000405	4.053717	0.686718	-0.000081
 570	5.6615e+01	8.6645	67.355573	0.000142	1.418801	0.240351	-0.000028
 571	5.6715e+01	8.6449	67.327313	0.000142	1.418801	0.240351	-0.000028
 572	5.6815e+01	8.6250	67.242533	0.000426	4.256403	0.721054	-0.000085
 573	5.6914e+01	8.6042	67.214273	0.000142	1.418801	0.240351	-0.000028
 574	5.7014e+01	8.5848	67.186013	0.000142	1.418801	0.240351	-0.000028
 575	5.7113e+01	8.5645	67.117382	0.000345	3.445660	0.583711	-0.000069
 576	5.7212e+01	8.5449	67.052787	0.000324	3.242974	0.549375	-0.000065
 577	5.7312e+01	8.5256	67.012416	0.000203	2.026859	0.343359	-0.000041
 578	5.7411e+01	8.5048	66.963970	0.000243	2.432230	0.412031	-0.000049
 579	5.7511e+01	8.4852	66.943785	0.000101	1.013429	0.171680	-0.000020
 580	5.7611e+01	8.4653	66.939748	0.000020	0.202686	0.034336	-0.000004
 581	5.7710e+01	8.4457	66.846894	0.000466	4.661775	0.789726	-0.000093
 582	5.7809e+01	8.4260	66.782299	0.000324	3.242974	0.549375	-0.000065
 583	5.7909e+01	8.4056	66.766151	0.000081	0.810743	0.137344	-0.000016
 584	5.8008e+01	8.3860	66.713668	0.000263	2.634916	0.446367	-0.000053
 585	5.8108e+01	8.3645	66.624851	0.000446	4.459089	0.755390	-0.000089
 586	5.8208e+01	8.3456	66.596591	0.000142	1.418801	0.240351	-0.000028
 587	5.8307e+01	8.3255	66.560257	0.000182	1.824173	0.309023	-0.000037
 588	5.8407e+01	8.3060	66.503737	0.000284	2.837602	0.480703	-0.000057
 589	5.8506e+01	8.2851	66.447217	0.000284	2.837602	0.480703	-0.000057
 590	5.8605e+01	8.2629	66.374549	0.000365	3.648346	0.618046	-0.000073
 591	5.8705e+01	8.2471	66.326103	0.000243	2.432230	0.412031	-0.000049
 592	5.8804e+01	8.2264	66.233249	0.000466	4.661775	0.789726	-0.000093
 593	5.8904e+01	8.2069	66.196915	0.000182	1.824173	0.309023	-0.000037
 594	5.9004e+01	8.1875	66.128283	0.000345	3.445660	0.583711	-0.000069
 595	5.9103e+01	8.1667	66.136358	-0.000041	-0.405372	-0.068672	0.000008
 596	5.9203e+01	8.1471	66.035429	0.000507	5.067147	0.858398	-0.000101
 597	5.9302e+01	8.1274	65.974872	0.000304	3.040288	0.515039	-0.000061
 598	5.9401e+01	8.1071	65.958724	0.000081	0.810743	0.137344	-0.000016
 599	5.9501e+01	8.0869	65.853758	0.000527	5.269832	0.892734	-0.000105
 600	5.9600e+01	8.0665	65.845684	0.000041	0.405372	0.068672	-0.000008
 601	5.9700e+01	8.0479	65.760904	0.000426	4.256403	0.721054	-0.000085
 602	5.9800e+01	8.0267	65.684198	0.000385	3.851031	0.652382	-0.000077
 603	5.9899e+01	8.0074	65.619604	0.000324	3.242974	0.549375	-0.000065
 604	5.9998e+01	7.9867	65.575196	0.000223	2.229544	0.377695	-0.000045
 605	6.0098e+01	7.9680	65.522713	0.000263	2.634916	0.446367	-0.000053
 606	6.0197e+01	7.9482	65.429859	0.000466	4.661775	0.789726	-0.000093
 607	6.0297e+01	7.9278	65.413710	0.000081	0.810743	0.137344	-0.000016
 608	6.0397e+01	7.9076	65.337005	0.000385	3.851031	0.652382	-0.000077
 609	6.0496e+01	7.8875	65.296633	0.000203	2.026859	0.343359	-0.000041
 610	6.0596e+01	7.8678	65.236076	0.000304	3.040288	0.515039	-0.000061
 611	6.0695e+01	7.8471	65.167445	0.000345	3.445660	0.583711	-0.000069
 612	6.0794e+01	7.8287	65.106888	0.000304	3.040288	0.515039	-0.000061
 613	6.0894e+01	7.8084	65.038257	0.000345	3.445660	0.583711	-0.000069
 614	6.0993e+01	7.7876	64.973663	0.000324	3.242974	0.549375	-0.000065
 615	6.1093e+01	7.7684	64.913106	0.000304	3.040288	0.515039	-0.000061
 616	6.1193e+01	7.7480	64.840437	0.000365	3.648346	0.618046	-0.000073
 617	6.1292e+01	7.7287	64.755657	0.000426	4.256403	0.721054	-0.000085
 618	6.1392e+01	7.7089	64.707212	0.000243	2.432230	0.412031	-0.000049
 619	6.1491e+01	7.6889	64.557838	0.000750	7.499377	1.270429	-0.000150
 620	6.1590e+01	7.6687	64.573986	-0.000081	-0.810743	-0.137344	0.000016
 621	6.1690e+01	7.6492	64.501318	0.000365	3.648346	0.618046	-0.000073
 622	6.1789e+01	7.6281	64.444798	0.000284	2.837602	0.480703	-0.000057
 623	6.1889e+01	7.6089	64.360018	0.000426	4.256403	0.721054	-0.000085
 624	6.1989e+01	7.5896	64.319647	0.000203	2.026859	0.343359	-0.000041
 625	6.2088e+01	7.5701	64.238904	0.000405	4.053717	0.686718	-0.000081
 626	6.2188e+01	7.5491	64.190458	0.000243	2.432230	0.412031	-0.000049
 627	6.2287e+01	7.5286	64.109716	0.000405	4.053717	0.686718	-0.000081
 628	6.2386e+01	7.5089	64.057233	0.000263	2.634916	0.446367	-0.000053
 629	6.2486e+01	7.4892	63.992639	0.000324	3.242974	0.549375	-0.000065
 630	6.2586e+01	7.4703	63.907859	0.000426	4.256403	0.721054	-0.000085
 631	6.2685e+01	7.4495	63.839227	0.000345	3.445660	0.583711	-0.000069
 632	6.2785e+01	7.4292	63.758485	0.000405	4.053717	0.686718	-0.000081
 633	6.2884e+01	7.4100	63.726188	0.000162	1.621487	0.274687	-0.000032
 634	6.2983e+01	7.3907	63.629296	0.000486	4.864461	0.824062	-0.000097
 635	6.3083e+01	7.3693	63.560665	0.000345	3.445660	0.583711	-0.000069
 636	6.3182e+01	7.3503	63.524331	0.000182	1.824173	0.309023	-0.000037
 637	6.3282e+01	7.3306	63.431477	0.000466	4.661775	0.789726	-0.000093
 638	6.3382e+01	7.3106	63.374957	0.000284	2.837602	0.480703	-0.000057
 639	6.3481e+01	7.2903	63.286140	0.000446	4.459089	0.755390	-0.000089
 640	6.3581e+01	7.2703	63.249806	0.000182	1.824173	0.309023	-0.000037
 641	6.3680e+01	7.2503	63.156951	0.000466	4.661775	0.789726	-0.000093
 642	6.3779e+01	7.2308	63.056023	0.000507	5.067147	0.858398	-0.000101
 643	6.3879e+01	7.2105	63.023726	0.000162	1.621487	0.274687	-0.000032
 644	6.3978e+01	7.1909	62.926835	0.000486	4.864461	0.824062	-0.000097
 645	6.4078e+01	7.1700	62.878389	0.000243	2.432230	0.412031	-0.000049
 646	6.4177e+01	7.1514	62.793609	0.000426	4.256403	0.721054	-0.000085
 647	6.4277e+01	7.1343	62.741127	0.000263	2.634916	0.446367	-0.000053
 648	6.4376e+01	7.1108	62.652310	0.000446	4.459089	0.755390	-0.000089
 649	6.4476e+01	7.0904	62.575604	0.000385	3.851031	0.652382	-0.000077
 650	6.4576e+01	7.0708	62.494861	0.000405	4.053717	0.686718	-0.000081
 651	6.4675e+01	7.0509	62.418156	0.000385	3.851031	0.652382	-0.000077
 652	6.4775e+01	7.0313	62.361636	0.000284	2.837602	0.480703	-0.000057
 653	6.4874e+01	7.0118	62.268782	0.000466	4.661775	0.789726	-0.000093
 654	6.4974e+01	6.9910	62.196113	0.000365	3.648346	0.618046	-0.000073
 655	6.5073e+01	6.9720	62.163816	0.000162	1.621487	0.274687	-0.000032
 656	6.5172e+01	6.9509	62.050776	0.000568	5.675204	0.961406	-0.000114
 657	6.5272e+01	6.9309	61.986182	0.000324	3.242974	0.549375	-0.000065
 658	6.5371e+01	6.9117	61.921588	0.000324	3.242974	0.549375	-0.000065
 659	6.5471e+01	6.8919	61.808548	0.000568	5.675204	0.961406	-0.000114
 660	6.5570e+01	6.8719	61.760103	0.000243	2.432230	0.412031	-0.000049
 661	6.5670e+01	6.8517	61.687434	0.000365	3.648346	0.618046	-0.000073
 662	6.5769e+01	6.8317	61.558246	0.000649	6.485948	1.098749	-0.000130
 663	6.5869e+01	6.8125	61.529986	0.000142	1.418801	0.240351	-0.000028
 664	6.5969e+01	6.7925	61.469429	0.000304	3.040288	0.515039	-0.000061
 665	6.6068e+01	6.7725	61.352352	0.000588	5.877890	0.995742	-0.000118
 666	6.6168e+01	6.7527	61.279683	0.000365	3.648346	0.618046	-0.000073
 667	6.6267e+01	6.7332	61.207015	0.000365	3.648346	0.618046	-0.000073
 668	6.6367e+01	6.7123	61.134346	0.000365	3.648346	0.618046	-0.000073
 669	6.6466e+01	6.6932	61.061678	0.000365	3.648346	0.618046	-0.000073
 670	6.6566e+01	6.6722	60.993047	0.000345	3.445660	0.583711	-0.000069
 671	6.6665e+01	6.6540	60.896155	0.000486	4.864461	0.824062	-0.000097
 672	6.6764e+01	6.6338	60.799264	0.000486	4.864461	0.824062	-0.000097
 673	6.6864e+01	6.6134	60.746781	0.000263	2.634916	0.446367	-0.000053
 674	6.6963e+01	6.5922	60.666039	0.000405	4.053717	0.686718	-0.000081
 675	6.7063e+01	6.5728	60.581259	0.000426	4.256403	0.721054	-0.000085
 676	6.7162e+01	6.5528	60.504553	0.000385	3.851031	0.652382	-0.000077
 677	6.7262e+01	6.5343	60.439959	0.000324	3.242974	0.549375	-0.000065
 678	6.7362e+01	6.5139	60.347105	0.000466	4.661775	0.789726	-0.000093
 679	6.7461e+01	6.4929	60.250214	0.000486	4.864461	0.824062	-0.000097
 680	6.7561e+01	6.4733	60.193694	0.000284	2.837602	0.480703	-0.000057
 681	6.7660e+01	6.4538	60.084691	0.000547	5.472518	0.927070	-0.000110
 682	6.7760e+01	6.4342	60.056431	0.000142	1.418801	0.240351	-0.000028
 683	6.7859e+01	6.4135	59.963577	0.000466	4.661775	0.789726	-0.000093
 684	6.7959e+01	6.3940	59.854574	0.000547	5.472518	0.927070	-0.000110
 685	6.8058e+01	6.3735	59.765757	0.000446	4.459089	0.755390	-0.000089
 686	6.8157e+01	6.3534	59.729423	0.000182	1.824173	0.309023	-0.000037
 687	6.8257e+01	6.3332	59.656755	0.000365	3.648346	0.618046	-0.000073
 688	6.8356e+01	6.3136	59.527566	0.000649	6.485948	1.098749	-0.000130
 689	6.8456e+01	6.2957	59.475084	0.000263	2.634916	0.446367	-0.000053
 690	6.8555e+01	6.2743	59.402415	0.000365	3.648346	0.618046	-0.000073
 691	6.8655e+01	6.2554	59.321673	0.000405	4.053717	0.686718	-0.000081
 692	6.8754e+01	6.2356	59.228818	0.000466	4.661775	0.789726	-0.000093
 693	6.8854e+01	6.2155	59.123853	0.000527	5.269832	0.892734	-0.000105
 694	6.8954e+01	6.1947	59.030999	0.000466	4.661775	0.789726	-0.000093
 695	6.9053e+01	6.1752	58.954293	0.000385	3.851031	0.652382	-0.000077
 696	6.9153e+01	6.1556	58.905848	0.000243	2.432230	0.412031	-0.000049
 697	6.9252e+01	6.1346	58.804919	0.000507	5.067147	0.858398	-0.000101
 698	6.9352e+01	6.1153	58.683805	0.000608	6.080576	1.030077	-0.000122
 699	6.9451e+01	6.0955	58.635359	0.000243	2.432230	0.412031	-0.000049
 700	6.9550e+01	6.0756	58.534431	0.000507	5.067147	0.858398	-0.000101
 701	6.9650e+01	6.0563	58.465800	0.000345	3.445660	0.583711	-0.000069
 702	6.9749e+01	6.0349	58.360834	0.000527	5.269832	0.892734	-0.000105
 703	6.9849e+01	6.0149	58.263943	0.000486	4.864461	0.824062	-0.000097
 704	6.9948e+01	5.9959	58.199349	0.000324	3.242974	0.549375	-0.000065
 705	7.0048e+01	5.9769	58.118606	0.000405	4.053717	0.686718	-0.000081
 706	7.0147e+01	5.9563	58.033826	0.000426	4.256403	0.721054	-0.000085
 707	7.0247e+01	5.9371	57.961158	0.000365	3.648346	0.618046	-0.000073
 708	7.0347e+01	5.9168	57.872341	0.000446	4.459089	0.755390	-0.000089
 709	7.0446e+01	5.8962	57.791598	0.000405	4.053717	0.686718	-0.000081
 710	7.0546e+01	5.8762	57.710855	0.000405	4.053717	0.686718	-0.000081
 711	7.0645e+01	5.8567	57.622038	0.000446	4.459089	0.755390	-0.000089
 712	7.0745e+01	5.8367	57.549370	0.000365	3.648346	0.618046	-0.000073
 713	7.0844e+01	5.8164	57.440367	0.000547	5.472518	0.927070	-0.000110
 714	7.0944e+01	5.7957	57.339439	0.000507	5.067147	0.858398	-0.000101
 715	7.1043e+01	5.7764	57.262733	0.000385	3.851031	0.652382	-0.000077
 716	7.1142e+01	5.7565	57.190065	0.000365	3.648346	0.618046	-0.000073
 717	7.1242e+01	5.7374	57.097211	0.000466	4.661775	0.789726	-0.000093
 718	7.1341e+01	5.7163	57.016468	0.000405	4.053717	0.686718	-0.000081
 719	7.1441e+01	5.6969	56.955911	0.000304	3.040288	0.515039	-0.000061
 720	7.1540e+01	5.6778	56.834797	0.000608	6.080576	1.030077	-0.000122
 721	7.1640e+01	5.6574	56.733869	0.000507	5.067147	0.858398	-0.000101
 722	7.1740e+01	5.6375	56.733869	-0.000000	-0.000000	-0.000000	0.000000
 723	7.1839e+01	5.6170	56.612754	0.000608	6.080576	1.030077	-0.000122
 724	7.1939e+01	5.5972	56.475492	0.000689	6.891319	1.167421	-0.000138
 725	7.2038e+01	5.5773	56.402823	0.000365	3.648346	0.618046	-0.000073
 726	7.2138e+01	5.5576	56.314006	0.000446	4.459089	0.755390	-0.000089
 727	7.2237e+01	5.5370	56.217115	0.000486	4.864461	0.824062	-0.000097
 728	7.2337e+01	5.5172	56.152521	0.000324	3.242974	0.549375	-0.000065
 729	7.2436e+01	5.4981	56.051593	0.000507	5.067147	0.858398	-0.000101
 730	7.2535e+01	5.4786	55.962776	0.000446	4.459089	0.755390	-0.000089
 731	7.2635e+01	5.4581	55.877996	0.000426	4.256403	0.721054	-0.000085
 732	7.2734e+01	5.4382	55.805327	0.000365	3.648346	0.618046	-0.000073
 733	7.2834e+01	5.4185	55.696325	0.000547	5.472518	0.927070	-0.000110
 734	7.2933e+01	5.3979	55.619619	0.000385	3.851031	0.652382	-0.000077
 735	7.3033e+01	5.3777	55.538876	0.000405	4.053717	0.686718	-0.000081
 736	7.3132e+01	5.3585	55.433911	0.000527	5.269832	0.892734	-0.000105
 737	7.3232e+01	5.3386	55.345094	0.000446	4.459089	0.755390	-0.000089
 738	7.3332e+01	5.3181	55.256277	0.000446	4.459089	0.755390	-0.000089
 739	7.3431e+01	5.2969	55.135163	0.000608	6.080576	1.030077	-0.000122
 740	7.3531e+01	5.2784	55.066531	0.000345	3.445660	0.583711	-0.000069
 741	7.3630e+01	5.2590	54.957529	0.000547	5.472518	0.927070	-0.000110
 742	7.3730e+01	5.2390	54.892935	0.000324	3.242974	0.549375	-0.000065
 743	7.3829e+01	5.2184	54.808155	0.000426	4.256403	0.721054	-0.000085
 744	7.3928e+01	5.1986	54.723375	0.000426	4.256403	0.721054	-0.000085
 745	7.4028e+01	5.1788	54.634558	0.000446	4.459089	0.755390	-0.000089
 746	7.4127e+01	5.1589	54.509407	0.000628	6.283262	1.064413	-0.000126
 747	7.4227e+01	5.1385	54.493258	0.000081	0.810743	0.137344	-0.000016
 748	7.4326e+01	5.1194	54.343884	0.000750	7.499377	1.270429	-0.000150
 749	7.4426e+01	5.0985	54.283327	0.000304	3.040288	0.515039	-0.000061
 750	7.4525e+01	5.0792	54.186436	0.000486	4.864461	0.824062	-0.000097
 751	7.4625e+01	5.0588	54.101656	0.000426	4.256403	0.721054	-0.000085
 752	7.4725e+01	5.0390	53.992653	0.000547	5.472518	0.927070	-0.000110
 753	7.4824e+01	5.0197	53.940171	0.000263	2.634916	0.446367	-0.000053
 754	7.4924e+01	5.0007	53.839242	0.000507	5.067147	0.858398	-0.000101
 755	7.5023e+01	4.9805	53.742351	0.000486	4.864461	0.824062	-0.000097
 756	7.5123e+01	4.9596	53.613163	0.000649	6.485948	1.098749	-0.000130
 757	7.5222e+01	4.9395	53.568754	0.000223	2.229544	0.377695	-0.000045
 758	7.5322e+01	4.9187	53.427454	0.000709	7.094005	1.201757	-0.000142
 759	7.5421e+01	4.9000	53.362860	0.000324	3.242974	0.549375	-0.000065
 760	7.5520e+01	4.8804	53.245783	0.000588	5.877890	0.995742	-0.000118
 761	7.5620e+01	4.8606	53.181189	0.000324	3.242974	0.549375	-0.000065
 762	7.5719e+01	4.8400	53.039889	0.000709	7.094005	1.201757	-0.000142
 763	7.5819e+01	4.8203	52.987407	0.000263	2.634916	0.446367	-0.000053
 764	7.5918e+01	4.8009	52.902627	0.000426	4.256403	0.721054	-0.000085
 765	7.6018e+01	4.7796	52.801698	0.000507	5.067147	0.858398	-0.000101
 766	7.6118e+01	4.7605	52.696733	0.000527	5.269832	0.892734	-0.000105
 767	7.6217e+01	4.7419	52.611953	0.000426	4.256403	0.721054	-0.000085
 768	7.6317e+01	4.7207	52.474690	0.000689	6.891319	1.167421	-0.000138
 769	7.6416e+01	4.7018	52.430282	0.000223	2.229544	0.377695	-0.000045
 770	7.6516e+01	4.6810	52.333391	0.000486	4.864461	0.824062	-0.000097
 771	7.6615e+01	4.6604	52.284945	0.000243	2.432230	0.412031	-0.000049
 772	7.6715e+01	4.6412	52.163831	0.000608	6.080576	1.030077	-0.000122
 773	7.6814e+01	4.6218	52.034643	0.000649	6.485948	1.098749	-0.000130
 774	7.6913e+01	4.6017	51.949863	0.000426	4.256403	0.721054	-0.000085
 775	7.7013e+01	4.5812	51.836823	0.000568	5.675204	0.961406	-0.000114
 776	7.7112e+01	4.5621	51.735894	0.000507	5.067147	0.858398	-0.000101
 777	7.7212e+01	4.5420	51.683412	0.000263	2.634916	0.446367	-0.000053
 778	7.7311e+01	4.5216	51.566335	0.000588	5.877890	0.995742	-0.000118
 779	7.7411e+01	4.5019	51.469444	0.000486	4.864461	0.824062	-0.000097
 780	7.7510e+01	4.4823	51.384664	0.000426	4.256403	0.721054	-0.000085
 781	7.7610e+01	4.4627	51.287772	0.000486	4.864461	0.824062	-0.000097
 782	7.7710e+01	4.4419	51.202993	0.000426	4.256403	0.721054	-0.000085
 783	7.7809e+01	4.4215	51.089953	0.000568	5.675204	0.961406	-0.000114
 784	7.7909e+01	4.4025	50.989024	0.000507	5.067147	0.858398	-0.000101
 785	7.8008e+01	4.3823	50.900207	0.000446	4.459089	0.755390	-0.000089
 786	7.8108e+01	4.3621	50.831576	0.000345	3.445660	0.583711	-0.000069
 787	7.8207e+01	4.3439	50.714499	0.000588	5.877890	0.995742	-0.000118
 788	7.8306e+01	4.3224	50.601459	0.000568	5.675204	0.961406	-0.000114
 789	7.8406e+01	4.3029	50.512642	0.000446	4.459089	0.755390	-0.000089
 790	7.8505e+01	4.2831	50.431900	0.000405	4.053717	0.686718	-0.000081
 791	7.8605e+01	4.2628	50.306748	0.000628	6.283262	1.064413	-0.000126
 792	7.8704e+01	4.2422	50.246191	0.000304	3.040288	0.515039	-0.000061
 793	7.8804e+01	4.2228	50.129114	0.000588	5.877890	0.995742	-0.000118
 794	7.8903e+01	4.2030	50.036260	0.000466	4.661775	0.789726	-0.000093
 795	7.9003e+01	4.1828	49.943406	0.000466	4.661775	0.789726	-0.000093
 796	7.9103e+01	4.1628	49.854589	0.000446	4.459089	0.755390	-0.000089
 797	7.9202e+01	4.1430	49.725401	0.000649	6.485948	1.098749	-0.000130
 798	7.9302e+01	4.1228	49.644658	0.000405	4.053717	0.686718	-0.000081
 799	7.9401e+01	4.1039	49.576027	0.000345	3.445660	0.583711	-0.000069
 800	7.9501e+01	4.0836	49.438764	0.000689	6.891319	1.167421	-0.000138
 801	7.9600e+01	4.0643	49.366096	0.000365	3.648346	0.618046	-0.000073
 802	7.9700e+01	4.0440	49.244982	0.000608	6.080576	1.030077	-0.000122
 803	7.9799e+01	4.0237	49.180388	0.000324	3.242974	0.549375	-0.000065
 804	7.9898e+01	4.0032	49.067348	0.000568	5.675204	0.961406	-0.000114
 805	7.9998e+01	3.9840	48.994679	0.000365	3.648346	0.618046	-0.000073
 806	8.0097e+01	3.9632	48.857417	0.000689	6.891319	1.167421	-0.000138
 807	8.0197e+01	3.9434	48.800897	0.000284	2.837602	0.480703	-0.000057
 808	8.0296e+01	3.9236	48.695931	0.000527	5.269832	0.892734	-0.000105
 809	8.0396e+01	3.9036	48.595003	0.000507	5.067147	0.858398	-0.000101
 810	8.0496e+01	3.8832	48.477926	0.000588	5.877890	0.995742	-0.000118
 811	8.0595e+01	3.8644	48.360849	0.000588	5.877890	0.995742	-0.000118
 812	8.0695e+01	3.8442	48.267995	0.000466	4.661775	0.789726	-0.000093
 813	8.0794e+01	3.8239	48.150918	0.000588	5.877890	0.995742	-0.000118
 814	8.0894e+01	3.8053	48.086324	0.000324	3.242974	0.549375	-0.000065
 815	8.0993e+01	3.7840	47.965210	0.000608	6.080576	1.030077	-0.000122
 816	8.1093e+01	3.7652	47.888504	0.000385	3.851031	0.652382	-0.000077
 817	8.1192e+01	3.7453	47.791613	0.000486	4.864461	0.824062	-0.000097
 818	8.1291e+01	3.7246	47.694722	0.000486	4.864461	0.824062	-0.000097
 819	8.1391e+01	3.7058	47.549385	0.000730	7.296691	1.236093	-0.000146
 820	8.1490e+01	3.6844	47.480753	0.000345	3.445660	0.583711	-0.000069
 821	8.1590e+01	3.6654	47.395974	0.000426	4.256403	0.721054	-0.000085
 822	8.1689e+01	3.6454	47.254674	0.000709	7.094005	1.201757	-0.000142
 823	8.1789e+01	3.6258	47.165857	0.000446	4.459089	0.755390	-0.000089
 824	8.1888e+01	3.6049	47.101263	0.000324	3.242974	0.549375	-0.000065
 825	8.1988e+01	3.5851	46.988223	0.000568	5.675204	0.961406	-0.000114
 826	8.2088e+01	3.5659	46.846923	0.000709	7.094005	1.201757	-0.000142
 827	8.2187e+01	3.5460	46.766180	0.000405	4.053717	0.686718	-0.000081
 828	8.2287e+01	3.5263	46.693512	0.000365	3.648346	0.618046	-0.000073
 829	8.2386e+01	3.5058	46.544138	0.000750	7.499377	1.270429	-0.000150
 830	8.2486e+01	3.4857	46.447247	0.000486	4.864461	0.824062	-0.000097
 831	8.2585e+01	3.4664	46.374578	0.000365	3.648346	0.618046	-0.000073
 832	8.2684e+01	3.4469	46.281724	0.000466	4.661775	0.789726	-0.000093
 833	8.2784e+01	3.4269	46.140424	0.000709	7.094005	1.201757	-0.000142
 834	8.2883e+01	3.4068	46.063719	0.000385	3.851031	0.652382	-0.000077
 835	8.2983e+01	3.3864	45.974902	0.000446	4.459089	0.755390	-0.000089
 836	8.3082e+01	3.3663	45.873973	0.000507	5.067147	0.858398	-0.000101
 837	8.3182e+01	3.3468	45.740748	0.000669	6.688633	1.133085	-0.000134
 838	8.3281e+01	3.3268	45.676154	0.000324	3.242974	0.549375	-0.000065
 839	8.3381e+01	3.3067	45.534854	0.000709	7.094005	1.201757	-0.000142
 840	8.3481e+01	3.2868	45.454111	0.000405	4.053717	0.686718	-0.000081
 841	8.3580e+01	3.2664	45.320886	0.000669	6.688633	1.133085	-0.000134
 842	8.3680e+01	3.2467	45.228032	0.000466	4.661775	0.789726	-0.000093
 843	8.3779e+01	3.2269	45.139215	0.000446	4.459089	0.755390	-0.000089
 844	8.3879e+01	3.2069	45.026175	0.000568	5.675204	0.961406	-0.000114
 845	8.3978e+01	3.1869	44.896987	0.000649	6.485948	1.098749	-0.000130
 846	8.4078e+01	3.1674	44.856615	0.000203	2.026859	0.343359	-0.000041
 847	8.4177e+01	3.1470	44.703204	0.000770	7.702063	1.304765	-0.000154
 848	8.4276e+01	3.1274	44.602276	0.000507	5.067147	0.858398	-0.000101
 849	8.4376e+01	3.1075	44.489236	0.000568	5.675204	0.961406	-0.000114
 850	8.4475e+01	3.0869	44.400419	0.000446	4.459089	0.755390	-0.000089
 851	8.4575e+01	3.0677	44.315639	0.000426	4.256403	0.721054	-0.000085
 852	8.4674e+01	3.0474	44.158191	0.000790	7.904749	1.339101	-0.000158
 853	8.4774e+01	3.0273	44.061299	0.000486	4.864461	0.824062	-0.000097
 854	8.4874e+01	3.0068	43.980557	0.000405	4.053717	0.686718	-0.000081
 855	8.4973e+01	2.9870	43.883665	0.000486	4.864461	0.824062	-0.000097
 856	8.5073e+01	2.9676	43.766589	0.000588	5.877890	0.995742	-0.000118
 857	8.5172e+01	2.9479	43.669697	0.000486	4.864461	0.824062	-0.000097
 858	8.5272e+01	2.9275	43.576843	0.000466	4.661775	0.789726	-0.000093
 859	8.5371e+01	2.9082	43.488026	0.000446	4.459089	0.755390	-0.000089
 860	8.5471e+01	2.8889	43.334615	0.000770	7.702063	1.304765	-0.000154
 861	8.5570e+01	2.8688	43.282132	0.000263	2.634916	0.446367	-0.000053
 862	8.5669e+01	2.8480	43.124684	0.000790	7.904749	1.339101	-0.000158
 863	8.5769e+01	2.8279	43.031830	0.000466	4.661775	0.789726	-0.000093
 864	8.5868e+01	2.8082	42.943013	0.000446	4.459089	0.755390	-0.000089
 865	8.5968e+01	2.7877	42.821899	0.000608	6.080576	1.030077	-0.000122
 866	8.6067e+01	2.7684	42.741156	0.000405	4.053717	0.686718	-0.000081
 867	8.6167e+01	2.7483	42.632153	0.000547	5.472518	0.927070	-0.000110
 868	8.6266e+01	2.7288	42.502965	0.000649	6.485948	1.098749	-0.000130
 869	8.6366e+01	2.7092	42.385888	0.000588	5.877890	0.995742	-0.000118
 870	8.6466e+01	2.6881	42.268811	0.000588	5.877890	0.995742	-0.000118
 871	8.6565e+01	2.6685	42.159809	0.000547	5.472518	0.927070	-0.000110
 872	8.6665e+01	2.6482	42.083103	0.000385	3.851031	0.652382	-0.000077
 873	8.6764e+01	2.6293	41.978137	0.000527	5.269832	0.892734	-0.000105
 874	8.6864e+01	2.6089	41.857023	0.000608	6.080576	1.030077	-0.000122
 875	8.6963e+01	2.5893	41.776281	0.000405	4.053717	0.686718	-0.000081
 876	8.7063e+01	2.5695	41.651129	0.000628	6.283262	1.064413	-0.000126
 877	8.7162e+01	2.5494	41.517904	0.000669	6.688633	1.133085	-0.000134
 878	8.7261e+01	2.5295	41.421013	0.000486	4.864461	0.824062	-0.000097
 879	8.7361e+01	2.5098	41.336233	0.000426	4.256403	0.721054	-0.000085
 880	8.7460e+01	2.4888	41.219156	0.000588	5.877890	0.995742	-0.000118
 881	8.7560e+01	2.4706	41.102079	0.000588	5.877890	0.995742	-0.000118
 882	8.7659e+01	2.4499	40.985002	0.000588	5.877890	0.995742	-0.000118
 883	8.7759e+01	2.4306	40.904259	0.000405	4.053717	0.686718	-0.000081
 884	8.7859e+01	2.4095	40.787182	0.000588	5.877890	0.995742	-0.000118
 885	8.7958e+01	2.3898	40.702403	0.000426	4.256403	0.721054	-0.000085
 886	8.8058e+01	2.3698	40.593400	0.000547	5.472518	0.927070	-0.000110
 887	8.8157e+01	2.3503	40.431914	0.000811	8.107435	1.373437	-0.000162
 888	8.8257e+01	2.3298	40.371357	0.000304	3.040288	0.515039	-0.000061
 889	8.8356e+01	2.3110	40.234095	0.000689	6.891319	1.167421	-0.000138
 890	8.8456e+01	2.2909	40.117018	0.000588	5.877890	0.995742	-0.000118
 891	8.8555e+01	2.2707	40.040312	0.000385	3.851031	0.652382	-0.000077
 892	8.8654e+01	2.2504	39.927272	0.000568	5.675204	0.961406	-0.000114
 893	8.8754e+01	2.2304	39.830381	0.000486	4.864461	0.824062	-0.000097
 894	8.8853e+01	2.2108	39.709267	0.000608	6.080576	1.030077	-0.000122
 895	8.8953e+01	2.1915	39.608339	0.000507	5.067147	0.858398	-0.000101
 896	8.9052e+01	2.1716	39.471076	0.000689	6.891319	1.167421	-0.000138
 897	8.9152e+01	2.1513	39.358036	0.000568	5.675204	0.961406	-0.000114
 898	8.9251e+01	2.1304	39.257108	0.000507	5.067147	0.858398	-0.000101
 899	8.9351e+01	2.1107	39.192514	0.000324	3.242974	0.549375	-0.000065
 900	8.9451e+01	2.0907	39.051214	0.000709	7.094005	1.201757	-0.000142
 901	8.9550e+01	2.0707	38.893766	0.000790	7.904749	1.339101	-0.000158
 902	8.9650e+01	2.0519	38.841283	0.000263	2.634916	0.446367	-0.000053
 903	8.9749e+01	2.0313	38.712095	0.000649	6.485948	1.098749	-0.000130
 904	8.9849e+01	2.0121	38.615203	0.000486	4.864461	0.824062	-0.000097
 905	8.9948e+01	1.9928	38.465829	0.000750	7.499377	1.270429	-0.000150
 906	9.0047e+01	1.9718	38.368938	0.000486	4.864461	0.824062	-0.000097
 907	9.0147e+01	1.9523	38.280121	0.000446	4.459089	0.755390	-0.000089
 908	9.0246e+01	1.9315	38.146896	0.000669	6.688633	1.133085	-0.000134
 909	9.0346e+01	1.9122	38.066153	0.000405	4.053717	0.686718	-0.000081
 910	9.0445e+01	1.8916	37.957150	0.000547	5.472518	0.927070	-0.000110
 911	9.0545e+01	1.8716	37.852185	0.000527	5.269832	0.892734	-0.000105
 912	9.0644e+01	1.8511	37.694736	0.000790	7.904749	1.339101	-0.000158
 913	9.0744e+01	1.8319	37.561511	0.000669	6.688633	1.133085	-0.000134
 914	9.0844e+01	1.8127	37.504991	0.000284	2.837602	0.480703	-0.000057
 915	9.0943e+01	1.7925	37.319283	0.000932	9.323550	1.579452	-0.000187
 916	9.1043e+01	1.7724	37.262763	0.000284	2.837602	0.480703	-0.000057
 917	9.1142e+01	1.7535	37.157797	0.000527	5.269832	0.892734	-0.000105
 918	9.1242e+01	1.7321	36.980163	0.000892	8.918178	1.510780	-0.000179
 919	9.1341e+01	1.7125	36.959978	0.000101	1.013429	0.171680	-0.000020
 920	9.1441e+01	1.6921	36.794455	0.000831	8.310120	1.407773	-0.000166
 921	9.1540e+01	1.6739	36.689490	0.000527	5.269832	0.892734	-0.000105
 922	9.1639e+01	1.6526	36.596635	0.000466	4.661775	0.789726	-0.000093
 923	9.1739e+01	1.6330	36.483596	0.000568	5.675204	0.961406	-0.000114
 924	9.1838e+01	1.6119	36.346333	0.000689	6.891319	1.167421	-0.000138
 925	9.1938e+01	1.5931	36.265590	0.000405	4.053717	0.686718	-0.000081
 926	9.2037e+01	1.5738	36.152551	0.000568	5.675204	0.961406	-0.000114
 927	9.2137e+01	1.5540	36.015288	0.000689	6.891319	1.167421	-0.000138
 928	9.2237e+01	1.5343	35.914360	0.000507	5.067147	0.858398	-0.000101
 929	9.2336e+01	1.5133	35.837654	0.000385	3.851031	0.652382	-0.000077
 930	9.2436e+01	1.4935	35.672131	0.000831	8.310120	1.407773	-0.000166
 931	9.2535e+01	1.4727	35.555054	0.000588	5.877890	0.995742	-0.000118
 932	9.2635e+01	1.4529	35.450089	0.000527	5.269832	0.892734	-0.000105
 933	9.2734e+01	1.4342	35.337049	0.000568	5.675204	0.961406	-0.000114
 934	9.2834e+01	1.4135	35.219972	0.000588	5.877890	0.995742	-0.000118
 935	9.2933e+01	1.3938	35.098858	0.000608	6.080576	1.030077	-0.000122
 936	9.3032e+01	1.3734	34.993893	0.000527	5.269832	0.892734	-0.000105
 937	9.3132e+01	1.3544	34.860667	0.000669	6.688633	1.133085	-0.000134
 938	9.3231e+01	1.3337	34.767813	0.000466	4.661775	0.789726	-0.000093
 939	9.3331e+01	1.3137	34.646699	0.000608	6.080576	1.030077	-0.000122
 940	9.3430e+01	1.2936	34.525585	0.000608	6.080576	1.030077	-0.000122
 941	9.3530e+01	1.2743	34.440805	0.000426	4.256403	0.721054	-0.000085
 942	9.3629e+01	1.2546	34.331802	0.000547	5.472518	0.927070	-0.000110
 943	9.3729e+01	1.2341	34.210688	0.000608	6.080576	1.030077	-0.000122
 944	9.3829e+01	1.2151	34.093611	0.000588	5.877890	0.995742	-0.000118
 945	9.3928e+01	1.1966	33.972497	0.000608	6.080576	1.030077	-0.000122
 946	9.4028e+01	1.1746	33.815049	0.000790	7.904749	1.339101	-0.000158
 947	9.4127e+01	1.1558	33.746418	0.000345	3.445660	0.583711	-0.000069
 948	9.4227e+01	1.1353	33.609155	0.000689	6.891319	1.167421	-0.000138
 949	9.4326e+01	1.1161	33.496115	0.000568	5.675204	0.961406	-0.000114
 950	9.4425e+01	1.0954	33.391150	0.000527	5.269832	0.892734	-0.000105
 951	9.4525e+01	1.0753	33.274073	0.000588	5.877890	0.995742	-0.000118
 952	9.4624e+01	1.0548	33.177181	0.000486	4.864461	0.824062	-0.000097
 953	9.4724e+01	1.0356	33.007622	0.000851	8.512806	1.442108	-0.000170
 954	9.4823e+01	1.0169	32.914768	0.000466	4.661775	0.789726	-0.000093
 955	9.4923e+01	0.9952	32.797691	0.000588	5.877890	0.995742	-0.000118
 956	9.5022e+01	0.9756	32.680614	0.000588	5.877890	0.995742	-0.000118
 957	9.5122e+01	0.9557	32.559500	0.000608	6.080576	1.030077	-0.000122
 958	9.5222e+01	0.9352	32.478757	0.000405	4.053717	0.686718	-0.000081
 959	9.5321e+01	0.9164	32.345532	0.000669	6.688633	1.133085	-0.000134
 960	9.5421e+01	0.8956	32.208269	0.000689	6.891319	1.167421	-0.000138
 961	9.5520e+01	0.8761	32.095229	0.000568	5.675204	0.961406	-0.000114
 962	9.5620e+01	0.8567	31.994301	0.000507	5.067147	0.858398	-0.000101
 963	9.5719e+01	0.8365	31.861075	0.000669	6.688633	1.133085	-0.000134
 964	9.5819e+01	0.8167	31.743998	0.000588	5.877890	0.995742	-0.000118
 965	9.5918e+01	0.7972	31.634996	0.000547	5.472518	0.927070	-0.000110
 966	9.6017e+01	0.7761	31.534067	0.000507	5.067147	0.858398	-0.000101
 967	9.6117e+01	0.7572	31.408916	0.000628	6.283262	1.064413	-0.000126
 968	9.6216e+01	0.7359	31.247431	0.000811	8.107435	1.373437	-0.000162
 969	9.6316e+01	0.7174	31.150539	0.000486	4.864461	0.824062	-0.000097
 970	9.6415e+01	0.6966	31.037500	0.000568	5.675204	0.961406	-0.000114
 971	9.6515e+01	0.6768	30.916385	0.000608	6.080576	1.030077	-0.000122
 972	9.6615e+01	0.6542	30.811420	0.000527	5.269832	0.892734	-0.000105
 973	9.6714e+01	0.6374	30.678194	0.000669	6.688633	1.133085	-0.000134
 974	9.6814e+01	0.6170	30.553043	0.000628	6.283262	1.064413	-0.000126
 975	9.6913e+01	0.5965	30.444041	0.000547	5.472518	0.927070	-0.000110
 976	9.7013e+01	0.5773	30.339075	0.000527	5.269832	0.892734	-0.000105
 977	9.7112e+01	0.5579	30.213924	0.000628	6.283262	1.064413	-0.000126
 978	9.7212e+01	0.5373	30.100884	0.000568	5.675204	0.961406	-0.000114
 979	9.7311e+01	0.5165	29.975733	0.000628	6.283262	1.064413	-0.000126
 980	9.7410e+01	0.4980	29.882879	0.000466	4.661775	0.789726	-0.000093
 981	9.7510e+01	0.4785	29.753690	0.000649	6.485948	1.098749	-0.000130
 982	9.7609e+01	0.4579	29.624502	0.000649	6.485948	1.098749	-0.000130
 983	9.7709e+01	0.4383	29.523574	0.000507	5.067147	0.858398	-0.000101
 984	9.7808e+01	0.4173	29.370162	0.000770	7.702063	1.304765	-0.000154
 985	9.7908e+01	0.3976	29.265197	0.000527	5.269832	0.892734	-0.000105
 986	9.8007e+01	0.3783	29.123897	0.000709	7.094005	1.201757	-0.000142
 987	9.8107e+01	0.3579	29.022969	0.000507	5.067147	0.858398	-0.000101
 988	9.8207e+01	0.3376	28.922040	0.000507	5.067147	0.858398	-0.000101
 989	9.8306e+01	0.3182	28.776704	0.000730	7.296691	1.236093	-0.000146
 990	9.8406e+01	0.2982	28.675775	0.000507	5.067147	0.858398	-0.000101
 991	9.8505e+01	0.2785	28.542550	0.000669	6.688633	1.133085	-0.000134
 992	9.8605e+01	0.2592	28.429510	0.000568	5.675204	0.961406	-0.000114
 993	9.8704e+01	0.2383	28.336656	0.000466	4.661775	0.789726	-0.000093
 994	9.8803e+01	0.2180	28.215542	0.000608	6.080576	1.030077	-0.000122
 995	9.8903e+01	0.1993	28.054056	0.000811	8.107435	1.373437	-0.000162
 996	9.9002e+01	0.1778	27.977351	0.000385	3.851031	0.652382	-0.000077
 997	9.9102e+01	0.1585	27.836051	0.000709	7.094005	1.201757	-0.000142
 998	9.9201e+01	0.1381	27.690714	0.000730	7.296691	1.236093	-0.000146
 999	9.9301e+01	0.1192	27.597860	0.000466	4.661775	0.789726	-0.000093
1000	9.9400e+01	0.0993	27.476746	0.000608	6.080576	1.030077	-0.000122
1001	9.9500e+01	0.0797	27.355632	0.000608	6.080576	1.030077	-0.000122
1002	9.9600e+01	0.0588	27.218369	0.000689	6.891319	1.167421	-0.000138
1003	9.9699e+01	0.0389	27.089181	0.000649	6.485948	1.098749	-0.000130
1004	9.9799e+01	0.0190	26.996327	0.000466	4.661775	0.789726	-0.000093
1005	9.9898e+01	-0.0011	26.855027	0.000709	7.094005	1.201757	-0.000142
1006	9.9998e+01	-0.0187	26.758136	0.000486	4.864461	0.824062	-0.000097
1007	1.0010e+02	-0.0391	26.596650	0.000811	8.107435	1.373437	-0.000162
1008	1.0020e+02	-0.0589	26.523982	0.000365	3.648346	0.618046	-0.000073
1009	1.0030e+02	-0.0789	26.378645	0.000730	7.296691	1.236093	-0.000146
1010	1.0040e+02	-0.0990	26.245419	0.000669	6.688633	1.133085	-0.000134
1011	1.0050e+02	-0.1179	26.144491	0.000507	5.067147	0.858398	-0.000101
1012	1.0059e+02	-0.1376	26.043563	0.000507	5.067147	0.858398	-0.000101
1013	1.0069e+02	-0.1579	25.918411	0.000628	6.283262	1.064413	-0.000126
1014	1.0079e+02	-0.1789	25.785186	0.000669	6.688633	1.133085	-0.000134
1015	1.0089e+02	-0.1984	25.664072	0.000608	6.080576	1.030077	-0.000122
1016	1.0099e+02	-0.2183	25.603515	0.000304	3.040288	0.515039	-0.000061
1017	1.0109e+02	-0.2380	25.409732	0.000973	9.728921	1.648124	-0.000195
1018	1.0119e+02	-0.2585	25.304767	0.000527	5.269832	0.892734	-0.000105
1019	1.0129e+02	-0.2777	25.183653	0.000608	6.080576	1.030077	-0.000122
1020	1.0139e+02	-0.2978	25.042353	0.000709	7.094005	1.201757	-0.000142
1021	1.0149e+02	-0.3178	24.901053	0.000709	7.094005	1.201757	-0.000142
1022	1.0159e+02	-0.3380	24.820311	0.000405	4.053717	0.686718	-0.000081
1023	1.0169e+02	-0.3581	24.695159	0.000628	6.283262	1.064413	-0.000126
1024	1.0179e+02	-0.3775	24.549822	0.000730	7.296691	1.236093	-0.000146
1025	1.0189e+02	-0.3971	24.416597	0.000669	6.688633	1.133085	-0.000134
1026	1.0199e+02	-0.4170	24.291446	0.000628	6.283262	1.064413	-0.000126
1027	1.0209e+02	-0.4363	24.222814	0.000345	3.445660	0.583711	-0.000069
1028	1.0219e+02	-0.4579	24.057292	0.000831	8.310120	1.407773	-0.000166
1029	1.0229e+02	-0.4778	23.964438	0.000466	4.661775	0.789726	-0.000093
1030	1.0239e+02	-0.4972	23.831212	0.000669	6.688633	1.133085	-0.000134
1031	1.0248e+02	-0.5168	23.702024	0.000649	6.485948	1.098749	-0.000130
1032	1.0258e+02	-0.5341	23.601096	0.000507	5.067147	0.858398	-0.000101
1033	1.0268e+02	-0.5566	23.427499	0.000872	8.715492	1.476444	-0.000174
1034	1.0278e+02	-0.5770	23.326570	0.000507	5.067147	0.858398	-0.000101
1035	1.0288e+02	-0.5962	23.225642	0.000507	5.067147	0.858398	-0.000101
1036	1.0298e+02	-0.6169	23.120676	0.000527	5.269832	0.892734	-0.000105
1037	1.0308e+02	-0.6366	22.979377	0.000709	7.094005	1.201757	-0.000142
1038	1.0318e+02	-0.6570	22.878448	0.000507	5.067147	0.858398	-0.000101
1039	1.0328e+02	-0.6764	22.716963	0.000811	8.107435	1.373437	-0.000162
1040	1.0338e+02	-0.6963	22.607960	0.000547	5.472518	0.927070	-0.000110
1041	1.0348e+02	-0.7157	22.458586	0.000750	7.499377	1.270429	-0.000150
1042	1.0358e+02	-0.7362	22.341509	0.000588	5.877890	0.995742	-0.000118
1043	1.0368e+02	-0.7559	22.208284	0.000669	6.688633	1.133085	-0.000134
1044	1.0378e+02	-0.7770	22.107355	0.000507	5.067147	0.858398	-0.000101
1045	1.0388e+02	-0.7954	21.941833	0.000831	8.310120	1.407773	-0.000166
1046	1.0398e+02	-0.8152	21.832830	0.000547	5.472518	0.927070	-0.000110
1047	1.0408e+02	-0.8363	21.723827	0.000547	5.472518	0.927070	-0.000110
1048	1.0418e+02	-0.8559	21.626936	0.000486	4.864461	0.824062	-0.000097
1049	1.0428e+02	-0.8752	21.481599	0.000730	7.296691	1.236093	-0.000146
1050	1.0438e+02	-0.8957	21.368559	0.000568	5.675204	0.961406	-0.000114
1051	1.0447e+02	-0.9159	21.227260	0.000709	7.094005	1.201757	-0.000142
1052	1.0457e+02	-0.9351	21.106146	0.000608	6.080576	1.030077	-0.000122
1053	1.0467e+02	-0.9557	21.009254	0.000486	4.864461	0.824062	-0.000097
1054	1.0477e+02	-0.9755	20.888140	0.000608	6.080576	1.030077	-0.000122
1055	1.0487e+02	-0.9946	20.750878	0.000689	6.891319	1.167421	-0.000138
1056	1.0497e+02	-1.0152	20.617652	0.000669	6.688633	1.133085	-0.000134
1057	1.0507e+02	-1.0347	20.496538	0.000608	6.080576	1.030077	-0.000122
1058	1.0517e+02	-1.0555	20.355238	0.000709	7.094005	1.201757	-0.000142
1059	1.0527e+02	-1.0751	20.234124	0.000608	6.080576	1.030077	-0.000122
1060	1.0537e+02	-1.0954	20.141270	0.000466	4.661775	0.789726	-0.000093
1061	1.0547e+02	-1.1142	19.983822	0.000790	7.904749	1.339101	-0.000158
1062	1.0557e+02	-1.1346	19.870782	0.000568	5.675204	0.961406	-0.000114
1063	1.0567e+02	-1.1536	19.717371	0.000770	7.702063	1.304765	-0.000154
1064	1.0577e+02	-1.1749	19.636628	0.000405	4.053717	0.686718	-0.000081
1065	1.0587e+02	-1.1945	19.499366	0.000689	6.891319	1.167421	-0.000138
1066	1.0597e+02	-1.2144	19.362103	0.000689	6.891319	1.167421	-0.000138
1067	1.0607e+02	-1.2346	19.240989	0.000608	6.080576	1.030077	-0.000122
1068	1.0617e+02	-1.2546	19.119875	0.000608	6.080576	1.030077	-0.000122
1069	1.0627e+02	-1.2742	18.962427	0.000790	7.904749	1.339101	-0.000158
1070	1.0637e+02	-1.2945	18.885721	0.000385	3.851031	0.652382	-0.000077
1071	1.0647e+02	-1.3139	18.736347	0.000750	7.499377	1.270429	-0.000150
1072	1.0656e+02	-1.3332	18.647530	0.000446	4.459089	0.755390	-0.000089
1073	1.0666e+02	-1.3547	18.502193	0.000730	7.296691	1.236093	-0.000146
1074	1.0676e+02	-1.3731	18.397228	0.000527	5.269832	0.892734	-0.000105
1075	1.0686e+02	-1.3934	18.259965	0.000689	6.891319	1.167421	-0.000138
1076	1.0696e+02	-1.4120	18.114628	0.000730	7.296691	1.236093	-0.000146
1077	1.0706e+02	-1.4341	17.985440	0.000649	6.485948	1.098749	-0.000130
1078	1.0716e+02	-1.4529	17.908734	0.000385	3.851031	0.652382	-0.000077
1079	1.0726e+02	-1.4732	17.763397	0.000730	7.296691	1.236093	-0.000146
1080	1.0736e+02	-1.4935	17.638246	0.000628	6.283262	1.064413	-0.000126
1081	1.0746e+02	-1.5131	17.529243	0.000547	5.472518	0.927070	-0.000110
1082	1.0756e+02	-1.5326	17.408129	0.000608	6.080576	1.030077	-0.000122
1083	1.0766e+02	-1.5532	17.287015	0.000608	6.080576	1.030077	-0.000122
1084	1.0776e+02	-1.5733	17.137641	0.000750	7.499377	1.270429	-0.000150
1085	1.0786e+02	-1.5926	17.056898	0.000405	4.053717	0.686718	-0.000081
1086	1.0796e+02	-1.6125	16.903487	0.000770	7.702063	1.304765	-0.000154
1087	1.0806e+02	-1.6325	16.725853	0.000892	8.918178	1.510780	-0.000179
1088	1.0816e+02	-1.6527	16.645111	0.000405	4.053717	0.686718	-0.000081
1089	1.0826e+02	-1.6727	16.511885	0.000669	6.688633	1.133085	-0.000134
1090	1.0836e+02	-1.6921	16.398845	0.000568	5.675204	0.961406	-0.000114
1091	1.0845e+02	-1.7131	16.237360	0.000811	8.107435	1.373437	-0.000162
1092	1.0855e+02	-1.7325	16.144506	0.000466	4.661775	0.789726	-0.000093
1093	1.0865e+02	-1.7521	16.011280	0.000669	6.688633	1.133085	-0.000134
1094	1.0875e+02	-1.7711	15.874018	0.000689	6.891319	1.167421	-0.000138
1095	1.0885e+02	-1.7915	15.740792	0.000669	6.688633	1.133085	-0.000134
1096	1.0895e+02	-1.8117	15.647938	0.000466	4.661775	0.789726	-0.000093
1097	1.0905e+02	-1.8318	15.538935	0.000547	5.472518	0.927070	-0.000110
1098	1.0915e+02	-1.8512	15.397636	0.000709	7.094005	1.201757	-0.000142
1099	1.0925e+02	-1.8723	15.232113	0.000831	8.310120	1.407773	-0.000166
1100	1.0935e+02	-1.8913	15.139259	0.000466	4.661775	0.789726	-0.000093
1101	1.0945e+02	-1.9114	15.038331	0.000507	5.067147	0.858398	-0.000101
1102	1.0955e+02	-1.9318	14.905105	0.000669	6.688633	1.133085	-0.000134
1103	1.0965e+02	-1.9527	14.751694	0.000770	7.702063	1.304765	-0.000154
1104	1.0975e+02	-1.9712	14.658840	0.000466	4.661775	0.789726	-0.000093
1105	1.0985e+02	-1.9910	14.529652	0.000649	6.485948	1.098749	-0.000130
1106	1.0995e+02	-2.0125	14.412575	0.000588	5.877890	0.995742	-0.000118
1107	1.1005e+02	-2.0311	14.259163	0.000770	7.702063	1.304765	-0.000154
1108	1.1015e+02	-2.0527	14.129975	0.000649	6.485948	1.098749	-0.000130
1109	1.1025e+02	-2.0708	14.004824	0.000628	6.283262	1.064413	-0.000126
1110	1.1035e+02	-2.0908	13.899858	0.000527	5.269832	0.892734	-0.000105
1111	1.1044e+02	-2.1108	13.754521	0.000730	7.296691	1.236093	-0.000146
1112	1.1054e+02	-2.1307	13.681853	0.000365	3.648346	0.618046	-0.000073
1113	1.1064e+02	-2.1511	13.516330	0.000831	8.310120	1.407773	-0.000166
1114	1.1074e+02	-2.1704	13.370994	0.000730	7.296691	1.236093	-0.000146
1115	1.1084e+02	-2.1912	13.241805	0.000649	6.485948	1.098749	-0.000130
1116	1.1094e+02	-2.2107	13.100505	0.000709	7.094005	1.201757	-0.000142
1117	1.1104e+02	-2.2302	12.983429	0.000588	5.877890	0.995742	-0.000118
1118	1.1114e+02	-2.2500	12.882500	0.000507	5.067147	0.858398	-0.000101
1119	1.1124e+02	-2.2702	12.781572	0.000507	5.067147	0.858398	-0.000101
1120	1.1134e+02	-2.2904	12.632198	0.000750	7.499377	1.270429	-0.000150
1121	1.1144e+02	-2.3103	12.523195	0.000547	5.472518	0.927070	-0.000110
1122	1.1154e+02	-2.3302	12.406118	0.000588	5.877890	0.995742	-0.000118
1123	1.1164e+02	-2.3495	12.297115	0.000547	5.472518	0.927070	-0.000110
1124	1.1174e+02	-2.3698	12.176001	0.000608	6.080576	1.030077	-0.000122
1125	1.1184e+02	-2.3907	12.022590	0.000770	7.702063	1.304765	-0.000154
1126	1.1194e+02	-2.4100	11.913588	0.000547	5.472518	0.927070	-0.000110
1127	1.1204e+02	-2.4305	11.776325	0.000689	6.891319	1.167421	-0.000138
1128	1.1214e+02	-2.4483	11.663285	0.000568	5.675204	0.961406	-0.000114
1129	1.1224e+02	-2.4704	11.538134	0.000628	6.283262	1.064413	-0.000126
1130	1.1234e+02	-2.4902	11.408946	0.000649	6.485948	1.098749	-0.000130
1131	1.1244e+02	-2.5090	11.247460	0.000811	8.107435	1.373437	-0.000162
1132	1.1253e+02	-2.5299	11.166717	0.000405	4.053717	0.686718	-0.000081
1133	1.1263e+02	-2.5491	11.017343	0.000750	7.499377	1.270429	-0.000150
1134	1.1273e+02	-2.5693	10.928526	0.000446	4.459089	0.755390	-0.000089
1135	1.1283e+02	-2.5889	10.795301	0.000669	6.688633	1.133085	-0.000134
1136	1.1293e+02	-2.6082	10.674187	0.000608	6.080576	1.030077	-0.000122
1137	1.1303e+02	-2.6289	10.540961	0.000669	6.688633	1.133085	-0.000134
1138	1.1313e+02	-2.6483	10.468293	0.000365	3.648346	0.618046	-0.000073
1139	1.1323e+02	-2.6678	10.314882	0.000770	7.702063	1.304765	-0.000154
1140	1.1333e+02	-2.6880	10.197805	0.000588	5.877890	0.995742	-0.000118
1141	1.1343e+02	-2.7084	10.060542	0.000689	6.891319	1.167421	-0.000138
1142	1.1353e+02	-2.7280	9.971725	0.000446	4.459089	0.755390	-0.000089
1143	1.1363e+02	-2.7472	9.810240	0.000811	8.107435	1.373437	-0.000162
1144	1.1373e+02	-2.7682	9.701237	0.000547	5.472518	0.927070	-0.000110
1145	1.1383e+02	-2.7870	9.535715	0.000831	8.310120	1.407773	-0.000166
1146	1.1393e+02	-2.8081	9.442860	0.000466	4.661775	0.789726	-0.000093
1147	1.1403e+02	-2.8285	9.325784	0.000588	5.877890	0.995742	-0.000118
1148	1.1413e+02	-2.8482	9.196595	0.000649	6.485948	1.098749	-0.000130
1149	1.1423e+02	-2.8680	9.087593	0.000547	5.472518	0.927070	-0.000110
1150	1.1433e+02	-2.8882	8.978590	0.000547	5.472518	0.927070	-0.000110
1151	1.1442e+02	-2.9070	8.853439	0.000628	6.283262	1.064413	-0.000126
1152	1.1452e+02	-2.9273	8.760585	0.000466	4.661775	0.789726	-0.000093
1153	1.1462e+02	-2.9472	8.586988	0.000872	8.715492	1.476444	-0.000174
1154	1.1472e+02	-2.9681	8.453762	0.000669	6.688633	1.133085	-0.000134
1155	1.1482e+02	-2.9869	8.364945	0.000446	4.459089	0.755390	-0.000089
1156	1.1492e+02	-3.0085	8.239794	0.000628	6.283262	1.064413	-0.000126
1157	1.1502e+02	-3.0275	8.082346	0.000790	7.904749	1.339101	-0.000158
1158	1.1512e+02	-3.0473	8.005640	0.000385	3.851031	0.652382	-0.000077
1159	1.1522e+02	-3.0678	7.860303	0.000730	7.296691	1.236093	-0.000146
1160	1.1532e+02	-3.0872	7.755338	0.000527	5.269832	0.892734	-0.000105
1161	1.1542e+02	-3.1071	7.630187	0.000628	6.283262	1.064413	-0.000126
1162	1.1552e+02	-3.1267	7.488887	0.000709	7.094005	1.201757	-0.000142
1163	1.1562e+02	-3.1465	7.383921	0.000527	5.269832	0.892734	-0.000105
1164	1.1572e+02	-3.1667	7.258770	0.000628	6.283262	1.064413	-0.000126
1165	1.1582e+02	-3.1860	7.153805	0.000527	5.269832	0.892734	-0.000105
1166	1.1592e+02	-3.2069	7.040765	0.000568	5.675204	0.961406	-0.000114
1167	1.1602e+02	-3.2256	6.931762	0.000547	5.472518	0.927070	-0.000110
1168	1.1612e+02	-3.2463	6.778351	0.000770	7.702063	1.304765	-0.000154
1169	1.1622e+02	-3.2663	6.649163	0.000649	6.485948	1.098749	-0.000130
1170	1.1632e+02	-3.2858	6.576494	0.000365	3.648346	0.618046	-0.000073
1171	1.1642e+02	-3.3067	6.435194	0.000709	7.094005	1.201757	-0.000142
1172	1.1651e+02	-3.3250	6.301969	0.000669	6.688633	1.133085	-0.000134
1173	1.1661e+02	-3.3453	6.197003	0.000527	5.269832	0.892734	-0.000105
1174	1.1671e+02	-3.3664	6.096075	0.000507	5.067147	0.858398	-0.000101
1175	1.1681e+02	-3.3861	5.954775	0.000709	7.094005	1.201757	-0.000142
1176	1.1691e+02	-3.4052	5.821550	0.000669	6.688633	1.133085	-0.000134
1177	1.1701e+02	-3.4258	5.704473	0.000588	5.877890	0.995742	-0.000118
1178	1.1711e+02	-3.4462	5.603544	0.000507	5.067147	0.858398	-0.000101
1179	1.1721e+02	-3.4657	5.450133	0.000770	7.702063	1.304765	-0.000154
1180	1.1731e+02	-3.4857	5.369391	0.000405	4.053717	0.686718	-0.000081
1181	1.1741e+02	-3.5051	5.248276	0.000608	6.080576	1.030077	-0.000122
1182	1.1751e+02	-3.5259	5.106977	0.000709	7.094005	1.201757	-0.000142
1183	1.1761e+02	-3.5455	4.997974	0.000547	5.472518	0.927070	-0.000110
1184	1.1771e+02	-3.5650	4.884934	0.000568	5.675204	0.961406	-0.000114
1185	1.1781e+02	-3.5845	4.755746	0.000649	6.485948	1.098749	-0.000130
1186	1.1791e+02	-3.6050	4.654818	0.000507	5.067147	0.858398	-0.000101
1187	1.1801e+02	-3.6255	4.529666	0.000628	6.283262	1.064413	-0.000126
1188	1.1811e+02	-3.6449	4.412589	0.000588	5.877890	0.995742	-0.000118
1189	1.1821e+02	-3.6655	4.307624	0.000527	5.269832	0.892734	-0.000105
1190	1.1831e+02	-3.6856	4.190547	0.000588	5.877890	0.995742	-0.000118
1191	1.1841e+02	-3.7045	4.073470	0.000588	5.877890	0.995742	-0.000118
1192	1.1850e+02	-3.7249	3.964467	0.000547	5.472518	0.927070	-0.000110
1193	1.1860e+02	-3.7444	3.831242	0.000669	6.688633	1.133085	-0.000134
1194	1.1870e+02	-3.7643	3.702053	0.000649	6.485948	1.098749	-0.000130
1195	1.1880e+02	-3.7845	3.601125	0.000507	5.067147	0.858398	-0.000101
1196	1.1890e+02	-3.8039	3.459825	0.000709	7.094005	1.201757	-0.000142
1197	1.1900e+02	-3.8246	3.366971	0.000466	4.661775	0.789726	-0.000093
1198	1.1910e+02	-3.8443	3.262006	0.000527	5.269832	0.892734	-0.000105
1199	1.1920e+02	-3.8642	3.128780	0.000669	6.688633	1.133085	-0.000134
1200	1.1930e+02	-3.8837	3.023815	0.000527	5.269832	0.892734	-0.000105
1201	1.1940e+02	-3.9034	2.902701	0.000608	6.080576	1.030077	-0.000122
1202	1.1950e+02	-3.9230	2.761401	0.000709	7.094005	1.201757	-0.000142
1203	1.1960e+02	-3.9427	2.660472	0.000507	5.067147	0.858398	-0.000101
1204	1.1970e+02	-3.9647	2.567618	0.000466	4.661775	0.789726	-0.000093
1205	1.1980e+02	-3.9838	2.414207	0.000770	7.702063	1.304765	-0.000154
1206	1.1990e+02	-4.0041	2.345576	0.000345	3.445660	0.583711	-0.000069
1207	1.2000e+02	-4.0234	2.196202	0.000750	7.499377	1.270429	-0.000150
1208	1.2010e+02	-4.0439	2.062976	0.000669	6.688633	1.133085	-0.000134
1209	1.2020e+02	-4.0636	1.970122	0.000466	4.661775	0.789726	-0.000093
1210	1.2030e+02	-4.0845	1.788451	0.000912	9.120864	1.545116	-0.000183
1211	1.2039e+02	-4.1041	1.699634	0.000446	4.459089	0.755390	-0.000089
1212	1.2049e+02	-4.1226	1.614854	0.000426	4.256403	0.721054	-0.000085
1213	1.2059e+02	-4.1431	1.489703	0.000628	6.283262	1.064413	-0.000126
1214	1.2069e+02	-4.1626	1.408960	0.000405	4.053717	0.686718	-0.000081
1215	1.2079e+02	-4.1818	1.247475	0.000811	8.107435	1.373437	-0.000162
1216	1.2089e+02	-4.2023	1.094064	0.000770	7.702063	1.304765	-0.000154
1217	1.2099e+02	-4.2215	1.025432	0.000345	3.445660	0.583711	-0.000069
1218	1.2109e+02	-4.2421	0.888170	0.000689	6.891319	1.167421	-0.000138
1219	1.2119e+02	-4.2630	0.803390	0.000426	4.256403	0.721054	-0.000085
1220	1.2129e+02	-4.2831	0.678239	0.000628	6.283262	1.064413	-0.000126
1221	1.2139e+02	-4.3019	0.561162	0.000588	5.877890	0.995742	-0.000118
1222	1.2149e+02	-4.3221	0.423899	0.000689	6.891319	1.167421	-0.000138
1223	1.2159e+02	-4.3420	0.314897	0.000547	5.472518	0.927070	-0.000110
1224	1.2169e+02	-4.3616	0.213968	0.000507	5.067147	0.858398	-0.000101
1225	1.2179e+02	-4.3829	0.076706	0.000689	6.891319	1.167421	-0.000138
1226	1.2189e+02	-4.4009	-0.028260	0.000527	5.269832	0.892734	-0.000105
1227	1.2199e+02	-4.4223	-0.129188	0.000507	5.067147	0.858398	-0.000101
1228	1.2209e+02	-4.4412	-0.242228	0.000568	5.675204	0.961406	-0.000114
1229	1.2219e+02	-4.4611	-0.371416	0.000649	6.485948	1.098749	-0.000130
1230	1.2229e+02	-4.4817	-0.492531	0.000608	6.080576	1.030077	-0.000122
1231	1.2239e+02	-4.5015	-0.633830	0.000709	7.094005	1.201757	-0.000142
1232	1.2248e+02	-4.5227	-0.718610	0.000426	4.256403	0.721054	-0.000085
1233	1.2258e+02	-4.5419	-0.843761	0.000628	6.283262	1.064413	-0.000126
1234	1.2268e+02	-4.5604	-0.985061	0.000709	7.094005	1.201757	-0.000142
1235	1.2278e+02	-4.5807	-1.090027	0.000527	5.269832	0.892734	-0.000105
1236	1.2288e+02	-4.6017	-1.223252	0.000669	6.688633	1.133085	-0.000134
1237	1.2298e+02	-4.6211	-1.291883	0.000345	3.445660	0.583711	-0.000069
1238	1.2308e+02	-4.6411	-1.437220	0.000730	7.296691	1.236093	-0.000146
1239	1.2318e+02	-4.6609	-1.554297	0.000588	5.877890	0.995742	-0.000118
1240	1.2328e+02	-4.6806	-1.671374	0.000588	5.877890	0.995742	-0.000118
1241	1.2338e+02	-4.7012	-1.816711	0.000730	7.296691	1.236093	-0.000146
1242	1.2348e+02	-4.7208	-1.921677	0.000527	5.269832	0.892734	-0.000105
1243	1.2358e+02	-4.7401	-2.022605	0.000507	5.067147	0.858398	-0.000101
1244	1.2368e+02	-4.7607	-2.171979	0.000750	7.499377	1.270429	-0.000150
1245	1.2378e+02	-4.7807	-2.268870	0.000486	4.864461	0.824062	-0.000097
1246	1.2388e+02	-4.8010	-2.406133	0.000689	6.891319	1.167421	-0.000138
1247	1.2398e+02	-4.8201	-2.551470	0.000730	7.296691	1.236093	-0.000146
1248	1.2408e+02	-4.8399	-2.603953	0.000263	2.634916	0.446367	-0.000053
1249	1.2418e+02	-4.8608	-2.733141	0.000649	6.485948	1.098749	-0.000130
1250	1.2428e+02	-4.8813	-2.898663	0.000831	8.310120	1.407773	-0.000166
1251	1.2438e+02	-4.9001	-3.031889	0.000669	6.688633	1.133085	-0.000134
1252	1.2447e+02	-4.9201	-3.144929	0.000568	5.675204	0.961406	-0.000114
1253	1.2457e+02	-4.9396	-3.253931	0.000547	5.472518	0.927070	-0.000110
1254	1.2467e+02	-4.9604	-3.354860	0.000507	5.067147	0.858398	-0.000101
1255	1.2477e+02	-4.9800	-3.500197	0.000730	7.296691	1.236093	-0.000146
1256	1.2487e+02	-5.0003	-3.609199	0.000547	5.472518	0.927070	-0.000110
1257	1.2497e+02	-5.0200	-3.746462	0.000689	6.891319	1.167421	-0.000138
1258	1.2507e+02	-5.0392	-3.827205	0.000405	4.053717	0.686718	-0.000081
1259	1.2517e+02	-5.0595	-3.960430	0.000669	6.688633	1.133085	-0.000134
1260	1.2527e+02	-5.0793	-4.081544	0.000608	6.080576	1.030077	-0.000122
1261	1.2537e+02	-5.0989	-4.186510	0.000527	5.269832	0.892734	-0.000105
1262	1.2547e+02	-5.1199	-4.352032	0.000831	8.310120	1.407773	-0.000166
1263	1.2557e+02	-5.1404	-4.489295	0.000689	6.891319	1.167421	-0.000138
1264	1.2567e+02	-5.1582	-4.574075	0.000426	4.256403	0.721054	-0.000085
1265	1.2577e+02	-5.1782	-4.707300	0.000669	6.688633	1.133085	-0.000134
1266	1.2587e+02	-5.1988	-4.804192	0.000486	4.864461	0.824062	-0.000097
1267	1.2597e+02	-5.2185	-4.957603	0.000770	7.702063	1.304765	-0.000154
1268	1.2607e+02	-5.2391	-5.066605	0.000547	5.472518	0.927070	-0.000110
1269	1.2617e+02	-5.2593	-5.187719	0.000608	6.080576	1.030077	-0.000122
1270	1.2627e+02	-5.2779	-5.337093	0.000750	7.499377	1.270429	-0.000150
1271	1.2636e+02	-5.2989	-5.446096	0.000547	5.472518	0.927070	-0.000110
1272	1.2646e+02	-5.3186	-5.559136	0.000568	5.675204	0.961406	-0.000114
1273	1.2656e+02	-5.3389	-5.712547	0.000770	7.702063	1.304765	-0.000154
1274	1.2666e+02	-5.3587	-5.837698	0.000628	6.283262	1.064413	-0.000126
1275	1.2676e+02	-5.3781	-5.954775	0.000588	5.877890	0.995742	-0.000118
1276	1.2686e+02	-5.3979	-6.096075	0.000709	7.094005	1.201757	-0.000142
1277	1.2696e+02	-5.4173	-6.201040	0.000527	5.269832	0.892734	-0.000105
1278	1.2706e+02	-5.4378	-6.330229	0.000649	6.485948	1.098749	-0.000130
1279	1.2716e+02	-5.4576	-6.467491	0.000689	6.891319	1.167421	-0.000138
1280	1.2726e+02	-5.4779	-6.596680	0.000649	6.485948	1.098749	-0.000130
1281	1.2736e+02	-5.4976	-6.689534	0.000466	4.661775	0.789726	-0.000093
1282	1.2746e+02	-5.5177	-6.842945	0.000770	7.702063	1.304765	-0.000154
1283	1.2756e+02	-5.5383	-6.935799	0.000466	4.661775	0.789726	-0.000093
1284	1.2766e+02	-5.5587	-7.121507	0.000932	9.323550	1.579452	-0.000187
1285	1.2776e+02	-5.5771	-7.266844	0.000730	7.296691	1.236093	-0.000146
1286	1.2786e+02	-5.5977	-7.396033	0.000649	6.485948	1.098749	-0.000130
1287	1.2796e+02	-5.6180	-7.492924	0.000486	4.864461	0.824062	-0.000097
1288	1.2806e+02	-5.6377	-7.626149	0.000669	6.688633	1.133085	-0.000134
1289	1.2816e+02	-5.6569	-7.747263	0.000608	6.080576	1.030077	-0.000122
1290	1.2826e+02	-5.6770	-7.904712	0.000790	7.904749	1.339101	-0.000158
1291	1.2835e+02	-5.6969	-8.013714	0.000547	5.472518	0.927070	-0.000110
1292	1.2845e+02	-5.7173	-8.134829	0.000608	6.080576	1.030077	-0.000122
1293	1.2855e+02	-5.7365	-8.304388	0.000851	8.512806	1.442108	-0.000170
1294	1.2865e+02	-5.7562	-8.405317	0.000507	5.067147	0.858398	-0.000101
1295	1.2875e+02	-5.7771	-8.530468	0.000628	6.283262	1.064413	-0.000126
1296	1.2885e+02	-5.7968	-8.647545	0.000588	5.877890	0.995742	-0.000118
1297	1.2895e+02	-5.8160	-8.780770	0.000669	6.688633	1.133085	-0.000134
1298	1.2905e+02	-5.8368	-8.942256	0.000811	8.107435	1.373437	-0.000162
1299	1.2915e+02	-5.8568	-9.051258	0.000547	5.472518	0.927070	-0.000110
1300	1.2925e+02	-5.8770	-9.212744	0.000811	8.107435	1.373437	-0.000162
1301	1.2935e+02	-5.8949	-9.341932	0.000649	6.485948	1.098749	-0.000130
1302	1.2945e+02	-5.9160	-9.491306	0.000750	7.499377	1.270429	-0.000150
1303	1.2955e+02	-5.9359	-9.608383	0.000588	5.877890	0.995742	-0.000118
1304	1.2965e+02	-5.9555	-9.794091	0.000932	9.323550	1.579452	-0.000187
1305	1.2975e+02	-5.9757	-9.899057	0.000527	5.269832	0.892734	-0.000105
1306	1.2985e+02	-5.9958	-10.036319	0.000689	6.891319	1.167421	-0.000138
1307	1.2995e+02	-6.0162	-10.157434	0.000608	6.080576	1.030077	-0.000122
1308	1.3005e+02	-6.0350	-10.335067	0.000892	8.918178	1.510780	-0.000179
1309	1.3015e+02	-6.0556	-10.423884	0.000446	4.459089	0.755390	-0.000089
1310	1.3025e+02	-6.0751	-10.553073	0.000649	6.485948	1.098749	-0.000130
1311	1.3034e+02	-6.0950	-10.734744	0.000912	9.120864	1.545116	-0.000183
1312	1.3044e+02	-6.1163	-10.859895	0.000628	6.283262	1.064413	-0.000126
1313	1.3054e+02	-6.1356	-11.033492	0.000872	8.715492	1.476444	-0.000174
1314	1.3064e+02	-6.1551	-11.154606	0.000608	6.080576	1.030077	-0.000122
1315	1.3074e+02	-6.1749	-11.287832	0.000669	6.688633	1.133085	-0.000134
1316	1.3084e+02	-6.1942	-11.449317	0.000811	8.107435	1.373437	-0.000162
1317	1.3094e+02	-6.2152	-11.590617	0.000709	7.094005	1.201757	-0.000142
1318	1.3104e+02	-6.2361	-11.727879	0.000689	6.891319	1.167421	-0.000138
1319	1.3114e+02	-6.2549	-11.877253	0.000750	7.499377	1.270429	-0.000150
1320	1.3124e+02	-6.2756	-12.042776	0.000831	8.310120	1.407773	-0.000166
1321	1.3134e+02	-6.2952	-12.159853	0.000588	5.877890	0.995742	-0.000118
1322	1.3144e+02	-6.3141	-12.285004	0.000628	6.283262	1.064413	-0.000126
1323	1.3154e+02	-6.3339	-12.446489	0.000811	8.107435	1.373437	-0.000162
1324	1.3164e+02	-6.3542	-12.612012	0.000831	8.310120	1.407773	-0.000166
1325	1.3174e+02	-6.3739	-12.757349	0.000730	7.296691	1.236093	-0.000146
1326	1.3184e+02	-6.3951	-12.878463	0.000608	6.080576	1.030077	-0.000122
1327	1.3194e+02	-6.4140	-13.035911	0.000790	7.904749	1.339101	-0.000158
1328	1.3204e+02	-6.4351	-13.193360	0.000790	7.904749	1.339101	-0.000158
1329	1.3214e+02	-6.4542	-13.342734	0.000750	7.499377	1.270429	-0.000150
1330	1.3224e+02	-6.4738	-13.500182	0.000790	7.904749	1.339101	-0.000158
1331	1.3234e+02	-6.4943	-13.633407	0.000669	6.688633	1.133085	-0.000134
1332	1.3243e+02	-6.5143	-13.782781	0.000750	7.499377	1.270429	-0.000150
1333	1.3253e+02	-6.5349	-13.932155	0.000750	7.499377	1.270429	-0.000150
1334	1.3263e+02	-6.5530	-14.093641	0.000811	8.107435	1.373437	-0.000162
1335	1.3273e+02	-6.5735	-14.234941	0.000709	7.094005	1.201757	-0.000142
1336	1.3283e+02	-6.5936	-14.424686	0.000953	9.526236	1.613788	-0.000191
1337	1.3293e+02	-6.6129	-14.578097	0.000770	7.702063	1.304765	-0.000154
1338	1.3303e+02	-6.6333	-14.719397	0.000709	7.094005	1.201757	-0.000142
1339	1.3313e+02	-6.6531	-14.876845	0.000790	7.904749	1.339101	-0.000158
1340	1.3323e+02	-6.6733	-15.022182	0.000730	7.296691	1.236093	-0.000146
1341	1.3333e+02	-6.6934	-15.207890	0.000932	9.323550	1.579452	-0.000187
1342	1.3343e+02	-6.7139	-15.353227	0.000730	7.296691	1.236093	-0.000146
1343	1.3353e+02	-6.7334	-15.547010	0.000973	9.728921	1.648124	-0.000195
1344	1.3363e+02	-6.7529	-15.692347	0.000730	7.296691	1.236093	-0.000146
1345	1.3373e+02	-6.7723	-15.853832	0.000811	8.107435	1.373437	-0.000162
1346	1.3383e+02	-6.7923	-15.950723	0.000486	4.864461	0.824062	-0.000097
1347	1.3393e+02	-6.8134	-16.164691	0.001074	10.742351	1.819803	-0.000215
1348	1.3403e+02	-6.8311	-16.318103	0.000770	7.702063	1.304765	-0.000154
1349	1.3413e+02	-6.8535	-16.507848	0.000953	9.526236	1.613788	-0.000191
1350	1.3423e+02	-6.8732	-16.661259	0.000770	7.702063	1.304765	-0.000154
1351	1.3432e+02	-6.8932	-16.826782	0.000831	8.310120	1.407773	-0.000166
1352	1.3442e+02	-6.9125	-17.004416	0.000892	8.918178	1.510780	-0.000179
1353	1.3452e+02	-6.9325	-17.186087	0.000912	9.120864	1.545116	-0.000183
1354	1.3462e+02	-6.9528	-17.355647	0.000851	8.512806	1.442108	-0.000170
1355	1.3472e+02	-6.9721	-17.525206	0.000851	8.512806	1.442108	-0.000170
1356	1.3482e+02	-6.9917	-17.670543	0.000730	7.296691	1.236093	-0.000146
1357	1.3492e+02	-7.0122	-17.860289	0.000953	9.526236	1.613788	-0.000191
1358	1.3502e+02	-7.0311	-18.021774	0.000811	8.107435	1.373437	-0.000162
1359	1.3512e+02	-7.0517	-18.146925	0.000628	6.283262	1.064413	-0.000126
1360	1.3522e+02	-7.0709	-18.393190	0.001236	12.363838	2.094491	-0.000248
1361	1.3532e+02	-7.0908	-18.558713	0.000831	8.310120	1.407773	-0.000166
1362	1.3542e+02	-7.1118	-18.724236	0.000831	8.310120	1.407773	-0.000166
1363	1.3552e+02	-7.1320	-18.909944	0.000932	9.323550	1.579452	-0.000187
1364	1.3562e+02	-7.1521	-19.099689	0.000953	9.526236	1.613788	-0.000191
1365	1.3572e+02	-7.1723	-19.269249	0.000851	8.512806	1.442108	-0.000170
1366	1.3582e+02	-7.1915	-19.479180	0.001054	10.539665	1.785468	-0.000211
1367	1.3592e+02	-7.2119	-19.632591	0.000770	7.702063	1.304765	-0.000154
1368	1.3602e+02	-7.2313	-19.850596	0.001095	10.945037	1.854139	-0.000219
1369	1.3612e+02	-7.2504	-19.991896	0.000709	7.094005	1.201757	-0.000142
1370	1.3622e+02	-7.2705	-20.177604	0.000932	9.323550	1.579452	-0.000187
1371	1.3631e+02	-7.2913	-20.371387	0.000973	9.728921	1.648124	-0.000195
1372	1.3641e+02	-7.3102	-20.601504	0.001155	11.553094	1.957147	-0.000231
1373	1.3651e+02	-7.3309	-20.726655	0.000628	6.283262	1.064413	-0.000126
1374	1.3661e+02	-7.3505	-20.936586	0.001054	10.539665	1.785468	-0.000211
1375	1.3671e+02	-7.3718	-21.130368	0.000973	9.728921	1.648124	-0.000195
1376	1.3681e+02	-7.3914	-21.328188	0.000993	9.931607	1.682460	-0.000199
1377	1.3691e+02	-7.4100	-21.489674	0.000811	8.107435	1.373437	-0.000162
1378	1.3701e+02	-7.4310	-21.723827	0.001176	11.755780	1.991483	-0.000235
1379	1.3711e+02	-7.4503	-21.933758	0.001054	10.539665	1.785468	-0.000211
1380	1.3721e+02	-7.4702	-22.050835	0.000588	5.877890	0.995742	-0.000118
1381	1.3731e+02	-7.4908	-22.293064	0.001216	12.161152	2.060155	-0.000243
1382	1.3741e+02	-7.5107	-22.498957	0.001034	10.336979	1.751132	-0.000207
1383	1.3751e+02	-7.5302	-22.668517	0.000851	8.512806	1.442108	-0.000170
1384	1.3761e+02	-7.5508	-22.838077	0.000851	8.512806	1.442108	-0.000170
1385	1.3771e+02	-7.5693	-23.064156	0.001135	11.350408	1.922811	-0.000227
1386	1.3781e+02	-7.5903	-23.302347	0.001196	11.958466	2.025819	-0.000239
1387	1.3791e+02	-7.6089	-23.492093	0.000953	9.526236	1.613788	-0.000191
1388	1.3801e+02	-7.6289	-23.693950	0.001013	10.134293	1.716796	-0.000203
1389	1.3811e+02	-7.6486	-23.887732	0.000973	9.728921	1.648124	-0.000195
1390	1.3821e+02	-7.6697	-24.101700	0.001074	10.742351	1.819803	-0.000215
1391	1.3831e+02	-7.6879	-24.327780	0.001135	11.350408	1.922811	-0.000227
1392	1.3840e+02	-7.7086	-24.533674	0.001034	10.336979	1.751132	-0.000207
1393	1.3850e+02	-7.7279	-24.739568	0.001034	10.336979	1.751132	-0.000207
1394	1.3860e+02	-7.7485	-24.985833	0.001236	12.363838	2.094491	-0.000248
1395	1.3870e+02	-7.7689	-25.187690	0.001013	10.134293	1.716796	-0.000203
1396	1.3880e+02	-7.7888	-25.389547	0.001013	10.134293	1.716796	-0.000203
1397	1.3890e+02	-7.8095	-25.607552	0.001095	10.945037	1.854139	-0.000219
1398	1.3900e+02	-7.8282	-25.825557	0.001095	10.945037	1.854139	-0.000219
1399	1.3910e+02	-7.8477	-26.019340	0.000973	9.728921	1.648124	-0.000195
1400	1.3920e+02	-7.8679	-26.241382	0.001115	11.147722	1.888475	-0.000223
1401	1.3930e+02	-7.8880	-26.503796	0.001317	13.174581	2.231834	-0.000264
1402	1.3940e+02	-7.9074	-26.701616	0.000993	9.931607	1.682460	-0.000199
1403	1.3950e+02	-7.9279	-26.951918	0.001257	12.566524	2.128827	-0.000252
1404	1.3960e+02	-7.9478	-27.161849	0.001054	10.539665	1.785468	-0.000211
1405	1.3970e+02	-7.9683	-27.412152	0.001257	12.566524	2.128827	-0.000252
1406	1.3980e+02	-7.9881	-27.630157	0.001095	10.945037	1.854139	-0.000219
1407	1.3990e+02	-8.0081	-27.836051	0.001034	10.336979	1.751132	-0.000207
1408	1.4000e+02	-8.0275	-28.090390	0.001277	12.769209	2.163163	-0.000256
1409	1.4010e+02	-8.0469	-28.312433	0.001115	11.147722	1.888475	-0.000223
1410	1.4020e+02	-8.0676	-28.546587	0.001176	11.755780	1.991483	-0.000235
1411	1.4029e+02	-8.0878	-28.768629	0.001115	11.147722	1.888475	-0.000223
1412	1.4039e+02	-8.1076	-29.035080	0.001338	13.377267	2.266170	-0.000268
1413	1.4049e+02	-8.1274	-29.245011	0.001054	10.539665	1.785468	-0.000211
1414	1.4059e+02	-8.1471	-29.495314	0.001257	12.566524	2.128827	-0.000252
1415	1.4069e+02	-8.1676	-29.701208	0.001034	10.336979	1.751132	-0.000207
1416	1.4079e+02	-8.1870	-30.020141	0.001601	16.012183	2.712537	-0.000321
1417	1.4089e+02	-8.2059	-30.266407	0.001236	12.363838	2.094491	-0.000248
1418	1.4099e+02	-8.2271	-30.452115	0.000932	9.323550	1.579452	-0.000187
1419	1.4109e+02	-8.2466	-30.742789	0.001459	14.593382	2.472186	-0.000292
1420	1.4119e+02	-8.2663	-30.972905	0.001155	11.553094	1.957147	-0.000231
1421	1.4129e+02	-8.2866	-31.231282	0.001297	12.971895	2.197499	-0.000260
1422	1.4139e+02	-8.3072	-31.501770	0.001358	13.579953	2.300506	-0.000272
1423	1.4149e+02	-8.3270	-31.748035	0.001236	12.363838	2.094491	-0.000248
1424	1.4159e+02	-8.3450	-32.046783	0.001500	14.998754	2.540858	-0.000300
1425	1.4169e+02	-8.3658	-32.272863	0.001135	11.350408	1.922811	-0.000227
1426	1.4179e+02	-8.3861	-32.559500	0.001439	14.390696	2.437850	-0.000288
1427	1.4189e+02	-8.4064	-32.781542	0.001115	11.147722	1.888475	-0.000223
1428	1.4199e+02	-8.4264	-33.088365	0.001540	15.404126	2.609530	-0.000308
1429	1.4209e+02	-8.4459	-33.338667	0.001257	12.566524	2.128827	-0.000252
1430	1.4219e+02	-8.4658	-33.584932	0.001236	12.363838	2.094491	-0.000248
1431	1.4228e+02	-8.4863	-33.851383	0.001338	13.377267	2.266170	-0.000268
1432	1.4238e+02	-8.5066	-34.129946	0.001399	13.985325	2.369178	-0.000280
1433	1.4248e+02	-8.5258	-34.416582	0.001439	14.390696	2.437850	-0.000288
1434	1.4258e+02	-8.5455	-34.715330	0.001500	14.998754	2.540858	-0.000300
1435	1.4268e+02	-8.5655	-34.977744	0.001317	13.174581	2.231834	-0.000264
1436	1.4278e+02	-8.5852	-35.260344	0.001419	14.188010	2.403514	-0.000284
1437	1.4288e+02	-8.6044	-35.542943	0.001419	14.188010	2.403514	-0.000284
1438	1.4298e+02	-8.6255	-35.825543	0.001419	14.188010	2.403514	-0.000284
1439	1.4308e+02	-8.6443	-36.100068	0.001378	13.782639	2.334842	-0.000276
1440	1.4318e+02	-8.6655	-36.414964	0.001581	15.809497	2.678201	-0.000316
1441	1.4328e+02	-8.6849	-36.673341	0.001297	12.971895	2.197499	-0.000260
1442	1.4338e+02	-8.7045	-36.992275	0.001601	16.012183	2.712537	-0.000321
1443	1.4348e+02	-8.7251	-37.291023	0.001500	14.998754	2.540858	-0.000300
1444	1.4358e+02	-8.7448	-37.565548	0.001378	13.782639	2.334842	-0.000276
1445	1.4368e+02	-8.7653	-37.852185	0.001439	14.390696	2.437850	-0.000288
1446	1.4378e+02	-8.7842	-38.171118	0.001601	16.012183	2.712537	-0.000321
1447	1.4388e+02	-8.8043	-38.461792	0.001459	14.593382	2.472186	-0.000292
1448	1.4398e+02	-8.8243	-38.788800	0.001642	16.417555	2.781209	-0.000329
1449	1.4408e+02	-8.8441	-39.067363	0.001399	13.985325	2.369178	-0.000280
1450	1.4418e+02	-8.8646	-39.398408	0.001662	16.620241	2.815545	-0.000333
1451	1.4428e+02	-8.8846	-39.697156	0.001500	14.998754	2.540858	-0.000300
1452	1.4437e+02	-8.9035	-40.003978	0.001540	15.404126	2.609530	-0.000308
1453	1.4447e+02	-8.9246	-40.330986	0.001642	16.417555	2.781209	-0.000329
1454	1.4457e+02	-8.9429	-40.649920	0.001601	16.012183	2.712537	-0.000321
1455	1.4467e+02	-8.9633	-40.968853	0.001601	16.012183	2.712537	-0.000321
1456	1.4477e+02	-8.9832	-41.299899	0.001662	16.620241	2.815545	-0.000333
1457	1.4487e+02	-9.0038	-41.594610	0.001480	14.796068	2.506522	-0.000296
1458	1.4497e+02	-9.0242	-41.945840	0.001763	17.633670	2.987225	-0.000353
1459	1.4507e+02	-9.0434	-42.297071	0.001763	17.633670	2.987225	-0.000353
1460	1.4517e+02	-9.0637	-42.607931	0.001561	15.606811	2.643865	-0.000312
1461	1.4527e+02	-9.0826	-42.975310	0.001844	18.444414	3.124568	-0.000369
1462	1.4537e+02	-9.1028	-43.282132	0.001540	15.404126	2.609530	-0.000308
1463	1.4547e+02	-9.1231	-43.637400	0.001784	17.836356	3.021560	-0.000357
1464	1.4557e+02	-9.1431	-43.940185	0.001520	15.201440	2.575194	-0.000304
1465	1.4567e+02	-9.1641	-44.315639	0.001885	18.849785	3.193240	-0.000377
1466	1.4577e+02	-9.1830	-44.658796	0.001723	17.228298	2.918553	-0.000345
1467	1.4587e+02	-9.2019	-44.985804	0.001642	16.417555	2.781209	-0.000329
1468	1.4597e+02	-9.2221	-45.369331	0.001926	19.255157	3.261912	-0.000385
1469	1.4607e+02	-9.2418	-45.756896	0.001946	19.457843	3.296248	-0.000390
1470	1.4617e+02	-9.2622	-46.100053	0.001723	17.228298	2.918553	-0.000345
1471	1.4626e+02	-9.2822	-46.398801	0.001500	14.998754	2.540858	-0.000300
1472	1.4636e+02	-9.3024	-46.794440	0.001986	19.863215	3.364920	-0.000398
1473	1.4646e+02	-9.3217	-47.169894	0.001885	18.849785	3.193240	-0.000377
1474	1.4656e+02	-9.3414	-47.569570	0.002007	20.065900	3.399256	-0.000402
1475	1.4666e+02	-9.3621	-47.928875	0.001804	18.039042	3.055896	-0.000361
1476	1.4676e+02	-9.3823	-48.239735	0.001561	15.606811	2.643865	-0.000312
1477	1.4686e+02	-9.3991	-48.675746	0.002189	21.890073	3.708279	-0.000438
1478	1.4696e+02	-9.4214	-49.031014	0.001784	17.836356	3.021560	-0.000357
1479	1.4706e+02	-9.4415	-49.430690	0.002007	20.065900	3.399256	-0.000402
1480	1.4716e+02	-9.4615	-49.814218	0.001926	19.255157	3.261912	-0.000385
1481	1.4726e+02	-9.4815	-50.213894	0.002007	20.065900	3.399256	-0.000402
1482	1.4736e+02	-9.5016	-50.625682	0.002067	20.673958	3.502263	-0.000414
1483	1.4746e+02	-9.5216	-50.960764	0.001682	16.822927	2.849881	-0.000337
1484	1.4756e+02	-9.5405	-51.392738	0.002169	21.687387	3.673943	-0.000434
1485	1.4766e+02	-9.5605	-51.792414	0.002007	20.065900	3.399256	-0.000402
1486	1.4776e+02	-9.5798	-52.248611	0.002290	22.903503	3.879958	-0.000458
1487	1.4786e+02	-9.6022	-52.624064	0.001885	18.849785	3.193240	-0.000377
1488	1.4796e+02	-9.6213	-53.088335	0.002331	23.308874	3.948630	-0.000467
1489	1.4806e+02	-9.6408	-53.463789	0.001885	18.849785	3.193240	-0.000377
1490	1.4816e+02	-9.6613	-53.899799	0.002189	21.890073	3.708279	-0.000438
1491	1.4825e+02	-9.6808	-54.299476	0.002007	20.065900	3.399256	-0.000402
1492	1.4835e+02	-9.6999	-54.731449	0.002169	21.687387	3.673943	-0.000434
1493	1.4845e+02	-9.7203	-55.151311	0.002108	21.079330	3.570935	-0.000422
1494	1.4855e+02	-9.7408	-55.623656	0.002371	23.714246	4.017302	-0.000475
1495	1.4865e+02	-9.7604	-56.051593	0.002148	21.484702	3.639607	-0.000430
1496	1.4875e+02	-9.7807	-56.503752	0.002270	22.700817	3.845622	-0.000454
1497	1.4885e+02	-9.8003	-56.923614	0.002108	21.079330	3.570935	-0.000422
1498	1.4895e+02	-9.8196	-57.395959	0.002371	23.714246	4.017302	-0.000475
1499	1.4905e+02	-9.8396	-57.819858	0.002128	21.282016	3.605271	-0.000426
1500	1.4915e+02	-9.8587	-58.280092	0.002311	23.106188	3.914294	-0.000463
1501	1.4925e+02	-9.8790	-58.772622	0.002473	24.727675	4.188982	-0.000495
1502	1.4935e+02	-9.8997	-59.232856	0.002311	23.106188	3.914294	-0.000463
1503	1.4945e+02	-9.9194	-59.652718	0.002108	21.079330	3.570935	-0.000422
1504	1.4955e+02	-9.9396	-60.161397	0.002554	25.538419	4.326325	-0.000511
1505	1.4965e+02	-9.9600	-60.609519	0.002250	22.498131	3.811287	-0.000450
1506	1.4975e+02	-9.9796	-61.154532	0.002736	27.362592	4.635348	-0.000548
1507	1.4985e+02	-9.9992	-61.618803	0.002331	23.308874	3.948630	-0.000467
1508	1.4995e+02	-9.9800	-61.945811	-0.001642	-16.417555	-2.781209	-0.000329
1509	1.5005e+02	-9.9604	-62.244559	-0.001500	-14.998754	-2.540858	-0.000300
1510	1.5015e+02	-9.9399	-62.523121	-0.001399	-13.985325	-2.369178	-0.000280
1511	1.5025e+02	-9.9200	-62.829943	-0.001540	-15.404126	-2.609530	-0.000308
1512	1.5034e+02	-9.8999	-63.116580	-0.001439	-14.390696	-2.437850	-0.000288
1513	1.5044e+02	-9.8799	-63.334585	-0.001095	-10.945037	-1.854139	-0.000219
1514	1.5054e+02	-9.8602	-63.617185	-0.001419	-14.188010	-2.403514	-0.000284
1515	1.5064e+02	-9.8392	-63.843265	-0.001135	-11.350408	-1.922811	-0.000227
1516	1.5074e+02	-9.8206	-64.085493	-0.001216	-12.161152	-2.060155	-0.000243
1517	1.5084e+02	-9.8003	-64.287349	-0.001013	-10.134293	-1.716796	-0.000203
1518	1.5094e+02	-9.7800	-64.497281	-0.001054	-10.539665	-1.785468	-0.000211
1519	1.5104e+02	-9.7595	-64.695100	-0.000993	-9.931607	-1.682460	-0.000199
1520	1.5114e+02	-9.7407	-64.929254	-0.001176	-11.755780	-1.991483	-0.000235
1521	1.5124e+02	-9.7198	-65.078628	-0.000750	-7.499377	-1.270429	-0.000150
1522	1.5134e+02	-9.7009	-65.252225	-0.000872	-8.715492	-1.476444	-0.000174
1523	1.5144e+02	-9.6809	-65.454082	-0.001013	-10.134293	-1.716796	-0.000203
1524	1.5154e+02	-9.6616	-65.643827	-0.000953	-9.526236	-1.613788	-0.000191
1525	1.5164e+02	-9.6405	-65.760904	-0.000588	-5.877890	-0.995742	-0.000118
1526	1.5174e+02	-9.6204	-65.974872	-0.001074	-10.742351	-1.819803	-0.000215
1527	1.5184e+02	-9.6002	-66.104061	-0.000649	-6.485948	-1.098749	-0.000130
1528	1.5194e+02	-9.5805	-66.233249	-0.000649	-6.485948	-1.098749	-0.000130
1529	1.5204e+02	-9.5609	-66.370512	-0.000689	-6.891319	-1.167421	-0.000138
1530	1.5214e+02	-9.5406	-66.519886	-0.000750	-7.499377	-1.270429	-0.000150
1531	1.5224e+02	-9.5221	-66.632925	-0.000568	-5.675204	-0.961406	-0.000114
1532	1.5233e+02	-9.5020	-66.733854	-0.000507	-5.067147	-0.858398	-0.000101
1533	1.5243e+02	-9.4810	-66.875154	-0.000709	-7.094005	-1.201757	-0.000142
1534	1.5253e+02	-9.4614	-66.984156	-0.000547	-5.472518	-0.927070	-0.000110
1535	1.5263e+02	-9.4423	-67.089122	-0.000527	-5.269832	-0.892734	-0.000105
1536	1.5273e+02	-9.4214	-67.206199	-0.000588	-5.877890	-0.995742	-0.000118
1537	1.5283e+02	-9.4019	-67.335387	-0.000649	-6.485948	-1.098749	-0.000130
1538	1.5293e+02	-9.3832	-67.391907	-0.000284	-2.837602	-0.480703	-0.000057
1539	1.5303e+02	-9.3622	-67.521095	-0.000649	-6.485948	-1.098749	-0.000130
1540	1.5313e+02	-9.3419	-67.617986	-0.000486	-4.864461	-0.824062	-0.000097
1541	1.5323e+02	-9.3219	-67.678544	-0.000304	-3.040288	-0.515039	-0.000061
1542	1.5333e+02	-9.3016	-67.783509	-0.000527	-5.269832	-0.892734	-0.000105
1543	1.5343e+02	-9.2824	-67.799658	-0.000081	-0.810743	-0.137344	-0.000016
1544	1.5353e+02	-9.2624	-67.957106	-0.000790	-7.904749	-1.339101	-0.000158
1545	1.5363e+02	-9.2429	-67.989403	-0.000162	-1.621487	-0.274687	-0.000032
1546	1.5373e+02	-9.2235	-68.049960	-0.000304	-3.040288	-0.515039	-0.000061
1547	1.5383e+02	-9.2023	-68.142814	-0.000466	-4.661775	-0.789726	-0.000093
1548	1.5393e+02	-9.1827	-68.171074	-0.000142	-1.418801	-0.240351	-0.000028
1549	1.5403e+02	-9.1626	-68.243743	-0.000365	-3.648346	-0.618046	-0.000073
1550	1.5413e+02	-9.1440	-68.304300	-0.000304	-3.040288	-0.515039	-0.000061
1551	1.5422e+02	-9.1235	-68.340634	-0.000182	-1.824173	-0.309023	-0.000037
1552	1.5432e+02	-9.1032	-68.409265	-0.000345	-3.445660	-0.583711	-0.000069
1553	1.5442e+02	-9.0820	-68.457711	-0.000243	-2.432230	-0.412031	-0.000049
1554	1.5452e+02	-9.0631	-68.522305	-0.000324	-3.242974	-0.549375	-0.000065
1555	1.5462e+02	-9.0436	-68.570751	-0.000243	-2.432230	-0.412031	-0.000049
1556	1.5472e+02	-9.0233	-68.619196	-0.000243	-2.432230	-0.412031	-0.000049
1557	1.5482e+02	-9.0038	-68.675716	-0.000284	-2.837602	-0.480703	-0.000057
1558	1.5492e+02	-8.9838	-68.643419	0.000162	1.621487	0.274687	0.000032
1559	1.5502e+02	-8.9643	-68.708013	-0.000324	-3.242974	-0.549375	-0.000065
1560	1.5512e+02	-8.9435	-68.720125	-0.000061	-0.608058	-0.103008	-0.000012
1561	1.5522e+02	-8.9233	-68.744347	-0.000122	-1.216115	-0.206015	-0.000024
1562	1.5532e+02	-8.9031	-68.776644	-0.000162	-1.621487	-0.274687	-0.000032
1563	1.5542e+02	-8.8832	-68.804904	-0.000142	-1.418801	-0.240351	-0.000028
1564	1.5552e+02	-8.8646	-68.821053	-0.000081	-0.810743	-0.137344	-0.000016
1565	1.5562e+02	-8.8440	-68.873536	-0.000263	-2.634916	-0.446367	-0.000053
1566	1.5572e+02	-8.8245	-68.861424	0.000061	0.608058	0.103008	0.000012
1567	1.5582e+02	-8.8043	-68.877573	-0.000081	-0.810743	-0.137344	-0.000016
1568	1.5592e+02	-8.7848	-68.926018	-0.000243	-2.432230	-0.412031	-0.000049
1569	1.5602e+02	-8.7642	-68.942167	-0.000081	-0.810743	-0.137344	-0.000016
1570	1.5612e+02	-8.7446	-68.930056	0.000061	0.608058	0.103008	0.000012
1571	1.5622e+02	-8.7253	-68.921981	0.000041	0.405372	0.068672	0.000008
1572	1.5631e+02	-8.7042	-68.930056	-0.000041	-0.405372	-0.068672	-0.000008
1573	1.5641e+02	-8.6847	-68.946204	-0.000081	-0.810743	-0.137344	-0.000016
1574	1.5651e+02	-8.6650	-68.970427	-0.000122	-1.216115	-0.206015	-0.000024
1575	1.5661e+02	-8.6456	-68.958316	0.000061	0.608058	0.103008	0.000012
1576	1.5671e+02	-8.6255	-68.962353	-0.000020	-0.202686	-0.034336	-0.000004
1577	1.5681e+02	-8.6057	-68.950241	0.000061	0.608058	0.103008	0.000012
1578	1.5691e+02	-8.5851	-68.934093	0.000081	0.810743	0.137344	0.000016
1579	1.5701e+02	-8.5645	-68.954278	-0.000101	-1.013429	-0.171680	-0.000020
1580	1.5711e+02	-8.5463	-68.926018	0.000142	1.418801	0.240351	0.000028
1581	1.5721e+02	-8.5260	-68.950241	-0.000122	-1.216115	-0.206015	-0.000024
1582	1.5731e+02	-8.5056	-68.958316	-0.000041	-0.405372	-0.068672	-0.000008
1583	1.5741e+02	-8.4857	-68.913907	0.000223	2.229544	0.377695	0.000045
1584	1.5751e+02	-8.4653	-68.905833	0.000041	0.405372	0.068672	0.000008
1585	1.5761e+02	-8.4456	-68.869499	0.000182	1.824173	0.309023	0.000037
1586	1.5771e+02	-8.4256	-68.893721	-0.000122	-1.216115	-0.206015	-0.000024
1587	1.5781e+02	-8.4064	-68.873536	0.000101	1.013429	0.171680	0.000020
1588	1.5791e+02	-8.3853	-68.889684	-0.000081	-0.810743	-0.137344	-0.000016
1589	1.5801e+02	-8.3659	-68.833164	0.000284	2.837602	0.480703	0.000057
1590	1.5811e+02	-8.3464	-68.833164	0.000000	0.000000	0.000000	0.000000
1591	1.5821e+02	-8.3263	-68.772607	0.000304	3.040288	0.515039	0.000061
1592	1.5830e+02	-8.3072	-68.804904	-0.000162	-1.621487	-0.274687	-0.000032
1593	1.5840e+02	-8.2870	-68.752422	0.000263	2.634916	0.446367	0.000053
1594	1.5850e+02	-8.2666	-68.728199	0.000122	1.216115	0.206015	0.000024
1595	1.5860e+02	-8.2471	-68.724162	0.000020	0.202686	0.034336	0.000004
1596	1.5870e+02	-8.2263	-68.643419	0.000405	4.053717	0.686718	0.000081
1597	1.5880e+02	-8.2078	-68.635345	0.000041	0.405372	0.068672	0.000008
1598	1.5890e+02	-8.1865	-68.647456	-0.000061	-0.608058	-0.103008	-0.000012
1599	1.5900e+02	-8.1665	-68.554602	0.000466	4.661775	0.789726	0.000093
1600	1.5910e+02	-8.1467	-68.558639	-0.000020	-0.202686	-0.034336	-0.000004
1601	1.5920e+02	-8.1297	-68.542491	0.000081	0.810743	0.137344	0.000016
1602	1.5930e+02	-8.1076	-68.498082	0.000223	2.229544	0.377695	0.000045
1603	1.5940e+02	-8.0881	-68.481934	0.000081	0.810743	0.137344	0.000016
1604	1.5950e+02	-8.0672	-68.445599	0.000182	1.824173	0.309023	0.000037
1605	1.5960e+02	-8.0484	-68.376968	0.000345	3.445660	0.583711	0.000069
1606	1.5970e+02	-8.0270	-68.376968	0.000000	0.000000	0.000000	0.000000
1607	1.5980e+02	-8.0078	-68.340634	0.000182	1.824173	0.309023	0.000037
1608	1.5990e+02	-7.9866	-68.280077	0.000304	3.040288	0.515039	0.000061
1609	1.6000e+02	-7.9684	-68.251817	0.000142	1.418801	0.240351	0.000028
1610	1.6010e+02	-7.9477	-68.215483	0.000182	1.824173	0.309023	0.000037
1611	1.6019e+02	-7.9276	-68.203371	0.000061	0.608058	0.103008	0.000012
1612	1.6029e+02	-7.9077	-68.142814	0.000304	3.040288	0.515039	0.000061
1613	1.6039e+02	-7.8873	-68.062071	0.000405	4.053717	0.686718	0.000081
1614	1.6049e+02	-7.8677	-68.049960	0.000061	0.608058	0.103008	0.000012
1615	1.6059e+02	-7.8474	-68.001514	0.000243	2.432230	0.412031	0.000049
1616	1.6069e+02	-7.8278	-67.965180	0.000182	1.824173	0.309023	0.000037
1617	1.6079e+02	-7.8082	-67.916735	0.000243	2.432230	0.412031	0.000049
1618	1.6089e+02	-7.7886	-67.864252	0.000263	2.634916	0.446367	0.000053
1619	1.6099e+02	-7.7701	-67.823880	0.000203	2.026859	0.343359	0.000041
1620	1.6109e+02	-7.7489	-67.767360	0.000284	2.837602	0.480703	0.000057
1621	1.6119e+02	-7.7292	-67.743138	0.000122	1.216115	0.206015	0.000024
1622	1.6129e+02	-7.7094	-67.654321	0.000446	4.459089	0.755390	0.000089
1623	1.6139e+02	-7.6877	-67.670469	-0.000081	-0.810743	-0.137344	-0.000016
1624	1.6149e+02	-7.6684	-67.609912	0.000304	3.040288	0.515039	0.000061
1625	1.6159e+02	-7.6489	-67.565504	0.000223	2.229544	0.377695	0.000045
1626	1.6169e+02	-7.6289	-67.521095	0.000223	2.229544	0.377695	0.000045
1627	1.6179e+02	-7.6086	-67.472650	0.000243	2.432230	0.412031	0.000049
1628	1.6189e+02	-7.5896	-67.408055	0.000324	3.242974	0.549375	0.000065
1629	1.6199e+02	-7.5687	-67.351536	0.000284	2.837602	0.480703	0.000057
1630	1.6209e+02	-7.5500	-67.295016	0.000284	2.837602	0.480703	0.000057
1631	1.6219e+02	-7.5296	-67.222347	0.000365	3.648346	0.618046	0.000073
1632	1.6228e+02	-7.5104	-67.181976	0.000203	2.026859	0.343359	0.000041
1633	1.6238e+02	-7.4905	-67.133530	0.000243	2.432230	0.412031	0.000049
1634	1.6248e+02	-7.4707	-67.085085	0.000243	2.432230	0.412031	0.000049
1635	1.6258e+02	-7.4490	-66.996268	0.000446	4.459089	0.755390	0.000089
1636	1.6268e+02	-7.4304	-66.988193	0.000041	0.405372	0.068672	0.000008
1637	1.6278e+02	-7.4072	-66.923599	0.000324	3.242974	0.549375	0.000065
1638	1.6288e+02	-7.3898	-66.850931	0.000365	3.648346	0.618046	0.000073
1639	1.6298e+02	-7.3708	-66.818634	0.000162	1.621487	0.274687	0.000032
1640	1.6308e+02	-7.3511	-66.778262	0.000203	2.026859	0.343359	0.000041
1641	1.6318e+02	-7.3322	-66.681371	0.000486	4.864461	0.824062	0.000097
1642	1.6328e+02	-7.3102	-66.632925	0.000243	2.432230	0.412031	0.000049
1643	1.6338e+02	-7.2913	-66.580443	0.000263	2.634916	0.446367	0.000053
1644	1.6348e+02	-7.2708	-66.527960	0.000263	2.634916	0.446367	0.000053
1645	1.6358e+02	-7.2502	-66.483551	0.000223	2.229544	0.377695	0.000045
1646	1.6368e+02	-7.2307	-66.410883	0.000365	3.648346	0.618046	0.000073
1647	1.6378e+02	-7.2114	-66.358400	0.000263	2.634916	0.446367	0.000053
1648	1.6388e+02	-7.1918	-66.277657	0.000405	4.053717	0.686718	0.000081
1649	1.6398e+02	-7.1709	-66.233249	0.000223	2.229544	0.377695	0.000045
1650	1.6408e+02	-7.1518	-66.164618	0.000345	3.445660	0.583711	0.000069
1651	1.6418e+02	-7.1312	-66.112135	0.000263	2.634916	0.446367	0.000053
1652	1.6427e+02	-7.1123	-66.055615	0.000284	2.837602	0.480703	0.000057
1653	1.6437e+02	-7.0914	-65.962761	0.000466	4.661775	0.789726	0.000093
1654	1.6447e+02	-7.0711	-65.898167	0.000324	3.242974	0.549375	0.000065
1655	1.6457e+02	-7.0526	-65.853758	0.000223	2.229544	0.377695	0.000045
1656	1.6467e+02	-7.0321	-65.789164	0.000324	3.242974	0.549375	0.000065
1657	1.6477e+02	-7.0113	-65.704384	0.000426	4.256403	0.721054	0.000085
1658	1.6487e+02	-6.9917	-65.647864	0.000284	2.837602	0.480703	0.000057
1659	1.6497e+02	-6.9716	-65.603456	0.000223	2.229544	0.377695	0.000045
1660	1.6507e+02	-6.9513	-65.579233	0.000122	1.216115	0.206015	0.000024
1661	1.6517e+02	-6.9329	-65.498490	0.000405	4.053717	0.686718	0.000081
1662	1.6527e+02	-6.9116	-65.393525	0.000527	5.269832	0.892734	0.000105
1663	1.6537e+02	-6.8924	-65.349116	0.000223	2.229544	0.377695	0.000045
1664	1.6547e+02	-6.8724	-65.264336	0.000426	4.256403	0.721054	0.000085
1665	1.6557e+02	-6.8527	-65.264336	0.000000	0.000000	0.000000	0.000000
1666	1.6567e+02	-6.8329	-65.151297	0.000568	5.675204	0.961406	0.000114
1667	1.6577e+02	-6.8133	-65.098814	0.000263	2.634916	0.446367	0.000053
1668	1.6587e+02	-6.7934	-65.026145	0.000365	3.648346	0.618046	0.000073
1669	1.6597e+02	-6.7709	-64.945403	0.000405	4.053717	0.686718	0.000081
1670	1.6607e+02	-6.7532	-64.856586	0.000446	4.459089	0.755390	0.000089
1671	1.6616e+02	-6.7337	-64.816214	0.000203	2.026859	0.343359	0.000041
1672	1.6626e+02	-6.7122	-64.739509	0.000385	3.851031	0.652382	0.000077
1673	1.6636e+02	-6.6928	-64.666840	0.000365	3.648346	0.618046	0.000073
1674	1.6646e+02	-6.6733	-64.590135	0.000385	3.851031	0.652382	0.000077
1675	1.6656e+02	-6.6530	-64.513429	0.000385	3.851031	0.652382	0.000077
1676	1.6666e+02	-6.6331	-64.485169	0.000142	1.418801	0.240351	0.000028
1677	1.6676e+02	-6.6128	-64.432686	0.000263	2.634916	0.446367	0.000053
1678	1.6686e+02	-6.5944	-64.303498	0.000649	6.485948	1.098749	0.000130
1679	1.6696e+02	-6.5741	-64.251015	0.000263	2.634916	0.446367	0.000053
1680	1.6706e+02	-6.5543	-64.182384	0.000345	3.445660	0.583711	0.000069
1681	1.6716e+02	-6.5335	-64.109716	0.000365	3.648346	0.618046	0.000073
1682	1.6726e+02	-6.5140	-64.049158	0.000304	3.040288	0.515039	0.000061
1683	1.6736e+02	-6.4955	-63.964379	0.000426	4.256403	0.721054	0.000085
1684	1.6746e+02	-6.4739	-63.899784	0.000324	3.242974	0.549375	0.000065
1685	1.6756e+02	-6.4539	-63.843265	0.000284	2.837602	0.480703	0.000057
1686	1.6766e+02	-6.4348	-63.738299	0.000527	5.269832	0.892734	0.000105
1687	1.6776e+02	-6.4139	-63.701965	0.000182	1.824173	0.309023	0.000037
1688	1.6786e+02	-6.3943	-63.629296	0.000365	3.648346	0.618046	0.000073
1689	1.6796e+02	-6.3739	-63.544517	0.000426	4.256403	0.721054	0.000085
1690	1.6806e+02	-6.3547	-63.459737	0.000426	4.256403	0.721054	0.000085
1691	1.6816e+02	-6.3348	-63.387068	0.000365	3.648346	0.618046	0.000073
1692	1.6825e+02	-6.3138	-63.310363	0.000385	3.851031	0.652382	0.000077
1693	1.6835e+02	-6.2949	-63.253843	0.000284	2.837602	0.480703	0.000057
1694	1.6845e+02	-6.2747	-63.225583	0.000142	1.418801	0.240351	0.000028
1695	1.6855e+02	-6.2547	-63.092357	0.000669	6.688633	1.133085	0.000134
1696	1.6865e+02	-6.2350	-63.027763	0.000324	3.242974	0.549375	0.000065
1697	1.6875e+02	-6.2155	-62.942983	0.000426	4.256403	0.721054	0.000085
1698	1.6885e+02	-6.1948	-62.898575	0.000223	2.229544	0.377695	0.000045
1699	1.6895e+02	-6.1752	-62.793609	0.000527	5.269832	0.892734	0.000105
1700	1.6905e+02	-6.1548	-62.712867	0.000405	4.053717	0.686718	0.000081
1701	1.6915e+02	-6.1348	-62.640198	0.000365	3.648346	0.618046	0.000073
1702	1.6925e+02	-6.1153	-62.575604	0.000324	3.242974	0.549375	0.000065
1703	1.6935e+02	-6.0954	-62.466601	0.000547	5.472518	0.927070	0.000110
1704	1.6945e+02	-6.0753	-62.406044	0.000304	3.040288	0.515039	0.000061
1705	1.6955e+02	-6.0548	-62.325302	0.000405	4.053717	0.686718	0.000081
1706	1.6965e+02	-6.0360	-62.268782	0.000284	2.837602	0.480703	0.000057
1707	1.6975e+02	-6.0153	-62.184002	0.000426	4.256403	0.721054	0.000085
1708	1.6985e+02	-5.9962	-62.099222	0.000426	4.256403	0.721054	0.000085
1709	1.6995e+02	-5.9756	-62.010405	0.000446	4.459089	0.755390	0.000089
1710	1.7005e+02	-5.9569	-61.965996	0.000223	2.229544	0.377695	0.000045
1711	1.7015e+02	-5.9355	-61.836808	0.000649	6.485948	1.098749	0.000130
1712	1.7024e+02	-5.9166	-61.772214	0.000324	3.242974	0.549375	0.000065
1713	1.7034e+02	-5.8958	-61.707620	0.000324	3.242974	0.549375	0.000065
1714	1.7044e+02	-5.8765	-61.618803	0.000446	4.459089	0.755390	0.000089
1715	1.7054e+02	-5.8562	-61.598617	0.000101	1.013429	0.171680	0.000020
1716	1.7064e+02	-5.8370	-61.489614	0.000547	5.472518	0.927070	0.000110
1717	1.7074e+02	-5.8160	-61.420983	0.000345	3.445660	0.583711	0.000069
1718	1.7084e+02	-5.7962	-61.320055	0.000507	5.067147	0.858398	0.000101
1719	1.7094e+02	-5.7767	-61.227201	0.000466	4.661775	0.789726	0.000093
1720	1.7104e+02	-5.7563	-61.194904	0.000162	1.621487	0.274687	0.000032
1721	1.7114e+02	-5.7362	-61.077827	0.000588	5.877890	0.995742	0.000118
1722	1.7124e+02	-5.7178	-60.993047	0.000426	4.256403	0.721054	0.000085
1723	1.7134e+02	-5.6964	-60.904230	0.000446	4.459089	0.755390	0.000089
1724	1.7144e+02	-5.6763	-60.863858	0.000203	2.026859	0.343359	0.000041
1725	1.7154e+02	-5.6566	-60.734670	0.000649	6.485948	1.098749	0.000130
1726	1.7164e+02	-5.6369	-60.670076	0.000324	3.242974	0.549375	0.000065
1727	1.7174e+02	-5.6174	-60.585296	0.000426	4.256403	0.721054	0.000085
1728	1.7184e+02	-5.5972	-60.508590	0.000385	3.851031	0.652382	0.000077
1729	1.7194e+02	-5.5774	-60.431885	0.000385	3.851031	0.652382	0.000077
1730	1.7204e+02	-5.5579	-60.359216	0.000365	3.648346	0.618046	0.000073
1731	1.7213e+02	-5.5374	-60.262325	0.000486	4.864461	0.824062	0.000097
1732	1.7223e+02	-5.5171	-60.205805	0.000284	2.837602	0.480703	0.000057
1733	1.7233e+02	-5.4974	-60.076617	0.000649	6.485948	1.098749	0.000130
1734	1.7243e+02	-5.4781	-60.040283	0.000182	1.824173	0.309023	0.000037
1735	1.7253e+02	-5.4580	-59.919169	0.000608	6.080576	1.030077	0.000122
1736	1.7263e+02	-5.4390	-59.830352	0.000446	4.459089	0.755390	0.000089
1737	1.7273e+02	-5.4173	-59.765757	0.000324	3.242974	0.549375	0.000065
1738	1.7283e+02	-5.3983	-59.689052	0.000385	3.851031	0.652382	0.000077
1739	1.7293e+02	-5.3787	-59.559864	0.000649	6.485948	1.098749	0.000130
1740	1.7303e+02	-5.3582	-59.495269	0.000324	3.242974	0.549375	0.000065
1741	1.7313e+02	-5.3378	-59.410490	0.000426	4.256403	0.721054	0.000085
1742	1.7323e+02	-5.3186	-59.337821	0.000365	3.648346	0.618046	0.000073
1743	1.7333e+02	-5.2979	-59.281301	0.000284	2.837602	0.480703	0.000057
1744	1.7343e+02	-5.2788	-59.200558	0.000405	4.053717	0.686718	0.000081
1745	1.7353e+02	-5.2588	-59.111741	0.000446	4.459089	0.755390	0.000089
1746	1.7363e+02	-5.2388	-59.006776	0.000527	5.269832	0.892734	0.000105
1747	1.7373e+02	-5.2180	-58.869513	0.000689	6.891319	1.167421	0.000138
1748	1.7383e+02	-5.1990	-58.865476	0.000020	0.202686	0.034336	0.000004
1749	1.7393e+02	-5.1783	-58.764548	0.000507	5.067147	0.858398	0.000101
1750	1.7403e+02	-5.1582	-58.655545	0.000547	5.472518	0.927070	0.000110
1751	1.7413e+02	-5.1396	-58.526357	0.000649	6.485948	1.098749	0.000130
1752	1.7422e+02	-5.1201	-58.473874	0.000263	2.634916	0.446367	0.000053
1753	1.7432e+02	-5.0987	-58.376983	0.000486	4.864461	0.824062	0.000097
1754	1.7442e+02	-5.0793	-58.300277	0.000385	3.851031	0.652382	0.000077
1755	1.7452e+02	-5.0592	-58.251832	0.000243	2.432230	0.412031	0.000049
1756	1.7462e+02	-5.0391	-58.134755	0.000588	5.877890	0.995742	0.000118
1757	1.7472e+02	-5.0200	-58.041901	0.000466	4.661775	0.789726	0.000093
1758	1.7482e+02	-4.9997	-57.949046	0.000466	4.661775	0.789726	0.000093
1759	1.7492e+02	-4.9796	-57.868304	0.000405	4.053717	0.686718	0.000081
1760	1.7502e+02	-4.9599	-57.763338	0.000527	5.269832	0.892734	0.000105
1761	1.7512e+02	-4.9408	-57.686633	0.000385	3.851031	0.652382	0.000077
1762	1.7522e+02	-4.9199	-57.585704	0.000507	5.067147	0.858398	0.000101
1763	1.7532e+02	-4.9001	-57.504961	0.000405	4.053717	0.686718	0.000081
1764	1.7542e+02	-4.8802	-57.428256	0.000385	3.851031	0.652382	0.000077
1765	1.7552e+02	-4.8607	-57.311179	0.000588	5.877890	0.995742	0.000118
1766	1.7562e+02	-4.8397	-57.286956	0.000122	1.216115	0.206015	0.000024
1767	1.7572e+02	-4.8207	-57.169879	0.000588	5.877890	0.995742	0.000118
1768	1.7582e+02	-4.8004	-57.072988	0.000486	4.864461	0.824062	0.000097
1769	1.7592e+02	-4.7803	-57.000319	0.000365	3.648346	0.618046	0.000073
1770	1.7602e+02	-4.7612	-56.867094	0.000669	6.688633	1.133085	0.000134
1771	1.7612e+02	-4.7414	-56.822686	0.000223	2.229544	0.377695	0.000045
1772	1.7621e+02	-4.7209	-56.725794	0.000486	4.864461	0.824062	0.000097
1773	1.7631e+02	-4.6996	-56.632940	0.000466	4.661775	0.789726	0.000093
1774	1.7641e+02	-4.6805	-56.552197	0.000405	4.053717	0.686718	0.000081
1775	1.7651e+02	-4.6619	-56.443195	0.000547	5.472518	0.927070	0.000110
1776	1.7661e+02	-4.6413	-56.338229	0.000527	5.269832	0.892734	0.000105
1777	1.7671e+02	-4.6202	-56.245375	0.000466	4.661775	0.789726	0.000093
1778	1.7681e+02	-4.6008	-56.164632	0.000405	4.053717	0.686718	0.000081
1779	1.7691e+02	-4.5814	-56.079853	0.000426	4.256403	0.721054	0.000085
1780	1.7701e+02	-4.5612	-55.991036	0.000446	4.459089	0.755390	0.000089
1781	1.7711e+02	-4.5422	-55.882033	0.000547	5.472518	0.927070	0.000110
1782	1.7721e+02	-4.5215	-55.793216	0.000446	4.459089	0.755390	0.000089
1783	1.7731e+02	-4.5015	-55.732659	0.000304	3.040288	0.515039	0.000061
1784	1.7741e+02	-4.4812	-55.587322	0.000730	7.296691	1.236093	0.000146
1785	1.7751e+02	-4.4613	-55.498505	0.000446	4.459089	0.755390	0.000089
1786	1.7761e+02	-4.4418	-55.425837	0.000365	3.648346	0.618046	0.000073
1787	1.7771e+02	-4.4211	-55.308760	0.000588	5.877890	0.995742	0.000118
1788	1.7781e+02	-4.4019	-55.252240	0.000284	2.837602	0.480703	0.000057
1789	1.7791e+02	-4.3820	-55.151311	0.000507	5.067147	0.858398	0.000101
1790	1.7801e+02	-4.3617	-55.058457	0.000466	4.661775	0.789726	0.000093
1791	1.7810e+02	-4.3427	-54.945417	0.000568	5.675204	0.961406	0.000114
1792	1.7820e+02	-4.3221	-54.856600	0.000446	4.459089	0.755390	0.000089
1793	1.7830e+02	-4.3021	-54.763746	0.000466	4.661775	0.789726	0.000093
1794	1.7840e+02	-4.2828	-54.666855	0.000486	4.864461	0.824062	0.000097
1795	1.7850e+02	-4.2624	-54.557852	0.000547	5.472518	0.927070	0.000110
1796	1.7860e+02	-4.2422	-54.473073	0.000426	4.256403	0.721054	0.000085
1797	1.7870e+02	-4.2231	-54.408478	0.000324	3.242974	0.549375	0.000065
1798	1.7880e+02	-4.2027	-54.275253	0.000669	6.688633	1.133085	0.000134
1799	1.7890e+02	-4.1821	-54.194510	0.000405	4.053717	0.686718	0.000081
1800	1.7900e+02	-4.1632	-54.089545	0.000527	5.269832	0.892734	0.000105
1801	1.7910e+02	-4.1438	-54.049173	0.000203	2.026859	0.343359	0.000041
1802	1.7920e+02	-4.1232	-53.887688	0.000811	8.107435	1.373437	0.000162
1803	1.7930e+02	-4.1029	-53.802908	0.000426	4.256403	0.721054	0.000085
1804	1.7940e+02	-4.0831	-53.697942	0.000527	5.269832	0.892734	0.000105
1805	1.7950e+02	-4.0630	-53.609125	0.000446	4.459089	0.755390	0.000089
1806	1.7960e+02	-4.0428	-53.488011	0.000608	6.080576	1.030077	0.000122
1807	1.7970e+02	-4.0228	-53.415343	0.000365	3.648346	0.618046	0.000073
1808	1.7980e+02	-4.0036	-53.374972	0.000203	2.026859	0.343359	0.000041
1809	1.7990e+02	-3.9835	-53.286155	0.000446	4.459089	0.755390	0.000089
1810	1.8000e+02	-3.9640	-53.104483	0.000912	9.120864	1.545116	0.000183
1811	1.8009e+02	-3.9437	-53.043926	0.000304	3.040288	0.515039	0.000061
1812	1.8019e+02	-3.9237	-52.902627	0.000709	7.094005	1.201757	0.000142
1813	1.8029e+02	-3.9034	-52.813810	0.000446	4.459089	0.755390	0.000089
1814	1.8039e+02	-3.8837	-52.724993	0.000446	4.459089	0.755390	0.000089
1815	1.8049e+02	-3.8634	-52.632139	0.000466	4.661775	0.789726	0.000093
1816	1.8059e+02	-3.8441	-52.539284	0.000466	4.661775	0.789726	0.000093
1817	1.8069e+02	-3.8231	-52.454505	0.000426	4.256403	0.721054	0.000085
1818	1.8079e+02	-3.8040	-52.333391	0.000608	6.080576	1.030077	0.000122
1819	1.8089e+02	-3.7834	-52.228425	0.000527	5.269832	0.892734	0.000105
1820	1.8099e+02	-3.7643	-52.131534	0.000486	4.864461	0.824062	0.000097
1821	1.8109e+02	-3.7447	-52.018494	0.000568	5.675204	0.961406	0.000114
1822	1.8119e+02	-3.7241	-51.941788	0.000385	3.851031	0.652382	0.000077
1823	1.8129e+02	-3.7042	-51.840860	0.000507	5.067147	0.858398	0.000101
1824	1.8139e+02	-3.6858	-51.752043	0.000446	4.459089	0.755390	0.000089
1825	1.8149e+02	-3.6655	-51.610743	0.000709	7.094005	1.201757	0.000142
1826	1.8159e+02	-3.6446	-51.562298	0.000243	2.432230	0.412031	0.000049
1827	1.8169e+02	-3.6257	-51.425035	0.000689	6.891319	1.167421	0.000138
1828	1.8179e+02	-3.6047	-51.372552	0.000263	2.634916	0.446367	0.000053
1829	1.8189e+02	-3.5849	-51.227215	0.000730	7.296691	1.236093	0.000146
1830	1.8199e+02	-3.5651	-51.142436	0.000426	4.256403	0.721054	0.000085
1831	1.8209e+02	-3.5449	-51.033433	0.000547	5.472518	0.927070	0.000110
1832	1.8218e+02	-3.5252	-50.924430	0.000547	5.472518	0.927070	0.000110
1833	1.8228e+02	-3.5054	-50.823502	0.000507	5.067147	0.858398	0.000101
1834	1.8238e+02	-3.4855	-50.730648	0.000466	4.661775	0.789726	0.000093
1835	1.8248e+02	-3.4657	-50.637794	0.000466	4.661775	0.789726	0.000093
1836	1.8258e+02	-3.4456	-50.532828	0.000527	5.269832	0.892734	0.000105
1837	1.8268e+02	-3.4251	-50.411714	0.000608	6.080576	1.030077	0.000122
1838	1.8278e+02	-3.4059	-50.306748	0.000527	5.269832	0.892734	0.000105
1839	1.8288e+02	-3.3868	-50.197746	0.000547	5.472518	0.927070	0.000110
1840	1.8298e+02	-3.3664	-50.125077	0.000365	3.648346	0.618046	0.000073
1841	1.8308e+02	-3.3464	-49.995889	0.000649	6.485948	1.098749	0.000130
1842	1.8318e+02	-3.3263	-49.854589	0.000709	7.094005	1.201757	0.000142
1843	1.8328e+02	-3.3064	-49.769809	0.000426	4.256403	0.721054	0.000085
1844	1.8338e+02	-3.2860	-49.697141	0.000365	3.648346	0.618046	0.000073
1845	1.8348e+02	-3.2661	-49.600250	0.000486	4.864461	0.824062	0.000097
1846	1.8358e+02	-3.2463	-49.491247	0.000547	5.472518	0.927070	0.000110
1847	1.8368e+02	-3.2265	-49.386281	0.000527	5.269832	0.892734	0.000105
1848	1.8378e+02	-3.2062	-49.277279	0.000547	5.472518	0.927070	0.000110
1849	1.8388e+02	-3.1861	-49.160202	0.000588	5.877890	0.995742	0.000118
1850	1.8398e+02	-3.1664	-49.031014	0.000649	6.485948	1.098749	0.000130
1851	1.8407e+02	-3.1471	-48.962382	0.000345	3.445660	0.583711	0.000069
1852	1.8417e+02	-3.1268	-48.873565	0.000446	4.459089	0.755390	0.000089
1853	1.8427e+02	-3.1067	-48.736303	0.000689	6.891319	1.167421	0.000138
1854	1.8437e+02	-3.0870	-48.619226	0.000588	5.877890	0.995742	0.000118
1855	1.8447e+02	-3.0665	-48.538483	0.000405	4.053717	0.686718	0.000081
1856	1.8457e+02	-3.0478	-48.453703	0.000426	4.256403	0.721054	0.000085
1857	1.8467e+02	-3.0267	-48.336626	0.000588	5.877890	0.995742	0.000118
1858	1.8477e+02	-3.0080	-48.199364	0.000689	6.891319	1.167421	0.000138
1859	1.8487e+02	-2.9869	-48.106509	0.000466	4.661775	0.789726	0.000093
1860	1.8497e+02	-2.9666	-48.005581	0.000507	5.067147	0.858398	0.000101
1861	1.8507e+02	-2.9477	-47.896578	0.000547	5.472518	0.927070	0.000110
1862	1.8517e+02	-2.9280	-47.803724	0.000466	4.661775	0.789726	0.000093
1863	1.8527e+02	-2.9073	-47.706833	0.000486	4.864461	0.824062	0.000097
1864	1.8537e+02	-2.8879	-47.601867	0.000527	5.269832	0.892734	0.000105
1865	1.8547e+02	-2.8680	-47.452493	0.000750	7.499377	1.270429	0.000150
1866	1.8557e+02	-2.8477	-47.359639	0.000466	4.661775	0.789726	0.000093
1867	1.8567e+02	-2.8276	-47.234488	0.000628	6.283262	1.064413	0.000126
1868	1.8577e+02	-2.8088	-47.169894	0.000324	3.242974	0.549375	0.000065
1869	1.8587e+02	-2.7883	-47.040706	0.000649	6.485948	1.098749	0.000130
1870	1.8597e+02	-2.7670	-46.931703	0.000547	5.472518	0.927070	0.000110
1871	1.8606e+02	-2.7486	-46.778292	0.000770	7.702063	1.304765	0.000154
1872	1.8616e+02	-2.7286	-46.701586	0.000385	3.851031	0.652382	0.000077
1873	1.8626e+02	-2.7085	-46.588546	0.000568	5.675204	0.961406	0.000114
1874	1.8636e+02	-2.6883	-46.499729	0.000446	4.459089	0.755390	0.000089
1875	1.8646e+02	-2.6685	-46.398801	0.000507	5.067147	0.858398	0.000101
1876	1.8656e+02	-2.6486	-46.301910	0.000486	4.864461	0.824062	0.000097
1877	1.8666e+02	-2.6282	-46.152536	0.000750	7.499377	1.270429	0.000150
1878	1.8676e+02	-2.6089	-46.039496	0.000568	5.675204	0.961406	0.000114
1879	1.8686e+02	-2.5883	-45.934530	0.000527	5.269832	0.892734	0.000105
1880	1.8696e+02	-2.5690	-45.813416	0.000608	6.080576	1.030077	0.000122
1881	1.8706e+02	-2.5484	-45.756896	0.000284	2.837602	0.480703	0.000057
1882	1.8716e+02	-2.5294	-45.639820	0.000588	5.877890	0.995742	0.000118
1883	1.8726e+02	-2.5089	-45.510631	0.000649	6.485948	1.098749	0.000130
1884	1.8736e+02	-2.4898	-45.361257	0.000750	7.499377	1.270429	0.000150
1885	1.8746e+02	-2.4692	-45.308774	0.000263	2.634916	0.446367	0.000053
1886	1.8756e+02	-2.4497	-45.179586	0.000649	6.485948	1.098749	0.000130
1887	1.8766e+02	-2.4294	-45.034249	0.000730	7.296691	1.236093	0.000146
1888	1.8776e+02	-2.4098	-44.965618	0.000345	3.445660	0.583711	0.000069
1889	1.8786e+02	-2.3907	-44.824318	0.000709	7.094005	1.201757	0.000142
1890	1.8796e+02	-2.3712	-44.711278	0.000568	5.675204	0.961406	0.000114
1891	1.8806e+02	-2.3504	-44.610350	0.000507	5.067147	0.858398	0.000101
1892	1.8815e+02	-2.3312	-44.485199	0.000628	6.283262	1.064413	0.000126
1893	1.8825e+02	-2.3099	-44.351973	0.000669	6.688633	1.133085	0.000134
1894	1.8835e+02	-2.2906	-44.287379	0.000324	3.242974	0.549375	0.000065
1895	1.8845e+02	-2.2702	-44.158191	0.000649	6.485948	1.098749	0.000130
1896	1.8855e+02	-2.2507	-44.020928	0.000689	6.891319	1.167421	0.000138
1897	1.8865e+02	-2.2330	-43.920000	0.000507	5.067147	0.858398	0.000101
1898	1.8875e+02	-2.2110	-43.806960	0.000568	5.675204	0.961406	0.000114
1899	1.8885e+02	-2.1906	-43.726217	0.000405	4.053717	0.686718	0.000081
1900	1.8895e+02	-2.1718	-43.597029	0.000649	6.485948	1.098749	0.000130
1901	1.8905e+02	-2.1513	-43.467840	0.000649	6.485948	1.098749	0.000130
1902	1.8915e+02	-2.1306	-43.387098	0.000405	4.053717	0.686718	0.000081
1903	1.8925e+02	-2.1114	-43.278095	0.000547	5.472518	0.927070	0.000110
1904	1.8935e+02	-2.0908	-43.128721	0.000750	7.499377	1.270429	0.000150
1905	1.8945e+02	-2.0709	-43.043941	0.000426	4.256403	0.721054	0.000085
1906	1.8955e+02	-2.0511	-42.910716	0.000669	6.688633	1.133085	0.000134
1907	1.8965e+02	-2.0309	-42.781527	0.000649	6.485948	1.098749	0.000130
1908	1.8975e+02	-2.0119	-42.656376	0.000628	6.283262	1.064413	0.000126
1909	1.8985e+02	-1.9903	-42.583708	0.000365	3.648346	0.618046	0.000073
1910	1.8995e+02	-1.9717	-42.410111	0.000872	8.715492	1.476444	0.000174
1911	1.9004e+02	-1.9515	-42.325331	0.000426	4.256403	0.721054	0.000085
1912	1.9014e+02	-1.9303	-42.212291	0.000568	5.675204	0.961406	0.000114
1913	1.9024e+02	-1.9118	-42.091177	0.000608	6.080576	1.030077	0.000122
1914	1.9034e+02	-1.8916	-41.966026	0.000628	6.283262	1.064413	0.000126
1915	1.9044e+02	-1.8717	-41.901432	0.000324	3.242974	0.549375	0.000065
1916	1.9054e+02	-1.8514	-41.743984	0.000790	7.904749	1.339101	0.000158
1917	1.9064e+02	-1.8317	-41.655167	0.000446	4.459089	0.755390	0.000089
1918	1.9074e+02	-1.8140	-41.521941	0.000669	6.688633	1.133085	0.000134
1919	1.9084e+02	-1.7923	-41.376604	0.000730	7.296691	1.236093	0.000146
1920	1.9094e+02	-1.7717	-41.316047	0.000304	3.040288	0.515039	0.000061
1921	1.9104e+02	-1.7515	-41.211082	0.000527	5.269832	0.892734	0.000105
1922	1.9114e+02	-1.7319	-41.061708	0.000750	7.499377	1.270429	0.000150
1923	1.9124e+02	-1.7124	-40.920408	0.000709	7.094005	1.201757	0.000142
1924	1.9134e+02	-1.6928	-40.811405	0.000547	5.472518	0.927070	0.000110
1925	1.9144e+02	-1.6725	-40.702403	0.000547	5.472518	0.927070	0.000110
1926	1.9154e+02	-1.6528	-40.605511	0.000486	4.864461	0.824062	0.000097
1927	1.9164e+02	-1.6335	-40.484397	0.000608	6.080576	1.030077	0.000122
1928	1.9174e+02	-1.6116	-40.347135	0.000689	6.891319	1.167421	0.000138
1929	1.9184e+02	-1.5932	-40.213909	0.000669	6.688633	1.133085	0.000134
1930	1.9194e+02	-1.5724	-40.117018	0.000486	4.864461	0.824062	0.000097
1931	1.9203e+02	-1.5530	-40.003978	0.000568	5.675204	0.961406	0.000114
1932	1.9213e+02	-1.5337	-39.899012	0.000527	5.269832	0.892734	0.000105
1933	1.9223e+02	-1.5125	-39.761750	0.000689	6.891319	1.167421	0.000138
1934	1.9233e+02	-1.4928	-39.668896	0.000466	4.661775	0.789726	0.000093
1935	1.9243e+02	-1.4735	-39.531633	0.000689	6.891319	1.167421	0.000138
1936	1.9253e+02	-1.4532	-39.426668	0.000527	5.269832	0.892734	0.000105
1937	1.9263e+02	-1.4335	-39.305554	0.000608	6.080576	1.030077	0.000122
1938	1.9273e+02	-1.4126	-39.180402	0.000628	6.283262	1.064413	0.000126
1939	1.9283e+02	-1.3924	-39.047177	0.000669	6.688633	1.133085	0.000134
1940	1.9293e+02	-1.3737	-38.905877	0.000709	7.094005	1.201757	0.000142
1941	1.9303e+02	-1.3545	-38.845320	0.000304	3.040288	0.515039	0.000061
1942	1.9313e+02	-1.3335	-38.675760	0.000851	8.512806	1.442108	0.000170
1943	1.9323e+02	-1.3147	-38.635389	0.000203	2.026859	0.343359	0.000041
1944	1.9333e+02	-1.2936	-38.437569	0.000993	9.931607	1.682460	0.000199
1945	1.9343e+02	-1.2745	-38.300307	0.000689	6.891319	1.167421	0.000138
1946	1.9353e+02	-1.2546	-38.231675	0.000345	3.445660	0.583711	0.000069
1947	1.9363e+02	-1.2342	-38.130747	0.000507	5.067147	0.858398	0.000101
1948	1.9373e+02	-1.2155	-38.005596	0.000628	6.283262	1.064413	0.000126
1949	1.9383e+02	-1.1945	-37.868333	0.000689	6.891319	1.167421	0.000138
1950	1.9393e+02	-1.1749	-37.763368	0.000527	5.269832	0.892734	0.000105
1951	1.9403e+02	-1.1554	-37.622068	0.000709	7.094005	1.201757	0.000142
1952	1.9412e+02	-1.1355	-37.496917	0.000628	6.283262	1.064413	0.000126
1953	1.9422e+02	-1.1203	-37.379840	0.000588	5.877890	0.995742	0.000118
1954	1.9432e+02	-1.0950	-37.282949	0.000486	4.864461	0.824062	0.000097
1955	1.9442e+02	-1.0756	-37.177983	0.000527	5.269832	0.892734	0.000105
1956	1.9452e+02	-1.0546	-37.056869	0.000608	6.080576	1.030077	0.000122
1957	1.9462e+02	-1.0346	-36.899421	0.000790	7.904749	1.339101	0.000158
1958	1.9472e+02	-1.0158	-36.814641	0.000426	4.256403	0.721054	0.000085
1959	1.9482e+02	-0.9944	-36.673341	0.000709	7.094005	1.201757	0.000142
1960	1.9492e+02	-0.9753	-36.552227	0.000608	6.080576	1.030077	0.000122
1961	1.9502e+02	-0.9555	-36.459373	0.000466	4.661775	0.789726	0.000093
1962	1.9512e+02	-0.9357	-36.318073	0.000709	7.094005	1.201757	0.000142
1963	1.9522e+02	-0.9159	-36.196959	0.000608	6.080576	1.030077	0.000122
1964	1.9532e+02	-0.8955	-36.075845	0.000608	6.080576	1.030077	0.000122
1965	1.9542e+02	-0.8764	-35.942619	0.000669	6.688633	1.133085	0.000134
1966	1.9552e+02	-0.8566	-35.805357	0.000689	6.891319	1.167421	0.000138
1967	1.9562e+02	-0.8365	-35.700391	0.000527	5.269832	0.892734	0.000105
1968	1.9572e+02	-0.8160	-35.591389	0.000547	5.472518	0.927070	0.000110
1969	1.9582e+02	-0.7950	-35.478349	0.000568	5.675204	0.961406	0.000114
1970	1.9592e+02	-0.7759	-35.389532	0.000446	4.459089	0.755390	0.000089
1971	1.9601e+02	-0.7568	-35.211898	0.000892	8.918178	1.510780	0.000179
1972	1.9611e+02	-0.7359	-35.070598	0.000709	7.094005	1.201757	0.000142
1973	1.9621e+02	-0.7163	-34.977744	0.000466	4.661775	0.789726	0.000093
1974	1.9631e+02	-0.6968	-34.848556	0.000649	6.485948	1.098749	0.000130
1975	1.9641e+02	-0.6763	-34.719367	0.000649	6.485948	1.098749	0.000130
1976	1.9651e+02	-0.6572	-34.590179	0.000649	6.485948	1.098749	0.000130
1977	1.9661e+02	-0.6355	-34.489251	0.000507	5.067147	0.858398	0.000101
1978	1.9671e+02	-0.6166	-34.384285	0.000527	5.269832	0.892734	0.000105
1979	1.9681e+02	-0.5968	-34.251060	0.000669	6.688633	1.133085	0.000134
1980	1.9691e+02	-0.5779	-34.146094	0.000527	5.269832	0.892734	0.000105
1981	1.9701e+02	-0.5569	-34.008831	0.000689	6.891319	1.167421	0.000138
1982	1.9711e+02	-0.5374	-33.887717	0.000608	6.080576	1.030077	0.000122
1983	1.9721e+02	-0.5167	-33.778715	0.000547	5.472518	0.927070	0.000110
1984	1.9731e+02	-0.4981	-33.665675	0.000568	5.675204	0.961406	0.000114
1985	1.9741e+02	-0.4771	-33.524375	0.000709	7.094005	1.201757	0.000142
1986	1.9751e+02	-0.4574	-33.395187	0.000649	6.485948	1.098749	0.000130
1987	1.9761e+02	-0.4377	-33.286184	0.000547	5.472518	0.927070	0.000110
1988	1.9771e+02	-0.4167	-33.116624	0.000851	8.512806	1.442108	0.000170
1989	1.9781e+02	-0.3973	-33.019733	0.000486	4.864461	0.824062	0.000097
1990	1.9791e+02	-0.3774	-32.886508	0.000669	6.688633	1.133085	0.000134
1991	1.9800e+02	-0.3576	-32.797691	0.000446	4.459089	0.755390	0.000089
1992	1.9810e+02	-0.3380	-32.672540	0.000628	6.283262	1.064413	0.000126
1993	1.9820e+02	-0.3167	-32.531240	0.000709	7.094005	1.201757	0.000142
1994	1.9830e+02	-0.2979	-32.438386	0.000466	4.661775	0.789726	0.000093
1995	1.9840e+02	-0.2777	-32.272863	0.000831	8.310120	1.407773	0.000166
1996	1.9850e+02	-0.2585	-32.175972	0.000486	4.864461	0.824062	0.000097
1997	1.9860e+02	-0.2380	-32.038709	0.000689	6.891319	1.167421	0.000138
1998	1.9870e+02	-0.2180	-31.905484	0.000669	6.688633	1.133085	0.000134
1999	1.9880e+02	-0.1978	-31.808592	0.000486	4.864461	0.824062	0.000097
2000	1.9890e+02	-0.1779	-31.675367	0.000669	6.688633	1.133085	0.000134
2001	1.9900e+02	-0.1582	-31.554253	0.000608	6.080576	1.030077	0.000122
2002	1.9910e+02	-0.1383	-31.461399	0.000466	4.661775	0.789726	0.000093
2003	1.9920e+02	-0.1189	-31.291839	0.000851	8.512806	1.442108	0.000170
2004	1.9930e+02	-0.0988	-31.211096	0.000405	4.053717	0.686718	0.000081
2005	1.9940e+02	-0.0785	-31.085945	0.000628	6.283262	1.064413	0.000126
2006	1.9950e+02	-0.0586	-30.964831	0.000608	6.080576	1.030077	0.000122
2007	1.9960e+02	-0.0390	-30.827568	0.000689	6.891319	1.167421	0.000138
2008	1.9970e+02	-0.0182	-30.694343	0.000669	6.688633	1.133085	0.000134
2009	1.9980e+02	-0.0004	-30.589377	0.000669	6.688633	1.133085	0.000105

PMax (uC/cm2):	5.28e+01
Pr (uC/cm2):	1.07e+01
-Pr (uC/cm2):	-4.67e+01
PLoss (uC/cm2):	-4.68e+01
-Vc:	-1.73e+00
C (Max-Eff) (nF):	5.28e-01
K (Eff):	8.94e+02
Vert. (+/-Pr) Shift (uC/cm2):	-1.80e+01
Offset (uC/cm2):	-1.62e+01

A (Loop Area - uC/cm2·Volts):	-3.07e-01



Hysteresis Version: 5.48.1 - Radiant Technologies, Inc., 1999 - 9/12/24

