»»»»»»»»»»»»»»»»»»»»»»»»»»»»»»»»»»»» Hysteresis ««««««««««««««««««««««««««««««««««««
»»»  Executed Version:	5.48.1
»»»  Vision Version:	5.48.4 (R)
»»»  Vision Compiled:	9/18/24
»»»  Driver Version:	5.47.0
»»»  Windows Version:	Windows 8 or 8.1
»»»  Processor Information:	x86 (AMD or Intel) - 32 Processors
»»»  Tester Name:	PMF21124-494 (100V)
»»»  Tester S/N:	PMF21124-494
»»»  Internal Amp Type:	100V RevK 270k
»»»  Internal Amp S/N:	iAB2-596/K     
»»»  Execution Count:	1
»»»»»»»»»»»»»»»»»»»»»»»»»»»»»»»»»»»»»»»»»»««««««««««««««««««««««««««««««««««««««««««

Stored:	7/3/2025 - 12:25:12
Configured:	07/03/25 12:01:19 PM
Executed:	07/03/25 12:24:40 PM

»»»»»»»»»»»»»»»»»»»»»»»»»»»»»»»»»»» Sample Info ««««««««««««««««««««««««««««««««««««
Sample Name:	
Lot Name:	
Wafer Name:	
Die Row/Column:	0/0
Capacitor Number:	0
Sample Area (cm2):	1.00e-04
Sample Thickness (microns):	1.50e-01

Amplifier:	Internal

»»»»»»»»»»»»»»»»»»»»»»»»»»»»»»»»»»» Tester Info «««««««««««««««««««««««««««««««««««
Tester Name:	PMF21124-494 (100V)
Tester Serial Number:	PMF21124-494
Return Signal Amp. Level:	0.19 [Index: 3]

»»»»»»»»»»»»»»»»»»»»»»»»»»»»»»»» Hysteresis Info ««««««««««««««««««««««««««««««««««
Task Name:	Hyst-410
Volts:	10.00
Field:	666.67 (kV/cm)
DCBias:	0.00
DCField:	0.00 (kV/cm)
Hysteresis Period (ms):	2.00e+02
Preset:	Enabled
Preset Delay (ms):	1.00e+03
Profile:	Standard Bipolar

»»»»»»»»»»»»»»»»»»»»»»»»»»»»»»»»»»»»»» Data «««««««««««««««««««««««««««««««««««««««
Points:	2009

Valid Data

Point	Time (ms)	Drive Voltage	Measured Polarization (uC/cm2)	Capacitance (uF)	Normalized Capacitance (uF/cm2)	Dielectric Constant	Instantaneous Current (mA)
   1	0.0000e+00	0.0006	21.873201	0.000649	6.485131	1.098611	0.000130
   2	9.9500e-02	0.0199	22.002390	0.000649	6.485131	1.098611	0.000130
   3	1.9900e-01	0.0402	22.103318	0.000507	5.066509	0.858290	0.000101
   4	2.9850e-01	0.0597	22.264804	0.000811	8.106414	1.373264	0.000162
   5	3.9800e-01	0.0796	22.402066	0.000689	6.890452	1.167274	0.000138
   6	4.9750e-01	0.1006	22.511069	0.000547	5.471829	0.926953	0.000110
   7	5.9700e-01	0.1196	22.672554	0.000811	8.106414	1.373264	0.000162
   8	6.9650e-01	0.1395	22.797706	0.000628	6.282471	1.064279	0.000126
   9	7.9600e-01	0.1588	22.922857	0.000628	6.282471	1.064279	0.000126
  10	8.9550e-01	0.1794	23.039934	0.000588	5.877150	0.995616	0.000118
  11	9.9500e-01	0.1987	23.205456	0.000831	8.309074	1.407595	0.000166
  12	1.0945e+00	0.2190	23.358867	0.000770	7.701093	1.304601	0.000154
  13	1.1940e+00	0.2392	23.463833	0.000527	5.269169	0.892621	0.000105
  14	1.2935e+00	0.2596	23.617244	0.000770	7.701093	1.304601	0.000154
  15	1.3930e+00	0.2786	23.738358	0.000608	6.079810	1.029948	0.000122
  16	1.4925e+00	0.2981	23.899844	0.000811	8.106414	1.373264	0.000162
  17	1.5920e+00	0.3187	24.041143	0.000709	7.093112	1.201606	0.000142
  18	1.6915e+00	0.3398	24.170332	0.000649	6.485131	1.098611	0.000130
  19	1.7910e+00	0.3582	24.311631	0.000709	7.093112	1.201606	0.000142
  20	1.8905e+00	0.3780	24.444857	0.000669	6.687792	1.132943	0.000134
  21	1.9900e+00	0.3979	24.565971	0.000608	6.079810	1.029948	0.000122
  22	2.0895e+00	0.4192	24.743605	0.000892	8.917055	1.510590	0.000179
  23	2.1890e+00	0.4378	24.844533	0.000507	5.066509	0.858290	0.000101
  24	2.2885e+00	0.4584	25.006019	0.000811	8.106414	1.373264	0.000162
  25	2.3880e+00	0.4793	25.183653	0.000892	8.917055	1.510590	0.000179
  26	2.4875e+00	0.4978	25.268433	0.000426	4.255867	0.720963	0.000085
  27	2.5870e+00	0.5183	25.389547	0.000608	6.079810	1.029948	0.000122
  28	2.6865e+00	0.5384	25.555069	0.000831	8.309074	1.407595	0.000166
  29	2.7860e+00	0.5581	25.672146	0.000588	5.877150	0.995616	0.000118
  30	2.8855e+00	0.5779	25.821520	0.000750	7.498433	1.270269	0.000150
  31	2.9850e+00	0.5980	26.019340	0.000993	9.930357	1.682248	0.000199
  32	3.0845e+00	0.6184	26.112194	0.000466	4.661188	0.789627	0.000093
  33	3.1840e+00	0.6382	26.249457	0.000689	6.890452	1.167274	0.000138
  34	3.2835e+00	0.6571	26.398831	0.000750	7.498433	1.270269	0.000150
  35	3.3830e+00	0.6789	26.552242	0.000770	7.701093	1.304601	0.000154
  36	3.4825e+00	0.6975	26.685467	0.000669	6.687792	1.132943	0.000134
  37	3.5820e+00	0.7179	26.850990	0.000831	8.309074	1.407595	0.000166
  38	3.6815e+00	0.7373	26.972104	0.000608	6.079810	1.029948	0.000122
  39	3.7810e+00	0.7574	27.097255	0.000628	6.282471	1.064279	0.000126
  40	3.8805e+00	0.7776	27.246629	0.000750	7.498433	1.270269	0.000150
  41	3.9800e+00	0.7973	27.391966	0.000730	7.295773	1.235937	0.000146
  42	4.0795e+00	0.8169	27.533266	0.000709	7.093112	1.201606	0.000142
  43	4.1790e+00	0.8369	27.682640	0.000750	7.498433	1.270269	0.000150
  44	4.2785e+00	0.8571	27.823940	0.000709	7.093112	1.201606	0.000142
  45	4.3780e+00	0.8773	27.965239	0.000709	7.093112	1.201606	0.000142
  46	4.4775e+00	0.8963	28.114613	0.000750	7.498433	1.270269	0.000150
  47	4.5770e+00	0.9173	28.255913	0.000709	7.093112	1.201606	0.000142
  48	4.6765e+00	0.9373	28.385101	0.000649	6.485131	1.098611	0.000130
  49	4.7760e+00	0.9566	28.498141	0.000567	5.674490	0.961285	0.000114
  50	4.8755e+00	0.9772	28.679812	0.000912	9.119716	1.544922	0.000183
  51	4.9750e+00	0.9960	28.780741	0.000507	5.066509	0.858290	0.000101
  52	5.0745e+00	1.0166	28.942226	0.000811	8.106414	1.373264	0.000162
  53	5.1740e+00	1.0363	29.079489	0.000689	6.890452	1.167274	0.000138
  54	5.2735e+00	1.0572	29.228863	0.000750	7.498433	1.270269	0.000150
  55	5.3730e+00	1.0770	29.366125	0.000689	6.890452	1.167274	0.000138
  56	5.4725e+00	1.0958	29.531648	0.000831	8.309074	1.407595	0.000166
  57	5.5720e+00	1.1168	29.672948	0.000709	7.093112	1.201606	0.000142
  58	5.6715e+00	1.1366	29.834433	0.000811	8.106414	1.373264	0.000162
  59	5.7710e+00	1.1572	29.951510	0.000588	5.877150	0.995616	0.000118
  60	5.8705e+00	1.1765	30.133181	0.000912	9.119716	1.544922	0.000183
  61	5.9700e+00	1.1962	30.274481	0.000709	7.093112	1.201606	0.000142
  62	6.0695e+00	1.2162	30.375409	0.000507	5.066509	0.858290	0.000101
  63	6.1690e+00	1.2356	30.536895	0.000811	8.106414	1.373264	0.000162
  64	6.2685e+00	1.2560	30.706454	0.000851	8.511735	1.441927	0.000170
  65	6.3680e+00	1.2755	30.819494	0.000567	5.674490	0.961285	0.000114
  66	6.4675e+00	1.2957	30.944645	0.000628	6.282471	1.064279	0.000126
  67	6.5670e+00	1.3147	31.102094	0.000790	7.903754	1.338932	0.000158
  68	6.6665e+00	1.3348	31.271653	0.000851	8.511735	1.441927	0.000170
  69	6.7660e+00	1.3552	31.412953	0.000709	7.093112	1.201606	0.000142
  70	6.8655e+00	1.3749	31.534067	0.000608	6.079810	1.029948	0.000122
  71	6.9650e+00	1.3957	31.711701	0.000892	8.917055	1.510590	0.000179
  72	7.0645e+00	1.4141	31.836852	0.000628	6.282471	1.064279	0.000126
  73	7.1640e+00	1.4344	31.945855	0.000547	5.471829	0.926953	0.000110
  74	7.2635e+00	1.4536	32.103303	0.000790	7.903754	1.338932	0.000158
  75	7.3630e+00	1.4748	32.256715	0.000770	7.701093	1.304601	0.000154
  76	7.4625e+00	1.4940	32.385903	0.000649	6.485131	1.098611	0.000130
  77	7.5620e+00	1.5140	32.523166	0.000689	6.890452	1.167274	0.000138
  78	7.6615e+00	1.5340	32.712911	0.000953	9.525036	1.613585	0.000191
  79	7.7610e+00	1.5543	32.825951	0.000567	5.674490	0.961285	0.000114
  80	7.8605e+00	1.5729	32.963213	0.000689	6.890452	1.167274	0.000138
  81	7.9600e+00	1.5949	33.132773	0.000851	8.511735	1.441927	0.000170
  82	8.0595e+00	1.6139	33.286184	0.000770	7.701093	1.304601	0.000154
  83	8.1590e+00	1.6335	33.403261	0.000588	5.877150	0.995616	0.000118
  84	8.2585e+00	1.6541	33.552635	0.000750	7.498433	1.270269	0.000150
  85	8.3580e+00	1.6732	33.693935	0.000709	7.093112	1.201606	0.000142
  86	8.4575e+00	1.6943	33.851383	0.000790	7.903754	1.338932	0.000158
  87	8.5570e+00	1.7131	33.960386	0.000547	5.471829	0.926953	0.000110
  88	8.6565e+00	1.7339	34.129946	0.000851	8.511735	1.441927	0.000170
  89	8.7560e+00	1.7545	34.259134	0.000649	6.485131	1.098611	0.000130
  90	8.8555e+00	1.7731	34.436768	0.000892	8.917055	1.510590	0.000179
  91	8.9550e+00	1.7942	34.578068	0.000709	7.093112	1.201606	0.000142
  92	9.0545e+00	1.8134	34.683033	0.000527	5.269169	0.892621	0.000105
  93	9.1540e+00	1.8332	34.856630	0.000871	8.714395	1.476258	0.000174
  94	9.2535e+00	1.8533	35.001967	0.000730	7.295773	1.235937	0.000146
  95	9.3530e+00	1.8738	35.106932	0.000527	5.269169	0.892621	0.000105
  96	9.4525e+00	1.8932	35.268418	0.000811	8.106414	1.373264	0.000162
  97	9.5520e+00	1.9132	35.401643	0.000669	6.687792	1.132943	0.000134
  98	9.6515e+00	1.9333	35.551017	0.000750	7.498433	1.270269	0.000150
  99	9.7510e+00	1.9534	35.744800	0.000973	9.727697	1.647916	0.000195
 100	9.8505e+00	1.9723	35.865914	0.000608	6.079810	1.029948	0.000122
 101	9.9500e+00	1.9918	36.015288	0.000750	7.498433	1.270269	0.000150
 102	1.0050e+01	2.0119	36.148513	0.000669	6.687792	1.132943	0.000134
 103	1.0149e+01	2.0317	36.322110	0.000871	8.714395	1.476258	0.000174
 104	1.0248e+01	2.0522	36.423039	0.000507	5.066509	0.858290	0.000101
 105	1.0348e+01	2.0715	36.576450	0.000770	7.701093	1.304601	0.000154
 106	1.0447e+01	2.0921	36.733898	0.000790	7.903754	1.338932	0.000158
 107	1.0547e+01	2.1122	36.867124	0.000669	6.687792	1.132943	0.000134
 108	1.0646e+01	2.1315	37.016498	0.000750	7.498433	1.270269	0.000150
 109	1.0746e+01	2.1519	37.141649	0.000628	6.282471	1.064279	0.000126
 110	1.0845e+01	2.1716	37.299097	0.000790	7.903754	1.338932	0.000158
 111	1.0945e+01	2.1918	37.432323	0.000669	6.687792	1.132943	0.000134
 112	1.1044e+01	2.2117	37.597845	0.000831	8.309074	1.407595	0.000166
 113	1.1144e+01	2.2358	37.755293	0.000790	7.903754	1.338932	0.000158
 114	1.1243e+01	2.2526	37.896593	0.000709	7.093112	1.201606	0.000142
 115	1.1343e+01	2.2720	38.041930	0.000730	7.295773	1.235937	0.000146
 116	1.1443e+01	2.2917	38.154970	0.000567	5.674490	0.961285	0.000114
 117	1.1542e+01	2.3112	38.292232	0.000689	6.890452	1.167274	0.000138
 118	1.1642e+01	2.3316	38.473904	0.000912	9.119716	1.544922	0.000183
 119	1.1741e+01	2.3520	38.611166	0.000689	6.890452	1.167274	0.000138
 120	1.1841e+01	2.3717	38.736317	0.000628	6.282471	1.064279	0.000126
 121	1.1940e+01	2.3908	38.881654	0.000730	7.295773	1.235937	0.000146
 122	1.2040e+01	2.4114	39.091585	0.001054	10.538338	1.785243	0.000211
 123	1.2139e+01	2.4316	39.200588	0.000547	5.471829	0.926953	0.000110
 124	1.2239e+01	2.4500	39.353999	0.000770	7.701093	1.304601	0.000154
 125	1.2338e+01	2.4713	39.511447	0.000790	7.903754	1.338932	0.000158
 126	1.2438e+01	2.4920	39.624487	0.000567	5.674490	0.961285	0.000114
 127	1.2537e+01	2.5109	39.773861	0.000750	7.498433	1.270269	0.000150
 128	1.2636e+01	2.5311	39.947458	0.000871	8.714395	1.476258	0.000174
 129	1.2736e+01	2.5508	40.056461	0.000547	5.471829	0.926953	0.000110
 130	1.2835e+01	2.5713	40.230058	0.000871	8.714395	1.476258	0.000174
 131	1.2935e+01	2.5904	40.339060	0.000547	5.471829	0.926953	0.000110
 132	1.3034e+01	2.6097	40.500546	0.000811	8.106414	1.373264	0.000162
 133	1.3134e+01	2.6302	40.649920	0.000750	7.498433	1.270269	0.000150
 134	1.3233e+01	2.6504	40.815442	0.000831	8.309074	1.407595	0.000166
 135	1.3333e+01	2.6703	40.956742	0.000709	7.093112	1.201606	0.000142
 136	1.3432e+01	2.6897	41.089968	0.000669	6.687792	1.132943	0.000134
 137	1.3532e+01	2.7096	41.251453	0.000811	8.106414	1.373264	0.000162
 138	1.3632e+01	2.7294	41.404864	0.000770	7.701093	1.304601	0.000154
 139	1.3731e+01	2.7503	41.554238	0.000750	7.498433	1.270269	0.000150
 140	1.3831e+01	2.7699	41.691501	0.000689	6.890452	1.167274	0.000138
 141	1.3930e+01	2.7901	41.792429	0.000507	5.066509	0.858290	0.000101
 142	1.4030e+01	2.8097	41.986212	0.000973	9.727697	1.647916	0.000195
 143	1.4129e+01	2.8294	42.099251	0.000567	5.674490	0.961285	0.000114
 144	1.4229e+01	2.8487	42.268811	0.000851	8.511735	1.441927	0.000170
 145	1.4328e+01	2.8688	42.422222	0.000770	7.701093	1.304601	0.000154
 146	1.4428e+01	2.8887	42.571596	0.000750	7.498433	1.270269	0.000150
 147	1.4527e+01	2.9101	42.708859	0.000689	6.890452	1.167274	0.000138
 148	1.4627e+01	2.9292	42.846122	0.000689	6.890452	1.167274	0.000138
 149	1.4726e+01	2.9491	42.995496	0.000750	7.498433	1.270269	0.000150
 150	1.4825e+01	2.9690	43.148907	0.000770	7.701093	1.304601	0.000154
 151	1.4925e+01	2.9883	43.310392	0.000811	8.106414	1.373264	0.000162
 152	1.5024e+01	3.0083	43.443618	0.000669	6.687792	1.132943	0.000134
 153	1.5124e+01	3.0295	43.576843	0.000669	6.687792	1.132943	0.000134
 154	1.5223e+01	3.0483	43.730254	0.000770	7.701093	1.304601	0.000154
 155	1.5323e+01	3.0690	43.855406	0.000628	6.282471	1.064279	0.000126
 156	1.5422e+01	3.0882	44.037077	0.000912	9.119716	1.544922	0.000183
 157	1.5522e+01	3.1092	44.202599	0.000831	8.309074	1.407595	0.000166
 158	1.5621e+01	3.1286	44.343899	0.000709	7.093112	1.201606	0.000142
 159	1.5721e+01	3.1483	44.465013	0.000608	6.079810	1.029948	0.000122
 160	1.5820e+01	3.1678	44.614387	0.000750	7.498433	1.270269	0.000150
 161	1.5920e+01	3.1878	44.719353	0.000527	5.269169	0.892621	0.000105
 162	1.6020e+01	3.2079	44.896987	0.000892	8.917055	1.510590	0.000179
 163	1.6119e+01	3.2280	45.026175	0.000649	6.485131	1.098611	0.000130
 164	1.6218e+01	3.2476	45.207846	0.000912	9.119716	1.544922	0.000183
 165	1.6318e+01	3.2675	45.349146	0.000709	7.093112	1.201606	0.000142
 166	1.6418e+01	3.2874	45.494483	0.000730	7.295773	1.235937	0.000146
 167	1.6517e+01	3.3080	45.607522	0.000567	5.674490	0.961285	0.000114
 168	1.6616e+01	3.3275	45.789194	0.000912	9.119716	1.544922	0.000183
 169	1.6716e+01	3.3485	45.918382	0.000649	6.485131	1.098611	0.000130
 170	1.6816e+01	3.3676	46.047570	0.000649	6.485131	1.098611	0.000130
 171	1.6915e+01	3.3880	46.205019	0.000790	7.903754	1.338932	0.000158
 172	1.7015e+01	3.4074	46.370541	0.000831	8.309074	1.407595	0.000166
 173	1.7114e+01	3.4274	46.511841	0.000709	7.093112	1.201606	0.000142
 174	1.7213e+01	3.4477	46.661215	0.000750	7.498433	1.270269	0.000150
 175	1.7313e+01	3.4673	46.802515	0.000709	7.093112	1.201606	0.000142
 176	1.7413e+01	3.4876	46.931703	0.000649	6.485131	1.098611	0.000130
 177	1.7512e+01	3.5061	47.085114	0.000770	7.701093	1.304601	0.000154
 178	1.7611e+01	3.5271	47.238525	0.000770	7.701093	1.304601	0.000154
 179	1.7711e+01	3.5473	47.383862	0.000730	7.295773	1.235937	0.000146
 180	1.7811e+01	3.5659	47.513051	0.000649	6.485131	1.098611	0.000130
 181	1.7910e+01	3.5871	47.658387	0.000730	7.295773	1.235937	0.000146
 182	1.8009e+01	3.6066	47.827947	0.000851	8.511735	1.441927	0.000170
 183	1.8109e+01	3.6269	47.945024	0.000588	5.877150	0.995616	0.000118
 184	1.8209e+01	3.6450	48.098435	0.000770	7.701093	1.304601	0.000154
 185	1.8308e+01	3.6668	48.259921	0.000811	8.106414	1.373264	0.000162
 186	1.8407e+01	3.6866	48.372960	0.000567	5.674490	0.961285	0.000114
 187	1.8507e+01	3.7067	48.538483	0.000831	8.309074	1.407595	0.000166
 188	1.8607e+01	3.7261	48.643449	0.000527	5.269169	0.892621	0.000105
 189	1.8706e+01	3.7463	48.841268	0.000993	9.930357	1.682248	0.000199
 190	1.8805e+01	3.7661	48.994679	0.000770	7.701093	1.304601	0.000154
 191	1.8905e+01	3.7856	49.091571	0.000486	4.863848	0.823958	0.000097
 192	1.9005e+01	3.8055	49.240945	0.000750	7.498433	1.270269	0.000150
 193	1.9104e+01	3.8258	49.386281	0.000730	7.295773	1.235937	0.000146
 194	1.9203e+01	3.8450	49.555841	0.000851	8.511735	1.441927	0.000170
 195	1.9303e+01	3.8659	49.672918	0.000588	5.877150	0.995616	0.000118
 196	1.9402e+01	3.8828	49.826329	0.000770	7.701093	1.304601	0.000154
 197	1.9502e+01	3.9051	49.947443	0.000608	6.079810	1.029948	0.000122
 198	1.9602e+01	3.9260	50.088743	0.000709	7.093112	1.201606	0.000142
 199	1.9701e+01	3.9443	50.262340	0.000871	8.714395	1.476258	0.000174
 200	1.9800e+01	3.9650	50.399603	0.000689	6.890452	1.167274	0.000138
 201	1.9900e+01	3.9855	50.548977	0.000750	7.498433	1.270269	0.000150
 202	2.0000e+01	4.0044	50.670091	0.000608	6.079810	1.029948	0.000122
 203	2.0099e+01	4.0246	50.803316	0.000669	6.687792	1.132943	0.000134
 204	2.0198e+01	4.0449	50.948653	0.000730	7.295773	1.235937	0.000146
 205	2.0298e+01	4.0646	51.089953	0.000709	7.093112	1.201606	0.000142
 206	2.0398e+01	4.0853	51.223178	0.000669	6.687792	1.132943	0.000134
 207	2.0497e+01	4.1042	51.348329	0.000628	6.282471	1.064279	0.000126
 208	2.0596e+01	4.1235	51.505778	0.000790	7.903754	1.338932	0.000158
 209	2.0696e+01	4.1441	51.647077	0.000709	7.093112	1.201606	0.000142
 210	2.0796e+01	4.1647	51.756080	0.000547	5.471829	0.926953	0.000110
 211	2.0895e+01	4.1836	51.909491	0.000770	7.701093	1.304601	0.000154
 212	2.0994e+01	4.2035	52.075014	0.000831	8.309074	1.407595	0.000166
 213	2.1094e+01	4.2245	52.184017	0.000547	5.471829	0.926953	0.000110
 214	2.1194e+01	4.2442	52.329353	0.000730	7.295773	1.235937	0.000146
 215	2.1293e+01	4.2641	52.450468	0.000608	6.079810	1.029948	0.000122
 216	2.1392e+01	4.2846	52.583693	0.000669	6.687792	1.132943	0.000134
 217	2.1492e+01	4.3042	52.769401	0.000932	9.322376	1.579253	0.000187
 218	2.1591e+01	4.3236	52.874367	0.000527	5.269169	0.892621	0.000105
 219	2.1691e+01	4.3438	52.991444	0.000588	5.877150	0.995616	0.000118
 220	2.1791e+01	4.3644	53.108521	0.000588	5.877150	0.995616	0.000118
 221	2.1890e+01	4.3845	53.253858	0.000730	7.295773	1.235937	0.000146
 222	2.1989e+01	4.4030	53.431491	0.000892	8.917055	1.510590	0.000179
 223	2.2089e+01	4.4231	53.532420	0.000507	5.066509	0.858290	0.000101
 224	2.2189e+01	4.4439	53.657571	0.000628	6.282471	1.064279	0.000126
 225	2.2288e+01	4.4633	53.815019	0.000790	7.903754	1.338932	0.000158
 226	2.2387e+01	4.4827	53.968431	0.000770	7.701093	1.304601	0.000154
 227	2.2487e+01	4.5031	54.081470	0.000567	5.674490	0.961285	0.000114
 228	2.2587e+01	4.5229	54.234882	0.000770	7.701093	1.304601	0.000154
 229	2.2686e+01	4.5434	54.368107	0.000669	6.687792	1.132943	0.000134
 230	2.2785e+01	4.5626	54.501332	0.000669	6.687792	1.132943	0.000134
 231	2.2885e+01	4.5834	54.646669	0.000730	7.295773	1.235937	0.000146
 232	2.2985e+01	4.6037	54.747598	0.000507	5.066509	0.858290	0.000101
 233	2.3084e+01	4.6233	54.896972	0.000750	7.498433	1.270269	0.000150
 234	2.3183e+01	4.6433	55.022123	0.000628	6.282471	1.064279	0.000126
 235	2.3283e+01	4.6627	55.179571	0.000790	7.903754	1.338932	0.000158
 236	2.3383e+01	4.6828	55.341057	0.000811	8.106414	1.373264	0.000162
 237	2.3482e+01	4.7015	55.450059	0.000547	5.471829	0.926953	0.000110
 238	2.3581e+01	4.7219	55.546951	0.000486	4.863848	0.823958	0.000097
 239	2.3681e+01	4.7421	55.708436	0.000811	8.106414	1.373264	0.000162
 240	2.3780e+01	4.7620	55.837624	0.000649	6.485131	1.098611	0.000130
 241	2.3880e+01	4.7826	55.962776	0.000628	6.282471	1.064279	0.000126
 242	2.3980e+01	4.8020	56.128298	0.000831	8.309074	1.407595	0.000166
 243	2.4079e+01	4.8225	56.229227	0.000507	5.066509	0.858290	0.000101
 244	2.4178e+01	4.8409	56.390712	0.000811	8.106414	1.373264	0.000162
 245	2.4278e+01	4.8613	56.487603	0.000486	4.863848	0.823958	0.000097
 246	2.4378e+01	4.8815	56.612754	0.000628	6.282471	1.064279	0.000126
 247	2.4477e+01	4.9018	56.750017	0.000689	6.890452	1.167274	0.000138
 248	2.4576e+01	4.9217	56.871131	0.000608	6.079810	1.029948	0.000122
 249	2.4676e+01	4.9425	57.000319	0.000649	6.485131	1.098611	0.000130
 250	2.4776e+01	4.9627	57.133545	0.000669	6.687792	1.132943	0.000134
 251	2.4875e+01	4.9810	57.295030	0.000811	8.106414	1.373264	0.000162
 252	2.4974e+01	5.0022	57.387885	0.000466	4.661188	0.789627	0.000093
 253	2.5074e+01	5.0228	57.521110	0.000669	6.687792	1.132943	0.000134
 254	2.5174e+01	5.0405	57.642224	0.000608	6.079810	1.029948	0.000122
 255	2.5273e+01	5.0611	57.779487	0.000689	6.890452	1.167274	0.000138
 256	2.5372e+01	5.0813	57.896564	0.000588	5.877150	0.995616	0.000118
 257	2.5472e+01	5.1012	57.997492	0.000507	5.066509	0.858290	0.000101
 258	2.5572e+01	5.1201	58.195312	0.000993	9.930357	1.682248	0.000199
 259	2.5671e+01	5.1411	58.288166	0.000466	4.661188	0.789627	0.000093
 260	2.5770e+01	5.1606	58.449651	0.000811	8.106414	1.373264	0.000162
 261	2.5870e+01	5.1803	58.578840	0.000649	6.485131	1.098611	0.000130
 262	2.5970e+01	5.2002	58.679768	0.000507	5.066509	0.858290	0.000101
 263	2.6069e+01	5.2192	58.812993	0.000669	6.687792	1.132943	0.000134
 264	2.6169e+01	5.2409	58.946219	0.000669	6.687792	1.132943	0.000134
 265	2.6268e+01	5.2605	59.043110	0.000486	4.863848	0.823958	0.000097
 266	2.6367e+01	5.2795	59.204596	0.000811	8.106414	1.373264	0.000162
 267	2.6467e+01	5.2999	59.329747	0.000628	6.282471	1.064279	0.000126
 268	2.6567e+01	5.3204	59.446824	0.000588	5.877150	0.995616	0.000118
 269	2.6666e+01	5.3400	59.584086	0.000689	6.890452	1.167274	0.000138
 270	2.6765e+01	5.3596	59.721349	0.000689	6.890452	1.167274	0.000138
 271	2.6865e+01	5.3797	59.858612	0.000689	6.890452	1.167274	0.000138
 272	2.6965e+01	5.4000	59.959540	0.000507	5.066509	0.858290	0.000101
 273	2.7064e+01	5.4197	60.112951	0.000770	7.701093	1.304601	0.000154
 274	2.7163e+01	5.4397	60.225991	0.000567	5.674490	0.961285	0.000114
 275	2.7263e+01	5.4594	60.371328	0.000730	7.295773	1.235937	0.000146
 276	2.7363e+01	5.4807	60.504553	0.000669	6.687792	1.132943	0.000134
 277	2.7462e+01	5.4992	60.629705	0.000628	6.282471	1.064279	0.000126
 278	2.7561e+01	5.5184	60.730633	0.000507	5.066509	0.858290	0.000101
 279	2.7661e+01	5.5389	60.912304	0.000912	9.119716	1.544922	0.000183
 280	2.7761e+01	5.5611	60.964787	0.000263	2.634585	0.446311	0.000053
 281	2.7860e+01	5.5804	61.146458	0.000912	9.119716	1.544922	0.000183
 282	2.7959e+01	5.5987	61.231238	0.000426	4.255867	0.720963	0.000085
 283	2.8059e+01	5.6193	61.408872	0.000892	8.917055	1.510590	0.000179
 284	2.8159e+01	5.6391	61.497689	0.000446	4.458528	0.755295	0.000089
 285	2.8258e+01	5.6585	61.651100	0.000770	7.701093	1.304601	0.000154
 286	2.8358e+01	5.6789	61.756065	0.000527	5.269169	0.892621	0.000105
 287	2.8457e+01	5.6994	61.881217	0.000628	6.282471	1.064279	0.000126
 288	2.8556e+01	5.7189	62.034628	0.000770	7.701093	1.304601	0.000154
 289	2.8656e+01	5.7381	62.167853	0.000669	6.687792	1.132943	0.000134
 290	2.8756e+01	5.7583	62.288967	0.000608	6.079810	1.029948	0.000122
 291	2.8855e+01	5.7778	62.418156	0.000649	6.485131	1.098611	0.000130
 292	2.8954e+01	5.7975	62.535233	0.000588	5.877150	0.995616	0.000118
 293	2.9054e+01	5.8171	62.680569	0.000730	7.295773	1.235937	0.000146
 294	2.9154e+01	5.8392	62.781498	0.000507	5.066509	0.858290	0.000101
 295	2.9253e+01	5.8575	62.979318	0.000993	9.930357	1.682248	0.000199
 296	2.9352e+01	5.8788	63.084283	0.000527	5.269169	0.892621	0.000105
 297	2.9452e+01	5.8984	63.209434	0.000628	6.282471	1.064279	0.000126
 298	2.9552e+01	5.9185	63.338623	0.000649	6.485131	1.098611	0.000130
 299	2.9651e+01	5.9373	63.439551	0.000507	5.066509	0.858290	0.000101
 300	2.9750e+01	5.9582	63.580851	0.000709	7.093112	1.201606	0.000142
 301	2.9850e+01	5.9768	63.718113	0.000689	6.890452	1.167274	0.000138
 302	2.9950e+01	5.9978	63.843265	0.000628	6.282471	1.064279	0.000126
 303	3.0049e+01	6.0180	63.976490	0.000669	6.687792	1.132943	0.000134
 304	3.0148e+01	6.0374	64.097604	0.000608	6.079810	1.029948	0.000122
 305	3.0248e+01	6.0567	64.230830	0.000669	6.687792	1.132943	0.000134
 306	3.0348e+01	6.0772	64.376166	0.000730	7.295773	1.235937	0.000146
 307	3.0447e+01	6.0972	64.485169	0.000547	5.471829	0.926953	0.000110
 308	3.0547e+01	6.1167	64.557838	0.000365	3.647886	0.617969	0.000073
 309	3.0646e+01	6.1373	64.775843	0.001094	10.943659	1.853906	0.000219
 310	3.0745e+01	6.1572	64.888883	0.000567	5.674490	0.961285	0.000114
 311	3.0845e+01	6.1770	65.026145	0.000689	6.890452	1.167274	0.000138
 312	3.0945e+01	6.1967	65.114962	0.000446	4.458528	0.755295	0.000089
 313	3.1044e+01	6.2170	65.288559	0.000871	8.714395	1.476258	0.000174
 314	3.1143e+01	6.2380	65.417747	0.000649	6.485131	1.098611	0.000130
 315	3.1243e+01	6.2563	65.542899	0.000628	6.282471	1.064279	0.000126
 316	3.1343e+01	6.2760	65.664013	0.000608	6.079810	1.029948	0.000122
 317	3.1442e+01	6.2968	65.801275	0.000689	6.890452	1.167274	0.000138
 318	3.1541e+01	6.3148	65.898167	0.000486	4.863848	0.823958	0.000097
 319	3.1641e+01	6.3361	66.039466	0.000709	7.093112	1.201606	0.000142
 320	3.1741e+01	6.3554	66.188840	0.000750	7.498433	1.270269	0.000150
 321	3.1840e+01	6.3757	66.281695	0.000466	4.661188	0.789627	0.000093
 322	3.1939e+01	6.3976	66.447217	0.000831	8.309074	1.407595	0.000166
 323	3.2039e+01	6.4158	66.564294	0.000588	5.877150	0.995616	0.000118
 324	3.2139e+01	6.4348	66.729817	0.000831	8.309074	1.407595	0.000166
 325	3.2238e+01	6.4556	66.846894	0.000588	5.877150	0.995616	0.000118
 326	3.2337e+01	6.4758	66.951859	0.000527	5.269169	0.892621	0.000105
 327	3.2437e+01	6.4949	67.101233	0.000750	7.498433	1.270269	0.000150
 328	3.2536e+01	6.5142	67.198124	0.000486	4.863848	0.823958	0.000097
 329	3.2636e+01	6.5357	67.335387	0.000689	6.890452	1.167274	0.000138
 330	3.2736e+01	6.5551	67.492835	0.000790	7.903754	1.338932	0.000158
 331	3.2835e+01	6.5746	67.617986	0.000628	6.282471	1.064279	0.000126
 332	3.2934e+01	6.5940	67.755249	0.000689	6.890452	1.167274	0.000138
 333	3.3034e+01	6.6154	67.876363	0.000608	6.079810	1.029948	0.000122
 334	3.3133e+01	6.6348	68.001514	0.000628	6.282471	1.064279	0.000126
 335	3.3233e+01	6.6544	68.130703	0.000649	6.485131	1.098611	0.000130
 336	3.3333e+01	6.6744	68.243743	0.000567	5.674490	0.961285	0.000114
 337	3.3432e+01	6.6955	68.356782	0.000567	5.674490	0.961285	0.000114
 338	3.3532e+01	6.7150	68.506156	0.000750	7.498433	1.270269	0.000150
 339	3.3631e+01	6.7345	68.675716	0.000851	8.511735	1.441927	0.000170
 340	3.3730e+01	6.7545	68.780682	0.000527	5.269169	0.892621	0.000105
 341	3.3830e+01	6.7742	68.909870	0.000649	6.485131	1.098611	0.000130
 342	3.3929e+01	6.7944	69.030984	0.000608	6.079810	1.029948	0.000122
 343	3.4029e+01	6.8137	69.212655	0.000912	9.119716	1.544922	0.000183
 344	3.4129e+01	6.8334	69.313583	0.000507	5.066509	0.858290	0.000101
 345	3.4228e+01	6.8551	69.438735	0.000628	6.282471	1.064279	0.000126
 346	3.4328e+01	6.8731	69.551774	0.000567	5.674490	0.961285	0.000114
 347	3.4427e+01	6.8938	69.689037	0.000689	6.890452	1.167274	0.000138
 348	3.4526e+01	6.9135	69.822263	0.000669	6.687792	1.132943	0.000134
 349	3.4626e+01	6.9334	69.943377	0.000608	6.079810	1.029948	0.000122
 350	3.4725e+01	6.9530	70.072565	0.000649	6.485131	1.098611	0.000130
 351	3.4825e+01	6.9730	70.185605	0.000567	5.674490	0.961285	0.000114
 352	3.4925e+01	6.9935	70.339016	0.000770	7.701093	1.304601	0.000154
 353	3.5024e+01	7.0126	70.480316	0.000709	7.093112	1.201606	0.000142
 354	3.5123e+01	7.0329	70.597393	0.000588	5.877150	0.995616	0.000118
 355	3.5223e+01	7.0538	70.754841	0.000790	7.903754	1.338932	0.000158
 356	3.5322e+01	7.0727	70.875955	0.000608	6.079810	1.029948	0.000122
 357	3.5422e+01	7.0936	71.009180	0.000669	6.687792	1.132943	0.000134
 358	3.5522e+01	7.1122	71.130295	0.000608	6.079810	1.029948	0.000122
 359	3.5621e+01	7.1321	71.251409	0.000608	6.079810	1.029948	0.000122
 360	3.5721e+01	7.1525	71.412894	0.000811	8.106414	1.373264	0.000162
 361	3.5820e+01	7.1731	71.517860	0.000527	5.269169	0.892621	0.000105
 362	3.5919e+01	7.1938	71.651085	0.000669	6.687792	1.132943	0.000134
 363	3.6019e+01	7.2124	71.780273	0.000649	6.485131	1.098611	0.000130
 364	3.6118e+01	7.2318	71.905425	0.000628	6.282471	1.064279	0.000126
 365	3.6218e+01	7.2529	72.038650	0.000669	6.687792	1.132943	0.000134
 366	3.6318e+01	7.2715	72.192061	0.000770	7.701093	1.304601	0.000154
 367	3.6417e+01	7.2938	72.333361	0.000709	7.093112	1.201606	0.000142
 368	3.6517e+01	7.3087	72.414104	0.000405	4.053207	0.686632	0.000081
 369	3.6616e+01	7.3321	72.575589	0.000811	8.106414	1.373264	0.000162
 370	3.6715e+01	7.3522	72.720926	0.000730	7.295773	1.235937	0.000146
 371	3.6815e+01	7.3716	72.846077	0.000628	6.282471	1.064279	0.000126
 372	3.6914e+01	7.3920	72.942969	0.000486	4.863848	0.823958	0.000097
 373	3.7014e+01	7.4119	73.080231	0.000689	6.890452	1.167274	0.000138
 374	3.7114e+01	7.4319	73.221531	0.000709	7.093112	1.201606	0.000142
 375	3.7213e+01	7.4512	73.350719	0.000649	6.485131	1.098611	0.000130
 376	3.7313e+01	7.4703	73.443573	0.000466	4.661188	0.789627	0.000093
 377	3.7412e+01	7.4922	73.601022	0.000790	7.903754	1.338932	0.000158
 378	3.7511e+01	7.5111	73.726173	0.000628	6.282471	1.064279	0.000126
 379	3.7611e+01	7.5305	73.823064	0.000486	4.863848	0.823958	0.000097
 380	3.7711e+01	7.5509	73.988587	0.000831	8.309074	1.407595	0.000166
 381	3.7810e+01	7.5701	74.125849	0.000689	6.890452	1.167274	0.000138
 382	3.7910e+01	7.5907	74.255038	0.000649	6.485131	1.098611	0.000130
 383	3.8009e+01	7.6105	74.388263	0.000669	6.687792	1.132943	0.000134
 384	3.8108e+01	7.6308	74.513414	0.000628	6.282471	1.064279	0.000126
 385	3.8208e+01	7.6514	74.642603	0.000649	6.485131	1.098611	0.000130
 386	3.8307e+01	7.6704	74.755642	0.000567	5.674490	0.961285	0.000114
 387	3.8407e+01	7.6905	74.896942	0.000709	7.093112	1.201606	0.000142
 388	3.8507e+01	7.7110	75.009982	0.000567	5.674490	0.961285	0.000114
 389	3.8606e+01	7.7297	75.147245	0.000689	6.890452	1.167274	0.000138
 390	3.8706e+01	7.7493	75.276433	0.000649	6.485131	1.098611	0.000130
 391	3.8805e+01	7.7699	75.409658	0.000669	6.687792	1.132943	0.000134
 392	3.8904e+01	7.7906	75.518661	0.000547	5.471829	0.926953	0.000110
 393	3.9004e+01	7.8105	75.639775	0.000608	6.079810	1.029948	0.000122
 394	3.9103e+01	7.8300	75.805298	0.000831	8.309074	1.407595	0.000166
 395	3.9203e+01	7.8495	75.898152	0.000466	4.661188	0.789627	0.000093
 396	3.9303e+01	7.8696	76.043489	0.000730	7.295773	1.235937	0.000146
 397	3.9402e+01	7.8898	76.196900	0.000770	7.701093	1.304601	0.000154
 398	3.9502e+01	7.9095	76.313977	0.000588	5.877150	0.995616	0.000118
 399	3.9601e+01	7.9299	76.427017	0.000567	5.674490	0.961285	0.000114
 400	3.9700e+01	7.9504	76.588502	0.000811	8.106414	1.373264	0.000162
 401	3.9800e+01	7.9696	76.685393	0.000486	4.863848	0.823958	0.000097
 402	3.9900e+01	7.9887	76.802470	0.000588	5.877150	0.995616	0.000118
 403	3.9999e+01	8.0093	76.915510	0.000567	5.674490	0.961285	0.000114
 404	4.0099e+01	8.0294	77.056810	0.000709	7.093112	1.201606	0.000142
 405	4.0198e+01	8.0491	77.161775	0.000527	5.269169	0.892621	0.000105
 406	4.0297e+01	8.0685	77.335372	0.000871	8.714395	1.476258	0.000174
 407	4.0397e+01	8.0888	77.468598	0.000669	6.687792	1.132943	0.000134
 408	4.0496e+01	8.1090	77.581637	0.000567	5.674490	0.961285	0.000114
 409	4.0596e+01	8.1293	77.726974	0.000730	7.295773	1.235937	0.000146
 410	4.0696e+01	8.1489	77.868274	0.000709	7.093112	1.201606	0.000142
 411	4.0795e+01	8.1680	77.957091	0.000446	4.458528	0.755295	0.000089
 412	4.0895e+01	8.1886	78.114539	0.000790	7.903754	1.338932	0.000158
 413	4.0994e+01	8.2085	78.247765	0.000669	6.687792	1.132943	0.000134
 414	4.1093e+01	8.2284	78.324470	0.000385	3.850547	0.652300	0.000077
 415	4.1193e+01	8.2467	78.506142	0.000912	9.119716	1.544922	0.000183
 416	4.1292e+01	8.2687	78.643404	0.000689	6.890452	1.167274	0.000138
 417	4.1392e+01	8.2893	78.804890	0.000811	8.106414	1.373264	0.000162
 418	4.1492e+01	8.3076	78.837187	0.000162	1.621283	0.274653	0.000032
 419	4.1591e+01	8.3279	79.002709	0.000831	8.309074	1.407595	0.000166
 420	4.1691e+01	8.3486	79.135935	0.000669	6.687792	1.132943	0.000134
 421	4.1790e+01	8.3669	79.248975	0.000567	5.674490	0.961285	0.000114
 422	4.1889e+01	8.3874	79.390274	0.000709	7.093112	1.201606	0.000142
 423	4.1989e+01	8.4077	79.458906	0.000345	3.445226	0.583637	0.000069
 424	4.2089e+01	8.4284	79.620391	0.000811	8.106414	1.373264	0.000162
 425	4.2188e+01	8.4472	79.749579	0.000649	6.485131	1.098611	0.000130
 426	4.2288e+01	8.4673	79.919139	0.000851	8.511735	1.441927	0.000170
 427	4.2387e+01	8.4876	80.020067	0.000507	5.066509	0.858290	0.000101
 428	4.2486e+01	8.5062	80.153293	0.000669	6.687792	1.132943	0.000134
 429	4.2586e+01	8.5275	80.302667	0.000750	7.498433	1.270269	0.000150
 430	4.2685e+01	8.5473	80.391484	0.000446	4.458528	0.755295	0.000089
 431	4.2785e+01	8.5677	80.544895	0.000770	7.701093	1.304601	0.000154
 432	4.2885e+01	8.5862	80.682158	0.000689	6.890452	1.167274	0.000138
 433	4.2984e+01	8.6084	80.815383	0.000669	6.687792	1.132943	0.000134
 434	4.3084e+01	8.6269	80.936497	0.000608	6.079810	1.029948	0.000122
 435	4.3183e+01	8.6462	81.069723	0.000669	6.687792	1.132943	0.000134
 436	4.3282e+01	8.6660	81.190837	0.000608	6.079810	1.029948	0.000122
 437	4.3382e+01	8.6865	81.356359	0.000831	8.309074	1.407595	0.000166
 438	4.3481e+01	8.7066	81.457288	0.000507	5.066509	0.858290	0.000101
 439	4.3581e+01	8.7264	81.562253	0.000527	5.269169	0.892621	0.000105
 440	4.3681e+01	8.7463	81.727776	0.000831	8.309074	1.407595	0.000166
 441	4.3780e+01	8.7659	81.840816	0.000567	5.674490	0.961285	0.000114
 442	4.3880e+01	8.7868	81.974041	0.000669	6.687792	1.132943	0.000134
 443	4.3979e+01	8.8062	82.123415	0.000750	7.498433	1.270269	0.000150
 444	4.4078e+01	8.8250	82.264715	0.000709	7.093112	1.201606	0.000142
 445	4.4178e+01	8.8451	82.373718	0.000547	5.471829	0.926953	0.000110
 446	4.4278e+01	8.8650	82.510980	0.000689	6.890452	1.167274	0.000138
 447	4.4377e+01	8.8845	82.632094	0.000608	6.079810	1.029948	0.000122
 448	4.4477e+01	8.9050	82.769357	0.000689	6.890452	1.167274	0.000138
 449	4.4576e+01	8.9260	82.906620	0.000689	6.890452	1.167274	0.000138
 450	4.4675e+01	8.9445	83.051956	0.000730	7.295773	1.235937	0.000146
 451	4.4775e+01	8.9655	83.169033	0.000588	5.877150	0.995616	0.000118
 452	4.4874e+01	8.9846	83.314370	0.000730	7.295773	1.235937	0.000146
 453	4.4974e+01	9.0041	83.443559	0.000649	6.485131	1.098611	0.000130
 454	4.5074e+01	9.0243	83.588895	0.000730	7.295773	1.235937	0.000146
 455	4.5173e+01	9.0448	83.722121	0.000669	6.687792	1.132943	0.000134
 456	4.5273e+01	9.0646	83.863421	0.000709	7.093112	1.201606	0.000142
 457	4.5372e+01	9.0838	84.008758	0.000730	7.295773	1.235937	0.000146
 458	4.5471e+01	9.1042	84.089500	0.000405	4.053207	0.686632	0.000081
 459	4.5571e+01	9.1244	84.246949	0.000790	7.903754	1.338932	0.000158
 460	4.5670e+01	9.1439	84.396323	0.000750	7.498433	1.270269	0.000150
 461	4.5770e+01	9.1636	84.517437	0.000608	6.079810	1.029948	0.000122
 462	4.5870e+01	9.1828	84.642588	0.000628	6.282471	1.064279	0.000126
 463	4.5969e+01	9.2046	84.775813	0.000669	6.687792	1.132943	0.000134
 464	4.6069e+01	9.2245	84.921150	0.000730	7.295773	1.235937	0.000146
 465	4.6168e+01	9.2443	85.090710	0.000851	8.511735	1.441927	0.000170
 466	4.6267e+01	9.2640	85.207787	0.000588	5.877150	0.995616	0.000118
 467	4.6367e+01	9.2840	85.349087	0.000709	7.093112	1.201606	0.000142
 468	4.6467e+01	9.3038	85.462126	0.000567	5.674490	0.961285	0.000114
 469	4.6566e+01	9.3215	85.643798	0.000912	9.119716	1.544922	0.000183
 470	4.6666e+01	9.3438	85.760874	0.000588	5.877150	0.995616	0.000118
 471	4.6765e+01	9.3633	85.922360	0.000811	8.106414	1.373264	0.000162
 472	4.6864e+01	9.3843	86.023288	0.000507	5.066509	0.858290	0.000101
 473	4.6964e+01	9.4025	86.208997	0.000932	9.322376	1.579253	0.000187
 474	4.7063e+01	9.4228	86.322036	0.000567	5.674490	0.961285	0.000114
 475	4.7163e+01	9.4424	86.463336	0.000709	7.093112	1.201606	0.000142
 476	4.7263e+01	9.4634	86.600599	0.000689	6.890452	1.167274	0.000138
 477	4.7362e+01	9.4830	86.770158	0.000851	8.511735	1.441927	0.000170
 478	4.7462e+01	9.5030	86.895310	0.000628	6.282471	1.064279	0.000126
 479	4.7561e+01	9.5222	87.032572	0.000689	6.890452	1.167274	0.000138
 480	4.7660e+01	9.5415	87.141575	0.000547	5.471829	0.926953	0.000110
 481	4.7760e+01	9.5624	87.319209	0.000892	8.917055	1.510590	0.000179
 482	4.7859e+01	9.5821	87.444360	0.000628	6.282471	1.064279	0.000126
 483	4.7959e+01	9.6014	87.601808	0.000790	7.903754	1.338932	0.000158
 484	4.8059e+01	9.6229	87.751182	0.000750	7.498433	1.270269	0.000150
 485	4.8158e+01	9.6423	87.916705	0.000831	8.309074	1.407595	0.000166
 486	4.8258e+01	9.6631	88.013596	0.000486	4.863848	0.823958	0.000097
 487	4.8357e+01	9.6827	88.183156	0.000851	8.511735	1.441927	0.000170
 488	4.8456e+01	9.7015	88.308307	0.000628	6.282471	1.064279	0.000126
 489	4.8556e+01	9.7218	88.469793	0.000811	8.106414	1.373264	0.000162
 490	4.8656e+01	9.7414	88.570721	0.000507	5.066509	0.858290	0.000101
 491	4.8755e+01	9.7616	88.764503	0.000973	9.727697	1.647916	0.000195
 492	4.8855e+01	9.7808	88.942137	0.000892	8.917055	1.510590	0.000179
 493	4.8954e+01	9.8006	89.063252	0.000608	6.079810	1.029948	0.000122
 494	4.9053e+01	9.8211	89.192440	0.000649	6.485131	1.098611	0.000130
 495	4.9153e+01	9.8412	89.321628	0.000649	6.485131	1.098611	0.000130
 496	4.9252e+01	9.8615	89.519448	0.000993	9.930357	1.682248	0.000199
 497	4.9352e+01	9.8821	89.640562	0.000608	6.079810	1.029948	0.000122
 498	4.9452e+01	9.9017	89.785899	0.000730	7.295773	1.235937	0.000146
 499	4.9551e+01	9.9209	89.943347	0.000790	7.903754	1.338932	0.000158
 500	4.9651e+01	9.9416	90.076573	0.000669	6.687792	1.132943	0.000134
 501	4.9750e+01	9.9618	90.262281	0.000932	9.322376	1.579253	0.000187
 502	4.9849e+01	9.9810	90.363209	0.000507	5.066509	0.858290	0.000101
 503	4.9949e+01	9.9999	90.552955	0.000953	9.525036	1.613585	0.000191
 504	5.0048e+01	9.9809	90.528732	0.000122	1.215962	0.205990	-0.000024
 505	5.0148e+01	9.9610	90.528732	-0.000000	-0.000000	-0.000000	0.000000
 506	5.0248e+01	9.9401	90.492398	0.000182	1.823943	0.308984	-0.000037
 507	5.0347e+01	9.9212	90.468175	0.000122	1.215962	0.205990	-0.000024
 508	5.0447e+01	9.9030	90.460100	0.000041	0.405321	0.068663	-0.000008
 509	5.0546e+01	9.8809	90.452026	0.000041	0.405321	0.068663	-0.000008
 510	5.0645e+01	9.8602	90.435878	0.000081	0.810641	0.137326	-0.000016
 511	5.0745e+01	9.8414	90.419729	0.000081	0.810641	0.137326	-0.000016
 512	5.0844e+01	9.8211	90.395506	0.000122	1.215962	0.205990	-0.000024
 513	5.0944e+01	9.8028	90.359172	0.000182	1.823943	0.308984	-0.000037
 514	5.1044e+01	9.7816	90.338986	0.000101	1.013302	0.171658	-0.000020
 515	5.1143e+01	9.7624	90.290541	0.000243	2.431924	0.411979	-0.000049
 516	5.1242e+01	9.7420	90.278429	0.000061	0.607981	0.102995	-0.000012
 517	5.1342e+01	9.7225	90.274392	0.000020	0.202660	0.034332	-0.000004
 518	5.1441e+01	9.7022	90.229984	0.000223	2.229264	0.377648	-0.000045
 519	5.1541e+01	9.6851	90.213835	0.000081	0.810641	0.137326	-0.000016
 520	5.1641e+01	9.6619	90.153278	0.000304	3.039905	0.514974	-0.000061
 521	5.1740e+01	9.6424	90.149241	0.000020	0.202660	0.034332	-0.000004
 522	5.1840e+01	9.6224	90.088684	0.000304	3.039905	0.514974	-0.000061
 523	5.1939e+01	9.6011	90.072535	0.000081	0.810641	0.137326	-0.000016
 524	5.2038e+01	9.5825	90.048313	0.000122	1.215962	0.205990	-0.000024
 525	5.2138e+01	9.5621	90.016016	0.000162	1.621283	0.274653	-0.000032
 526	5.2237e+01	9.5417	89.987756	0.000142	1.418622	0.240321	-0.000028
 527	5.2337e+01	9.5228	89.943347	0.000223	2.229264	0.377648	-0.000045
 528	5.2437e+01	9.5033	89.915087	0.000142	1.418622	0.240321	-0.000028
 529	5.2536e+01	9.4830	89.862604	0.000263	2.634585	0.446311	-0.000053
 530	5.2636e+01	9.4622	89.858567	0.000020	0.202660	0.034332	-0.000004
 531	5.2735e+01	9.4421	89.838382	0.000101	1.013302	0.171658	-0.000020
 532	5.2834e+01	9.4233	89.777825	0.000304	3.039905	0.514974	-0.000061
 533	5.2934e+01	9.4024	89.757639	0.000101	1.013302	0.171658	-0.000020
 534	5.3033e+01	9.3826	89.721305	0.000182	1.823943	0.308984	-0.000037
 535	5.3133e+01	9.3630	89.660748	0.000304	3.039905	0.514974	-0.000061
 536	5.3233e+01	9.3438	89.644599	0.000081	0.810641	0.137326	-0.000016
 537	5.3332e+01	9.3228	89.600191	0.000223	2.229264	0.377648	-0.000045
 538	5.3431e+01	9.3044	89.539634	0.000304	3.039905	0.514974	-0.000061
 539	5.3531e+01	9.2840	89.491188	0.000243	2.431924	0.411979	-0.000049
 540	5.3630e+01	9.2637	89.466965	0.000122	1.215962	0.205990	-0.000024
 541	5.3730e+01	9.2434	89.414482	0.000263	2.634585	0.446311	-0.000053
 542	5.3830e+01	9.2231	89.357962	0.000284	2.837245	0.480642	-0.000057
 543	5.3929e+01	9.2043	89.345851	0.000061	0.607981	0.102995	-0.000012
 544	5.4029e+01	9.1839	89.252997	0.000466	4.661188	0.789627	-0.000093
 545	5.4128e+01	9.1634	89.248960	0.000020	0.202660	0.034332	-0.000004
 546	5.4227e+01	9.1445	89.204551	0.000223	2.229264	0.377648	-0.000045
 547	5.4327e+01	9.1250	89.135920	0.000345	3.445226	0.583637	-0.000069
 548	5.4426e+01	9.1041	89.063252	0.000365	3.647886	0.617969	-0.000073
 549	5.4526e+01	9.0845	89.055177	0.000041	0.405321	0.068663	-0.000008
 550	5.4626e+01	9.0643	89.010769	0.000223	2.229264	0.377648	-0.000045
 551	5.4725e+01	9.0438	88.990583	0.000101	1.013302	0.171658	-0.000020
 552	5.4825e+01	9.0237	88.885618	0.000527	5.269169	0.892621	-0.000105
 553	5.4924e+01	9.0041	88.857358	0.000142	1.418622	0.240321	-0.000028
 554	5.5023e+01	8.9851	88.849283	0.000041	0.405321	0.068663	-0.000008
 555	5.5123e+01	8.9654	88.732206	0.000588	5.877150	0.995616	-0.000118
 556	5.5222e+01	8.9437	88.707984	0.000122	1.215962	0.205990	-0.000024
 557	5.5322e+01	8.9256	88.663575	0.000223	2.229264	0.377648	-0.000045
 558	5.5422e+01	8.9053	88.611092	0.000263	2.634585	0.446311	-0.000053
 559	5.5521e+01	8.8850	88.542461	0.000345	3.445226	0.583637	-0.000069
 560	5.5620e+01	8.8645	88.481904	0.000304	3.039905	0.514974	-0.000061
 561	5.5720e+01	8.8451	88.437495	0.000223	2.229264	0.377648	-0.000045
 562	5.5819e+01	8.8258	88.401161	0.000182	1.823943	0.308984	-0.000037
 563	5.5919e+01	8.8065	88.300233	0.000507	5.066509	0.858290	-0.000101
 564	5.6019e+01	8.7856	88.312344	-0.000061	-0.607981	-0.102995	0.000012
 565	5.6118e+01	8.7666	88.247750	0.000324	3.242566	0.549305	-0.000065
 566	5.6218e+01	8.7475	88.179119	0.000345	3.445226	0.583637	-0.000069
 567	5.6317e+01	8.7272	88.142785	0.000182	1.823943	0.308984	-0.000037
 568	5.6416e+01	8.7066	88.102413	0.000203	2.026603	0.343316	-0.000041
 569	5.6516e+01	8.6874	88.009559	0.000466	4.661188	0.789627	-0.000093
 570	5.6615e+01	8.6662	87.949002	0.000304	3.039905	0.514974	-0.000061
 571	5.6715e+01	8.6468	87.892482	0.000284	2.837245	0.480642	-0.000057
 572	5.6815e+01	8.6266	87.819814	0.000365	3.647886	0.617969	-0.000073
 573	5.6914e+01	8.6071	87.759257	0.000304	3.039905	0.514974	-0.000061
 574	5.7014e+01	8.5862	87.718885	0.000203	2.026603	0.343316	-0.000041
 575	5.7113e+01	8.5673	87.682551	0.000182	1.823943	0.308984	-0.000037
 576	5.7212e+01	8.5482	87.621994	0.000304	3.039905	0.514974	-0.000061
 577	5.7312e+01	8.5276	87.549326	0.000365	3.647886	0.617969	-0.000073
 578	5.7411e+01	8.5064	87.472620	0.000385	3.850547	0.652300	-0.000077
 579	5.7511e+01	8.4881	87.444360	0.000142	1.418622	0.240321	-0.000028
 580	5.7611e+01	8.4678	87.359580	0.000426	4.255867	0.720963	-0.000085
 581	5.7710e+01	8.4481	87.278838	0.000405	4.053207	0.686632	-0.000081
 582	5.7809e+01	8.4286	87.250578	0.000142	1.418622	0.240321	-0.000028
 583	5.7909e+01	8.4078	87.157723	0.000466	4.661188	0.789627	-0.000093
 584	5.8008e+01	8.3875	87.081018	0.000385	3.850547	0.652300	-0.000077
 585	5.8108e+01	8.3672	87.048721	0.000162	1.621283	0.274653	-0.000032
 586	5.8208e+01	8.3482	86.963941	0.000426	4.255867	0.720963	-0.000085
 587	5.8307e+01	8.3271	86.943755	0.000101	1.013302	0.171658	-0.000020
 588	5.8407e+01	8.3082	86.895310	0.000243	2.431924	0.411979	-0.000049
 589	5.8506e+01	8.2882	86.802456	0.000466	4.661188	0.789627	-0.000093
 590	5.8605e+01	8.2674	86.713639	0.000446	4.458528	0.755295	-0.000089
 591	5.8705e+01	8.2487	86.653081	0.000304	3.039905	0.514974	-0.000061
 592	5.8804e+01	8.2287	86.560227	0.000466	4.661188	0.789627	-0.000093
 593	5.8904e+01	8.2082	86.511782	0.000243	2.431924	0.411979	-0.000049
 594	5.9004e+01	8.1890	86.443150	0.000345	3.445226	0.583637	-0.000069
 595	5.9103e+01	8.1683	86.378556	0.000324	3.242566	0.549305	-0.000065
 596	5.9203e+01	8.1484	86.326073	0.000263	2.634585	0.446311	-0.000053
 597	5.9302e+01	8.1283	86.261479	0.000324	3.242566	0.549305	-0.000065
 598	5.9401e+01	8.1078	86.204959	0.000284	2.837245	0.480642	-0.000057
 599	5.9501e+01	8.0886	86.091920	0.000567	5.674490	0.961285	-0.000114
 600	5.9600e+01	8.0689	86.063660	0.000142	1.418622	0.240321	-0.000028
 601	5.9700e+01	8.0489	85.995028	0.000345	3.445226	0.583637	-0.000069
 602	5.9800e+01	8.0299	85.930434	0.000324	3.242566	0.549305	-0.000065
 603	5.9899e+01	8.0087	85.817394	0.000567	5.674490	0.961285	-0.000114
 604	5.9998e+01	7.9891	85.772986	0.000223	2.229264	0.377648	-0.000045
 605	6.0098e+01	7.9693	85.692243	0.000405	4.053207	0.686632	-0.000081
 606	6.0197e+01	7.9498	85.579203	0.000567	5.674490	0.961285	-0.000114
 607	6.0297e+01	7.9298	85.559018	0.000101	1.013302	0.171658	-0.000020
 608	6.0397e+01	7.9102	85.490386	0.000345	3.445226	0.583637	-0.000069
 609	6.0496e+01	7.8888	85.389458	0.000507	5.066509	0.858290	-0.000101
 610	6.0596e+01	7.8695	85.341012	0.000243	2.431924	0.411979	-0.000049
 611	6.0695e+01	7.8497	85.268344	0.000365	3.647886	0.617969	-0.000073
 612	6.0794e+01	7.8294	85.219898	0.000243	2.431924	0.411979	-0.000049
 613	6.0894e+01	7.8106	85.147230	0.000365	3.647886	0.617969	-0.000073
 614	6.0993e+01	7.7907	85.042264	0.000527	5.269169	0.892621	-0.000105
 615	6.1093e+01	7.7711	84.957484	0.000426	4.255867	0.720963	-0.000085
 616	6.1193e+01	7.7493	84.852519	0.000527	5.269169	0.892621	-0.000105
 617	6.1292e+01	7.7306	84.832333	0.000101	1.013302	0.171658	-0.000020
 618	6.1392e+01	7.7108	84.731405	0.000507	5.066509	0.858290	-0.000101
 619	6.1491e+01	7.6900	84.699108	0.000162	1.621283	0.274653	-0.000032
 620	6.1590e+01	7.6703	84.586068	0.000567	5.674490	0.961285	-0.000114
 621	6.1690e+01	7.6507	84.537622	0.000243	2.431924	0.411979	-0.000049
 622	6.1789e+01	7.6305	84.440731	0.000486	4.863848	0.823958	-0.000097
 623	6.1889e+01	7.6107	84.388248	0.000263	2.634585	0.446311	-0.000053
 624	6.1989e+01	7.5906	84.327691	0.000304	3.039905	0.514974	-0.000061
 625	6.2088e+01	7.5713	84.238874	0.000446	4.458528	0.755295	-0.000089
 626	6.2188e+01	7.5512	84.162169	0.000385	3.850547	0.652300	-0.000077
 627	6.2287e+01	7.5311	84.073352	0.000446	4.458528	0.755295	-0.000089
 628	6.2386e+01	7.5109	83.976460	0.000486	4.863848	0.823958	-0.000097
 629	6.2486e+01	7.4912	83.903792	0.000365	3.647886	0.617969	-0.000073
 630	6.2586e+01	7.4714	83.839198	0.000324	3.242566	0.549305	-0.000065
 631	6.2685e+01	7.4520	83.770567	0.000345	3.445226	0.583637	-0.000069
 632	6.2785e+01	7.4325	83.697898	0.000365	3.647886	0.617969	-0.000073
 633	6.2884e+01	7.4114	83.661564	0.000182	1.823943	0.308984	-0.000037
 634	6.2983e+01	7.3917	83.564673	0.000486	4.863848	0.823958	-0.000097
 635	6.3083e+01	7.3724	83.508153	0.000284	2.837245	0.480642	-0.000057
 636	6.3182e+01	7.3515	83.395113	0.000567	5.674490	0.961285	-0.000114
 637	6.3282e+01	7.3322	83.314370	0.000405	4.053207	0.686632	-0.000081
 638	6.3382e+01	7.3116	83.217479	0.000486	4.863848	0.823958	-0.000097
 639	6.3481e+01	7.2912	83.205368	0.000061	0.607981	0.102995	-0.000012
 640	6.3581e+01	7.2721	83.100402	0.000527	5.269169	0.892621	-0.000105
 641	6.3680e+01	7.2521	83.023696	0.000385	3.850547	0.652300	-0.000077
 642	6.3779e+01	7.2329	82.934879	0.000446	4.458528	0.755295	-0.000089
 643	6.3879e+01	7.2123	82.862211	0.000365	3.647886	0.617969	-0.000073
 644	6.3978e+01	7.1920	82.785505	0.000385	3.850547	0.652300	-0.000077
 645	6.4078e+01	7.1728	82.708800	0.000385	3.850547	0.652300	-0.000077
 646	6.4177e+01	7.1535	82.628057	0.000405	4.053207	0.686632	-0.000081
 647	6.4277e+01	7.1329	82.559426	0.000345	3.445226	0.583637	-0.000069
 648	6.4376e+01	7.1129	82.470609	0.000446	4.458528	0.755295	-0.000089
 649	6.4476e+01	7.0928	82.389866	0.000405	4.053207	0.686632	-0.000081
 650	6.4576e+01	7.0726	82.325272	0.000324	3.242566	0.549305	-0.000065
 651	6.4675e+01	7.0538	82.228381	0.000486	4.863848	0.823958	-0.000097
 652	6.4775e+01	7.0330	82.167824	0.000304	3.039905	0.514974	-0.000061
 653	6.4874e+01	7.0132	82.066895	0.000507	5.066509	0.858290	-0.000101
 654	6.4974e+01	6.9933	81.961930	0.000527	5.269169	0.892621	-0.000105
 655	6.5073e+01	6.9733	81.974041	-0.000061	-0.607981	-0.102995	0.000012
 656	6.5172e+01	6.9540	81.848890	0.000628	6.282471	1.064279	-0.000126
 657	6.5272e+01	6.9338	81.747962	0.000507	5.066509	0.858290	-0.000101
 658	6.5371e+01	6.9134	81.687405	0.000304	3.039905	0.514974	-0.000061
 659	6.5471e+01	6.8939	81.554179	0.000669	6.687792	1.132943	-0.000134
 660	6.5570e+01	6.8734	81.505733	0.000243	2.431924	0.411979	-0.000049
 661	6.5670e+01	6.8540	81.416916	0.000446	4.458528	0.755295	-0.000089
 662	6.5769e+01	6.8334	81.340211	0.000385	3.850547	0.652300	-0.000077
 663	6.5869e+01	6.8147	81.247357	0.000466	4.661188	0.789627	-0.000093
 664	6.5969e+01	6.7942	81.162577	0.000426	4.255867	0.720963	-0.000085
 665	6.6068e+01	6.7736	81.106057	0.000284	2.837245	0.480642	-0.000057
 666	6.6168e+01	6.7547	81.013203	0.000466	4.661188	0.789627	-0.000093
 667	6.6267e+01	6.7342	80.924386	0.000446	4.458528	0.755295	-0.000089
 668	6.6367e+01	6.7141	80.871903	0.000263	2.634585	0.446311	-0.000053
 669	6.6466e+01	6.6938	80.779049	0.000466	4.661188	0.789627	-0.000093
 670	6.6566e+01	6.6750	80.657935	0.000608	6.079810	1.029948	-0.000122
 671	6.6665e+01	6.6538	80.597378	0.000304	3.039905	0.514974	-0.000061
 672	6.6764e+01	6.6351	80.496449	0.000507	5.066509	0.858290	-0.000101
 673	6.6864e+01	6.6145	80.419744	0.000385	3.850547	0.652300	-0.000077
 674	6.6963e+01	6.5946	80.343038	0.000385	3.850547	0.652300	-0.000077
 675	6.7063e+01	6.5755	80.254221	0.000446	4.458528	0.755295	-0.000089
 676	6.7162e+01	6.5545	80.169441	0.000426	4.255867	0.720963	-0.000085
 677	6.7262e+01	6.5350	80.080624	0.000446	4.458528	0.755295	-0.000089
 678	6.7362e+01	6.5148	80.040253	0.000203	2.026603	0.343316	-0.000041
 679	6.7461e+01	6.4947	79.907028	0.000669	6.687792	1.132943	-0.000134
 680	6.7561e+01	6.4751	79.830322	0.000385	3.850547	0.652300	-0.000077
 681	6.7660e+01	6.4555	79.737468	0.000466	4.661188	0.789627	-0.000093
 682	6.7760e+01	6.4362	79.680948	0.000284	2.837245	0.480642	-0.000057
 683	6.7859e+01	6.4158	79.592131	0.000446	4.458528	0.755295	-0.000089
 684	6.7959e+01	6.3956	79.479091	0.000567	5.674490	0.961285	-0.000114
 685	6.8058e+01	6.3754	79.398349	0.000405	4.053207	0.686632	-0.000081
 686	6.8157e+01	6.3551	79.309532	0.000446	4.458528	0.755295	-0.000089
 687	6.8257e+01	6.3355	79.240900	0.000345	3.445226	0.583637	-0.000069
 688	6.8356e+01	6.3161	79.168232	0.000365	3.647886	0.617969	-0.000073
 689	6.8456e+01	6.2963	79.063266	0.000527	5.269169	0.892621	-0.000105
 690	6.8555e+01	6.2763	78.946189	0.000588	5.877150	0.995616	-0.000118
 691	6.8655e+01	6.2572	78.889669	0.000284	2.837245	0.480642	-0.000057
 692	6.8754e+01	6.2366	78.808927	0.000405	4.053207	0.686632	-0.000081
 693	6.8854e+01	6.2170	78.707998	0.000507	5.066509	0.858290	-0.000101
 694	6.8954e+01	6.1974	78.623218	0.000426	4.255867	0.720963	-0.000085
 695	6.9053e+01	6.1772	78.498067	0.000628	6.282471	1.064279	-0.000126
 696	6.9153e+01	6.1567	78.405213	0.000466	4.661188	0.789627	-0.000093
 697	6.9252e+01	6.1367	78.316396	0.000446	4.458528	0.755295	-0.000089
 698	6.9352e+01	6.1156	78.243728	0.000365	3.647886	0.617969	-0.000073
 699	6.9451e+01	6.0967	78.158948	0.000426	4.255867	0.720963	-0.000085
 700	6.9550e+01	6.0778	78.058019	0.000507	5.066509	0.858290	-0.000101
 701	6.9650e+01	6.0574	77.965165	0.000466	4.661188	0.789627	-0.000093
 702	6.9749e+01	6.0375	77.896534	0.000345	3.445226	0.583637	-0.000069
 703	6.9849e+01	6.0178	77.783494	0.000567	5.674490	0.961285	-0.000114
 704	6.9948e+01	5.9978	77.670454	0.000567	5.674490	0.961285	-0.000114
 705	7.0048e+01	5.9783	77.609897	0.000304	3.039905	0.514974	-0.000061
 706	7.0147e+01	5.9579	77.513006	0.000486	4.863848	0.823958	-0.000097
 707	7.0247e+01	5.9383	77.391892	0.000608	6.079810	1.029948	-0.000122
 708	7.0347e+01	5.9177	77.351521	0.000203	2.026603	0.343316	-0.000041
 709	7.0446e+01	5.8981	77.214258	0.000689	6.890452	1.167274	-0.000138
 710	7.0546e+01	5.8782	77.137553	0.000385	3.850547	0.652300	-0.000077
 711	7.0645e+01	5.8575	77.020476	0.000588	5.877150	0.995616	-0.000118
 712	7.0745e+01	5.8392	76.911473	0.000547	5.471829	0.926953	-0.000110
 713	7.0844e+01	5.8181	76.846879	0.000324	3.242566	0.549305	-0.000065
 714	7.0944e+01	5.7987	76.725765	0.000608	6.079810	1.029948	-0.000122
 715	7.1043e+01	5.7781	76.640985	0.000426	4.255867	0.720963	-0.000085
 716	7.1142e+01	5.7583	76.540056	0.000507	5.066509	0.858290	-0.000101
 717	7.1242e+01	5.7384	76.447202	0.000466	4.661188	0.789627	-0.000093
 718	7.1341e+01	5.7180	76.346274	0.000507	5.066509	0.858290	-0.000101
 719	7.1441e+01	5.6983	76.221123	0.000628	6.282471	1.064279	-0.000126
 720	7.1540e+01	5.6770	76.108083	0.000567	5.674490	0.961285	-0.000114
 721	7.1640e+01	5.6585	76.043489	0.000324	3.242566	0.549305	-0.000065
 722	7.1740e+01	5.6387	75.926412	0.000588	5.877150	0.995616	-0.000118
 723	7.1839e+01	5.6194	75.857781	0.000345	3.445226	0.583637	-0.000069
 724	7.1939e+01	5.5987	75.748778	0.000547	5.471829	0.926953	-0.000110
 725	7.2038e+01	5.5791	75.611515	0.000689	6.890452	1.167274	-0.000138
 726	7.2138e+01	5.5587	75.571144	0.000203	2.026603	0.343316	-0.000041
 727	7.2237e+01	5.5387	75.454067	0.000588	5.877150	0.995616	-0.000118
 728	7.2337e+01	5.5190	75.341027	0.000567	5.674490	0.961285	-0.000114
 729	7.2436e+01	5.4998	75.252210	0.000446	4.458528	0.755295	-0.000089
 730	7.2535e+01	5.4794	75.127059	0.000628	6.282471	1.064279	-0.000126
 731	7.2635e+01	5.4592	75.026131	0.000507	5.066509	0.858290	-0.000101
 732	7.2734e+01	5.4391	74.921165	0.000527	5.269169	0.892621	-0.000105
 733	7.2834e+01	5.4197	74.844459	0.000385	3.850547	0.652300	-0.000077
 734	7.2933e+01	5.4000	74.719308	0.000628	6.282471	1.064279	-0.000126
 735	7.3033e+01	5.3783	74.606268	0.000567	5.674490	0.961285	-0.000114
 736	7.3132e+01	5.3596	74.517451	0.000446	4.458528	0.755295	-0.000089
 737	7.3232e+01	5.3400	74.388263	0.000649	6.485131	1.098611	-0.000130
 738	7.3332e+01	5.3213	74.303483	0.000426	4.255867	0.720963	-0.000085
 739	7.3431e+01	5.2998	74.202555	0.000507	5.066509	0.858290	-0.000101
 740	7.3531e+01	5.2804	74.089515	0.000567	5.674490	0.961285	-0.000114
 741	7.3630e+01	5.2605	73.980512	0.000547	5.471829	0.926953	-0.000110
 742	7.3730e+01	5.2404	73.875547	0.000527	5.269169	0.892621	-0.000105
 743	7.3829e+01	5.2200	73.734247	0.000709	7.093112	1.201606	-0.000142
 744	7.3928e+01	5.2002	73.661579	0.000365	3.647886	0.617969	-0.000073
 745	7.4028e+01	5.1804	73.580836	0.000405	4.053207	0.686632	-0.000081
 746	7.4127e+01	5.1595	73.443573	0.000689	6.890452	1.167274	-0.000138
 747	7.4227e+01	5.1405	73.330534	0.000567	5.674490	0.961285	-0.000114
 748	7.4326e+01	5.1214	73.221531	0.000547	5.471829	0.926953	-0.000110
 749	7.4426e+01	5.1006	73.124640	0.000486	4.863848	0.823958	-0.000097
 750	7.4525e+01	5.0802	73.035823	0.000446	4.458528	0.755295	-0.000089
 751	7.4625e+01	5.0606	72.938931	0.000486	4.863848	0.823958	-0.000097
 752	7.4725e+01	5.0420	72.825892	0.000567	5.674490	0.961285	-0.000114
 753	7.4824e+01	5.0213	72.680555	0.000730	7.295773	1.235937	-0.000146
 754	7.4924e+01	5.0022	72.599812	0.000405	4.053207	0.686632	-0.000081
 755	7.5023e+01	4.9825	72.450438	0.000750	7.498433	1.270269	-0.000150
 756	7.5123e+01	4.9619	72.389881	0.000304	3.039905	0.514974	-0.000061
 757	7.5222e+01	4.9419	72.252618	0.000689	6.890452	1.167274	-0.000138
 758	7.5322e+01	4.9220	72.151690	0.000507	5.066509	0.858290	-0.000101
 759	7.5421e+01	4.9015	72.034613	0.000588	5.877150	0.995616	-0.000118
 760	7.5520e+01	4.8822	71.921573	0.000567	5.674490	0.961285	-0.000114
 761	7.5620e+01	4.8626	71.840830	0.000405	4.053207	0.686632	-0.000081
 762	7.5719e+01	4.8421	71.679345	0.000811	8.106414	1.373264	-0.000162
 763	7.5819e+01	4.8216	71.566305	0.000567	5.674490	0.961285	-0.000114
 764	7.5918e+01	4.8025	71.489600	0.000385	3.850547	0.652300	-0.000077
 765	7.6018e+01	4.7820	71.336188	0.000770	7.701093	1.304601	-0.000154
 766	7.6118e+01	4.7630	71.235260	0.000507	5.066509	0.858290	-0.000101
 767	7.6217e+01	4.7424	71.138369	0.000486	4.863848	0.823958	-0.000097
 768	7.6317e+01	4.7230	71.009180	0.000649	6.485131	1.098611	-0.000130
 769	7.6416e+01	4.7030	70.892104	0.000588	5.877150	0.995616	-0.000118
 770	7.6516e+01	4.6828	70.819435	0.000365	3.647886	0.617969	-0.000073
 771	7.6615e+01	4.6638	70.674098	0.000730	7.295773	1.235937	-0.000146
 772	7.6715e+01	4.6432	70.589318	0.000426	4.255867	0.720963	-0.000085
 773	7.6814e+01	4.6229	70.423796	0.000831	8.309074	1.407595	-0.000166
 774	7.6913e+01	4.6035	70.330942	0.000466	4.661188	0.789627	-0.000093
 775	7.7013e+01	4.5838	70.230013	0.000507	5.066509	0.858290	-0.000101
 776	7.7112e+01	4.5634	70.116973	0.000567	5.674490	0.961285	-0.000114
 777	7.7212e+01	4.5432	69.995859	0.000608	6.079810	1.029948	-0.000122
 778	7.7311e+01	4.5229	69.882820	0.000567	5.674490	0.961285	-0.000114
 779	7.7411e+01	4.5034	69.781891	0.000507	5.066509	0.858290	-0.000101
 780	7.7510e+01	4.4833	69.660777	0.000608	6.079810	1.029948	-0.000122
 781	7.7610e+01	4.4631	69.527552	0.000669	6.687792	1.132943	-0.000134
 782	7.7710e+01	4.4439	69.406438	0.000608	6.079810	1.029948	-0.000122
 783	7.7809e+01	4.4234	69.293398	0.000567	5.674490	0.961285	-0.000114
 784	7.7909e+01	4.4035	69.188432	0.000527	5.269169	0.892621	-0.000105
 785	7.8008e+01	4.3844	69.091541	0.000486	4.863848	0.823958	-0.000097
 786	7.8108e+01	4.3635	68.958316	0.000669	6.687792	1.132943	-0.000134
 787	7.8207e+01	4.3441	68.845276	0.000567	5.674490	0.961285	-0.000114
 788	7.8306e+01	4.3239	68.695902	0.000750	7.498433	1.270269	-0.000150
 789	7.8406e+01	4.3034	68.627270	0.000345	3.445226	0.583637	-0.000069
 790	7.8505e+01	4.2855	68.498082	0.000649	6.485131	1.098611	-0.000130
 791	7.8605e+01	4.2646	68.409265	0.000446	4.458528	0.755295	-0.000089
 792	7.8704e+01	4.2440	68.267965	0.000709	7.093112	1.201606	-0.000142
 793	7.8804e+01	4.2242	68.138777	0.000649	6.485131	1.098611	-0.000130
 794	7.8903e+01	4.2040	68.029774	0.000547	5.471829	0.926953	-0.000110
 795	7.9003e+01	4.1841	67.908660	0.000608	6.079810	1.029948	-0.000122
 796	7.9103e+01	4.1646	67.811769	0.000486	4.863848	0.823958	-0.000097
 797	7.9202e+01	4.1442	67.662395	0.000750	7.498433	1.270269	-0.000150
 798	7.9302e+01	4.1241	67.573578	0.000446	4.458528	0.755295	-0.000089
 799	7.9401e+01	4.1042	67.432278	0.000709	7.093112	1.201606	-0.000142
 800	7.9501e+01	4.0847	67.303090	0.000649	6.485131	1.098611	-0.000130
 801	7.9600e+01	4.0653	67.214273	0.000446	4.458528	0.755295	-0.000089
 802	7.9700e+01	4.0453	67.117382	0.000486	4.863848	0.823958	-0.000097
 803	7.9799e+01	4.0249	66.996268	0.000608	6.079810	1.029948	-0.000122
 804	7.9898e+01	4.0054	66.850931	0.000730	7.295773	1.235937	-0.000146
 805	7.9998e+01	3.9847	66.745965	0.000527	5.269169	0.892621	-0.000105
 806	8.0097e+01	3.9651	66.624851	0.000608	6.079810	1.029948	-0.000122
 807	8.0197e+01	3.9443	66.495663	0.000649	6.485131	1.098611	-0.000130
 808	8.0296e+01	3.9254	66.398771	0.000486	4.863848	0.823958	-0.000097
 809	8.0396e+01	3.9050	66.245360	0.000770	7.701093	1.304601	-0.000154
 810	8.0496e+01	3.8850	66.164618	0.000405	4.053207	0.686632	-0.000081
 811	8.0595e+01	3.8662	66.067726	0.000486	4.863848	0.823958	-0.000097
 812	8.0695e+01	3.8462	65.906241	0.000811	8.106414	1.373264	-0.000162
 813	8.0794e+01	3.8261	65.833572	0.000365	3.647886	0.617969	-0.000073
 814	8.0894e+01	3.8041	65.672087	0.000811	8.106414	1.373264	-0.000162
 815	8.0993e+01	3.7855	65.559047	0.000567	5.674490	0.961285	-0.000114
 816	8.1093e+01	3.7663	65.482342	0.000385	3.850547	0.652300	-0.000077
 817	8.1192e+01	3.7469	65.324893	0.000790	7.903754	1.338932	-0.000158
 818	8.1291e+01	3.7258	65.215891	0.000547	5.471829	0.926953	-0.000110
 819	8.1391e+01	3.7058	65.074591	0.000709	7.093112	1.201606	-0.000142
 820	8.1490e+01	3.6866	64.973663	0.000507	5.066509	0.858290	-0.000101
 821	8.1590e+01	3.6672	64.852548	0.000608	6.079810	1.029948	-0.000122
 822	8.1689e+01	3.6474	64.751620	0.000507	5.066509	0.858290	-0.000101
 823	8.1789e+01	3.6274	64.626469	0.000628	6.282471	1.064279	-0.000126
 824	8.1888e+01	3.6064	64.533615	0.000466	4.661188	0.789627	-0.000093
 825	8.1988e+01	3.5870	64.372129	0.000811	8.106414	1.373264	-0.000162
 826	8.2088e+01	3.5659	64.251015	0.000608	6.079810	1.029948	-0.000122
 827	8.2187e+01	3.5471	64.129901	0.000608	6.079810	1.029948	-0.000122
 828	8.2287e+01	3.5271	64.041084	0.000446	4.458528	0.755295	-0.000089
 829	8.2386e+01	3.5069	63.899784	0.000709	7.093112	1.201606	-0.000142
 830	8.2486e+01	3.4869	63.774633	0.000628	6.282471	1.064279	-0.000126
 831	8.2585e+01	3.4667	63.689853	0.000426	4.255867	0.720963	-0.000085
 832	8.2684e+01	3.4472	63.524331	0.000831	8.309074	1.407595	-0.000166
 833	8.2784e+01	3.4277	63.439551	0.000426	4.255867	0.720963	-0.000085
 834	8.2883e+01	3.4071	63.310363	0.000649	6.485131	1.098611	-0.000130
 835	8.2983e+01	3.3892	63.156951	0.000770	7.701093	1.304601	-0.000154
 836	8.3082e+01	3.3675	63.031800	0.000628	6.282471	1.064279	-0.000126
 837	8.3182e+01	3.3486	62.947020	0.000426	4.255867	0.720963	-0.000085
 838	8.3281e+01	3.3274	62.842055	0.000527	5.269169	0.892621	-0.000105
 839	8.3381e+01	3.3086	62.708829	0.000669	6.687792	1.132943	-0.000134
 840	8.3481e+01	3.2882	62.563493	0.000730	7.295773	1.235937	-0.000146
 841	8.3580e+01	3.2674	62.474676	0.000446	4.458528	0.755295	-0.000089
 842	8.3680e+01	3.2478	62.329339	0.000730	7.295773	1.235937	-0.000146
 843	8.3779e+01	3.2279	62.224373	0.000527	5.269169	0.892621	-0.000105
 844	8.3879e+01	3.2069	62.070962	0.000770	7.701093	1.304601	-0.000154
 845	8.3978e+01	3.1876	61.961959	0.000547	5.471829	0.926953	-0.000110
 846	8.4078e+01	3.1683	61.856994	0.000527	5.269169	0.892621	-0.000105
 847	8.4177e+01	3.1487	61.703583	0.000770	7.701093	1.304601	-0.000154
 848	8.4276e+01	3.1281	61.622840	0.000405	4.053207	0.686632	-0.000081
 849	8.4376e+01	3.1091	61.453280	0.000851	8.511735	1.441927	-0.000170
 850	8.4475e+01	3.0879	61.352352	0.000507	5.066509	0.858290	-0.000101
 851	8.4575e+01	3.0686	61.202978	0.000750	7.498433	1.270269	-0.000150
 852	8.4674e+01	3.0495	61.126272	0.000385	3.850547	0.652300	-0.000077
 853	8.4774e+01	3.0279	60.972861	0.000770	7.701093	1.304601	-0.000154
 854	8.4874e+01	3.0083	60.871933	0.000507	5.066509	0.858290	-0.000101
 855	8.4973e+01	2.9882	60.722559	0.000750	7.498433	1.270269	-0.000150
 856	8.5073e+01	2.9693	60.593370	0.000649	6.485131	1.098611	-0.000130
 857	8.5172e+01	2.9494	60.512628	0.000405	4.053207	0.686632	-0.000081
 858	8.5272e+01	2.9288	60.383439	0.000649	6.485131	1.098611	-0.000130
 859	8.5371e+01	2.9095	60.205805	0.000892	8.917055	1.510590	-0.000179
 860	8.5471e+01	2.8893	60.104877	0.000507	5.066509	0.858290	-0.000101
 861	8.5570e+01	2.8694	60.003948	0.000507	5.066509	0.858290	-0.000101
 862	8.5669e+01	2.8493	59.907057	0.000486	4.863848	0.823958	-0.000097
 863	8.5769e+01	2.8295	59.737498	0.000851	8.511735	1.441927	-0.000170
 864	8.5868e+01	2.8088	59.636569	0.000507	5.066509	0.858290	-0.000101
 865	8.5968e+01	2.7905	59.499307	0.000689	6.890452	1.167274	-0.000138
 866	8.6067e+01	2.7692	59.410490	0.000446	4.458528	0.755295	-0.000089
 867	8.6167e+01	2.7496	59.261115	0.000750	7.498433	1.270269	-0.000150
 868	8.6266e+01	2.7294	59.148076	0.000567	5.674490	0.961285	-0.000114
 869	8.6366e+01	2.7097	59.010813	0.000689	6.890452	1.167274	-0.000138
 870	8.6466e+01	2.6897	58.857402	0.000770	7.701093	1.304601	-0.000154
 871	8.6565e+01	2.6701	58.728214	0.000649	6.485131	1.098611	-0.000130
 872	8.6665e+01	2.6513	58.607100	0.000608	6.079810	1.029948	-0.000122
 873	8.6764e+01	2.6310	58.465800	0.000709	7.093112	1.201606	-0.000142
 874	8.6864e+01	2.6103	58.368909	0.000486	4.863848	0.823958	-0.000097
 875	8.6963e+01	2.5903	58.219534	0.000750	7.498433	1.270269	-0.000150
 876	8.7063e+01	2.5697	58.074198	0.000730	7.295773	1.235937	-0.000146
 877	8.7162e+01	2.5512	57.957121	0.000588	5.877150	0.995616	-0.000118
 878	8.7261e+01	2.5307	57.811784	0.000730	7.295773	1.235937	-0.000146
 879	8.7361e+01	2.5112	57.694707	0.000588	5.877150	0.995616	-0.000118
 880	8.7460e+01	2.4917	57.581667	0.000567	5.674490	0.961285	-0.000114
 881	8.7560e+01	2.4712	57.436330	0.000730	7.295773	1.235937	-0.000146
 882	8.7659e+01	2.4511	57.311179	0.000628	6.282471	1.064279	-0.000126
 883	8.7759e+01	2.4319	57.194102	0.000588	5.877150	0.995616	-0.000118
 884	8.7859e+01	2.4107	57.060877	0.000669	6.687792	1.132943	-0.000134
 885	8.7958e+01	2.3906	56.891317	0.000851	8.511735	1.441927	-0.000170
 886	8.8058e+01	2.3711	56.834797	0.000284	2.837245	0.480642	-0.000057
 887	8.8157e+01	2.3517	56.665237	0.000851	8.511735	1.441927	-0.000170
 888	8.8257e+01	2.3309	56.499715	0.000831	8.309074	1.407595	-0.000166
 889	8.8356e+01	2.3113	56.358415	0.000709	7.093112	1.201606	-0.000142
 890	8.8456e+01	2.2910	56.217115	0.000709	7.093112	1.201606	-0.000142
 891	8.8555e+01	2.2717	56.124261	0.000466	4.661188	0.789627	-0.000093
 892	8.8654e+01	2.2522	56.011221	0.000567	5.674490	0.961285	-0.000114
 893	8.8754e+01	2.2323	55.841662	0.000851	8.511735	1.441927	-0.000170
 894	8.8853e+01	2.2119	55.732659	0.000547	5.471829	0.926953	-0.000110
 895	8.8953e+01	2.1923	55.579248	0.000770	7.701093	1.304601	-0.000154
 896	8.9052e+01	2.1719	55.437948	0.000709	7.093112	1.201606	-0.000142
 897	8.9152e+01	2.1508	55.337020	0.000507	5.066509	0.858290	-0.000101
 898	8.9251e+01	2.1316	55.203794	0.000669	6.687792	1.132943	-0.000134
 899	8.9351e+01	2.1129	55.058457	0.000730	7.295773	1.235937	-0.000146
 900	8.9451e+01	2.0914	54.892935	0.000831	8.309074	1.407595	-0.000166
 901	8.9550e+01	2.0722	54.804118	0.000446	4.458528	0.755295	-0.000089
 902	8.9650e+01	2.0522	54.634558	0.000851	8.511735	1.441927	-0.000170
 903	8.9749e+01	2.0321	54.541704	0.000466	4.661188	0.789627	-0.000093
 904	8.9849e+01	2.0127	54.376181	0.000831	8.309074	1.407595	-0.000166
 905	8.9948e+01	1.9921	54.218733	0.000790	7.903754	1.338932	-0.000158
 906	9.0047e+01	1.9718	54.073396	0.000730	7.295773	1.235937	-0.000146
 907	9.0147e+01	1.9543	53.988616	0.000426	4.255867	0.720963	-0.000085
 908	9.0246e+01	1.9321	53.815019	0.000871	8.714395	1.476258	-0.000174
 909	9.0346e+01	1.9125	53.661608	0.000770	7.701093	1.304601	-0.000154
 910	9.0445e+01	1.8922	53.564717	0.000486	4.863848	0.823958	-0.000097
 911	9.0545e+01	1.8739	53.399194	0.000831	8.309074	1.407595	-0.000166
 912	9.0644e+01	1.8534	53.278080	0.000608	6.079810	1.029948	-0.000122
 913	9.0744e+01	1.8340	53.132743	0.000730	7.295773	1.235937	-0.000146
 914	9.0844e+01	1.8137	53.027778	0.000527	5.269169	0.892621	-0.000105
 915	9.0943e+01	1.7941	52.842070	0.000932	9.322376	1.579253	-0.000187
 916	9.1043e+01	1.7741	52.716918	0.000628	6.282471	1.064279	-0.000126
 917	9.1142e+01	1.7534	52.595804	0.000608	6.079810	1.029948	-0.000122
 918	9.1242e+01	1.7342	52.442393	0.000770	7.701093	1.304601	-0.000154
 919	9.1341e+01	1.7135	52.317242	0.000628	6.282471	1.064279	-0.000126
 920	9.1441e+01	1.6947	52.163831	0.000770	7.701093	1.304601	-0.000154
 921	9.1540e+01	1.6745	52.006383	0.000790	7.903754	1.338932	-0.000158
 922	9.1639e+01	1.6549	51.873157	0.000669	6.687792	1.132943	-0.000134
 923	9.1739e+01	1.6348	51.723783	0.000750	7.498433	1.270269	-0.000150
 924	9.1838e+01	1.6131	51.622855	0.000507	5.066509	0.858290	-0.000101
 925	9.1938e+01	1.5942	51.469444	0.000770	7.701093	1.304601	-0.000154
 926	9.2037e+01	1.5736	51.328144	0.000709	7.093112	1.201606	-0.000142
 927	9.2137e+01	1.5540	51.178770	0.000750	7.498433	1.270269	-0.000150
 928	9.2237e+01	1.5344	51.053619	0.000628	6.282471	1.064279	-0.000126
 929	9.2336e+01	1.5147	50.924430	0.000649	6.485131	1.098611	-0.000130
 930	9.2436e+01	1.4934	50.738722	0.000932	9.322376	1.579253	-0.000187
 931	9.2535e+01	1.4742	50.597422	0.000709	7.093112	1.201606	-0.000142
 932	9.2635e+01	1.4546	50.460160	0.000689	6.890452	1.167274	-0.000138
 933	9.2734e+01	1.4349	50.326934	0.000669	6.687792	1.132943	-0.000134
 934	9.2834e+01	1.4143	50.189671	0.000689	6.890452	1.167274	-0.000138
 935	9.2933e+01	1.3943	50.052409	0.000689	6.890452	1.167274	-0.000138
 936	9.3032e+01	1.3747	49.919183	0.000669	6.687792	1.132943	-0.000134
 937	9.3132e+01	1.3560	49.773847	0.000730	7.295773	1.235937	-0.000146
 938	9.3231e+01	1.3345	49.608324	0.000831	8.309074	1.407595	-0.000166
 939	9.3331e+01	1.3153	49.499321	0.000547	5.471829	0.926953	-0.000110
 940	9.3430e+01	1.2953	49.374170	0.000628	6.282471	1.064279	-0.000126
 941	9.3530e+01	1.2756	49.204610	0.000851	8.511735	1.441927	-0.000170
 942	9.3629e+01	1.2560	49.075422	0.000649	6.485131	1.098611	-0.000130
 943	9.3729e+01	1.2358	48.930085	0.000730	7.295773	1.235937	-0.000146
 944	9.3829e+01	1.2160	48.808971	0.000608	6.079810	1.029948	-0.000122
 945	9.3928e+01	1.1958	48.659597	0.000750	7.498433	1.270269	-0.000150
 946	9.4028e+01	1.1755	48.498112	0.000811	8.106414	1.373264	-0.000162
 947	9.4127e+01	1.1568	48.401220	0.000486	4.863848	0.823958	-0.000097
 948	9.4227e+01	1.1360	48.235698	0.000831	8.309074	1.407595	-0.000166
 949	9.4326e+01	1.1163	48.086324	0.000750	7.498433	1.270269	-0.000150
 950	9.4425e+01	1.0961	47.949061	0.000689	6.890452	1.167274	-0.000138
 951	9.4525e+01	1.0759	47.791613	0.000790	7.903754	1.338932	-0.000158
 952	9.4624e+01	1.0567	47.626090	0.000831	8.309074	1.407595	-0.000166
 953	9.4724e+01	1.0359	47.472679	0.000770	7.701093	1.304601	-0.000154
 954	9.4823e+01	1.0168	47.359639	0.000567	5.674490	0.961285	-0.000114
 955	9.4923e+01	0.9967	47.222377	0.000689	6.890452	1.167274	-0.000138
 956	9.5022e+01	0.9763	47.093188	0.000649	6.485131	1.098611	-0.000130
 957	9.5122e+01	0.9573	46.895369	0.000993	9.930357	1.682248	-0.000199
 958	9.5222e+01	0.9368	46.786366	0.000547	5.471829	0.926953	-0.000110
 959	9.5321e+01	0.9171	46.673326	0.000567	5.674490	0.961285	-0.000114
 960	9.5421e+01	0.8967	46.519915	0.000770	7.701093	1.304601	-0.000154
 961	9.5520e+01	0.8775	46.366504	0.000770	7.701093	1.304601	-0.000154
 962	9.5620e+01	0.8571	46.229241	0.000689	6.890452	1.167274	-0.000138
 963	9.5719e+01	0.8376	46.079867	0.000750	7.498433	1.270269	-0.000150
 964	9.5819e+01	0.8183	45.938568	0.000709	7.093112	1.201606	-0.000142
 965	9.5918e+01	0.7971	45.789194	0.000750	7.498433	1.270269	-0.000150
 966	9.6017e+01	0.7776	45.680191	0.000547	5.471829	0.926953	-0.000110
 967	9.6117e+01	0.7578	45.522743	0.000790	7.903754	1.338932	-0.000158
 968	9.6216e+01	0.7369	45.405666	0.000588	5.877150	0.995616	-0.000118
 969	9.6316e+01	0.7177	45.219957	0.000932	9.322376	1.579253	-0.000187
 970	9.6415e+01	0.6973	45.106918	0.000567	5.674490	0.961285	-0.000114
 971	9.6515e+01	0.6776	44.949469	0.000790	7.903754	1.338932	-0.000158
 972	9.6615e+01	0.6581	44.796058	0.000770	7.701093	1.304601	-0.000154
 973	9.6714e+01	0.6380	44.674944	0.000608	6.079810	1.029948	-0.000122
 974	9.6814e+01	0.6174	44.533644	0.000709	7.093112	1.201606	-0.000142
 975	9.6913e+01	0.5975	44.376196	0.000790	7.903754	1.338932	-0.000158
 976	9.7013e+01	0.5785	44.247008	0.000649	6.485131	1.098611	-0.000130
 977	9.7112e+01	0.5587	44.081485	0.000831	8.309074	1.407595	-0.000166
 978	9.7212e+01	0.5390	43.920000	0.000811	8.106414	1.373264	-0.000162
 979	9.7311e+01	0.5178	43.823108	0.000486	4.863848	0.823958	-0.000097
 980	9.7410e+01	0.4993	43.645474	0.000892	8.917055	1.510590	-0.000179
 981	9.7510e+01	0.4778	43.536472	0.000547	5.471829	0.926953	-0.000110
 982	9.7609e+01	0.4588	43.399209	0.000689	6.890452	1.167274	-0.000138
 983	9.7709e+01	0.4379	43.274058	0.000628	6.282471	1.064279	-0.000126
 984	9.7808e+01	0.4185	43.096424	0.000892	8.917055	1.510590	-0.000179
 985	9.7908e+01	0.3992	42.975310	0.000608	6.079810	1.029948	-0.000122
 986	9.8007e+01	0.3786	42.834010	0.000709	7.093112	1.201606	-0.000142
 987	9.8107e+01	0.3590	42.700785	0.000669	6.687792	1.132943	-0.000134
 988	9.8207e+01	0.3394	42.543336	0.000790	7.903754	1.338932	-0.000158
 989	9.8306e+01	0.3196	42.414148	0.000649	6.485131	1.098611	-0.000130
 990	9.8406e+01	0.2991	42.252663	0.000811	8.106414	1.373264	-0.000162
 991	9.8505e+01	0.2788	42.091177	0.000811	8.106414	1.373264	-0.000162
 992	9.8605e+01	0.2586	41.990249	0.000507	5.066509	0.858290	-0.000101
 993	9.8704e+01	0.2393	41.836838	0.000770	7.701093	1.304601	-0.000154
 994	9.8803e+01	0.2191	41.711686	0.000628	6.282471	1.064279	-0.000126
 995	9.8903e+01	0.1991	41.586535	0.000628	6.282471	1.064279	-0.000126
 996	9.9002e+01	0.1792	41.400827	0.000932	9.322376	1.579253	-0.000187
 997	9.9102e+01	0.1592	41.259527	0.000709	7.093112	1.201606	-0.000142
 998	9.9201e+01	0.1390	41.126302	0.000669	6.687792	1.132943	-0.000134
 999	9.9301e+01	0.1197	40.993076	0.000669	6.687792	1.132943	-0.000134
1000	9.9400e+01	0.1001	40.827554	0.000831	8.309074	1.407595	-0.000166
1001	9.9500e+01	0.0797	40.686254	0.000709	7.093112	1.201606	-0.000142
1002	9.9600e+01	0.0597	40.561103	0.000628	6.282471	1.064279	-0.000126
1003	9.9699e+01	0.0395	40.423840	0.000689	6.890452	1.167274	-0.000138
1004	9.9799e+01	0.0208	40.230058	0.000973	9.727697	1.647916	-0.000195
1005	9.9898e+01	0.0008	40.100869	0.000649	6.485131	1.098611	-0.000130
1006	9.9998e+01	-0.0185	39.999941	0.000507	5.066509	0.858290	-0.000101
1007	1.0010e+02	-0.0372	39.858641	0.000709	7.093112	1.201606	-0.000142
1008	1.0020e+02	-0.0581	39.745601	0.000567	5.674490	0.961285	-0.000114
1009	1.0030e+02	-0.0775	39.543745	0.001013	10.133017	1.716580	-0.000203
1010	1.0040e+02	-0.0975	39.422630	0.000608	6.079810	1.029948	-0.000122
1011	1.0050e+02	-0.1179	39.285368	0.000689	6.890452	1.167274	-0.000138
1012	1.0059e+02	-0.1377	39.140031	0.000730	7.295773	1.235937	-0.000146
1013	1.0069e+02	-0.1578	39.010843	0.000649	6.485131	1.098611	-0.000130
1014	1.0079e+02	-0.1773	38.865506	0.000730	7.295773	1.235937	-0.000146
1015	1.0089e+02	-0.1969	38.728243	0.000689	6.890452	1.167274	-0.000138
1016	1.0099e+02	-0.2166	38.562721	0.000831	8.309074	1.407595	-0.000166
1017	1.0109e+02	-0.2370	38.393161	0.000851	8.511735	1.441927	-0.000170
1018	1.0119e+02	-0.2578	38.263973	0.000649	6.485131	1.098611	-0.000130
1019	1.0129e+02	-0.2776	38.126710	0.000689	6.890452	1.167274	-0.000138
1020	1.0139e+02	-0.2969	37.981373	0.000730	7.295773	1.235937	-0.000146
1021	1.0149e+02	-0.3168	37.844110	0.000689	6.890452	1.167274	-0.000138
1022	1.0159e+02	-0.3368	37.686662	0.000790	7.903754	1.338932	-0.000158
1023	1.0169e+02	-0.3564	37.577659	0.000547	5.471829	0.926953	-0.000110
1024	1.0179e+02	-0.3774	37.412137	0.000831	8.309074	1.407595	-0.000166
1025	1.0189e+02	-0.3964	37.270837	0.000709	7.093112	1.201606	-0.000142
1026	1.0199e+02	-0.4164	37.125500	0.000730	7.295773	1.235937	-0.000146
1027	1.0209e+02	-0.4368	36.996312	0.000649	6.485131	1.098611	-0.000130
1028	1.0219e+02	-0.4570	36.863086	0.000669	6.687792	1.132943	-0.000134
1029	1.0229e+02	-0.4772	36.701601	0.000811	8.106414	1.373264	-0.000162
1030	1.0239e+02	-0.4972	36.584524	0.000588	5.877150	0.995616	-0.000118
1031	1.0248e+02	-0.5151	36.414964	0.000851	8.511735	1.441927	-0.000170
1032	1.0258e+02	-0.5365	36.273665	0.000709	7.093112	1.201606	-0.000142
1033	1.0268e+02	-0.5562	36.104105	0.000851	8.511735	1.441927	-0.000170
1034	1.0278e+02	-0.5758	35.950694	0.000770	7.701093	1.304601	-0.000154
1035	1.0288e+02	-0.5966	35.845728	0.000527	5.269169	0.892621	-0.000105
1036	1.0298e+02	-0.6168	35.692317	0.000770	7.701093	1.304601	-0.000154
1037	1.0308e+02	-0.6365	35.583314	0.000547	5.471829	0.926953	-0.000110
1038	1.0318e+02	-0.6557	35.413755	0.000851	8.511735	1.441927	-0.000170
1039	1.0328e+02	-0.6763	35.264381	0.000750	7.498433	1.270269	-0.000150
1040	1.0338e+02	-0.6958	35.106932	0.000790	7.903754	1.338932	-0.000158
1041	1.0348e+02	-0.7153	34.973707	0.000669	6.687792	1.132943	-0.000134
1042	1.0358e+02	-0.7362	34.824333	0.000750	7.498433	1.270269	-0.000150
1043	1.0368e+02	-0.7555	34.654773	0.000851	8.511735	1.441927	-0.000170
1044	1.0378e+02	-0.7755	34.525585	0.000649	6.485131	1.098611	-0.000130
1045	1.0388e+02	-0.7957	34.335839	0.000953	9.525036	1.613585	-0.000191
1046	1.0398e+02	-0.8165	34.242985	0.000466	4.661188	0.789627	-0.000093
1047	1.0408e+02	-0.8355	34.085537	0.000790	7.903754	1.338932	-0.000158
1048	1.0418e+02	-0.8556	33.911940	0.000871	8.714395	1.476258	-0.000174
1049	1.0428e+02	-0.8759	33.782752	0.000649	6.485131	1.098611	-0.000130
1050	1.0438e+02	-0.8951	33.657601	0.000628	6.282471	1.064279	-0.000126
1051	1.0447e+02	-0.9161	33.475930	0.000912	9.119716	1.544922	-0.000183
1052	1.0457e+02	-0.9350	33.310407	0.000831	8.309074	1.407595	-0.000166
1053	1.0467e+02	-0.9544	33.177181	0.000669	6.687792	1.132943	-0.000134
1054	1.0477e+02	-0.9748	33.027807	0.000750	7.498433	1.270269	-0.000150
1055	1.0487e+02	-0.9939	32.882471	0.000730	7.295773	1.235937	-0.000146
1056	1.0497e+02	-1.0144	32.725022	0.000790	7.903754	1.338932	-0.000158
1057	1.0507e+02	-1.0337	32.579685	0.000730	7.295773	1.235937	-0.000146
1058	1.0517e+02	-1.0547	32.426274	0.000770	7.701093	1.304601	-0.000154
1059	1.0527e+02	-1.0741	32.284974	0.000709	7.093112	1.201606	-0.000142
1060	1.0537e+02	-1.0944	32.107341	0.000892	8.917055	1.510590	-0.000179
1061	1.0547e+02	-1.1141	31.970078	0.000689	6.890452	1.167274	-0.000138
1062	1.0557e+02	-1.1340	31.848964	0.000608	6.079810	1.029948	-0.000122
1063	1.0567e+02	-1.1540	31.679404	0.000851	8.511735	1.441927	-0.000170
1064	1.0577e+02	-1.1740	31.525993	0.000770	7.701093	1.304601	-0.000154
1065	1.0587e+02	-1.1942	31.376619	0.000750	7.498433	1.270269	-0.000150
1066	1.0597e+02	-1.2138	31.243393	0.000669	6.687792	1.132943	-0.000134
1067	1.0607e+02	-1.2340	31.065760	0.000892	8.917055	1.510590	-0.000179
1068	1.0617e+02	-1.2542	30.936571	0.000649	6.485131	1.098611	-0.000130
1069	1.0627e+02	-1.2737	30.799309	0.000689	6.890452	1.167274	-0.000138
1070	1.0637e+02	-1.2927	30.609563	0.000953	9.525036	1.613585	-0.000191
1071	1.0647e+02	-1.3123	30.492486	0.000588	5.877150	0.995616	-0.000118
1072	1.0656e+02	-1.3335	30.347149	0.000730	7.295773	1.235937	-0.000146
1073	1.0666e+02	-1.3528	30.185664	0.000811	8.106414	1.373264	-0.000162
1074	1.0676e+02	-1.3740	30.044364	0.000709	7.093112	1.201606	-0.000142
1075	1.0686e+02	-1.3934	29.846545	0.000993	9.930357	1.682248	-0.000199
1076	1.0696e+02	-1.4128	29.741579	0.000527	5.269169	0.892621	-0.000105
1077	1.0706e+02	-1.4324	29.547796	0.000973	9.727697	1.647916	-0.000195
1078	1.0716e+02	-1.4534	29.463017	0.000426	4.255867	0.720963	-0.000085
1079	1.0726e+02	-1.4709	29.277308	0.000932	9.322376	1.579253	-0.000187
1080	1.0736e+02	-1.4923	29.111786	0.000831	8.309074	1.407595	-0.000166
1081	1.0746e+02	-1.5128	28.962412	0.000750	7.498433	1.270269	-0.000150
1082	1.0756e+02	-1.5328	28.813038	0.000750	7.498433	1.270269	-0.000150
1083	1.0766e+02	-1.5524	28.683849	0.000649	6.485131	1.098611	-0.000130
1084	1.0776e+02	-1.5726	28.477955	0.001034	10.335678	1.750911	-0.000207
1085	1.0786e+02	-1.5924	28.340693	0.000689	6.890452	1.167274	-0.000138
1086	1.0796e+02	-1.6116	28.187282	0.000770	7.701093	1.304601	-0.000154
1087	1.0806e+02	-1.6317	28.029833	0.000790	7.903754	1.338932	-0.000158
1088	1.0816e+02	-1.6519	27.904682	0.000628	6.282471	1.064279	-0.000126
1089	1.0826e+02	-1.6711	27.763382	0.000709	7.093112	1.201606	-0.000142
1090	1.0836e+02	-1.6925	27.589786	0.000871	8.714395	1.476258	-0.000174
1091	1.0845e+02	-1.7117	27.448486	0.000709	7.093112	1.201606	-0.000142
1092	1.0855e+02	-1.7326	27.282963	0.000831	8.309074	1.407595	-0.000166
1093	1.0865e+02	-1.7534	27.133589	0.000750	7.498433	1.270269	-0.000150
1094	1.0875e+02	-1.7712	26.972104	0.000811	8.106414	1.373264	-0.000162
1095	1.0885e+02	-1.7918	26.810618	0.000811	8.106414	1.373264	-0.000162
1096	1.0895e+02	-1.8120	26.669319	0.000709	7.093112	1.201606	-0.000142
1097	1.0905e+02	-1.8309	26.503796	0.000831	8.309074	1.407595	-0.000166
1098	1.0915e+02	-1.8506	26.342311	0.000811	8.106414	1.373264	-0.000162
1099	1.0925e+02	-1.8718	26.221197	0.000608	6.079810	1.029948	-0.000122
1100	1.0935e+02	-1.8915	26.051637	0.000851	8.511735	1.441927	-0.000170
1101	1.0945e+02	-1.9113	25.878040	0.000871	8.714395	1.476258	-0.000174
1102	1.0955e+02	-1.9312	25.769037	0.000547	5.471829	0.926953	-0.000110
1103	1.0965e+02	-1.9511	25.595441	0.000871	8.714395	1.476258	-0.000174
1104	1.0975e+02	-1.9711	25.454141	0.000709	7.093112	1.201606	-0.000142
1105	1.0985e+02	-1.9918	25.316878	0.000689	6.890452	1.167274	-0.000138
1106	1.0995e+02	-2.0102	25.151356	0.000831	8.309074	1.407595	-0.000166
1107	1.1005e+02	-2.0308	24.989870	0.000811	8.106414	1.373264	-0.000162
1108	1.1015e+02	-2.0512	24.828385	0.000811	8.106414	1.373264	-0.000162
1109	1.1025e+02	-2.0703	24.683048	0.000730	7.295773	1.235937	-0.000146
1110	1.1035e+02	-2.0904	24.549822	0.000669	6.687792	1.132943	-0.000134
1111	1.1044e+02	-2.1106	24.364114	0.000932	9.322376	1.579253	-0.000187
1112	1.1054e+02	-2.1295	24.190517	0.000871	8.714395	1.476258	-0.000174
1113	1.1064e+02	-2.1499	24.024995	0.000831	8.309074	1.407595	-0.000166
1114	1.1074e+02	-2.1696	23.907918	0.000588	5.877150	0.995616	-0.000118
1115	1.1084e+02	-2.1902	23.742395	0.000831	8.309074	1.407595	-0.000166
1116	1.1094e+02	-2.2103	23.601096	0.000709	7.093112	1.201606	-0.000142
1117	1.1104e+02	-2.2301	23.459796	0.000709	7.093112	1.201606	-0.000142
1118	1.1114e+02	-2.2513	23.310422	0.000750	7.498433	1.270269	-0.000150
1119	1.1124e+02	-2.2701	23.169122	0.000709	7.093112	1.201606	-0.000142
1120	1.1134e+02	-2.2907	22.987451	0.000912	9.119716	1.544922	-0.000183
1121	1.1144e+02	-2.3093	22.854225	0.000669	6.687792	1.132943	-0.000134
1122	1.1154e+02	-2.3308	22.708889	0.000730	7.295773	1.235937	-0.000146
1123	1.1164e+02	-2.3499	22.567589	0.000709	7.093112	1.201606	-0.000142
1124	1.1174e+02	-2.3691	22.393992	0.000871	8.714395	1.476258	-0.000174
1125	1.1184e+02	-2.3889	22.212321	0.000912	9.119716	1.544922	-0.000183
1126	1.1194e+02	-2.4097	22.091207	0.000608	6.079810	1.029948	-0.000122
1127	1.1204e+02	-2.4304	21.941833	0.000750	7.498433	1.270269	-0.000150
1128	1.1214e+02	-2.4503	21.784384	0.000790	7.903754	1.338932	-0.000158
1129	1.1224e+02	-2.4698	21.651159	0.000669	6.687792	1.132943	-0.000134
1130	1.1234e+02	-2.4888	21.509859	0.000709	7.093112	1.201606	-0.000142
1131	1.1244e+02	-2.5082	21.324151	0.000932	9.322376	1.579253	-0.000187
1132	1.1253e+02	-2.5282	21.174777	0.000750	7.498433	1.270269	-0.000150
1133	1.1263e+02	-2.5491	21.053663	0.000608	6.079810	1.029948	-0.000122
1134	1.1273e+02	-2.5687	20.884103	0.000851	8.511735	1.441927	-0.000170
1135	1.1283e+02	-2.5882	20.734729	0.000750	7.498433	1.270269	-0.000150
1136	1.1293e+02	-2.6083	20.597467	0.000689	6.890452	1.167274	-0.000138
1137	1.1303e+02	-2.6284	20.480390	0.000588	5.877150	0.995616	-0.000118
1138	1.1313e+02	-2.6471	20.286607	0.000973	9.727697	1.647916	-0.000195
1139	1.1323e+02	-2.6685	20.169530	0.000588	5.877150	0.995616	-0.000118
1140	1.1333e+02	-2.6875	19.999970	0.000851	8.511735	1.441927	-0.000170
1141	1.1343e+02	-2.7084	19.850596	0.000750	7.498433	1.270269	-0.000150
1142	1.1353e+02	-2.7282	19.681037	0.000851	8.511735	1.441927	-0.000170
1143	1.1363e+02	-2.7478	19.572034	0.000547	5.471829	0.926953	-0.000110
1144	1.1373e+02	-2.7672	19.378252	0.000973	9.727697	1.647916	-0.000195
1145	1.1383e+02	-2.7882	19.277323	0.000507	5.066509	0.858290	-0.000101
1146	1.1393e+02	-2.8084	19.111801	0.000831	8.309074	1.407595	-0.000166
1147	1.1403e+02	-2.8268	18.974538	0.000689	6.890452	1.167274	-0.000138
1148	1.1413e+02	-2.8481	18.780755	0.000973	9.727697	1.647916	-0.000195
1149	1.1423e+02	-2.8671	18.679827	0.000507	5.066509	0.858290	-0.000101
1150	1.1433e+02	-2.8878	18.546602	0.000669	6.687792	1.132943	-0.000134
1151	1.1442e+02	-2.9074	18.397228	0.000750	7.498433	1.270269	-0.000150
1152	1.1452e+02	-2.9270	18.235742	0.000811	8.106414	1.373264	-0.000162
1153	1.1462e+02	-2.9477	18.098480	0.000689	6.890452	1.167274	-0.000138
1154	1.1472e+02	-2.9677	17.965254	0.000669	6.687792	1.132943	-0.000134
1155	1.1482e+02	-2.9866	17.791657	0.000871	8.714395	1.476258	-0.000174
1156	1.1492e+02	-3.0075	17.678617	0.000567	5.674490	0.961285	-0.000114
1157	1.1502e+02	-3.0269	17.509058	0.000851	8.511735	1.441927	-0.000170
1158	1.1512e+02	-3.0466	17.379869	0.000649	6.485131	1.098611	-0.000130
1159	1.1522e+02	-3.0679	17.202235	0.000892	8.917055	1.510590	-0.000179
1160	1.1532e+02	-3.0875	17.077084	0.000628	6.282471	1.064279	-0.000126
1161	1.1542e+02	-3.1072	16.935784	0.000709	7.093112	1.201606	-0.000142
1162	1.1552e+02	-3.1265	16.806596	0.000649	6.485131	1.098611	-0.000130
1163	1.1562e+02	-3.1461	16.661259	0.000730	7.295773	1.235937	-0.000146
1164	1.1572e+02	-3.1670	16.519959	0.000709	7.093112	1.201606	-0.000142
1165	1.1582e+02	-3.1857	16.342325	0.000892	8.917055	1.510590	-0.000179
1166	1.1592e+02	-3.2051	16.221211	0.000608	6.079810	1.029948	-0.000122
1167	1.1602e+02	-3.2266	16.096060	0.000628	6.282471	1.064279	-0.000126
1168	1.1612e+02	-3.2462	15.906315	0.000953	9.525036	1.613585	-0.000191
1169	1.1622e+02	-3.2658	15.781164	0.000628	6.282471	1.064279	-0.000126
1170	1.1632e+02	-3.2864	15.651975	0.000649	6.485131	1.098611	-0.000130
1171	1.1642e+02	-3.3061	15.474341	0.000892	8.917055	1.510590	-0.000179
1172	1.1651e+02	-3.3249	15.337079	0.000689	6.890452	1.167274	-0.000138
1173	1.1661e+02	-3.3463	15.240187	0.000486	4.863848	0.823958	-0.000097
1174	1.1671e+02	-3.3664	15.070628	0.000851	8.511735	1.441927	-0.000170
1175	1.1681e+02	-3.3861	14.933365	0.000689	6.890452	1.167274	-0.000138
1176	1.1691e+02	-3.4057	14.755731	0.000892	8.917055	1.510590	-0.000179
1177	1.1701e+02	-3.4251	14.646728	0.000547	5.471829	0.926953	-0.000110
1178	1.1711e+02	-3.4454	14.501392	0.000730	7.295773	1.235937	-0.000146
1179	1.1721e+02	-3.4656	14.368166	0.000669	6.687792	1.132943	-0.000134
1180	1.1731e+02	-3.4850	14.230903	0.000689	6.890452	1.167274	-0.000138
1181	1.1741e+02	-3.5062	14.081529	0.000750	7.498433	1.270269	-0.000150
1182	1.1751e+02	-3.5263	13.879673	0.001013	10.133017	1.716580	-0.000203
1183	1.1761e+02	-3.5449	13.802967	0.000385	3.850547	0.652300	-0.000077
1184	1.1771e+02	-3.5649	13.673779	0.000649	6.485131	1.098611	-0.000130
1185	1.1781e+02	-3.5854	13.516330	0.000790	7.903754	1.338932	-0.000158
1186	1.1791e+02	-3.6047	13.379068	0.000689	6.890452	1.167274	-0.000138
1187	1.1801e+02	-3.6247	13.241805	0.000689	6.890452	1.167274	-0.000138
1188	1.1811e+02	-3.6452	13.068208	0.000871	8.714395	1.476258	-0.000174
1189	1.1821e+02	-3.6648	12.914797	0.000770	7.701093	1.304601	-0.000154
1190	1.1831e+02	-3.6841	12.797720	0.000588	5.877150	0.995616	-0.000118
1191	1.1841e+02	-3.7053	12.656421	0.000709	7.093112	1.201606	-0.000142
1192	1.1850e+02	-3.7255	12.543381	0.000567	5.674490	0.961285	-0.000114
1193	1.1860e+02	-3.7439	12.394007	0.000750	7.498433	1.270269	-0.000150
1194	1.1870e+02	-3.7650	12.252707	0.000709	7.093112	1.201606	-0.000142
1195	1.1880e+02	-3.7840	12.111407	0.000709	7.093112	1.201606	-0.000142
1196	1.1890e+02	-3.8040	11.974145	0.000689	6.890452	1.167274	-0.000138
1197	1.1900e+02	-3.8235	11.812659	0.000811	8.106414	1.373264	-0.000162
1198	1.1910e+02	-3.8440	11.667322	0.000730	7.295773	1.235937	-0.000146
1199	1.1920e+02	-3.8650	11.554282	0.000567	5.674490	0.961285	-0.000114
1200	1.1930e+02	-3.8837	11.404908	0.000750	7.498433	1.270269	-0.000150
1201	1.1940e+02	-3.9032	11.219200	0.000932	9.322376	1.579253	-0.000187
1202	1.1950e+02	-3.9233	11.077900	0.000709	7.093112	1.201606	-0.000142
1203	1.1960e+02	-3.9432	10.972935	0.000527	5.269169	0.892621	-0.000105
1204	1.1970e+02	-3.9635	10.859895	0.000567	5.674490	0.961285	-0.000114
1205	1.1980e+02	-3.9828	10.738781	0.000608	6.079810	1.029948	-0.000122
1206	1.1990e+02	-4.0032	10.544999	0.000973	9.727697	1.647916	-0.000195
1207	1.2000e+02	-4.0228	10.427922	0.000588	5.877150	0.995616	-0.000118
1208	1.2010e+02	-4.0430	10.294696	0.000669	6.687792	1.132943	-0.000134
1209	1.2020e+02	-4.0630	10.169545	0.000628	6.282471	1.064279	-0.000126
1210	1.2030e+02	-4.0833	10.004022	0.000831	8.309074	1.407595	-0.000166
1211	1.2039e+02	-4.1031	9.850611	0.000770	7.701093	1.304601	-0.000154
1212	1.2049e+02	-4.1229	9.737571	0.000567	5.674490	0.961285	-0.000114
1213	1.2059e+02	-4.1425	9.563975	0.000871	8.714395	1.476258	-0.000174
1214	1.2069e+02	-4.1628	9.434786	0.000649	6.485131	1.098611	-0.000130
1215	1.2079e+02	-4.1820	9.333858	0.000507	5.066509	0.858290	-0.000101
1216	1.2089e+02	-4.2030	9.127964	0.001034	10.335678	1.750911	-0.000207
1217	1.2099e+02	-4.2226	9.018961	0.000547	5.471829	0.926953	-0.000110
1218	1.2109e+02	-4.2427	8.841327	0.000892	8.917055	1.510590	-0.000179
1219	1.2119e+02	-4.2627	8.716176	0.000628	6.282471	1.064279	-0.000126
1220	1.2129e+02	-4.2831	8.566802	0.000750	7.498433	1.270269	-0.000150
1221	1.2139e+02	-4.3024	8.457799	0.000547	5.471829	0.926953	-0.000110
1222	1.2149e+02	-4.3225	8.312462	0.000730	7.295773	1.235937	-0.000146
1223	1.2159e+02	-4.3425	8.130791	0.000912	9.119716	1.544922	-0.000183
1224	1.2169e+02	-4.3661	8.054086	0.000385	3.850547	0.652300	-0.000077
1225	1.2179e+02	-4.3828	7.864340	0.000953	9.525036	1.613585	-0.000191
1226	1.2189e+02	-4.4017	7.727078	0.000689	6.890452	1.167274	-0.000138
1227	1.2199e+02	-4.4225	7.593852	0.000669	6.687792	1.132943	-0.000134
1228	1.2209e+02	-4.4414	7.456590	0.000689	6.890452	1.167274	-0.000138
1229	1.2219e+02	-4.4609	7.291067	0.000831	8.309074	1.407595	-0.000166
1230	1.2229e+02	-4.4804	7.190139	0.000507	5.066509	0.858290	-0.000101
1231	1.2239e+02	-4.5021	7.020579	0.000851	8.511735	1.441927	-0.000170
1232	1.2248e+02	-4.5218	6.883316	0.000689	6.890452	1.167274	-0.000138
1233	1.2258e+02	-4.5409	6.737980	0.000730	7.295773	1.235937	-0.000146
1234	1.2268e+02	-4.5618	6.608791	0.000649	6.485131	1.098611	-0.000130
1235	1.2278e+02	-4.5818	6.415009	0.000973	9.727697	1.647916	-0.000195
1236	1.2288e+02	-4.6008	6.293895	0.000608	6.079810	1.029948	-0.000122
1237	1.2298e+02	-4.6217	6.180855	0.000567	5.674490	0.961285	-0.000114
1238	1.2308e+02	-4.6417	6.007258	0.000871	8.714395	1.476258	-0.000174
1239	1.2318e+02	-4.6613	5.890181	0.000588	5.877150	0.995616	-0.000118
1240	1.2328e+02	-4.6828	5.752918	0.000689	6.890452	1.167274	-0.000138
1241	1.2338e+02	-4.7009	5.587396	0.000831	8.309074	1.407595	-0.000166
1242	1.2348e+02	-4.7208	5.462245	0.000628	6.282471	1.064279	-0.000126
1243	1.2358e+02	-4.7411	5.308833	0.000770	7.701093	1.304601	-0.000154
1244	1.2368e+02	-4.7604	5.167534	0.000709	7.093112	1.201606	-0.000142
1245	1.2378e+02	-4.7795	5.038345	0.000649	6.485131	1.098611	-0.000130
1246	1.2388e+02	-4.8007	4.884934	0.000770	7.701093	1.304601	-0.000154
1247	1.2398e+02	-4.8215	4.743634	0.000709	7.093112	1.201606	-0.000142
1248	1.2408e+02	-4.8401	4.622520	0.000608	6.079810	1.029948	-0.000122
1249	1.2418e+02	-4.8601	4.465072	0.000790	7.903754	1.338932	-0.000158
1250	1.2428e+02	-4.8805	4.295512	0.000851	8.511735	1.441927	-0.000170
1251	1.2438e+02	-4.9005	4.186510	0.000547	5.471829	0.926953	-0.000110
1252	1.2447e+02	-4.9200	4.008876	0.000892	8.917055	1.510590	-0.000179
1253	1.2457e+02	-4.9408	3.895836	0.000567	5.674490	0.961285	-0.000114
1254	1.2467e+02	-4.9606	3.730313	0.000831	8.309074	1.407595	-0.000166
1255	1.2477e+02	-4.9799	3.593051	0.000689	6.890452	1.167274	-0.000138
1256	1.2487e+02	-4.9994	3.451751	0.000709	7.093112	1.201606	-0.000142
1257	1.2497e+02	-5.0194	3.290266	0.000811	8.106414	1.373264	-0.000162
1258	1.2507e+02	-5.0391	3.157040	0.000669	6.687792	1.132943	-0.000134
1259	1.2517e+02	-5.0595	3.019778	0.000689	6.890452	1.167274	-0.000138
1260	1.2527e+02	-5.0792	2.862329	0.000790	7.903754	1.338932	-0.000158
1261	1.2537e+02	-5.0995	2.725067	0.000689	6.890452	1.167274	-0.000138
1262	1.2547e+02	-5.1193	2.595878	0.000649	6.485131	1.098611	-0.000130
1263	1.2557e+02	-5.1397	2.446504	0.000750	7.498433	1.270269	-0.000150
1264	1.2567e+02	-5.1588	2.276945	0.000851	8.511735	1.441927	-0.000170
1265	1.2577e+02	-5.1785	2.127571	0.000750	7.498433	1.270269	-0.000150
1266	1.2587e+02	-5.1978	1.945899	0.000912	9.119716	1.544922	-0.000183
1267	1.2597e+02	-5.2196	1.840934	0.000527	5.269169	0.892621	-0.000105
1268	1.2607e+02	-5.2396	1.699634	0.000709	7.093112	1.201606	-0.000142
1269	1.2617e+02	-5.2596	1.538149	0.000811	8.106414	1.373264	-0.000162
1270	1.2627e+02	-5.2789	1.376663	0.000811	8.106414	1.373264	-0.000162
1271	1.2636e+02	-5.2991	1.291883	0.000426	4.255867	0.720963	-0.000085
1272	1.2646e+02	-5.3186	1.114249	0.000892	8.917055	1.510590	-0.000179
1273	1.2656e+02	-5.3383	0.944690	0.000851	8.511735	1.441927	-0.000170
1274	1.2666e+02	-5.3586	0.807427	0.000689	6.890452	1.167274	-0.000138
1275	1.2676e+02	-5.3789	0.625756	0.000912	9.119716	1.544922	-0.000183
1276	1.2686e+02	-5.3986	0.480419	0.000730	7.295773	1.235937	-0.000146
1277	1.2696e+02	-5.4184	0.379491	0.000507	5.066509	0.858290	-0.000101
1278	1.2706e+02	-5.4387	0.205894	0.000871	8.714395	1.476258	-0.000174
1279	1.2716e+02	-5.4581	0.080743	0.000628	6.282471	1.064279	-0.000126
1280	1.2726e+02	-5.4773	-0.104966	0.000932	9.322376	1.579253	-0.000187
1281	1.2736e+02	-5.4980	-0.218005	0.000567	5.674490	0.961285	-0.000114
1282	1.2746e+02	-5.5176	-0.399676	0.000912	9.119716	1.544922	-0.000183
1283	1.2756e+02	-5.5383	-0.520791	0.000608	6.079810	1.029948	-0.000122
1284	1.2766e+02	-5.5579	-0.662090	0.000709	7.093112	1.201606	-0.000142
1285	1.2776e+02	-5.5772	-0.876058	0.001074	10.740998	1.819574	-0.000215
1286	1.2786e+02	-5.5980	-1.001210	0.000628	6.282471	1.064279	-0.000126
1287	1.2796e+02	-5.6181	-1.138472	0.000689	6.890452	1.167274	-0.000138
1288	1.2806e+02	-5.6372	-1.312069	0.000871	8.714395	1.476258	-0.000174
1289	1.2816e+02	-5.6564	-1.412998	0.000507	5.066509	0.858290	-0.000101
1290	1.2826e+02	-5.6769	-1.622929	0.001054	10.538338	1.785243	-0.000211
1291	1.2835e+02	-5.6970	-1.735968	0.000567	5.674490	0.961285	-0.000114
1292	1.2845e+02	-5.7167	-1.881305	0.000730	7.295773	1.235937	-0.000146
1293	1.2855e+02	-5.7375	-2.050865	0.000851	8.511735	1.441927	-0.000170
1294	1.2865e+02	-5.7565	-2.184090	0.000669	6.687792	1.132943	-0.000134
1295	1.2875e+02	-5.7774	-2.385947	0.001013	10.133017	1.716580	-0.000203
1296	1.2885e+02	-5.7967	-2.539358	0.000770	7.701093	1.304601	-0.000154
1297	1.2895e+02	-5.8160	-2.648361	0.000547	5.471829	0.926953	-0.000110
1298	1.2905e+02	-5.8372	-2.866366	0.001094	10.943659	1.853906	-0.000219
1299	1.2915e+02	-5.8569	-2.983443	0.000588	5.877150	0.995616	-0.000118
1300	1.2925e+02	-5.8769	-3.144929	0.000811	8.106414	1.373264	-0.000162
1301	1.2935e+02	-5.8962	-3.290266	0.000730	7.295773	1.235937	-0.000146
1302	1.2945e+02	-5.9167	-3.480011	0.000953	9.525036	1.613585	-0.000191
1303	1.2955e+02	-5.9369	-3.605162	0.000628	6.282471	1.064279	-0.000126
1304	1.2965e+02	-5.9567	-3.766648	0.000811	8.106414	1.373264	-0.000162
1305	1.2975e+02	-5.9763	-3.928133	0.000811	8.106414	1.373264	-0.000162
1306	1.2985e+02	-5.9963	-4.134027	0.001034	10.335678	1.750911	-0.000207
1307	1.2995e+02	-6.0162	-4.243030	0.000547	5.471829	0.926953	-0.000110
1308	1.3005e+02	-6.0349	-4.432775	0.000953	9.525036	1.613585	-0.000191
1309	1.3015e+02	-6.0553	-4.541778	0.000547	5.471829	0.926953	-0.000110
1310	1.3025e+02	-6.0756	-4.767857	0.001135	11.348980	1.922569	-0.000227
1311	1.3034e+02	-6.0960	-4.909157	0.000709	7.093112	1.201606	-0.000142
1312	1.3044e+02	-6.1153	-5.054494	0.000730	7.295773	1.235937	-0.000146
1313	1.3054e+02	-6.1356	-5.232128	0.000892	8.917055	1.510590	-0.000179
1314	1.3064e+02	-6.1560	-5.381502	0.000750	7.498433	1.270269	-0.000150
1315	1.3074e+02	-6.1748	-5.591433	0.001054	10.538338	1.785243	-0.000211
1316	1.3084e+02	-6.1957	-5.752918	0.000811	8.106414	1.373264	-0.000162
1317	1.3094e+02	-6.2152	-5.886144	0.000669	6.687792	1.132943	-0.000134
1318	1.3104e+02	-6.2360	-6.039555	0.000770	7.701093	1.304601	-0.000154
1319	1.3114e+02	-6.2561	-6.229300	0.000953	9.525036	1.613585	-0.000191
1320	1.3124e+02	-6.2744	-6.394823	0.000831	8.309074	1.407595	-0.000166
1321	1.3134e+02	-6.2955	-6.536123	0.000709	7.093112	1.201606	-0.000142
1322	1.3144e+02	-6.3153	-6.737980	0.001013	10.133017	1.716580	-0.000203
1323	1.3154e+02	-6.3351	-6.899465	0.000811	8.106414	1.373264	-0.000162
1324	1.3164e+02	-6.3547	-7.036728	0.000689	6.890452	1.167274	-0.000138
1325	1.3174e+02	-6.3751	-7.214362	0.000892	8.917055	1.510590	-0.000179
1326	1.3184e+02	-6.3940	-7.416218	0.001013	10.133017	1.716580	-0.000203
1327	1.3194e+02	-6.4146	-7.577704	0.000811	8.106414	1.373264	-0.000162
1328	1.3204e+02	-6.4346	-7.714966	0.000689	6.890452	1.167274	-0.000138
1329	1.3214e+02	-6.4545	-7.912786	0.000993	9.930357	1.682248	-0.000199
1330	1.3224e+02	-6.4751	-8.094457	0.000912	9.119716	1.544922	-0.000183
1331	1.3234e+02	-6.4937	-8.259980	0.000831	8.309074	1.407595	-0.000166
1332	1.3243e+02	-6.5143	-8.457799	0.000993	9.930357	1.682248	-0.000199
1333	1.3253e+02	-6.5335	-8.627359	0.000851	8.511735	1.441927	-0.000170
1334	1.3263e+02	-6.5543	-8.825179	0.000993	9.930357	1.682248	-0.000199
1335	1.3273e+02	-6.5741	-9.031073	0.001034	10.335678	1.750911	-0.000207
1336	1.3283e+02	-6.5962	-9.140075	0.000547	5.471829	0.926953	-0.000110
1337	1.3293e+02	-6.6132	-9.370192	0.001155	11.551640	1.956901	-0.000231
1338	1.3303e+02	-6.6339	-9.547826	0.000892	8.917055	1.510590	-0.000179
1339	1.3313e+02	-6.6540	-9.721423	0.000871	8.714395	1.476258	-0.000174
1340	1.3323e+02	-6.6739	-9.955577	0.001175	11.754300	1.991232	-0.000235
1341	1.3333e+02	-6.6934	-10.125136	0.000851	8.511735	1.441927	-0.000170
1342	1.3343e+02	-6.7131	-10.298733	0.000871	8.714395	1.476258	-0.000174
1343	1.3353e+02	-6.7325	-10.460219	0.000811	8.106414	1.373264	-0.000162
1344	1.3363e+02	-6.7546	-10.633816	0.000871	8.714395	1.476258	-0.000174
1345	1.3373e+02	-6.7731	-10.863932	0.001155	11.551640	1.956901	-0.000231
1346	1.3383e+02	-6.7931	-11.013306	0.000750	7.498433	1.270269	-0.000150
1347	1.3393e+02	-6.8127	-11.267646	0.001277	12.767602	2.162890	-0.000256
1348	1.3403e+02	-6.8336	-11.445280	0.000892	8.917055	1.510590	-0.000179
1349	1.3413e+02	-6.8523	-11.639062	0.000973	9.727697	1.647916	-0.000195
1350	1.3423e+02	-6.8723	-11.857068	0.001094	10.943659	1.853906	-0.000219
1351	1.3432e+02	-6.8936	-12.034702	0.000892	8.917055	1.510590	-0.000179
1352	1.3442e+02	-6.9119	-12.188113	0.000770	7.701093	1.304601	-0.000154
1353	1.3452e+02	-6.9327	-12.418230	0.001155	11.551640	1.956901	-0.000231
1354	1.3462e+02	-6.9525	-12.636235	0.001094	10.943659	1.853906	-0.000219
1355	1.3472e+02	-6.9732	-12.838092	0.001013	10.133017	1.716580	-0.000203
1356	1.3482e+02	-6.9922	-12.991503	0.000770	7.701093	1.304601	-0.000154
1357	1.3492e+02	-7.0123	-13.249879	0.001297	12.970262	2.197222	-0.000260
1358	1.3502e+02	-7.0313	-13.471922	0.001115	11.146319	1.888238	-0.000223
1359	1.3512e+02	-7.0529	-13.633407	0.000811	8.106414	1.373264	-0.000162
1360	1.3522e+02	-7.0724	-13.851413	0.001094	10.943659	1.853906	-0.000219
1361	1.3532e+02	-7.0921	-14.093641	0.001216	12.159621	2.059896	-0.000243
1362	1.3542e+02	-7.1129	-14.287423	0.000973	9.727697	1.647916	-0.000195
1363	1.3552e+02	-7.1326	-14.505429	0.001094	10.943659	1.853906	-0.000219
1364	1.3562e+02	-7.1509	-14.707285	0.001013	10.133017	1.716580	-0.000203
1365	1.3572e+02	-7.1721	-14.933365	0.001135	11.348980	1.922569	-0.000227
1366	1.3582e+02	-7.1921	-15.159445	0.001135	11.348980	1.922569	-0.000227
1367	1.3592e+02	-7.2119	-15.365339	0.001034	10.335678	1.750911	-0.000207
1368	1.3602e+02	-7.2313	-15.611604	0.001236	12.362281	2.094227	-0.000248
1369	1.3612e+02	-7.2516	-15.837684	0.001135	11.348980	1.922569	-0.000227
1370	1.3622e+02	-7.2717	-16.059726	0.001115	11.146319	1.888238	-0.000223
1371	1.3631e+02	-7.2913	-16.297917	0.001196	11.956961	2.025564	-0.000239
1372	1.3641e+02	-7.3108	-16.487662	0.000953	9.525036	1.613585	-0.000191
1373	1.3651e+02	-7.3312	-16.725853	0.001196	11.956961	2.025564	-0.000239
1374	1.3661e+02	-7.3515	-16.947896	0.001115	11.146319	1.888238	-0.000223
1375	1.3671e+02	-7.3709	-17.182050	0.001175	11.754300	1.991232	-0.000235
1376	1.3681e+02	-7.3906	-17.428315	0.001236	12.362281	2.094227	-0.000248
1377	1.3691e+02	-7.4109	-17.650357	0.001115	11.146319	1.888238	-0.000223
1378	1.3701e+02	-7.4307	-17.868363	0.001094	10.943659	1.853906	-0.000219
1379	1.3711e+02	-7.4512	-18.203445	0.001682	16.820809	2.849522	-0.000337
1380	1.3721e+02	-7.4703	-18.360893	0.000790	7.903754	1.338932	-0.000158
1381	1.3731e+02	-7.4911	-18.647530	0.001439	14.388885	2.437543	-0.000288
1382	1.3741e+02	-7.5101	-18.877647	0.001155	11.551640	1.956901	-0.000231
1383	1.3751e+02	-7.5302	-19.144098	0.001338	13.375583	2.265885	-0.000268
1384	1.3761e+02	-7.5504	-19.402474	0.001297	12.970262	2.197222	-0.000260
1385	1.3771e+02	-7.5705	-19.616443	0.001074	10.740998	1.819574	-0.000215
1386	1.3781e+02	-7.5897	-19.886931	0.001358	13.578243	2.300217	-0.000272
1387	1.3791e+02	-7.6091	-20.169530	0.001419	14.186224	2.403211	-0.000284
1388	1.3801e+02	-7.6297	-20.423870	0.001277	12.767602	2.162890	-0.000256
1389	1.3811e+02	-7.6500	-20.662061	0.001196	11.956961	2.025564	-0.000239
1390	1.3821e+02	-7.6692	-20.924475	0.001317	13.172923	2.231554	-0.000264
1391	1.3831e+02	-7.6886	-21.199000	0.001378	13.780904	2.334548	-0.000276
1392	1.3840e+02	-7.7098	-21.445265	0.001236	12.362281	2.094227	-0.000248
1393	1.3850e+02	-7.7301	-21.739976	0.001479	14.794205	2.506206	-0.000296
1394	1.3860e+02	-7.7486	-21.982204	0.001216	12.159621	2.059896	-0.000243
1395	1.3870e+02	-7.7707	-22.252692	0.001358	13.578243	2.300217	-0.000272
1396	1.3880e+02	-7.7885	-22.563552	0.001560	15.604847	2.643533	-0.000312
1397	1.3890e+02	-7.8082	-22.838077	0.001378	13.780904	2.334548	-0.000276
1398	1.3900e+02	-7.8284	-23.120676	0.001419	14.186224	2.403211	-0.000284
1399	1.3910e+02	-7.8488	-23.387127	0.001338	13.375583	2.265885	-0.000268
1400	1.3920e+02	-7.8690	-23.693950	0.001540	15.402186	2.609201	-0.000308
1401	1.3930e+02	-7.8883	-23.996735	0.001520	15.199526	2.574869	-0.000304
1402	1.3940e+02	-7.9082	-24.263186	0.001338	13.375583	2.265885	-0.000268
1403	1.3950e+02	-7.9285	-24.537711	0.001378	13.780904	2.334548	-0.000276
1404	1.3960e+02	-7.9483	-24.808199	0.001358	13.578243	2.300217	-0.000272
1405	1.3970e+02	-7.9688	-25.151356	0.001723	17.226130	2.918185	-0.000345
1406	1.3980e+02	-7.9875	-25.490475	0.001702	17.023469	2.883854	-0.000341
1407	1.3990e+02	-8.0084	-25.769037	0.001398	13.983564	2.368880	-0.000280
1408	1.4000e+02	-8.0280	-26.079897	0.001560	15.604847	2.643533	-0.000312
1409	1.4010e+02	-8.0478	-26.374608	0.001479	14.794205	2.506206	-0.000296
1410	1.4020e+02	-8.0685	-26.661244	0.001439	14.388885	2.437543	-0.000288
1411	1.4029e+02	-8.0884	-26.984215	0.001621	16.212828	2.746527	-0.000325
1412	1.4039e+02	-8.1070	-27.311223	0.001642	16.415488	2.780859	-0.000329
1413	1.4049e+02	-8.1268	-27.626120	0.001581	15.807507	2.677864	-0.000316
1414	1.4059e+02	-8.1480	-27.932942	0.001540	15.402186	2.609201	-0.000308
1415	1.4069e+02	-8.1676	-28.300322	0.001844	18.442092	3.124175	-0.000369
1416	1.4079e+02	-8.1873	-28.647515	0.001743	17.428790	2.952517	-0.000349
1417	1.4089e+02	-8.2075	-28.918003	0.001358	13.578243	2.300217	-0.000272
1418	1.4099e+02	-8.2272	-29.297494	0.001905	19.050073	3.227170	-0.000381
1419	1.4109e+02	-8.2474	-29.596242	0.001500	14.996866	2.540538	-0.000300
1420	1.4119e+02	-8.2672	-29.943436	0.001743	17.428790	2.952517	-0.000349
1421	1.4129e+02	-8.2870	-30.290629	0.001743	17.428790	2.952517	-0.000349
1422	1.4139e+02	-8.3075	-30.613600	0.001621	16.212828	2.746527	-0.000325
1423	1.4149e+02	-8.3267	-30.964831	0.001763	17.631450	2.986849	-0.000353
1424	1.4159e+02	-8.3475	-31.328173	0.001824	18.239431	3.089843	-0.000365
1425	1.4169e+02	-8.3670	-31.659218	0.001662	16.618149	2.815191	-0.000333
1426	1.4179e+02	-8.3868	-32.062932	0.002027	20.266035	3.433159	-0.000406
1427	1.4189e+02	-8.4064	-32.434349	0.001864	18.644752	3.158507	-0.000373
1428	1.4199e+02	-8.4267	-32.733097	0.001500	14.996866	2.540538	-0.000300
1429	1.4209e+02	-8.4464	-33.124699	0.001966	19.658054	3.330164	-0.000394
1430	1.4219e+02	-8.4662	-33.504189	0.001905	19.050073	3.227170	-0.000381
1431	1.4228e+02	-8.4872	-33.843309	0.001702	17.023469	2.883854	-0.000341
1432	1.4238e+02	-8.5054	-34.267208	0.002128	21.279337	3.604817	-0.000426
1433	1.4248e+02	-8.5269	-34.662847	0.001986	19.860714	3.364496	-0.000398
1434	1.4258e+02	-8.5464	-35.054450	0.001966	19.658054	3.330164	-0.000394
1435	1.4268e+02	-8.5657	-35.429903	0.001885	18.847412	3.192838	-0.000377
1436	1.4278e+02	-8.5864	-35.817468	0.001946	19.455393	3.295833	-0.000390
1437	1.4288e+02	-8.6043	-36.176773	0.001804	18.036771	3.055512	-0.000361
1438	1.4298e+02	-8.6256	-36.624895	0.002250	22.495299	3.810807	-0.000450
1439	1.4308e+02	-8.6456	-37.044758	0.002108	21.076676	3.570486	-0.000422
1440	1.4318e+02	-8.6655	-37.375803	0.001662	16.618149	2.815191	-0.000333
1441	1.4328e+02	-8.6850	-37.819888	0.002229	22.292638	3.776475	-0.000446
1442	1.4338e+02	-8.7051	-38.259935	0.002209	22.089978	3.742144	-0.000442
1443	1.4348e+02	-8.7253	-38.647500	0.001946	19.455393	3.295833	-0.000390
1444	1.4358e+02	-8.7451	-39.075437	0.002148	21.481997	3.639149	-0.000430
1445	1.4368e+02	-8.7646	-39.499336	0.002128	21.279337	3.604817	-0.000426
1446	1.4378e+02	-8.7851	-39.923235	0.002128	21.279337	3.604817	-0.000426
1447	1.4388e+02	-8.8055	-40.363283	0.002209	22.089978	3.742144	-0.000442
1448	1.4398e+02	-8.8257	-40.799294	0.002189	21.887318	3.707812	-0.000438
1449	1.4408e+02	-8.8449	-41.255490	0.002290	22.900619	3.879470	-0.000458
1450	1.4418e+02	-8.8644	-41.719761	0.002331	23.305940	3.948133	-0.000467
1451	1.4428e+02	-8.8849	-42.139623	0.002108	21.076676	3.570486	-0.000422
1452	1.4437e+02	-8.9050	-42.575633	0.002189	21.887318	3.707812	-0.000438
1453	1.4447e+02	-8.9240	-43.056053	0.002412	24.116581	4.085459	-0.000483
1454	1.4457e+02	-8.9435	-43.540509	0.002432	24.319242	4.119791	-0.000487
1455	1.4467e+02	-8.9633	-44.004780	0.002331	23.305940	3.948133	-0.000467
1456	1.4477e+02	-8.9835	-44.456939	0.002270	22.697959	3.845138	-0.000454
1457	1.4487e+02	-9.0048	-44.937358	0.002412	24.116581	4.085459	-0.000483
1458	1.4497e+02	-9.0234	-45.393554	0.002290	22.900619	3.879470	-0.000458
1459	1.4507e+02	-9.0424	-45.894159	0.002513	25.129883	4.257117	-0.000503
1460	1.4517e+02	-9.0637	-46.394764	0.002513	25.129883	4.257117	-0.000503
1461	1.4527e+02	-9.0823	-46.887294	0.002472	24.724563	4.188454	-0.000495
1462	1.4537e+02	-9.1034	-47.391936	0.002533	25.332544	4.291449	-0.000507
1463	1.4547e+02	-9.1238	-47.876393	0.002432	24.319242	4.119791	-0.000487
1464	1.4557e+02	-9.1437	-48.401220	0.002635	26.345845	4.463107	-0.000527
1465	1.4567e+02	-9.1637	-48.954308	0.002776	27.764468	4.703428	-0.000556
1466	1.4577e+02	-9.1830	-49.430690	0.002391	23.913921	4.051128	-0.000479
1467	1.4587e+02	-9.2029	-49.963592	0.002675	26.751166	4.531770	-0.000536
1468	1.4597e+02	-9.2233	-50.484382	0.002614	26.143185	4.428775	-0.000523
1469	1.4607e+02	-9.2438	-51.017284	0.002675	26.751166	4.531770	-0.000536
1470	1.4617e+02	-9.2624	-51.554223	0.002695	26.953826	4.566102	-0.000540
1471	1.4626e+02	-9.2828	-52.107311	0.002776	27.764468	4.703428	-0.000556
1472	1.4636e+02	-9.3024	-52.668473	0.002817	28.169788	4.772091	-0.000564
1473	1.4646e+02	-9.3225	-53.217523	0.002756	27.561807	4.669097	-0.000552
1474	1.4656e+02	-9.3433	-53.778685	0.002817	28.169788	4.772091	-0.000564
1475	1.4666e+02	-9.3637	-54.335810	0.002797	27.967128	4.737760	-0.000560
1476	1.4676e+02	-9.3829	-54.957529	0.003121	31.209694	5.287065	-0.000625
1477	1.4686e+02	-9.4018	-55.510616	0.002776	27.764468	4.703428	-0.000556
1478	1.4696e+02	-9.4226	-56.087927	0.002898	28.980430	4.909418	-0.000580
1479	1.4706e+02	-9.4421	-56.657163	0.002858	28.575109	4.840755	-0.000572
1480	1.4716e+02	-9.4620	-57.282919	0.003141	31.412354	5.321397	-0.000629
1481	1.4726e+02	-9.4821	-57.848118	0.002837	28.372449	4.806423	-0.000568
1482	1.4736e+02	-9.5023	-58.530394	0.003425	34.249599	5.802039	-0.000686
1483	1.4746e+02	-9.5221	-59.131927	0.003020	30.196392	5.115407	-0.000605
1484	1.4756e+02	-9.5415	-59.737498	0.003040	30.399052	5.149739	-0.000609
1485	1.4766e+02	-9.5612	-60.339031	0.003020	30.196392	5.115407	-0.000605
1486	1.4776e+02	-9.5822	-61.017270	0.003405	34.046939	5.767708	-0.000682
1487	1.4786e+02	-9.6011	-61.602654	0.002939	29.385751	4.978081	-0.000588
1488	1.4796e+02	-9.6220	-62.244559	0.003222	32.222995	5.458723	-0.000645
1489	1.4806e+02	-9.6417	-62.926835	0.003425	34.249599	5.802039	-0.000686
1490	1.4816e+02	-9.6616	-63.564702	0.003202	32.020335	5.424392	-0.000641
1491	1.4825e+02	-9.6786	-64.267164	0.003526	35.262901	5.973697	-0.000706
1492	1.4835e+02	-9.7009	-64.929254	0.003324	33.236297	5.630381	-0.000665
1493	1.4845e+02	-9.7221	-65.603456	0.003384	33.844278	5.733376	-0.000678
1494	1.4855e+02	-9.7414	-66.265546	0.003324	33.236297	5.630381	-0.000665
1495	1.4865e+02	-9.7612	-66.915525	0.003263	32.628316	5.527386	-0.000653
1496	1.4875e+02	-9.7809	-67.714878	0.004013	40.126749	6.797655	-0.000803
1497	1.4885e+02	-9.8013	-68.413302	0.003506	35.060240	5.939365	-0.000702
1498	1.4895e+02	-9.8215	-69.111727	0.003506	35.060240	5.939365	-0.000702
1499	1.4905e+02	-9.8413	-69.846485	0.003688	36.884183	6.248350	-0.000738
1500	1.4915e+02	-9.8615	-70.589318	0.003729	37.289504	6.317013	-0.000747
1501	1.4925e+02	-9.8810	-71.352337	0.003830	38.302806	6.488671	-0.000767
1502	1.4935e+02	-9.9016	-72.095170	0.003729	37.289504	6.317013	-0.000747
1503	1.4945e+02	-9.9197	-72.866263	0.003871	38.708127	6.557334	-0.000775
1504	1.4955e+02	-9.9409	-73.592947	0.003648	36.478863	6.179687	-0.000730
1505	1.4965e+02	-9.9615	-74.400375	0.004053	40.532070	6.866318	-0.000811
1506	1.4975e+02	-9.9803	-75.127059	0.003648	36.478863	6.179687	-0.000730
1507	1.4985e+02	-10.0000	-75.970820	0.004236	42.356013	7.175303	-0.000848
1508	1.4995e+02	-9.9799	-76.556205	-0.002939	-29.385751	-4.978081	-0.000588
1509	1.5005e+02	-9.9605	-77.101218	-0.002736	-27.359147	-4.634765	-0.000548
1510	1.5015e+02	-9.9400	-77.642195	-0.002716	-27.156487	-4.600433	-0.000544
1511	1.5025e+02	-9.9207	-78.158948	-0.002594	-25.940525	-4.394444	-0.000519
1512	1.5034e+02	-9.9008	-78.667627	-0.002554	-25.535204	-4.325781	-0.000511
1513	1.5044e+02	-9.8810	-79.107675	-0.002209	-22.089978	-3.742144	-0.000442
1514	1.5054e+02	-9.8608	-79.539648	-0.002168	-21.684657	-3.673480	-0.000434
1515	1.5064e+02	-9.8407	-79.987770	-0.002250	-22.495299	-3.810807	-0.000450
1516	1.5074e+02	-9.8216	-80.427818	-0.002209	-22.089978	-3.742144	-0.000442
1517	1.5084e+02	-9.8010	-80.863829	-0.002189	-21.887318	-3.707812	-0.000438
1518	1.5094e+02	-9.7809	-81.239282	-0.001885	-18.847412	-3.192838	-0.000377
1519	1.5104e+02	-9.7607	-81.578402	-0.001702	-17.023469	-2.883854	-0.000341
1520	1.5114e+02	-9.7412	-81.945781	-0.001844	-18.442092	-3.124175	-0.000369
1521	1.5124e+02	-9.7211	-82.317198	-0.001864	-18.644752	-3.158507	-0.000373
1522	1.5134e+02	-9.7021	-82.611909	-0.001479	-14.794205	-2.506206	-0.000296
1523	1.5144e+02	-9.6823	-82.955065	-0.001723	-17.226130	-2.918185	-0.000345
1524	1.5154e+02	-9.6628	-83.229590	-0.001378	-13.780904	-2.334548	-0.000276
1525	1.5164e+02	-9.6411	-83.556598	-0.001642	-16.415488	-2.780859	-0.000329
1526	1.5174e+02	-9.6213	-83.859384	-0.001520	-15.199526	-2.574869	-0.000304
1527	1.5184e+02	-9.6011	-84.137946	-0.001398	-13.983564	-2.368880	-0.000280
1528	1.5194e+02	-9.5824	-84.404397	-0.001338	-13.375583	-2.265885	-0.000268
1529	1.5204e+02	-9.5624	-84.650662	-0.001236	-12.362281	-2.094227	-0.000248
1530	1.5214e+02	-9.5410	-84.953447	-0.001520	-15.199526	-2.574869	-0.000304
1531	1.5224e+02	-9.5215	-85.163378	-0.001054	-10.538338	-1.785243	-0.000211
1532	1.5233e+02	-9.5010	-85.429829	-0.001338	-13.375583	-2.265885	-0.000268
1533	1.5243e+02	-9.4815	-85.647835	-0.001094	-10.943659	-1.853906	-0.000219
1534	1.5253e+02	-9.4626	-85.902174	-0.001277	-12.767602	-2.162890	-0.000256
1535	1.5263e+02	-9.4426	-86.067697	-0.000831	-8.309074	-1.407595	-0.000166
1536	1.5273e+02	-9.4223	-86.317999	-0.001256	-12.564942	-2.128559	-0.000252
1537	1.5283e+02	-9.4012	-86.467373	-0.000750	-7.498433	-1.270269	-0.000150
1538	1.5293e+02	-9.3829	-86.665193	-0.000993	-9.930357	-1.682248	-0.000199
1539	1.5303e+02	-9.3628	-86.850901	-0.000932	-9.322376	-1.579253	-0.000187
1540	1.5313e+02	-9.3423	-87.024498	-0.000871	-8.714395	-1.476258	-0.000174
1541	1.5323e+02	-9.3225	-87.169835	-0.000730	-7.295773	-1.235937	-0.000146
1542	1.5333e+02	-9.3038	-87.351506	-0.000912	-9.119716	-1.544922	-0.000183
1543	1.5343e+02	-9.2828	-87.533177	-0.000912	-9.119716	-1.544922	-0.000183
1544	1.5353e+02	-9.2633	-87.678514	-0.000730	-7.295773	-1.235937	-0.000146
1545	1.5363e+02	-9.2441	-87.864222	-0.000932	-9.322376	-1.579253	-0.000187
1546	1.5373e+02	-9.2233	-88.029745	-0.000831	-8.309074	-1.407595	-0.000166
1547	1.5383e+02	-9.2038	-88.102413	-0.000365	-3.647886	-0.617969	-0.000073
1548	1.5393e+02	-9.1827	-88.247750	-0.000730	-7.295773	-1.235937	-0.000146
1549	1.5403e+02	-9.1640	-88.368864	-0.000608	-6.079810	-1.029948	-0.000122
1550	1.5413e+02	-9.1437	-88.494015	-0.000628	-6.282471	-1.064279	-0.000126
1551	1.5422e+02	-9.1223	-88.647427	-0.000770	-7.701093	-1.304601	-0.000154
1552	1.5432e+02	-9.1048	-88.724132	-0.000385	-3.850547	-0.652300	-0.000077
1553	1.5442e+02	-9.0836	-88.873506	-0.000750	-7.498433	-1.270269	-0.000150
1554	1.5452e+02	-9.0637	-88.938100	-0.000324	-3.242566	-0.549305	-0.000065
1555	1.5462e+02	-9.0433	-89.034992	-0.000486	-4.863848	-0.823958	-0.000097
1556	1.5472e+02	-9.0236	-89.131883	-0.000486	-4.863848	-0.823958	-0.000097
1557	1.5482e+02	-9.0042	-89.252997	-0.000608	-6.079810	-1.029948	-0.000122
1558	1.5492e+02	-8.9841	-89.321628	-0.000345	-3.445226	-0.583637	-0.000069
1559	1.5502e+02	-8.9645	-89.430631	-0.000547	-5.471829	-0.926953	-0.000110
1560	1.5512e+02	-8.9441	-89.503299	-0.000365	-3.647886	-0.617969	-0.000073
1561	1.5522e+02	-8.9240	-89.592116	-0.000446	-4.458528	-0.755295	-0.000089
1562	1.5532e+02	-8.9036	-89.676896	-0.000426	-4.255867	-0.720963	-0.000085
1563	1.5542e+02	-8.8843	-89.713230	-0.000182	-1.823943	-0.308984	-0.000037
1564	1.5552e+02	-8.8644	-89.802047	-0.000446	-4.458528	-0.755295	-0.000089
1565	1.5562e+02	-8.8477	-89.850493	-0.000243	-2.431924	-0.411979	-0.000049
1566	1.5572e+02	-8.8258	-89.923161	-0.000365	-3.647886	-0.617969	-0.000073
1567	1.5582e+02	-8.8049	-89.975644	-0.000263	-2.634585	-0.446311	-0.000053
1568	1.5592e+02	-8.7847	-90.016016	-0.000203	-2.026603	-0.343316	-0.000041
1569	1.5602e+02	-8.7653	-90.080610	-0.000324	-3.242566	-0.549305	-0.000065
1570	1.5612e+02	-8.7448	-90.133092	-0.000263	-2.634585	-0.446311	-0.000053
1571	1.5622e+02	-8.7250	-90.173464	-0.000203	-2.026603	-0.343316	-0.000041
1572	1.5631e+02	-8.7048	-90.185575	-0.000061	-0.607981	-0.102995	-0.000012
1573	1.5641e+02	-8.6856	-90.254207	-0.000345	-3.445226	-0.583637	-0.000069
1574	1.5651e+02	-8.6649	-90.238058	0.000081	0.810641	0.137326	0.000016
1575	1.5661e+02	-8.6453	-90.310726	-0.000365	-3.647886	-0.617969	-0.000073
1576	1.5671e+02	-8.6261	-90.334949	-0.000122	-1.215962	-0.205990	-0.000024
1577	1.5681e+02	-8.6060	-90.407618	-0.000365	-3.647886	-0.617969	-0.000073
1578	1.5691e+02	-8.5858	-90.419729	-0.000061	-0.607981	-0.102995	-0.000012
1579	1.5701e+02	-8.5657	-90.427803	-0.000041	-0.405321	-0.068663	-0.000008
1580	1.5711e+02	-8.5457	-90.411655	0.000081	0.810641	0.137326	0.000016
1581	1.5721e+02	-8.5247	-90.427803	-0.000081	-0.810641	-0.137326	-0.000016
1582	1.5731e+02	-8.5054	-90.488360	-0.000304	-3.039905	-0.514974	-0.000061
1583	1.5741e+02	-8.4860	-90.484323	0.000020	0.202660	0.034332	0.000004
1584	1.5751e+02	-8.4659	-90.512583	-0.000142	-1.418622	-0.240321	-0.000028
1585	1.5761e+02	-8.4454	-90.476249	0.000182	1.823943	0.308984	0.000037
1586	1.5771e+02	-8.4265	-90.500472	-0.000122	-1.215962	-0.205990	-0.000024
1587	1.5781e+02	-8.4058	-90.512583	-0.000061	-0.607981	-0.102995	-0.000012
1588	1.5791e+02	-8.3871	-90.528732	-0.000081	-0.810641	-0.137326	-0.000016
1589	1.5801e+02	-8.3661	-90.508546	0.000101	1.013302	0.171658	0.000020
1590	1.5811e+02	-8.3466	-90.520658	-0.000061	-0.607981	-0.102995	-0.000012
1591	1.5821e+02	-8.3270	-90.512583	0.000041	0.405321	0.068663	0.000008
1592	1.5830e+02	-8.3064	-90.528732	-0.000081	-0.810641	-0.137326	-0.000016
1593	1.5840e+02	-8.2872	-90.516620	0.000061	0.607981	0.102995	0.000012
1594	1.5850e+02	-8.2672	-90.552955	-0.000182	-1.823943	-0.308984	-0.000037
1595	1.5860e+02	-8.2460	-90.516620	0.000182	1.823943	0.308984	0.000037
1596	1.5870e+02	-8.2278	-90.508546	0.000041	0.405321	0.068663	0.000008
1597	1.5880e+02	-8.2076	-90.492398	0.000081	0.810641	0.137326	0.000016
1598	1.5890e+02	-8.1877	-90.484323	0.000041	0.405321	0.068663	0.000008
1599	1.5900e+02	-8.1686	-90.460100	0.000122	1.215962	0.205990	0.000024
1600	1.5910e+02	-8.1470	-90.456063	0.000020	0.202660	0.034332	0.000004
1601	1.5920e+02	-8.1268	-90.419729	0.000182	1.823943	0.308984	0.000037
1602	1.5930e+02	-8.1073	-90.415692	0.000020	0.202660	0.034332	0.000004
1603	1.5940e+02	-8.0876	-90.415692	0.000000	0.000000	0.000000	0.000000
1604	1.5950e+02	-8.0679	-90.419729	-0.000020	-0.202660	-0.034332	-0.000004
1605	1.5960e+02	-8.0472	-90.338986	0.000405	4.053207	0.686632	0.000081
1606	1.5970e+02	-8.0281	-90.330912	0.000041	0.405321	0.068663	0.000008
1607	1.5980e+02	-8.0093	-90.298615	0.000162	1.621283	0.274653	0.000032
1608	1.5990e+02	-7.9876	-90.270355	0.000142	1.418622	0.240321	0.000028
1609	1.6000e+02	-7.9684	-90.229984	0.000203	2.026603	0.343316	0.000041
1610	1.6010e+02	-7.9488	-90.238058	-0.000041	-0.405321	-0.068663	-0.000008
1611	1.6019e+02	-7.9276	-90.161352	0.000385	3.850547	0.652300	0.000077
1612	1.6029e+02	-7.9082	-90.173464	-0.000061	-0.607981	-0.102995	-0.000012
1613	1.6039e+02	-7.8891	-90.088684	0.000426	4.255867	0.720963	0.000085
1614	1.6049e+02	-7.8695	-90.112907	-0.000122	-1.215962	-0.205990	-0.000024
1615	1.6059e+02	-7.8490	-90.056387	0.000284	2.837245	0.480642	0.000057
1616	1.6069e+02	-7.8293	-90.036201	0.000101	1.013302	0.171658	0.000020
1617	1.6079e+02	-7.8091	-89.987756	0.000243	2.431924	0.411979	0.000049
1618	1.6089e+02	-7.7892	-89.915087	0.000365	3.647886	0.617969	0.000073
1619	1.6099e+02	-7.7686	-89.882790	0.000162	1.621283	0.274653	0.000032
1620	1.6109e+02	-7.7487	-89.858567	0.000122	1.215962	0.205990	0.000024
1621	1.6119e+02	-7.7290	-89.798010	0.000304	3.039905	0.514974	0.000061
1622	1.6129e+02	-7.7095	-89.733416	0.000324	3.242566	0.549305	0.000065
1623	1.6139e+02	-7.6889	-89.745527	-0.000061	-0.607981	-0.102995	-0.000012
1624	1.6149e+02	-7.6691	-89.676896	0.000345	3.445226	0.583637	0.000069
1625	1.6159e+02	-7.6492	-89.668822	0.000041	0.405321	0.068663	0.000008
1626	1.6169e+02	-7.6298	-89.616339	0.000263	2.634585	0.446311	0.000053
1627	1.6179e+02	-7.6102	-89.555782	0.000304	3.039905	0.514974	0.000061
1628	1.6189e+02	-7.5903	-89.475039	0.000405	4.053207	0.686632	0.000081
1629	1.6199e+02	-7.5702	-89.483114	-0.000041	-0.405321	-0.068663	-0.000008
1630	1.6209e+02	-7.5488	-89.378148	0.000527	5.269169	0.892621	0.000105
1631	1.6219e+02	-7.5299	-89.362000	0.000081	0.810641	0.137326	0.000016
1632	1.6228e+02	-7.5104	-89.273183	0.000446	4.458528	0.755295	0.000089
1633	1.6238e+02	-7.4890	-89.240885	0.000162	1.621283	0.274653	0.000032
1634	1.6248e+02	-7.4707	-89.160143	0.000405	4.053207	0.686632	0.000081
1635	1.6258e+02	-7.4506	-89.131883	0.000142	1.418622	0.240321	0.000028
1636	1.6268e+02	-7.4307	-89.055177	0.000385	3.850547	0.652300	0.000077
1637	1.6278e+02	-7.4106	-89.034992	0.000101	1.013302	0.171658	0.000020
1638	1.6288e+02	-7.3911	-88.905803	0.000649	6.485131	1.098611	0.000130
1639	1.6298e+02	-7.3715	-88.905803	0.000000	0.000000	0.000000	0.000000
1640	1.6308e+02	-7.3511	-88.816986	0.000446	4.458528	0.755295	0.000089
1641	1.6318e+02	-7.3311	-88.732206	0.000426	4.255867	0.720963	0.000085
1642	1.6328e+02	-7.3111	-88.728169	0.000020	0.202660	0.034332	0.000004
1643	1.6338e+02	-7.2913	-88.631278	0.000486	4.863848	0.823958	0.000097
1644	1.6348e+02	-7.2714	-88.586869	0.000223	2.229264	0.377648	0.000045
1645	1.6358e+02	-7.2520	-88.526312	0.000304	3.039905	0.514974	0.000061
1646	1.6368e+02	-7.2314	-88.441533	0.000426	4.255867	0.720963	0.000085
1647	1.6378e+02	-7.2115	-88.437495	0.000020	0.202660	0.034332	0.000004
1648	1.6388e+02	-7.1930	-88.324456	0.000567	5.674490	0.961285	0.000114
1649	1.6398e+02	-7.1716	-88.243713	0.000405	4.053207	0.686632	0.000081
1650	1.6408e+02	-7.1518	-88.187193	0.000284	2.837245	0.480642	0.000057
1651	1.6418e+02	-7.1323	-88.142785	0.000223	2.229264	0.377648	0.000045
1652	1.6427e+02	-7.1117	-88.053968	0.000446	4.458528	0.755295	0.000089
1653	1.6437e+02	-7.0920	-88.025708	0.000142	1.418622	0.240321	0.000028
1654	1.6447e+02	-7.0721	-87.957076	0.000345	3.445226	0.583637	0.000069
1655	1.6457e+02	-7.0517	-87.900556	0.000284	2.837245	0.480642	0.000057
1656	1.6467e+02	-7.0319	-87.787517	0.000567	5.674490	0.961285	0.000114
1657	1.6477e+02	-7.0123	-87.678514	0.000547	5.471829	0.926953	0.000110
1658	1.6487e+02	-6.9923	-87.630068	0.000243	2.431924	0.411979	0.000049
1659	1.6497e+02	-6.9733	-87.597771	0.000162	1.621283	0.274653	0.000032
1660	1.6507e+02	-6.9518	-87.496843	0.000507	5.066509	0.858290	0.000101
1661	1.6517e+02	-6.9328	-87.424174	0.000365	3.647886	0.617969	0.000073
1662	1.6527e+02	-6.9131	-87.379766	0.000223	2.229264	0.377648	0.000045
1663	1.6537e+02	-6.8920	-87.303060	0.000385	3.850547	0.652300	0.000077
1664	1.6547e+02	-6.8732	-87.242503	0.000304	3.039905	0.514974	0.000061
1665	1.6557e+02	-6.8524	-87.169835	0.000365	3.647886	0.617969	0.000073
1666	1.6567e+02	-6.8335	-87.056795	0.000567	5.674490	0.961285	0.000114
1667	1.6577e+02	-6.8124	-86.980089	0.000385	3.850547	0.652300	0.000077
1668	1.6587e+02	-6.7931	-86.931644	0.000243	2.431924	0.411979	0.000049
1669	1.6597e+02	-6.7729	-86.810530	0.000608	6.079810	1.029948	0.000122
1670	1.6607e+02	-6.7534	-86.762084	0.000243	2.431924	0.411979	0.000049
1671	1.6616e+02	-6.7340	-86.685379	0.000385	3.850547	0.652300	0.000077
1672	1.6626e+02	-6.7137	-86.616747	0.000345	3.445226	0.583637	0.000069
1673	1.6636e+02	-6.6928	-86.548116	0.000345	3.445226	0.583637	0.000069
1674	1.6646e+02	-6.6736	-86.471410	0.000385	3.850547	0.652300	0.000077
1675	1.6656e+02	-6.6534	-86.346259	0.000628	6.282471	1.064279	0.000126
1676	1.6666e+02	-6.6339	-86.265516	0.000405	4.053207	0.686632	0.000081
1677	1.6676e+02	-6.6134	-86.192848	0.000365	3.647886	0.617969	0.000073
1678	1.6686e+02	-6.5942	-86.112105	0.000405	4.053207	0.686632	0.000081
1679	1.6696e+02	-6.5733	-86.031363	0.000405	4.053207	0.686632	0.000081
1680	1.6706e+02	-6.5540	-85.954657	0.000385	3.850547	0.652300	0.000077
1681	1.6716e+02	-6.5343	-85.918323	0.000182	1.823943	0.308984	0.000037
1682	1.6726e+02	-6.5135	-85.772986	0.000730	7.295773	1.235937	0.000146
1683	1.6736e+02	-6.4932	-85.716466	0.000284	2.837245	0.480642	0.000057
1684	1.6746e+02	-6.4734	-85.567092	0.000750	7.498433	1.270269	0.000150
1685	1.6756e+02	-6.4542	-85.522683	0.000223	2.229264	0.377648	0.000045
1686	1.6766e+02	-6.4349	-85.482312	0.000203	2.026603	0.343316	0.000041
1687	1.6776e+02	-6.4148	-85.349087	0.000669	6.687792	1.132943	0.000134
1688	1.6786e+02	-6.3947	-85.300641	0.000243	2.431924	0.411979	0.000049
1689	1.6796e+02	-6.3742	-85.223935	0.000385	3.850547	0.652300	0.000077
1690	1.6806e+02	-6.3535	-85.118970	0.000527	5.269169	0.892621	0.000105
1691	1.6816e+02	-6.3348	-85.038227	0.000405	4.053207	0.686632	0.000081
1692	1.6825e+02	-6.3150	-84.993819	0.000223	2.229264	0.377648	0.000045
1693	1.6835e+02	-6.2952	-84.905002	0.000446	4.458528	0.755295	0.000089
1694	1.6845e+02	-6.2750	-84.767739	0.000689	6.890452	1.167274	0.000138
1695	1.6855e+02	-6.2547	-84.674885	0.000466	4.661188	0.789627	0.000093
1696	1.6865e+02	-6.2360	-84.606254	0.000345	3.445226	0.583637	0.000069
1697	1.6875e+02	-6.2161	-84.501288	0.000527	5.269169	0.892621	0.000105
1698	1.6885e+02	-6.1960	-84.404397	0.000486	4.863848	0.823958	0.000097
1699	1.6895e+02	-6.1753	-84.335766	0.000345	3.445226	0.583637	0.000069
1700	1.6905e+02	-6.1557	-84.263097	0.000365	3.647886	0.617969	0.000073
1701	1.6915e+02	-6.1362	-84.125835	0.000689	6.890452	1.167274	0.000138
1702	1.6925e+02	-6.1150	-84.041055	0.000426	4.255867	0.720963	0.000085
1703	1.6935e+02	-6.0954	-83.984535	0.000284	2.837245	0.480642	0.000057
1704	1.6945e+02	-6.0760	-83.891681	0.000466	4.661188	0.789627	0.000093
1705	1.6955e+02	-6.0565	-83.802864	0.000446	4.458528	0.755295	0.000089
1706	1.6965e+02	-6.0365	-83.701935	0.000507	5.066509	0.858290	0.000101
1707	1.6975e+02	-6.0161	-83.609081	0.000466	4.661188	0.789627	0.000093
1708	1.6985e+02	-5.9961	-83.500078	0.000547	5.471829	0.926953	0.000110
1709	1.6995e+02	-5.9760	-83.455670	0.000223	2.229264	0.377648	0.000045
1710	1.7005e+02	-5.9554	-83.346667	0.000547	5.471829	0.926953	0.000110
1711	1.7015e+02	-5.9360	-83.278036	0.000345	3.445226	0.583637	0.000069
1712	1.7024e+02	-5.9171	-83.177108	0.000507	5.066509	0.858290	0.000101
1713	1.7034e+02	-5.8968	-83.068105	0.000547	5.471829	0.926953	0.000110
1714	1.7044e+02	-5.8772	-82.995437	0.000365	3.647886	0.617969	0.000073
1715	1.7054e+02	-5.8568	-82.898545	0.000486	4.863848	0.823958	0.000097
1716	1.7064e+02	-5.8372	-82.813765	0.000426	4.255867	0.720963	0.000085
1717	1.7074e+02	-5.8165	-82.696688	0.000588	5.877150	0.995616	0.000118
1718	1.7084e+02	-5.7968	-82.615946	0.000405	4.053207	0.686632	0.000081
1719	1.7094e+02	-5.7767	-82.535203	0.000405	4.053207	0.686632	0.000081
1720	1.7104e+02	-5.7573	-82.397940	0.000689	6.890452	1.167274	0.000138
1721	1.7114e+02	-5.7367	-82.305086	0.000466	4.661188	0.789627	0.000093
1722	1.7124e+02	-5.7175	-82.260678	0.000223	2.229264	0.377648	0.000045
1723	1.7134e+02	-5.6970	-82.151675	0.000547	5.471829	0.926953	0.000110
1724	1.7144e+02	-5.6773	-82.066895	0.000426	4.255867	0.720963	0.000085
1725	1.7154e+02	-5.6580	-81.974041	0.000466	4.661188	0.789627	0.000093
1726	1.7164e+02	-5.6372	-81.889261	0.000426	4.255867	0.720963	0.000085
1727	1.7174e+02	-5.6174	-81.784296	0.000527	5.269169	0.892621	0.000105
1728	1.7184e+02	-5.5972	-81.683367	0.000507	5.066509	0.858290	0.000101
1729	1.7194e+02	-5.5783	-81.622810	0.000304	3.039905	0.514974	0.000061
1730	1.7204e+02	-5.5573	-81.521882	0.000507	5.066509	0.858290	0.000101
1731	1.7213e+02	-5.5388	-81.360397	0.000811	8.106414	1.373264	0.000162
1732	1.7223e+02	-5.5228	-81.344248	0.000081	0.810641	0.137326	0.000016
1733	1.7233e+02	-5.4987	-81.215060	0.000649	6.485131	1.098611	0.000130
1734	1.7243e+02	-5.4778	-81.150465	0.000324	3.242566	0.549305	0.000065
1735	1.7253e+02	-5.4575	-81.017240	0.000669	6.687792	1.132943	0.000134
1736	1.7263e+02	-5.4387	-80.944572	0.000365	3.647886	0.617969	0.000073
1737	1.7273e+02	-5.4187	-80.851717	0.000466	4.661188	0.789627	0.000093
1738	1.7283e+02	-5.3976	-80.766938	0.000426	4.255867	0.720963	0.000085
1739	1.7293e+02	-5.3784	-80.661972	0.000527	5.269169	0.892621	0.000105
1740	1.7303e+02	-5.3579	-80.565081	0.000486	4.863848	0.823958	0.000097
1741	1.7313e+02	-5.3393	-80.460115	0.000527	5.269169	0.892621	0.000105
1742	1.7323e+02	-5.3183	-80.363224	0.000486	4.863848	0.823958	0.000097
1743	1.7333e+02	-5.2978	-80.290556	0.000365	3.647886	0.617969	0.000073
1744	1.7343e+02	-5.2783	-80.153293	0.000689	6.890452	1.167274	0.000138
1745	1.7353e+02	-5.2585	-80.044290	0.000547	5.471829	0.926953	0.000110
1746	1.7363e+02	-5.2395	-79.963548	0.000405	4.053207	0.686632	0.000081
1747	1.7373e+02	-5.2197	-79.866656	0.000486	4.863848	0.823958	0.000097
1748	1.7383e+02	-5.1986	-79.737468	0.000649	6.485131	1.098611	0.000130
1749	1.7393e+02	-5.1791	-79.664800	0.000365	3.647886	0.617969	0.000073
1750	1.7403e+02	-5.1596	-79.592131	0.000365	3.647886	0.617969	0.000073
1751	1.7413e+02	-5.1389	-79.466980	0.000628	6.282471	1.064279	0.000126
1752	1.7422e+02	-5.1189	-79.386237	0.000405	4.053207	0.686632	0.000081
1753	1.7432e+02	-5.0986	-79.277234	0.000547	5.471829	0.926953	0.000110
1754	1.7442e+02	-5.0793	-79.208603	0.000345	3.445226	0.583637	0.000069
1755	1.7452e+02	-5.0589	-79.063266	0.000730	7.295773	1.235937	0.000146
1756	1.7462e+02	-5.0398	-78.978486	0.000426	4.255867	0.720963	0.000085
1757	1.7472e+02	-5.0195	-78.889669	0.000446	4.458528	0.755295	0.000089
1758	1.7482e+02	-4.9994	-78.776630	0.000567	5.674490	0.961285	0.000114
1759	1.7492e+02	-4.9792	-78.732221	0.000223	2.229264	0.377648	0.000045
1760	1.7502e+02	-4.9606	-78.586884	0.000730	7.295773	1.235937	0.000146
1761	1.7512e+02	-4.9414	-78.514216	0.000365	3.647886	0.617969	0.000073
1762	1.7522e+02	-4.9200	-78.397139	0.000588	5.877150	0.995616	0.000118
1763	1.7532e+02	-4.9002	-78.308322	0.000446	4.458528	0.755295	0.000089
1764	1.7542e+02	-4.8810	-78.175096	0.000669	6.687792	1.132943	0.000134
1765	1.7552e+02	-4.8606	-78.086279	0.000446	4.458528	0.755295	0.000089
1766	1.7562e+02	-4.8407	-77.997462	0.000446	4.458528	0.755295	0.000089
1767	1.7572e+02	-4.8206	-77.892497	0.000527	5.269169	0.892621	0.000105
1768	1.7582e+02	-4.8003	-77.759271	0.000669	6.687792	1.132943	0.000134
1769	1.7592e+02	-4.7803	-77.694677	0.000324	3.242566	0.549305	0.000065
1770	1.7602e+02	-4.7610	-77.561452	0.000669	6.687792	1.132943	0.000134
1771	1.7612e+02	-4.7406	-77.496858	0.000324	3.242566	0.549305	0.000065
1772	1.7621e+02	-4.7205	-77.367669	0.000649	6.485131	1.098611	0.000130
1773	1.7631e+02	-4.7003	-77.262704	0.000527	5.269169	0.892621	0.000105
1774	1.7641e+02	-4.6806	-77.185998	0.000385	3.850547	0.652300	0.000077
1775	1.7651e+02	-4.6616	-77.076996	0.000547	5.471829	0.926953	0.000110
1776	1.7661e+02	-4.6410	-76.935696	0.000709	7.093112	1.201606	0.000142
1777	1.7671e+02	-4.6210	-76.838805	0.000486	4.863848	0.823958	0.000097
1778	1.7681e+02	-4.6010	-76.762099	0.000385	3.850547	0.652300	0.000077
1779	1.7691e+02	-4.5824	-76.592539	0.000851	8.511735	1.441927	0.000170
1780	1.7701e+02	-4.5615	-76.552168	0.000203	2.026603	0.343316	0.000041
1781	1.7711e+02	-4.5406	-76.431054	0.000608	6.079810	1.029948	0.000122
1782	1.7721e+02	-4.5219	-76.305903	0.000628	6.282471	1.064279	0.000126
1783	1.7731e+02	-4.5023	-76.229197	0.000385	3.850547	0.652300	0.000077
1784	1.7741e+02	-4.4818	-76.132306	0.000486	4.863848	0.823958	0.000097
1785	1.7751e+02	-4.4608	-76.007155	0.000628	6.282471	1.064279	0.000126
1786	1.7761e+02	-4.4421	-75.922375	0.000426	4.255867	0.720963	0.000085
1787	1.7771e+02	-4.4223	-75.748778	0.000871	8.714395	1.476258	0.000174
1788	1.7781e+02	-4.4019	-75.700332	0.000243	2.431924	0.411979	0.000049
1789	1.7791e+02	-4.3816	-75.550958	0.000750	7.498433	1.270269	0.000150
1790	1.7801e+02	-4.3625	-75.429844	0.000608	6.079810	1.029948	0.000122
1791	1.7810e+02	-4.3413	-75.328916	0.000507	5.066509	0.858290	0.000101
1792	1.7820e+02	-4.3225	-75.260284	0.000345	3.445226	0.583637	0.000069
1793	1.7830e+02	-4.3018	-75.118985	0.000709	7.093112	1.201606	0.000142
1794	1.7840e+02	-4.2825	-75.050353	0.000345	3.445226	0.583637	0.000069
1795	1.7850e+02	-4.2632	-74.949425	0.000507	5.066509	0.858290	0.000101
1796	1.7860e+02	-4.2428	-74.816199	0.000669	6.687792	1.132943	0.000134
1797	1.7870e+02	-4.2221	-74.678937	0.000689	6.890452	1.167274	0.000138
1798	1.7880e+02	-4.2023	-74.565897	0.000567	5.674490	0.961285	0.000114
1799	1.7890e+02	-4.1815	-74.477080	0.000446	4.458528	0.755295	0.000089
1800	1.7900e+02	-4.1635	-74.364040	0.000567	5.674490	0.961285	0.000114
1801	1.7910e+02	-4.1422	-74.255038	0.000547	5.471829	0.926953	0.000110
1802	1.7920e+02	-4.1229	-74.105664	0.000750	7.498433	1.270269	0.000150
1803	1.7930e+02	-4.1031	-74.032995	0.000365	3.647886	0.617969	0.000073
1804	1.7940e+02	-4.0828	-73.919955	0.000567	5.674490	0.961285	0.000114
1805	1.7950e+02	-4.0629	-73.762507	0.000790	7.903754	1.338932	0.000158
1806	1.7960e+02	-4.0443	-73.641393	0.000608	6.079810	1.029948	0.000122
1807	1.7970e+02	-4.0234	-73.520279	0.000608	6.079810	1.029948	0.000122
1808	1.7980e+02	-4.0039	-73.431462	0.000446	4.458528	0.755295	0.000089
1809	1.7990e+02	-3.9825	-73.310348	0.000608	6.079810	1.029948	0.000122
1810	1.8000e+02	-3.9636	-73.197308	0.000567	5.674490	0.961285	0.000114
1811	1.8009e+02	-3.9426	-73.056008	0.000709	7.093112	1.201606	0.000142
1812	1.8019e+02	-3.9236	-72.987377	0.000345	3.445226	0.583637	0.000069
1813	1.8029e+02	-3.9041	-72.870300	0.000588	5.877150	0.995616	0.000118
1814	1.8039e+02	-3.8834	-72.700740	0.000851	8.511735	1.441927	0.000170
1815	1.8049e+02	-3.8638	-72.615961	0.000426	4.255867	0.720963	0.000085
1816	1.8059e+02	-3.8432	-72.531181	0.000426	4.255867	0.720963	0.000085
1817	1.8069e+02	-3.8237	-72.418141	0.000567	5.674490	0.961285	0.000114
1818	1.8079e+02	-3.8039	-72.284915	0.000669	6.687792	1.132943	0.000134
1819	1.8089e+02	-3.7836	-72.139579	0.000730	7.295773	1.235937	0.000146
1820	1.8099e+02	-3.7637	-72.022502	0.000588	5.877150	0.995616	0.000118
1821	1.8109e+02	-3.7447	-71.917536	0.000527	5.269169	0.892621	0.000105
1822	1.8119e+02	-3.7242	-71.768162	0.000750	7.498433	1.270269	0.000150
1823	1.8129e+02	-3.7049	-71.663196	0.000527	5.269169	0.892621	0.000105
1824	1.8139e+02	-3.6847	-71.517860	0.000730	7.295773	1.235937	0.000146
1825	1.8149e+02	-3.6646	-71.437117	0.000405	4.053207	0.686632	0.000081
1826	1.8159e+02	-3.6453	-71.279669	0.000790	7.903754	1.338932	0.000158
1827	1.8169e+02	-3.6255	-71.178740	0.000507	5.066509	0.858290	0.000101
1828	1.8179e+02	-3.6053	-71.061663	0.000588	5.877150	0.995616	0.000118
1829	1.8189e+02	-3.5850	-70.940549	0.000608	6.079810	1.029948	0.000122
1830	1.8199e+02	-3.5651	-70.779064	0.000811	8.106414	1.373264	0.000162
1831	1.8209e+02	-3.5461	-70.674098	0.000527	5.269169	0.892621	0.000105
1832	1.8218e+02	-3.5255	-70.561058	0.000567	5.674490	0.961285	0.000114
1833	1.8228e+02	-3.5046	-70.439944	0.000608	6.079810	1.029948	0.000122
1834	1.8238e+02	-3.4847	-70.330942	0.000547	5.471829	0.926953	0.000110
1835	1.8248e+02	-3.4659	-70.181568	0.000750	7.498433	1.270269	0.000150
1836	1.8258e+02	-3.4454	-70.084676	0.000486	4.863848	0.823958	0.000097
1837	1.8268e+02	-3.4253	-69.955488	0.000649	6.485131	1.098611	0.000130
1838	1.8278e+02	-3.4055	-69.781891	0.000871	8.714395	1.476258	0.000174
1839	1.8288e+02	-3.3855	-69.705186	0.000385	3.850547	0.652300	0.000077
1840	1.8298e+02	-3.3657	-69.571960	0.000669	6.687792	1.132943	0.000134
1841	1.8308e+02	-3.3456	-69.466995	0.000527	5.269169	0.892621	0.000105
1842	1.8318e+02	-3.3258	-69.301472	0.000831	8.309074	1.407595	0.000166
1843	1.8328e+02	-3.3061	-69.152098	0.000750	7.498433	1.270269	0.000150
1844	1.8338e+02	-3.2864	-69.047133	0.000527	5.269169	0.892621	0.000105
1845	1.8348e+02	-3.2646	-68.946204	0.000507	5.066509	0.858290	0.000101
1846	1.8358e+02	-3.2465	-68.804904	0.000709	7.093112	1.201606	0.000142
1847	1.8368e+02	-3.2267	-68.712050	0.000466	4.661188	0.789627	0.000093
1848	1.8378e+02	-3.2059	-68.538453	0.000871	8.714395	1.476258	0.000174
1849	1.8388e+02	-3.1864	-68.385042	0.000770	7.701093	1.304601	0.000154
1850	1.8398e+02	-3.1657	-68.223557	0.000811	8.106414	1.373264	0.000162
1851	1.8407e+02	-3.1462	-68.158963	0.000324	3.242566	0.549305	0.000065
1852	1.8417e+02	-3.1268	-68.041886	0.000588	5.877150	0.995616	0.000118
1853	1.8427e+02	-3.1072	-67.888475	0.000770	7.701093	1.304601	0.000154
1854	1.8437e+02	-3.0870	-67.763323	0.000628	6.282471	1.064279	0.000126
1855	1.8447e+02	-3.0661	-67.622024	0.000709	7.093112	1.201606	0.000142
1856	1.8457e+02	-3.0472	-67.513021	0.000547	5.471829	0.926953	0.000110
1857	1.8467e+02	-3.0273	-67.351536	0.000811	8.106414	1.373264	0.000162
1858	1.8477e+02	-3.0067	-67.226384	0.000628	6.282471	1.064279	0.000126
1859	1.8487e+02	-2.9865	-67.117382	0.000547	5.471829	0.926953	0.000110
1860	1.8497e+02	-2.9674	-66.992230	0.000628	6.282471	1.064279	0.000126
1861	1.8507e+02	-2.9466	-66.846894	0.000730	7.295773	1.235937	0.000146
1862	1.8517e+02	-2.9278	-66.713668	0.000669	6.687792	1.132943	0.000134
1863	1.8527e+02	-2.9079	-66.560257	0.000770	7.701093	1.304601	0.000154
1864	1.8537e+02	-2.8876	-66.447217	0.000567	5.674490	0.961285	0.000114
1865	1.8547e+02	-2.8667	-66.285732	0.000811	8.106414	1.373264	0.000162
1866	1.8557e+02	-2.8476	-66.180766	0.000527	5.269169	0.892621	0.000105
1867	1.8567e+02	-2.8271	-66.035429	0.000730	7.295773	1.235937	0.000146
1868	1.8577e+02	-2.8078	-65.910278	0.000628	6.282471	1.064279	0.000126
1869	1.8587e+02	-2.7878	-65.793201	0.000588	5.877150	0.995616	0.000118
1870	1.8597e+02	-2.7679	-65.664013	0.000649	6.485131	1.098611	0.000130
1871	1.8606e+02	-2.7472	-65.486379	0.000892	8.917055	1.510590	0.000179
1872	1.8616e+02	-2.7280	-65.405636	0.000405	4.053207	0.686632	0.000081
1873	1.8626e+02	-2.7071	-65.268373	0.000689	6.890452	1.167274	0.000138
1874	1.8636e+02	-2.6880	-65.139185	0.000649	6.485131	1.098611	0.000130
1875	1.8646e+02	-2.6677	-64.957514	0.000912	9.119716	1.544922	0.000183
1876	1.8656e+02	-2.6476	-64.848511	0.000547	5.471829	0.926953	0.000110
1877	1.8666e+02	-2.6282	-64.703174	0.000730	7.295773	1.235937	0.000146
1878	1.8676e+02	-2.6077	-64.598209	0.000527	5.269169	0.892621	0.000105
1879	1.8686e+02	-2.5887	-64.464983	0.000669	6.687792	1.132943	0.000134
1880	1.8696e+02	-2.5681	-64.279275	0.000932	9.322376	1.579253	0.000187
1881	1.8706e+02	-2.5484	-64.182384	0.000486	4.863848	0.823958	0.000097
1882	1.8716e+02	-2.5277	-64.020899	0.000811	8.106414	1.373264	0.000162
1883	1.8726e+02	-2.5082	-63.907859	0.000567	5.674490	0.961285	0.000114
1884	1.8736e+02	-2.4884	-63.782708	0.000628	6.282471	1.064279	0.000126
1885	1.8746e+02	-2.4701	-63.621222	0.000811	8.106414	1.373264	0.000162
1886	1.8756e+02	-2.4498	-63.520294	0.000507	5.066509	0.858290	0.000101
1887	1.8766e+02	-2.4294	-63.391105	0.000649	6.485131	1.098611	0.000130
1888	1.8776e+02	-2.4100	-63.249806	0.000709	7.093112	1.201606	0.000142
1889	1.8786e+02	-2.3890	-63.112543	0.000689	6.890452	1.167274	0.000138
1890	1.8796e+02	-2.3698	-62.959132	0.000770	7.701093	1.304601	0.000154
1891	1.8806e+02	-2.3493	-62.789572	0.000851	8.511735	1.441927	0.000170
1892	1.8815e+02	-2.3296	-62.680569	0.000547	5.471829	0.926953	0.000110
1893	1.8825e+02	-2.3096	-62.563493	0.000588	5.877150	0.995616	0.000118
1894	1.8835e+02	-2.2906	-62.418156	0.000730	7.295773	1.235937	0.000146
1895	1.8845e+02	-2.2698	-62.276856	0.000709	7.093112	1.201606	0.000142
1896	1.8855e+02	-2.2505	-62.159779	0.000588	5.877150	0.995616	0.000118
1897	1.8865e+02	-2.2293	-62.054813	0.000527	5.269169	0.892621	0.000105
1898	1.8875e+02	-2.2101	-61.897365	0.000790	7.903754	1.338932	0.000158
1899	1.8885e+02	-2.1899	-61.735880	0.000811	8.106414	1.373264	0.000162
1900	1.8895e+02	-2.1698	-61.606691	0.000649	6.485131	1.098611	0.000130
1901	1.8905e+02	-2.1504	-61.497689	0.000547	5.471829	0.926953	0.000110
1902	1.8915e+02	-2.1301	-61.328129	0.000851	8.511735	1.441927	0.000170
1903	1.8925e+02	-2.1110	-61.190866	0.000689	6.890452	1.167274	0.000138
1904	1.8935e+02	-2.0910	-61.110124	0.000405	4.053207	0.686632	0.000081
1905	1.8945e+02	-2.0706	-60.928453	0.000912	9.119716	1.544922	0.000183
1906	1.8955e+02	-2.0502	-60.799264	0.000649	6.485131	1.098611	0.000130
1907	1.8965e+02	-2.0311	-60.613556	0.000932	9.322376	1.579253	0.000187
1908	1.8975e+02	-2.0110	-60.484368	0.000649	6.485131	1.098611	0.000130
1909	1.8985e+02	-1.9908	-60.375365	0.000547	5.471829	0.926953	0.000110
1910	1.8995e+02	-1.9701	-60.246177	0.000649	6.485131	1.098611	0.000130
1911	1.9004e+02	-1.9511	-60.080654	0.000831	8.309074	1.407595	0.000166
1912	1.9014e+02	-1.9312	-59.959540	0.000608	6.079810	1.029948	0.000122
1913	1.9024e+02	-1.9113	-59.834389	0.000628	6.282471	1.064279	0.000126
1914	1.9034e+02	-1.8918	-59.660792	0.000871	8.714395	1.476258	0.000174
1915	1.9044e+02	-1.8713	-59.523529	0.000689	6.890452	1.167274	0.000138
1916	1.9054e+02	-1.8515	-59.390304	0.000669	6.687792	1.132943	0.000134
1917	1.9064e+02	-1.8315	-59.273227	0.000588	5.877150	0.995616	0.000118
1918	1.9074e+02	-1.8127	-59.123853	0.000750	7.498433	1.270269	0.000150
1919	1.9084e+02	-1.7910	-59.002739	0.000608	6.079810	1.029948	0.000122
1920	1.9094e+02	-1.7720	-58.817031	0.000932	9.322376	1.579253	0.000187
1921	1.9104e+02	-1.7512	-58.732251	0.000426	4.255867	0.720963	0.000085
1922	1.9114e+02	-1.7331	-58.562691	0.000851	8.511735	1.441927	0.000170
1923	1.9124e+02	-1.7120	-58.425428	0.000689	6.890452	1.167274	0.000138
1924	1.9134e+02	-1.6915	-58.280092	0.000730	7.295773	1.235937	0.000146
1925	1.9144e+02	-1.6722	-58.122643	0.000790	7.903754	1.338932	0.000158
1926	1.9154e+02	-1.6527	-57.985381	0.000689	6.890452	1.167274	0.000138
1927	1.9164e+02	-1.6330	-57.840044	0.000730	7.295773	1.235937	0.000146
1928	1.9174e+02	-1.6098	-57.694707	0.000730	7.295773	1.235937	0.000146
1929	1.9184e+02	-1.5921	-57.573593	0.000608	6.079810	1.029948	0.000122
1930	1.9194e+02	-1.5726	-57.448442	0.000628	6.282471	1.064279	0.000126
1931	1.9203e+02	-1.5526	-57.307142	0.000709	7.093112	1.201606	0.000142
1932	1.9213e+02	-1.5326	-57.153731	0.000770	7.701093	1.304601	0.000154
1933	1.9223e+02	-1.5130	-57.016468	0.000689	6.890452	1.167274	0.000138
1934	1.9233e+02	-1.4922	-56.887280	0.000649	6.485131	1.098611	0.000130
1935	1.9243e+02	-1.4715	-56.701571	0.000932	9.322376	1.579253	0.000187
1936	1.9253e+02	-1.4520	-56.584495	0.000588	5.877150	0.995616	0.000118
1937	1.9263e+02	-1.4335	-56.439158	0.000730	7.295773	1.235937	0.000146
1938	1.9273e+02	-1.4130	-56.297858	0.000709	7.093112	1.201606	0.000142
1939	1.9283e+02	-1.3925	-56.200967	0.000486	4.863848	0.823958	0.000097
1940	1.9293e+02	-1.3729	-56.015258	0.000932	9.322376	1.579253	0.000187
1941	1.9303e+02	-1.3531	-55.882033	0.000669	6.687792	1.132943	0.000134
1942	1.9313e+02	-1.3335	-55.744770	0.000689	6.890452	1.167274	0.000138
1943	1.9323e+02	-1.3132	-55.643842	0.000507	5.066509	0.858290	0.000101
1944	1.9333e+02	-1.2927	-55.450059	0.000973	9.727697	1.647916	0.000195
1945	1.9343e+02	-1.2732	-55.288574	0.000811	8.106414	1.373264	0.000162
1946	1.9353e+02	-1.2544	-55.191683	0.000486	4.863848	0.823958	0.000097
1947	1.9363e+02	-1.2334	-54.997900	0.000973	9.727697	1.647916	0.000195
1948	1.9373e+02	-1.2136	-54.888897	0.000547	5.471829	0.926953	0.000110
1949	1.9383e+02	-1.1937	-54.719338	0.000851	8.511735	1.441927	0.000170
1950	1.9393e+02	-1.1734	-54.569964	0.000750	7.498433	1.270269	0.000150
1951	1.9403e+02	-1.1545	-54.489221	0.000405	4.053207	0.686632	0.000081
1952	1.9412e+02	-1.1345	-54.315624	0.000871	8.714395	1.476258	0.000174
1953	1.9422e+02	-1.1142	-54.198547	0.000588	5.877150	0.995616	0.000118
1954	1.9432e+02	-1.0951	-54.024950	0.000871	8.714395	1.476258	0.000174
1955	1.9442e+02	-1.0740	-53.863465	0.000811	8.106414	1.373264	0.000162
1956	1.9452e+02	-1.0551	-53.681794	0.000912	9.119716	1.544922	0.000183
1957	1.9462e+02	-1.0339	-53.572791	0.000547	5.471829	0.926953	0.000110
1958	1.9472e+02	-1.0139	-53.451677	0.000608	6.079810	1.029948	0.000122
1959	1.9482e+02	-0.9948	-53.298266	0.000770	7.701093	1.304601	0.000154
1960	1.9492e+02	-0.9750	-53.144855	0.000770	7.701093	1.304601	0.000154
1961	1.9502e+02	-0.9542	-53.023741	0.000608	6.079810	1.029948	0.000122
1962	1.9512e+02	-0.9350	-52.862255	0.000811	8.106414	1.373264	0.000162
1963	1.9522e+02	-0.9142	-52.729030	0.000669	6.687792	1.132943	0.000134
1964	1.9532e+02	-0.8948	-52.567544	0.000811	8.106414	1.373264	0.000162
1965	1.9542e+02	-0.8748	-52.422208	0.000730	7.295773	1.235937	0.000146
1966	1.9552e+02	-0.8542	-52.280908	0.000709	7.093112	1.201606	0.000142
1967	1.9562e+02	-0.8356	-52.083088	0.000993	9.930357	1.682248	0.000199
1968	1.9572e+02	-0.8157	-51.982160	0.000507	5.066509	0.858290	0.000101
1969	1.9582e+02	-0.7950	-51.812600	0.000851	8.511735	1.441927	0.000170
1970	1.9592e+02	-0.7754	-51.659189	0.000770	7.701093	1.304601	0.000154
1971	1.9601e+02	-0.7550	-51.513852	0.000730	7.295773	1.235937	0.000146
1972	1.9611e+02	-0.7357	-51.396775	0.000588	5.877150	0.995616	0.000118
1973	1.9621e+02	-0.7159	-51.190881	0.001034	10.335678	1.750911	0.000207
1974	1.9631e+02	-0.6956	-51.069767	0.000608	6.079810	1.029948	0.000122
1975	1.9641e+02	-0.6757	-50.916356	0.000770	7.701093	1.304601	0.000154
1976	1.9651e+02	-0.6551	-50.762945	0.000770	7.701093	1.304601	0.000154
1977	1.9661e+02	-0.6360	-50.633756	0.000649	6.485131	1.098611	0.000130
1978	1.9671e+02	-0.6164	-50.468234	0.000831	8.309074	1.407595	0.000166
1979	1.9681e+02	-0.5961	-50.290600	0.000892	8.917055	1.510590	0.000179
1980	1.9691e+02	-0.5762	-50.141226	0.000750	7.498433	1.270269	0.000150
1981	1.9701e+02	-0.5566	-50.020112	0.000608	6.079810	1.029948	0.000122
1982	1.9711e+02	-0.5373	-49.858626	0.000811	8.106414	1.373264	0.000162
1983	1.9721e+02	-0.5168	-49.705215	0.000770	7.701093	1.304601	0.000154
1984	1.9731e+02	-0.4968	-49.571990	0.000669	6.687792	1.132943	0.000134
1985	1.9741e+02	-0.4757	-49.410504	0.000811	8.106414	1.373264	0.000162
1986	1.9751e+02	-0.4573	-49.269205	0.000709	7.093112	1.201606	0.000142
1987	1.9761e+02	-0.4375	-49.123868	0.000730	7.295773	1.235937	0.000146
1988	1.9771e+02	-0.4168	-48.938159	0.000932	9.322376	1.579253	0.000187
1989	1.9781e+02	-0.3970	-48.796860	0.000709	7.093112	1.201606	0.000142
1990	1.9791e+02	-0.3778	-48.623263	0.000871	8.714395	1.476258	0.000174
1991	1.9800e+02	-0.3569	-48.510223	0.000567	5.674490	0.961285	0.000114
1992	1.9810e+02	-0.3369	-48.348738	0.000811	8.106414	1.373264	0.000162
1993	1.9820e+02	-0.3160	-48.179178	0.000851	8.511735	1.441927	0.000170
1994	1.9830e+02	-0.2962	-48.025767	0.000770	7.701093	1.304601	0.000154
1995	1.9840e+02	-0.2769	-47.836021	0.000953	9.525036	1.613585	0.000191
1996	1.9850e+02	-0.2569	-47.718944	0.000588	5.877150	0.995616	0.000118
1997	1.9860e+02	-0.2370	-47.585719	0.000669	6.687792	1.132943	0.000134
1998	1.9870e+02	-0.2172	-47.404048	0.000912	9.119716	1.544922	0.000183
1999	1.9880e+02	-0.1970	-47.250637	0.000770	7.701093	1.304601	0.000154
2000	1.9890e+02	-0.1778	-47.077040	0.000871	8.714395	1.476258	0.000174
2001	1.9900e+02	-0.1582	-46.976111	0.000507	5.066509	0.858290	0.000101
2002	1.9910e+02	-0.1376	-46.802515	0.000871	8.714395	1.476258	0.000174
2003	1.9920e+02	-0.1178	-46.641029	0.000811	8.106414	1.373264	0.000162
2004	1.9930e+02	-0.0974	-46.483581	0.000790	7.903754	1.338932	0.000158
2005	1.9940e+02	-0.0782	-46.362467	0.000608	6.079810	1.029948	0.000122
2006	1.9950e+02	-0.0583	-46.188870	0.000871	8.714395	1.476258	0.000174
2007	1.9960e+02	-0.0371	-46.015273	0.000871	8.714395	1.476258	0.000174
2008	1.9970e+02	-0.0192	-45.861862	0.000770	7.701093	1.304601	0.000154
2009	1.9980e+02	0.0015	-45.720562	0.000770	7.701093	1.304601	0.000142

PMax (uC/cm2):	6.87e+01
Pr (uC/cm2):	1.83e+01
-Pr (uC/cm2):	-6.75e+01
PLoss (uC/cm2):	-6.76e+01
-Vc:	-2.45e+00
C (Max-Eff) (nF):	6.87e-01
K (Eff):	1.16e+03
Vert. (+/-Pr) Shift (uC/cm2):	-2.46e+01
Offset (uC/cm2):	-2.18e+01

A (Loop Area - uC/cm2·Volts):	-4.86e-01



Hysteresis Version: 5.48.1 - Radiant Technologies, Inc., 1999 - 9/12/24

