»»»»»»»»»»»»»»»»»»»»»»»»»»»»»»»»»»»» Hysteresis ««««««««««««««««««««««««««««««««««««
»»»  Executed Version:	5.48.1
»»»  Vision Version:	5.48.4 (R)
»»»  Vision Compiled:	9/18/24
»»»  Driver Version:	5.47.0
»»»  Windows Version:	Windows 8 or 8.1
»»»  Processor Information:	x86 (AMD or Intel) - 32 Processors
»»»  Tester Name:	PMF21124-494 (100V)
»»»  Tester S/N:	PMF21124-494
»»»  Internal Amp Type:	100V RevK 270k
»»»  Internal Amp S/N:	iAB2-596/K     
»»»  Execution Count:	1
»»»»»»»»»»»»»»»»»»»»»»»»»»»»»»»»»»»»»»»»»»««««««««««««««««««««««««««««««««««««««««««

Stored:	7/3/2025 - 12:29:19
Configured:	07/03/25 12:01:19 PM
Executed:	07/03/25 12:28:51 PM

»»»»»»»»»»»»»»»»»»»»»»»»»»»»»»»»»»» Sample Info ««««««««««««««««««««««««««««««««««««
Sample Name:	
Lot Name:	
Wafer Name:	
Die Row/Column:	0/0
Capacitor Number:	0
Sample Area (cm2):	1.00e-04
Sample Thickness (microns):	1.50e-01

Amplifier:	Internal

»»»»»»»»»»»»»»»»»»»»»»»»»»»»»»»»»»» Tester Info «««««««««««««««««««««««««««««««««««
Tester Name:	PMF21124-494 (100V)
Tester Serial Number:	PMF21124-494
Return Signal Amp. Level:	0.19 [Index: 3]

»»»»»»»»»»»»»»»»»»»»»»»»»»»»»»»» Hysteresis Info ««««««««««««««««««««««««««««««««««
Task Name:	Hyst-410
Volts:	10.00
Field:	666.67 (kV/cm)
DCBias:	0.00
DCField:	0.00 (kV/cm)
Hysteresis Period (ms):	2.00e+02
Preset:	Enabled
Preset Delay (ms):	1.00e+03
Profile:	Standard Bipolar

»»»»»»»»»»»»»»»»»»»»»»»»»»»»»»»»»»»»»» Data «««««««««««««««««««««««««««««««««««««««
Points:	2009

Valid Data

Point	Time (ms)	Drive Voltage	Measured Polarization (uC/cm2)	Capacitance (uF)	Normalized Capacitance (uF/cm2)	Dielectric Constant	Instantaneous Current (mA)
   1	0.0000e+00	-0.0009	3.153003	0.000649	6.485317	1.098642	0.000130
   2	9.9500e-02	0.0198	3.282191	0.000649	6.485317	1.098642	0.000130
   3	1.9900e-01	0.0398	3.395231	0.000567	5.674652	0.961312	0.000114
   4	2.9850e-01	0.0597	3.488085	0.000466	4.661321	0.789649	0.000093
   5	3.9800e-01	0.0798	3.589014	0.000507	5.066654	0.858314	0.000101
   6	4.9750e-01	0.0994	3.698016	0.000547	5.471986	0.926980	0.000110
   7	5.9700e-01	0.1205	3.843353	0.000730	7.295981	1.235973	0.000146
   8	6.9650e-01	0.1404	3.956393	0.000567	5.674652	0.961312	0.000114
   9	7.9600e-01	0.1605	4.016950	0.000304	3.039992	0.514989	0.000061
  10	8.9550e-01	0.1806	4.150176	0.000669	6.687983	1.132975	0.000134
  11	9.9500e-01	0.1997	4.247067	0.000486	4.863988	0.823982	0.000097
  12	1.0945e+00	0.2177	4.408552	0.000811	8.106646	1.373303	0.000162
  13	1.1940e+00	0.2396	4.513518	0.000527	5.269320	0.892647	0.000105
  14	1.2935e+00	0.2589	4.610409	0.000486	4.863988	0.823982	0.000097
  15	1.3930e+00	0.2776	4.727486	0.000588	5.877318	0.995645	0.000118
  16	1.4925e+00	0.2988	4.852637	0.000628	6.282651	1.064310	0.000126
  17	1.5920e+00	0.3188	4.933380	0.000405	4.053323	0.686651	0.000081
  18	1.6915e+00	0.3392	5.046420	0.000567	5.674652	0.961312	0.000114
  19	1.7910e+00	0.3579	5.155422	0.000547	5.471986	0.926980	0.000110
  20	1.8905e+00	0.3778	5.256351	0.000507	5.066654	0.858314	0.000101
  21	1.9900e+00	0.3997	5.357279	0.000507	5.066654	0.858314	0.000101
  22	2.0895e+00	0.4189	5.486467	0.000649	6.485317	1.098642	0.000130
  23	2.1890e+00	0.4377	5.635841	0.000750	7.498647	1.270305	0.000150
  24	2.2885e+00	0.4583	5.708510	0.000365	3.647991	0.617986	0.000073
  25	2.3880e+00	0.4790	5.841735	0.000669	6.687983	1.132975	0.000134
  26	2.4875e+00	0.4984	5.987072	0.000730	7.295981	1.235973	0.000146
  27	2.5870e+00	0.5176	6.088001	0.000507	5.066654	0.858314	0.000101
  28	2.6865e+00	0.5381	6.197003	0.000547	5.471986	0.926980	0.000110
  29	2.7860e+00	0.5588	6.297932	0.000507	5.066654	0.858314	0.000101
  30	2.8855e+00	0.5783	6.439232	0.000709	7.093315	1.201640	0.000142
  31	2.9850e+00	0.5981	6.519974	0.000405	4.053323	0.686651	0.000081
  32	3.0845e+00	0.6187	6.633014	0.000567	5.674652	0.961312	0.000114
  33	3.1840e+00	0.6382	6.782388	0.000750	7.498647	1.270305	0.000150
  34	3.2835e+00	0.6567	6.867168	0.000426	4.255989	0.720984	0.000085
  35	3.3830e+00	0.6778	7.000393	0.000669	6.687983	1.132975	0.000134
  36	3.4825e+00	0.6969	7.141693	0.000709	7.093315	1.201640	0.000142
  37	3.5820e+00	0.7169	7.246659	0.000527	5.269320	0.892647	0.000105
  38	3.6815e+00	0.7363	7.363736	0.000588	5.877318	0.995645	0.000118
  39	3.7810e+00	0.7568	7.464664	0.000507	5.066654	0.858314	0.000101
  40	3.8805e+00	0.7769	7.593852	0.000649	6.485317	1.098642	0.000130
  41	3.9800e+00	0.7967	7.751301	0.000790	7.903980	1.338970	0.000158
  42	4.0795e+00	0.8165	7.864340	0.000567	5.674652	0.961312	0.000114
  43	4.1790e+00	0.8364	8.001603	0.000689	6.890649	1.167308	0.000138
  44	4.2785e+00	0.8574	8.126754	0.000628	6.282651	1.064310	0.000126
  45	4.3780e+00	0.8775	8.179237	0.000263	2.634660	0.446323	0.000053
  46	4.4775e+00	0.8963	8.356871	0.000892	8.917310	1.510633	0.000179
  47	4.5770e+00	0.9173	8.506245	0.000750	7.498647	1.270305	0.000150
  48	4.6765e+00	0.9360	8.591025	0.000426	4.255989	0.720984	0.000085
  49	4.7760e+00	0.9581	8.683879	0.000466	4.661321	0.789649	0.000093
  50	4.8755e+00	0.9754	8.821142	0.000689	6.890649	1.167308	0.000138
  51	4.9750e+00	0.9958	8.942256	0.000608	6.079984	1.029977	0.000122
  52	5.0745e+00	1.0149	9.067407	0.000628	6.282651	1.064310	0.000126
  53	5.1740e+00	1.0369	9.220818	0.000770	7.701314	1.304638	0.000154
  54	5.2735e+00	1.0569	9.293486	0.000365	3.647991	0.617986	0.000073
  55	5.3730e+00	1.0770	9.454972	0.000811	8.106646	1.373303	0.000162
  56	5.4725e+00	1.0961	9.555900	0.000507	5.066654	0.858314	0.000101
  57	5.5720e+00	1.1150	9.693163	0.000689	6.890649	1.167308	0.000138
  58	5.6715e+00	1.1359	9.798128	0.000527	5.269320	0.892647	0.000105
  59	5.7710e+00	1.1559	9.955577	0.000790	7.903980	1.338970	0.000158
  60	5.8705e+00	1.1755	10.096876	0.000709	7.093315	1.201640	0.000142
  61	5.9700e+00	1.1962	10.169545	0.000365	3.647991	0.617986	0.000073
  62	6.0695e+00	1.2159	10.335067	0.000831	8.309312	1.407636	0.000166
  63	6.1690e+00	1.2357	10.452144	0.000588	5.877318	0.995645	0.000118
  64	6.2685e+00	1.2560	10.569221	0.000588	5.877318	0.995645	0.000118
  65	6.3680e+00	1.2749	10.702447	0.000669	6.687983	1.132975	0.000134
  66	6.4675e+00	1.2947	10.811450	0.000547	5.471986	0.926980	0.000110
  67	6.5670e+00	1.3142	10.904304	0.000466	4.661321	0.789649	0.000093
  68	6.6665e+00	1.3344	11.102123	0.000993	9.930641	1.682296	0.000199
  69	6.7660e+00	1.3545	11.162680	0.000304	3.039992	0.514989	0.000061
  70	6.8655e+00	1.3746	11.312054	0.000750	7.498647	1.270305	0.000150
  71	6.9650e+00	1.3940	11.445280	0.000669	6.687983	1.132975	0.000134
  72	7.0645e+00	1.4138	11.550245	0.000527	5.269320	0.892647	0.000105
  73	7.1640e+00	1.4339	11.659248	0.000547	5.471986	0.926980	0.000110
  74	7.2635e+00	1.4551	11.836882	0.000892	8.917310	1.510633	0.000179
  75	7.3630e+00	1.4741	11.970107	0.000669	6.687983	1.132975	0.000134
  76	7.4625e+00	1.4939	12.091222	0.000608	6.079984	1.029977	0.000122
  77	7.5620e+00	1.5144	12.212336	0.000608	6.079984	1.029977	0.000122
  78	7.6615e+00	1.5334	12.309227	0.000486	4.863988	0.823982	0.000097
  79	7.7610e+00	1.5545	12.462638	0.000770	7.701314	1.304638	0.000154
  80	7.8605e+00	1.5734	12.616049	0.000770	7.701314	1.304638	0.000154
  81	7.9600e+00	1.5941	12.692755	0.000385	3.850657	0.652319	0.000077
  82	8.0595e+00	1.6142	12.838092	0.000730	7.295981	1.235973	0.000146
  83	8.1590e+00	1.6348	12.934983	0.000486	4.863988	0.823982	0.000097
  84	8.2585e+00	1.6541	13.104543	0.000851	8.511978	1.441968	0.000170
  85	8.3580e+00	1.6742	13.181248	0.000385	3.850657	0.652319	0.000077
  86	8.4575e+00	1.6933	13.330622	0.000750	7.498647	1.270305	0.000150
  87	8.5570e+00	1.7137	13.475959	0.000730	7.295981	1.235973	0.000146
  88	8.6565e+00	1.7333	13.593036	0.000588	5.877318	0.995645	0.000118
  89	8.7560e+00	1.7528	13.722224	0.000649	6.485317	1.098642	0.000130
  90	8.8555e+00	1.7735	13.823153	0.000507	5.066654	0.858314	0.000101
  91	8.9550e+00	1.7928	13.972527	0.000750	7.498647	1.270305	0.000150
  92	9.0545e+00	1.8134	14.105752	0.000669	6.687983	1.132975	0.000134
  93	9.1540e+00	1.8327	14.251089	0.000730	7.295981	1.235973	0.000146
  94	9.2535e+00	1.8522	14.388352	0.000689	6.890649	1.167308	0.000138
  95	9.3530e+00	1.8735	14.509466	0.000608	6.079984	1.029977	0.000122
  96	9.4525e+00	1.8929	14.614431	0.000527	5.269320	0.892647	0.000105
  97	9.5520e+00	1.9128	14.739583	0.000628	6.282651	1.064310	0.000126
  98	9.6515e+00	1.9328	14.901068	0.000811	8.106646	1.373303	0.000162
  99	9.7510e+00	1.9522	14.993922	0.000466	4.661321	0.789649	0.000093
 100	9.8505e+00	1.9720	15.094851	0.000507	5.066654	0.858314	0.000101
 101	9.9500e+00	1.9919	15.300744	0.001034	10.335973	1.750961	0.000207
 102	1.0050e+01	2.0129	15.377450	0.000385	3.850657	0.652319	0.000077
 103	1.0149e+01	2.0325	15.530861	0.000770	7.701314	1.304638	0.000154
 104	1.0248e+01	2.0522	15.651975	0.000608	6.079984	1.029977	0.000122
 105	1.0348e+01	2.0721	15.760978	0.000547	5.471986	0.926980	0.000110
 106	1.0447e+01	2.0918	15.902278	0.000709	7.093315	1.201640	0.000142
 107	1.0547e+01	2.1124	16.035503	0.000669	6.687983	1.132975	0.000134
 108	1.0646e+01	2.1316	16.168729	0.000669	6.687983	1.132975	0.000134
 109	1.0746e+01	2.1522	16.334251	0.000831	8.309312	1.407636	0.000166
 110	1.0845e+01	2.1720	16.398845	0.000324	3.242658	0.549321	0.000065
 111	1.0945e+01	2.1915	16.540145	0.000709	7.093315	1.201640	0.000142
 112	1.1044e+01	2.2112	16.705668	0.000831	8.309312	1.407636	0.000166
 113	1.1144e+01	2.2308	16.838893	0.000669	6.687983	1.132975	0.000134
 114	1.1243e+01	2.2507	16.964044	0.000628	6.282651	1.064310	0.000126
 115	1.1343e+01	2.2700	17.121493	0.000790	7.903980	1.338970	0.000158
 116	1.1443e+01	2.2913	17.194161	0.000365	3.647991	0.617986	0.000073
 117	1.1542e+01	2.3119	17.351609	0.000790	7.903980	1.338970	0.000158
 118	1.1642e+01	2.3309	17.464649	0.000567	5.674652	0.961312	0.000114
 119	1.1741e+01	2.3519	17.573652	0.000547	5.471986	0.926980	0.000110
 120	1.1841e+01	2.3705	17.710914	0.000689	6.890649	1.167308	0.000138
 121	1.1940e+01	2.3914	17.848177	0.000689	6.890649	1.167308	0.000138
 122	1.2040e+01	2.4111	17.985440	0.000689	6.890649	1.167308	0.000138
 123	1.2139e+01	2.4303	18.066182	0.000405	4.053323	0.686651	0.000081
 124	1.2239e+01	2.4516	18.195371	0.000649	6.485317	1.098642	0.000130
 125	1.2338e+01	2.4705	18.308411	0.000567	5.674652	0.961312	0.000114
 126	1.2438e+01	2.4911	18.506230	0.000993	9.930641	1.682296	0.000199
 127	1.2537e+01	2.5117	18.578899	0.000365	3.647991	0.617986	0.000073
 128	1.2636e+01	2.5308	18.700013	0.000608	6.079984	1.029977	0.000122
 129	1.2736e+01	2.5506	18.853424	0.000770	7.701314	1.304638	0.000154
 130	1.2835e+01	2.5698	18.970501	0.000588	5.877318	0.995645	0.000118
 131	1.2935e+01	2.5898	19.075466	0.000527	5.269320	0.892647	0.000105
 132	1.3034e+01	2.6096	19.188506	0.000567	5.674652	0.961312	0.000114
 133	1.3134e+01	2.6301	19.345954	0.000790	7.903980	1.338970	0.000158
 134	1.3233e+01	2.6499	19.458994	0.000567	5.674652	0.961312	0.000114
 135	1.3333e+01	2.6696	19.576071	0.000588	5.877318	0.995645	0.000118
 136	1.3432e+01	2.6894	19.689111	0.000567	5.674652	0.961312	0.000114
 137	1.3532e+01	2.7093	19.838485	0.000750	7.498647	1.270305	0.000150
 138	1.3632e+01	2.7303	19.943451	0.000527	5.269320	0.892647	0.000105
 139	1.3731e+01	2.7506	20.064565	0.000608	6.079984	1.029977	0.000122
 140	1.3831e+01	2.7698	20.185679	0.000608	6.079984	1.029977	0.000122
 141	1.3930e+01	2.7895	20.322941	0.000689	6.890649	1.167308	0.000138
 142	1.4030e+01	2.8094	20.395610	0.000365	3.647991	0.617986	0.000073
 143	1.4129e+01	2.8287	20.540947	0.000730	7.295981	1.235973	0.000146
 144	1.4229e+01	2.8493	20.641875	0.000507	5.066654	0.858314	0.000101
 145	1.4328e+01	2.8703	20.791249	0.000750	7.498647	1.270305	0.000150
 146	1.4428e+01	2.8890	20.908326	0.000588	5.877318	0.995645	0.000118
 147	1.4527e+01	2.9095	21.037514	0.000649	6.485317	1.098642	0.000130
 148	1.4627e+01	2.9292	21.146517	0.000547	5.471986	0.926980	0.000110
 149	1.4726e+01	2.9491	21.219185	0.000365	3.647991	0.617986	0.000073
 150	1.4825e+01	2.9675	21.404894	0.000932	9.322643	1.579298	0.000187
 151	1.4925e+01	2.9879	21.505822	0.000507	5.066654	0.858314	0.000101
 152	1.5024e+01	3.0090	21.610788	0.000527	5.269320	0.892647	0.000105
 153	1.5124e+01	3.0294	21.719790	0.000547	5.471986	0.926980	0.000110
 154	1.5223e+01	3.0489	21.881276	0.000811	8.106646	1.373303	0.000162
 155	1.5323e+01	3.0688	21.962018	0.000405	4.053323	0.686651	0.000081
 156	1.5422e+01	3.0877	22.103318	0.000709	7.093315	1.201640	0.000142
 157	1.5522e+01	3.1087	22.188098	0.000426	4.255989	0.720984	0.000085
 158	1.5621e+01	3.1284	22.337472	0.000750	7.498647	1.270305	0.000150
 159	1.5721e+01	3.1478	22.442438	0.000527	5.269320	0.892647	0.000105
 160	1.5820e+01	3.1683	22.579700	0.000689	6.890649	1.167308	0.000138
 161	1.5920e+01	3.1876	22.704851	0.000628	6.282651	1.064310	0.000126
 162	1.6020e+01	3.2082	22.793668	0.000446	4.458655	0.755317	0.000089
 163	1.6119e+01	3.2276	22.922857	0.000649	6.485317	1.098642	0.000130
 164	1.6218e+01	3.2468	23.035897	0.000567	5.674652	0.961312	0.000114
 165	1.6318e+01	3.2671	23.189308	0.000770	7.701314	1.304638	0.000154
 166	1.6418e+01	3.2882	23.286199	0.000486	4.863988	0.823982	0.000097
 167	1.6517e+01	3.3077	23.419424	0.000669	6.687983	1.132975	0.000134
 168	1.6616e+01	3.3268	23.520353	0.000507	5.066654	0.858314	0.000101
 169	1.6716e+01	3.3474	23.609170	0.000446	4.458655	0.755317	0.000089
 170	1.6816e+01	3.3667	23.766618	0.000790	7.903980	1.338970	0.000158
 171	1.6915e+01	3.3872	23.875621	0.000547	5.471986	0.926980	0.000110
 172	1.7015e+01	3.4074	24.012883	0.000689	6.890649	1.167308	0.000138
 173	1.7114e+01	3.4277	24.101700	0.000446	4.458655	0.755317	0.000089
 174	1.7213e+01	3.4473	24.222814	0.000608	6.079984	1.029977	0.000122
 175	1.7313e+01	3.4663	24.331817	0.000547	5.471986	0.926980	0.000110
 176	1.7413e+01	3.4859	24.432745	0.000507	5.066654	0.858314	0.000101
 177	1.7512e+01	3.5070	24.537711	0.000527	5.269320	0.892647	0.000105
 178	1.7611e+01	3.5271	24.691122	0.000770	7.701314	1.304638	0.000154
 179	1.7711e+01	3.5464	24.808199	0.000588	5.877318	0.995645	0.000118
 180	1.7811e+01	3.5659	24.937387	0.000649	6.485317	1.098642	0.000130
 181	1.7910e+01	3.5857	25.030242	0.000466	4.661321	0.789649	0.000093
 182	1.8009e+01	3.6069	25.163467	0.000669	6.687983	1.132975	0.000134
 183	1.8109e+01	3.6272	25.304767	0.000709	7.093315	1.201640	0.000142
 184	1.8209e+01	3.6468	25.377435	0.000365	3.647991	0.617986	0.000073
 185	1.8308e+01	3.6675	25.486438	0.000547	5.471986	0.926980	0.000110
 186	1.8407e+01	3.6858	25.591403	0.000527	5.269320	0.892647	0.000105
 187	1.8507e+01	3.7061	25.716555	0.000628	6.282651	1.064310	0.000126
 188	1.8607e+01	3.7260	25.813446	0.000486	4.863988	0.823982	0.000097
 189	1.8706e+01	3.7461	25.898226	0.000426	4.255989	0.720984	0.000085
 190	1.8805e+01	3.7649	26.023377	0.000628	6.282651	1.064310	0.000126
 191	1.8905e+01	3.7847	26.124305	0.000507	5.066654	0.858314	0.000101
 192	1.9005e+01	3.8053	26.245419	0.000608	6.079984	1.029977	0.000122
 193	1.9104e+01	3.8261	26.362496	0.000588	5.877318	0.995645	0.000118
 194	1.9203e+01	3.8454	26.471499	0.000547	5.471986	0.926980	0.000110
 195	1.9303e+01	3.8659	26.572427	0.000507	5.066654	0.858314	0.000101
 196	1.9402e+01	3.8847	26.717764	0.000730	7.295981	1.235973	0.000146
 197	1.9502e+01	3.9056	26.790433	0.000365	3.647991	0.617986	0.000073
 198	1.9602e+01	3.9253	26.923658	0.000669	6.687983	1.132975	0.000134
 199	1.9701e+01	3.9452	26.996327	0.000365	3.647991	0.617986	0.000073
 200	1.9800e+01	3.9651	27.129552	0.000669	6.687983	1.132975	0.000134
 201	1.9900e+01	3.9845	27.262778	0.000669	6.687983	1.132975	0.000134
 202	2.0000e+01	4.0050	27.347557	0.000426	4.255989	0.720984	0.000085
 203	2.0099e+01	4.0252	27.440412	0.000466	4.661321	0.789649	0.000093
 204	2.0198e+01	4.0447	27.581711	0.000709	7.093315	1.201640	0.000142
 205	2.0298e+01	4.0649	27.690714	0.000547	5.471986	0.926980	0.000110
 206	2.0398e+01	4.0843	27.775494	0.000426	4.255989	0.720984	0.000085
 207	2.0497e+01	4.1039	27.888534	0.000567	5.674652	0.961312	0.000114
 208	2.0596e+01	4.1250	28.045982	0.000790	7.903980	1.338970	0.000158
 209	2.0696e+01	4.1436	28.106539	0.000304	3.039992	0.514989	0.000061
 210	2.0796e+01	4.1640	28.235727	0.000649	6.485317	1.098642	0.000130
 211	2.0895e+01	4.1837	28.360879	0.000628	6.282651	1.064310	0.000126
 212	2.0994e+01	4.2043	28.481993	0.000608	6.079984	1.029977	0.000122
 213	2.1094e+01	4.2242	28.619255	0.000689	6.890649	1.167308	0.000138
 214	2.1194e+01	4.2429	28.687887	0.000345	3.445324	0.583654	0.000069
 215	2.1293e+01	4.2658	28.869558	0.000912	9.119977	1.544966	0.000183
 216	2.1392e+01	4.2838	28.946263	0.000385	3.850657	0.652319	0.000077
 217	2.1492e+01	4.3038	29.039117	0.000466	4.661321	0.789649	0.000093
 218	2.1591e+01	4.3221	29.144083	0.000527	5.269320	0.892647	0.000105
 219	2.1691e+01	4.3441	29.265197	0.000608	6.079984	1.029977	0.000122
 220	2.1791e+01	4.3633	29.386311	0.000608	6.079984	1.029977	0.000122
 221	2.1890e+01	4.3836	29.519537	0.000669	6.687983	1.132975	0.000134
 222	2.1989e+01	4.4028	29.588168	0.000345	3.445324	0.583654	0.000069
 223	2.2089e+01	4.4236	29.725430	0.000689	6.890649	1.167308	0.000138
 224	2.2189e+01	4.4433	29.838470	0.000567	5.674652	0.961312	0.000114
 225	2.2288e+01	4.4630	29.983807	0.000730	7.295981	1.235973	0.000146
 226	2.2387e+01	4.4828	30.076661	0.000466	4.661321	0.789649	0.000093
 227	2.2487e+01	4.5029	30.205850	0.000649	6.485317	1.098642	0.000130
 228	2.2587e+01	4.5235	30.302741	0.000486	4.863988	0.823982	0.000097
 229	2.2686e+01	4.5431	30.387521	0.000426	4.255989	0.720984	0.000085
 230	2.2785e+01	4.5609	30.488449	0.000507	5.066654	0.858314	0.000101
 231	2.2885e+01	4.5835	30.601489	0.000567	5.674652	0.961312	0.000114
 232	2.2985e+01	4.6026	30.714529	0.000567	5.674652	0.961312	0.000114
 233	2.3084e+01	4.6224	30.835643	0.000608	6.079984	1.029977	0.000122
 234	2.3183e+01	4.6420	30.976943	0.000709	7.093315	1.201640	0.000142
 235	2.3283e+01	4.6624	31.061722	0.000426	4.255989	0.720984	0.000085
 236	2.3383e+01	4.6821	31.150539	0.000446	4.458655	0.755317	0.000089
 237	2.3482e+01	4.7015	31.279728	0.000649	6.485317	1.098642	0.000130
 238	2.3581e+01	4.7228	31.400842	0.000608	6.079984	1.029977	0.000122
 239	2.3681e+01	4.7417	31.513882	0.000567	5.674652	0.961312	0.000114
 240	2.3780e+01	4.7619	31.610773	0.000486	4.863988	0.823982	0.000097
 241	2.3880e+01	4.7814	31.719775	0.000547	5.471986	0.926980	0.000110
 242	2.3980e+01	4.8022	31.808592	0.000446	4.458655	0.755317	0.000089
 243	2.4079e+01	4.8226	31.933744	0.000628	6.282651	1.064310	0.000126
 244	2.4178e+01	4.8412	32.058895	0.000628	6.282651	1.064310	0.000126
 245	2.4278e+01	4.8614	32.159823	0.000507	5.066654	0.858314	0.000101
 246	2.4378e+01	4.8806	32.276900	0.000588	5.877318	0.995645	0.000118
 247	2.4477e+01	4.9010	32.402051	0.000628	6.282651	1.064310	0.000126
 248	2.4576e+01	4.9212	32.498943	0.000486	4.863988	0.823982	0.000097
 249	2.4676e+01	4.9413	32.603908	0.000527	5.269320	0.892647	0.000105
 250	2.4776e+01	4.9612	32.725022	0.000608	6.079984	1.029977	0.000122
 251	2.4875e+01	4.9804	32.789616	0.000324	3.242658	0.549321	0.000065
 252	2.4974e+01	5.0014	32.943028	0.000770	7.701314	1.304638	0.000154
 253	2.5074e+01	5.0210	33.043956	0.000507	5.066654	0.858314	0.000101
 254	2.5174e+01	5.0417	33.140847	0.000486	4.863988	0.823982	0.000097
 255	2.5273e+01	5.0603	33.261961	0.000608	6.079984	1.029977	0.000122
 256	2.5372e+01	5.0799	33.346741	0.000426	4.255989	0.720984	0.000085
 257	2.5472e+01	5.1012	33.455744	0.000547	5.471986	0.926980	0.000110
 258	2.5572e+01	5.1196	33.552635	0.000486	4.863988	0.823982	0.000097
 259	2.5671e+01	5.1406	33.693935	0.000709	7.093315	1.201640	0.000142
 260	2.5770e+01	5.1603	33.774678	0.000405	4.053323	0.686651	0.000081
 261	2.5870e+01	5.1800	33.883680	0.000547	5.471986	0.926980	0.000110
 262	2.5970e+01	5.1992	34.000757	0.000588	5.877318	0.995645	0.000118
 263	2.6069e+01	5.2200	34.117834	0.000588	5.877318	0.995645	0.000118
 264	2.6169e+01	5.2402	34.202614	0.000426	4.255989	0.720984	0.000085
 265	2.6268e+01	5.2589	34.343914	0.000709	7.093315	1.201640	0.000142
 266	2.6367e+01	5.2795	34.456954	0.000567	5.674652	0.961312	0.000114
 267	2.6467e+01	5.3002	34.537696	0.000405	4.053323	0.686651	0.000081
 268	2.6567e+01	5.3199	34.662847	0.000628	6.282651	1.064310	0.000126
 269	2.6666e+01	5.3404	34.779924	0.000588	5.877318	0.995645	0.000118
 270	2.6765e+01	5.3597	34.892964	0.000567	5.674652	0.961312	0.000114
 271	2.6865e+01	5.3793	34.977744	0.000426	4.255989	0.720984	0.000085
 272	2.6965e+01	5.3999	35.090784	0.000567	5.674652	0.961312	0.000114
 273	2.7064e+01	5.4197	35.228046	0.000689	6.890649	1.167308	0.000138
 274	2.7163e+01	5.4392	35.333012	0.000527	5.269320	0.892647	0.000105
 275	2.7263e+01	5.4595	35.433940	0.000507	5.066654	0.858314	0.000101
 276	2.7363e+01	5.4789	35.510646	0.000385	3.850657	0.652319	0.000077
 277	2.7462e+01	5.4986	35.660020	0.000750	7.498647	1.270305	0.000150
 278	2.7561e+01	5.5181	35.756911	0.000486	4.863988	0.823982	0.000097
 279	2.7661e+01	5.5383	35.865914	0.000547	5.471986	0.926980	0.000110
 280	2.7761e+01	5.5584	35.978954	0.000567	5.674652	0.961312	0.000114
 281	2.7860e+01	5.5793	36.055659	0.000385	3.850657	0.652319	0.000077
 282	2.7959e+01	5.5987	36.192922	0.000689	6.890649	1.167308	0.000138
 283	2.8059e+01	5.6187	36.309999	0.000588	5.877318	0.995645	0.000118
 284	2.8159e+01	5.6384	36.419001	0.000547	5.471986	0.926980	0.000110
 285	2.8258e+01	5.6593	36.515893	0.000486	4.863988	0.823982	0.000097
 286	2.8358e+01	5.6783	36.608747	0.000466	4.661321	0.789649	0.000093
 287	2.8457e+01	5.6985	36.697564	0.000446	4.458655	0.755317	0.000089
 288	2.8556e+01	5.7181	36.810604	0.000567	5.674652	0.961312	0.000114
 289	2.8656e+01	5.7378	36.931718	0.000608	6.079984	1.029977	0.000122
 290	2.8756e+01	5.7580	36.992275	0.000304	3.039992	0.514989	0.000061
 291	2.8855e+01	5.7786	37.153760	0.000811	8.106646	1.373303	0.000162
 292	2.8954e+01	5.7973	37.222392	0.000345	3.445324	0.583654	0.000069
 293	2.9054e+01	5.8169	37.315246	0.000466	4.661321	0.789649	0.000093
 294	2.9154e+01	5.8376	37.440397	0.000628	6.282651	1.064310	0.000126
 295	2.9253e+01	5.8581	37.569585	0.000649	6.485317	1.098642	0.000130
 296	2.9352e+01	5.8779	37.650328	0.000405	4.053323	0.686651	0.000081
 297	2.9452e+01	5.8971	37.759331	0.000547	5.471986	0.926980	0.000110
 298	2.9552e+01	5.9182	37.831999	0.000365	3.647991	0.617986	0.000073
 299	2.9651e+01	5.9385	37.965224	0.000669	6.687983	1.132975	0.000134
 300	2.9750e+01	5.9570	38.037893	0.000365	3.647991	0.617986	0.000073
 301	2.9850e+01	5.9772	38.150933	0.000567	5.674652	0.961312	0.000114
 302	2.9950e+01	5.9972	38.235713	0.000426	4.255989	0.720984	0.000085
 303	3.0049e+01	6.0176	38.340678	0.000527	5.269320	0.892647	0.000105
 304	3.0148e+01	6.0368	38.465829	0.000628	6.282651	1.064310	0.000126
 305	3.0248e+01	6.0571	38.562721	0.000486	4.863988	0.823982	0.000097
 306	3.0348e+01	6.0772	38.623278	0.000304	3.039992	0.514989	0.000061
 307	3.0447e+01	6.0973	38.740355	0.000588	5.877318	0.995645	0.000118
 308	3.0547e+01	6.1167	38.857431	0.000588	5.877318	0.995645	0.000118
 309	3.0646e+01	6.1373	38.962397	0.000527	5.269320	0.892647	0.000105
 310	3.0745e+01	6.1568	39.039103	0.000385	3.850657	0.652319	0.000077
 311	3.0845e+01	6.1770	39.131957	0.000466	4.661321	0.789649	0.000093
 312	3.0945e+01	6.1967	39.208662	0.000385	3.850657	0.652319	0.000077
 313	3.1044e+01	6.2162	39.345925	0.000689	6.890649	1.167308	0.000138
 314	3.1143e+01	6.2366	39.450890	0.000527	5.269320	0.892647	0.000105
 315	3.1243e+01	6.2566	39.491262	0.000203	2.026661	0.343326	0.000041
 316	3.1343e+01	6.2767	39.648710	0.000790	7.903980	1.338970	0.000158
 317	3.1442e+01	6.2962	39.765787	0.000588	5.877318	0.995645	0.000118
 318	3.1541e+01	6.3152	39.798084	0.000162	1.621329	0.274661	0.000032
 319	3.1641e+01	6.3351	39.903050	0.000527	5.269320	0.892647	0.000105
 320	3.1741e+01	6.3546	40.012052	0.000547	5.471986	0.926980	0.000110
 321	3.1840e+01	6.3752	40.092795	0.000405	4.053323	0.686651	0.000081
 322	3.1939e+01	6.3955	40.217946	0.000628	6.282651	1.064310	0.000126
 323	3.2039e+01	6.4144	40.310800	0.000466	4.661321	0.789649	0.000093
 324	3.2139e+01	6.4346	40.403654	0.000466	4.661321	0.789649	0.000093
 325	3.2238e+01	6.4550	40.516694	0.000567	5.674652	0.961312	0.000114
 326	3.2337e+01	6.4748	40.585326	0.000345	3.445324	0.583654	0.000069
 327	3.2437e+01	6.4947	40.694328	0.000547	5.471986	0.926980	0.000110
 328	3.2536e+01	6.5147	40.750848	0.000284	2.837326	0.480656	0.000057
 329	3.2636e+01	6.5348	40.847739	0.000486	4.863988	0.823982	0.000097
 330	3.2736e+01	6.5551	40.997113	0.000750	7.498647	1.270305	0.000150
 331	3.2835e+01	6.5737	41.085930	0.000446	4.458655	0.755317	0.000089
 332	3.2934e+01	6.5952	41.170710	0.000426	4.255989	0.720984	0.000085
 333	3.3034e+01	6.6141	41.267602	0.000486	4.863988	0.823982	0.000097
 334	3.3133e+01	6.6338	41.340270	0.000365	3.647991	0.617986	0.000073
 335	3.3233e+01	6.6532	41.453310	0.000567	5.674652	0.961312	0.000114
 336	3.3333e+01	6.6738	41.542127	0.000446	4.458655	0.755317	0.000089
 337	3.3432e+01	6.6940	41.614795	0.000365	3.647991	0.617986	0.000073
 338	3.3532e+01	6.7139	41.735909	0.000608	6.079984	1.029977	0.000122
 339	3.3631e+01	6.7349	41.832801	0.000486	4.863988	0.823982	0.000097
 340	3.3730e+01	6.7545	41.933729	0.000507	5.066654	0.858314	0.000101
 341	3.3830e+01	6.7741	42.042732	0.000547	5.471986	0.926980	0.000110
 342	3.3929e+01	6.7937	42.119437	0.000385	3.850657	0.652319	0.000077
 343	3.4029e+01	6.8130	42.200180	0.000405	4.053323	0.686651	0.000081
 344	3.4129e+01	6.8337	42.309183	0.000547	5.471986	0.926980	0.000110
 345	3.4228e+01	6.8536	42.426259	0.000588	5.877318	0.995645	0.000118
 346	3.4328e+01	6.8729	42.486817	0.000304	3.039992	0.514989	0.000061
 347	3.4427e+01	6.8937	42.583708	0.000486	4.863988	0.823982	0.000097
 348	3.4526e+01	6.9132	42.664450	0.000405	4.053323	0.686651	0.000081
 349	3.4626e+01	6.9341	42.777490	0.000567	5.674652	0.961312	0.000114
 350	3.4725e+01	6.9561	42.825936	0.000243	2.431994	0.411991	0.000049
 351	3.4825e+01	6.9731	42.926864	0.000507	5.066654	0.858314	0.000101
 352	3.4925e+01	6.9927	43.027793	0.000507	5.066654	0.858314	0.000101
 353	3.5024e+01	7.0124	43.116610	0.000446	4.458655	0.755317	0.000089
 354	3.5123e+01	7.0330	43.185241	0.000345	3.445324	0.583654	0.000069
 355	3.5223e+01	7.0523	43.290207	0.000527	5.269320	0.892647	0.000105
 356	3.5322e+01	7.0724	43.370949	0.000405	4.053323	0.686651	0.000081
 357	3.5422e+01	7.0931	43.479952	0.000547	5.471986	0.926980	0.000110
 358	3.5522e+01	7.1136	43.597029	0.000588	5.877318	0.995645	0.000118
 359	3.5621e+01	7.1329	43.649512	0.000263	2.634660	0.446323	0.000053
 360	3.5721e+01	7.1519	43.730254	0.000405	4.053323	0.686651	0.000081
 361	3.5820e+01	7.1726	43.819071	0.000446	4.458655	0.755317	0.000089
 362	3.5919e+01	7.1943	43.936148	0.000588	5.877318	0.995645	0.000118
 363	3.6019e+01	7.2119	44.024965	0.000446	4.458655	0.755317	0.000089
 364	3.6118e+01	7.2329	44.089559	0.000324	3.242658	0.549321	0.000065
 365	3.6218e+01	7.2527	44.178376	0.000446	4.458655	0.755317	0.000089
 366	3.6318e+01	7.2729	44.271231	0.000466	4.661321	0.789649	0.000093
 367	3.6417e+01	7.2924	44.356010	0.000426	4.255989	0.720984	0.000085
 368	3.6517e+01	7.3115	44.473087	0.000588	5.877318	0.995645	0.000118
 369	3.6616e+01	7.3324	44.533644	0.000304	3.039992	0.514989	0.000061
 370	3.6715e+01	7.3522	44.606313	0.000365	3.647991	0.617986	0.000073
 371	3.6815e+01	7.3711	44.699167	0.000466	4.661321	0.789649	0.000093
 372	3.6914e+01	7.3907	44.852578	0.000770	7.701314	1.304638	0.000154
 373	3.7014e+01	7.4108	44.925246	0.000365	3.647991	0.617986	0.000073
 374	3.7114e+01	7.4317	44.969655	0.000223	2.229328	0.377658	0.000045
 375	3.7213e+01	7.4510	45.094806	0.000628	6.282651	1.064310	0.000126
 376	3.7313e+01	7.4712	45.179586	0.000426	4.255989	0.720984	0.000085
 377	3.7412e+01	7.4914	45.292626	0.000567	5.674652	0.961312	0.000114
 378	3.7511e+01	7.5109	45.357220	0.000324	3.242658	0.549321	0.000065
 379	3.7611e+01	7.5318	45.470260	0.000567	5.674652	0.961312	0.000114
 380	3.7711e+01	7.5509	45.559077	0.000446	4.458655	0.755317	0.000089
 381	3.7810e+01	7.5704	45.631745	0.000365	3.647991	0.617986	0.000073
 382	3.7910e+01	7.5899	45.736711	0.000527	5.269320	0.892647	0.000105
 383	3.8009e+01	7.6107	45.825528	0.000446	4.458655	0.755317	0.000089
 384	3.8108e+01	7.6302	45.946642	0.000608	6.079984	1.029977	0.000122
 385	3.8208e+01	7.6504	46.003162	0.000284	2.837326	0.480656	0.000057
 386	3.8307e+01	7.6709	46.091979	0.000446	4.458655	0.755317	0.000089
 387	3.8407e+01	7.6904	46.205019	0.000567	5.674652	0.961312	0.000114
 388	3.8507e+01	7.7094	46.273650	0.000345	3.445324	0.583654	0.000069
 389	3.8606e+01	7.7297	46.370541	0.000486	4.863988	0.823982	0.000097
 390	3.8706e+01	7.7499	46.475507	0.000527	5.269320	0.892647	0.000105
 391	3.8805e+01	7.7708	46.556249	0.000405	4.053323	0.686651	0.000081
 392	3.8904e+01	7.7901	46.636992	0.000405	4.053323	0.686651	0.000081
 393	3.9004e+01	7.8112	46.774255	0.000689	6.890649	1.167308	0.000138
 394	3.9103e+01	7.8298	46.830775	0.000284	2.837326	0.480656	0.000057
 395	3.9203e+01	7.8495	46.911517	0.000405	4.053323	0.686651	0.000081
 396	3.9303e+01	7.8704	47.016483	0.000527	5.269320	0.892647	0.000105
 397	3.9402e+01	7.8892	47.089151	0.000365	3.647991	0.617986	0.000073
 398	3.9502e+01	7.9090	47.186043	0.000486	4.863988	0.823982	0.000097
 399	3.9601e+01	7.9287	47.282934	0.000486	4.863988	0.823982	0.000097
 400	3.9700e+01	7.9498	47.359639	0.000385	3.850657	0.652319	0.000077
 401	3.9800e+01	7.9697	47.452493	0.000466	4.661321	0.789649	0.000093
 402	3.9900e+01	7.9889	47.577645	0.000628	6.282651	1.064310	0.000126
 403	3.9999e+01	8.0087	47.678573	0.000507	5.066654	0.858314	0.000101
 404	4.0099e+01	8.0282	47.743167	0.000324	3.242658	0.549321	0.000065
 405	4.0198e+01	8.0492	47.823910	0.000405	4.053323	0.686651	0.000081
 406	4.0297e+01	8.0688	47.912727	0.000446	4.458655	0.755317	0.000089
 407	4.0397e+01	8.0883	48.005581	0.000466	4.661321	0.789649	0.000093
 408	4.0496e+01	8.1094	48.138807	0.000669	6.687983	1.132975	0.000134
 409	4.0596e+01	8.1280	48.227624	0.000446	4.458655	0.755317	0.000089
 410	4.0696e+01	8.1487	48.316441	0.000446	4.458655	0.755317	0.000089
 411	4.0795e+01	8.1680	48.364886	0.000243	2.431994	0.411991	0.000049
 412	4.0895e+01	8.1881	48.490037	0.000628	6.282651	1.064310	0.000126
 413	4.0994e+01	8.2080	48.578854	0.000446	4.458655	0.755317	0.000089
 414	4.1093e+01	8.2278	48.639411	0.000304	3.039992	0.514989	0.000061
 415	4.1193e+01	8.2473	48.740340	0.000507	5.066654	0.858314	0.000101
 416	4.1292e+01	8.2681	48.849342	0.000547	5.471986	0.926980	0.000110
 417	4.1392e+01	8.2870	48.926048	0.000385	3.850657	0.652319	0.000077
 418	4.1492e+01	8.3086	49.014865	0.000446	4.458655	0.755317	0.000089
 419	4.1591e+01	8.3277	49.103682	0.000446	4.458655	0.755317	0.000089
 420	4.1691e+01	8.3478	49.180388	0.000385	3.850657	0.652319	0.000077
 421	4.1790e+01	8.3676	49.269205	0.000446	4.458655	0.755317	0.000089
 422	4.1889e+01	8.3877	49.386281	0.000588	5.877318	0.995645	0.000118
 423	4.1989e+01	8.4075	49.475098	0.000446	4.458655	0.755317	0.000089
 424	4.2089e+01	8.4258	49.543730	0.000345	3.445324	0.583654	0.000069
 425	4.2188e+01	8.4470	49.644658	0.000507	5.066654	0.858314	0.000101
 426	4.2288e+01	8.4669	49.749624	0.000527	5.269320	0.892647	0.000105
 427	4.2387e+01	8.4869	49.802106	0.000263	2.634660	0.446323	0.000053
 428	4.2486e+01	8.5067	49.874775	0.000365	3.647991	0.617986	0.000073
 429	4.2586e+01	8.5275	49.999926	0.000628	6.282651	1.064310	0.000126
 430	4.2685e+01	8.5465	50.076632	0.000385	3.850657	0.652319	0.000077
 431	4.2785e+01	8.5661	50.201783	0.000628	6.282651	1.064310	0.000126
 432	4.2885e+01	8.5868	50.254266	0.000263	2.634660	0.446323	0.000053
 433	4.2984e+01	8.6068	50.383454	0.000649	6.485317	1.098642	0.000130
 434	4.3084e+01	8.6268	50.435937	0.000263	2.634660	0.446323	0.000053
 435	4.3183e+01	8.6464	50.565125	0.000649	6.485317	1.098642	0.000130
 436	4.3282e+01	8.6663	50.649905	0.000426	4.255989	0.720984	0.000085
 437	4.3382e+01	8.6861	50.730648	0.000405	4.053323	0.686651	0.000081
 438	4.3481e+01	8.7061	50.851762	0.000608	6.079984	1.029977	0.000122
 439	4.3581e+01	8.7258	50.940579	0.000446	4.458655	0.755317	0.000089
 440	4.3681e+01	8.7451	51.005173	0.000324	3.242658	0.549321	0.000065
 441	4.3780e+01	8.7655	51.134361	0.000649	6.485317	1.098642	0.000130
 442	4.3880e+01	8.7862	51.174733	0.000203	2.026661	0.343326	0.000041
 443	4.3979e+01	8.8055	51.336218	0.000811	8.106646	1.373303	0.000162
 444	4.4078e+01	8.8262	51.404849	0.000345	3.445324	0.583654	0.000069
 445	4.4178e+01	8.8448	51.501741	0.000486	4.863988	0.823982	0.000097
 446	4.4278e+01	8.8641	51.574409	0.000365	3.647991	0.617986	0.000073
 447	4.4377e+01	8.8848	51.659189	0.000426	4.255989	0.720984	0.000085
 448	4.4477e+01	8.9046	51.752043	0.000466	4.661321	0.789649	0.000093
 449	4.4576e+01	8.9254	51.832786	0.000405	4.053323	0.686651	0.000081
 450	4.4675e+01	8.9442	51.957937	0.000628	6.282651	1.064310	0.000126
 451	4.4775e+01	8.9637	52.030605	0.000365	3.647991	0.617986	0.000073
 452	4.4874e+01	8.9847	52.123460	0.000466	4.661321	0.789649	0.000093
 453	4.4974e+01	9.0054	52.212276	0.000446	4.458655	0.755317	0.000089
 454	4.5074e+01	9.0249	52.301093	0.000446	4.458655	0.755317	0.000089
 455	4.5173e+01	9.0443	52.373762	0.000365	3.647991	0.617986	0.000073
 456	4.5273e+01	9.0639	52.490839	0.000588	5.877318	0.995645	0.000118
 457	4.5372e+01	9.0852	52.567544	0.000385	3.850657	0.652319	0.000077
 458	4.5471e+01	9.1036	52.624064	0.000284	2.837326	0.480656	0.000057
 459	4.5571e+01	9.1238	52.712881	0.000446	4.458655	0.755317	0.000089
 460	4.5670e+01	9.1442	52.781513	0.000345	3.445324	0.583654	0.000069
 461	4.5770e+01	9.1644	52.906664	0.000628	6.282651	1.064310	0.000126
 462	4.5870e+01	9.1833	52.999518	0.000466	4.661321	0.789649	0.000093
 463	4.5969e+01	9.2038	53.047964	0.000243	2.431994	0.411991	0.000049
 464	4.6069e+01	9.2240	53.161003	0.000567	5.674652	0.961312	0.000114
 465	4.6168e+01	9.2438	53.257895	0.000486	4.863988	0.823982	0.000097
 466	4.6267e+01	9.2634	53.302303	0.000223	2.229328	0.377658	0.000045
 467	4.6367e+01	9.2834	53.411306	0.000547	5.471986	0.926980	0.000110
 468	4.6467e+01	9.3043	53.508197	0.000486	4.863988	0.823982	0.000097
 469	4.6566e+01	9.3221	53.613163	0.000527	5.269320	0.892647	0.000105
 470	4.6666e+01	9.3428	53.697942	0.000426	4.255989	0.720984	0.000085
 471	4.6765e+01	9.3630	53.762537	0.000324	3.242658	0.549321	0.000065
 472	4.6864e+01	9.3818	53.871539	0.000547	5.471986	0.926980	0.000110
 473	4.6964e+01	9.4025	53.948245	0.000385	3.850657	0.652319	0.000077
 474	4.7063e+01	9.4227	54.008802	0.000304	3.039992	0.514989	0.000061
 475	4.7163e+01	9.4421	54.121842	0.000567	5.674652	0.961312	0.000114
 476	4.7263e+01	9.4617	54.174324	0.000263	2.634660	0.446323	0.000053
 477	4.7362e+01	9.4824	54.271216	0.000486	4.863988	0.823982	0.000097
 478	4.7462e+01	9.5023	54.355996	0.000426	4.255989	0.720984	0.000085
 479	4.7561e+01	9.5223	54.440775	0.000426	4.255989	0.720984	0.000085
 480	4.7660e+01	9.5425	54.533630	0.000466	4.661321	0.789649	0.000093
 481	4.7760e+01	9.5621	54.618409	0.000426	4.255989	0.720984	0.000085
 482	4.7859e+01	9.5818	54.711264	0.000466	4.661321	0.789649	0.000093
 483	4.7959e+01	9.6021	54.775858	0.000324	3.242658	0.549321	0.000065
 484	4.8059e+01	9.6217	54.872749	0.000486	4.863988	0.823982	0.000097
 485	4.8158e+01	9.6424	54.933306	0.000304	3.039992	0.514989	0.000061
 486	4.8258e+01	9.6616	55.054420	0.000608	6.079984	1.029977	0.000122
 487	4.8357e+01	9.6821	55.106903	0.000263	2.634660	0.446323	0.000053
 488	4.8456e+01	9.7012	55.195720	0.000446	4.458655	0.755317	0.000089
 489	4.8556e+01	9.7211	55.256277	0.000304	3.039992	0.514989	0.000061
 490	4.8656e+01	9.7412	55.349131	0.000466	4.661321	0.789649	0.000093
 491	4.8755e+01	9.7613	55.433911	0.000426	4.255989	0.720984	0.000085
 492	4.8855e+01	9.7808	55.514654	0.000405	4.053323	0.686651	0.000081
 493	4.8954e+01	9.8013	55.619619	0.000527	5.269320	0.892647	0.000105
 494	4.9053e+01	9.8212	55.696325	0.000385	3.850657	0.652319	0.000077
 495	4.9153e+01	9.8400	55.736696	0.000203	2.026661	0.343326	0.000041
 496	4.9252e+01	9.8607	55.849736	0.000567	5.674652	0.961312	0.000114
 497	4.9352e+01	9.8815	55.938553	0.000446	4.458655	0.755317	0.000089
 498	4.9452e+01	9.9014	56.011221	0.000365	3.647991	0.617986	0.000073
 499	4.9551e+01	9.9204	56.100038	0.000446	4.458655	0.755317	0.000089
 500	4.9651e+01	9.9404	56.172707	0.000365	3.647991	0.617986	0.000073
 501	4.9750e+01	9.9627	56.293821	0.000608	6.079984	1.029977	0.000122
 502	4.9849e+01	9.9793	56.390712	0.000486	4.863988	0.823982	0.000097
 503	4.9949e+01	9.9999	56.439158	0.000243	2.431994	0.411991	0.000049
 504	5.0048e+01	9.9805	56.406861	0.000162	1.621329	0.274661	-0.000032
 505	5.0148e+01	9.9603	56.354378	0.000263	2.634660	0.446323	-0.000053
 506	5.0248e+01	9.9399	56.314006	0.000203	2.026661	0.343326	-0.000041
 507	5.0347e+01	9.9206	56.237301	0.000385	3.850657	0.652319	-0.000077
 508	5.0447e+01	9.9010	56.180781	0.000284	2.837326	0.480656	-0.000057
 509	5.0546e+01	9.8810	56.096001	0.000426	4.255989	0.720984	-0.000085
 510	5.0645e+01	9.8605	56.071778	0.000122	1.215997	0.205995	-0.000024
 511	5.0745e+01	9.8409	56.031407	0.000203	2.026661	0.343326	-0.000041
 512	5.0844e+01	9.8205	55.934516	0.000486	4.863988	0.823982	-0.000097
 513	5.0944e+01	9.8026	55.865884	0.000345	3.445324	0.583654	-0.000069
 514	5.1044e+01	9.7808	55.882033	-0.000081	-0.810665	-0.137330	0.000016
 515	5.1143e+01	9.7610	55.785142	0.000486	4.863988	0.823982	-0.000097
 516	5.1242e+01	9.7412	55.696325	0.000446	4.458655	0.755317	-0.000089
 517	5.1342e+01	9.7218	55.651916	0.000223	2.229328	0.377658	-0.000045
 518	5.1441e+01	9.7009	55.607508	0.000223	2.229328	0.377658	-0.000045
 519	5.1541e+01	9.6815	55.563099	0.000223	2.229328	0.377658	-0.000045
 520	5.1641e+01	9.6615	55.486394	0.000385	3.850657	0.652319	-0.000077
 521	5.1740e+01	9.6410	55.405651	0.000405	4.053323	0.686651	-0.000081
 522	5.1840e+01	9.6221	55.341057	0.000324	3.242658	0.549321	-0.000065
 523	5.1939e+01	9.6017	55.280500	0.000304	3.039992	0.514989	-0.000061
 524	5.2038e+01	9.5826	55.199757	0.000405	4.053323	0.686651	-0.000081
 525	5.2138e+01	9.5618	55.139200	0.000304	3.039992	0.514989	-0.000061
 526	5.2237e+01	9.5425	55.070569	0.000345	3.445324	0.583654	-0.000069
 527	5.2337e+01	9.5226	55.022123	0.000243	2.431994	0.411991	-0.000049
 528	5.2437e+01	9.5020	54.965603	0.000284	2.837326	0.480656	-0.000057
 529	5.2536e+01	9.4819	54.905046	0.000304	3.039992	0.514989	-0.000061
 530	5.2636e+01	9.4621	54.816229	0.000446	4.458655	0.755317	-0.000089
 531	5.2735e+01	9.4418	54.779895	0.000182	1.823995	0.308993	-0.000037
 532	5.2834e+01	9.4227	54.699152	0.000405	4.053323	0.686651	-0.000081
 533	5.2934e+01	9.4033	54.630521	0.000345	3.445324	0.583654	-0.000069
 534	5.3033e+01	9.3816	54.549778	0.000405	4.053323	0.686651	-0.000081
 535	5.3133e+01	9.3632	54.481147	0.000345	3.445324	0.583654	-0.000069
 536	5.3233e+01	9.3435	54.424627	0.000284	2.837326	0.480656	-0.000057
 537	5.3332e+01	9.3236	54.347921	0.000385	3.850657	0.652319	-0.000077
 538	5.3431e+01	9.3038	54.335810	0.000061	0.607998	0.102998	-0.000012
 539	5.3531e+01	9.2831	54.255067	0.000405	4.053323	0.686651	-0.000081
 540	5.3630e+01	9.2634	54.166250	0.000446	4.458655	0.755317	-0.000089
 541	5.3730e+01	9.2426	54.133953	0.000162	1.621329	0.274661	-0.000032
 542	5.3830e+01	9.2237	54.057248	0.000385	3.850657	0.652319	-0.000077
 543	5.3929e+01	9.2028	53.988616	0.000345	3.445324	0.583654	-0.000069
 544	5.4029e+01	9.1828	53.940171	0.000243	2.431994	0.411991	-0.000049
 545	5.4128e+01	9.1647	53.851354	0.000446	4.458655	0.755317	-0.000089
 546	5.4227e+01	9.1433	53.786759	0.000324	3.242658	0.549321	-0.000065
 547	5.4327e+01	9.1244	53.718128	0.000345	3.445324	0.583654	-0.000069
 548	5.4426e+01	9.1033	53.669683	0.000243	2.431994	0.411991	-0.000049
 549	5.4526e+01	9.0836	53.617200	0.000263	2.634660	0.446323	-0.000053
 550	5.4626e+01	9.0646	53.568754	0.000243	2.431994	0.411991	-0.000049
 551	5.4725e+01	9.0441	53.463789	0.000527	5.269320	0.892647	-0.000105
 552	5.4825e+01	9.0240	53.415343	0.000243	2.431994	0.411991	-0.000049
 553	5.4924e+01	9.0044	53.354786	0.000304	3.039992	0.514989	-0.000061
 554	5.5023e+01	8.9832	53.253858	0.000507	5.066654	0.858314	-0.000101
 555	5.5123e+01	8.9643	53.221560	0.000162	1.621329	0.274661	-0.000032
 556	5.5222e+01	8.9446	53.104483	0.000588	5.877318	0.995645	-0.000118
 557	5.5322e+01	8.9254	53.052001	0.000263	2.634660	0.446323	-0.000053
 558	5.5422e+01	8.9040	53.019704	0.000162	1.621329	0.274661	-0.000032
 559	5.5521e+01	8.8851	52.963184	0.000284	2.837326	0.480656	-0.000057
 560	5.5620e+01	8.8635	52.870330	0.000466	4.661321	0.789649	-0.000093
 561	5.5720e+01	8.8445	52.793624	0.000385	3.850657	0.652319	-0.000077
 562	5.5819e+01	8.8252	52.761327	0.000162	1.621329	0.274661	-0.000032
 563	5.5919e+01	8.8064	52.684621	0.000385	3.850657	0.652319	-0.000077
 564	5.6019e+01	8.7853	52.624064	0.000304	3.039992	0.514989	-0.000061
 565	5.6118e+01	8.7661	52.567544	0.000284	2.837326	0.480656	-0.000057
 566	5.6218e+01	8.7461	52.466616	0.000507	5.066654	0.858314	-0.000101
 567	5.6317e+01	8.7270	52.410096	0.000284	2.837326	0.480656	-0.000057
 568	5.6416e+01	8.7064	52.333391	0.000385	3.850657	0.652319	-0.000077
 569	5.6516e+01	8.6861	52.280908	0.000263	2.634660	0.446323	-0.000053
 570	5.6615e+01	8.6666	52.224388	0.000284	2.837326	0.480656	-0.000057
 571	5.6715e+01	8.6468	52.143645	0.000405	4.053323	0.686651	-0.000081
 572	5.6815e+01	8.6269	52.079051	0.000324	3.242658	0.549321	-0.000065
 573	5.6914e+01	8.6069	52.050791	0.000142	1.418663	0.240328	-0.000028
 574	5.7014e+01	8.5868	51.941788	0.000547	5.471986	0.926980	-0.000110
 575	5.7113e+01	8.5674	51.889306	0.000263	2.634660	0.446323	-0.000053
 576	5.7212e+01	8.5458	51.804526	0.000426	4.255989	0.720984	-0.000085
 577	5.7312e+01	8.5279	51.715709	0.000446	4.458655	0.755317	-0.000089
 578	5.7411e+01	8.5069	51.695523	0.000101	1.013331	0.171663	-0.000020
 579	5.7511e+01	8.4873	51.618818	0.000385	3.850657	0.652319	-0.000077
 580	5.7611e+01	8.4666	51.534038	0.000426	4.255989	0.720984	-0.000085
 581	5.7710e+01	8.4473	51.505778	0.000142	1.418663	0.240328	-0.000028
 582	5.7809e+01	8.4275	51.408886	0.000486	4.863988	0.823982	-0.000097
 583	5.7909e+01	8.4069	51.336218	0.000365	3.647991	0.617986	-0.000073
 584	5.8008e+01	8.3875	51.239327	0.000486	4.863988	0.823982	-0.000097
 585	5.8108e+01	8.3674	51.170695	0.000345	3.445324	0.583654	-0.000069
 586	5.8208e+01	8.3478	51.102064	0.000345	3.445324	0.583654	-0.000069
 587	5.8307e+01	8.3266	51.061693	0.000203	2.026661	0.343326	-0.000041
 588	5.8407e+01	8.3080	50.989024	0.000365	3.647991	0.617986	-0.000073
 589	5.8506e+01	8.2876	50.936542	0.000263	2.634660	0.446323	-0.000053
 590	5.8605e+01	8.2670	50.851762	0.000426	4.255989	0.720984	-0.000085
 591	5.8705e+01	8.2482	50.779093	0.000365	3.647991	0.617986	-0.000073
 592	5.8804e+01	8.2289	50.702388	0.000385	3.850657	0.652319	-0.000077
 593	5.8904e+01	8.2080	50.653942	0.000243	2.431994	0.411991	-0.000049
 594	5.9004e+01	8.1885	50.544939	0.000547	5.471986	0.926980	-0.000110
 595	5.9103e+01	8.1690	50.500531	0.000223	2.229328	0.377658	-0.000045
 596	5.9203e+01	8.1487	50.452085	0.000243	2.431994	0.411991	-0.000049
 597	5.9302e+01	8.1277	50.355194	0.000486	4.863988	0.823982	-0.000097
 598	5.9401e+01	8.1077	50.286563	0.000345	3.445324	0.583654	-0.000069
 599	5.9501e+01	8.0888	50.185634	0.000507	5.066654	0.858314	-0.000101
 600	5.9600e+01	8.0685	50.149300	0.000182	1.823995	0.308993	-0.000037
 601	5.9700e+01	8.0489	50.076632	0.000365	3.647991	0.617986	-0.000073
 602	5.9800e+01	8.0286	50.008000	0.000345	3.445324	0.583654	-0.000069
 603	5.9899e+01	8.0094	49.967629	0.000203	2.026661	0.343326	-0.000041
 604	5.9998e+01	7.9887	49.862664	0.000527	5.269320	0.892647	-0.000105
 605	6.0098e+01	7.9698	49.802106	0.000304	3.039992	0.514989	-0.000061
 606	6.0197e+01	7.9499	49.737512	0.000324	3.242658	0.549321	-0.000065
 607	6.0297e+01	7.9292	49.685030	0.000263	2.634660	0.446323	-0.000053
 608	6.0397e+01	7.9093	49.632547	0.000263	2.634660	0.446323	-0.000053
 609	6.0496e+01	7.8887	49.551804	0.000405	4.053323	0.686651	-0.000081
 610	6.0596e+01	7.8693	49.462987	0.000446	4.458655	0.755317	-0.000089
 611	6.0695e+01	7.8500	49.382244	0.000405	4.053323	0.686651	-0.000081
 612	6.0794e+01	7.8292	49.297464	0.000426	4.255989	0.720984	-0.000085
 613	6.0894e+01	7.8103	49.269205	0.000142	1.418663	0.240328	-0.000028
 614	6.0993e+01	7.7895	49.216722	0.000263	2.634660	0.446323	-0.000053
 615	6.1093e+01	7.7702	49.127905	0.000446	4.458655	0.755317	-0.000089
 616	6.1193e+01	7.7498	49.051199	0.000385	3.850657	0.652319	-0.000077
 617	6.1292e+01	7.7300	49.002754	0.000243	2.431994	0.411991	-0.000049
 618	6.1392e+01	7.7109	48.946234	0.000284	2.837326	0.480656	-0.000057
 619	6.1491e+01	7.6900	48.813008	0.000669	6.687983	1.132975	-0.000134
 620	6.1590e+01	7.6706	48.768600	0.000223	2.229328	0.377658	-0.000045
 621	6.1690e+01	7.6501	48.691894	0.000385	3.850657	0.652319	-0.000077
 622	6.1789e+01	7.6302	48.582891	0.000547	5.471986	0.926980	-0.000110
 623	6.1889e+01	7.6103	48.526372	0.000284	2.837326	0.480656	-0.000057
 624	6.1989e+01	7.5905	48.465815	0.000304	3.039992	0.514989	-0.000061
 625	6.2088e+01	7.5716	48.425443	0.000203	2.026661	0.343326	-0.000041
 626	6.2188e+01	7.5501	48.304329	0.000608	6.079984	1.029977	-0.000122
 627	6.2287e+01	7.5301	48.223586	0.000405	4.053323	0.686651	-0.000081
 628	6.2386e+01	7.5109	48.171104	0.000263	2.634660	0.446323	-0.000053
 629	6.2486e+01	7.4908	48.058064	0.000567	5.674652	0.961312	-0.000114
 630	6.2586e+01	7.4711	48.033841	0.000122	1.215997	0.205995	-0.000024
 631	6.2685e+01	7.4514	47.949061	0.000426	4.255989	0.720984	-0.000085
 632	6.2785e+01	7.4322	47.844096	0.000527	5.269320	0.892647	-0.000105
 633	6.2884e+01	7.4114	47.799687	0.000223	2.229328	0.377658	-0.000045
 634	6.2983e+01	7.3916	47.690684	0.000547	5.471986	0.926980	-0.000110
 635	6.3083e+01	7.3717	47.638202	0.000263	2.634660	0.446323	-0.000053
 636	6.3182e+01	7.3518	47.545348	0.000466	4.661321	0.789649	-0.000093
 637	6.3282e+01	7.3327	47.484791	0.000304	3.039992	0.514989	-0.000061
 638	6.3382e+01	7.3122	47.404048	0.000405	4.053323	0.686651	-0.000081
 639	6.3481e+01	7.2916	47.323305	0.000405	4.053323	0.686651	-0.000081
 640	6.3581e+01	7.2720	47.246600	0.000385	3.850657	0.652319	-0.000077
 641	6.3680e+01	7.2521	47.165857	0.000405	4.053323	0.686651	-0.000081
 642	6.3779e+01	7.2320	47.068966	0.000486	4.863988	0.823982	-0.000097
 643	6.3879e+01	7.2120	46.996297	0.000365	3.647991	0.617986	-0.000073
 644	6.3978e+01	7.1912	46.895369	0.000507	5.066654	0.858314	-0.000101
 645	6.4078e+01	7.1722	46.834812	0.000304	3.039992	0.514989	-0.000061
 646	6.4177e+01	7.1531	46.790403	0.000223	2.229328	0.377658	-0.000045
 647	6.4277e+01	7.1316	46.669289	0.000608	6.079984	1.029977	-0.000122
 648	6.4376e+01	7.1130	46.604695	0.000324	3.242658	0.549321	-0.000065
 649	6.4476e+01	7.0925	46.523952	0.000405	4.053323	0.686651	-0.000081
 650	6.4576e+01	7.0733	46.459358	0.000324	3.242658	0.549321	-0.000065
 651	6.4675e+01	7.0530	46.334207	0.000628	6.282651	1.064310	-0.000126
 652	6.4775e+01	7.0322	46.273650	0.000304	3.039992	0.514989	-0.000061
 653	6.4874e+01	7.0129	46.217130	0.000284	2.837326	0.480656	-0.000057
 654	6.4974e+01	6.9927	46.124276	0.000466	4.661321	0.789649	-0.000093
 655	6.5073e+01	6.9727	46.035459	0.000446	4.458655	0.755317	-0.000089
 656	6.5172e+01	6.9521	45.982976	0.000263	2.634660	0.446323	-0.000053
 657	6.5272e+01	6.9340	45.882048	0.000507	5.066654	0.858314	-0.000101
 658	6.5371e+01	6.9128	45.773045	0.000547	5.471986	0.926980	-0.000110
 659	6.5471e+01	6.8935	45.712488	0.000304	3.039992	0.514989	-0.000061
 660	6.5570e+01	6.8736	45.655968	0.000284	2.837326	0.480656	-0.000057
 661	6.5670e+01	6.8546	45.555040	0.000507	5.066654	0.858314	-0.000101
 662	6.5769e+01	6.8334	45.462186	0.000466	4.661321	0.789649	-0.000093
 663	6.5869e+01	6.8145	45.357220	0.000527	5.269320	0.892647	-0.000105
 664	6.5969e+01	6.7937	45.308774	0.000243	2.431994	0.411991	-0.000049
 665	6.6068e+01	6.7736	45.215920	0.000466	4.661321	0.789649	-0.000093
 666	6.6168e+01	6.7535	45.151326	0.000324	3.242658	0.549321	-0.000065
 667	6.6267e+01	6.7345	45.058472	0.000466	4.661321	0.789649	-0.000093
 668	6.6367e+01	6.7136	44.965618	0.000466	4.661321	0.789649	-0.000093
 669	6.6466e+01	6.6943	44.892949	0.000365	3.647991	0.617986	-0.000073
 670	6.6566e+01	6.6747	44.816244	0.000385	3.850657	0.652319	-0.000077
 671	6.6665e+01	6.6541	44.711278	0.000527	5.269320	0.892647	-0.000105
 672	6.6764e+01	6.6341	44.610350	0.000507	5.066654	0.858314	-0.000101
 673	6.6864e+01	6.6140	44.533644	0.000385	3.850657	0.652319	-0.000077
 674	6.6963e+01	6.5945	44.432716	0.000507	5.066654	0.858314	-0.000101
 675	6.7063e+01	6.5747	44.372159	0.000304	3.039992	0.514989	-0.000061
 676	6.7162e+01	6.5539	44.311602	0.000304	3.039992	0.514989	-0.000061
 677	6.7262e+01	6.5350	44.242971	0.000345	3.445324	0.583654	-0.000069
 678	6.7362e+01	6.5160	44.117819	0.000628	6.282651	1.064310	-0.000126
 679	6.7461e+01	6.4953	44.024965	0.000466	4.661321	0.789649	-0.000093
 680	6.7561e+01	6.4753	43.952297	0.000365	3.647991	0.617986	-0.000073
 681	6.7660e+01	6.4545	43.875591	0.000385	3.850657	0.652319	-0.000077
 682	6.7760e+01	6.4352	43.815034	0.000304	3.039992	0.514989	-0.000061
 683	6.7859e+01	6.4153	43.673734	0.000709	7.093315	1.201640	-0.000142
 684	6.7959e+01	6.3952	43.605103	0.000345	3.445324	0.583654	-0.000069
 685	6.8058e+01	6.3747	43.516286	0.000446	4.458655	0.755317	-0.000089
 686	6.8157e+01	6.3552	43.451692	0.000324	3.242658	0.549321	-0.000065
 687	6.8257e+01	6.3364	43.326541	0.000628	6.282651	1.064310	-0.000126
 688	6.8356e+01	6.3149	43.257909	0.000345	3.445324	0.583654	-0.000069
 689	6.8456e+01	6.2963	43.189278	0.000345	3.445324	0.583654	-0.000069
 690	6.8555e+01	6.2762	43.064127	0.000628	6.282651	1.064310	-0.000126
 691	6.8655e+01	6.2565	42.983384	0.000405	4.053323	0.686651	-0.000081
 692	6.8754e+01	6.2359	42.858233	0.000628	6.282651	1.064310	-0.000126
 693	6.8854e+01	6.2167	42.793639	0.000324	3.242658	0.549321	-0.000065
 694	6.8954e+01	6.1967	42.716933	0.000385	3.850657	0.652319	-0.000077
 695	6.9053e+01	6.1761	42.624079	0.000466	4.661321	0.789649	-0.000093
 696	6.9153e+01	6.1565	42.543336	0.000405	4.053323	0.686651	-0.000081
 697	6.9252e+01	6.1373	42.454519	0.000446	4.458655	0.755317	-0.000089
 698	6.9352e+01	6.1166	42.365702	0.000446	4.458655	0.755317	-0.000089
 699	6.9451e+01	6.0976	42.244588	0.000608	6.079984	1.029977	-0.000122
 700	6.9550e+01	6.0766	42.171920	0.000365	3.647991	0.617986	-0.000073
 701	6.9650e+01	6.0577	42.091177	0.000405	4.053323	0.686651	-0.000081
 702	6.9749e+01	6.0369	41.970063	0.000608	6.079984	1.029977	-0.000122
 703	6.9849e+01	6.0168	41.925655	0.000223	2.229328	0.377658	-0.000045
 704	6.9948e+01	5.9978	41.812615	0.000567	5.674652	0.961312	-0.000114
 705	7.0048e+01	5.9777	41.699575	0.000567	5.674652	0.961312	-0.000114
 706	7.0147e+01	5.9574	41.643055	0.000284	2.837326	0.480656	-0.000057
 707	7.0247e+01	5.9371	41.562312	0.000405	4.053323	0.686651	-0.000081
 708	7.0347e+01	5.9178	41.453310	0.000547	5.471986	0.926980	-0.000110
 709	7.0446e+01	5.8971	41.348344	0.000527	5.269320	0.892647	-0.000105
 710	7.0546e+01	5.8778	41.295861	0.000263	2.634660	0.446323	-0.000053
 711	7.0645e+01	5.8581	41.203007	0.000466	4.661321	0.789649	-0.000093
 712	7.0745e+01	5.8376	41.126302	0.000385	3.850657	0.652319	-0.000077
 713	7.0844e+01	5.8181	41.025373	0.000507	5.066654	0.858314	-0.000101
 714	7.0944e+01	5.7978	40.928482	0.000486	4.863988	0.823982	-0.000097
 715	7.1043e+01	5.7777	40.831591	0.000486	4.863988	0.823982	-0.000097
 716	7.1142e+01	5.7580	40.754885	0.000385	3.850657	0.652319	-0.000077
 717	7.1242e+01	5.7388	40.641845	0.000567	5.674652	0.961312	-0.000114
 718	7.1341e+01	5.7183	40.569177	0.000365	3.647991	0.617986	-0.000073
 719	7.1441e+01	5.6988	40.472286	0.000486	4.863988	0.823982	-0.000097
 720	7.1540e+01	5.6765	40.407692	0.000324	3.242658	0.549321	-0.000065
 721	7.1640e+01	5.6570	40.270429	0.000689	6.890649	1.167308	-0.000138
 722	7.1740e+01	5.6391	40.234095	0.000182	1.823995	0.308993	-0.000037
 723	7.1839e+01	5.6189	40.112981	0.000608	6.079984	1.029977	-0.000122
 724	7.1939e+01	5.5993	40.072609	0.000203	2.026661	0.343326	-0.000041
 725	7.2038e+01	5.5782	39.931310	0.000709	7.093315	1.201640	-0.000142
 726	7.2138e+01	5.5587	39.854604	0.000385	3.850657	0.652319	-0.000077
 727	7.2237e+01	5.5392	39.765787	0.000446	4.458655	0.755317	-0.000089
 728	7.2337e+01	5.5187	39.705230	0.000304	3.039992	0.514989	-0.000061
 729	7.2436e+01	5.4997	39.551819	0.000770	7.701314	1.304638	-0.000154
 730	7.2535e+01	5.4790	39.519522	0.000162	1.621329	0.274661	-0.000032
 731	7.2635e+01	5.4594	39.386296	0.000669	6.687983	1.132975	-0.000134
 732	7.2734e+01	5.4380	39.321702	0.000324	3.242658	0.549321	-0.000065
 733	7.2834e+01	5.4195	39.253071	0.000345	3.445324	0.583654	-0.000069
 734	7.2933e+01	5.3994	39.115808	0.000689	6.890649	1.167308	-0.000138
 735	7.3033e+01	5.3797	39.051214	0.000324	3.242658	0.549321	-0.000065
 736	7.3132e+01	5.3600	38.982583	0.000345	3.445324	0.583654	-0.000069
 737	7.3232e+01	5.3396	38.913951	0.000345	3.445324	0.583654	-0.000069
 738	7.3332e+01	5.3197	38.792837	0.000608	6.079984	1.029977	-0.000122
 739	7.3431e+01	5.2990	38.683835	0.000547	5.471986	0.926980	-0.000110
 740	7.3531e+01	5.2799	38.599055	0.000426	4.255989	0.720984	-0.000085
 741	7.3630e+01	5.2602	38.538498	0.000304	3.039992	0.514989	-0.000061
 742	7.3730e+01	5.2401	38.445644	0.000466	4.661321	0.789649	-0.000093
 743	7.3829e+01	5.2203	38.364901	0.000405	4.053323	0.686651	-0.000081
 744	7.3928e+01	5.1998	38.251861	0.000567	5.674652	0.961312	-0.000114
 745	7.4028e+01	5.1806	38.163044	0.000446	4.458655	0.755317	-0.000089
 746	7.4127e+01	5.1601	38.078264	0.000426	4.255989	0.720984	-0.000085
 747	7.4227e+01	5.1405	37.949076	0.000649	6.485317	1.098642	-0.000130
 748	7.4326e+01	5.1200	37.900630	0.000243	2.431994	0.411991	-0.000049
 749	7.4426e+01	5.1006	37.787591	0.000567	5.674652	0.961312	-0.000114
 750	7.4525e+01	5.0800	37.698774	0.000446	4.458655	0.755317	-0.000089
 751	7.4625e+01	5.0614	37.613994	0.000426	4.255989	0.720984	-0.000085
 752	7.4725e+01	5.0405	37.513065	0.000507	5.066654	0.858314	-0.000101
 753	7.4824e+01	5.0213	37.416174	0.000486	4.863988	0.823982	-0.000097
 754	7.4924e+01	5.0011	37.343506	0.000365	3.647991	0.617986	-0.000073
 755	7.5023e+01	4.9813	37.222392	0.000608	6.079984	1.029977	-0.000122
 756	7.5123e+01	4.9604	37.125500	0.000486	4.863988	0.823982	-0.000097
 757	7.5222e+01	4.9439	37.077055	0.000243	2.431994	0.411991	-0.000049
 758	7.5322e+01	4.9218	36.935755	0.000709	7.093315	1.201640	-0.000142
 759	7.5421e+01	4.9007	36.887309	0.000243	2.431994	0.411991	-0.000049
 760	7.5520e+01	4.8815	36.798492	0.000446	4.458655	0.755317	-0.000089
 761	7.5620e+01	4.8618	36.665267	0.000669	6.687983	1.132975	-0.000134
 762	7.5719e+01	4.8409	36.592598	0.000365	3.647991	0.617986	-0.000073
 763	7.5819e+01	4.8219	36.519930	0.000365	3.647991	0.617986	-0.000073
 764	7.5918e+01	4.8022	36.402853	0.000588	5.877318	0.995645	-0.000118
 765	7.6018e+01	4.7825	36.338259	0.000324	3.242658	0.549321	-0.000065
 766	7.6118e+01	4.7622	36.205033	0.000669	6.687983	1.132975	-0.000134
 767	7.6217e+01	4.7417	36.160625	0.000223	2.229328	0.377658	-0.000045
 768	7.6317e+01	4.7224	36.063734	0.000486	4.863988	0.823982	-0.000097
 769	7.6416e+01	4.7027	35.926471	0.000689	6.890649	1.167308	-0.000138
 770	7.6516e+01	4.6832	35.865914	0.000304	3.039992	0.514989	-0.000061
 771	7.6615e+01	4.6624	35.781134	0.000426	4.255989	0.720984	-0.000085
 772	7.6715e+01	4.6425	35.684243	0.000486	4.863988	0.823982	-0.000097
 773	7.6814e+01	4.6231	35.575240	0.000547	5.471986	0.926980	-0.000110
 774	7.6913e+01	4.6026	35.498535	0.000385	3.850657	0.652319	-0.000077
 775	7.7013e+01	4.5829	35.397606	0.000507	5.066654	0.858314	-0.000101
 776	7.7112e+01	4.5620	35.320901	0.000385	3.850657	0.652319	-0.000077
 777	7.7212e+01	4.5425	35.244195	0.000385	3.850657	0.652319	-0.000077
 778	7.7311e+01	4.5231	35.131155	0.000567	5.674652	0.961312	-0.000114
 779	7.7411e+01	4.5028	35.018115	0.000567	5.674652	0.961312	-0.000114
 780	7.7510e+01	4.4830	34.953521	0.000324	3.242658	0.549321	-0.000065
 781	7.7610e+01	4.4625	34.888927	0.000324	3.242658	0.549321	-0.000065
 782	7.7710e+01	4.4432	34.792036	0.000486	4.863988	0.823982	-0.000097
 783	7.7809e+01	4.4231	34.666885	0.000628	6.282651	1.064310	-0.000126
 784	7.7909e+01	4.4027	34.590179	0.000385	3.850657	0.652319	-0.000077
 785	7.8008e+01	4.3839	34.477139	0.000567	5.674652	0.961312	-0.000114
 786	7.8108e+01	4.3637	34.396396	0.000405	4.053323	0.686651	-0.000081
 787	7.8207e+01	4.3436	34.295468	0.000507	5.066654	0.858314	-0.000101
 788	7.8306e+01	4.3230	34.198577	0.000486	4.863988	0.823982	-0.000097
 789	7.8406e+01	4.3038	34.065351	0.000669	6.687983	1.132975	-0.000134
 790	7.8505e+01	4.2839	34.029017	0.000182	1.823995	0.308993	-0.000037
 791	7.8605e+01	4.2640	33.915977	0.000567	5.674652	0.961312	-0.000114
 792	7.8704e+01	4.2442	33.815049	0.000507	5.066654	0.858314	-0.000101
 793	7.8804e+01	4.2244	33.689898	0.000628	6.282651	1.064310	-0.000126
 794	7.8903e+01	4.2037	33.613192	0.000385	3.850657	0.652319	-0.000077
 795	7.9003e+01	4.1837	33.512264	0.000507	5.066654	0.858314	-0.000101
 796	7.9103e+01	4.1639	33.431521	0.000405	4.053323	0.686651	-0.000081
 797	7.9202e+01	4.1453	33.318481	0.000567	5.674652	0.961312	-0.000114
 798	7.9302e+01	4.1251	33.217553	0.000507	5.066654	0.858314	-0.000101
 799	7.9401e+01	4.1047	33.104513	0.000567	5.674652	0.961312	-0.000114
 800	7.9501e+01	4.0849	33.003585	0.000507	5.066654	0.858314	-0.000101
 801	7.9600e+01	4.0639	32.902656	0.000507	5.066654	0.858314	-0.000101
 802	7.9700e+01	4.0444	32.789616	0.000567	5.674652	0.961312	-0.000114
 803	7.9799e+01	4.0244	32.708874	0.000405	4.053323	0.686651	-0.000081
 804	7.9898e+01	4.0047	32.599871	0.000547	5.471986	0.926980	-0.000110
 805	7.9998e+01	3.9819	32.507017	0.000466	4.661321	0.789649	-0.000093
 806	8.0097e+01	3.9652	32.438386	0.000345	3.445324	0.583654	-0.000069
 807	8.0197e+01	3.9443	32.280937	0.000790	7.903980	1.338970	-0.000158
 808	8.0296e+01	3.9254	32.180009	0.000507	5.066654	0.858314	-0.000101
 809	8.0396e+01	3.9051	32.083118	0.000486	4.863988	0.823982	-0.000097
 810	8.0496e+01	3.8856	32.018524	0.000324	3.242658	0.549321	-0.000065
 811	8.0595e+01	3.8653	31.881261	0.000689	6.890649	1.167308	-0.000138
 812	8.0695e+01	3.8448	31.792444	0.000446	4.458655	0.755317	-0.000089
 813	8.0794e+01	3.8261	31.679404	0.000567	5.674652	0.961312	-0.000114
 814	8.0894e+01	3.8049	31.566364	0.000567	5.674652	0.961312	-0.000114
 815	8.0993e+01	3.7852	31.485622	0.000405	4.053323	0.686651	-0.000081
 816	8.1093e+01	3.7664	31.352396	0.000669	6.687983	1.132975	-0.000134
 817	8.1192e+01	3.7463	31.279728	0.000365	3.647991	0.617986	-0.000073
 818	8.1291e+01	3.7265	31.166688	0.000567	5.674652	0.961312	-0.000114
 819	8.1391e+01	3.7057	31.085945	0.000405	4.053323	0.686651	-0.000081
 820	8.1490e+01	3.6861	30.936571	0.000750	7.498647	1.270305	-0.000150
 821	8.1590e+01	3.6671	30.880051	0.000284	2.837326	0.480656	-0.000057
 822	8.1689e+01	3.6459	30.771049	0.000547	5.471986	0.926980	-0.000110
 823	8.1789e+01	3.6263	30.658009	0.000567	5.674652	0.961312	-0.000114
 824	8.1888e+01	3.6063	30.557080	0.000507	5.066654	0.858314	-0.000101
 825	8.1988e+01	3.5863	30.440003	0.000588	5.877318	0.995645	-0.000118
 826	8.2088e+01	3.5662	30.318889	0.000608	6.079984	1.029977	-0.000122
 827	8.2187e+01	3.5473	30.258332	0.000304	3.039992	0.514989	-0.000061
 828	8.2287e+01	3.5269	30.121070	0.000689	6.890649	1.167308	-0.000138
 829	8.2386e+01	3.5059	29.995919	0.000628	6.282651	1.064310	-0.000126
 830	8.2486e+01	3.4869	29.927287	0.000345	3.445324	0.583654	-0.000069
 831	8.2585e+01	3.4672	29.826359	0.000507	5.066654	0.858314	-0.000101
 832	8.2684e+01	3.4476	29.676985	0.000750	7.498647	1.270305	-0.000150
 833	8.2784e+01	3.4269	29.600279	0.000385	3.850657	0.652319	-0.000077
 834	8.2883e+01	3.4078	29.487239	0.000567	5.674652	0.961312	-0.000114
 835	8.2983e+01	3.3874	29.398422	0.000446	4.458655	0.755317	-0.000089
 836	8.3082e+01	3.3677	29.293457	0.000527	5.269320	0.892647	-0.000105
 837	8.3182e+01	3.3477	29.192529	0.000507	5.066654	0.858314	-0.000101
 838	8.3281e+01	3.3273	29.063340	0.000649	6.485317	1.098642	-0.000130
 839	8.3381e+01	3.3077	28.982597	0.000405	4.053323	0.686651	-0.000081
 840	8.3481e+01	3.2877	28.853409	0.000649	6.485317	1.098642	-0.000130
 841	8.3580e+01	3.2677	28.720184	0.000669	6.687983	1.132975	-0.000134
 842	8.3680e+01	3.2470	28.635404	0.000426	4.255989	0.720984	-0.000085
 843	8.3779e+01	3.2285	28.518327	0.000588	5.877318	0.995645	-0.000118
 844	8.3879e+01	3.2073	28.445658	0.000365	3.647991	0.617986	-0.000073
 845	8.3978e+01	3.1887	28.308396	0.000689	6.890649	1.167308	-0.000138
 846	8.4078e+01	3.1670	28.255913	0.000263	2.634660	0.446323	-0.000053
 847	8.4177e+01	3.1487	28.082316	0.000871	8.714644	1.476301	-0.000174
 848	8.4276e+01	3.1283	28.005611	0.000385	3.850657	0.652319	-0.000077
 849	8.4376e+01	3.1086	27.880459	0.000628	6.282651	1.064310	-0.000126
 850	8.4475e+01	3.0885	27.771457	0.000547	5.471986	0.926980	-0.000110
 851	8.4575e+01	3.0686	27.646306	0.000628	6.282651	1.064310	-0.000126
 852	8.4674e+01	3.0480	27.565563	0.000405	4.053323	0.686651	-0.000081
 853	8.4774e+01	3.0284	27.416189	0.000750	7.498647	1.270305	-0.000150
 854	8.4874e+01	3.0083	27.315260	0.000507	5.066654	0.858314	-0.000101
 855	8.4973e+01	2.9878	27.226443	0.000446	4.458655	0.755317	-0.000089
 856	8.5073e+01	2.9686	27.081107	0.000730	7.295981	1.235973	-0.000146
 857	8.5172e+01	2.9491	26.972104	0.000547	5.471986	0.926980	-0.000110
 858	8.5272e+01	2.9293	26.846953	0.000628	6.282651	1.064310	-0.000126
 859	8.5371e+01	2.9092	26.729876	0.000588	5.877318	0.995645	-0.000118
 860	8.5471e+01	2.8886	26.632984	0.000486	4.863988	0.823982	-0.000097
 861	8.5570e+01	2.8695	26.499759	0.000669	6.687983	1.132975	-0.000134
 862	8.5669e+01	2.8488	26.394793	0.000527	5.269320	0.892647	-0.000105
 863	8.5769e+01	2.8297	26.314051	0.000405	4.053323	0.686651	-0.000081
 864	8.5868e+01	2.8102	26.160640	0.000770	7.701314	1.304638	-0.000154
 865	8.5968e+01	2.7886	26.096045	0.000324	3.242658	0.549321	-0.000065
 866	8.6067e+01	2.7691	26.007228	0.000446	4.458655	0.755317	-0.000089
 867	8.6167e+01	2.7490	25.837669	0.000851	8.511978	1.441968	-0.000170
 868	8.6266e+01	2.7297	25.752889	0.000426	4.255989	0.720984	-0.000085
 869	8.6366e+01	2.7094	25.595441	0.000790	7.903980	1.338970	-0.000158
 870	8.6466e+01	2.6887	25.498549	0.000486	4.863988	0.823982	-0.000097
 871	8.6565e+01	2.6699	25.381472	0.000588	5.877318	0.995645	-0.000118
 872	8.6665e+01	2.6506	25.248247	0.000669	6.687983	1.132975	-0.000134
 873	8.6764e+01	2.6303	25.171541	0.000385	3.850657	0.652319	-0.000077
 874	8.6864e+01	2.6089	25.078687	0.000466	4.661321	0.789649	-0.000093
 875	8.6963e+01	2.5902	24.981796	0.000486	4.863988	0.823982	-0.000097
 876	8.7063e+01	2.5710	24.820311	0.000811	8.106646	1.373303	-0.000162
 877	8.7162e+01	2.5510	24.727456	0.000466	4.661321	0.789649	-0.000093
 878	8.7261e+01	2.5301	24.614417	0.000567	5.674652	0.961312	-0.000114
 879	8.7361e+01	2.5111	24.513488	0.000507	5.066654	0.858314	-0.000101
 880	8.7460e+01	2.4907	24.396411	0.000588	5.877318	0.995645	-0.000118
 881	8.7560e+01	2.4709	24.267223	0.000649	6.485317	1.098642	-0.000130
 882	8.7659e+01	2.4505	24.186480	0.000405	4.053323	0.686651	-0.000081
 883	8.7759e+01	2.4315	24.065366	0.000608	6.079984	1.029977	-0.000122
 884	8.7859e+01	2.4114	23.940215	0.000628	6.282651	1.064310	-0.000126
 885	8.7958e+01	2.3911	23.835249	0.000527	5.269320	0.892647	-0.000105
 886	8.8058e+01	2.3709	23.702024	0.000669	6.687983	1.132975	-0.000134
 887	8.8157e+01	2.3510	23.588984	0.000567	5.674652	0.961312	-0.000114
 888	8.8257e+01	2.3313	23.504204	0.000426	4.255989	0.720984	-0.000085
 889	8.8356e+01	2.3095	23.362905	0.000709	7.093315	1.201640	-0.000142
 890	8.8456e+01	2.2909	23.286199	0.000385	3.850657	0.652319	-0.000077
 891	8.8555e+01	2.2726	23.193345	0.000466	4.661321	0.789649	-0.000093
 892	8.8654e+01	2.2519	23.043971	0.000750	7.498647	1.270305	-0.000150
 893	8.8754e+01	2.2316	22.939005	0.000527	5.269320	0.892647	-0.000105
 894	8.8853e+01	2.2111	22.838077	0.000507	5.066654	0.858314	-0.000101
 895	8.8953e+01	2.1920	22.721000	0.000588	5.877318	0.995645	-0.000118
 896	8.9052e+01	2.1721	22.587774	0.000669	6.687983	1.132975	-0.000134
 897	8.9152e+01	2.1527	22.494920	0.000466	4.661321	0.789649	-0.000093
 898	8.9251e+01	2.1314	22.402066	0.000466	4.661321	0.789649	-0.000093
 899	8.9351e+01	2.1127	22.256729	0.000730	7.295981	1.235973	-0.000146
 900	8.9451e+01	2.0917	22.111392	0.000730	7.295981	1.235973	-0.000146
 901	8.9550e+01	2.0723	22.022575	0.000446	4.458655	0.755317	-0.000089
 902	8.9650e+01	2.0521	21.925684	0.000486	4.863988	0.823982	-0.000097
 903	8.9749e+01	2.0321	21.776310	0.000750	7.498647	1.270305	-0.000150
 904	8.9849e+01	2.0119	21.667308	0.000547	5.471986	0.926980	-0.000110
 905	8.9948e+01	1.9922	21.578491	0.000446	4.458655	0.755317	-0.000089
 906	9.0047e+01	1.9720	21.469488	0.000547	5.471986	0.926980	-0.000110
 907	9.0147e+01	1.9524	21.388745	0.000405	4.053323	0.686651	-0.000081
 908	9.0246e+01	1.9324	21.243408	0.000730	7.295981	1.235973	-0.000146
 909	9.0346e+01	1.9125	21.142480	0.000507	5.066654	0.858314	-0.000101
 910	9.0445e+01	1.8930	21.025403	0.000588	5.877318	0.995645	-0.000118
 911	9.0545e+01	1.8732	20.916400	0.000547	5.471986	0.926980	-0.000110
 912	9.0644e+01	1.8526	20.811435	0.000527	5.269320	0.892647	-0.000105
 913	9.0744e+01	1.8333	20.694358	0.000588	5.877318	0.995645	-0.000118
 914	9.0844e+01	1.8137	20.565169	0.000649	6.485317	1.098642	-0.000130
 915	9.0943e+01	1.7931	20.484427	0.000405	4.053323	0.686651	-0.000081
 916	9.1043e+01	1.7729	20.371387	0.000567	5.674652	0.961312	-0.000114
 917	9.1142e+01	1.7530	20.258347	0.000567	5.674652	0.961312	-0.000114
 918	9.1242e+01	1.7342	20.113010	0.000730	7.295981	1.235973	-0.000146
 919	9.1341e+01	1.7133	20.004008	0.000547	5.471986	0.926980	-0.000110
 920	9.1441e+01	1.6939	19.854634	0.000750	7.498647	1.270305	-0.000150
 921	9.1540e+01	1.6740	19.749668	0.000527	5.269320	0.892647	-0.000105
 922	9.1639e+01	1.6535	19.640665	0.000547	5.471986	0.926980	-0.000110
 923	9.1739e+01	1.6332	19.576071	0.000324	3.242658	0.549321	-0.000065
 924	9.1838e+01	1.6132	19.438809	0.000689	6.890649	1.167308	-0.000138
 925	9.1938e+01	1.5939	19.354029	0.000426	4.255989	0.720984	-0.000085
 926	9.2037e+01	1.5742	19.212729	0.000709	7.093315	1.201640	-0.000142
 927	9.2137e+01	1.5542	19.095652	0.000588	5.877318	0.995645	-0.000118
 928	9.2237e+01	1.5337	18.974538	0.000608	6.079984	1.029977	-0.000122
 929	9.2336e+01	1.5146	18.833238	0.000709	7.093315	1.201640	-0.000142
 930	9.2436e+01	1.4936	18.728273	0.000527	5.269320	0.892647	-0.000105
 931	9.2535e+01	1.4748	18.619270	0.000547	5.471986	0.926980	-0.000110
 932	9.2635e+01	1.4542	18.530453	0.000446	4.458655	0.755317	-0.000089
 933	9.2734e+01	1.4347	18.360893	0.000851	8.511978	1.441968	-0.000170
 934	9.2834e+01	1.4139	18.296299	0.000324	3.242658	0.549321	-0.000065
 935	9.2933e+01	1.3937	18.175185	0.000608	6.079984	1.029977	-0.000122
 936	9.3032e+01	1.3734	18.037922	0.000689	6.890649	1.167308	-0.000138
 937	9.3132e+01	1.3548	17.961217	0.000385	3.850657	0.652319	-0.000077
 938	9.3231e+01	1.3344	17.823954	0.000689	6.890649	1.167308	-0.000138
 939	9.3331e+01	1.3145	17.706877	0.000588	5.877318	0.995645	-0.000118
 940	9.3430e+01	1.2944	17.609986	0.000486	4.863988	0.823982	-0.000097
 941	9.3530e+01	1.2750	17.488872	0.000608	6.079984	1.029977	-0.000122
 942	9.3629e+01	1.2553	17.359684	0.000649	6.485317	1.098642	-0.000130
 943	9.3729e+01	1.2361	17.246644	0.000567	5.674652	0.961312	-0.000114
 944	9.3829e+01	1.2159	17.161864	0.000426	4.255989	0.720984	-0.000085
 945	9.3928e+01	1.1964	17.077084	0.000426	4.255989	0.720984	-0.000085
 946	9.4028e+01	1.1764	16.923673	0.000770	7.701314	1.304638	-0.000154
 947	9.4127e+01	1.1565	16.802559	0.000608	6.079984	1.029977	-0.000122
 948	9.4227e+01	1.1352	16.689519	0.000567	5.674652	0.961312	-0.000114
 949	9.4326e+01	1.1163	16.624925	0.000324	3.242658	0.549321	-0.000065
 950	9.4425e+01	1.0965	16.495737	0.000649	6.485317	1.098642	-0.000130
 951	9.4525e+01	1.0764	16.370585	0.000628	6.282651	1.064310	-0.000126
 952	9.4624e+01	1.0558	16.253508	0.000588	5.877318	0.995645	-0.000118
 953	9.4724e+01	1.0365	16.140469	0.000567	5.674652	0.961312	-0.000114
 954	9.4823e+01	1.0161	16.023392	0.000588	5.877318	0.995645	-0.000118
 955	9.4923e+01	0.9962	15.914389	0.000547	5.471986	0.926980	-0.000110
 956	9.5022e+01	0.9762	15.785201	0.000649	6.485317	1.098642	-0.000130
 957	9.5122e+01	0.9566	15.680235	0.000527	5.269320	0.892647	-0.000105
 958	9.5222e+01	0.9364	15.530861	0.000750	7.498647	1.270305	-0.000150
 959	9.5321e+01	0.9171	15.425896	0.000527	5.269320	0.892647	-0.000105
 960	9.5421e+01	0.8973	15.260373	0.000831	8.309312	1.407636	-0.000166
 961	9.5520e+01	0.8774	15.240187	0.000101	1.013331	0.171663	-0.000020
 962	9.5620e+01	0.8572	15.078702	0.000811	8.106646	1.373303	-0.000162
 963	9.5719e+01	0.8369	14.949514	0.000649	6.485317	1.098642	-0.000130
 964	9.5819e+01	0.8167	14.820325	0.000649	6.485317	1.098642	-0.000130
 965	9.5918e+01	0.7973	14.699211	0.000608	6.079984	1.029977	-0.000122
 966	9.6017e+01	0.7768	14.570023	0.000649	6.485317	1.098642	-0.000130
 967	9.6117e+01	0.7576	14.461020	0.000547	5.471986	0.926980	-0.000110
 968	9.6216e+01	0.7376	14.392389	0.000345	3.445324	0.583654	-0.000069
 969	9.6316e+01	0.7168	14.222829	0.000851	8.511978	1.441968	-0.000170
 970	9.6415e+01	0.6973	14.142086	0.000405	4.053323	0.686651	-0.000081
 971	9.6515e+01	0.6782	13.996750	0.000730	7.295981	1.235973	-0.000146
 972	9.6615e+01	0.6573	13.827190	0.000851	8.511978	1.441968	-0.000170
 973	9.6714e+01	0.6382	13.726262	0.000507	5.066654	0.858314	-0.000101
 974	9.6814e+01	0.6171	13.605147	0.000608	6.079984	1.029977	-0.000122
 975	9.6913e+01	0.5979	13.504219	0.000507	5.066654	0.858314	-0.000101
 976	9.7013e+01	0.5779	13.407328	0.000486	4.863988	0.823982	-0.000097
 977	9.7112e+01	0.5583	13.294288	0.000567	5.674652	0.961312	-0.000114
 978	9.7212e+01	0.5382	13.096468	0.000993	9.930641	1.682296	-0.000199
 979	9.7311e+01	0.5187	13.019763	0.000385	3.850657	0.652319	-0.000077
 980	9.7410e+01	0.4981	12.882500	0.000689	6.890649	1.167308	-0.000138
 981	9.7510e+01	0.4790	12.769460	0.000567	5.674652	0.961312	-0.000114
 982	9.7609e+01	0.4585	12.644309	0.000628	6.282651	1.064310	-0.000126
 983	9.7709e+01	0.4379	12.519158	0.000628	6.282651	1.064310	-0.000126
 984	9.7808e+01	0.4180	12.394007	0.000628	6.282651	1.064310	-0.000126
 985	9.7908e+01	0.3983	12.268856	0.000628	6.282651	1.064310	-0.000126
 986	9.8007e+01	0.3783	12.151779	0.000588	5.877318	0.995645	-0.000118
 987	9.8107e+01	0.3590	12.054887	0.000486	4.863988	0.823982	-0.000097
 988	9.8207e+01	0.3399	11.877253	0.000892	8.917310	1.510633	-0.000179
 989	9.8306e+01	0.3191	11.788436	0.000446	4.458655	0.755317	-0.000089
 990	9.8406e+01	0.2990	11.675397	0.000567	5.674652	0.961312	-0.000114
 991	9.8505e+01	0.2793	11.521985	0.000770	7.701314	1.304638	-0.000154
 992	9.8605e+01	0.2599	11.400871	0.000608	6.079984	1.029977	-0.000122
 993	9.8704e+01	0.2385	11.263609	0.000689	6.890649	1.167308	-0.000138
 994	9.8803e+01	0.2183	11.166717	0.000486	4.863988	0.823982	-0.000097
 995	9.8903e+01	0.1983	11.017343	0.000750	7.498647	1.270305	-0.000150
 996	9.9002e+01	0.1792	10.884118	0.000669	6.687983	1.132975	-0.000134
 997	9.9102e+01	0.1594	10.771078	0.000567	5.674652	0.961312	-0.000114
 998	9.9201e+01	0.1390	10.658038	0.000567	5.674652	0.961312	-0.000114
 999	9.9301e+01	0.1195	10.528850	0.000649	6.485317	1.098642	-0.000130
1000	9.9400e+01	0.1013	10.399662	0.000649	6.485317	1.098642	-0.000130
1001	9.9500e+01	0.0793	10.302770	0.000486	4.863988	0.823982	-0.000097
1002	9.9600e+01	0.0595	10.145322	0.000790	7.903980	1.338970	-0.000158
1003	9.9699e+01	0.0386	10.020171	0.000628	6.282651	1.064310	-0.000126
1004	9.9799e+01	0.0189	9.870797	0.000750	7.498647	1.270305	-0.000150
1005	9.9898e+01	0.0000	9.761794	0.000547	5.471986	0.926980	-0.000110
1006	9.9998e+01	-0.0180	9.648754	0.000567	5.674652	0.961312	-0.000114
1007	1.0010e+02	-0.0383	9.543789	0.000527	5.269320	0.892647	-0.000105
1008	1.0020e+02	-0.0578	9.382303	0.000811	8.106646	1.373303	-0.000162
1009	1.0030e+02	-0.0777	9.269264	0.000567	5.674652	0.961312	-0.000114
1010	1.0040e+02	-0.0977	9.148150	0.000608	6.079984	1.029977	-0.000122
1011	1.0050e+02	-0.1176	8.986664	0.000811	8.106646	1.373303	-0.000162
1012	1.0059e+02	-0.1384	8.893810	0.000466	4.661321	0.789649	-0.000093
1013	1.0069e+02	-0.1584	8.756547	0.000689	6.890649	1.167308	-0.000138
1014	1.0079e+02	-0.1774	8.627359	0.000649	6.485317	1.098642	-0.000130
1015	1.0089e+02	-0.1972	8.502208	0.000628	6.282651	1.064310	-0.000126
1016	1.0099e+02	-0.2179	8.344760	0.000790	7.903980	1.338970	-0.000158
1017	1.0109e+02	-0.2373	8.243831	0.000507	5.066654	0.858314	-0.000101
1018	1.0119e+02	-0.2572	8.142903	0.000507	5.066654	0.858314	-0.000101
1019	1.0129e+02	-0.2780	7.953157	0.000953	9.525309	1.613631	-0.000191
1020	1.0139e+02	-0.2975	7.836080	0.000588	5.877318	0.995645	-0.000118
1021	1.0149e+02	-0.3174	7.743226	0.000466	4.661321	0.789649	-0.000093
1022	1.0159e+02	-0.3372	7.577704	0.000831	8.309312	1.407636	-0.000166
1023	1.0169e+02	-0.3574	7.464664	0.000567	5.674652	0.961312	-0.000114
1024	1.0179e+02	-0.3774	7.315290	0.000750	7.498647	1.270305	-0.000150
1025	1.0189e+02	-0.3965	7.190139	0.000628	6.282651	1.064310	-0.000126
1026	1.0199e+02	-0.4161	7.093247	0.000486	4.863988	0.823982	-0.000097
1027	1.0209e+02	-0.4356	6.947911	0.000730	7.295981	1.235973	-0.000146
1028	1.0219e+02	-0.4565	6.794499	0.000770	7.701314	1.304638	-0.000154
1029	1.0229e+02	-0.4771	6.661274	0.000669	6.687983	1.132975	-0.000134
1030	1.0239e+02	-0.4964	6.544197	0.000588	5.877318	0.995645	-0.000118
1031	1.0248e+02	-0.5173	6.423083	0.000608	6.079984	1.029977	-0.000122
1032	1.0258e+02	-0.5365	6.301969	0.000608	6.079984	1.029977	-0.000122
1033	1.0268e+02	-0.5572	6.140483	0.000811	8.106646	1.373303	-0.000162
1034	1.0278e+02	-0.5765	6.039555	0.000507	5.066654	0.858314	-0.000101
1035	1.0288e+02	-0.5962	5.910367	0.000649	6.485317	1.098642	-0.000130
1036	1.0298e+02	-0.6165	5.769067	0.000709	7.093315	1.201640	-0.000142
1037	1.0308e+02	-0.6358	5.656027	0.000567	5.674652	0.961312	-0.000114
1038	1.0318e+02	-0.6561	5.518765	0.000689	6.890649	1.167308	-0.000138
1039	1.0328e+02	-0.6763	5.377465	0.000709	7.093315	1.201640	-0.000142
1040	1.0338e+02	-0.6960	5.240202	0.000689	6.890649	1.167308	-0.000138
1041	1.0348e+02	-0.7152	5.115051	0.000628	6.282651	1.064310	-0.000126
1042	1.0358e+02	-0.7355	4.953566	0.000811	8.106646	1.373303	-0.000162
1043	1.0368e+02	-0.7560	4.880897	0.000365	3.647991	0.617986	-0.000073
1044	1.0378e+02	-0.7764	4.731523	0.000750	7.498647	1.270305	-0.000150
1045	1.0388e+02	-0.7957	4.602335	0.000649	6.485317	1.098642	-0.000130
1046	1.0398e+02	-0.8160	4.461035	0.000709	7.093315	1.201640	-0.000142
1047	1.0408e+02	-0.8359	4.335884	0.000628	6.282651	1.064310	-0.000126
1048	1.0418e+02	-0.8551	4.230918	0.000527	5.269320	0.892647	-0.000105
1049	1.0428e+02	-0.8750	4.117878	0.000567	5.674652	0.961312	-0.000114
1050	1.0438e+02	-0.8949	3.916022	0.001013	10.133307	1.716629	-0.000203
1051	1.0447e+02	-0.9161	3.815093	0.000507	5.066654	0.858314	-0.000101
1052	1.0457e+02	-0.9354	3.681868	0.000669	6.687983	1.132975	-0.000134
1053	1.0467e+02	-0.9550	3.605162	0.000385	3.850657	0.652319	-0.000077
1054	1.0477e+02	-0.9750	3.492122	0.000567	5.674652	0.961312	-0.000114
1055	1.0487e+02	-0.9944	3.326600	0.000831	8.309312	1.407636	-0.000166
1056	1.0497e+02	-1.0143	3.209523	0.000588	5.877318	0.995645	-0.000118
1057	1.0507e+02	-1.0345	3.068223	0.000709	7.093315	1.201640	-0.000142
1058	1.0517e+02	-1.0550	2.943072	0.000628	6.282651	1.064310	-0.000126
1059	1.0527e+02	-1.0748	2.809846	0.000669	6.687983	1.132975	-0.000134
1060	1.0537e+02	-1.0946	2.725067	0.000426	4.255989	0.720984	-0.000085
1061	1.0547e+02	-1.1147	2.599915	0.000628	6.282651	1.064310	-0.000126
1062	1.0557e+02	-1.1350	2.462653	0.000689	6.890649	1.167308	-0.000138
1063	1.0567e+02	-1.1538	2.325390	0.000689	6.890649	1.167308	-0.000138
1064	1.0577e+02	-1.1738	2.204276	0.000608	6.079984	1.029977	-0.000122
1065	1.0587e+02	-1.1940	2.058939	0.000730	7.295981	1.235973	-0.000146
1066	1.0597e+02	-1.2154	1.941862	0.000588	5.877318	0.995645	-0.000118
1067	1.0607e+02	-1.2337	1.804600	0.000689	6.890649	1.167308	-0.000138
1068	1.0617e+02	-1.2540	1.683486	0.000608	6.079984	1.029977	-0.000122
1069	1.0627e+02	-1.2732	1.558334	0.000628	6.282651	1.064310	-0.000126
1070	1.0637e+02	-1.2930	1.445295	0.000567	5.674652	0.961312	-0.000114
1071	1.0647e+02	-1.3127	1.312069	0.000669	6.687983	1.132975	-0.000134
1072	1.0656e+02	-1.3336	1.170769	0.000709	7.093315	1.201640	-0.000142
1073	1.0666e+02	-1.3548	1.049655	0.000608	6.079984	1.029977	-0.000122
1074	1.0676e+02	-1.3733	0.916430	0.000669	6.687983	1.132975	-0.000134
1075	1.0686e+02	-1.3935	0.819539	0.000486	4.863988	0.823982	-0.000097
1076	1.0696e+02	-1.4120	0.678239	0.000709	7.093315	1.201640	-0.000142
1077	1.0706e+02	-1.4332	0.565199	0.000567	5.674652	0.961312	-0.000114
1078	1.0716e+02	-1.4528	0.464271	0.000507	5.066654	0.858314	-0.000101
1079	1.0726e+02	-1.4720	0.274525	0.000953	9.525309	1.613631	-0.000191
1080	1.0736e+02	-1.4927	0.181671	0.000466	4.661321	0.789649	-0.000093
1081	1.0746e+02	-1.5127	0.020186	0.000811	8.106646	1.373303	-0.000162
1082	1.0756e+02	-1.5331	-0.096891	0.000588	5.877318	0.995645	-0.000118
1083	1.0766e+02	-1.5521	-0.234154	0.000689	6.890649	1.167308	-0.000138
1084	1.0776e+02	-1.5721	-0.359305	0.000628	6.282651	1.064310	-0.000126
1085	1.0786e+02	-1.5912	-0.468308	0.000547	5.471986	0.926980	-0.000110
1086	1.0796e+02	-1.6125	-0.609607	0.000709	7.093315	1.201640	-0.000142
1087	1.0806e+02	-1.6322	-0.746870	0.000689	6.890649	1.167308	-0.000138
1088	1.0816e+02	-1.6518	-0.835687	0.000446	4.458655	0.755317	-0.000089
1089	1.0826e+02	-1.6720	-0.997173	0.000811	8.106646	1.373303	-0.000162
1090	1.0836e+02	-1.6917	-1.122324	0.000628	6.282651	1.064310	-0.000126
1091	1.0845e+02	-1.7119	-1.227289	0.000527	5.269320	0.892647	-0.000105
1092	1.0855e+02	-1.7331	-1.368589	0.000709	7.093315	1.201640	-0.000142
1093	1.0865e+02	-1.7519	-1.449332	0.000405	4.053323	0.686651	-0.000081
1094	1.0875e+02	-1.7718	-1.631003	0.000912	9.119977	1.544966	-0.000183
1095	1.0885e+02	-1.7931	-1.748080	0.000588	5.877318	0.995645	-0.000118
1096	1.0895e+02	-1.8118	-1.861120	0.000567	5.674652	0.961312	-0.000114
1097	1.0905e+02	-1.8314	-1.986271	0.000628	6.282651	1.064310	-0.000126
1098	1.0915e+02	-1.8517	-2.139682	0.000770	7.701314	1.304638	-0.000154
1099	1.0925e+02	-1.8713	-2.244647	0.000527	5.269320	0.892647	-0.000105
1100	1.0935e+02	-1.8920	-2.325390	0.000405	4.053323	0.686651	-0.000081
1101	1.0945e+02	-1.9110	-2.503024	0.000892	8.917310	1.510633	-0.000179
1102	1.0955e+02	-1.9315	-2.603953	0.000507	5.066654	0.858314	-0.000101
1103	1.0965e+02	-1.9516	-2.737178	0.000669	6.687983	1.132975	-0.000134
1104	1.0975e+02	-1.9714	-2.838106	0.000507	5.066654	0.858314	-0.000101
1105	1.0985e+02	-1.9910	-2.979406	0.000709	7.093315	1.201640	-0.000142
1106	1.0995e+02	-2.0117	-3.120706	0.000709	7.093315	1.201640	-0.000142
1107	1.1005e+02	-2.0293	-3.177226	0.000284	2.837326	0.480656	-0.000057
1108	1.1015e+02	-2.0511	-3.314488	0.000689	6.890649	1.167308	-0.000138
1109	1.1025e+02	-2.0708	-3.463862	0.000750	7.498647	1.270305	-0.000150
1110	1.1035e+02	-2.0909	-3.625348	0.000811	8.106646	1.373303	-0.000162
1111	1.1044e+02	-2.1106	-3.685905	0.000304	3.039992	0.514989	-0.000061
1112	1.1054e+02	-2.1307	-3.819130	0.000669	6.687983	1.132975	-0.000134
1113	1.1064e+02	-2.1507	-3.956393	0.000689	6.890649	1.167308	-0.000138
1114	1.1074e+02	-2.1703	-4.089619	0.000669	6.687983	1.132975	-0.000134
1115	1.1084e+02	-2.1917	-4.154213	0.000324	3.242658	0.549321	-0.000065
1116	1.1094e+02	-2.2106	-4.311661	0.000790	7.903980	1.338970	-0.000158
1117	1.1104e+02	-2.2303	-4.432775	0.000608	6.079984	1.029977	-0.000122
1118	1.1114e+02	-2.2504	-4.586186	0.000770	7.701314	1.304638	-0.000154
1119	1.1124e+02	-2.2704	-4.687115	0.000507	5.066654	0.858314	-0.000101
1120	1.1134e+02	-2.2897	-4.832451	0.000730	7.295981	1.235973	-0.000146
1121	1.1144e+02	-2.3096	-4.921268	0.000446	4.458655	0.755317	-0.000089
1122	1.1154e+02	-2.3285	-5.082754	0.000811	8.106646	1.373303	-0.000162
1123	1.1164e+02	-2.3499	-5.207905	0.000628	6.282651	1.064310	-0.000126
1124	1.1174e+02	-2.3701	-5.296722	0.000446	4.458655	0.755317	-0.000089
1125	1.1184e+02	-2.3894	-5.429948	0.000669	6.687983	1.132975	-0.000134
1126	1.1194e+02	-2.4100	-5.555099	0.000628	6.282651	1.064310	-0.000126
1127	1.1204e+02	-2.4303	-5.647953	0.000466	4.661321	0.789649	-0.000093
1128	1.1214e+02	-2.4493	-5.809438	0.000811	8.106646	1.373303	-0.000162
1129	1.1224e+02	-2.4699	-5.954775	0.000730	7.295981	1.235973	-0.000146
1130	1.1234e+02	-2.4902	-6.051666	0.000486	4.863988	0.823982	-0.000097
1131	1.1244e+02	-2.5083	-6.197003	0.000730	7.295981	1.235973	-0.000146
1132	1.1253e+02	-2.5296	-6.314080	0.000588	5.877318	0.995645	-0.000118
1133	1.1263e+02	-2.5488	-6.382712	0.000345	3.445324	0.583654	-0.000069
1134	1.1273e+02	-2.5690	-6.544197	0.000811	8.106646	1.373303	-0.000162
1135	1.1283e+02	-2.5887	-6.677423	0.000669	6.687983	1.132975	-0.000134
1136	1.1293e+02	-2.6080	-6.786425	0.000547	5.471986	0.926980	-0.000110
1137	1.1303e+02	-2.6295	-6.939836	0.000770	7.701314	1.304638	-0.000154
1138	1.1313e+02	-2.6477	-7.048839	0.000547	5.471986	0.926980	-0.000110
1139	1.1323e+02	-2.6685	-7.169953	0.000608	6.079984	1.029977	-0.000122
1140	1.1333e+02	-2.6880	-7.295104	0.000628	6.282651	1.064310	-0.000126
1141	1.1343e+02	-2.7083	-7.460627	0.000831	8.309312	1.407636	-0.000166
1142	1.1353e+02	-2.7283	-7.509072	0.000243	2.431994	0.411991	-0.000049
1143	1.1363e+02	-2.7478	-7.682669	0.000871	8.714644	1.476301	-0.000174
1144	1.1373e+02	-2.7689	-7.815895	0.000669	6.687983	1.132975	-0.000134
1145	1.1383e+02	-2.7883	-7.912786	0.000486	4.863988	0.823982	-0.000097
1146	1.1393e+02	-2.8086	-8.033900	0.000608	6.079984	1.029977	-0.000122
1147	1.1403e+02	-2.8271	-8.163088	0.000649	6.485317	1.098642	-0.000130
1148	1.1413e+02	-2.8478	-8.292277	0.000649	6.485317	1.098642	-0.000130
1149	1.1423e+02	-2.8683	-8.445688	0.000770	7.701314	1.304638	-0.000154
1150	1.1433e+02	-2.8873	-8.530468	0.000426	4.255989	0.720984	-0.000085
1151	1.1442e+02	-2.9080	-8.683879	0.000770	7.701314	1.304638	-0.000154
1152	1.1452e+02	-2.9272	-8.800956	0.000588	5.877318	0.995645	-0.000118
1153	1.1462e+02	-2.9472	-8.909959	0.000547	5.471986	0.926980	-0.000110
1154	1.1472e+02	-2.9677	-9.014924	0.000527	5.269320	0.892647	-0.000105
1155	1.1482e+02	-2.9871	-9.148150	0.000669	6.687983	1.132975	-0.000134
1156	1.1492e+02	-3.0072	-9.289449	0.000709	7.093315	1.201640	-0.000142
1157	1.1502e+02	-3.0277	-9.430749	0.000709	7.093315	1.201640	-0.000142
1158	1.1512e+02	-3.0473	-9.559937	0.000649	6.485317	1.098642	-0.000130
1159	1.1522e+02	-3.0673	-9.656829	0.000486	4.863988	0.823982	-0.000097
1160	1.1532e+02	-3.0860	-9.786017	0.000649	6.485317	1.098642	-0.000130
1161	1.1542e+02	-3.1068	-9.903094	0.000588	5.877318	0.995645	-0.000118
1162	1.1552e+02	-3.1268	-10.028245	0.000628	6.282651	1.064310	-0.000126
1163	1.1562e+02	-3.1475	-10.185693	0.000790	7.903980	1.338970	-0.000158
1164	1.1572e+02	-3.1674	-10.294696	0.000547	5.471986	0.926980	-0.000110
1165	1.1582e+02	-3.1858	-10.391587	0.000486	4.863988	0.823982	-0.000097
1166	1.1592e+02	-3.2059	-10.549036	0.000790	7.903980	1.338970	-0.000158
1167	1.1602e+02	-3.2266	-10.658038	0.000547	5.471986	0.926980	-0.000110
1168	1.1612e+02	-3.2463	-10.799338	0.000709	7.093315	1.201640	-0.000142
1169	1.1622e+02	-3.2666	-10.896229	0.000486	4.863988	0.823982	-0.000097
1170	1.1632e+02	-3.2858	-11.041566	0.000730	7.295981	1.235973	-0.000146
1171	1.1642e+02	-3.3060	-11.154606	0.000567	5.674652	0.961312	-0.000114
1172	1.1651e+02	-3.3269	-11.247460	0.000466	4.661321	0.789649	-0.000093
1173	1.1661e+02	-3.3459	-11.384723	0.000689	6.890649	1.167308	-0.000138
1174	1.1671e+02	-3.3656	-11.501800	0.000588	5.877318	0.995645	-0.000118
1175	1.1681e+02	-3.3856	-11.647137	0.000730	7.295981	1.235973	-0.000146
1176	1.1691e+02	-3.4061	-11.768251	0.000608	6.079984	1.029977	-0.000122
1177	1.1701e+02	-3.4255	-11.885328	0.000588	5.877318	0.995645	-0.000118
1178	1.1711e+02	-3.4462	-12.006442	0.000608	6.079984	1.029977	-0.000122
1179	1.1721e+02	-3.4662	-12.151779	0.000730	7.295981	1.235973	-0.000146
1180	1.1731e+02	-3.4850	-12.244633	0.000466	4.661321	0.789649	-0.000093
1181	1.1741e+02	-3.5052	-12.377858	0.000669	6.687983	1.132975	-0.000134
1182	1.1751e+02	-3.5260	-12.511084	0.000669	6.687983	1.132975	-0.000134
1183	1.1761e+02	-3.5458	-12.603938	0.000466	4.661321	0.789649	-0.000093
1184	1.1771e+02	-3.5651	-12.737163	0.000669	6.687983	1.132975	-0.000134
1185	1.1781e+02	-3.5843	-12.838092	0.000507	5.066654	0.858314	-0.000101
1186	1.1791e+02	-3.6053	-12.939020	0.000507	5.066654	0.858314	-0.000101
1187	1.1801e+02	-3.6257	-13.080320	0.000709	7.093315	1.201640	-0.000142
1188	1.1811e+02	-3.6443	-13.185285	0.000527	5.269320	0.892647	-0.000105
1189	1.1821e+02	-3.6653	-13.330622	0.000730	7.295981	1.235973	-0.000146
1190	1.1831e+02	-3.6853	-13.463848	0.000669	6.687983	1.132975	-0.000134
1191	1.1841e+02	-3.7045	-13.576887	0.000567	5.674652	0.961312	-0.000114
1192	1.1850e+02	-3.7244	-13.738373	0.000811	8.106646	1.373303	-0.000162
1193	1.1860e+02	-3.7453	-13.807004	0.000345	3.445324	0.583654	-0.000069
1194	1.1870e+02	-3.7666	-13.968490	0.000811	8.106646	1.373303	-0.000162
1195	1.1880e+02	-3.7842	-14.073455	0.000527	5.269320	0.892647	-0.000105
1196	1.1890e+02	-3.8033	-14.226866	0.000770	7.701314	1.304638	-0.000154
1197	1.1900e+02	-3.8239	-14.335869	0.000547	5.471986	0.926980	-0.000110
1198	1.1910e+02	-3.8441	-14.461020	0.000628	6.282651	1.064310	-0.000126
1199	1.1920e+02	-3.8641	-14.549837	0.000446	4.458655	0.755317	-0.000089
1200	1.1930e+02	-3.8838	-14.687100	0.000689	6.890649	1.167308	-0.000138
1201	1.1940e+02	-3.9038	-14.808214	0.000608	6.079984	1.029977	-0.000122
1202	1.1950e+02	-3.9236	-14.929328	0.000608	6.079984	1.029977	-0.000122
1203	1.1960e+02	-3.9439	-15.026219	0.000486	4.863988	0.823982	-0.000097
1204	1.1970e+02	-3.9642	-15.131185	0.000527	5.269320	0.892647	-0.000105
1205	1.1980e+02	-3.9835	-15.292670	0.000811	8.106646	1.373303	-0.000162
1206	1.1990e+02	-4.0033	-15.405710	0.000567	5.674652	0.961312	-0.000114
1207	1.2000e+02	-4.0228	-15.522787	0.000588	5.877318	0.995645	-0.000118
1208	1.2010e+02	-4.0436	-15.615641	0.000466	4.661321	0.789649	-0.000093
1209	1.2020e+02	-4.0637	-15.765015	0.000750	7.498647	1.270305	-0.000150
1210	1.2030e+02	-4.0829	-15.837684	0.000365	3.647991	0.617986	-0.000073
1211	1.2039e+02	-4.1028	-15.978983	0.000709	7.093315	1.201640	-0.000142
1212	1.2049e+02	-4.1235	-16.104134	0.000628	6.282651	1.064310	-0.000126
1213	1.2059e+02	-4.1430	-16.205063	0.000507	5.066654	0.858314	-0.000101
1214	1.2069e+02	-4.1624	-16.326177	0.000608	6.079984	1.029977	-0.000122
1215	1.2079e+02	-4.1826	-16.475551	0.000750	7.498647	1.270305	-0.000150
1216	1.2089e+02	-4.2020	-16.540145	0.000324	3.242658	0.549321	-0.000065
1217	1.2099e+02	-4.2221	-16.669333	0.000649	6.485317	1.098642	-0.000130
1218	1.2109e+02	-4.2432	-16.786410	0.000588	5.877318	0.995645	-0.000118
1219	1.2119e+02	-4.2632	-16.875227	0.000446	4.458655	0.755317	-0.000089
1220	1.2129e+02	-4.2828	-17.012490	0.000689	6.890649	1.167308	-0.000138
1221	1.2139e+02	-4.3017	-17.178013	0.000831	8.309312	1.407636	-0.000166
1222	1.2149e+02	-4.3218	-17.238570	0.000304	3.039992	0.514989	-0.000061
1223	1.2159e+02	-4.3427	-17.339498	0.000507	5.066654	0.858314	-0.000101
1224	1.2169e+02	-4.3620	-17.456575	0.000588	5.877318	0.995645	-0.000118
1225	1.2179e+02	-4.3820	-17.573652	0.000588	5.877318	0.995645	-0.000118
1226	1.2189e+02	-4.4026	-17.666506	0.000466	4.661321	0.789649	-0.000093
1227	1.2199e+02	-4.4225	-17.811843	0.000730	7.295981	1.235973	-0.000146
1228	1.2209e+02	-4.4418	-17.928920	0.000588	5.877318	0.995645	-0.000118
1229	1.2219e+02	-4.4616	-18.025811	0.000486	4.863988	0.823982	-0.000097
1230	1.2229e+02	-4.4818	-18.134814	0.000547	5.471986	0.926980	-0.000110
1231	1.2239e+02	-4.5019	-18.268039	0.000669	6.687983	1.132975	-0.000134
1232	1.2248e+02	-4.5211	-18.348782	0.000405	4.053323	0.686651	-0.000081
1233	1.2258e+02	-4.5415	-18.453747	0.000527	5.269320	0.892647	-0.000105
1234	1.2268e+02	-4.5611	-18.562750	0.000547	5.471986	0.926980	-0.000110
1235	1.2278e+02	-4.5818	-18.724236	0.000811	8.106646	1.373303	-0.000162
1236	1.2288e+02	-4.6008	-18.776718	0.000263	2.634660	0.446323	-0.000053
1237	1.2298e+02	-4.6204	-18.913981	0.000689	6.890649	1.167308	-0.000138
1238	1.2308e+02	-4.6420	-18.998761	0.000426	4.255989	0.720984	-0.000085
1239	1.2318e+02	-4.6606	-19.136023	0.000689	6.890649	1.167308	-0.000138
1240	1.2328e+02	-4.6805	-19.249063	0.000567	5.674652	0.961312	-0.000114
1241	1.2338e+02	-4.7015	-19.358066	0.000547	5.471986	0.926980	-0.000110
1242	1.2348e+02	-4.7214	-19.446883	0.000446	4.458655	0.755317	-0.000089
1243	1.2358e+02	-4.7409	-19.576071	0.000649	6.485317	1.098642	-0.000130
1244	1.2368e+02	-4.7601	-19.668925	0.000466	4.661321	0.789649	-0.000093
1245	1.2378e+02	-4.7809	-19.765817	0.000486	4.863988	0.823982	-0.000097
1246	1.2388e+02	-4.8007	-19.842522	0.000385	3.850657	0.652319	-0.000077
1247	1.2398e+02	-4.8206	-19.983822	0.000709	7.093315	1.201640	-0.000142
1248	1.2408e+02	-4.8405	-20.096862	0.000567	5.674652	0.961312	-0.000114
1249	1.2418e+02	-4.8602	-20.226050	0.000649	6.485317	1.098642	-0.000130
1250	1.2428e+02	-4.8804	-20.318904	0.000466	4.661321	0.789649	-0.000093
1251	1.2438e+02	-4.8993	-20.435981	0.000588	5.877318	0.995645	-0.000118
1252	1.2447e+02	-4.9197	-20.508650	0.000365	3.647991	0.617986	-0.000073
1253	1.2457e+02	-4.9408	-20.633801	0.000628	6.282651	1.064310	-0.000126
1254	1.2467e+02	-4.9596	-20.738766	0.000527	5.269320	0.892647	-0.000105
1255	1.2477e+02	-4.9805	-20.851806	0.000567	5.674652	0.961312	-0.000114
1256	1.2487e+02	-5.0005	-20.968883	0.000588	5.877318	0.995645	-0.000118
1257	1.2497e+02	-5.0204	-21.021366	0.000263	2.634660	0.446323	-0.000053
1258	1.2507e+02	-5.0399	-21.182851	0.000811	8.106646	1.373303	-0.000162
1259	1.2517e+02	-5.0589	-21.267631	0.000426	4.255989	0.720984	-0.000085
1260	1.2527e+02	-5.0793	-21.388745	0.000608	6.079984	1.029977	-0.000122
1261	1.2537e+02	-5.0998	-21.505822	0.000588	5.877318	0.995645	-0.000118
1262	1.2547e+02	-5.1190	-21.614825	0.000547	5.471986	0.926980	-0.000110
1263	1.2557e+02	-5.1389	-21.699605	0.000426	4.255989	0.720984	-0.000085
1264	1.2567e+02	-5.1593	-21.780347	0.000405	4.053323	0.686651	-0.000081
1265	1.2577e+02	-5.1785	-21.925684	0.000730	7.295981	1.235973	-0.000146
1266	1.2587e+02	-5.1996	-22.042761	0.000588	5.877318	0.995645	-0.000118
1267	1.2597e+02	-5.2185	-22.107355	0.000324	3.242658	0.549321	-0.000065
1268	1.2607e+02	-5.2402	-22.240581	0.000669	6.687983	1.132975	-0.000134
1269	1.2617e+02	-5.2599	-22.357658	0.000588	5.877318	0.995645	-0.000118
1270	1.2627e+02	-5.2783	-22.462623	0.000527	5.269320	0.892647	-0.000105
1271	1.2636e+02	-5.2982	-22.511069	0.000243	2.431994	0.411991	-0.000049
1272	1.2646e+02	-5.3187	-22.660443	0.000750	7.498647	1.270305	-0.000150
1273	1.2656e+02	-5.3381	-22.737148	0.000385	3.850657	0.652319	-0.000077
1274	1.2666e+02	-5.3580	-22.842114	0.000527	5.269320	0.892647	-0.000105
1275	1.2676e+02	-5.3778	-22.910745	0.000345	3.445324	0.583654	-0.000069
1276	1.2686e+02	-5.3983	-23.039934	0.000649	6.485317	1.098642	-0.000130
1277	1.2696e+02	-5.4179	-23.144899	0.000527	5.269320	0.892647	-0.000105
1278	1.2706e+02	-5.4376	-23.225642	0.000405	4.053323	0.686651	-0.000081
1279	1.2716e+02	-5.4576	-23.362905	0.000689	6.890649	1.167308	-0.000138
1280	1.2726e+02	-5.4784	-23.427499	0.000324	3.242658	0.549321	-0.000065
1281	1.2736e+02	-5.4974	-23.576873	0.000750	7.498647	1.270305	-0.000150
1282	1.2746e+02	-5.5179	-23.673764	0.000486	4.863988	0.823982	-0.000097
1283	1.2756e+02	-5.5377	-23.746432	0.000365	3.647991	0.617986	-0.000073
1284	1.2766e+02	-5.5583	-23.831212	0.000426	4.255989	0.720984	-0.000085
1285	1.2776e+02	-5.5777	-23.976549	0.000730	7.295981	1.235973	-0.000146
1286	1.2786e+02	-5.5980	-24.045180	0.000345	3.445324	0.583654	-0.000069
1287	1.2796e+02	-5.6177	-24.125923	0.000405	4.053323	0.686651	-0.000081
1288	1.2806e+02	-5.6378	-24.218777	0.000466	4.661321	0.789649	-0.000093
1289	1.2816e+02	-5.6573	-24.295483	0.000385	3.850657	0.652319	-0.000077
1290	1.2826e+02	-5.6778	-24.477154	0.000912	9.119977	1.544966	-0.000183
1291	1.2835e+02	-5.6963	-24.533674	0.000284	2.837326	0.480656	-0.000057
1292	1.2845e+02	-5.7175	-24.642677	0.000547	5.471986	0.926980	-0.000110
1293	1.2855e+02	-5.7370	-24.788013	0.000730	7.295981	1.235973	-0.000146
1294	1.2865e+02	-5.7568	-24.864719	0.000385	3.850657	0.652319	-0.000077
1295	1.2875e+02	-5.7751	-25.001982	0.000689	6.890649	1.167308	-0.000138
1296	1.2885e+02	-5.7965	-25.115021	0.000567	5.674652	0.961312	-0.000114
1297	1.2895e+02	-5.8167	-25.183653	0.000345	3.445324	0.583654	-0.000069
1298	1.2905e+02	-5.8368	-25.333027	0.000750	7.498647	1.270305	-0.000150
1299	1.2915e+02	-5.8568	-25.409732	0.000385	3.850657	0.652319	-0.000077
1300	1.2925e+02	-5.8769	-25.534884	0.000628	6.282651	1.064310	-0.000126
1301	1.2935e+02	-5.8957	-25.631775	0.000486	4.863988	0.823982	-0.000097
1302	1.2945e+02	-5.9166	-25.704443	0.000365	3.647991	0.617986	-0.000073
1303	1.2955e+02	-5.9360	-25.865929	0.000811	8.106646	1.373303	-0.000162
1304	1.2965e+02	-5.9561	-25.950709	0.000426	4.255989	0.720984	-0.000085
1305	1.2975e+02	-5.9764	-26.023377	0.000365	3.647991	0.617986	-0.000073
1306	1.2985e+02	-5.9957	-26.152565	0.000649	6.485317	1.098642	-0.000130
1307	1.2995e+02	-6.0162	-26.253494	0.000507	5.066654	0.858314	-0.000101
1308	1.3005e+02	-6.0355	-26.350385	0.000486	4.863988	0.823982	-0.000097
1309	1.3015e+02	-6.0547	-26.459388	0.000547	5.471986	0.926980	-0.000110
1310	1.3025e+02	-6.0759	-26.592613	0.000669	6.687983	1.132975	-0.000134
1311	1.3034e+02	-6.0960	-26.685467	0.000466	4.661321	0.789649	-0.000093
1312	1.3044e+02	-6.1163	-26.790433	0.000527	5.269320	0.892647	-0.000105
1313	1.3054e+02	-6.1356	-26.855027	0.000324	3.242658	0.549321	-0.000065
1314	1.3064e+02	-6.1554	-26.988252	0.000669	6.687983	1.132975	-0.000134
1315	1.3074e+02	-6.1749	-27.125515	0.000689	6.890649	1.167308	-0.000138
1316	1.3084e+02	-6.1952	-27.186072	0.000304	3.039992	0.514989	-0.000061
1317	1.3094e+02	-6.2151	-27.291038	0.000527	5.269320	0.892647	-0.000105
1318	1.3104e+02	-6.2360	-27.436374	0.000730	7.295981	1.235973	-0.000146
1319	1.3114e+02	-6.2546	-27.529229	0.000466	4.661321	0.789649	-0.000093
1320	1.3124e+02	-6.2747	-27.618046	0.000446	4.458655	0.755317	-0.000089
1321	1.3134e+02	-6.2950	-27.759345	0.000709	7.093315	1.201640	-0.000142
1322	1.3144e+02	-6.3144	-27.827977	0.000345	3.445324	0.583654	-0.000069
1323	1.3154e+02	-6.3342	-27.928905	0.000507	5.066654	0.858314	-0.000101
1324	1.3164e+02	-6.3547	-28.062131	0.000669	6.687983	1.132975	-0.000134
1325	1.3174e+02	-6.3742	-28.175170	0.000567	5.674652	0.961312	-0.000114
1326	1.3184e+02	-6.3957	-28.300322	0.000628	6.282651	1.064310	-0.000126
1327	1.3194e+02	-6.4151	-28.397213	0.000486	4.863988	0.823982	-0.000097
1328	1.3204e+02	-6.4340	-28.494104	0.000486	4.863988	0.823982	-0.000097
1329	1.3214e+02	-6.4546	-28.639441	0.000730	7.295981	1.235973	-0.000146
1330	1.3224e+02	-6.4745	-28.724221	0.000426	4.255989	0.720984	-0.000085
1331	1.3234e+02	-6.4941	-28.825149	0.000507	5.066654	0.858314	-0.000101
1332	1.3243e+02	-6.5137	-28.954338	0.000649	6.485317	1.098642	-0.000130
1333	1.3253e+02	-6.5344	-29.059303	0.000527	5.269320	0.892647	-0.000105
1334	1.3263e+02	-6.5544	-29.148120	0.000446	4.458655	0.755317	-0.000089
1335	1.3273e+02	-6.5744	-29.281346	0.000669	6.687983	1.132975	-0.000134
1336	1.3283e+02	-6.5945	-29.390348	0.000547	5.471986	0.926980	-0.000110
1337	1.3293e+02	-6.6141	-29.495314	0.000527	5.269320	0.892647	-0.000105
1338	1.3303e+02	-6.6342	-29.620465	0.000628	6.282651	1.064310	-0.000126
1339	1.3313e+02	-6.6522	-29.701208	0.000405	4.053323	0.686651	-0.000081
1340	1.3323e+02	-6.6733	-29.810210	0.000547	5.471986	0.926980	-0.000110
1341	1.3333e+02	-6.6933	-29.943436	0.000669	6.687983	1.132975	-0.000134
1342	1.3343e+02	-6.7136	-30.008030	0.000324	3.242658	0.549321	-0.000065
1343	1.3353e+02	-6.7339	-30.137218	0.000649	6.485317	1.098642	-0.000130
1344	1.3363e+02	-6.7544	-30.262369	0.000628	6.282651	1.064310	-0.000126
1345	1.3373e+02	-6.7734	-30.387521	0.000628	6.282651	1.064310	-0.000126
1346	1.3383e+02	-6.7926	-30.488449	0.000507	5.066654	0.858314	-0.000101
1347	1.3393e+02	-6.8134	-30.561118	0.000365	3.647991	0.617986	-0.000073
1348	1.3403e+02	-6.8326	-30.710492	0.000750	7.498647	1.270305	-0.000150
1349	1.3413e+02	-6.8529	-30.815457	0.000527	5.269320	0.892647	-0.000105
1350	1.3423e+02	-6.8732	-30.952720	0.000689	6.890649	1.167308	-0.000138
1351	1.3432e+02	-6.8933	-31.033462	0.000405	4.053323	0.686651	-0.000081
1352	1.3442e+02	-6.9121	-31.150539	0.000588	5.877318	0.995645	-0.000118
1353	1.3452e+02	-6.9333	-31.279728	0.000649	6.485317	1.098642	-0.000130
1354	1.3462e+02	-6.9521	-31.392767	0.000567	5.674652	0.961312	-0.000114
1355	1.3472e+02	-6.9727	-31.497733	0.000527	5.269320	0.892647	-0.000105
1356	1.3482e+02	-6.9926	-31.643070	0.000730	7.295981	1.235973	-0.000146
1357	1.3492e+02	-7.0117	-31.748035	0.000527	5.269320	0.892647	-0.000105
1358	1.3502e+02	-7.0328	-31.853001	0.000527	5.269320	0.892647	-0.000105
1359	1.3512e+02	-7.0520	-31.945855	0.000466	4.661321	0.789649	-0.000093
1360	1.3522e+02	-7.0706	-32.099266	0.000770	7.701314	1.304638	-0.000154
1361	1.3532e+02	-7.0915	-32.220380	0.000608	6.079984	1.029977	-0.000122
1362	1.3542e+02	-7.1144	-32.329383	0.000547	5.471986	0.926980	-0.000110
1363	1.3552e+02	-7.1322	-32.458571	0.000649	6.485317	1.098642	-0.000130
1364	1.3562e+02	-7.1521	-32.583723	0.000628	6.282651	1.064310	-0.000126
1365	1.3572e+02	-7.1716	-32.712911	0.000649	6.485317	1.098642	-0.000130
1366	1.3582e+02	-7.1927	-32.801728	0.000446	4.458655	0.755317	-0.000089
1367	1.3592e+02	-7.2119	-32.894582	0.000466	4.661321	0.789649	-0.000093
1368	1.3602e+02	-7.2308	-33.080290	0.000932	9.322643	1.579298	-0.000187
1369	1.3612e+02	-7.2514	-33.189293	0.000547	5.471986	0.926980	-0.000110
1370	1.3622e+02	-7.2711	-33.298296	0.000547	5.471986	0.926980	-0.000110
1371	1.3631e+02	-7.2911	-33.431521	0.000669	6.687983	1.132975	-0.000134
1372	1.3641e+02	-7.3114	-33.572821	0.000709	7.093315	1.201640	-0.000142
1373	1.3651e+02	-7.3318	-33.661638	0.000446	4.458655	0.755317	-0.000089
1374	1.3661e+02	-7.3511	-33.790826	0.000649	6.485317	1.098642	-0.000130
1375	1.3671e+02	-7.3703	-33.924052	0.000669	6.687983	1.132975	-0.000134
1376	1.3681e+02	-7.3915	-34.033054	0.000547	5.471986	0.926980	-0.000110
1377	1.3691e+02	-7.4162	-34.109760	0.000385	3.850657	0.652319	-0.000077
1378	1.3701e+02	-7.4304	-34.251060	0.000709	7.093315	1.201640	-0.000142
1379	1.3711e+02	-7.4509	-34.356025	0.000527	5.269320	0.892647	-0.000105
1380	1.3721e+02	-7.4707	-34.477139	0.000608	6.079984	1.029977	-0.000122
1381	1.3731e+02	-7.4908	-34.622476	0.000730	7.295981	1.235973	-0.000146
1382	1.3741e+02	-7.5100	-34.743590	0.000608	6.079984	1.029977	-0.000122
1383	1.3751e+02	-7.5298	-34.840481	0.000486	4.863988	0.823982	-0.000097
1384	1.3761e+02	-7.5500	-34.993893	0.000770	7.701314	1.304638	-0.000154
1385	1.3771e+02	-7.5708	-35.094821	0.000507	5.066654	0.858314	-0.000101
1386	1.3781e+02	-7.5896	-35.215935	0.000608	6.079984	1.029977	-0.000122
1387	1.3791e+02	-7.6085	-35.341086	0.000628	6.282651	1.064310	-0.000126
1388	1.3801e+02	-7.6310	-35.466237	0.000628	6.282651	1.064310	-0.000126
1389	1.3811e+02	-7.6489	-35.583314	0.000588	5.877318	0.995645	-0.000118
1390	1.3821e+02	-7.6686	-35.720577	0.000689	6.890649	1.167308	-0.000138
1391	1.3831e+02	-7.6891	-35.829580	0.000547	5.471986	0.926980	-0.000110
1392	1.3840e+02	-7.7097	-35.982991	0.000770	7.701314	1.304638	-0.000154
1393	1.3850e+02	-7.7301	-36.096031	0.000567	5.674652	0.961312	-0.000114
1394	1.3860e+02	-7.7486	-36.184848	0.000446	4.458655	0.755317	-0.000089
1395	1.3870e+02	-7.7695	-36.366519	0.000912	9.119977	1.544966	-0.000183
1396	1.3880e+02	-7.7890	-36.431113	0.000324	3.242658	0.549321	-0.000065
1397	1.3890e+02	-7.8096	-36.584524	0.000770	7.701314	1.304638	-0.000154
1398	1.3900e+02	-7.8299	-36.697564	0.000567	5.674652	0.961312	-0.000114
1399	1.3910e+02	-7.8494	-36.863086	0.000831	8.309312	1.407636	-0.000166
1400	1.3920e+02	-7.8679	-36.980163	0.000588	5.877318	0.995645	-0.000118
1401	1.3930e+02	-7.8888	-37.097240	0.000588	5.877318	0.995645	-0.000118
1402	1.3940e+02	-7.9083	-37.210280	0.000567	5.674652	0.961312	-0.000114
1403	1.3950e+02	-7.9279	-37.375803	0.000831	8.309312	1.407636	-0.000166
1404	1.3960e+02	-7.9492	-37.492880	0.000588	5.877318	0.995645	-0.000118
1405	1.3970e+02	-7.9675	-37.650328	0.000790	7.903980	1.338970	-0.000158
1406	1.3980e+02	-7.9872	-37.763368	0.000567	5.674652	0.961312	-0.000114
1407	1.3990e+02	-8.0069	-37.840073	0.000385	3.850657	0.652319	-0.000077
1408	1.4000e+02	-8.0287	-37.973299	0.000669	6.687983	1.132975	-0.000134
1409	1.4010e+02	-8.0478	-38.146896	0.000871	8.714644	1.476301	-0.000174
1410	1.4020e+02	-8.0688	-38.259935	0.000567	5.674652	0.961312	-0.000114
1411	1.4029e+02	-8.0881	-38.397198	0.000689	6.890649	1.167308	-0.000138
1412	1.4039e+02	-8.1087	-38.522349	0.000628	6.282651	1.064310	-0.000126
1413	1.4049e+02	-8.1282	-38.655575	0.000669	6.687983	1.132975	-0.000134
1414	1.4059e+02	-8.1477	-38.796874	0.000709	7.093315	1.201640	-0.000142
1415	1.4069e+02	-8.1684	-38.942211	0.000730	7.295981	1.235973	-0.000146
1416	1.4079e+02	-8.1876	-39.031028	0.000446	4.458655	0.755317	-0.000089
1417	1.4089e+02	-8.2068	-39.160217	0.000649	6.485317	1.098642	-0.000130
1418	1.4099e+02	-8.2263	-39.317665	0.000790	7.903980	1.338970	-0.000158
1419	1.4109e+02	-8.2474	-39.479150	0.000811	8.106646	1.373303	-0.000162
1420	1.4119e+02	-8.2668	-39.616413	0.000689	6.890649	1.167308	-0.000138
1421	1.4129e+02	-8.2864	-39.737527	0.000608	6.079984	1.029977	-0.000122
1422	1.4139e+02	-8.3069	-39.874790	0.000689	6.890649	1.167308	-0.000138
1423	1.4149e+02	-8.3258	-40.028201	0.000770	7.701314	1.304638	-0.000154
1424	1.4159e+02	-8.3472	-40.149315	0.000608	6.079984	1.029977	-0.000122
1425	1.4169e+02	-8.3659	-40.335023	0.000932	9.322643	1.579298	-0.000187
1426	1.4179e+02	-8.3859	-40.452100	0.000588	5.877318	0.995645	-0.000118
1427	1.4189e+02	-8.4059	-40.577251	0.000628	6.282651	1.064310	-0.000126
1428	1.4199e+02	-8.4267	-40.722588	0.000730	7.295981	1.235973	-0.000146
1429	1.4209e+02	-8.4448	-40.863888	0.000709	7.093315	1.201640	-0.000142
1430	1.4219e+02	-8.4668	-40.976928	0.000567	5.674652	0.961312	-0.000114
1431	1.4228e+02	-8.4859	-41.154562	0.000892	8.917310	1.510633	-0.000179
1432	1.4238e+02	-8.5068	-41.299899	0.000730	7.295981	1.235973	-0.000146
1433	1.4248e+02	-8.5266	-41.437161	0.000689	6.890649	1.167308	-0.000138
1434	1.4258e+02	-8.5452	-41.602684	0.000831	8.309312	1.407636	-0.000166
1435	1.4268e+02	-8.5664	-41.739946	0.000689	6.890649	1.167308	-0.000138
1436	1.4278e+02	-8.5863	-41.877209	0.000689	6.890649	1.167308	-0.000138
1437	1.4288e+02	-8.6076	-42.038694	0.000811	8.106646	1.373303	-0.000162
1438	1.4298e+02	-8.6255	-42.151734	0.000567	5.674652	0.961312	-0.000114
1439	1.4308e+02	-8.6456	-42.321294	0.000851	8.511978	1.441968	-0.000170
1440	1.4318e+02	-8.6652	-42.470668	0.000750	7.498647	1.270305	-0.000150
1441	1.4328e+02	-8.6841	-42.620042	0.000750	7.498647	1.270305	-0.000150
1442	1.4338e+02	-8.7056	-42.789602	0.000851	8.511978	1.441968	-0.000170
1443	1.4348e+02	-8.7247	-42.934939	0.000730	7.295981	1.235973	-0.000146
1444	1.4358e+02	-8.7453	-43.076238	0.000709	7.093315	1.201640	-0.000142
1445	1.4368e+02	-8.7646	-43.249835	0.000871	8.714644	1.476301	-0.000174
1446	1.4378e+02	-8.7860	-43.366912	0.000588	5.877318	0.995645	-0.000118
1447	1.4388e+02	-8.8049	-43.568769	0.001013	10.133307	1.716629	-0.000203
1448	1.4398e+02	-8.8255	-43.710069	0.000709	7.093315	1.201640	-0.000142
1449	1.4408e+02	-8.8446	-43.859443	0.000750	7.498647	1.270305	-0.000150
1450	1.4418e+02	-8.8641	-44.012854	0.000770	7.701314	1.304638	-0.000154
1451	1.4428e+02	-8.8840	-44.150116	0.000689	6.890649	1.167308	-0.000138
1452	1.4437e+02	-8.9044	-44.307565	0.000790	7.903980	1.338970	-0.000158
1453	1.4447e+02	-8.9235	-44.477124	0.000851	8.511978	1.441968	-0.000170
1454	1.4457e+02	-8.9426	-44.658796	0.000912	9.119977	1.544966	-0.000183
1455	1.4467e+02	-8.9651	-44.796058	0.000689	6.890649	1.167308	-0.000138
1456	1.4477e+02	-8.9842	-44.917172	0.000608	6.079984	1.029977	-0.000122
1457	1.4487e+02	-9.0042	-45.090769	0.000871	8.714644	1.476301	-0.000174
1458	1.4497e+02	-9.0242	-45.312812	0.001115	11.146638	1.888292	-0.000223
1459	1.4507e+02	-9.0442	-45.470260	0.000790	7.903980	1.338970	-0.000158
1460	1.4517e+02	-9.0636	-45.595411	0.000628	6.282651	1.064310	-0.000126
1461	1.4527e+02	-9.0836	-45.793231	0.000993	9.930641	1.682296	-0.000199
1462	1.4537e+02	-9.1045	-45.999125	0.001034	10.335973	1.750961	-0.000207
1463	1.4547e+02	-9.1235	-46.168684	0.000851	8.511978	1.441968	-0.000170
1464	1.4557e+02	-9.1443	-46.301910	0.000669	6.687983	1.132975	-0.000134
1465	1.4567e+02	-9.1629	-46.515878	0.001074	10.741306	1.819626	-0.000215
1466	1.4577e+02	-9.1837	-46.709660	0.000973	9.727975	1.647964	-0.000195
1467	1.4587e+02	-9.2036	-46.854997	0.000730	7.295981	1.235973	-0.000146
1468	1.4597e+02	-9.2232	-47.064928	0.001054	10.538640	1.785294	-0.000211
1469	1.4607e+02	-9.2432	-47.226414	0.000811	8.106646	1.373303	-0.000162
1470	1.4617e+02	-9.2630	-47.391936	0.000831	8.309312	1.407636	-0.000166
1471	1.4626e+02	-9.2831	-47.609942	0.001094	10.943972	1.853959	-0.000219
1472	1.4636e+02	-9.3040	-47.751242	0.000709	7.093315	1.201640	-0.000142
1473	1.4646e+02	-9.3187	-47.932913	0.000912	9.119977	1.544966	-0.000183
1474	1.4656e+02	-9.3433	-48.134769	0.001013	10.133307	1.716629	-0.000203
1475	1.4666e+02	-9.3622	-48.336626	0.001013	10.133307	1.716629	-0.000203
1476	1.4676e+02	-9.3829	-48.518297	0.000912	9.119977	1.544966	-0.000183
1477	1.4686e+02	-9.4019	-48.732265	0.001074	10.741306	1.819626	-0.000215
1478	1.4696e+02	-9.4226	-48.905862	0.000871	8.714644	1.476301	-0.000174
1479	1.4706e+02	-9.4421	-49.119831	0.001074	10.741306	1.819626	-0.000215
1480	1.4716e+02	-9.4624	-49.313613	0.000973	9.727975	1.647964	-0.000195
1481	1.4726e+02	-9.4821	-49.507396	0.000973	9.727975	1.647964	-0.000195
1482	1.4736e+02	-9.5018	-49.672918	0.000831	8.309312	1.407636	-0.000166
1483	1.4746e+02	-9.5212	-49.898998	0.001135	11.349304	1.922624	-0.000227
1484	1.4756e+02	-9.5419	-50.076632	0.000892	8.917310	1.510633	-0.000179
1485	1.4766e+02	-9.5612	-50.310786	0.001175	11.754637	1.991289	-0.000235
1486	1.4776e+02	-9.5831	-50.484382	0.000871	8.714644	1.476301	-0.000174
1487	1.4786e+02	-9.6021	-50.710462	0.001135	11.349304	1.922624	-0.000227
1488	1.4796e+02	-9.6210	-50.900207	0.000953	9.525309	1.613631	-0.000191
1489	1.4806e+02	-9.6405	-51.126287	0.001135	11.349304	1.922624	-0.000227
1490	1.4816e+02	-9.6609	-51.295847	0.000851	8.511978	1.441968	-0.000170
1491	1.4825e+02	-9.6814	-51.534038	0.001196	11.957303	2.025622	-0.000239
1492	1.4835e+02	-9.7014	-51.723783	0.000953	9.525309	1.613631	-0.000191
1493	1.4845e+02	-9.7211	-51.970048	0.001236	12.362635	2.094287	-0.000248
1494	1.4855e+02	-9.7415	-52.179979	0.001054	10.538640	1.785294	-0.000211
1495	1.4865e+02	-9.7617	-52.373762	0.000973	9.727975	1.647964	-0.000195
1496	1.4875e+02	-9.7809	-52.591767	0.001094	10.943972	1.853959	-0.000219
1497	1.4885e+02	-9.8009	-52.866292	0.001378	13.781298	2.334615	-0.000276
1498	1.4895e+02	-9.8206	-53.056038	0.000953	9.525309	1.613631	-0.000191
1499	1.4905e+02	-9.8405	-53.270006	0.001074	10.741306	1.819626	-0.000215
1500	1.4915e+02	-9.8611	-53.475900	0.001034	10.335973	1.750961	-0.000207
1501	1.4925e+02	-9.8799	-53.726202	0.001257	12.565301	2.128620	-0.000252
1502	1.4935e+02	-9.9005	-53.988616	0.001317	13.173300	2.231617	-0.000264
1503	1.4945e+02	-9.9196	-54.206622	0.001094	10.943972	1.853959	-0.000219
1504	1.4955e+02	-9.9403	-54.404441	0.000993	9.930641	1.682296	-0.000199
1505	1.4965e+02	-9.9614	-54.642632	0.001196	11.957303	2.025622	-0.000239
1506	1.4975e+02	-9.9800	-54.868712	0.001135	11.349304	1.922624	-0.000227
1507	1.4985e+02	-9.9991	-55.094791	0.001135	11.349304	1.922624	-0.000227
1508	1.4995e+02	-9.9817	-55.240128	-0.000730	-7.295981	-1.235973	-0.000146
1509	1.5005e+02	-9.9604	-55.312797	-0.000365	-3.647991	-0.617986	-0.000073
1510	1.5015e+02	-9.9402	-55.425837	-0.000567	-5.674652	-0.961312	-0.000114
1511	1.5025e+02	-9.9205	-55.486394	-0.000304	-3.039992	-0.514989	-0.000061
1512	1.5034e+02	-9.9002	-55.563099	-0.000385	-3.850657	-0.652319	-0.000077
1513	1.5044e+02	-9.8804	-55.647879	-0.000426	-4.255989	-0.720984	-0.000085
1514	1.5054e+02	-9.8608	-55.708436	-0.000304	-3.039992	-0.514989	-0.000061
1515	1.5064e+02	-9.8412	-55.748807	-0.000203	-2.026661	-0.343326	-0.000041
1516	1.5074e+02	-9.8210	-55.841662	-0.000466	-4.661321	-0.789649	-0.000093
1517	1.5084e+02	-9.8009	-55.845699	-0.000020	-0.202666	-0.034333	-0.000004
1518	1.5094e+02	-9.7806	-55.918367	-0.000365	-3.647991	-0.617986	-0.000073
1519	1.5104e+02	-9.7614	-55.966813	-0.000243	-2.431994	-0.411991	-0.000049
1520	1.5114e+02	-9.7418	-56.015258	-0.000243	-2.431994	-0.411991	-0.000049
1521	1.5124e+02	-9.7217	-56.047555	-0.000162	-1.621329	-0.274661	-0.000032
1522	1.5134e+02	-9.7017	-56.091964	-0.000223	-2.229328	-0.377658	-0.000045
1523	1.5144e+02	-9.6823	-56.136372	-0.000223	-2.229328	-0.377658	-0.000045
1524	1.5154e+02	-9.6620	-56.136372	0.000000	0.000000	0.000000	0.000000
1525	1.5164e+02	-9.6417	-56.196929	-0.000304	-3.039992	-0.514989	-0.000061
1526	1.5174e+02	-9.6225	-56.261524	-0.000324	-3.242658	-0.549321	-0.000065
1527	1.5184e+02	-9.6011	-56.249412	0.000061	0.607998	0.102998	0.000012
1528	1.5194e+02	-9.5825	-56.257487	-0.000041	-0.405332	-0.068665	-0.000008
1529	1.5204e+02	-9.5621	-56.322081	-0.000324	-3.242658	-0.549321	-0.000065
1530	1.5214e+02	-9.5419	-56.273635	0.000243	2.431994	0.411991	0.000049
1531	1.5224e+02	-9.5221	-56.326118	-0.000263	-2.634660	-0.446323	-0.000053
1532	1.5233e+02	-9.5015	-56.330155	-0.000020	-0.202666	-0.034333	-0.000004
1533	1.5243e+02	-9.4820	-56.386675	-0.000284	-2.837326	-0.480656	-0.000057
1534	1.5253e+02	-9.4617	-56.354378	0.000162	1.621329	0.274661	0.000032
1535	1.5263e+02	-9.4420	-56.390712	-0.000182	-1.823995	-0.308993	-0.000037
1536	1.5273e+02	-9.4235	-56.362452	0.000142	1.418663	0.240328	0.000028
1537	1.5283e+02	-9.4025	-56.418972	-0.000284	-2.837326	-0.480656	-0.000057
1538	1.5293e+02	-9.3829	-56.418972	0.000000	0.000000	0.000000	0.000000
1539	1.5303e+02	-9.3623	-56.358415	0.000304	3.039992	0.514989	0.000061
1540	1.5313e+02	-9.3427	-56.410898	-0.000263	-2.634660	-0.446323	-0.000053
1541	1.5323e+02	-9.3231	-56.439158	-0.000142	-1.418663	-0.240328	-0.000028
1542	1.5333e+02	-9.3024	-56.378601	0.000304	3.039992	0.514989	0.000061
1543	1.5343e+02	-9.2833	-56.431083	-0.000263	-2.634660	-0.446323	-0.000053
1544	1.5353e+02	-9.2633	-56.378601	0.000263	2.634660	0.446323	0.000053
1545	1.5363e+02	-9.2427	-56.354378	0.000122	1.215997	0.205995	0.000024
1546	1.5373e+02	-9.2236	-56.374563	-0.000101	-1.013331	-0.171663	-0.000020
1547	1.5383e+02	-9.2036	-56.350341	0.000122	1.215997	0.205995	0.000024
1548	1.5393e+02	-9.1833	-56.309969	0.000203	2.026661	0.343326	0.000041
1549	1.5403e+02	-9.1635	-56.305932	0.000020	0.202666	0.034333	0.000004
1550	1.5413e+02	-9.1443	-56.293821	0.000061	0.607998	0.102998	0.000012
1551	1.5422e+02	-9.1232	-56.277672	0.000081	0.810665	0.137330	0.000016
1552	1.5432e+02	-9.1040	-56.253449	0.000122	1.215997	0.205995	0.000024
1553	1.5442e+02	-9.0843	-56.249412	0.000020	0.202666	0.034333	0.000004
1554	1.5452e+02	-9.0631	-56.192892	0.000284	2.837326	0.480656	0.000057
1555	1.5462e+02	-9.0436	-56.217115	-0.000122	-1.215997	-0.205995	-0.000024
1556	1.5472e+02	-9.0230	-56.209041	0.000041	0.405332	0.068665	0.000008
1557	1.5482e+02	-9.0042	-56.156558	0.000263	2.634660	0.446323	0.000053
1558	1.5492e+02	-8.9832	-56.120224	0.000182	1.823995	0.308993	0.000037
1559	1.5502e+02	-8.9644	-56.067741	0.000263	2.634660	0.446323	0.000053
1560	1.5512e+02	-8.9438	-56.079853	-0.000061	-0.607998	-0.102998	-0.000012
1561	1.5522e+02	-8.9238	-56.039481	0.000203	2.026661	0.343326	0.000041
1562	1.5532e+02	-8.9041	-56.023333	0.000081	0.810665	0.137330	0.000016
1563	1.5542e+02	-8.8847	-55.938553	0.000426	4.255989	0.720984	0.000085
1564	1.5552e+02	-8.8647	-55.902219	0.000182	1.823995	0.308993	0.000037
1565	1.5562e+02	-8.8446	-55.873959	0.000142	1.418663	0.240328	0.000028
1566	1.5572e+02	-8.8239	-55.865884	0.000041	0.405332	0.068665	0.000008
1567	1.5582e+02	-8.8037	-55.849736	0.000081	0.810665	0.137330	0.000016
1568	1.5592e+02	-8.7856	-55.841662	0.000041	0.405332	0.068665	0.000008
1569	1.5602e+02	-8.7653	-55.809364	0.000162	1.621329	0.274661	0.000032
1570	1.5612e+02	-8.7451	-55.760919	0.000243	2.431994	0.411991	0.000049
1571	1.5622e+02	-8.7256	-55.708436	0.000263	2.634660	0.446323	0.000053
1572	1.5631e+02	-8.7048	-55.631730	0.000385	3.850657	0.652319	0.000077
1573	1.5641e+02	-8.6853	-55.611545	0.000101	1.013331	0.171663	0.000020
1574	1.5651e+02	-8.6658	-55.579248	0.000162	1.621329	0.274661	0.000032
1575	1.5661e+02	-8.6447	-55.550988	0.000142	1.418663	0.240328	0.000028
1576	1.5671e+02	-8.6263	-55.498505	0.000263	2.634660	0.446323	0.000053
1577	1.5681e+02	-8.6052	-55.441985	0.000284	2.837326	0.480656	0.000057
1578	1.5691e+02	-8.5867	-55.417762	0.000122	1.215997	0.205995	0.000024
1579	1.5701e+02	-8.5659	-55.365280	0.000263	2.634660	0.446323	0.000053
1580	1.5711e+02	-8.5458	-55.320871	0.000223	2.229328	0.377658	0.000045
1581	1.5721e+02	-8.5260	-55.268388	0.000263	2.634660	0.446323	0.000053
1582	1.5731e+02	-8.5059	-55.236091	0.000162	1.621329	0.274661	0.000032
1583	1.5741e+02	-8.4859	-55.167460	0.000345	3.445324	0.583654	0.000069
1584	1.5751e+02	-8.4668	-55.167460	0.000000	0.000000	0.000000	0.000000
1585	1.5761e+02	-8.4457	-55.139200	0.000142	1.418663	0.240328	0.000028
1586	1.5771e+02	-8.4265	-55.074606	0.000324	3.242658	0.549321	0.000065
1587	1.5781e+02	-8.4070	-55.005974	0.000345	3.445324	0.583654	0.000069
1588	1.5791e+02	-8.3868	-54.937343	0.000345	3.445324	0.583654	0.000069
1589	1.5801e+02	-8.3667	-54.917157	0.000101	1.013331	0.171663	0.000020
1590	1.5811e+02	-8.3467	-54.868712	0.000243	2.431994	0.411991	0.000049
1591	1.5821e+02	-8.3269	-54.824303	0.000223	2.229328	0.377658	0.000045
1592	1.5830e+02	-8.3066	-54.731449	0.000466	4.661321	0.789649	0.000093
1593	1.5840e+02	-8.2867	-54.727412	0.000020	0.202666	0.034333	0.000004
1594	1.5850e+02	-8.2671	-54.642632	0.000426	4.255989	0.720984	0.000085
1595	1.5860e+02	-8.2477	-54.602261	0.000203	2.026661	0.343326	0.000041
1596	1.5870e+02	-8.2269	-54.541704	0.000304	3.039992	0.514989	0.000061
1597	1.5880e+02	-8.2080	-54.501332	0.000203	2.026661	0.343326	0.000041
1598	1.5890e+02	-8.1880	-54.448850	0.000263	2.634660	0.446323	0.000053
1599	1.5900e+02	-8.1671	-54.404441	0.000223	2.229328	0.377658	0.000045
1600	1.5910e+02	-8.1476	-54.355996	0.000243	2.431994	0.411991	0.000049
1601	1.5920e+02	-8.1268	-54.271216	0.000426	4.255989	0.720984	0.000085
1602	1.5930e+02	-8.1082	-54.238919	0.000162	1.621329	0.274661	0.000032
1603	1.5940e+02	-8.0882	-54.174324	0.000324	3.242658	0.549321	0.000065
1604	1.5950e+02	-8.0682	-54.113767	0.000304	3.039992	0.514989	0.000061
1605	1.5960e+02	-8.0481	-54.065322	0.000243	2.431994	0.411991	0.000049
1606	1.5970e+02	-8.0292	-54.004765	0.000304	3.039992	0.514989	0.000061
1607	1.5980e+02	-8.0087	-53.956319	0.000243	2.431994	0.411991	0.000049
1608	1.5990e+02	-7.9873	-53.891725	0.000324	3.242658	0.549321	0.000065
1609	1.6000e+02	-7.9681	-53.798871	0.000466	4.661321	0.789649	0.000093
1610	1.6010e+02	-7.9489	-53.786759	0.000061	0.607998	0.102998	0.000012
1611	1.6019e+02	-7.9277	-53.710054	0.000385	3.850657	0.652319	0.000077
1612	1.6029e+02	-7.9077	-53.673720	0.000182	1.823995	0.308993	0.000037
1613	1.6039e+02	-7.8882	-53.576828	0.000486	4.863988	0.823982	0.000097
1614	1.6049e+02	-7.8690	-53.524346	0.000263	2.634660	0.446323	0.000053
1615	1.6059e+02	-7.8482	-53.435529	0.000446	4.458655	0.755317	0.000089
1616	1.6069e+02	-7.8281	-53.407269	0.000142	1.418663	0.240328	0.000028
1617	1.6079e+02	-7.8096	-53.294229	0.000567	5.674652	0.961312	0.000114
1618	1.6089e+02	-7.7885	-53.245783	0.000243	2.431994	0.411991	0.000049
1619	1.6099e+02	-7.7695	-53.197338	0.000243	2.431994	0.411991	0.000049
1620	1.6109e+02	-7.7493	-53.148892	0.000243	2.431994	0.411991	0.000049
1621	1.6119e+02	-7.7292	-53.043926	0.000527	5.269320	0.892647	0.000105
1622	1.6129e+02	-7.7094	-53.015667	0.000142	1.418663	0.240328	0.000028
1623	1.6139e+02	-7.6892	-52.947035	0.000345	3.445324	0.583654	0.000069
1624	1.6149e+02	-7.6695	-52.886478	0.000304	3.039992	0.514989	0.000061
1625	1.6159e+02	-7.6495	-52.813810	0.000365	3.647991	0.617986	0.000073
1626	1.6169e+02	-7.6294	-52.757290	0.000284	2.837326	0.480656	0.000057
1627	1.6179e+02	-7.6089	-52.716918	0.000203	2.026661	0.343326	0.000041
1628	1.6189e+02	-7.5891	-52.620027	0.000486	4.863988	0.823982	0.000097
1629	1.6199e+02	-7.5696	-52.535247	0.000426	4.255989	0.720984	0.000085
1630	1.6209e+02	-7.5504	-52.519099	0.000081	0.810665	0.137330	0.000016
1631	1.6219e+02	-7.5299	-52.434319	0.000426	4.255989	0.720984	0.000085
1632	1.6228e+02	-7.5104	-52.365688	0.000345	3.445324	0.583654	0.000069
1633	1.6238e+02	-7.4901	-52.353576	0.000061	0.607998	0.102998	0.000012
1634	1.6248e+02	-7.4699	-52.240536	0.000567	5.674652	0.961312	0.000114
1635	1.6258e+02	-7.4521	-52.208239	0.000162	1.621329	0.274661	0.000032
1636	1.6268e+02	-7.4298	-52.139608	0.000345	3.445324	0.583654	0.000069
1637	1.6278e+02	-7.4103	-52.083088	0.000284	2.837326	0.480656	0.000057
1638	1.6288e+02	-7.3914	-52.038680	0.000223	2.229328	0.377658	0.000045
1639	1.6298e+02	-7.3705	-51.921603	0.000588	5.877318	0.995645	0.000118
1640	1.6308e+02	-7.3508	-51.897380	0.000122	1.215997	0.205995	0.000024
1641	1.6318e+02	-7.3312	-51.824711	0.000365	3.647991	0.617986	0.000073
1642	1.6328e+02	-7.3106	-51.743969	0.000405	4.053323	0.686651	0.000081
1643	1.6338e+02	-7.2917	-51.691486	0.000263	2.634660	0.446323	0.000053
1644	1.6348e+02	-7.2711	-51.594595	0.000486	4.863988	0.823982	0.000097
1645	1.6358e+02	-7.2516	-51.570372	0.000122	1.215997	0.205995	0.000024
1646	1.6368e+02	-7.2316	-51.477518	0.000466	4.661321	0.789649	0.000093
1647	1.6378e+02	-7.2125	-51.425035	0.000263	2.634660	0.446323	0.000053
1648	1.6388e+02	-7.1922	-51.352367	0.000365	3.647991	0.617986	0.000073
1649	1.6398e+02	-7.1710	-51.295847	0.000284	2.837326	0.480656	0.000057
1650	1.6408e+02	-7.1518	-51.215104	0.000405	4.053323	0.686651	0.000081
1651	1.6418e+02	-7.1318	-51.146473	0.000345	3.445324	0.583654	0.000069
1652	1.6427e+02	-7.1121	-51.057656	0.000446	4.458655	0.755317	0.000089
1653	1.6437e+02	-7.0901	-51.045544	0.000061	0.607998	0.102998	0.000012
1654	1.6447e+02	-7.0726	-50.980950	0.000324	3.242658	0.549321	0.000065
1655	1.6457e+02	-7.0520	-50.896170	0.000426	4.255989	0.720984	0.000085
1656	1.6467e+02	-7.0319	-50.807353	0.000446	4.458655	0.755317	0.000089
1657	1.6477e+02	-7.0111	-50.742759	0.000324	3.242658	0.549321	0.000065
1658	1.6487e+02	-6.9925	-50.678165	0.000324	3.242658	0.549321	0.000065
1659	1.6497e+02	-6.9725	-50.633756	0.000223	2.229328	0.377658	0.000045
1660	1.6507e+02	-6.9521	-50.589348	0.000223	2.229328	0.377658	0.000045
1661	1.6517e+02	-6.9331	-50.504568	0.000426	4.255989	0.720984	0.000085
1662	1.6527e+02	-6.9128	-50.456122	0.000243	2.431994	0.411991	0.000049
1663	1.6537e+02	-6.8925	-50.355194	0.000507	5.066654	0.858314	0.000101
1664	1.6547e+02	-6.8719	-50.294637	0.000304	3.039992	0.514989	0.000061
1665	1.6557e+02	-6.8529	-50.242154	0.000263	2.634660	0.446323	0.000053
1666	1.6567e+02	-6.8333	-50.157374	0.000426	4.255989	0.720984	0.000085
1667	1.6577e+02	-6.8132	-50.100855	0.000284	2.837326	0.480656	0.000057
1668	1.6587e+02	-6.7937	-49.983778	0.000588	5.877318	0.995645	0.000118
1669	1.6597e+02	-6.7722	-49.967629	0.000081	0.810665	0.137330	0.000016
1670	1.6607e+02	-6.7534	-49.886886	0.000405	4.053323	0.686651	0.000081
1671	1.6616e+02	-6.7334	-49.802106	0.000426	4.255989	0.720984	0.000085
1672	1.6626e+02	-6.7133	-49.741549	0.000304	3.039992	0.514989	0.000061
1673	1.6636e+02	-6.6943	-49.668881	0.000365	3.647991	0.617986	0.000073
1674	1.6646e+02	-6.6736	-49.596213	0.000365	3.647991	0.617986	0.000073
1675	1.6656e+02	-6.6530	-49.535656	0.000304	3.039992	0.514989	0.000061
1676	1.6666e+02	-6.6336	-49.479136	0.000284	2.837326	0.480656	0.000057
1677	1.6676e+02	-6.6130	-49.390319	0.000446	4.458655	0.755317	0.000089
1678	1.6686e+02	-6.5939	-49.321687	0.000345	3.445324	0.583654	0.000069
1679	1.6696e+02	-6.5735	-49.257093	0.000324	3.242658	0.549321	0.000065
1680	1.6706e+02	-6.5540	-49.184425	0.000365	3.647991	0.617986	0.000073
1681	1.6716e+02	-6.5340	-49.103682	0.000405	4.053323	0.686651	0.000081
1682	1.6726e+02	-6.5140	-49.043125	0.000304	3.039992	0.514989	0.000061
1683	1.6736e+02	-6.4935	-48.909899	0.000669	6.687983	1.132975	0.000134
1684	1.6746e+02	-6.4746	-48.853380	0.000284	2.837326	0.480656	0.000057
1685	1.6756e+02	-6.4539	-48.796860	0.000284	2.837326	0.480656	0.000057
1686	1.6766e+02	-6.4336	-48.728228	0.000345	3.445324	0.583654	0.000069
1687	1.6776e+02	-6.4145	-48.651523	0.000385	3.850657	0.652319	0.000077
1688	1.6786e+02	-6.3953	-48.562706	0.000446	4.458655	0.755317	0.000089
1689	1.6796e+02	-6.3748	-48.546557	0.000081	0.810665	0.137330	0.000016
1690	1.6806e+02	-6.3538	-48.473889	0.000365	3.647991	0.617986	0.000073
1691	1.6816e+02	-6.3342	-48.381035	0.000466	4.661321	0.789649	0.000093
1692	1.6825e+02	-6.3141	-48.292218	0.000446	4.458655	0.755317	0.000089
1693	1.6835e+02	-6.2949	-48.239735	0.000263	2.634660	0.446323	0.000053
1694	1.6845e+02	-6.2749	-48.215512	0.000122	1.215997	0.205995	0.000024
1695	1.6855e+02	-6.2549	-48.122658	0.000466	4.661321	0.789649	0.000093
1696	1.6865e+02	-6.2375	-48.049990	0.000365	3.647991	0.617986	0.000073
1697	1.6875e+02	-6.2155	-47.969247	0.000405	4.053323	0.686651	0.000081
1698	1.6885e+02	-6.1960	-47.916764	0.000263	2.634660	0.446323	0.000053
1699	1.6895e+02	-6.1774	-47.811799	0.000527	5.269320	0.892647	0.000105
1700	1.6905e+02	-6.1557	-47.747204	0.000324	3.242658	0.549321	0.000065
1701	1.6915e+02	-6.1354	-47.694722	0.000263	2.634660	0.446323	0.000053
1702	1.6925e+02	-6.1148	-47.601867	0.000466	4.661321	0.789649	0.000093
1703	1.6935e+02	-6.0955	-47.561496	0.000203	2.026661	0.343326	0.000041
1704	1.6945e+02	-6.0748	-47.468642	0.000466	4.661321	0.789649	0.000093
1705	1.6955e+02	-6.0565	-47.408085	0.000304	3.039992	0.514989	0.000061
1706	1.6965e+02	-6.0359	-47.319268	0.000446	4.458655	0.755317	0.000089
1707	1.6975e+02	-6.0156	-47.238525	0.000405	4.053323	0.686651	0.000081
1708	1.6985e+02	-5.9967	-47.182005	0.000284	2.837326	0.480656	0.000057
1709	1.6995e+02	-5.9764	-47.093188	0.000446	4.458655	0.755317	0.000089
1710	1.7005e+02	-5.9563	-47.008409	0.000426	4.255989	0.720984	0.000085
1711	1.7015e+02	-5.9360	-46.907480	0.000507	5.066654	0.858314	0.000101
1712	1.7024e+02	-5.9164	-46.867109	0.000203	2.026661	0.343326	0.000041
1713	1.7034e+02	-5.8963	-46.770218	0.000486	4.863988	0.823982	0.000097
1714	1.7044e+02	-5.8763	-46.713698	0.000284	2.837326	0.480656	0.000057
1715	1.7054e+02	-5.8569	-46.608732	0.000527	5.269320	0.892647	0.000105
1716	1.7064e+02	-5.8374	-46.540101	0.000345	3.445324	0.583654	0.000069
1717	1.7074e+02	-5.8179	-46.471469	0.000345	3.445324	0.583654	0.000069
1718	1.7084e+02	-5.7965	-46.370541	0.000507	5.066654	0.858314	0.000101
1719	1.7094e+02	-5.7768	-46.314021	0.000284	2.837326	0.480656	0.000057
1720	1.7104e+02	-5.7562	-46.221167	0.000466	4.661321	0.789649	0.000093
1721	1.7114e+02	-5.7370	-46.196944	0.000122	1.215997	0.205995	0.000024
1722	1.7124e+02	-5.7179	-46.043533	0.000770	7.701314	1.304638	0.000154
1723	1.7134e+02	-5.6995	-45.991050	0.000263	2.634660	0.446323	0.000053
1724	1.7144e+02	-5.6769	-45.902233	0.000446	4.458655	0.755317	0.000089
1725	1.7154e+02	-5.6570	-45.849751	0.000263	2.634660	0.446323	0.000053
1726	1.7164e+02	-5.6380	-45.720562	0.000649	6.485317	1.098642	0.000130
1727	1.7174e+02	-5.6178	-45.684228	0.000182	1.823995	0.308993	0.000037
1728	1.7184e+02	-5.5974	-45.575225	0.000547	5.471986	0.926980	0.000110
1729	1.7194e+02	-5.5777	-45.470260	0.000527	5.269320	0.892647	0.000105
1730	1.7204e+02	-5.5579	-45.421814	0.000243	2.431994	0.411991	0.000049
1731	1.7213e+02	-5.5373	-45.324923	0.000486	4.863988	0.823982	0.000097
1732	1.7223e+02	-5.5179	-45.223995	0.000507	5.066654	0.858314	0.000101
1733	1.7233e+02	-5.4979	-45.159400	0.000324	3.242658	0.549321	0.000065
1734	1.7243e+02	-5.4788	-45.102880	0.000284	2.837326	0.480656	0.000057
1735	1.7253e+02	-5.4582	-44.973692	0.000649	6.485317	1.098642	0.000130
1736	1.7263e+02	-5.4376	-44.896987	0.000385	3.850657	0.652319	0.000077
1737	1.7273e+02	-5.4187	-44.804132	0.000466	4.661321	0.789649	0.000093
1738	1.7283e+02	-5.3989	-44.747613	0.000284	2.837326	0.480656	0.000057
1739	1.7293e+02	-5.3778	-44.650721	0.000486	4.863988	0.823982	0.000097
1740	1.7303e+02	-5.3581	-44.541719	0.000547	5.471986	0.926980	0.000110
1741	1.7313e+02	-5.3387	-44.469050	0.000365	3.647991	0.617986	0.000073
1742	1.7323e+02	-5.3181	-44.368122	0.000507	5.066654	0.858314	0.000101
1743	1.7333e+02	-5.2983	-44.267193	0.000507	5.066654	0.858314	0.000101
1744	1.7343e+02	-5.2779	-44.182414	0.000426	4.255989	0.720984	0.000085
1745	1.7353e+02	-5.2586	-44.133968	0.000243	2.431994	0.411991	0.000049
1746	1.7363e+02	-5.2386	-44.057262	0.000385	3.850657	0.652319	0.000077
1747	1.7373e+02	-5.2187	-43.948260	0.000547	5.471986	0.926980	0.000110
1748	1.7383e+02	-5.1985	-43.895777	0.000263	2.634660	0.446323	0.000053
1749	1.7393e+02	-5.1788	-43.774663	0.000608	6.079984	1.029977	0.000122
1750	1.7403e+02	-5.1582	-43.681809	0.000466	4.661321	0.789649	0.000093
1751	1.7413e+02	-5.1395	-43.584917	0.000486	4.863988	0.823982	0.000097
1752	1.7422e+02	-5.1193	-43.508212	0.000385	3.850657	0.652319	0.000077
1753	1.7432e+02	-5.0994	-43.395172	0.000567	5.674652	0.961312	0.000114
1754	1.7442e+02	-5.0800	-43.350764	0.000223	2.229328	0.377658	0.000045
1755	1.7452e+02	-5.0603	-43.261947	0.000446	4.458655	0.755317	0.000089
1756	1.7462e+02	-5.0393	-43.148907	0.000567	5.674652	0.961312	0.000114
1757	1.7472e+02	-5.0204	-43.068164	0.000405	4.053323	0.686651	0.000081
1758	1.7482e+02	-5.0000	-42.971273	0.000486	4.863988	0.823982	0.000097
1759	1.7492e+02	-4.9796	-42.898604	0.000365	3.647991	0.617986	0.000073
1760	1.7502e+02	-4.9596	-42.809787	0.000446	4.458655	0.755317	0.000089
1761	1.7512e+02	-4.9396	-42.680599	0.000649	6.485317	1.098642	0.000130
1762	1.7522e+02	-4.9210	-42.607931	0.000365	3.647991	0.617986	0.000073
1763	1.7532e+02	-4.9008	-42.527188	0.000405	4.053323	0.686651	0.000081
1764	1.7542e+02	-4.8808	-42.422222	0.000527	5.269320	0.892647	0.000105
1765	1.7552e+02	-4.8602	-42.329368	0.000466	4.661321	0.789649	0.000093
1766	1.7562e+02	-4.8406	-42.264774	0.000324	3.242658	0.549321	0.000065
1767	1.7572e+02	-4.8205	-42.159809	0.000527	5.269320	0.892647	0.000105
1768	1.7582e+02	-4.8006	-42.083103	0.000385	3.850657	0.652319	0.000077
1769	1.7592e+02	-4.7803	-41.970063	0.000567	5.674652	0.961312	0.000114
1770	1.7602e+02	-4.7610	-41.852986	0.000588	5.877318	0.995645	0.000118
1771	1.7612e+02	-4.7406	-41.784355	0.000345	3.445324	0.583654	0.000069
1772	1.7621e+02	-4.7211	-41.711686	0.000365	3.647991	0.617986	0.000073
1773	1.7631e+02	-4.7007	-41.610758	0.000507	5.066654	0.858314	0.000101
1774	1.7641e+02	-4.6814	-41.497718	0.000567	5.674652	0.961312	0.000114
1775	1.7651e+02	-4.6604	-41.388716	0.000547	5.471986	0.926980	0.000110
1776	1.7661e+02	-4.6416	-41.291824	0.000486	4.863988	0.823982	0.000097
1777	1.7671e+02	-4.6213	-41.215119	0.000385	3.850657	0.652319	0.000077
1778	1.7681e+02	-4.6005	-41.098042	0.000588	5.877318	0.995645	0.000118
1779	1.7691e+02	-4.5813	-41.005188	0.000466	4.661321	0.789649	0.000093
1780	1.7701e+02	-4.5623	-40.940594	0.000324	3.242658	0.549321	0.000065
1781	1.7711e+02	-4.5413	-40.823517	0.000588	5.877318	0.995645	0.000118
1782	1.7721e+02	-4.5221	-40.722588	0.000507	5.066654	0.858314	0.000101
1783	1.7731e+02	-4.5013	-40.662031	0.000304	3.039992	0.514989	0.000061
1784	1.7741e+02	-4.4818	-40.520731	0.000709	7.093315	1.201640	0.000142
1785	1.7751e+02	-4.4611	-40.468249	0.000263	2.634660	0.446323	0.000053
1786	1.7761e+02	-4.4418	-40.343097	0.000628	6.282651	1.064310	0.000126
1787	1.7771e+02	-4.4225	-40.250243	0.000466	4.661321	0.789649	0.000093
1788	1.7781e+02	-4.4019	-40.161426	0.000446	4.458655	0.755317	0.000089
1789	1.7791e+02	-4.3820	-40.044349	0.000588	5.877318	0.995645	0.000118
1790	1.7801e+02	-4.3622	-39.931310	0.000567	5.674652	0.961312	0.000114
1791	1.7810e+02	-4.3418	-39.794047	0.000689	6.890649	1.167308	0.000138
1792	1.7820e+02	-4.3216	-39.757713	0.000182	1.823995	0.308993	0.000037
1793	1.7830e+02	-4.3021	-39.628524	0.000649	6.485317	1.098642	0.000130
1794	1.7840e+02	-4.2834	-39.551819	0.000385	3.850657	0.652319	0.000077
1795	1.7850e+02	-4.2624	-39.434742	0.000588	5.877318	0.995645	0.000118
1796	1.7860e+02	-4.2426	-39.382259	0.000263	2.634660	0.446323	0.000053
1797	1.7870e+02	-4.2224	-39.228848	0.000770	7.701314	1.304638	0.000154
1798	1.7880e+02	-4.2023	-39.135994	0.000466	4.661321	0.789649	0.000093
1799	1.7890e+02	-4.1815	-39.063325	0.000365	3.647991	0.617986	0.000073
1800	1.7900e+02	-4.1618	-38.970471	0.000466	4.661321	0.789649	0.000093
1801	1.7910e+02	-4.1434	-38.869543	0.000507	5.066654	0.858314	0.000101
1802	1.7920e+02	-4.1232	-38.780726	0.000446	4.458655	0.755317	0.000089
1803	1.7930e+02	-4.1018	-38.675760	0.000527	5.269320	0.892647	0.000105
1804	1.7940e+02	-4.0826	-38.566758	0.000547	5.471986	0.926980	0.000110
1805	1.7950e+02	-4.0628	-38.453718	0.000567	5.674652	0.961312	0.000114
1806	1.7960e+02	-4.0432	-38.413347	0.000203	2.026661	0.343326	0.000041
1807	1.7970e+02	-4.0224	-38.300307	0.000567	5.674652	0.961312	0.000114
1808	1.7980e+02	-4.0031	-38.199378	0.000507	5.066654	0.858314	0.000101
1809	1.7990e+02	-3.9828	-38.086339	0.000567	5.674652	0.961312	0.000114
1810	1.8000e+02	-3.9639	-37.989447	0.000486	4.863988	0.823982	0.000097
1811	1.8009e+02	-3.9429	-37.920816	0.000345	3.445324	0.583654	0.000069
1812	1.8019e+02	-3.9243	-37.771442	0.000750	7.498647	1.270305	0.000150
1813	1.8029e+02	-3.9041	-37.694736	0.000385	3.850657	0.652319	0.000077
1814	1.8039e+02	-3.8832	-37.597845	0.000486	4.863988	0.823982	0.000097
1815	1.8049e+02	-3.8634	-37.492880	0.000527	5.269320	0.892647	0.000105
1816	1.8059e+02	-3.8437	-37.416174	0.000385	3.850657	0.652319	0.000077
1817	1.8069e+02	-3.8245	-37.295060	0.000608	6.079984	1.029977	0.000122
1818	1.8079e+02	-3.8031	-37.194132	0.000507	5.066654	0.858314	0.000101
1819	1.8089e+02	-3.7842	-37.105315	0.000446	4.458655	0.755317	0.000089
1820	1.8099e+02	-3.7650	-37.004386	0.000507	5.066654	0.858314	0.000101
1821	1.8109e+02	-3.7444	-36.871161	0.000669	6.687983	1.132975	0.000134
1822	1.8119e+02	-3.7248	-36.790418	0.000405	4.053323	0.686651	0.000081
1823	1.8129e+02	-3.7048	-36.697564	0.000466	4.661321	0.789649	0.000093
1824	1.8139e+02	-3.6845	-36.632970	0.000324	3.242658	0.549321	0.000065
1825	1.8149e+02	-3.6652	-36.495707	0.000689	6.890649	1.167308	0.000138
1826	1.8159e+02	-3.6456	-36.419001	0.000385	3.850657	0.652319	0.000077
1827	1.8169e+02	-3.6249	-36.297887	0.000608	6.079984	1.029977	0.000122
1828	1.8179e+02	-3.6060	-36.217145	0.000405	4.053323	0.686651	0.000081
1829	1.8189e+02	-3.5841	-36.079882	0.000689	6.890649	1.167308	0.000138
1830	1.8199e+02	-3.5641	-35.999139	0.000405	4.053323	0.686651	0.000081
1831	1.8209e+02	-3.5458	-35.902248	0.000486	4.863988	0.823982	0.000097
1832	1.8218e+02	-3.5251	-35.793245	0.000547	5.471986	0.926980	0.000110
1833	1.8228e+02	-3.5052	-35.692317	0.000507	5.066654	0.858314	0.000101
1834	1.8238e+02	-3.4859	-35.567166	0.000628	6.282651	1.064310	0.000126
1835	1.8248e+02	-3.4660	-35.538906	0.000142	1.418663	0.240328	0.000028
1836	1.8258e+02	-3.4460	-35.381458	0.000790	7.903980	1.338970	0.000158
1837	1.8268e+02	-3.4258	-35.296678	0.000426	4.255989	0.720984	0.000085
1838	1.8278e+02	-3.4059	-35.203824	0.000466	4.661321	0.789649	0.000093
1839	1.8288e+02	-3.3859	-35.086747	0.000588	5.877318	0.995645	0.000118
1840	1.8298e+02	-3.3664	-34.957558	0.000649	6.485317	1.098642	0.000130
1841	1.8308e+02	-3.3453	-34.860667	0.000486	4.863988	0.823982	0.000097
1842	1.8318e+02	-3.3263	-34.759739	0.000507	5.066654	0.858314	0.000101
1843	1.8328e+02	-3.3063	-34.666885	0.000466	4.661321	0.789649	0.000093
1844	1.8338e+02	-3.2864	-34.553845	0.000567	5.674652	0.961312	0.000114
1845	1.8348e+02	-3.2657	-34.444842	0.000547	5.471986	0.926980	0.000110
1846	1.8358e+02	-3.2466	-34.372174	0.000365	3.647991	0.617986	0.000073
1847	1.8368e+02	-3.2275	-34.259134	0.000567	5.674652	0.961312	0.000114
1848	1.8378e+02	-3.2061	-34.158205	0.000507	5.066654	0.858314	0.000101
1849	1.8388e+02	-3.1863	-34.029017	0.000649	6.485317	1.098642	0.000130
1850	1.8398e+02	-3.1667	-33.936163	0.000466	4.661321	0.789649	0.000093
1851	1.8407e+02	-3.1468	-33.835235	0.000507	5.066654	0.858314	0.000101
1852	1.8417e+02	-3.1262	-33.697972	0.000689	6.890649	1.167308	0.000138
1853	1.8427e+02	-3.1060	-33.593006	0.000527	5.269320	0.892647	0.000105
1854	1.8437e+02	-3.0869	-33.484004	0.000547	5.471986	0.926980	0.000110
1855	1.8447e+02	-3.0672	-33.427484	0.000284	2.837326	0.480656	0.000057
1856	1.8457e+02	-3.0478	-33.294258	0.000669	6.687983	1.132975	0.000134
1857	1.8467e+02	-3.0269	-33.161033	0.000669	6.687983	1.132975	0.000134
1858	1.8477e+02	-3.0072	-33.076253	0.000426	4.255989	0.720984	0.000085
1859	1.8487e+02	-2.9868	-33.003585	0.000365	3.647991	0.617986	0.000073
1860	1.8497e+02	-2.9672	-32.874396	0.000649	6.485317	1.098642	0.000130
1861	1.8507e+02	-2.9468	-32.785579	0.000446	4.458655	0.755317	0.000089
1862	1.8517e+02	-2.9272	-32.656391	0.000649	6.485317	1.098642	0.000130
1863	1.8527e+02	-2.9076	-32.547388	0.000547	5.471986	0.926980	0.000110
1864	1.8537e+02	-2.8870	-32.458571	0.000446	4.458655	0.755317	0.000089
1865	1.8547e+02	-2.8674	-32.369754	0.000446	4.458655	0.755317	0.000089
1866	1.8557e+02	-2.8476	-32.244603	0.000628	6.282651	1.064310	0.000126
1867	1.8567e+02	-2.8273	-32.180009	0.000324	3.242658	0.549321	0.000065
1868	1.8577e+02	-2.8073	-32.010449	0.000851	8.511978	1.441968	0.000170
1869	1.8587e+02	-2.7881	-31.933744	0.000385	3.850657	0.652319	0.000077
1870	1.8597e+02	-2.7686	-31.804555	0.000649	6.485317	1.098642	0.000130
1871	1.8606e+02	-2.7449	-31.772258	0.000162	1.621329	0.274661	0.000032
1872	1.8616e+02	-2.7280	-31.598661	0.000871	8.714644	1.476301	0.000174
1873	1.8626e+02	-2.7074	-31.521956	0.000385	3.850657	0.652319	0.000077
1874	1.8636e+02	-2.6875	-31.392767	0.000649	6.485317	1.098642	0.000130
1875	1.8646e+02	-2.6683	-31.307988	0.000426	4.255989	0.720984	0.000085
1876	1.8656e+02	-2.6482	-31.162651	0.000730	7.295981	1.235973	0.000146
1877	1.8666e+02	-2.6282	-31.077871	0.000426	4.255989	0.720984	0.000085
1878	1.8676e+02	-2.6082	-30.964831	0.000567	5.674652	0.961312	0.000114
1879	1.8686e+02	-2.5882	-30.863903	0.000507	5.066654	0.858314	0.000101
1880	1.8696e+02	-2.5687	-30.718566	0.000730	7.295981	1.235973	0.000146
1881	1.8706e+02	-2.5489	-30.633786	0.000426	4.255989	0.720984	0.000085
1882	1.8716e+02	-2.5285	-30.500561	0.000669	6.687983	1.132975	0.000134
1883	1.8726e+02	-2.5089	-30.379446	0.000608	6.079984	1.029977	0.000122
1884	1.8736e+02	-2.4893	-30.290629	0.000446	4.458655	0.755317	0.000089
1885	1.8746e+02	-2.4692	-30.169515	0.000608	6.079984	1.029977	0.000122
1886	1.8756e+02	-2.4501	-30.084736	0.000426	4.255989	0.720984	0.000085
1887	1.8766e+02	-2.4290	-29.931324	0.000770	7.701314	1.304638	0.000154
1888	1.8776e+02	-2.4088	-29.826359	0.000527	5.269320	0.892647	0.000105
1889	1.8786e+02	-2.3906	-29.725430	0.000507	5.066654	0.858314	0.000101
1890	1.8796e+02	-2.3697	-29.588168	0.000689	6.890649	1.167308	0.000138
1891	1.8806e+02	-2.3504	-29.507425	0.000405	4.053323	0.686651	0.000081
1892	1.8815e+02	-2.3296	-29.370162	0.000689	6.890649	1.167308	0.000138
1893	1.8825e+02	-2.3096	-29.249048	0.000608	6.079984	1.029977	0.000122
1894	1.8835e+02	-2.2910	-29.144083	0.000527	5.269320	0.892647	0.000105
1895	1.8845e+02	-2.2699	-29.031043	0.000567	5.674652	0.961312	0.000114
1896	1.8855e+02	-2.2514	-28.897818	0.000669	6.687983	1.132975	0.000134
1897	1.8865e+02	-2.2302	-28.768629	0.000649	6.485317	1.098642	0.000130
1898	1.8875e+02	-2.2101	-28.619255	0.000750	7.498647	1.270305	0.000150
1899	1.8885e+02	-2.1910	-28.534475	0.000426	4.255989	0.720984	0.000085
1900	1.8895e+02	-2.1706	-28.445658	0.000446	4.458655	0.755317	0.000089
1901	1.8905e+02	-2.1507	-28.324544	0.000608	6.079984	1.029977	0.000122
1902	1.8915e+02	-2.1303	-28.203430	0.000608	6.079984	1.029977	0.000122
1903	1.8925e+02	-2.1109	-28.058093	0.000730	7.295981	1.235973	0.000146
1904	1.8935e+02	-2.0910	-27.961202	0.000486	4.863988	0.823982	0.000097
1905	1.8945e+02	-2.0702	-27.827977	0.000669	6.687983	1.132975	0.000134
1906	1.8955e+02	-2.0512	-27.710900	0.000588	5.877318	0.995645	0.000118
1907	1.8965e+02	-2.0309	-27.593823	0.000588	5.877318	0.995645	0.000118
1908	1.8975e+02	-2.0116	-27.476746	0.000588	5.877318	0.995645	0.000118
1909	1.8985e+02	-1.9908	-27.363706	0.000567	5.674652	0.961312	0.000114
1910	1.8995e+02	-1.9711	-27.198183	0.000831	8.309312	1.407636	0.000166
1911	1.9004e+02	-1.9519	-27.101292	0.000486	4.863988	0.823982	0.000097
1912	1.9014e+02	-1.9317	-26.968067	0.000669	6.687983	1.132975	0.000134
1913	1.9024e+02	-1.9122	-26.867138	0.000507	5.066654	0.858314	0.000101
1914	1.9034e+02	-1.8922	-26.741987	0.000628	6.282651	1.064310	0.000126
1915	1.9044e+02	-1.8712	-26.600687	0.000709	7.093315	1.201640	0.000142
1916	1.9054e+02	-1.8514	-26.451313	0.000750	7.498647	1.270305	0.000150
1917	1.9064e+02	-1.8323	-26.370571	0.000405	4.053323	0.686651	0.000081
1918	1.9074e+02	-1.8125	-26.281754	0.000446	4.458655	0.755317	0.000089
1919	1.9084e+02	-1.7917	-26.104120	0.000892	8.917310	1.510633	0.000179
1920	1.9094e+02	-1.7722	-25.991080	0.000567	5.674652	0.961312	0.000114
1921	1.9104e+02	-1.7516	-25.857854	0.000669	6.687983	1.132975	0.000134
1922	1.9114e+02	-1.7323	-25.793260	0.000324	3.242658	0.549321	0.000065
1923	1.9124e+02	-1.7131	-25.660035	0.000669	6.687983	1.132975	0.000134
1924	1.9134e+02	-1.6930	-25.498549	0.000811	8.106646	1.373303	0.000162
1925	1.9144e+02	-1.6716	-25.405695	0.000466	4.661321	0.789649	0.000093
1926	1.9154e+02	-1.6525	-25.264395	0.000709	7.093315	1.201640	0.000142
1927	1.9164e+02	-1.6324	-25.179616	0.000426	4.255989	0.720984	0.000085
1928	1.9174e+02	-1.6127	-24.969685	0.001054	10.538640	1.785294	0.000211
1929	1.9184e+02	-1.5919	-24.880868	0.000446	4.458655	0.755317	0.000089
1930	1.9194e+02	-1.5732	-24.767828	0.000567	5.674652	0.961312	0.000114
1931	1.9203e+02	-1.5527	-24.578082	0.000953	9.525309	1.613631	0.000191
1932	1.9213e+02	-1.5320	-24.489265	0.000446	4.458655	0.755317	0.000089
1933	1.9223e+02	-1.5132	-24.408523	0.000405	4.053323	0.686651	0.000081
1934	1.9233e+02	-1.4922	-24.255112	0.000770	7.701314	1.304638	0.000154
1935	1.9243e+02	-1.4723	-24.121886	0.000669	6.687983	1.132975	0.000134
1936	1.9253e+02	-1.4532	-23.996735	0.000628	6.282651	1.064310	0.000126
1937	1.9263e+02	-1.4330	-23.867546	0.000649	6.485317	1.098642	0.000130
1938	1.9273e+02	-1.4133	-23.762581	0.000527	5.269320	0.892647	0.000105
1939	1.9283e+02	-1.3937	-23.613207	0.000750	7.498647	1.270305	0.000150
1940	1.9293e+02	-1.3733	-23.492093	0.000608	6.079984	1.029977	0.000122
1941	1.9303e+02	-1.3533	-23.366942	0.000628	6.282651	1.064310	0.000126
1942	1.9313e+02	-1.3332	-23.185271	0.000912	9.119977	1.544966	0.000183
1943	1.9323e+02	-1.3136	-23.116639	0.000345	3.445324	0.583654	0.000069
1944	1.9333e+02	-1.2934	-22.947080	0.000851	8.511978	1.441968	0.000170
1945	1.9343e+02	-1.2753	-22.825965	0.000608	6.079984	1.029977	0.000122
1946	1.9353e+02	-1.2538	-22.652369	0.000871	8.714644	1.476301	0.000174
1947	1.9363e+02	-1.2340	-22.624109	0.000142	1.418663	0.240328	0.000028
1948	1.9373e+02	-1.2148	-22.430326	0.000973	9.727975	1.647964	0.000195
1949	1.9383e+02	-1.1929	-22.313249	0.000588	5.877318	0.995645	0.000118
1950	1.9393e+02	-1.1743	-22.200209	0.000567	5.674652	0.961312	0.000114
1951	1.9403e+02	-1.1541	-22.022575	0.000892	8.917310	1.510633	0.000179
1952	1.9412e+02	-1.1343	-21.889350	0.000669	6.687983	1.132975	0.000134
1953	1.9422e+02	-1.1143	-21.776310	0.000567	5.674652	0.961312	0.000114
1954	1.9432e+02	-1.0944	-21.630973	0.000730	7.295981	1.235973	0.000146
1955	1.9442e+02	-1.0738	-21.509859	0.000608	6.079984	1.029977	0.000122
1956	1.9452e+02	-1.0547	-21.360485	0.000750	7.498647	1.270305	0.000150
1957	1.9462e+02	-1.0349	-21.239371	0.000608	6.079984	1.029977	0.000122
1958	1.9472e+02	-1.0154	-21.085960	0.000770	7.701314	1.304638	0.000154
1959	1.9482e+02	-0.9949	-20.972920	0.000567	5.674652	0.961312	0.000114
1960	1.9492e+02	-0.9760	-20.863917	0.000547	5.471986	0.926980	0.000110
1961	1.9502e+02	-0.9557	-20.690321	0.000871	8.714644	1.476301	0.000174
1962	1.9512e+02	-0.9350	-20.593429	0.000486	4.863988	0.823982	0.000097
1963	1.9522e+02	-0.9146	-20.464241	0.000649	6.485317	1.098642	0.000130
1964	1.9532e+02	-0.8947	-20.347164	0.000588	5.877318	0.995645	0.000118
1965	1.9542e+02	-0.8749	-20.213939	0.000669	6.687983	1.132975	0.000134
1966	1.9552e+02	-0.8553	-20.044379	0.000851	8.511978	1.441968	0.000170
1967	1.9562e+02	-0.8350	-19.943451	0.000507	5.066654	0.858314	0.000101
1968	1.9572e+02	-0.8153	-19.826374	0.000588	5.877318	0.995645	0.000118
1969	1.9582e+02	-0.7951	-19.713334	0.000567	5.674652	0.961312	0.000114
1970	1.9592e+02	-0.7752	-19.559923	0.000770	7.701314	1.304638	0.000154
1971	1.9601e+02	-0.7556	-19.410549	0.000750	7.498647	1.270305	0.000150
1972	1.9611e+02	-0.7359	-19.341917	0.000345	3.445324	0.583654	0.000069
1973	1.9621e+02	-0.7161	-19.180432	0.000811	8.106646	1.373303	0.000162
1974	1.9631e+02	-0.6960	-19.055281	0.000628	6.282651	1.064310	0.000126
1975	1.9641e+02	-0.6763	-18.930129	0.000628	6.282651	1.064310	0.000126
1976	1.9651e+02	-0.6555	-18.780755	0.000750	7.498647	1.270305	0.000150
1977	1.9661e+02	-0.6360	-18.659641	0.000608	6.079984	1.029977	0.000122
1978	1.9671e+02	-0.6152	-18.534490	0.000628	6.282651	1.064310	0.000126
1979	1.9681e+02	-0.5965	-18.409339	0.000628	6.282651	1.064310	0.000126
1980	1.9691e+02	-0.5767	-18.292262	0.000588	5.877318	0.995645	0.000118
1981	1.9701e+02	-0.5563	-18.142888	0.000750	7.498647	1.270305	0.000150
1982	1.9711e+02	-0.5362	-18.033885	0.000547	5.471986	0.926980	0.000110
1983	1.9721e+02	-0.5157	-17.884511	0.000750	7.498647	1.270305	0.000150
1984	1.9731e+02	-0.4975	-17.751286	0.000669	6.687983	1.132975	0.000134
1985	1.9741e+02	-0.4771	-17.618060	0.000669	6.687983	1.132975	0.000134
1986	1.9751e+02	-0.4562	-17.509058	0.000547	5.471986	0.926980	0.000110
1987	1.9761e+02	-0.4366	-17.339498	0.000851	8.511978	1.441968	0.000170
1988	1.9771e+02	-0.4178	-17.230495	0.000547	5.471986	0.926980	0.000110
1989	1.9781e+02	-0.3968	-17.089196	0.000709	7.093315	1.201640	0.000142
1990	1.9791e+02	-0.3754	-16.968082	0.000608	6.079984	1.029977	0.000122
1991	1.9800e+02	-0.3568	-16.863116	0.000527	5.269320	0.892647	0.000105
1992	1.9810e+02	-0.3375	-16.721816	0.000709	7.093315	1.201640	0.000142
1993	1.9820e+02	-0.3166	-16.568405	0.000770	7.701314	1.304638	0.000154
1994	1.9830e+02	-0.2982	-16.414994	0.000770	7.701314	1.304638	0.000154
1995	1.9840e+02	-0.2774	-16.318103	0.000486	4.863988	0.823982	0.000097
1996	1.9850e+02	-0.2573	-16.192951	0.000628	6.282651	1.064310	0.000126
1997	1.9860e+02	-0.2385	-16.083949	0.000547	5.471986	0.926980	0.000110
1998	1.9870e+02	-0.2180	-15.930538	0.000770	7.701314	1.304638	0.000154
1999	1.9880e+02	-0.1978	-15.809424	0.000608	6.079984	1.029977	0.000122
2000	1.9890e+02	-0.1778	-15.680235	0.000649	6.485317	1.098642	0.000130
2001	1.9900e+02	-0.1579	-15.579307	0.000507	5.066654	0.858314	0.000101
2002	1.9910e+02	-0.1378	-15.373413	0.001034	10.335973	1.750961	0.000207
2003	1.9920e+02	-0.1177	-15.304782	0.000345	3.445324	0.583654	0.000069
2004	1.9930e+02	-0.0983	-15.139259	0.000831	8.309312	1.407636	0.000166
2005	1.9940e+02	-0.0778	-15.022182	0.000588	5.877318	0.995645	0.000118
2006	1.9950e+02	-0.0574	-14.913179	0.000547	5.471986	0.926980	0.000110
2007	1.9960e+02	-0.0378	-14.783991	0.000649	6.485317	1.098642	0.000130
2008	1.9970e+02	-0.0193	-14.674988	0.000547	5.471986	0.926980	0.000110
2009	1.9980e+02	0.0007	-14.517540	0.000547	5.471986	0.926980	0.000158

PMax (uC/cm2):	5.33e+01
Pr (uC/cm2):	6.59e+00
-Pr (uC/cm2):	-1.77e+01
PLoss (uC/cm2):	-1.77e+01
-Vc:	-1.02e+00
C (Max-Eff) (nF):	5.33e-01
K (Eff):	9.02e+02
Vert. (+/-Pr) Shift (uC/cm2):	-5.55e+00
Offset (uC/cm2):	-3.17e+00

A (Loop Area - uC/cm2·Volts):	-5.16e-02



Hysteresis Version: 5.48.1 - Radiant Technologies, Inc., 1999 - 9/12/24

