»»»»»»»»»»»»»»»»»»»»»»»»»»»»»»»»»»»» Hysteresis ««««««««««««««««««««««««««««««««««««
»»»  Executed Version:	5.48.1
»»»  Vision Version:	5.48.4 (R)
»»»  Vision Compiled:	9/18/24
»»»  Driver Version:	5.47.0
»»»  Windows Version:	Windows 8 or 8.1
»»»  Processor Information:	x86 (AMD or Intel) - 32 Processors
»»»  Tester Name:	PMF21124-494 (100V)
»»»  Tester S/N:	PMF21124-494
»»»  Internal Amp Type:	100V RevK 270k
»»»  Internal Amp S/N:	iAB2-596/K     
»»»  Execution Count:	1
»»»»»»»»»»»»»»»»»»»»»»»»»»»»»»»»»»»»»»»»»»««««««««««««««««««««««««««««««««««««««««««

Stored:	7/3/2025 - 13:26:38
Configured:	07/03/25 12:01:19 PM
Executed:	07/03/25 01:26:08 PM

»»»»»»»»»»»»»»»»»»»»»»»»»»»»»»»»»»» Sample Info ««««««««««««««««««««««««««««««««««««
Sample Name:	
Lot Name:	
Wafer Name:	
Die Row/Column:	0/0
Capacitor Number:	0
Sample Area (cm2):	1.00e-04
Sample Thickness (microns):	1.50e-01

Amplifier:	Internal

»»»»»»»»»»»»»»»»»»»»»»»»»»»»»»»»»»» Tester Info «««««««««««««««««««««««««««««««««««
Tester Name:	PMF21124-494 (100V)
Tester Serial Number:	PMF21124-494
Return Signal Amp. Level:	0.19 [Index: 3]

»»»»»»»»»»»»»»»»»»»»»»»»»»»»»»»» Hysteresis Info ««««««««««««««««««««««««««««««««««
Task Name:	Hyst-410
Volts:	10.00
Field:	666.67 (kV/cm)
DCBias:	0.00
DCField:	0.00 (kV/cm)
Hysteresis Period (ms):	2.00e+02
Preset:	Enabled
Preset Delay (ms):	1.00e+03
Profile:	Standard Bipolar

»»»»»»»»»»»»»»»»»»»»»»»»»»»»»»»»»»»»»» Data «««««««««««««««««««««««««««««««««««««««
Points:	2009

Valid Data

Point	Time (ms)	Drive Voltage	Measured Polarization (uC/cm2)	Capacitance (uF)	Normalized Capacitance (uF/cm2)	Dielectric Constant	Instantaneous Current (mA)
   1	0.0000e+00	0.0002	12.420248	0.000547	5.472529	0.927071	0.000110
   2	9.9500e-02	0.0187	12.529251	0.000547	5.472529	0.927071	0.000110
   3	1.9900e-01	0.0388	12.666513	0.000689	6.891332	1.167423	0.000138
   4	2.9850e-01	0.0585	12.767442	0.000507	5.067156	0.858400	0.000101
   5	3.9800e-01	0.0790	12.884519	0.000588	5.877901	0.995743	0.000118
   6	4.9750e-01	0.0988	12.989484	0.000527	5.269842	0.892735	0.000105
   7	5.9700e-01	0.1186	13.082338	0.000466	4.661784	0.789728	0.000093
   8	6.9650e-01	0.1376	13.207490	0.000628	6.283274	1.064415	0.000126
   9	7.9600e-01	0.1598	13.304381	0.000486	4.864470	0.824064	0.000097
  10	8.9550e-01	0.1787	13.437606	0.000669	6.688646	1.133087	0.000134
  11	9.9500e-01	0.1999	13.546609	0.000547	5.472529	0.927071	0.000110
  12	1.0945e+00	0.2181	13.651574	0.000527	5.269842	0.892735	0.000105
  13	1.1940e+00	0.2391	13.728280	0.000385	3.851039	0.652384	0.000077
  14	1.2935e+00	0.2595	13.865543	0.000689	6.891332	1.167423	0.000138
  15	1.3930e+00	0.2784	13.970508	0.000527	5.269842	0.892735	0.000105
  16	1.4925e+00	0.2987	14.099697	0.000649	6.485960	1.098751	0.000130
  17	1.5920e+00	0.3192	14.196588	0.000486	4.864470	0.824064	0.000097
  18	1.6915e+00	0.3383	14.305590	0.000547	5.472529	0.927071	0.000110
  19	1.7910e+00	0.3587	14.410556	0.000527	5.269842	0.892735	0.000105
  20	1.8905e+00	0.3776	14.499373	0.000446	4.459097	0.755392	0.000089
  21	1.9900e+00	0.3972	14.632598	0.000669	6.688646	1.133087	0.000134
  22	2.0895e+00	0.4179	14.790047	0.000790	7.904764	1.339103	0.000158
  23	2.1890e+00	0.4382	14.866752	0.000385	3.851039	0.652384	0.000077
  24	2.2885e+00	0.4578	14.987866	0.000608	6.080587	1.030079	0.000122
  25	2.3880e+00	0.4783	15.100906	0.000568	5.675215	0.961407	0.000114
  26	2.4875e+00	0.4974	15.242206	0.000709	7.094019	1.201759	0.000142
  27	2.5870e+00	0.5171	15.339097	0.000486	4.864470	0.824064	0.000097
  28	2.6865e+00	0.5371	15.419840	0.000405	4.053725	0.686720	0.000081
  29	2.7860e+00	0.5570	15.569214	0.000750	7.499391	1.270431	0.000150
  30	2.8855e+00	0.5774	15.678217	0.000547	5.472529	0.927071	0.000110
  31	2.9850e+00	0.5959	15.779145	0.000507	5.067156	0.858400	0.000101
  32	3.0845e+00	0.6181	15.904296	0.000628	6.283274	1.064415	0.000126
  33	3.1840e+00	0.6372	16.025410	0.000608	6.080587	1.030079	0.000122
  34	3.2835e+00	0.6573	16.106153	0.000405	4.053725	0.686720	0.000081
  35	3.3830e+00	0.6773	16.255527	0.000750	7.499391	1.270431	0.000150
  36	3.4825e+00	0.6976	16.356455	0.000507	5.067156	0.858400	0.000101
  37	3.5820e+00	0.7166	16.489681	0.000669	6.688646	1.133087	0.000134
  38	3.6815e+00	0.7367	16.598684	0.000547	5.472529	0.927071	0.000110
  39	3.7810e+00	0.7561	16.739983	0.000709	7.094019	1.201759	0.000142
  40	3.8805e+00	0.7761	16.836875	0.000486	4.864470	0.824064	0.000097
  41	3.9800e+00	0.7965	16.949914	0.000568	5.675215	0.961407	0.000114
  42	4.0795e+00	0.8166	17.054880	0.000527	5.269842	0.892735	0.000105
  43	4.1790e+00	0.8364	17.180031	0.000628	6.283274	1.064415	0.000126
  44	4.2785e+00	0.8559	17.301145	0.000608	6.080587	1.030079	0.000122
  45	4.3780e+00	0.8762	17.414185	0.000568	5.675215	0.961407	0.000114
  46	4.4775e+00	0.8957	17.527225	0.000568	5.675215	0.961407	0.000114
  47	4.5770e+00	0.9169	17.668525	0.000709	7.094019	1.201759	0.000142
  48	4.6765e+00	0.9354	17.733119	0.000324	3.242980	0.549376	0.000065
  49	4.7760e+00	0.9569	17.890567	0.000790	7.904764	1.339103	0.000158
  50	4.8755e+00	0.9755	17.975347	0.000426	4.256411	0.721056	0.000085
  51	4.9750e+00	0.9956	18.136832	0.000811	8.107450	1.373439	0.000162
  52	5.0745e+00	1.0161	18.193352	0.000284	2.837607	0.480704	0.000057
  53	5.1740e+00	1.0352	18.334652	0.000709	7.094019	1.201759	0.000142
  54	5.2735e+00	1.0558	18.479989	0.000730	7.296705	1.236095	0.000146
  55	5.3730e+00	1.0757	18.613214	0.000669	6.688646	1.133087	0.000134
  56	5.4725e+00	1.0959	18.685883	0.000365	3.648352	0.618048	0.000073
  57	5.5720e+00	1.1156	18.811034	0.000628	6.283274	1.064415	0.000126
  58	5.6715e+00	1.1353	18.928111	0.000588	5.877901	0.995743	0.000118
  59	5.7710e+00	1.1547	19.061336	0.000669	6.688646	1.133087	0.000134
  60	5.8705e+00	1.1749	19.170339	0.000547	5.472529	0.927071	0.000110
  61	5.9700e+00	1.1956	19.287416	0.000588	5.877901	0.995743	0.000118
  62	6.0695e+00	1.2151	19.420641	0.000669	6.688646	1.133087	0.000134
  63	6.1690e+00	1.2350	19.529644	0.000547	5.472529	0.927071	0.000110
  64	6.2685e+00	1.2542	19.646721	0.000588	5.877901	0.995743	0.000118
  65	6.3680e+00	1.2748	19.751687	0.000527	5.269842	0.892735	0.000105
  66	6.4675e+00	1.2940	19.864726	0.000568	5.675215	0.961407	0.000114
  67	6.5670e+00	1.3143	19.989878	0.000628	6.283274	1.064415	0.000126
  68	6.6665e+00	1.3335	20.110992	0.000608	6.080587	1.030079	0.000122
  69	6.7660e+00	1.3537	20.248254	0.000689	6.891332	1.167423	0.000138
  70	6.8655e+00	1.3736	20.361294	0.000568	5.675215	0.961407	0.000114
  71	6.9650e+00	1.3938	20.478371	0.000588	5.877901	0.995743	0.000118
  72	7.0645e+00	1.4133	20.595448	0.000588	5.877901	0.995743	0.000118
  73	7.1640e+00	1.4336	20.708488	0.000568	5.675215	0.961407	0.000114
  74	7.2635e+00	1.4544	20.829602	0.000608	6.080587	1.030079	0.000122
  75	7.3630e+00	1.4734	20.970902	0.000709	7.094019	1.201759	0.000142
  76	7.4625e+00	1.4940	21.104127	0.000669	6.688646	1.133087	0.000134
  77	7.5620e+00	1.5141	21.188907	0.000426	4.256411	0.721056	0.000085
  78	7.6615e+00	1.5335	21.305984	0.000588	5.877901	0.995743	0.000118
  79	7.7610e+00	1.5543	21.414987	0.000547	5.472529	0.927071	0.000110
  80	7.8605e+00	1.5733	21.552249	0.000689	6.891332	1.167423	0.000138
  81	7.9600e+00	1.5931	21.689512	0.000689	6.891332	1.167423	0.000138
  82	8.0595e+00	1.6129	21.782366	0.000466	4.661784	0.789728	0.000093
  83	8.1590e+00	1.6326	21.915591	0.000669	6.688646	1.133087	0.000134
  84	8.2585e+00	1.6525	22.020557	0.000527	5.269842	0.892735	0.000105
  85	8.3580e+00	1.6729	22.149745	0.000649	6.485960	1.098751	0.000130
  86	8.4575e+00	1.6920	22.287008	0.000689	6.891332	1.167423	0.000138
  87	8.5570e+00	1.7128	22.347565	0.000304	3.040294	0.515040	0.000061
  88	8.6565e+00	1.7329	22.500976	0.000770	7.702077	1.304767	0.000154
  89	8.7560e+00	1.7521	22.646313	0.000730	7.296705	1.236095	0.000146
  90	8.8555e+00	1.7722	22.767427	0.000608	6.080587	1.030079	0.000122
  91	8.9550e+00	1.7925	22.836058	0.000345	3.445666	0.583712	0.000069
  92	9.0545e+00	1.8132	22.973321	0.000689	6.891332	1.167423	0.000138
  93	9.1540e+00	1.8333	23.082324	0.000547	5.472529	0.927071	0.000110
  94	9.2535e+00	1.8509	23.227660	0.000730	7.296705	1.236095	0.000146
  95	9.3530e+00	1.8722	23.377034	0.000750	7.499391	1.270431	0.000150
  96	9.4525e+00	1.8918	23.425480	0.000243	2.432235	0.412032	0.000049
  97	9.5520e+00	1.9122	23.570817	0.000730	7.296705	1.236095	0.000146
  98	9.6515e+00	1.9308	23.695968	0.000628	6.283274	1.064415	0.000126
  99	9.7510e+00	1.9523	23.849379	0.000770	7.702077	1.304767	0.000154
 100	9.8505e+00	1.9715	23.946271	0.000486	4.864470	0.824064	0.000097
 101	9.9500e+00	1.9912	24.043162	0.000486	4.864470	0.824064	0.000097
 102	1.0050e+01	2.0116	24.216759	0.000872	8.715509	1.476447	0.000174
 103	1.0149e+01	2.0313	24.329799	0.000568	5.675215	0.961407	0.000114
 104	1.0248e+01	2.0508	24.430727	0.000507	5.067156	0.858400	0.000101
 105	1.0348e+01	2.0707	24.543767	0.000568	5.675215	0.961407	0.000114
 106	1.0447e+01	2.0905	24.616435	0.000365	3.648352	0.618048	0.000073
 107	1.0547e+01	2.1114	24.781958	0.000831	8.310136	1.407775	0.000166
 108	1.0646e+01	2.1319	24.894998	0.000568	5.675215	0.961407	0.000114
 109	1.0746e+01	2.1510	24.999963	0.000527	5.269842	0.892735	0.000105
 110	1.0845e+01	2.1721	25.129151	0.000649	6.485960	1.098751	0.000130
 111	1.0945e+01	2.1875	25.217968	0.000446	4.459097	0.755392	0.000089
 112	1.1044e+01	2.2114	25.355231	0.000689	6.891332	1.167423	0.000138
 113	1.1144e+01	2.2305	25.460197	0.000527	5.269842	0.892735	0.000105
 114	1.1243e+01	2.2511	25.621682	0.000811	8.107450	1.373439	0.000162
 115	1.1343e+01	2.2702	25.714536	0.000466	4.661784	0.789728	0.000093
 116	1.1443e+01	2.2901	25.855836	0.000709	7.094019	1.201759	0.000142
 117	1.1542e+01	2.3101	25.960801	0.000527	5.269842	0.892735	0.000105
 118	1.1642e+01	2.3302	26.085953	0.000628	6.283274	1.064415	0.000126
 119	1.1741e+01	2.3513	26.207067	0.000608	6.080587	1.030079	0.000122
 120	1.1841e+01	2.3696	26.320106	0.000568	5.675215	0.961407	0.000114
 121	1.1940e+01	2.3903	26.453332	0.000669	6.688646	1.133087	0.000134
 122	1.2040e+01	2.4104	26.546186	0.000466	4.661784	0.789728	0.000093
 123	1.2139e+01	2.4311	26.679412	0.000669	6.688646	1.133087	0.000134
 124	1.2239e+01	2.4503	26.812637	0.000669	6.688646	1.133087	0.000134
 125	1.2338e+01	2.4705	26.901454	0.000446	4.459097	0.755392	0.000089
 126	1.2438e+01	2.4898	27.034679	0.000669	6.688646	1.133087	0.000134
 127	1.2537e+01	2.5100	27.180016	0.000730	7.296705	1.236095	0.000146
 128	1.2636e+01	2.5295	27.301130	0.000608	6.080587	1.030079	0.000122
 129	1.2736e+01	2.5491	27.357650	0.000284	2.837607	0.480704	0.000057
 130	1.2835e+01	2.5686	27.502987	0.000730	7.296705	1.236095	0.000146
 131	1.2935e+01	2.5890	27.611990	0.000547	5.472529	0.927071	0.000110
 132	1.3034e+01	2.6091	27.741178	0.000649	6.485960	1.098751	0.000130
 133	1.3134e+01	2.6281	27.862292	0.000608	6.080587	1.030079	0.000122
 134	1.3233e+01	2.6493	27.955146	0.000466	4.661784	0.789728	0.000093
 135	1.3333e+01	2.6685	28.132780	0.000892	8.918195	1.510783	0.000179
 136	1.3432e+01	2.6890	28.213523	0.000405	4.053725	0.686720	0.000081
 137	1.3532e+01	2.7092	28.334637	0.000608	6.080587	1.030079	0.000122
 138	1.3632e+01	2.7285	28.423454	0.000446	4.459097	0.755392	0.000089
 139	1.3731e+01	2.7480	28.568791	0.000730	7.296705	1.236095	0.000146
 140	1.3831e+01	2.7684	28.649534	0.000405	4.053725	0.686720	0.000081
 141	1.3930e+01	2.7880	28.778722	0.000649	6.485960	1.098751	0.000130
 142	1.4030e+01	2.8077	28.911948	0.000669	6.688646	1.133087	0.000134
 143	1.4129e+01	2.8287	29.008839	0.000486	4.864470	0.824064	0.000097
 144	1.4229e+01	2.8485	29.146101	0.000689	6.891332	1.167423	0.000138
 145	1.4328e+01	2.8678	29.275290	0.000649	6.485960	1.098751	0.000130
 146	1.4428e+01	2.8883	29.384292	0.000547	5.472529	0.927071	0.000110
 147	1.4527e+01	2.9077	29.505407	0.000608	6.080587	1.030079	0.000122
 148	1.4627e+01	2.9279	29.614409	0.000547	5.472529	0.927071	0.000110
 149	1.4726e+01	2.9468	29.727449	0.000568	5.675215	0.961407	0.000114
 150	1.4825e+01	2.9676	29.816266	0.000446	4.459097	0.755392	0.000089
 151	1.4925e+01	2.9871	29.945454	0.000649	6.485960	1.098751	0.000130
 152	1.5024e+01	3.0080	30.086754	0.000709	7.094019	1.201759	0.000142
 153	1.5124e+01	3.0270	30.171534	0.000426	4.256411	0.721056	0.000085
 154	1.5223e+01	3.0480	30.328982	0.000790	7.904764	1.339103	0.000158
 155	1.5323e+01	3.0677	30.446059	0.000588	5.877901	0.995743	0.000118
 156	1.5422e+01	3.0872	30.526802	0.000405	4.053725	0.686720	0.000081
 157	1.5522e+01	3.1076	30.660027	0.000669	6.688646	1.133087	0.000134
 158	1.5621e+01	3.1281	30.817476	0.000790	7.904764	1.339103	0.000158
 159	1.5721e+01	3.1469	30.861884	0.000223	2.229549	0.377696	0.000045
 160	1.5820e+01	3.1676	30.978961	0.000588	5.877901	0.995743	0.000118
 161	1.5920e+01	3.1863	31.120261	0.000709	7.094019	1.201759	0.000142
 162	1.6020e+01	3.2064	31.237338	0.000588	5.877901	0.995743	0.000118
 163	1.6119e+01	3.2269	31.358452	0.000608	6.080587	1.030079	0.000122
 164	1.6218e+01	3.2464	31.487640	0.000649	6.485960	1.098751	0.000130
 165	1.6318e+01	3.2658	31.560309	0.000365	3.648352	0.618048	0.000073
 166	1.6418e+01	3.2865	31.697571	0.000689	6.891332	1.167423	0.000138
 167	1.6517e+01	3.3068	31.802537	0.000527	5.269842	0.892735	0.000105
 168	1.6616e+01	3.3261	31.891354	0.000446	4.459097	0.755392	0.000089
 169	1.6716e+01	3.3459	32.032654	0.000709	7.094019	1.201759	0.000142
 170	1.6816e+01	3.3665	32.133582	0.000507	5.067156	0.858400	0.000101
 171	1.6915e+01	3.3878	32.291030	0.000790	7.904764	1.339103	0.000158
 172	1.7015e+01	3.4063	32.351587	0.000304	3.040294	0.515040	0.000061
 173	1.7114e+01	3.4266	32.476738	0.000628	6.283274	1.064415	0.000126
 174	1.7213e+01	3.4457	32.581704	0.000527	5.269842	0.892735	0.000105
 175	1.7313e+01	3.4655	32.670521	0.000446	4.459097	0.755392	0.000089
 176	1.7413e+01	3.4869	32.815858	0.000730	7.296705	1.236095	0.000146
 177	1.7512e+01	3.5059	32.936972	0.000608	6.080587	1.030079	0.000122
 178	1.7611e+01	3.5252	33.066160	0.000649	6.485960	1.098751	0.000130
 179	1.7711e+01	3.5459	33.183237	0.000588	5.877901	0.995743	0.000118
 180	1.7811e+01	3.5653	33.296277	0.000568	5.675215	0.961407	0.000114
 181	1.7910e+01	3.5845	33.364908	0.000345	3.445666	0.583712	0.000069
 182	1.8009e+01	3.6055	33.486022	0.000608	6.080587	1.030079	0.000122
 183	1.8109e+01	3.6259	33.590988	0.000527	5.269842	0.892735	0.000105
 184	1.8209e+01	3.6447	33.716139	0.000628	6.283274	1.064415	0.000126
 185	1.8308e+01	3.6654	33.873587	0.000790	7.904764	1.339103	0.000158
 186	1.8407e+01	3.6851	33.930107	0.000284	2.837607	0.480704	0.000057
 187	1.8507e+01	3.7055	34.075444	0.000730	7.296705	1.236095	0.000146
 188	1.8607e+01	3.7254	34.160224	0.000426	4.256411	0.721056	0.000085
 189	1.8706e+01	3.7443	34.281338	0.000608	6.080587	1.030079	0.000122
 190	1.8805e+01	3.7649	34.390341	0.000547	5.472529	0.927071	0.000110
 191	1.8905e+01	3.7840	34.503381	0.000568	5.675215	0.961407	0.000114
 192	1.9005e+01	3.8046	34.620458	0.000588	5.877901	0.995743	0.000118
 193	1.9104e+01	3.8244	34.689089	0.000345	3.445666	0.583712	0.000069
 194	1.9203e+01	3.8435	34.798091	0.000547	5.472529	0.927071	0.000110
 195	1.9303e+01	3.8640	34.951503	0.000770	7.702077	1.304767	0.000154
 196	1.9402e+01	3.8831	35.032245	0.000405	4.053725	0.686720	0.000081
 197	1.9502e+01	3.9037	35.173545	0.000709	7.094019	1.201759	0.000142
 198	1.9602e+01	3.9241	35.258325	0.000426	4.256411	0.721056	0.000085
 199	1.9701e+01	3.9446	35.379439	0.000608	6.080587	1.030079	0.000122
 200	1.9800e+01	3.9642	35.464219	0.000426	4.256411	0.721056	0.000085
 201	1.9900e+01	3.9842	35.629741	0.000831	8.310136	1.407775	0.000166
 202	2.0000e+01	4.0035	35.710484	0.000405	4.053725	0.686720	0.000081
 203	2.0099e+01	4.0232	35.839673	0.000649	6.485960	1.098751	0.000130
 204	2.0198e+01	4.0452	35.948675	0.000547	5.472529	0.927071	0.000110
 205	2.0298e+01	4.0636	36.033455	0.000426	4.256411	0.721056	0.000085
 206	2.0398e+01	4.0826	36.186866	0.000770	7.702077	1.304767	0.000154
 207	2.0497e+01	4.1035	36.275683	0.000446	4.459097	0.755392	0.000089
 208	2.0596e+01	4.1228	36.380649	0.000527	5.269842	0.892735	0.000105
 209	2.0696e+01	4.1441	36.505800	0.000628	6.283274	1.064415	0.000126
 210	2.0796e+01	4.1633	36.610765	0.000527	5.269842	0.892735	0.000105
 211	2.0895e+01	4.1831	36.703620	0.000466	4.661784	0.789728	0.000093
 212	2.0994e+01	4.2036	36.808585	0.000527	5.269842	0.892735	0.000105
 213	2.1094e+01	4.2224	36.893365	0.000426	4.256411	0.721056	0.000085
 214	2.1194e+01	4.2437	37.034665	0.000709	7.094019	1.201759	0.000142
 215	2.1293e+01	4.2631	37.167890	0.000669	6.688646	1.133087	0.000134
 216	2.1392e+01	4.2828	37.208262	0.000203	2.026862	0.343360	0.000041
 217	2.1492e+01	4.3024	37.341487	0.000669	6.688646	1.133087	0.000134
 218	2.1591e+01	4.3226	37.478750	0.000689	6.891332	1.167423	0.000138
 219	2.1691e+01	4.3420	37.571604	0.000466	4.661784	0.789728	0.000093
 220	2.1791e+01	4.3626	37.668495	0.000486	4.864470	0.824064	0.000097
 221	2.1890e+01	4.3829	37.797683	0.000649	6.485960	1.098751	0.000130
 222	2.1989e+01	4.4025	37.882463	0.000426	4.256411	0.721056	0.000085
 223	2.2089e+01	4.4215	37.979354	0.000486	4.864470	0.824064	0.000097
 224	2.2189e+01	4.4418	38.072209	0.000466	4.661784	0.789728	0.000093
 225	2.2288e+01	4.4614	38.225620	0.000770	7.702077	1.304767	0.000154
 226	2.2387e+01	4.4825	38.265991	0.000203	2.026862	0.343360	0.000041
 227	2.2487e+01	4.5011	38.419402	0.000770	7.702077	1.304767	0.000154
 228	2.2587e+01	4.5219	38.524368	0.000527	5.269842	0.892735	0.000105
 229	2.2686e+01	4.5414	38.625296	0.000507	5.067156	0.858400	0.000101
 230	2.2785e+01	4.5617	38.738336	0.000568	5.675215	0.961407	0.000114
 231	2.2885e+01	4.5812	38.867524	0.000649	6.485960	1.098751	0.000130
 232	2.2985e+01	4.6020	38.940193	0.000365	3.648352	0.618048	0.000073
 233	2.3084e+01	4.6215	39.089567	0.000750	7.499391	1.270431	0.000150
 234	2.3183e+01	4.6426	39.101678	0.000061	0.608059	0.103008	0.000012
 235	2.3283e+01	4.6618	39.275275	0.000872	8.715509	1.476447	0.000174
 236	2.3383e+01	4.6815	39.364092	0.000446	4.459097	0.755392	0.000089
 237	2.3482e+01	4.7007	39.493280	0.000649	6.485960	1.098751	0.000130
 238	2.3581e+01	4.7210	39.618432	0.000628	6.283274	1.064415	0.000126
 239	2.3681e+01	4.7411	39.683026	0.000324	3.242980	0.549376	0.000065
 240	2.3780e+01	4.7601	39.812214	0.000649	6.485960	1.098751	0.000130
 241	2.3880e+01	4.7796	39.901031	0.000446	4.459097	0.755392	0.000089
 242	2.3980e+01	4.7998	40.014071	0.000568	5.675215	0.961407	0.000114
 243	2.4079e+01	4.8211	40.135185	0.000608	6.080587	1.030079	0.000122
 244	2.4178e+01	4.8408	40.224002	0.000446	4.459097	0.755392	0.000089
 245	2.4278e+01	4.8608	40.345116	0.000608	6.080587	1.030079	0.000122
 246	2.4378e+01	4.8808	40.413747	0.000345	3.445666	0.583712	0.000069
 247	2.4477e+01	4.9004	40.530824	0.000588	5.877901	0.995743	0.000118
 248	2.4576e+01	4.9208	40.607530	0.000385	3.851039	0.652384	0.000077
 249	2.4676e+01	4.9401	40.736718	0.000649	6.485960	1.098751	0.000130
 250	2.4776e+01	4.9596	40.873981	0.000689	6.891332	1.167423	0.000138
 251	2.4875e+01	4.9799	40.954723	0.000405	4.053725	0.686720	0.000081
 252	2.4974e+01	4.9996	41.039503	0.000426	4.256411	0.721056	0.000085
 253	2.5074e+01	5.0195	41.144469	0.000527	5.269842	0.892735	0.000105
 254	2.5174e+01	5.0394	41.253472	0.000547	5.472529	0.927071	0.000110
 255	2.5273e+01	5.0588	41.338251	0.000426	4.256411	0.721056	0.000085
 256	2.5372e+01	5.0779	41.467440	0.000649	6.485960	1.098751	0.000130
 257	2.5472e+01	5.0994	41.540108	0.000365	3.648352	0.618048	0.000073
 258	2.5572e+01	5.1197	41.661222	0.000608	6.080587	1.030079	0.000122
 259	2.5671e+01	5.1391	41.754076	0.000466	4.661784	0.789728	0.000093
 260	2.5770e+01	5.1591	41.871153	0.000588	5.877901	0.995743	0.000118
 261	2.5870e+01	5.1794	41.968045	0.000486	4.864470	0.824064	0.000097
 262	2.5970e+01	5.1995	42.064936	0.000486	4.864470	0.824064	0.000097
 263	2.6069e+01	5.2186	42.190087	0.000628	6.283274	1.064415	0.000126
 264	2.6169e+01	5.2387	42.254681	0.000324	3.242980	0.549376	0.000065
 265	2.6268e+01	5.2593	42.391944	0.000689	6.891332	1.167423	0.000138
 266	2.6367e+01	5.2784	42.460575	0.000345	3.445666	0.583712	0.000069
 267	2.6467e+01	5.2979	42.605912	0.000730	7.296705	1.236095	0.000146
 268	2.6567e+01	5.3182	42.706840	0.000507	5.067156	0.858400	0.000101
 269	2.6666e+01	5.3390	42.791620	0.000426	4.256411	0.721056	0.000085
 270	2.6765e+01	5.3585	42.876400	0.000426	4.256411	0.721056	0.000085
 271	2.6865e+01	5.3811	42.989440	0.000568	5.675215	0.961407	0.000114
 272	2.6965e+01	5.3989	43.082294	0.000466	4.661784	0.789728	0.000093
 273	2.7064e+01	5.4168	43.191297	0.000547	5.472529	0.927071	0.000110
 274	2.7163e+01	5.4382	43.272039	0.000405	4.053725	0.686720	0.000081
 275	2.7263e+01	5.4580	43.421413	0.000750	7.499391	1.270431	0.000150
 276	2.7363e+01	5.4766	43.490045	0.000345	3.445666	0.583712	0.000069
 277	2.7462e+01	5.4974	43.574825	0.000426	4.256411	0.721056	0.000085
 278	2.7561e+01	5.5172	43.675753	0.000507	5.067156	0.858400	0.000101
 279	2.7661e+01	5.5386	43.800904	0.000628	6.283274	1.064415	0.000126
 280	2.7761e+01	5.5584	43.873573	0.000365	3.648352	0.618048	0.000073
 281	2.7860e+01	5.5776	43.990650	0.000588	5.877901	0.995743	0.000118
 282	2.7959e+01	5.5978	44.091578	0.000507	5.067156	0.858400	0.000101
 283	2.8059e+01	5.6181	44.192506	0.000507	5.067156	0.858400	0.000101
 284	2.8159e+01	5.6377	44.289398	0.000486	4.864470	0.824064	0.000097
 285	2.8258e+01	5.6583	44.374177	0.000426	4.256411	0.721056	0.000085
 286	2.8358e+01	5.6768	44.467032	0.000466	4.661784	0.789728	0.000093
 287	2.8457e+01	5.6980	44.555849	0.000446	4.459097	0.755392	0.000089
 288	2.8556e+01	5.7168	44.689074	0.000669	6.688646	1.133087	0.000134
 289	2.8656e+01	5.7368	44.790002	0.000507	5.067156	0.858400	0.000101
 290	2.8756e+01	5.7560	44.882857	0.000466	4.661784	0.789728	0.000093
 291	2.8855e+01	5.7777	44.955525	0.000365	3.648352	0.618048	0.000073
 292	2.8954e+01	5.7959	45.076639	0.000608	6.080587	1.030079	0.000122
 293	2.9054e+01	5.8164	45.133159	0.000284	2.837607	0.480704	0.000057
 294	2.9154e+01	5.8366	45.290607	0.000790	7.904764	1.339103	0.000158
 295	2.9253e+01	5.8556	45.355201	0.000324	3.242980	0.549376	0.000065
 296	2.9352e+01	5.8762	45.464204	0.000547	5.472529	0.927071	0.000110
 297	2.9452e+01	5.8959	45.577244	0.000568	5.675215	0.961407	0.000114
 298	2.9552e+01	5.9161	45.637801	0.000304	3.040294	0.515040	0.000061
 299	2.9651e+01	5.9356	45.766989	0.000649	6.485960	1.098751	0.000130
 300	2.9750e+01	5.9571	45.847732	0.000405	4.053725	0.686720	0.000081
 301	2.9850e+01	5.9765	45.944623	0.000486	4.864470	0.824064	0.000097
 302	2.9950e+01	5.9962	46.045552	0.000507	5.067156	0.858400	0.000101
 303	3.0049e+01	6.0149	46.146480	0.000507	5.067156	0.858400	0.000101
 304	3.0148e+01	6.0357	46.223186	0.000385	3.851039	0.652384	0.000077
 305	3.0248e+01	6.0563	46.328151	0.000527	5.269842	0.892735	0.000105
 306	3.0348e+01	6.0738	46.425042	0.000486	4.864470	0.824064	0.000097
 307	3.0447e+01	6.0958	46.550194	0.000628	6.283274	1.064415	0.000126
 308	3.0547e+01	6.1160	46.598639	0.000243	2.432235	0.412032	0.000049
 309	3.0646e+01	6.1343	46.719753	0.000608	6.080587	1.030079	0.000122
 310	3.0745e+01	6.1553	46.804533	0.000426	4.256411	0.721056	0.000085
 311	3.0845e+01	6.1749	46.937759	0.000669	6.688646	1.133087	0.000134
 312	3.0945e+01	6.1950	47.022539	0.000426	4.256411	0.721056	0.000085
 313	3.1044e+01	6.2156	47.095207	0.000365	3.648352	0.618048	0.000073
 314	3.1143e+01	6.2350	47.204210	0.000547	5.472529	0.927071	0.000110
 315	3.1243e+01	6.2551	47.293027	0.000446	4.459097	0.755392	0.000089
 316	3.1343e+01	6.2749	47.406066	0.000568	5.675215	0.961407	0.000114
 317	3.1442e+01	6.2945	47.511032	0.000527	5.269842	0.892735	0.000105
 318	3.1541e+01	6.3137	47.571589	0.000304	3.040294	0.515040	0.000061
 319	3.1641e+01	6.3335	47.680592	0.000547	5.472529	0.927071	0.000110
 320	3.1741e+01	6.3529	47.797669	0.000588	5.877901	0.995743	0.000118
 321	3.1840e+01	6.3738	47.842077	0.000223	2.229549	0.377696	0.000045
 322	3.1939e+01	6.3942	47.947043	0.000527	5.269842	0.892735	0.000105
 323	3.2039e+01	6.4134	48.047971	0.000507	5.067156	0.858400	0.000101
 324	3.2139e+01	6.4346	48.144862	0.000486	4.864470	0.824064	0.000097
 325	3.2238e+01	6.4537	48.237716	0.000466	4.661784	0.789728	0.000093
 326	3.2337e+01	6.4739	48.338645	0.000507	5.067156	0.858400	0.000101
 327	3.2437e+01	6.4935	48.435536	0.000486	4.864470	0.824064	0.000097
 328	3.2536e+01	6.5135	48.508204	0.000365	3.648352	0.618048	0.000073
 329	3.2636e+01	6.5339	48.625281	0.000588	5.877901	0.995743	0.000118
 330	3.2736e+01	6.5530	48.706024	0.000405	4.053725	0.686720	0.000081
 331	3.2835e+01	6.5734	48.806953	0.000507	5.067156	0.858400	0.000101
 332	3.2934e+01	6.5939	48.919992	0.000568	5.675215	0.961407	0.000114
 333	3.3034e+01	6.6131	48.988624	0.000345	3.445666	0.583712	0.000069
 334	3.3133e+01	6.6328	49.117812	0.000649	6.485960	1.098751	0.000130
 335	3.3233e+01	6.6531	49.182406	0.000324	3.242980	0.549376	0.000065
 336	3.3333e+01	6.6723	49.263149	0.000405	4.053725	0.686720	0.000081
 337	3.3432e+01	6.6929	49.339854	0.000385	3.851039	0.652384	0.000077
 338	3.3532e+01	6.7130	49.440783	0.000507	5.067156	0.858400	0.000101
 339	3.3631e+01	6.7330	49.533637	0.000466	4.661784	0.789728	0.000093
 340	3.3730e+01	6.7519	49.634565	0.000507	5.067156	0.858400	0.000101
 341	3.3830e+01	6.7718	49.731457	0.000486	4.864470	0.824064	0.000097
 342	3.3929e+01	6.7928	49.796051	0.000324	3.242980	0.549376	0.000065
 343	3.4029e+01	6.8119	49.921202	0.000628	6.283274	1.064415	0.000126
 344	3.4129e+01	6.8316	50.022130	0.000507	5.067156	0.858400	0.000101
 345	3.4228e+01	6.8525	50.094799	0.000365	3.648352	0.618048	0.000073
 346	3.4328e+01	6.8717	50.211876	0.000588	5.877901	0.995743	0.000118
 347	3.4427e+01	6.8929	50.276470	0.000324	3.242980	0.549376	0.000065
 348	3.4526e+01	6.9124	50.389510	0.000568	5.675215	0.961407	0.000114
 349	3.4626e+01	6.9321	50.482364	0.000466	4.661784	0.789728	0.000093
 350	3.4725e+01	6.9519	50.571181	0.000446	4.459097	0.755392	0.000089
 351	3.4825e+01	6.9711	50.639812	0.000345	3.445666	0.583712	0.000069
 352	3.4925e+01	6.9914	50.756889	0.000588	5.877901	0.995743	0.000118
 353	3.5024e+01	7.0121	50.869929	0.000568	5.675215	0.961407	0.000114
 354	3.5123e+01	7.0306	50.930486	0.000304	3.040294	0.515040	0.000061
 355	3.5223e+01	7.0513	50.995080	0.000324	3.242980	0.549376	0.000065
 356	3.5322e+01	7.0712	51.104083	0.000547	5.472529	0.927071	0.000110
 357	3.5422e+01	7.0907	51.217123	0.000568	5.675215	0.961407	0.000114
 358	3.5522e+01	7.1111	51.289791	0.000365	3.648352	0.618048	0.000073
 359	3.5621e+01	7.1301	51.423016	0.000669	6.688646	1.133087	0.000134
 360	3.5721e+01	7.1502	51.507796	0.000426	4.256411	0.721056	0.000085
 361	3.5820e+01	7.1716	51.576428	0.000345	3.445666	0.583712	0.000069
 362	3.5919e+01	7.1905	51.636985	0.000304	3.040294	0.515040	0.000061
 363	3.6019e+01	7.2108	51.754062	0.000588	5.877901	0.995743	0.000118
 364	3.6118e+01	7.2305	51.859027	0.000527	5.269842	0.892735	0.000105
 365	3.6218e+01	7.2500	51.923621	0.000324	3.242980	0.549376	0.000065
 366	3.6318e+01	7.2715	52.012438	0.000446	4.459097	0.755392	0.000089
 367	3.6417e+01	7.2913	52.113367	0.000507	5.067156	0.858400	0.000101
 368	3.6517e+01	7.3100	52.230444	0.000588	5.877901	0.995743	0.000118
 369	3.6616e+01	7.3302	52.286964	0.000284	2.837607	0.480704	0.000057
 370	3.6715e+01	7.3487	52.387892	0.000507	5.067156	0.858400	0.000101
 371	3.6815e+01	7.3702	52.468635	0.000405	4.053725	0.686720	0.000081
 372	3.6914e+01	7.3899	52.529192	0.000304	3.040294	0.515040	0.000061
 373	3.7014e+01	7.4100	52.654343	0.000628	6.283274	1.064415	0.000126
 374	3.7114e+01	7.4290	52.739123	0.000426	4.256411	0.721056	0.000085
 375	3.7213e+01	7.4498	52.827940	0.000446	4.459097	0.755392	0.000089
 376	3.7313e+01	7.4689	52.920794	0.000466	4.661784	0.789728	0.000093
 377	3.7412e+01	7.4900	52.985388	0.000324	3.242980	0.549376	0.000065
 378	3.7511e+01	7.5095	53.122651	0.000689	6.891332	1.167423	0.000138
 379	3.7611e+01	7.5291	53.163022	0.000203	2.026862	0.343360	0.000041
 380	3.7711e+01	7.5481	53.267987	0.000527	5.269842	0.892735	0.000105
 381	3.7810e+01	7.5695	53.397176	0.000649	6.485960	1.098751	0.000130
 382	3.7910e+01	7.5901	53.445621	0.000243	2.432235	0.412032	0.000049
 383	3.8009e+01	7.6083	53.558661	0.000568	5.675215	0.961407	0.000114
 384	3.8108e+01	7.6270	53.631330	0.000365	3.648352	0.618048	0.000073
 385	3.8208e+01	7.6495	53.724184	0.000466	4.661784	0.789728	0.000093
 386	3.8307e+01	7.6685	53.837224	0.000568	5.675215	0.961407	0.000114
 387	3.8407e+01	7.6881	53.901818	0.000324	3.242980	0.549376	0.000065
 388	3.8507e+01	7.7086	53.986598	0.000426	4.256411	0.721056	0.000085
 389	3.8606e+01	7.7287	54.095600	0.000547	5.472529	0.927071	0.000110
 390	3.8706e+01	7.7486	54.208640	0.000568	5.675215	0.961407	0.000114
 391	3.8805e+01	7.7686	54.261123	0.000263	2.634921	0.446368	0.000053
 392	3.8904e+01	7.7885	54.341866	0.000405	4.053725	0.686720	0.000081
 393	3.9004e+01	7.8079	54.430683	0.000446	4.459097	0.755392	0.000089
 394	3.9103e+01	7.8283	54.555834	0.000628	6.283274	1.064415	0.000126
 395	3.9203e+01	7.8484	54.620428	0.000324	3.242980	0.549376	0.000065
 396	3.9303e+01	7.8675	54.713282	0.000466	4.661784	0.789728	0.000093
 397	3.9402e+01	7.8875	54.781913	0.000345	3.445666	0.583712	0.000069
 398	3.9502e+01	7.9082	54.874768	0.000466	4.661784	0.789728	0.000093
 399	3.9601e+01	7.9289	54.971659	0.000486	4.864470	0.824064	0.000097
 400	3.9700e+01	7.9476	55.056439	0.000426	4.256411	0.721056	0.000085
 401	3.9800e+01	7.9679	55.181590	0.000628	6.283274	1.064415	0.000126
 402	3.9900e+01	7.9864	55.238110	0.000284	2.837607	0.480704	0.000057
 403	3.9999e+01	8.0078	55.335001	0.000486	4.864470	0.824064	0.000097
 404	4.0099e+01	8.0273	55.415744	0.000405	4.053725	0.686720	0.000081
 405	4.0198e+01	8.0469	55.512635	0.000486	4.864470	0.824064	0.000097
 406	4.0297e+01	8.0673	55.589341	0.000385	3.851039	0.652384	0.000077
 407	4.0397e+01	8.0869	55.674120	0.000426	4.256411	0.721056	0.000085
 408	4.0496e+01	8.1063	55.754863	0.000405	4.053725	0.686720	0.000081
 409	4.0596e+01	8.1267	55.851754	0.000486	4.864470	0.824064	0.000097
 410	4.0696e+01	8.1467	55.932497	0.000405	4.053725	0.686720	0.000081
 411	4.0795e+01	8.1669	56.029388	0.000486	4.864470	0.824064	0.000097
 412	4.0895e+01	8.1864	56.118205	0.000446	4.459097	0.755392	0.000089
 413	4.0994e+01	8.2067	56.231245	0.000568	5.675215	0.961407	0.000114
 414	4.1093e+01	8.2258	56.291802	0.000304	3.040294	0.515040	0.000061
 415	4.1193e+01	8.2455	56.364471	0.000365	3.648352	0.618048	0.000073
 416	4.1292e+01	8.2657	56.461362	0.000486	4.864470	0.824064	0.000097
 417	4.1392e+01	8.2867	56.550179	0.000446	4.459097	0.755392	0.000089
 418	4.1492e+01	8.3057	56.634959	0.000426	4.256411	0.721056	0.000085
 419	4.1591e+01	8.3257	56.747999	0.000568	5.675215	0.961407	0.000114
 420	4.1691e+01	8.3461	56.808556	0.000304	3.040294	0.515040	0.000061
 421	4.1790e+01	8.3659	56.925632	0.000588	5.877901	0.995743	0.000118
 422	4.1889e+01	8.3865	56.990227	0.000324	3.242980	0.549376	0.000065
 423	4.1989e+01	8.4058	57.095192	0.000527	5.269842	0.892735	0.000105
 424	4.2089e+01	8.4257	57.163823	0.000345	3.445666	0.583712	0.000069
 425	4.2188e+01	8.4460	57.288975	0.000628	6.283274	1.064415	0.000126
 426	4.2288e+01	8.4653	57.345495	0.000284	2.837607	0.480704	0.000057
 427	4.2387e+01	8.4853	57.430274	0.000426	4.256411	0.721056	0.000085
 428	4.2486e+01	8.5047	57.506980	0.000385	3.851039	0.652384	0.000077
 429	4.2586e+01	8.5256	57.628094	0.000608	6.080587	1.030079	0.000122
 430	4.2685e+01	8.5449	57.664428	0.000182	1.824176	0.309024	0.000037
 431	4.2785e+01	8.5648	57.765357	0.000507	5.067156	0.858400	0.000101
 432	4.2885e+01	8.5845	57.878397	0.000568	5.675215	0.961407	0.000114
 433	4.2984e+01	8.6051	57.934916	0.000284	2.837607	0.480704	0.000057
 434	4.3084e+01	8.6256	58.043919	0.000547	5.472529	0.927071	0.000110
 435	4.3183e+01	8.6451	58.104476	0.000304	3.040294	0.515040	0.000061
 436	4.3282e+01	8.6646	58.213479	0.000547	5.472529	0.927071	0.000110
 437	4.3382e+01	8.6845	58.290184	0.000385	3.851039	0.652384	0.000077
 438	4.3481e+01	8.7036	58.415336	0.000628	6.283274	1.064415	0.000126
 439	4.3581e+01	8.7241	58.492041	0.000385	3.851039	0.652384	0.000077
 440	4.3681e+01	8.7440	58.544524	0.000263	2.634921	0.446368	0.000053
 441	4.3780e+01	8.7646	58.649489	0.000527	5.269842	0.892735	0.000105
 442	4.3880e+01	8.7843	58.722158	0.000365	3.648352	0.618048	0.000073
 443	4.3979e+01	8.8039	58.819049	0.000486	4.864470	0.824064	0.000097
 444	4.4078e+01	8.8247	58.891718	0.000365	3.648352	0.618048	0.000073
 445	4.4178e+01	8.8434	59.000720	0.000547	5.472529	0.927071	0.000110
 446	4.4278e+01	8.8631	59.085500	0.000426	4.256411	0.721056	0.000085
 447	4.4377e+01	8.8839	59.125871	0.000203	2.026862	0.343360	0.000041
 448	4.4477e+01	8.9033	59.259097	0.000669	6.688646	1.133087	0.000134
 449	4.4576e+01	8.9243	59.339840	0.000405	4.053725	0.686720	0.000081
 450	4.4675e+01	8.9429	59.408471	0.000345	3.445666	0.583712	0.000069
 451	4.4775e+01	8.9631	59.549771	0.000709	7.094019	1.201759	0.000142
 452	4.4874e+01	8.9828	59.610328	0.000304	3.040294	0.515040	0.000061
 453	4.4974e+01	9.0028	59.682996	0.000365	3.648352	0.618048	0.000073
 454	4.5074e+01	9.0231	59.783925	0.000507	5.067156	0.858400	0.000101
 455	4.5173e+01	9.0430	59.880816	0.000486	4.864470	0.824064	0.000097
 456	4.5273e+01	9.0631	59.953484	0.000365	3.648352	0.618048	0.000073
 457	4.5372e+01	9.0830	60.050376	0.000486	4.864470	0.824064	0.000097
 458	4.5471e+01	9.1035	60.119007	0.000345	3.445666	0.583712	0.000069
 459	4.5571e+01	9.1227	60.228010	0.000547	5.472529	0.927071	0.000110
 460	4.5670e+01	9.1427	60.292604	0.000324	3.242980	0.549376	0.000065
 461	4.5770e+01	9.1631	60.369309	0.000385	3.851039	0.652384	0.000077
 462	4.5870e+01	9.1831	60.462163	0.000466	4.661784	0.789728	0.000093
 463	4.5969e+01	9.2023	60.559055	0.000486	4.864470	0.824064	0.000097
 464	4.6069e+01	9.2212	60.639797	0.000405	4.053725	0.686720	0.000081
 465	4.6168e+01	9.2416	60.724577	0.000426	4.256411	0.721056	0.000085
 466	4.6267e+01	9.2612	60.797246	0.000365	3.648352	0.618048	0.000073
 467	4.6367e+01	9.2803	60.910285	0.000568	5.675215	0.961407	0.000114
 468	4.6467e+01	9.3018	61.007177	0.000486	4.864470	0.824064	0.000097
 469	4.6566e+01	9.3213	61.091957	0.000426	4.256411	0.721056	0.000085
 470	4.6666e+01	9.3421	61.180774	0.000446	4.459097	0.755392	0.000089
 471	4.6765e+01	9.3613	61.261516	0.000405	4.053725	0.686720	0.000081
 472	4.6864e+01	9.3809	61.338222	0.000385	3.851039	0.652384	0.000077
 473	4.6964e+01	9.4015	61.439150	0.000507	5.067156	0.858400	0.000101
 474	4.7063e+01	9.4204	61.527967	0.000446	4.459097	0.755392	0.000089
 475	4.7163e+01	9.4413	61.620821	0.000466	4.661784	0.789728	0.000093
 476	4.7263e+01	9.4607	61.713675	0.000466	4.661784	0.789728	0.000093
 477	4.7362e+01	9.4803	61.737898	0.000122	1.216117	0.206016	0.000024
 478	4.7462e+01	9.5000	61.850938	0.000568	5.675215	0.961407	0.000114
 479	4.7561e+01	9.5210	61.972052	0.000608	6.080587	1.030079	0.000122
 480	4.7660e+01	9.5400	62.032609	0.000304	3.040294	0.515040	0.000061
 481	4.7760e+01	9.5596	62.117389	0.000426	4.256411	0.721056	0.000085
 482	4.7859e+01	9.5803	62.214280	0.000486	4.864470	0.824064	0.000097
 483	4.7959e+01	9.5998	62.311172	0.000486	4.864470	0.824064	0.000097
 484	4.8059e+01	9.6199	62.416137	0.000527	5.269842	0.892735	0.000105
 485	4.8158e+01	9.6395	62.464583	0.000243	2.432235	0.412032	0.000049
 486	4.8258e+01	9.6604	62.541288	0.000385	3.851039	0.652384	0.000077
 487	4.8357e+01	9.6798	62.654328	0.000568	5.675215	0.961407	0.000114
 488	4.8456e+01	9.6997	62.706811	0.000263	2.634921	0.446368	0.000053
 489	4.8556e+01	9.7193	62.823888	0.000588	5.877901	0.995743	0.000118
 490	4.8656e+01	9.7388	62.908668	0.000426	4.256411	0.721056	0.000085
 491	4.8755e+01	9.7591	63.001522	0.000466	4.661784	0.789728	0.000093
 492	4.8855e+01	9.7796	63.074190	0.000365	3.648352	0.618048	0.000073
 493	4.8954e+01	9.7988	63.154933	0.000405	4.053725	0.686720	0.000081
 494	4.9053e+01	9.8193	63.259898	0.000527	5.269842	0.892735	0.000105
 495	4.9153e+01	9.8391	63.368901	0.000547	5.472529	0.927071	0.000110
 496	4.9252e+01	9.8577	63.449644	0.000405	4.053725	0.686720	0.000081
 497	4.9352e+01	9.8794	63.514238	0.000324	3.242980	0.549376	0.000065
 498	4.9452e+01	9.8995	63.619204	0.000527	5.269842	0.892735	0.000105
 499	4.9551e+01	9.9181	63.691872	0.000365	3.648352	0.618048	0.000073
 500	4.9651e+01	9.9383	63.760503	0.000345	3.445666	0.583712	0.000069
 501	4.9750e+01	9.9585	63.841246	0.000405	4.053725	0.686720	0.000081
 502	4.9849e+01	9.9784	63.982546	0.000709	7.094019	1.201759	0.000142
 503	4.9949e+01	9.9982	64.022917	0.000203	2.026862	0.343360	0.000041
 504	5.0048e+01	9.9784	63.970434	0.000263	2.634921	0.446368	-0.000053
 505	5.0148e+01	9.9586	63.966397	0.000020	0.202686	0.034336	-0.000004
 506	5.0248e+01	9.9390	63.917952	0.000243	2.432235	0.412032	-0.000049
 507	5.0347e+01	9.9194	63.885654	0.000162	1.621490	0.274688	-0.000032
 508	5.0447e+01	9.8991	63.829135	0.000284	2.837607	0.480704	-0.000057
 509	5.0546e+01	9.8794	63.748392	0.000405	4.053725	0.686720	-0.000081
 510	5.0645e+01	9.8592	63.699946	0.000243	2.432235	0.412032	-0.000049
 511	5.0745e+01	9.8389	63.655538	0.000223	2.229549	0.377696	-0.000045
 512	5.0844e+01	9.8193	63.647463	0.000041	0.405372	0.068672	-0.000008
 513	5.0944e+01	9.7998	63.558646	0.000446	4.459097	0.755392	-0.000089
 514	5.1044e+01	9.7797	63.546535	0.000061	0.608059	0.103008	-0.000012
 515	5.1143e+01	9.7594	63.485978	0.000304	3.040294	0.515040	-0.000061
 516	5.1242e+01	9.7388	63.385050	0.000507	5.067156	0.858400	-0.000101
 517	5.1342e+01	9.7196	63.344678	0.000203	2.026862	0.343360	-0.000041
 518	5.1441e+01	9.6999	63.300270	0.000223	2.229549	0.377696	-0.000045
 519	5.1541e+01	9.6803	63.280084	0.000101	1.013431	0.171680	-0.000020
 520	5.1641e+01	9.6606	63.175119	0.000527	5.269842	0.892735	-0.000105
 521	5.1740e+01	9.6399	63.146859	0.000142	1.418804	0.240352	-0.000028
 522	5.1840e+01	9.6198	63.062079	0.000426	4.256411	0.721056	-0.000085
 523	5.1939e+01	9.5996	62.997485	0.000324	3.242980	0.549376	-0.000065
 524	5.2038e+01	9.5801	62.961150	0.000182	1.824176	0.309024	-0.000037
 525	5.2138e+01	9.5596	62.920779	0.000203	2.026862	0.343360	-0.000041
 526	5.2237e+01	9.5398	62.823888	0.000486	4.864470	0.824064	-0.000097
 527	5.2337e+01	9.5210	62.759294	0.000324	3.242980	0.549376	-0.000065
 528	5.2437e+01	9.5013	62.775442	-0.000081	-0.810745	-0.137344	0.000016
 529	5.2536e+01	9.4813	62.678551	0.000486	4.864470	0.824064	-0.000097
 530	5.2636e+01	9.4604	62.617994	0.000304	3.040294	0.515040	-0.000061
 531	5.2735e+01	9.4413	62.549363	0.000345	3.445666	0.583712	-0.000069
 532	5.2834e+01	9.4214	62.496880	0.000263	2.634921	0.446368	-0.000053
 533	5.2934e+01	9.4007	62.460546	0.000182	1.824176	0.309024	-0.000037
 534	5.3033e+01	9.3807	62.391914	0.000345	3.445666	0.583712	-0.000069
 535	5.3133e+01	9.3616	62.311172	0.000405	4.053725	0.686720	-0.000081
 536	5.3233e+01	9.3408	62.278874	0.000162	1.621490	0.274688	-0.000032
 537	5.3332e+01	9.3215	62.218317	0.000304	3.040294	0.515040	-0.000061
 538	5.3431e+01	9.3018	62.153723	0.000324	3.242980	0.549376	-0.000065
 539	5.3531e+01	9.2812	62.121426	0.000162	1.621490	0.274688	-0.000032
 540	5.3630e+01	9.2619	62.028572	0.000466	4.661784	0.789728	-0.000093
 541	5.3730e+01	9.2416	61.955904	0.000365	3.648352	0.618048	-0.000073
 542	5.3830e+01	9.2220	61.899384	0.000284	2.837607	0.480704	-0.000057
 543	5.3929e+01	9.2020	61.846901	0.000263	2.634921	0.446368	-0.000053
 544	5.4029e+01	9.1810	61.778270	0.000345	3.445666	0.583712	-0.000069
 545	5.4128e+01	9.1631	61.741935	0.000182	1.824176	0.309024	-0.000037
 546	5.4227e+01	9.1431	61.701564	0.000203	2.026862	0.343360	-0.000041
 547	5.4327e+01	9.1216	61.624858	0.000385	3.851039	0.652384	-0.000077
 548	5.4426e+01	9.1029	61.544116	0.000405	4.053725	0.686720	-0.000081
 549	5.4526e+01	9.0821	61.519893	0.000122	1.216117	0.206016	-0.000024
 550	5.4626e+01	9.0625	61.423002	0.000486	4.864470	0.824064	-0.000097
 551	5.4725e+01	9.0418	61.354370	0.000345	3.445666	0.583712	-0.000069
 552	5.4825e+01	9.0224	61.322073	0.000162	1.621490	0.274688	-0.000032
 553	5.4924e+01	9.0033	61.225182	0.000486	4.864470	0.824064	-0.000097
 554	5.5023e+01	8.9827	61.156551	0.000345	3.445666	0.583712	-0.000069
 555	5.5123e+01	8.9630	61.120217	0.000182	1.824176	0.309024	-0.000037
 556	5.5222e+01	8.9425	61.051585	0.000345	3.445666	0.583712	-0.000069
 557	5.5322e+01	8.9234	60.978917	0.000365	3.648352	0.618048	-0.000073
 558	5.5422e+01	8.9038	60.918360	0.000304	3.040294	0.515040	-0.000061
 559	5.5521e+01	8.8831	60.857803	0.000304	3.040294	0.515040	-0.000061
 560	5.5620e+01	8.8634	60.817431	0.000203	2.026862	0.343360	-0.000041
 561	5.5720e+01	8.8428	60.728614	0.000446	4.459097	0.755392	-0.000089
 562	5.5819e+01	8.8241	60.684206	0.000223	2.229549	0.377696	-0.000045
 563	5.5919e+01	8.8042	60.591352	0.000466	4.661784	0.789728	-0.000093
 564	5.6019e+01	8.7842	60.522720	0.000345	3.445666	0.583712	-0.000069
 565	5.6118e+01	8.7653	60.462163	0.000304	3.040294	0.515040	-0.000061
 566	5.6218e+01	8.7440	60.405643	0.000284	2.837607	0.480704	-0.000057
 567	5.6317e+01	8.7251	60.361235	0.000223	2.229549	0.377696	-0.000045
 568	5.6416e+01	8.7051	60.248195	0.000568	5.675215	0.961407	-0.000114
 569	5.6516e+01	8.6842	60.207824	0.000203	2.026862	0.343360	-0.000041
 570	5.6615e+01	8.6645	60.135155	0.000365	3.648352	0.618048	-0.000073
 571	5.6715e+01	8.6451	60.090747	0.000223	2.229549	0.377696	-0.000045
 572	5.6815e+01	8.6251	60.042301	0.000243	2.432235	0.412032	-0.000049
 573	5.6914e+01	8.6050	59.961559	0.000405	4.053725	0.686720	-0.000081
 574	5.7014e+01	8.5855	59.868704	0.000466	4.661784	0.789728	-0.000093
 575	5.7113e+01	8.5651	59.836407	0.000162	1.621490	0.274688	-0.000032
 576	5.7212e+01	8.5440	59.775850	0.000304	3.040294	0.515040	-0.000061
 577	5.7312e+01	8.5265	59.715293	0.000304	3.040294	0.515040	-0.000061
 578	5.7411e+01	8.5060	59.598216	0.000588	5.877901	0.995743	-0.000118
 579	5.7511e+01	8.4847	59.561882	0.000182	1.824176	0.309024	-0.000037
 580	5.7611e+01	8.4646	59.464991	0.000486	4.864470	0.824064	-0.000097
 581	5.7710e+01	8.4454	59.432694	0.000162	1.621490	0.274688	-0.000032
 582	5.7809e+01	8.4264	59.347914	0.000426	4.256411	0.721056	-0.000085
 583	5.7909e+01	8.4054	59.246986	0.000507	5.067156	0.858400	-0.000101
 584	5.8008e+01	8.3866	59.190466	0.000284	2.837607	0.480704	-0.000057
 585	5.8108e+01	8.3666	59.162206	0.000142	1.418804	0.240352	-0.000028
 586	5.8208e+01	8.3459	59.069352	0.000466	4.661784	0.789728	-0.000093
 587	5.8307e+01	8.3267	58.996683	0.000365	3.648352	0.618048	-0.000073
 588	5.8407e+01	8.3065	58.944200	0.000263	2.634921	0.446368	-0.000053
 589	5.8506e+01	8.2858	58.827123	0.000588	5.877901	0.995743	-0.000118
 590	5.8605e+01	8.2666	58.802901	0.000122	1.216117	0.206016	-0.000024
 591	5.8705e+01	8.2462	58.673712	0.000649	6.485960	1.098751	-0.000130
 592	5.8804e+01	8.2254	58.665638	0.000041	0.405372	0.068672	-0.000008
 593	5.8904e+01	8.2073	58.601044	0.000324	3.242980	0.549376	-0.000065
 594	5.9004e+01	8.1863	58.532412	0.000345	3.445666	0.583712	-0.000069
 595	5.9103e+01	8.1666	58.443596	0.000446	4.459097	0.755392	-0.000089
 596	5.9203e+01	8.1464	58.399187	0.000223	2.229549	0.377696	-0.000045
 597	5.9302e+01	8.1281	58.294221	0.000527	5.269842	0.892735	-0.000105
 598	5.9401e+01	8.1060	58.233664	0.000304	3.040294	0.515040	-0.000061
 599	5.9501e+01	8.0860	58.120625	0.000568	5.675215	0.961407	-0.000114
 600	5.9600e+01	8.0676	58.076216	0.000223	2.229549	0.377696	-0.000045
 601	5.9700e+01	8.0486	58.007585	0.000345	3.445666	0.583712	-0.000069
 602	5.9800e+01	8.0270	57.955102	0.000263	2.634921	0.446368	-0.000053
 603	5.9899e+01	8.0080	57.886471	0.000345	3.445666	0.583712	-0.000069
 604	5.9998e+01	7.9877	57.809765	0.000385	3.851039	0.652384	-0.000077
 605	6.0098e+01	7.9684	57.712874	0.000486	4.864470	0.824064	-0.000097
 606	6.0197e+01	7.9473	57.664428	0.000243	2.432235	0.412032	-0.000049
 607	6.0297e+01	7.9285	57.591760	0.000365	3.648352	0.618048	-0.000073
 608	6.0397e+01	7.9072	57.527166	0.000324	3.242980	0.549376	-0.000065
 609	6.0496e+01	7.8883	57.430274	0.000486	4.864470	0.824064	-0.000097
 610	6.0596e+01	7.8683	57.369717	0.000304	3.040294	0.515040	-0.000061
 611	6.0695e+01	7.8481	57.276863	0.000466	4.661784	0.789728	-0.000093
 612	6.0794e+01	7.8278	57.252640	0.000122	1.216117	0.206016	-0.000024
 613	6.0894e+01	7.8083	57.135564	0.000588	5.877901	0.995743	-0.000118
 614	6.0993e+01	7.7876	57.115378	0.000101	1.013431	0.171680	-0.000020
 615	6.1093e+01	7.7682	56.970041	0.000730	7.296705	1.236095	-0.000146
 616	6.1193e+01	7.7483	56.957930	0.000061	0.608059	0.103008	-0.000012
 617	6.1292e+01	7.7280	56.861038	0.000486	4.864470	0.824064	-0.000097
 618	6.1392e+01	7.7093	56.808556	0.000263	2.634921	0.446368	-0.000053
 619	6.1491e+01	7.6887	56.703590	0.000527	5.269842	0.892735	-0.000105
 620	6.1590e+01	7.6691	56.638996	0.000324	3.242980	0.549376	-0.000065
 621	6.1690e+01	7.6490	56.529993	0.000547	5.472529	0.927071	-0.000110
 622	6.1789e+01	7.6283	56.517882	0.000061	0.608059	0.103008	-0.000012
 623	6.1889e+01	7.6083	56.420991	0.000486	4.864470	0.824064	-0.000097
 624	6.1989e+01	7.5892	56.356396	0.000324	3.242980	0.549376	-0.000065
 625	6.2088e+01	7.5694	56.279691	0.000385	3.851039	0.652384	-0.000077
 626	6.2188e+01	7.5491	56.207022	0.000365	3.648352	0.618048	-0.000073
 627	6.2287e+01	7.5305	56.134354	0.000365	3.648352	0.618048	-0.000073
 628	6.2386e+01	7.5095	56.045537	0.000446	4.459097	0.755392	-0.000089
 629	6.2486e+01	7.4905	56.001128	0.000223	2.229549	0.377696	-0.000045
 630	6.2586e+01	7.4698	55.884051	0.000588	5.877901	0.995743	-0.000118
 631	6.2685e+01	7.4502	55.795234	0.000446	4.459097	0.755392	-0.000089
 632	6.2785e+01	7.4299	55.742752	0.000263	2.634921	0.446368	-0.000053
 633	6.2884e+01	7.4104	55.694306	0.000243	2.432235	0.412032	-0.000049
 634	6.2983e+01	7.3904	55.613563	0.000405	4.053725	0.686720	-0.000081
 635	6.3083e+01	7.3690	55.548969	0.000324	3.242980	0.549376	-0.000065
 636	6.3182e+01	7.3500	55.431892	0.000588	5.877901	0.995743	-0.000118
 637	6.3282e+01	7.3310	55.351150	0.000405	4.053725	0.686720	-0.000081
 638	6.3382e+01	7.3096	55.310778	0.000203	2.026862	0.343360	-0.000041
 639	6.3481e+01	7.2901	55.230035	0.000405	4.053725	0.686720	-0.000081
 640	6.3581e+01	7.2710	55.149293	0.000405	4.053725	0.686720	-0.000081
 641	6.3680e+01	7.2518	55.068550	0.000405	4.053725	0.686720	-0.000081
 642	6.3779e+01	7.2301	54.959547	0.000547	5.472529	0.927071	-0.000110
 643	6.3879e+01	7.2100	54.907065	0.000263	2.634921	0.446368	-0.000053
 644	6.3978e+01	7.1912	54.802099	0.000527	5.269842	0.892735	-0.000105
 645	6.4078e+01	7.1711	54.777876	0.000122	1.216117	0.206016	-0.000024
 646	6.4177e+01	7.1507	54.685022	0.000466	4.661784	0.789728	-0.000093
 647	6.4277e+01	7.1294	54.571982	0.000568	5.675215	0.961407	-0.000114
 648	6.4376e+01	7.1127	54.515462	0.000284	2.837607	0.480704	-0.000057
 649	6.4476e+01	7.0919	54.446831	0.000345	3.445666	0.583712	-0.000069
 650	6.4576e+01	7.0705	54.358014	0.000446	4.459097	0.755392	-0.000089
 651	6.4675e+01	7.0517	54.305531	0.000263	2.634921	0.446368	-0.000053
 652	6.4775e+01	7.0313	54.200566	0.000527	5.269842	0.892735	-0.000105
 653	6.4874e+01	7.0116	54.095600	0.000527	5.269842	0.892735	-0.000105
 654	6.4974e+01	6.9909	54.047155	0.000243	2.432235	0.412032	-0.000049
 655	6.5073e+01	6.9719	53.966412	0.000405	4.053725	0.686720	-0.000081
 656	6.5172e+01	6.9511	53.849335	0.000588	5.877901	0.995743	-0.000118
 657	6.5272e+01	6.9317	53.841261	0.000041	0.405372	0.068672	-0.000008
 658	6.5371e+01	6.9122	53.720147	0.000608	6.080587	1.030079	-0.000122
 659	6.5471e+01	6.8913	53.671701	0.000243	2.432235	0.412032	-0.000049
 660	6.5570e+01	6.8731	53.518290	0.000770	7.702077	1.304767	-0.000154
 661	6.5670e+01	6.8522	53.481956	0.000182	1.824176	0.309024	-0.000037
 662	6.5769e+01	6.8320	53.437547	0.000223	2.229549	0.377696	-0.000045
 663	6.5869e+01	6.8124	53.364879	0.000365	3.648352	0.618048	-0.000073
 664	6.5969e+01	6.7913	53.219542	0.000730	7.296705	1.236095	-0.000146
 665	6.6068e+01	6.7727	53.179171	0.000203	2.026862	0.343360	-0.000041
 666	6.6168e+01	6.7527	53.082279	0.000486	4.864470	0.824064	-0.000097
 667	6.6267e+01	6.7329	53.005574	0.000385	3.851039	0.652384	-0.000077
 668	6.6367e+01	6.7126	52.924831	0.000405	4.053725	0.686720	-0.000081
 669	6.6466e+01	6.6933	52.844088	0.000405	4.053725	0.686720	-0.000081
 670	6.6566e+01	6.6724	52.779494	0.000324	3.242980	0.549376	-0.000065
 671	6.6665e+01	6.6521	52.674529	0.000527	5.269842	0.892735	-0.000105
 672	6.6764e+01	6.6329	52.597823	0.000385	3.851039	0.652384	-0.000077
 673	6.6864e+01	6.6131	52.521117	0.000385	3.851039	0.652384	-0.000077
 674	6.6963e+01	6.5932	52.492857	0.000142	1.418804	0.240352	-0.000028
 675	6.7063e+01	6.5734	52.387892	0.000527	5.269842	0.892735	-0.000105
 676	6.7162e+01	6.5530	52.291001	0.000486	4.864470	0.824064	-0.000097
 677	6.7262e+01	6.5334	52.214295	0.000385	3.851039	0.652384	-0.000077
 678	6.7362e+01	6.5127	52.137589	0.000385	3.851039	0.652384	-0.000077
 679	6.7461e+01	6.4931	52.024550	0.000568	5.675215	0.961407	-0.000114
 680	6.7561e+01	6.4733	51.931696	0.000466	4.661784	0.789728	-0.000093
 681	6.7660e+01	6.4536	51.919584	0.000061	0.608059	0.103008	-0.000012
 682	6.7760e+01	6.4342	51.786359	0.000669	6.688646	1.133087	-0.000134
 683	6.7859e+01	6.4123	51.709653	0.000385	3.851039	0.652384	-0.000077
 684	6.7959e+01	6.3934	51.649096	0.000304	3.040294	0.515040	-0.000061
 685	6.8058e+01	6.3734	51.552205	0.000486	4.864470	0.824064	-0.000097
 686	6.8157e+01	6.3538	51.451276	0.000507	5.067156	0.858400	-0.000101
 687	6.8257e+01	6.3329	51.382645	0.000345	3.445666	0.583712	-0.000069
 688	6.8356e+01	6.3137	51.297865	0.000426	4.256411	0.721056	-0.000085
 689	6.8456e+01	6.2957	51.205011	0.000466	4.661784	0.789728	-0.000093
 690	6.8555e+01	6.2737	51.172714	0.000162	1.621490	0.274688	-0.000032
 691	6.8655e+01	6.2547	51.059674	0.000568	5.675215	0.961407	-0.000114
 692	6.8754e+01	6.2356	50.970857	0.000446	4.459097	0.755392	-0.000089
 693	6.8854e+01	6.2151	50.894152	0.000385	3.851039	0.652384	-0.000077
 694	6.8954e+01	6.1950	50.797260	0.000486	4.864470	0.824064	-0.000097
 695	6.9053e+01	6.1749	50.704406	0.000466	4.661784	0.789728	-0.000093
 696	6.9153e+01	6.1554	50.619626	0.000426	4.256411	0.721056	-0.000085
 697	6.9252e+01	6.1353	50.575218	0.000223	2.229549	0.377696	-0.000045
 698	6.9352e+01	6.1156	50.466215	0.000547	5.472529	0.927071	-0.000110
 699	6.9451e+01	6.0958	50.417770	0.000243	2.432235	0.412032	-0.000049
 700	6.9550e+01	6.0768	50.276470	0.000709	7.094019	1.201759	-0.000142
 701	6.9650e+01	6.0549	50.179579	0.000486	4.864470	0.824064	-0.000097
 702	6.9749e+01	6.0361	50.139207	0.000203	2.026862	0.343360	-0.000041
 703	6.9849e+01	6.0165	50.054427	0.000426	4.256411	0.721056	-0.000085
 704	6.9948e+01	5.9958	49.969648	0.000426	4.256411	0.721056	-0.000085
 705	7.0048e+01	5.9768	49.860645	0.000547	5.472529	0.927071	-0.000110
 706	7.0147e+01	5.9557	49.804125	0.000284	2.837607	0.480704	-0.000057
 707	7.0247e+01	5.9364	49.650714	0.000770	7.702077	1.304767	-0.000154
 708	7.0347e+01	5.9167	49.606305	0.000223	2.229549	0.377696	-0.000045
 709	7.0446e+01	5.8953	49.513451	0.000466	4.661784	0.789728	-0.000093
 710	7.0546e+01	5.8762	49.444820	0.000345	3.445666	0.583712	-0.000069
 711	7.0645e+01	5.8579	49.343892	0.000507	5.067156	0.858400	-0.000101
 712	7.0745e+01	5.8367	49.251037	0.000466	4.661784	0.789728	-0.000093
 713	7.0844e+01	5.8169	49.166258	0.000426	4.256411	0.721056	-0.000085
 714	7.0944e+01	5.7968	49.057255	0.000547	5.472529	0.927071	-0.000110
 715	7.1043e+01	5.7764	48.996698	0.000304	3.040294	0.515040	-0.000061
 716	7.1142e+01	5.7568	48.924029	0.000365	3.648352	0.618048	-0.000073
 717	7.1242e+01	5.7363	48.823101	0.000507	5.067156	0.858400	-0.000101
 718	7.1341e+01	5.7172	48.722173	0.000507	5.067156	0.858400	-0.000101
 719	7.1441e+01	5.6966	48.645467	0.000385	3.851039	0.652384	-0.000077
 720	7.1540e+01	5.6770	48.556650	0.000446	4.459097	0.755392	-0.000089
 721	7.1640e+01	5.6576	48.447647	0.000547	5.472529	0.927071	-0.000110
 722	7.1740e+01	5.6380	48.407276	0.000203	2.026862	0.343360	-0.000041
 723	7.1839e+01	5.6173	48.261939	0.000730	7.296705	1.236095	-0.000146
 724	7.1939e+01	5.5976	48.161011	0.000507	5.067156	0.858400	-0.000101
 725	7.2038e+01	5.5767	48.100454	0.000304	3.040294	0.515040	-0.000061
 726	7.2138e+01	5.5572	48.039897	0.000304	3.040294	0.515040	-0.000061
 727	7.2237e+01	5.5384	47.971265	0.000345	3.445666	0.583712	-0.000069
 728	7.2337e+01	5.5177	47.858226	0.000568	5.675215	0.961407	-0.000114
 729	7.2436e+01	5.4986	47.773446	0.000426	4.256411	0.721056	-0.000085
 730	7.2535e+01	5.4768	47.668480	0.000527	5.269842	0.892735	-0.000105
 731	7.2635e+01	5.4578	47.583700	0.000426	4.256411	0.721056	-0.000085
 732	7.2734e+01	5.4378	47.502958	0.000405	4.053725	0.686720	-0.000081
 733	7.2834e+01	5.4183	47.410104	0.000466	4.661784	0.789728	-0.000093
 734	7.2933e+01	5.3976	47.325324	0.000426	4.256411	0.721056	-0.000085
 735	7.3033e+01	5.3780	47.236507	0.000446	4.459097	0.755392	-0.000089
 736	7.3132e+01	5.3582	47.147690	0.000446	4.459097	0.755392	-0.000089
 737	7.3232e+01	5.3396	47.042724	0.000527	5.269842	0.892735	-0.000105
 738	7.3332e+01	5.3182	46.982167	0.000304	3.040294	0.515040	-0.000061
 739	7.3431e+01	5.2991	46.869127	0.000568	5.675215	0.961407	-0.000114
 740	7.3531e+01	5.2783	46.772236	0.000486	4.864470	0.824064	-0.000097
 741	7.3630e+01	5.2590	46.687456	0.000426	4.256411	0.721056	-0.000085
 742	7.3730e+01	5.2393	46.606714	0.000405	4.053725	0.686720	-0.000081
 743	7.3829e+01	5.2190	46.489637	0.000588	5.877901	0.995743	-0.000118
 744	7.3928e+01	5.1986	46.404857	0.000426	4.256411	0.721056	-0.000085
 745	7.4028e+01	5.1788	46.312003	0.000466	4.661784	0.789728	-0.000093
 746	7.4127e+01	5.1597	46.247408	0.000324	3.242980	0.549376	-0.000065
 747	7.4227e+01	5.1379	46.154554	0.000466	4.661784	0.789728	-0.000093
 748	7.4326e+01	5.1186	46.037477	0.000588	5.877901	0.995743	-0.000118
 749	7.4426e+01	5.1006	45.940586	0.000486	4.864470	0.824064	-0.000097
 750	7.4525e+01	5.0792	45.851769	0.000446	4.459097	0.755392	-0.000089
 751	7.4625e+01	5.0597	45.775064	0.000385	3.851039	0.652384	-0.000077
 752	7.4725e+01	5.0400	45.686247	0.000446	4.459097	0.755392	-0.000089
 753	7.4824e+01	5.0205	45.589355	0.000486	4.864470	0.824064	-0.000097
 754	7.4924e+01	4.9938	45.524761	0.000324	3.242980	0.549376	-0.000065
 755	7.5023e+01	4.9792	45.399610	0.000628	6.283274	1.064415	-0.000126
 756	7.5123e+01	4.9605	45.310793	0.000446	4.459097	0.755392	-0.000089
 757	7.5222e+01	4.9400	45.246199	0.000324	3.242980	0.549376	-0.000065
 758	7.5322e+01	4.9202	45.108936	0.000689	6.891332	1.167423	-0.000138
 759	7.5421e+01	4.9002	45.040305	0.000345	3.445666	0.583712	-0.000069
 760	7.5520e+01	4.8802	44.939376	0.000507	5.067156	0.858400	-0.000101
 761	7.5620e+01	4.8611	44.850559	0.000446	4.459097	0.755392	-0.000089
 762	7.5719e+01	4.8404	44.753668	0.000486	4.864470	0.824064	-0.000097
 763	7.5819e+01	4.8209	44.656777	0.000486	4.864470	0.824064	-0.000097
 764	7.5918e+01	4.8000	44.580071	0.000385	3.851039	0.652384	-0.000077
 765	7.6018e+01	4.7807	44.471069	0.000547	5.472529	0.927071	-0.000110
 766	7.6118e+01	4.7623	44.402437	0.000345	3.445666	0.583712	-0.000069
 767	7.6217e+01	4.7411	44.273249	0.000649	6.485960	1.098751	-0.000130
 768	7.6317e+01	4.7214	44.184432	0.000446	4.459097	0.755392	-0.000089
 769	7.6416e+01	4.7015	44.079467	0.000527	5.269842	0.892735	-0.000105
 770	7.6516e+01	4.6807	43.994687	0.000426	4.256411	0.721056	-0.000085
 771	7.6615e+01	4.6609	43.905870	0.000446	4.459097	0.755392	-0.000089
 772	7.6715e+01	4.6410	43.821090	0.000426	4.256411	0.721056	-0.000085
 773	7.6814e+01	4.6212	43.712087	0.000547	5.472529	0.927071	-0.000110
 774	7.6913e+01	4.6017	43.647493	0.000324	3.242980	0.549376	-0.000065
 775	7.7013e+01	4.5815	43.530416	0.000588	5.877901	0.995743	-0.000118
 776	7.7112e+01	4.5619	43.425451	0.000527	5.269842	0.892735	-0.000105
 777	7.7212e+01	4.5422	43.360856	0.000324	3.242980	0.549376	-0.000065
 778	7.7311e+01	4.5222	43.243779	0.000588	5.877901	0.995743	-0.000118
 779	7.7411e+01	4.5010	43.154962	0.000446	4.459097	0.755392	-0.000089
 780	7.7510e+01	4.4820	43.066145	0.000446	4.459097	0.755392	-0.000089
 781	7.7610e+01	4.4621	42.981366	0.000426	4.256411	0.721056	-0.000085
 782	7.7710e+01	4.4417	42.868326	0.000568	5.675215	0.961407	-0.000114
 783	7.7809e+01	4.4222	42.755286	0.000568	5.675215	0.961407	-0.000114
 784	7.7909e+01	4.4013	42.682618	0.000365	3.648352	0.618048	-0.000073
 785	7.8008e+01	4.3829	42.569578	0.000568	5.675215	0.961407	-0.000114
 786	7.8108e+01	4.3615	42.472687	0.000486	4.864470	0.824064	-0.000097
 787	7.8207e+01	4.3436	42.400018	0.000365	3.648352	0.618048	-0.000073
 788	7.8306e+01	4.3227	42.282941	0.000588	5.877901	0.995743	-0.000118
 789	7.8406e+01	4.3032	42.177976	0.000527	5.269842	0.892735	-0.000105
 790	7.8505e+01	4.2840	42.101270	0.000385	3.851039	0.652384	-0.000077
 791	7.8605e+01	4.2626	41.992267	0.000547	5.472529	0.927071	-0.000110
 792	7.8704e+01	4.2428	41.855005	0.000689	6.891332	1.167423	-0.000138
 793	7.8804e+01	4.2229	41.802522	0.000263	2.634921	0.446368	-0.000053
 794	7.8903e+01	4.2034	41.697556	0.000527	5.269842	0.892735	-0.000105
 795	7.9003e+01	4.1824	41.584517	0.000568	5.675215	0.961407	-0.000114
 796	7.9103e+01	4.1621	41.479551	0.000527	5.269842	0.892735	-0.000105
 797	7.9202e+01	4.1433	41.410920	0.000345	3.445666	0.583712	-0.000069
 798	7.9302e+01	4.1232	41.285769	0.000628	6.283274	1.064415	-0.000126
 799	7.9401e+01	4.1038	41.205026	0.000405	4.053725	0.686720	-0.000081
 800	7.9501e+01	4.0827	41.096023	0.000547	5.472529	0.927071	-0.000110
 801	7.9600e+01	4.0636	41.031429	0.000324	3.242980	0.549376	-0.000065
 802	7.9700e+01	4.0433	40.878018	0.000770	7.702077	1.304767	-0.000154
 803	7.9799e+01	4.0230	40.829572	0.000243	2.432235	0.412032	-0.000049
 804	7.9898e+01	4.0037	40.744792	0.000426	4.256411	0.721056	-0.000085
 805	7.9998e+01	3.9841	40.575233	0.000851	8.512822	1.442111	-0.000170
 806	8.0097e+01	3.9640	40.518713	0.000284	2.837607	0.480704	-0.000057
 807	8.0197e+01	3.9439	40.417784	0.000507	5.067156	0.858400	-0.000101
 808	8.0296e+01	3.9243	40.300708	0.000588	5.877901	0.995743	-0.000118
 809	8.0396e+01	3.9033	40.236113	0.000324	3.242980	0.549376	-0.000065
 810	8.0496e+01	3.8842	40.159408	0.000385	3.851039	0.652384	-0.000077
 811	8.0595e+01	3.8647	40.018108	0.000709	7.094019	1.201759	-0.000142
 812	8.0695e+01	3.8438	39.917180	0.000507	5.067156	0.858400	-0.000101
 813	8.0794e+01	3.8244	39.828363	0.000446	4.459097	0.755392	-0.000089
 814	8.0894e+01	3.8041	39.707249	0.000608	6.080587	1.030079	-0.000122
 815	8.0993e+01	3.7841	39.650729	0.000284	2.837607	0.480704	-0.000057
 816	8.1093e+01	3.7652	39.497317	0.000770	7.702077	1.304767	-0.000154
 817	8.1192e+01	3.7458	39.424649	0.000365	3.648352	0.618048	-0.000073
 818	8.1291e+01	3.7246	39.331795	0.000466	4.661784	0.789728	-0.000093
 819	8.1391e+01	3.7054	39.226829	0.000527	5.269842	0.892735	-0.000105
 820	8.1490e+01	3.6858	39.138012	0.000446	4.459097	0.755392	-0.000089
 821	8.1590e+01	3.6663	39.000750	0.000689	6.891332	1.167423	-0.000138
 822	8.1689e+01	3.6454	38.887710	0.000568	5.675215	0.961407	-0.000114
 823	8.1789e+01	3.6254	38.839264	0.000243	2.432235	0.412032	-0.000049
 824	8.1888e+01	3.6058	38.722187	0.000588	5.877901	0.995743	-0.000118
 825	8.1988e+01	3.5849	38.633370	0.000446	4.459097	0.755392	-0.000089
 826	8.2088e+01	3.5654	38.512256	0.000608	6.080587	1.030079	-0.000122
 827	8.2187e+01	3.5464	38.415365	0.000486	4.864470	0.824064	-0.000097
 828	8.2287e+01	3.5262	38.306362	0.000547	5.472529	0.927071	-0.000110
 829	8.2386e+01	3.5057	38.177174	0.000649	6.485960	1.098751	-0.000130
 830	8.2486e+01	3.4855	38.092394	0.000426	4.256411	0.721056	-0.000085
 831	8.2585e+01	3.4663	37.983392	0.000547	5.472529	0.927071	-0.000110
 832	8.2684e+01	3.4462	37.910723	0.000365	3.648352	0.618048	-0.000073
 833	8.2784e+01	3.4260	37.777498	0.000669	6.688646	1.133087	-0.000134
 834	8.2883e+01	3.4060	37.716941	0.000304	3.040294	0.515040	-0.000061
 835	8.2983e+01	3.3865	37.575641	0.000709	7.094019	1.201759	-0.000142
 836	8.3082e+01	3.3669	37.466638	0.000547	5.472529	0.927071	-0.000110
 837	8.3182e+01	3.3458	37.353598	0.000568	5.675215	0.961407	-0.000114
 838	8.3281e+01	3.3263	37.305153	0.000243	2.432235	0.412032	-0.000049
 839	8.3381e+01	3.3068	37.167890	0.000689	6.891332	1.167423	-0.000138
 840	8.3481e+01	3.2870	37.054850	0.000568	5.675215	0.961407	-0.000114
 841	8.3580e+01	3.2658	36.945848	0.000547	5.472529	0.927071	-0.000110
 842	8.3680e+01	3.2471	36.852994	0.000466	4.661784	0.789728	-0.000093
 843	8.3779e+01	3.2269	36.796474	0.000284	2.837607	0.480704	-0.000057
 844	8.3879e+01	3.2069	36.663248	0.000669	6.688646	1.133087	-0.000134
 845	8.3978e+01	3.1860	36.574431	0.000446	4.459097	0.755392	-0.000089
 846	8.4078e+01	3.1666	36.481577	0.000466	4.661784	0.789728	-0.000093
 847	8.4177e+01	3.1469	36.340277	0.000709	7.094019	1.201759	-0.000142
 848	8.4276e+01	3.1284	36.227238	0.000568	5.675215	0.961407	-0.000114
 849	8.4376e+01	3.1078	36.110161	0.000588	5.877901	0.995743	-0.000118
 850	8.4475e+01	3.0875	36.029418	0.000405	4.053725	0.686720	-0.000081
 851	8.4575e+01	3.0676	35.972898	0.000284	2.837607	0.480704	-0.000057
 852	8.4674e+01	3.0477	35.819487	0.000770	7.702077	1.304767	-0.000154
 853	8.4774e+01	3.0284	35.674150	0.000730	7.296705	1.236095	-0.000146
 854	8.4874e+01	3.0081	35.577259	0.000486	4.864470	0.824064	-0.000097
 855	8.4973e+01	2.9878	35.496516	0.000405	4.053725	0.686720	-0.000081
 856	8.5073e+01	2.9675	35.367328	0.000649	6.485960	1.098751	-0.000130
 857	8.5172e+01	2.9475	35.310808	0.000284	2.837607	0.480704	-0.000057
 858	8.5272e+01	2.9272	35.193731	0.000588	5.877901	0.995743	-0.000118
 859	8.5371e+01	2.9079	35.040320	0.000770	7.702077	1.304767	-0.000154
 860	8.5471e+01	2.8880	34.959577	0.000405	4.053725	0.686720	-0.000081
 861	8.5570e+01	2.8683	34.854611	0.000527	5.269842	0.892735	-0.000105
 862	8.5669e+01	2.8471	34.769832	0.000426	4.256411	0.721056	-0.000085
 863	8.5769e+01	2.8275	34.616420	0.000770	7.702077	1.304767	-0.000154
 864	8.5868e+01	2.8088	34.507418	0.000547	5.472529	0.927071	-0.000110
 865	8.5968e+01	2.7893	34.402452	0.000527	5.269842	0.892735	-0.000105
 866	8.6067e+01	2.7685	34.313635	0.000446	4.459097	0.755392	-0.000089
 867	8.6167e+01	2.7483	34.216744	0.000486	4.864470	0.824064	-0.000097
 868	8.6266e+01	2.7290	34.107741	0.000547	5.472529	0.927071	-0.000110
 869	8.6366e+01	2.7091	33.990664	0.000588	5.877901	0.995743	-0.000118
 870	8.6466e+01	2.6888	33.909922	0.000405	4.053725	0.686720	-0.000081
 871	8.6565e+01	2.6683	33.780733	0.000649	6.485960	1.098751	-0.000130
 872	8.6665e+01	2.6485	33.699991	0.000405	4.053725	0.686720	-0.000081
 873	8.6764e+01	2.6293	33.599062	0.000507	5.067156	0.858400	-0.000101
 874	8.6864e+01	2.6084	33.481985	0.000588	5.877901	0.995743	-0.000118
 875	8.6963e+01	2.5898	33.328574	0.000770	7.702077	1.304767	-0.000154
 876	8.7063e+01	2.5684	33.243794	0.000426	4.256411	0.721056	-0.000085
 877	8.7162e+01	2.5491	33.146903	0.000486	4.864470	0.824064	-0.000097
 878	8.7261e+01	2.5287	33.005603	0.000709	7.094019	1.201759	-0.000142
 879	8.7361e+01	2.5097	32.941009	0.000324	3.242980	0.549376	-0.000065
 880	8.7460e+01	2.4901	32.815858	0.000628	6.283274	1.064415	-0.000126
 881	8.7560e+01	2.4691	32.727041	0.000446	4.459097	0.755392	-0.000089
 882	8.7659e+01	2.4503	32.614001	0.000568	5.675215	0.961407	-0.000114
 883	8.7759e+01	2.4294	32.488850	0.000628	6.283274	1.064415	-0.000126
 884	8.7859e+01	2.4104	32.347550	0.000709	7.094019	1.201759	-0.000142
 885	8.7958e+01	2.3890	32.262770	0.000426	4.256411	0.721056	-0.000085
 886	8.8058e+01	2.3703	32.157805	0.000527	5.269842	0.892735	-0.000105
 887	8.8157e+01	2.3486	32.032654	0.000628	6.283274	1.064415	-0.000126
 888	8.8257e+01	2.3298	31.943837	0.000446	4.459097	0.755392	-0.000089
 889	8.8356e+01	2.3106	31.830797	0.000568	5.675215	0.961407	-0.000114
 890	8.8456e+01	2.2899	31.741980	0.000446	4.459097	0.755392	-0.000089
 891	8.8555e+01	2.2697	31.620866	0.000608	6.080587	1.030079	-0.000122
 892	8.8654e+01	2.2507	31.491677	0.000649	6.485960	1.098751	-0.000130
 893	8.8754e+01	2.2314	31.423046	0.000345	3.445666	0.583712	-0.000069
 894	8.8853e+01	2.2110	31.281746	0.000709	7.094019	1.201759	-0.000142
 895	8.8953e+01	2.1918	31.156595	0.000628	6.283274	1.064415	-0.000126
 896	8.9052e+01	2.1708	31.079889	0.000385	3.851039	0.652384	-0.000077
 897	8.9152e+01	2.1511	30.970887	0.000547	5.472529	0.927071	-0.000110
 898	8.9251e+01	2.1317	30.873996	0.000486	4.864470	0.824064	-0.000097
 899	8.9351e+01	2.1116	30.740770	0.000669	6.688646	1.133087	-0.000134
 900	8.9451e+01	2.0911	30.647916	0.000466	4.661784	0.789728	-0.000093
 901	8.9550e+01	2.0724	30.502579	0.000730	7.296705	1.236095	-0.000146
 902	8.9650e+01	2.0509	30.405688	0.000486	4.864470	0.824064	-0.000097
 903	8.9749e+01	2.0307	30.312834	0.000466	4.661784	0.789728	-0.000093
 904	8.9849e+01	2.0110	30.159423	0.000770	7.702077	1.304767	-0.000154
 905	8.9948e+01	1.9924	30.062531	0.000486	4.864470	0.824064	-0.000097
 906	9.0047e+01	1.9714	29.933343	0.000649	6.485960	1.098751	-0.000130
 907	9.0147e+01	1.9511	29.840489	0.000466	4.661784	0.789728	-0.000093
 908	9.0246e+01	1.9318	29.759746	0.000405	4.053725	0.686720	-0.000081
 909	9.0346e+01	1.9125	29.598261	0.000811	8.107450	1.373439	-0.000162
 910	9.0445e+01	1.8920	29.541741	0.000284	2.837607	0.480704	-0.000057
 911	9.0545e+01	1.8708	29.416590	0.000628	6.283274	1.064415	-0.000126
 912	9.0644e+01	1.8519	29.295475	0.000608	6.080587	1.030079	-0.000122
 913	9.0744e+01	1.8320	29.174361	0.000608	6.080587	1.030079	-0.000122
 914	9.0844e+01	1.8124	29.020950	0.000770	7.702077	1.304767	-0.000154
 915	9.0943e+01	1.7912	28.944245	0.000385	3.851039	0.652384	-0.000077
 916	9.1043e+01	1.7728	28.823131	0.000608	6.080587	1.030079	-0.000122
 917	9.1142e+01	1.7521	28.758536	0.000324	3.242980	0.549376	-0.000065
 918	9.1242e+01	1.7327	28.621274	0.000689	6.891332	1.167423	-0.000138
 919	9.1341e+01	1.7121	28.520345	0.000507	5.067156	0.858400	-0.000101
 920	9.1441e+01	1.6927	28.350786	0.000851	8.512822	1.442111	-0.000170
 921	9.1540e+01	1.6729	28.225635	0.000628	6.283274	1.064415	-0.000126
 922	9.1639e+01	1.6523	28.157003	0.000345	3.445666	0.583712	-0.000069
 923	9.1739e+01	1.6341	28.027815	0.000649	6.485960	1.098751	-0.000130
 924	9.1838e+01	1.6122	27.922849	0.000527	5.269842	0.892735	-0.000105
 925	9.1938e+01	1.5922	27.817884	0.000527	5.269842	0.892735	-0.000105
 926	9.2037e+01	1.5732	27.688695	0.000649	6.485960	1.098751	-0.000130
 927	9.2137e+01	1.5540	27.599878	0.000446	4.459097	0.755392	-0.000089
 928	9.2237e+01	1.5327	27.478764	0.000608	6.080587	1.030079	-0.000122
 929	9.2336e+01	1.5131	27.393985	0.000426	4.256411	0.721056	-0.000085
 930	9.2436e+01	1.4929	27.196165	0.000993	9.931626	1.682463	-0.000199
 931	9.2535e+01	1.4728	27.135608	0.000304	3.040294	0.515040	-0.000061
 932	9.2635e+01	1.4536	27.030642	0.000527	5.269842	0.892735	-0.000105
 933	9.2734e+01	1.4349	26.881268	0.000750	7.499391	1.270431	-0.000150
 934	9.2834e+01	1.4129	26.780340	0.000507	5.067156	0.858400	-0.000101
 935	9.2933e+01	1.3942	26.643077	0.000689	6.891332	1.167423	-0.000138
 936	9.3032e+01	1.3729	26.566372	0.000385	3.851039	0.652384	-0.000077
 937	9.3132e+01	1.3538	26.429109	0.000689	6.891332	1.167423	-0.000138
 938	9.3231e+01	1.3334	26.320106	0.000547	5.472529	0.927071	-0.000110
 939	9.3331e+01	1.3135	26.219178	0.000507	5.067156	0.858400	-0.000101
 940	9.3430e+01	1.2940	26.094027	0.000628	6.283274	1.064415	-0.000126
 941	9.3530e+01	1.2728	25.964838	0.000649	6.485960	1.098751	-0.000130
 942	9.3629e+01	1.2551	25.859873	0.000527	5.269842	0.892735	-0.000105
 943	9.3729e+01	1.2353	25.746833	0.000568	5.675215	0.961407	-0.000114
 944	9.3829e+01	1.2146	25.653979	0.000466	4.661784	0.789728	-0.000093
 945	9.3928e+01	1.1956	25.508642	0.000730	7.296705	1.236095	-0.000146
 946	9.4028e+01	1.1752	25.371380	0.000689	6.891332	1.167423	-0.000138
 947	9.4127e+01	1.1554	25.250265	0.000608	6.080587	1.030079	-0.000122
 948	9.4227e+01	1.1353	25.133189	0.000588	5.877901	0.995743	-0.000118
 949	9.4326e+01	1.1155	25.020149	0.000568	5.675215	0.961407	-0.000114
 950	9.4425e+01	1.0953	24.935369	0.000426	4.256411	0.721056	-0.000085
 951	9.4525e+01	1.0754	24.810218	0.000628	6.283274	1.064415	-0.000126
 952	9.4624e+01	1.0550	24.737549	0.000365	3.648352	0.618048	-0.000073
 953	9.4724e+01	1.0351	24.572027	0.000831	8.310136	1.407775	-0.000166
 954	9.4823e+01	1.0163	24.410541	0.000811	8.107450	1.373439	-0.000162
 955	9.4923e+01	0.9959	24.337873	0.000365	3.648352	0.618048	-0.000073
 956	9.5022e+01	0.9760	24.220796	0.000588	5.877901	0.995743	-0.000118
 957	9.5122e+01	0.9559	24.136016	0.000426	4.256411	0.721056	-0.000085
 958	9.5222e+01	0.9367	24.014902	0.000608	6.080587	1.030079	-0.000122
 959	9.5321e+01	0.9164	23.857454	0.000790	7.904764	1.339103	-0.000158
 960	9.5421e+01	0.8958	23.748451	0.000547	5.472529	0.927071	-0.000110
 961	9.5520e+01	0.8766	23.607151	0.000709	7.094019	1.201759	-0.000142
 962	9.5620e+01	0.8562	23.526409	0.000405	4.053725	0.686720	-0.000081
 963	9.5719e+01	0.8365	23.381072	0.000730	7.296705	1.236095	-0.000146
 964	9.5819e+01	0.8160	23.300329	0.000405	4.053725	0.686720	-0.000081
 965	9.5918e+01	0.7966	23.163066	0.000689	6.891332	1.167423	-0.000138
 966	9.6017e+01	0.7763	23.086361	0.000385	3.851039	0.652384	-0.000077
 967	9.6117e+01	0.7549	22.920838	0.000831	8.310136	1.407775	-0.000166
 968	9.6216e+01	0.7363	22.799724	0.000608	6.080587	1.030079	-0.000122
 969	9.6316e+01	0.7167	22.718981	0.000405	4.053725	0.686720	-0.000081
 970	9.6415e+01	0.6963	22.597867	0.000608	6.080587	1.030079	-0.000122
 971	9.6515e+01	0.6766	22.464642	0.000669	6.688646	1.133087	-0.000134
 972	9.6615e+01	0.6567	22.339491	0.000628	6.283274	1.064415	-0.000126
 973	9.6714e+01	0.6373	22.222414	0.000588	5.877901	0.995743	-0.000118
 974	9.6814e+01	0.6170	22.093225	0.000649	6.485960	1.098751	-0.000130
 975	9.6913e+01	0.5963	21.988260	0.000527	5.269842	0.892735	-0.000105
 976	9.7013e+01	0.5771	21.879257	0.000547	5.472529	0.927071	-0.000110
 977	9.7112e+01	0.5582	21.729883	0.000750	7.499391	1.270431	-0.000150
 978	9.7212e+01	0.5382	21.637029	0.000466	4.661784	0.789728	-0.000093
 979	9.7311e+01	0.5169	21.495729	0.000709	7.094019	1.201759	-0.000142
 980	9.7410e+01	0.4980	21.398838	0.000486	4.864470	0.824064	-0.000097
 981	9.7510e+01	0.4775	21.269650	0.000649	6.485960	1.098751	-0.000130
 982	9.7609e+01	0.4571	21.156610	0.000568	5.675215	0.961407	-0.000114
 983	9.7709e+01	0.4376	21.067793	0.000446	4.459097	0.755392	-0.000089
 984	9.7808e+01	0.4174	20.898233	0.000851	8.512822	1.442111	-0.000170
 985	9.7908e+01	0.3991	20.781156	0.000588	5.877901	0.995743	-0.000118
 986	9.8007e+01	0.3782	20.664079	0.000588	5.877901	0.995743	-0.000118
 987	9.8107e+01	0.3583	20.555077	0.000547	5.472529	0.927071	-0.000110
 988	9.8207e+01	0.3381	20.425888	0.000649	6.485960	1.098751	-0.000130
 989	9.8306e+01	0.3188	20.320923	0.000527	5.269842	0.892735	-0.000105
 990	9.8406e+01	0.2979	20.240180	0.000405	4.053725	0.686720	-0.000081
 991	9.8505e+01	0.2776	20.058509	0.000912	9.120881	1.545119	-0.000183
 992	9.8605e+01	0.2587	19.949506	0.000547	5.472529	0.927071	-0.000110
 993	9.8704e+01	0.2383	19.824355	0.000628	6.283274	1.064415	-0.000126
 994	9.8803e+01	0.2184	19.719390	0.000527	5.269842	0.892735	-0.000105
 995	9.8903e+01	0.1989	19.594238	0.000628	6.283274	1.064415	-0.000126
 996	9.9002e+01	0.1787	19.461013	0.000669	6.688646	1.133087	-0.000134
 997	9.9102e+01	0.1598	19.339899	0.000608	6.080587	1.030079	-0.000122
 998	9.9201e+01	0.1388	19.251082	0.000446	4.459097	0.755392	-0.000089
 999	9.9301e+01	0.1188	19.129968	0.000608	6.080587	1.030079	-0.000122
1000	9.9400e+01	0.0994	18.972519	0.000790	7.904764	1.339103	-0.000158
1001	9.9500e+01	0.0795	18.871591	0.000507	5.067156	0.858400	-0.000101
1002	9.9600e+01	0.0589	18.722217	0.000750	7.499391	1.270431	-0.000150
1003	9.9699e+01	0.0390	18.613214	0.000547	5.472529	0.927071	-0.000110
1004	9.9799e+01	0.0182	18.471915	0.000709	7.094019	1.201759	-0.000142
1005	9.9898e+01	0.0000	18.362912	0.000547	5.472529	0.927071	-0.000110
1006	9.9998e+01	-0.0191	18.270058	0.000466	4.661784	0.789728	-0.000093
1007	1.0010e+02	-0.0383	18.112609	0.000790	7.904764	1.339103	-0.000158
1008	1.0020e+02	-0.0592	18.060127	0.000263	2.634921	0.446368	-0.000053
1009	1.0030e+02	-0.0778	17.910753	0.000750	7.499391	1.270431	-0.000150
1010	1.0040e+02	-0.0980	17.781564	0.000649	6.485960	1.098751	-0.000130
1011	1.0050e+02	-0.1183	17.636227	0.000730	7.296705	1.236095	-0.000146
1012	1.0059e+02	-0.1376	17.519151	0.000588	5.877901	0.995743	-0.000118
1013	1.0069e+02	-0.1580	17.414185	0.000527	5.269842	0.892735	-0.000105
1014	1.0079e+02	-0.1785	17.297108	0.000588	5.877901	0.995743	-0.000118
1015	1.0089e+02	-0.1982	17.163883	0.000669	6.688646	1.133087	-0.000134
1016	1.0099e+02	-0.2184	17.075066	0.000446	4.459097	0.755392	-0.000089
1017	1.0109e+02	-0.2386	16.941840	0.000669	6.688646	1.133087	-0.000134
1018	1.0119e+02	-0.2578	16.828800	0.000568	5.675215	0.961407	-0.000114
1019	1.0129e+02	-0.2780	16.695575	0.000669	6.688646	1.133087	-0.000134
1020	1.0139e+02	-0.2983	16.546201	0.000750	7.499391	1.270431	-0.000150
1021	1.0149e+02	-0.3176	16.441235	0.000527	5.269842	0.892735	-0.000105
1022	1.0159e+02	-0.3378	16.271676	0.000851	8.512822	1.442111	-0.000170
1023	1.0169e+02	-0.3573	16.207081	0.000324	3.242980	0.549376	-0.000065
1024	1.0179e+02	-0.3777	16.077893	0.000649	6.485960	1.098751	-0.000130
1025	1.0189e+02	-0.3970	15.924482	0.000770	7.702077	1.304767	-0.000154
1026	1.0199e+02	-0.4173	15.839702	0.000426	4.256411	0.721056	-0.000085
1027	1.0209e+02	-0.4379	15.706477	0.000669	6.688646	1.133087	-0.000134
1028	1.0219e+02	-0.4576	15.577288	0.000649	6.485960	1.098751	-0.000130
1029	1.0229e+02	-0.4778	15.460211	0.000588	5.877901	0.995743	-0.000118
1030	1.0239e+02	-0.4971	15.310837	0.000750	7.499391	1.270431	-0.000150
1031	1.0248e+02	-0.5163	15.201835	0.000547	5.472529	0.927071	-0.000110
1032	1.0258e+02	-0.5382	15.060535	0.000709	7.094019	1.201759	-0.000142
1033	1.0268e+02	-0.5570	14.959606	0.000507	5.067156	0.858400	-0.000101
1034	1.0278e+02	-0.5772	14.822344	0.000689	6.891332	1.167423	-0.000138
1035	1.0288e+02	-0.5968	14.717378	0.000527	5.269842	0.892735	-0.000105
1036	1.0298e+02	-0.6166	14.580116	0.000689	6.891332	1.167423	-0.000138
1037	1.0308e+02	-0.6367	14.475150	0.000527	5.269842	0.892735	-0.000105
1038	1.0318e+02	-0.6559	14.366148	0.000547	5.472529	0.927071	-0.000110
1039	1.0328e+02	-0.6763	14.204662	0.000811	8.107450	1.373439	-0.000162
1040	1.0338e+02	-0.6953	14.087585	0.000588	5.877901	0.995743	-0.000118
1041	1.0348e+02	-0.7166	14.014917	0.000365	3.648352	0.618048	-0.000073
1042	1.0358e+02	-0.7371	13.817097	0.000993	9.931626	1.682463	-0.000199
1043	1.0368e+02	-0.7563	13.691946	0.000628	6.283274	1.064415	-0.000126
1044	1.0378e+02	-0.7765	13.586980	0.000527	5.269842	0.892735	-0.000105
1045	1.0388e+02	-0.7947	13.482015	0.000527	5.269842	0.892735	-0.000105
1046	1.0398e+02	-0.8164	13.364938	0.000588	5.877901	0.995743	-0.000118
1047	1.0408e+02	-0.8357	13.251898	0.000568	5.675215	0.961407	-0.000114
1048	1.0418e+02	-0.8563	13.090413	0.000811	8.107450	1.373439	-0.000162
1049	1.0428e+02	-0.8761	13.025818	0.000324	3.242980	0.549376	-0.000065
1050	1.0438e+02	-0.8956	12.852222	0.000872	8.715509	1.476447	-0.000174
1051	1.0447e+02	-0.9156	12.727070	0.000628	6.283274	1.064415	-0.000126
1052	1.0457e+02	-0.9343	12.593845	0.000669	6.688646	1.133087	-0.000134
1053	1.0467e+02	-0.9552	12.492917	0.000507	5.067156	0.858400	-0.000101
1054	1.0477e+02	-0.9750	12.371802	0.000608	6.080587	1.030079	-0.000122
1055	1.0487e+02	-0.9954	12.234540	0.000689	6.891332	1.167423	-0.000138
1056	1.0497e+02	-1.0149	12.113426	0.000608	6.080587	1.030079	-0.000122
1057	1.0507e+02	-1.0353	11.980200	0.000669	6.688646	1.133087	-0.000134
1058	1.0517e+02	-1.0558	11.838901	0.000709	7.094019	1.201759	-0.000142
1059	1.0527e+02	-1.0739	11.737972	0.000507	5.067156	0.858400	-0.000101
1060	1.0537e+02	-1.0951	11.637044	0.000507	5.067156	0.858400	-0.000101
1061	1.0547e+02	-1.1137	11.503818	0.000669	6.688646	1.133087	-0.000134
1062	1.0557e+02	-1.1343	11.382704	0.000608	6.080587	1.030079	-0.000122
1063	1.0567e+02	-1.1553	11.265627	0.000588	5.877901	0.995743	-0.000118
1064	1.0577e+02	-1.1751	11.120290	0.000730	7.296705	1.236095	-0.000146
1065	1.0587e+02	-1.1942	11.011288	0.000547	5.472529	0.927071	-0.000110
1066	1.0597e+02	-1.2151	10.865951	0.000730	7.296705	1.236095	-0.000146
1067	1.0607e+02	-1.2350	10.724651	0.000709	7.094019	1.201759	-0.000142
1068	1.0617e+02	-1.2544	10.627760	0.000486	4.864470	0.824064	-0.000097
1069	1.0627e+02	-1.2742	10.494534	0.000669	6.688646	1.133087	-0.000134
1070	1.0637e+02	-1.2943	10.385532	0.000547	5.472529	0.927071	-0.000110
1071	1.0647e+02	-1.3132	10.232121	0.000770	7.702077	1.304767	-0.000154
1072	1.0656e+02	-1.3348	10.127155	0.000527	5.269842	0.892735	-0.000105
1073	1.0666e+02	-1.3534	9.981818	0.000730	7.296705	1.236095	-0.000146
1074	1.0676e+02	-1.3731	9.901075	0.000405	4.053725	0.686720	-0.000081
1075	1.0686e+02	-1.3938	9.759776	0.000709	7.094019	1.201759	-0.000142
1076	1.0696e+02	-1.4133	9.606364	0.000770	7.702077	1.304767	-0.000154
1077	1.0706e+02	-1.4331	9.485250	0.000608	6.080587	1.030079	-0.000122
1078	1.0716e+02	-1.4529	9.392396	0.000466	4.661784	0.789728	-0.000093
1079	1.0726e+02	-1.4727	9.271282	0.000608	6.080587	1.030079	-0.000122
1080	1.0736e+02	-1.4929	9.138057	0.000669	6.688646	1.133087	-0.000134
1081	1.0746e+02	-1.5134	8.996757	0.000709	7.094019	1.201759	-0.000142
1082	1.0756e+02	-1.5329	8.847383	0.000750	7.499391	1.270431	-0.000150
1083	1.0766e+02	-1.5530	8.738380	0.000547	5.472529	0.927071	-0.000110
1084	1.0776e+02	-1.5738	8.609192	0.000649	6.485960	1.098751	-0.000130
1085	1.0786e+02	-1.5928	8.492115	0.000588	5.877901	0.995743	-0.000118
1086	1.0796e+02	-1.6127	8.330630	0.000811	8.107450	1.373439	-0.000162
1087	1.0806e+02	-1.6327	8.257961	0.000365	3.648352	0.618048	-0.000073
1088	1.0816e+02	-1.6528	8.088401	0.000851	8.512822	1.442111	-0.000170
1089	1.0826e+02	-1.6721	7.999584	0.000446	4.459097	0.755392	-0.000089
1090	1.0836e+02	-1.6921	7.894619	0.000527	5.269842	0.892735	-0.000105
1091	1.0845e+02	-1.7126	7.745245	0.000750	7.499391	1.270431	-0.000150
1092	1.0855e+02	-1.7319	7.620094	0.000628	6.283274	1.064415	-0.000126
1093	1.0865e+02	-1.7523	7.511091	0.000547	5.472529	0.927071	-0.000110
1094	1.0875e+02	-1.7689	7.369791	0.000709	7.094019	1.201759	-0.000142
1095	1.0885e+02	-1.7923	7.272900	0.000486	4.864470	0.824064	-0.000097
1096	1.0895e+02	-1.8122	7.107377	0.000831	8.310136	1.407775	-0.000166
1097	1.0905e+02	-1.8320	7.010486	0.000486	4.864470	0.824064	-0.000097
1098	1.0915e+02	-1.8517	6.873224	0.000689	6.891332	1.167423	-0.000138
1099	1.0925e+02	-1.8721	6.752110	0.000608	6.080587	1.030079	-0.000122
1100	1.0935e+02	-1.8914	6.626958	0.000628	6.283274	1.064415	-0.000126
1101	1.0945e+02	-1.9121	6.505844	0.000608	6.080587	1.030079	-0.000122
1102	1.0955e+02	-1.9315	6.364544	0.000709	7.094019	1.201759	-0.000142
1103	1.0965e+02	-1.9527	6.199022	0.000831	8.310136	1.407775	-0.000166
1104	1.0975e+02	-1.9713	6.122316	0.000385	3.851039	0.652384	-0.000077
1105	1.0985e+02	-1.9914	6.017351	0.000527	5.269842	0.892735	-0.000105
1106	1.0995e+02	-2.0109	5.916422	0.000507	5.067156	0.858400	-0.000101
1107	1.1005e+02	-2.0312	5.767048	0.000750	7.499391	1.270431	-0.000150
1108	1.1015e+02	-2.0515	5.613637	0.000770	7.702077	1.304767	-0.000154
1109	1.1025e+02	-2.0709	5.520783	0.000466	4.661784	0.789728	-0.000093
1110	1.1035e+02	-2.0911	5.387558	0.000669	6.688646	1.133087	-0.000134
1111	1.1044e+02	-2.1123	5.250295	0.000689	6.891332	1.167423	-0.000138
1112	1.1054e+02	-2.1307	5.133218	0.000588	5.877901	0.995743	-0.000118
1113	1.1064e+02	-2.1503	5.032290	0.000507	5.067156	0.858400	-0.000101
1114	1.1074e+02	-2.1710	4.882916	0.000750	7.499391	1.270431	-0.000150
1115	1.1084e+02	-2.1916	4.769876	0.000568	5.675215	0.961407	-0.000114
1116	1.1094e+02	-2.2108	4.628576	0.000709	7.094019	1.201759	-0.000142
1117	1.1104e+02	-2.2311	4.503425	0.000628	6.283274	1.064415	-0.000126
1118	1.1114e+02	-2.2513	4.398459	0.000527	5.269842	0.892735	-0.000105
1119	1.1124e+02	-2.2707	4.257160	0.000709	7.094019	1.201759	-0.000142
1120	1.1134e+02	-2.2900	4.095674	0.000811	8.107450	1.373439	-0.000162
1121	1.1144e+02	-2.3102	4.027043	0.000345	3.445666	0.583712	-0.000069
1122	1.1154e+02	-2.3299	3.909966	0.000588	5.877901	0.995743	-0.000118
1123	1.1164e+02	-2.3499	3.768666	0.000709	7.094019	1.201759	-0.000142
1124	1.1174e+02	-2.3698	3.651589	0.000588	5.877901	0.995743	-0.000118
1125	1.1184e+02	-2.3895	3.486067	0.000831	8.310136	1.407775	-0.000166
1126	1.1194e+02	-2.4104	3.389175	0.000486	4.864470	0.824064	-0.000097
1127	1.1204e+02	-2.4303	3.268061	0.000608	6.080587	1.030079	-0.000122
1128	1.1214e+02	-2.4502	3.150984	0.000588	5.877901	0.995743	-0.000118
1129	1.1224e+02	-2.4696	3.050056	0.000507	5.067156	0.858400	-0.000101
1130	1.1234e+02	-2.4908	2.916831	0.000669	6.688646	1.133087	-0.000134
1131	1.1244e+02	-2.5098	2.783605	0.000669	6.688646	1.133087	-0.000134
1132	1.1253e+02	-2.5302	2.678640	0.000527	5.269842	0.892735	-0.000105
1133	1.1263e+02	-2.5485	2.557525	0.000608	6.080587	1.030079	-0.000122
1134	1.1273e+02	-2.5682	2.408151	0.000750	7.499391	1.270431	-0.000150
1135	1.1283e+02	-2.5888	2.295112	0.000568	5.675215	0.961407	-0.000114
1136	1.1293e+02	-2.6079	2.178035	0.000588	5.877901	0.995743	-0.000118
1137	1.1303e+02	-2.6294	2.028661	0.000750	7.499391	1.270431	-0.000150
1138	1.1313e+02	-2.6488	1.915621	0.000568	5.675215	0.961407	-0.000114
1139	1.1323e+02	-2.6672	1.826804	0.000446	4.459097	0.755392	-0.000089
1140	1.1333e+02	-2.6891	1.689541	0.000689	6.891332	1.167423	-0.000138
1141	1.1343e+02	-2.7078	1.528056	0.000811	8.107450	1.373439	-0.000162
1142	1.1353e+02	-2.7279	1.447313	0.000405	4.053725	0.686720	-0.000081
1143	1.1363e+02	-2.7480	1.346385	0.000507	5.067156	0.858400	-0.000101
1144	1.1373e+02	-2.7686	1.205085	0.000709	7.094019	1.201759	-0.000142
1145	1.1383e+02	-2.7885	1.092045	0.000568	5.675215	0.961407	-0.000114
1146	1.1393e+02	-2.8085	0.926523	0.000831	8.310136	1.407775	-0.000166
1147	1.1403e+02	-2.8283	0.853854	0.000365	3.648352	0.618048	-0.000073
1148	1.1413e+02	-2.8482	0.700443	0.000770	7.702077	1.304767	-0.000154
1149	1.1423e+02	-2.8680	0.587403	0.000568	5.675215	0.961407	-0.000114
1150	1.1433e+02	-2.8878	0.450141	0.000689	6.891332	1.167423	-0.000138
1151	1.1442e+02	-2.9073	0.369398	0.000405	4.053725	0.686720	-0.000081
1152	1.1452e+02	-2.9271	0.199838	0.000851	8.512822	1.442111	-0.000170
1153	1.1462e+02	-2.9483	0.082761	0.000588	5.877901	0.995743	-0.000118
1154	1.1472e+02	-2.9678	-0.046427	0.000649	6.485960	1.098751	-0.000130
1155	1.1482e+02	-2.9877	-0.127170	0.000405	4.053725	0.686720	-0.000081
1156	1.1492e+02	-3.0069	-0.264432	0.000689	6.891332	1.167423	-0.000138
1157	1.1502e+02	-3.0267	-0.409769	0.000730	7.296705	1.236095	-0.000146
1158	1.1512e+02	-3.0474	-0.498586	0.000446	4.459097	0.755392	-0.000089
1159	1.1522e+02	-3.0670	-0.651997	0.000770	7.702077	1.304767	-0.000154
1160	1.1532e+02	-3.0868	-0.744852	0.000466	4.661784	0.789728	-0.000093
1161	1.1542e+02	-3.1070	-0.837706	0.000466	4.661784	0.789728	-0.000093
1162	1.1552e+02	-3.1265	-0.974968	0.000689	6.891332	1.167423	-0.000138
1163	1.1562e+02	-3.1465	-1.132417	0.000790	7.904764	1.339103	-0.000158
1164	1.1572e+02	-3.1670	-1.249494	0.000588	5.877901	0.995743	-0.000118
1165	1.1582e+02	-3.1863	-1.338310	0.000446	4.459097	0.755392	-0.000089
1166	1.1592e+02	-3.2062	-1.431165	0.000466	4.661784	0.789728	-0.000093
1167	1.1602e+02	-3.2265	-1.588613	0.000790	7.904764	1.339103	-0.000158
1168	1.1612e+02	-3.2466	-1.717801	0.000649	6.485960	1.098751	-0.000130
1169	1.1622e+02	-3.2663	-1.826804	0.000547	5.472529	0.927071	-0.000110
1170	1.1632e+02	-3.2861	-1.943881	0.000588	5.877901	0.995743	-0.000118
1171	1.1642e+02	-3.3052	-2.064995	0.000608	6.080587	1.030079	-0.000122
1172	1.1651e+02	-3.3256	-2.157849	0.000466	4.661784	0.789728	-0.000093
1173	1.1661e+02	-3.3460	-2.274926	0.000588	5.877901	0.995743	-0.000118
1174	1.1671e+02	-3.3662	-2.396040	0.000608	6.080587	1.030079	-0.000122
1175	1.1681e+02	-3.3859	-2.513117	0.000588	5.877901	0.995743	-0.000118
1176	1.1691e+02	-3.4053	-2.626157	0.000568	5.675215	0.961407	-0.000114
1177	1.1701e+02	-3.4265	-2.779568	0.000770	7.702077	1.304767	-0.000154
1178	1.1711e+02	-3.4451	-2.864348	0.000426	4.256411	0.721056	-0.000085
1179	1.1721e+02	-3.4656	-3.005648	0.000709	7.094019	1.201759	-0.000142
1180	1.1731e+02	-3.4859	-3.102539	0.000486	4.864470	0.824064	-0.000097
1181	1.1741e+02	-3.5051	-3.215579	0.000568	5.675215	0.961407	-0.000114
1182	1.1751e+02	-3.5260	-3.352841	0.000689	6.891332	1.167423	-0.000138
1183	1.1761e+02	-3.5451	-3.465881	0.000568	5.675215	0.961407	-0.000114
1184	1.1771e+02	-3.5641	-3.591032	0.000628	6.283274	1.064415	-0.000126
1185	1.1781e+02	-3.5851	-3.695998	0.000527	5.269842	0.892735	-0.000105
1186	1.1791e+02	-3.6055	-3.800963	0.000527	5.269842	0.892735	-0.000105
1187	1.1801e+02	-3.6261	-3.942263	0.000709	7.094019	1.201759	-0.000142
1188	1.1811e+02	-3.6449	-4.027043	0.000426	4.256411	0.721056	-0.000085
1189	1.1821e+02	-3.6653	-4.164306	0.000689	6.891332	1.167423	-0.000138
1190	1.1831e+02	-3.6847	-4.297531	0.000669	6.688646	1.133087	-0.000134
1191	1.1841e+02	-3.7057	-4.430756	0.000669	6.688646	1.133087	-0.000134
1192	1.1850e+02	-3.7247	-4.535722	0.000527	5.269842	0.892735	-0.000105
1193	1.1860e+02	-3.7444	-4.612428	0.000385	3.851039	0.652384	-0.000077
1194	1.1870e+02	-3.7651	-4.753727	0.000709	7.094019	1.201759	-0.000142
1195	1.1880e+02	-3.7845	-4.862730	0.000547	5.472529	0.927071	-0.000110
1196	1.1890e+02	-3.8032	-4.995955	0.000669	6.688646	1.133087	-0.000134
1197	1.1900e+02	-3.8228	-5.064587	0.000345	3.445666	0.583712	-0.000069
1198	1.1910e+02	-3.8444	-5.238184	0.000872	8.715509	1.476447	-0.000174
1199	1.1920e+02	-3.8633	-5.335075	0.000486	4.864470	0.824064	-0.000097
1200	1.1930e+02	-3.8834	-5.431966	0.000486	4.864470	0.824064	-0.000097
1201	1.1940e+02	-3.9038	-5.565192	0.000669	6.688646	1.133087	-0.000134
1202	1.1950e+02	-3.9231	-5.674194	0.000547	5.472529	0.927071	-0.000110
1203	1.1960e+02	-3.9435	-5.799345	0.000628	6.283274	1.064415	-0.000126
1204	1.1970e+02	-3.9636	-5.904311	0.000527	5.269842	0.892735	-0.000105
1205	1.1980e+02	-3.9838	-6.021388	0.000588	5.877901	0.995743	-0.000118
1206	1.1990e+02	-4.0039	-6.118279	0.000486	4.864470	0.824064	-0.000097
1207	1.2000e+02	-4.0237	-6.251505	0.000669	6.688646	1.133087	-0.000134
1208	1.2010e+02	-4.0430	-6.400879	0.000750	7.499391	1.270431	-0.000150
1209	1.2020e+02	-4.0628	-6.453361	0.000263	2.634921	0.446368	-0.000053
1210	1.2030e+02	-4.0825	-6.566401	0.000568	5.675215	0.961407	-0.000114
1211	1.2039e+02	-4.1037	-6.683478	0.000588	5.877901	0.995743	-0.000118
1212	1.2049e+02	-4.1229	-6.808629	0.000628	6.283274	1.064415	-0.000126
1213	1.2059e+02	-4.1431	-6.913595	0.000527	5.269842	0.892735	-0.000105
1214	1.2069e+02	-4.1625	-7.034709	0.000608	6.080587	1.030079	-0.000122
1215	1.2079e+02	-4.1824	-7.167935	0.000669	6.688646	1.133087	-0.000134
1216	1.2089e+02	-4.2035	-7.244640	0.000385	3.851039	0.652384	-0.000077
1217	1.2099e+02	-4.2221	-7.357680	0.000568	5.675215	0.961407	-0.000114
1218	1.2109e+02	-4.2429	-7.515128	0.000790	7.904764	1.339103	-0.000158
1219	1.2119e+02	-4.2630	-7.624131	0.000547	5.472529	0.927071	-0.000110
1220	1.2129e+02	-4.2828	-7.741208	0.000588	5.877901	0.995743	-0.000118
1221	1.2139e+02	-4.3017	-7.834062	0.000466	4.661784	0.789728	-0.000093
1222	1.2149e+02	-4.3218	-7.934990	0.000507	5.067156	0.858400	-0.000101
1223	1.2159e+02	-4.3433	-8.076290	0.000709	7.094019	1.201759	-0.000142
1224	1.2169e+02	-4.3617	-8.185293	0.000547	5.472529	0.927071	-0.000110
1225	1.2179e+02	-4.3822	-8.278147	0.000466	4.661784	0.789728	-0.000093
1226	1.2189e+02	-4.4016	-8.403298	0.000628	6.283274	1.064415	-0.000126
1227	1.2199e+02	-4.4213	-8.508264	0.000527	5.269842	0.892735	-0.000105
1228	1.2209e+02	-4.4420	-8.605155	0.000486	4.864470	0.824064	-0.000097
1229	1.2219e+02	-4.4614	-8.726269	0.000608	6.080587	1.030079	-0.000122
1230	1.2229e+02	-4.4810	-8.831234	0.000527	5.269842	0.892735	-0.000105
1231	1.2239e+02	-4.5016	-8.920051	0.000446	4.459097	0.755392	-0.000089
1232	1.2248e+02	-4.5216	-9.081537	0.000811	8.107450	1.373439	-0.000162
1233	1.2258e+02	-4.5421	-9.190540	0.000547	5.472529	0.927071	-0.000110
1234	1.2268e+02	-4.5610	-9.275319	0.000426	4.256411	0.721056	-0.000085
1235	1.2278e+02	-4.5815	-9.380285	0.000527	5.269842	0.892735	-0.000105
1236	1.2288e+02	-4.6017	-9.509473	0.000649	6.485960	1.098751	-0.000130
1237	1.2298e+02	-4.6214	-9.610402	0.000507	5.067156	0.858400	-0.000101
1238	1.2308e+02	-4.6429	-9.723441	0.000568	5.675215	0.961407	-0.000114
1239	1.2318e+02	-4.6596	-9.840518	0.000588	5.877901	0.995743	-0.000118
1240	1.2328e+02	-4.6810	-9.957595	0.000588	5.877901	0.995743	-0.000118
1241	1.2338e+02	-4.7009	-10.070635	0.000568	5.675215	0.961407	-0.000114
1242	1.2348e+02	-4.7215	-10.191749	0.000608	6.080587	1.030079	-0.000122
1243	1.2358e+02	-4.7385	-10.292678	0.000507	5.067156	0.858400	-0.000101
1244	1.2368e+02	-4.7617	-10.417829	0.000628	6.283274	1.064415	-0.000126
1245	1.2378e+02	-4.7806	-10.502609	0.000426	4.256411	0.721056	-0.000085
1246	1.2388e+02	-4.8006	-10.623723	0.000608	6.080587	1.030079	-0.000122
1247	1.2398e+02	-4.8196	-10.724651	0.000507	5.067156	0.858400	-0.000101
1248	1.2408e+02	-4.8402	-10.869988	0.000730	7.296705	1.236095	-0.000146
1249	1.2418e+02	-4.8601	-10.974954	0.000527	5.269842	0.892735	-0.000105
1250	1.2428e+02	-4.8804	-11.083956	0.000547	5.472529	0.927071	-0.000110
1251	1.2438e+02	-4.9005	-11.164699	0.000405	4.053725	0.686720	-0.000081
1252	1.2447e+02	-4.9199	-11.310036	0.000730	7.296705	1.236095	-0.000146
1253	1.2457e+02	-4.9408	-11.419038	0.000547	5.472529	0.927071	-0.000110
1254	1.2467e+02	-4.9622	-11.528041	0.000547	5.472529	0.927071	-0.000110
1255	1.2477e+02	-4.9802	-11.628969	0.000507	5.067156	0.858400	-0.000101
1256	1.2487e+02	-5.0000	-11.737972	0.000547	5.472529	0.927071	-0.000110
1257	1.2497e+02	-5.0201	-11.863123	0.000628	6.283274	1.064415	-0.000126
1258	1.2507e+02	-5.0397	-11.960015	0.000486	4.864470	0.824064	-0.000097
1259	1.2517e+02	-5.0595	-12.060943	0.000507	5.067156	0.858400	-0.000101
1260	1.2527e+02	-5.0761	-12.190131	0.000649	6.485960	1.098751	-0.000130
1261	1.2537e+02	-5.1001	-12.291060	0.000507	5.067156	0.858400	-0.000101
1262	1.2547e+02	-5.1194	-12.404100	0.000568	5.675215	0.961407	-0.000114
1263	1.2557e+02	-5.1387	-12.505028	0.000507	5.067156	0.858400	-0.000101
1264	1.2567e+02	-5.1590	-12.618068	0.000568	5.675215	0.961407	-0.000114
1265	1.2577e+02	-5.1782	-12.706885	0.000446	4.459097	0.755392	-0.000089
1266	1.2587e+02	-5.1988	-12.880482	0.000872	8.715509	1.476447	-0.000174
1267	1.2597e+02	-5.2193	-12.965261	0.000426	4.256411	0.721056	-0.000085
1268	1.2607e+02	-5.2388	-13.102524	0.000689	6.891332	1.167423	-0.000138
1269	1.2617e+02	-5.2597	-13.199415	0.000486	4.864470	0.824064	-0.000097
1270	1.2627e+02	-5.2783	-13.332641	0.000669	6.688646	1.133087	-0.000134
1271	1.2636e+02	-5.2979	-13.417421	0.000426	4.256411	0.721056	-0.000085
1272	1.2646e+02	-5.3188	-13.558720	0.000709	7.094019	1.201759	-0.000142
1273	1.2656e+02	-5.3372	-13.619277	0.000304	3.040294	0.515040	-0.000061
1274	1.2666e+02	-5.3583	-13.740391	0.000608	6.080587	1.030079	-0.000122
1275	1.2676e+02	-5.3786	-13.893803	0.000770	7.702077	1.304767	-0.000154
1276	1.2686e+02	-5.3990	-13.970508	0.000385	3.851039	0.652384	-0.000077
1277	1.2696e+02	-5.4176	-14.111808	0.000709	7.094019	1.201759	-0.000142
1278	1.2706e+02	-5.4379	-14.212736	0.000507	5.067156	0.858400	-0.000101
1279	1.2716e+02	-5.4581	-14.297516	0.000426	4.256411	0.721056	-0.000085
1280	1.2726e+02	-5.4778	-14.426705	0.000649	6.485960	1.098751	-0.000130
1281	1.2736e+02	-5.4979	-14.555893	0.000649	6.485960	1.098751	-0.000130
1282	1.2746e+02	-5.5176	-14.668933	0.000568	5.675215	0.961407	-0.000114
1283	1.2756e+02	-5.5359	-14.786010	0.000588	5.877901	0.995743	-0.000118
1284	1.2766e+02	-5.5569	-14.862715	0.000385	3.851039	0.652384	-0.000077
1285	1.2776e+02	-5.5780	-15.044386	0.000912	9.120881	1.545119	-0.000183
1286	1.2786e+02	-5.5954	-15.137240	0.000466	4.661784	0.789728	-0.000093
1287	1.2796e+02	-5.6179	-15.242206	0.000527	5.269842	0.892735	-0.000105
1288	1.2806e+02	-5.6375	-15.355246	0.000568	5.675215	0.961407	-0.000114
1289	1.2816e+02	-5.6564	-15.496546	0.000709	7.094019	1.201759	-0.000142
1290	1.2826e+02	-5.6772	-15.609585	0.000568	5.675215	0.961407	-0.000114
1291	1.2835e+02	-5.6964	-15.686291	0.000385	3.851039	0.652384	-0.000077
1292	1.2845e+02	-5.7175	-15.827591	0.000709	7.094019	1.201759	-0.000142
1293	1.2855e+02	-5.7365	-15.944668	0.000588	5.877901	0.995743	-0.000118
1294	1.2865e+02	-5.7568	-16.065782	0.000608	6.080587	1.030079	-0.000122
1295	1.2875e+02	-5.7764	-16.162673	0.000486	4.864470	0.824064	-0.000097
1296	1.2885e+02	-5.7974	-16.308010	0.000730	7.296705	1.236095	-0.000146
1297	1.2895e+02	-5.8160	-16.425087	0.000588	5.877901	0.995743	-0.000118
1298	1.2905e+02	-5.8362	-16.493718	0.000345	3.445666	0.583712	-0.000069
1299	1.2915e+02	-5.8574	-16.647129	0.000770	7.702077	1.304767	-0.000154
1300	1.2925e+02	-5.8759	-16.760169	0.000568	5.675215	0.961407	-0.000114
1301	1.2935e+02	-5.8952	-16.853023	0.000466	4.661784	0.789728	-0.000093
1302	1.2945e+02	-5.9159	-17.026620	0.000872	8.715509	1.476447	-0.000174
1303	1.2955e+02	-5.9354	-17.095251	0.000345	3.445666	0.583712	-0.000069
1304	1.2965e+02	-5.9563	-17.240588	0.000730	7.296705	1.236095	-0.000146
1305	1.2975e+02	-5.9760	-17.369777	0.000649	6.485960	1.098751	-0.000130
1306	1.2985e+02	-5.9955	-17.486853	0.000588	5.877901	0.995743	-0.000118
1307	1.2995e+02	-6.0159	-17.587782	0.000507	5.067156	0.858400	-0.000101
1308	1.3005e+02	-6.0361	-17.700822	0.000568	5.675215	0.961407	-0.000114
1309	1.3015e+02	-6.0553	-17.805787	0.000527	5.269842	0.892735	-0.000105
1310	1.3025e+02	-6.0749	-17.959198	0.000770	7.702077	1.304767	-0.000154
1311	1.3034e+02	-6.0962	-18.064164	0.000527	5.269842	0.892735	-0.000105
1312	1.3044e+02	-6.1157	-18.173167	0.000547	5.472529	0.927071	-0.000110
1313	1.3054e+02	-6.1353	-18.282169	0.000547	5.472529	0.927071	-0.000110
1314	1.3064e+02	-6.1552	-18.439617	0.000790	7.904764	1.339103	-0.000158
1315	1.3074e+02	-6.1758	-18.556694	0.000588	5.877901	0.995743	-0.000118
1316	1.3084e+02	-6.1949	-18.722217	0.000831	8.310136	1.407775	-0.000166
1317	1.3094e+02	-6.2151	-18.794885	0.000365	3.648352	0.618048	-0.000073
1318	1.3104e+02	-6.2353	-18.936185	0.000709	7.094019	1.201759	-0.000142
1319	1.3114e+02	-6.2552	-19.065374	0.000649	6.485960	1.098751	-0.000130
1320	1.3124e+02	-6.2756	-19.194562	0.000649	6.485960	1.098751	-0.000130
1321	1.3134e+02	-6.2946	-19.287416	0.000466	4.661784	0.789728	-0.000093
1322	1.3144e+02	-6.3147	-19.469087	0.000912	9.120881	1.545119	-0.000183
1323	1.3154e+02	-6.3348	-19.549830	0.000405	4.053725	0.686720	-0.000081
1324	1.3164e+02	-6.3536	-19.650758	0.000507	5.067156	0.858400	-0.000101
1325	1.3174e+02	-6.3737	-19.800132	0.000750	7.499391	1.270431	-0.000150
1326	1.3184e+02	-6.3937	-19.945469	0.000730	7.296705	1.236095	-0.000146
1327	1.3194e+02	-6.4139	-20.050435	0.000527	5.269842	0.892735	-0.000105
1328	1.3204e+02	-6.4348	-20.203846	0.000770	7.702077	1.304767	-0.000154
1329	1.3214e+02	-6.4539	-20.316886	0.000568	5.675215	0.961407	-0.000114
1330	1.3224e+02	-6.4742	-20.417814	0.000507	5.067156	0.858400	-0.000101
1331	1.3234e+02	-6.4937	-20.599485	0.000912	9.120881	1.545119	-0.000183
1332	1.3243e+02	-6.5137	-20.688302	0.000446	4.459097	0.755392	-0.000089
1333	1.3253e+02	-6.5335	-20.817490	0.000649	6.485960	1.098751	-0.000130
1334	1.3263e+02	-6.5533	-20.958790	0.000709	7.094019	1.201759	-0.000142
1335	1.3273e+02	-6.5724	-21.128350	0.000851	8.512822	1.442111	-0.000170
1336	1.3283e+02	-6.5933	-21.213130	0.000426	4.256411	0.721056	-0.000085
1337	1.3293e+02	-6.6122	-21.390764	0.000892	8.918195	1.510783	-0.000179
1338	1.3303e+02	-6.6338	-21.483618	0.000466	4.661784	0.789728	-0.000093
1339	1.3313e+02	-6.6534	-21.616843	0.000669	6.688646	1.133087	-0.000134
1340	1.3323e+02	-6.6736	-21.766217	0.000750	7.499391	1.270431	-0.000150
1341	1.3333e+02	-6.6934	-21.863109	0.000486	4.864470	0.824064	-0.000097
1342	1.3343e+02	-6.7134	-21.984223	0.000608	6.080587	1.030079	-0.000122
1343	1.3353e+02	-6.7331	-22.093225	0.000547	5.472529	0.927071	-0.000110
1344	1.3363e+02	-6.7529	-22.278934	0.000932	9.323567	1.579455	-0.000187
1345	1.3373e+02	-6.7728	-22.391973	0.000568	5.675215	0.961407	-0.000114
1346	1.3383e+02	-6.7928	-22.549422	0.000790	7.904764	1.339103	-0.000158
1347	1.3393e+02	-6.8126	-22.710907	0.000811	8.107450	1.373439	-0.000162
1348	1.3403e+02	-6.8329	-22.832021	0.000608	6.080587	1.030079	-0.000122
1349	1.3413e+02	-6.8529	-22.973321	0.000709	7.094019	1.201759	-0.000142
1350	1.3423e+02	-6.8724	-23.118658	0.000730	7.296705	1.236095	-0.000146
1351	1.3432e+02	-6.8919	-23.211512	0.000466	4.661784	0.789728	-0.000093
1352	1.3442e+02	-6.9125	-23.381072	0.000851	8.512822	1.442111	-0.000170
1353	1.3452e+02	-6.9323	-23.522371	0.000709	7.094019	1.201759	-0.000142
1354	1.3462e+02	-6.9519	-23.667708	0.000730	7.296705	1.236095	-0.000146
1355	1.3472e+02	-6.9722	-23.817082	0.000750	7.499391	1.270431	-0.000150
1356	1.3482e+02	-6.9917	-23.946271	0.000649	6.485960	1.098751	-0.000130
1357	1.3492e+02	-7.0123	-24.087570	0.000709	7.094019	1.201759	-0.000142
1358	1.3502e+02	-7.0322	-24.184462	0.000486	4.864470	0.824064	-0.000097
1359	1.3512e+02	-7.0512	-24.354021	0.000851	8.512822	1.442111	-0.000170
1360	1.3522e+02	-7.0714	-24.531655	0.000892	8.918195	1.510783	-0.000179
1361	1.3532e+02	-7.0917	-24.656807	0.000628	6.283274	1.064415	-0.000126
1362	1.3542e+02	-7.1109	-24.806181	0.000750	7.499391	1.270431	-0.000150
1363	1.3552e+02	-7.1313	-24.967666	0.000811	8.107450	1.373439	-0.000162
1364	1.3562e+02	-7.1511	-25.072632	0.000527	5.269842	0.892735	-0.000105
1365	1.3572e+02	-7.1716	-25.197783	0.000628	6.283274	1.064415	-0.000126
1366	1.3582e+02	-7.1919	-25.415788	0.001095	10.945057	1.854143	-0.000219
1367	1.3592e+02	-7.2107	-25.516716	0.000507	5.067156	0.858400	-0.000101
1368	1.3602e+02	-7.2311	-25.670128	0.000770	7.702077	1.304767	-0.000154
1369	1.3612e+02	-7.2510	-25.839687	0.000851	8.512822	1.442111	-0.000170
1370	1.3622e+02	-7.2708	-25.964838	0.000628	6.283274	1.064415	-0.000126
1371	1.3631e+02	-7.2914	-26.154584	0.000953	9.526254	1.613791	-0.000191
1372	1.3641e+02	-7.3108	-26.328181	0.000872	8.715509	1.476447	-0.000174
1373	1.3651e+02	-7.3322	-26.429109	0.000507	5.067156	0.858400	-0.000101
1374	1.3661e+02	-7.3508	-26.562335	0.000669	6.688646	1.133087	-0.000134
1375	1.3671e+02	-7.3706	-26.776303	0.001074	10.742371	1.819807	-0.000215
1376	1.3681e+02	-7.3911	-26.909528	0.000669	6.688646	1.133087	-0.000134
1377	1.3691e+02	-7.4118	-27.062939	0.000770	7.702077	1.304767	-0.000154
1378	1.3701e+02	-7.4304	-27.244611	0.000912	9.120881	1.545119	-0.000183
1379	1.3711e+02	-7.4493	-27.377836	0.000669	6.688646	1.133087	-0.000134
1380	1.3721e+02	-7.4702	-27.527210	0.000750	7.499391	1.270431	-0.000150
1381	1.3731e+02	-7.4899	-27.656398	0.000649	6.485960	1.098751	-0.000130
1382	1.3741e+02	-7.5099	-27.829995	0.000872	8.715509	1.476447	-0.000174
1383	1.3751e+02	-7.5299	-28.003592	0.000872	8.715509	1.476447	-0.000174
1384	1.3761e+02	-7.5490	-28.181226	0.000892	8.918195	1.510783	-0.000179
1385	1.3771e+02	-7.5708	-28.334637	0.000770	7.702077	1.304767	-0.000154
1386	1.3781e+02	-7.5888	-28.484011	0.000750	7.499391	1.270431	-0.000150
1387	1.3791e+02	-7.6096	-28.665682	0.000912	9.120881	1.545119	-0.000183
1388	1.3801e+02	-7.6292	-28.827168	0.000811	8.107450	1.373439	-0.000162
1389	1.3811e+02	-7.6492	-29.004802	0.000892	8.918195	1.510783	-0.000179
1390	1.3821e+02	-7.6695	-29.162250	0.000790	7.904764	1.339103	-0.000158
1391	1.3831e+02	-7.6891	-29.339884	0.000892	8.918195	1.510783	-0.000179
1392	1.3840e+02	-7.7095	-29.489258	0.000750	7.499391	1.270431	-0.000150
1393	1.3850e+02	-7.7282	-29.650743	0.000811	8.107450	1.373439	-0.000162
1394	1.3860e+02	-7.7489	-29.808192	0.000790	7.904764	1.339103	-0.000158
1395	1.3870e+02	-7.7701	-30.026197	0.001095	10.945057	1.854143	-0.000219
1396	1.3880e+02	-7.7888	-30.171534	0.000730	7.296705	1.236095	-0.000146
1397	1.3890e+02	-7.8082	-30.353205	0.000912	9.120881	1.545119	-0.000183
1398	1.3900e+02	-7.8288	-30.534876	0.000912	9.120881	1.545119	-0.000183
1399	1.3910e+02	-7.8477	-30.704436	0.000851	8.512822	1.442111	-0.000170
1400	1.3920e+02	-7.8677	-30.894181	0.000953	9.526254	1.613791	-0.000191
1401	1.3930e+02	-7.8874	-31.063741	0.000851	8.512822	1.442111	-0.000170
1402	1.3940e+02	-7.9083	-31.209078	0.000730	7.296705	1.236095	-0.000146
1403	1.3950e+02	-7.9280	-31.435157	0.001135	11.350430	1.922815	-0.000227
1404	1.3960e+02	-7.9472	-31.580494	0.000730	7.296705	1.236095	-0.000146
1405	1.3970e+02	-7.9674	-31.770240	0.000953	9.526254	1.613791	-0.000191
1406	1.3980e+02	-7.9871	-31.976134	0.001034	10.336999	1.751135	-0.000207
1407	1.3990e+02	-8.0078	-32.173953	0.000993	9.931626	1.682463	-0.000199
1408	1.4000e+02	-8.0297	-32.323327	0.000750	7.499391	1.270431	-0.000150
1409	1.4010e+02	-8.0466	-32.529221	0.001034	10.336999	1.751135	-0.000207
1410	1.4020e+02	-8.0676	-32.698781	0.000851	8.512822	1.442111	-0.000170
1411	1.4029e+02	-8.0872	-32.900638	0.001013	10.134312	1.716799	-0.000203
1412	1.4039e+02	-8.1076	-33.078272	0.000892	8.918195	1.510783	-0.000179
1413	1.4049e+02	-8.1273	-33.272054	0.000973	9.728940	1.648127	-0.000195
1414	1.4059e+02	-8.1474	-33.498134	0.001135	11.350430	1.922815	-0.000227
1415	1.4069e+02	-8.1671	-33.655582	0.000790	7.904764	1.339103	-0.000158
1416	1.4079e+02	-8.1864	-33.833216	0.000892	8.918195	1.510783	-0.000179
1417	1.4089e+02	-8.2066	-34.006813	0.000872	8.715509	1.476447	-0.000174
1418	1.4099e+02	-8.2272	-34.245004	0.001196	11.958489	2.025823	-0.000239
1419	1.4109e+02	-8.2458	-34.446861	0.001013	10.134312	1.716799	-0.000203
1420	1.4119e+02	-8.2661	-34.693126	0.001236	12.363861	2.094495	-0.000248
1421	1.4129e+02	-8.2867	-34.838463	0.000730	7.296705	1.236095	-0.000146
1422	1.4139e+02	-8.3072	-35.064542	0.001135	11.350430	1.922815	-0.000227
1423	1.4149e+02	-8.3261	-35.230065	0.000831	8.310136	1.407775	-0.000166
1424	1.4159e+02	-8.3463	-35.480367	0.001257	12.566547	2.128831	-0.000252
1425	1.4169e+02	-8.3649	-35.666076	0.000932	9.323567	1.579455	-0.000187
1426	1.4179e+02	-8.3862	-35.867932	0.001013	10.134312	1.716799	-0.000203
1427	1.4189e+02	-8.4067	-36.081901	0.001074	10.742371	1.819807	-0.000215
1428	1.4199e+02	-8.4264	-36.303943	0.001115	11.147744	1.888479	-0.000223
1429	1.4209e+02	-8.4456	-36.465429	0.000811	8.107450	1.373439	-0.000162
1430	1.4219e+02	-8.4657	-36.735917	0.001358	13.579979	2.300511	-0.000272
1431	1.4228e+02	-8.4850	-36.978145	0.001216	12.161175	2.060159	-0.000243
1432	1.4238e+02	-8.5059	-37.139630	0.000811	8.107450	1.373439	-0.000162
1433	1.4248e+02	-8.5255	-37.361673	0.001115	11.147744	1.888479	-0.000223
1434	1.4258e+02	-8.5452	-37.595827	0.001176	11.755802	1.991487	-0.000235
1435	1.4268e+02	-8.5658	-37.813832	0.001095	10.945057	1.854143	-0.000219
1436	1.4278e+02	-8.5855	-38.039911	0.001135	11.350430	1.922815	-0.000227
1437	1.4288e+02	-8.6050	-38.221583	0.000912	9.120881	1.545119	-0.000183
1438	1.4298e+02	-8.6253	-38.504182	0.001419	14.188037	2.403519	-0.000284
1439	1.4308e+02	-8.6447	-38.706039	0.001013	10.134312	1.716799	-0.000203
1440	1.4318e+02	-8.6650	-38.940193	0.001176	11.755802	1.991487	-0.000235
1441	1.4328e+02	-8.6850	-39.170309	0.001155	11.553116	1.957151	-0.000231
1442	1.4338e+02	-8.7048	-39.380241	0.001054	10.539685	1.785471	-0.000211
1443	1.4348e+02	-8.7256	-39.646692	0.001338	13.377292	2.266175	-0.000268
1444	1.4358e+02	-8.7451	-39.856623	0.001054	10.539685	1.785471	-0.000211
1445	1.4368e+02	-8.7646	-40.106925	0.001257	12.566547	2.128831	-0.000252
1446	1.4378e+02	-8.7845	-40.353190	0.001236	12.363861	2.094495	-0.000248
1447	1.4388e+02	-8.8058	-40.579270	0.001135	11.350430	1.922815	-0.000227
1448	1.4398e+02	-8.8248	-40.841684	0.001317	13.174606	2.231839	-0.000264
1449	1.4408e+02	-8.8454	-41.063726	0.001115	11.147744	1.888479	-0.000223
1450	1.4418e+02	-8.8635	-41.309991	0.001236	12.363861	2.094495	-0.000248
1451	1.4428e+02	-8.8828	-41.560294	0.001257	12.566547	2.128831	-0.000252
1452	1.4437e+02	-8.9044	-41.814633	0.001277	12.769234	2.163167	-0.000256
1453	1.4447e+02	-8.9236	-42.121456	0.001540	15.404155	2.609534	-0.000308
1454	1.4457e+02	-8.9429	-42.303127	0.000912	9.120881	1.545119	-0.000183
1455	1.4467e+02	-8.9645	-42.557466	0.001277	12.769234	2.163167	-0.000256
1456	1.4477e+02	-8.9830	-42.815843	0.001297	12.971920	2.197503	-0.000260
1457	1.4487e+02	-9.0036	-43.102480	0.001439	14.390724	2.437855	-0.000288
1458	1.4497e+02	-9.0233	-43.389116	0.001439	14.390724	2.437855	-0.000288
1459	1.4507e+02	-9.0422	-43.607122	0.001095	10.945057	1.854143	-0.000219
1460	1.4517e+02	-9.0636	-43.901833	0.001480	14.796096	2.506527	-0.000296
1461	1.4527e+02	-9.0826	-44.156172	0.001277	12.769234	2.163167	-0.000256
1462	1.4537e+02	-9.1022	-44.450883	0.001480	14.796096	2.506527	-0.000296
1463	1.4547e+02	-9.1223	-44.685037	0.001176	11.755802	1.991487	-0.000235
1464	1.4557e+02	-9.1437	-44.971674	0.001439	14.390724	2.437855	-0.000288
1465	1.4567e+02	-9.1626	-45.226013	0.001277	12.769234	2.163167	-0.000256
1466	1.4577e+02	-9.1821	-45.520724	0.001480	14.796096	2.506527	-0.000296
1467	1.4587e+02	-9.2036	-45.815435	0.001480	14.796096	2.506527	-0.000296
1468	1.4597e+02	-9.2223	-46.045552	0.001155	11.553116	1.957151	-0.000231
1469	1.4607e+02	-9.2426	-46.364485	0.001601	16.012214	2.712542	-0.000321
1470	1.4617e+02	-9.2630	-46.655159	0.001459	14.593410	2.472191	-0.000292
1471	1.4626e+02	-9.2822	-46.937759	0.001419	14.188037	2.403519	-0.000284
1472	1.4636e+02	-9.3013	-47.240544	0.001520	15.201469	2.575199	-0.000304
1473	1.4646e+02	-9.3219	-47.567552	0.001642	16.417586	2.781214	-0.000329
1474	1.4656e+02	-9.3423	-47.817854	0.001257	12.566547	2.128831	-0.000252
1475	1.4666e+02	-9.3625	-48.120639	0.001520	15.201469	2.575199	-0.000304
1476	1.4676e+02	-9.3819	-48.419387	0.001500	14.998782	2.540863	-0.000300
1477	1.4686e+02	-9.4029	-48.714098	0.001480	14.796096	2.506527	-0.000296
1478	1.4696e+02	-9.4226	-49.041106	0.001642	16.417586	2.781214	-0.000329
1479	1.4706e+02	-9.4415	-49.368114	0.001642	16.417586	2.781214	-0.000329
1480	1.4716e+02	-9.4611	-49.646677	0.001399	13.985351	2.369183	-0.000280
1481	1.4726e+02	-9.4823	-49.965610	0.001601	16.012214	2.712542	-0.000321
1482	1.4736e+02	-9.5020	-50.292618	0.001642	16.417586	2.781214	-0.000329
1483	1.4746e+02	-9.5219	-50.595404	0.001520	15.201469	2.575199	-0.000304
1484	1.4756e+02	-9.5415	-50.942597	0.001743	17.431017	2.952894	-0.000349
1485	1.4766e+02	-9.5610	-51.217123	0.001378	13.782665	2.334847	-0.000276
1486	1.4776e+02	-9.5819	-51.584502	0.001844	18.444449	3.124574	-0.000369
1487	1.4786e+02	-9.6007	-51.923621	0.001703	17.025645	2.884222	-0.000341
1488	1.4796e+02	-9.6205	-52.270815	0.001743	17.431017	2.952894	-0.000349
1489	1.4806e+02	-9.6397	-52.593786	0.001621	16.214900	2.746878	-0.000325
1490	1.4816e+02	-9.6619	-52.936942	0.001723	17.228331	2.918558	-0.000345
1491	1.4825e+02	-9.6808	-53.300285	0.001824	18.241762	3.090238	-0.000365
1492	1.4835e+02	-9.7009	-53.635367	0.001682	16.822959	2.849886	-0.000337
1493	1.4845e+02	-9.7205	-53.982561	0.001743	17.431017	2.952894	-0.000349
1494	1.4855e+02	-9.7408	-54.362051	0.001905	19.052507	3.227582	-0.000381
1495	1.4865e+02	-9.7610	-54.697134	0.001682	16.822959	2.849886	-0.000337
1496	1.4875e+02	-9.7803	-55.032216	0.001682	16.822959	2.849886	-0.000337
1497	1.4885e+02	-9.7998	-55.415744	0.001926	19.255194	3.261918	-0.000385
1498	1.4895e+02	-9.8199	-55.799272	0.001926	19.255194	3.261918	-0.000385
1499	1.4905e+02	-9.8395	-56.118205	0.001601	16.012214	2.712542	-0.000321
1500	1.4915e+02	-9.8596	-56.493659	0.001885	18.849821	3.193246	-0.000377
1501	1.4925e+02	-9.8804	-56.901410	0.002047	20.471311	3.467934	-0.000410
1502	1.4935e+02	-9.8997	-57.252640	0.001763	17.633704	2.987230	-0.000353
1503	1.4945e+02	-9.9199	-57.652317	0.002007	20.065939	3.399262	-0.000402
1504	1.4955e+02	-9.9399	-57.999511	0.001743	17.431017	2.952894	-0.000349
1505	1.4965e+02	-9.9605	-58.370927	0.001865	18.647135	3.158910	-0.000373
1506	1.4975e+02	-9.9799	-58.819049	0.002250	22.498174	3.811294	-0.000450
1507	1.4985e+02	-9.9997	-59.194503	0.001885	18.849821	3.193246	-0.000377
1508	1.4995e+02	-9.9786	-59.424619	-0.001155	-11.553116	-1.957151	-0.000231
1509	1.5005e+02	-9.9604	-59.695108	-0.001358	-13.579979	-2.300511	-0.000272
1510	1.5015e+02	-9.9396	-59.921187	-0.001135	-11.350430	-1.922815	-0.000227
1511	1.5025e+02	-9.9197	-60.114970	-0.000973	-9.728940	-1.648127	-0.000195
1512	1.5034e+02	-9.8996	-60.320864	-0.001034	-10.336999	-1.751135	-0.000207
1513	1.5044e+02	-9.8793	-60.462163	-0.000709	-7.094019	-1.201759	-0.000142
1514	1.5054e+02	-9.8604	-60.680169	-0.001095	-10.945057	-1.854143	-0.000219
1515	1.5064e+02	-9.8407	-60.845691	-0.000831	-8.310136	-1.407775	-0.000166
1516	1.5074e+02	-9.8199	-61.031400	-0.000932	-9.323567	-1.579455	-0.000187
1517	1.5084e+02	-9.8004	-61.184811	-0.000770	-7.702077	-1.304767	-0.000154
1518	1.5094e+02	-9.7806	-61.293813	-0.000547	-5.472529	-0.927071	-0.000110
1519	1.5104e+02	-9.7602	-61.451262	-0.000790	-7.904764	-1.339103	-0.000158
1520	1.5114e+02	-9.7407	-61.592561	-0.000709	-7.094019	-1.201759	-0.000142
1521	1.5124e+02	-9.7217	-61.737898	-0.000730	-7.296705	-1.236095	-0.000146
1522	1.5134e+02	-9.7006	-61.859012	-0.000608	-6.080587	-1.030079	-0.000122
1523	1.5144e+02	-9.6808	-61.992238	-0.000669	-6.688646	-1.133087	-0.000134
1524	1.5154e+02	-9.6606	-62.081055	-0.000446	-4.459097	-0.755392	-0.000089
1525	1.5164e+02	-9.6404	-62.238503	-0.000790	-7.904764	-1.339103	-0.000158
1526	1.5174e+02	-9.6210	-62.331357	-0.000466	-4.661784	-0.789728	-0.000093
1527	1.5184e+02	-9.6017	-62.420174	-0.000446	-4.459097	-0.755392	-0.000089
1528	1.5194e+02	-9.5815	-62.541288	-0.000608	-6.080587	-1.030079	-0.000122
1529	1.5204e+02	-9.5619	-62.617994	-0.000385	-3.851039	-0.652384	-0.000077
1530	1.5214e+02	-9.5425	-62.706811	-0.000446	-4.459097	-0.755392	-0.000089
1531	1.5224e+02	-9.5215	-62.767368	-0.000304	-3.040294	-0.515040	-0.000061
1532	1.5233e+02	-9.5019	-62.880408	-0.000568	-5.675215	-0.961407	-0.000114
1533	1.5243e+02	-9.4820	-62.940965	-0.000304	-3.040294	-0.515040	-0.000061
1534	1.5253e+02	-9.4618	-63.005559	-0.000324	-3.242980	-0.549376	-0.000065
1535	1.5263e+02	-9.4414	-63.070153	-0.000324	-3.242980	-0.549376	-0.000065
1536	1.5273e+02	-9.4217	-63.167044	-0.000486	-4.864470	-0.824064	-0.000097
1537	1.5283e+02	-9.4023	-63.243750	-0.000385	-3.851039	-0.652384	-0.000077
1538	1.5293e+02	-9.3823	-63.340641	-0.000486	-4.864470	-0.824064	-0.000097
1539	1.5303e+02	-9.3616	-63.332567	0.000041	0.405372	0.068672	0.000008
1540	1.5313e+02	-9.3430	-63.421384	-0.000446	-4.459097	-0.755392	-0.000089
1541	1.5323e+02	-9.3221	-63.441570	-0.000101	-1.013431	-0.171680	-0.000020
1542	1.5333e+02	-9.3021	-63.485978	-0.000223	-2.229549	-0.377696	-0.000045
1543	1.5343e+02	-9.2831	-63.566721	-0.000405	-4.053725	-0.686720	-0.000081
1544	1.5353e+02	-9.2622	-63.599018	-0.000162	-1.621490	-0.274688	-0.000032
1545	1.5363e+02	-9.2428	-63.623241	-0.000122	-1.216117	-0.206016	-0.000024
1546	1.5373e+02	-9.2224	-63.659575	-0.000182	-1.824176	-0.309024	-0.000037
1547	1.5383e+02	-9.2030	-63.720132	-0.000304	-3.040294	-0.515040	-0.000061
1548	1.5393e+02	-9.1824	-63.728206	-0.000041	-0.405372	-0.068672	-0.000008
1549	1.5403e+02	-9.1623	-63.788763	-0.000304	-3.040294	-0.515040	-0.000061
1550	1.5413e+02	-9.1434	-63.833172	-0.000223	-2.229549	-0.377696	-0.000045
1551	1.5422e+02	-9.1235	-63.833172	0.000000	0.000000	0.000000	0.000000
1552	1.5432e+02	-9.1040	-63.849320	-0.000081	-0.810745	-0.137344	-0.000016
1553	1.5442e+02	-9.0837	-63.853357	-0.000020	-0.202686	-0.034336	-0.000004
1554	1.5452e+02	-9.0640	-63.909877	-0.000284	-2.837607	-0.480704	-0.000057
1555	1.5462e+02	-9.0425	-63.921989	-0.000061	-0.608059	-0.103008	-0.000012
1556	1.5472e+02	-9.0234	-63.954286	-0.000162	-1.621490	-0.274688	-0.000032
1557	1.5482e+02	-9.0034	-63.934100	0.000101	1.013431	0.171680	0.000020
1558	1.5492e+02	-8.9833	-63.934100	0.000000	0.000000	0.000000	0.000000
1559	1.5502e+02	-8.9635	-63.938137	-0.000020	-0.202686	-0.034336	-0.000004
1560	1.5512e+02	-8.9448	-63.990620	-0.000263	-2.634921	-0.446368	-0.000053
1561	1.5522e+02	-8.9240	-63.982546	0.000041	0.405372	0.068672	0.000008
1562	1.5532e+02	-8.9029	-63.962360	0.000101	1.013431	0.171680	0.000020
1563	1.5542e+02	-8.8840	-64.022917	-0.000304	-3.040294	-0.515040	-0.000061
1564	1.5552e+02	-8.8639	-63.982546	0.000203	2.026862	0.343360	0.000041
1565	1.5562e+02	-8.8441	-63.994657	-0.000061	-0.608059	-0.103008	-0.000012
1566	1.5572e+02	-8.8257	-63.978509	0.000081	0.810745	0.137344	0.000016
1567	1.5582e+02	-8.8049	-64.002731	-0.000122	-1.216117	-0.206016	-0.000024
1568	1.5592e+02	-8.7839	-63.970434	0.000162	1.621490	0.274688	0.000032
1569	1.5602e+02	-8.7646	-63.970434	0.000000	0.000000	0.000000	0.000000
1570	1.5612e+02	-8.7442	-63.942174	0.000142	1.418804	0.240352	0.000028
1571	1.5622e+02	-8.7251	-63.938137	0.000020	0.202686	0.034336	0.000004
1572	1.5631e+02	-8.7057	-63.946212	-0.000041	-0.405372	-0.068672	-0.000008
1573	1.5641e+02	-8.6850	-63.934100	0.000061	0.608059	0.103008	0.000012
1574	1.5651e+02	-8.6656	-63.946212	-0.000061	-0.608059	-0.103008	-0.000012
1575	1.5661e+02	-8.6447	-63.889692	0.000284	2.837607	0.480704	0.000057
1576	1.5671e+02	-8.6253	-63.897766	-0.000041	-0.405372	-0.068672	-0.000008
1577	1.5681e+02	-8.6035	-63.873543	0.000122	1.216117	0.206016	0.000024
1578	1.5691e+02	-8.5846	-63.893729	-0.000101	-1.013431	-0.171680	-0.000020
1579	1.5701e+02	-8.5657	-63.865469	0.000142	1.418804	0.240352	0.000028
1580	1.5711e+02	-8.5451	-63.812986	0.000263	2.634921	0.446368	0.000053
1581	1.5721e+02	-8.5263	-63.800875	0.000061	0.608059	0.103008	0.000012
1582	1.5731e+02	-8.5058	-63.768578	0.000162	1.621490	0.274688	0.000032
1583	1.5741e+02	-8.4858	-63.764540	0.000020	0.202686	0.034336	0.000004
1584	1.5751e+02	-8.4669	-63.744355	0.000101	1.013431	0.171680	0.000020
1585	1.5761e+02	-8.4456	-63.728206	0.000081	0.810745	0.137344	0.000016
1586	1.5771e+02	-8.4256	-63.667649	0.000304	3.040294	0.515040	0.000061
1587	1.5781e+02	-8.4058	-63.663612	0.000020	0.202686	0.034336	0.000004
1588	1.5791e+02	-8.3850	-63.635352	0.000142	1.418804	0.240352	0.000028
1589	1.5801e+02	-8.3655	-63.619204	0.000081	0.810745	0.137344	0.000016
1590	1.5811e+02	-8.3463	-63.578832	0.000203	2.026862	0.343360	0.000041
1591	1.5821e+02	-8.3263	-63.570758	0.000041	0.405372	0.068672	0.000008
1592	1.5830e+02	-8.3067	-63.510201	0.000304	3.040294	0.515040	0.000061
1593	1.5840e+02	-8.2870	-63.490015	0.000101	1.013431	0.171680	0.000020
1594	1.5850e+02	-8.2664	-63.433495	0.000284	2.837607	0.480704	0.000057
1595	1.5860e+02	-8.2480	-63.417347	0.000081	0.810745	0.137344	0.000016
1596	1.5870e+02	-8.2272	-63.381013	0.000182	1.824176	0.309024	0.000037
1597	1.5880e+02	-8.2068	-63.300270	0.000405	4.053725	0.686720	0.000081
1598	1.5890e+02	-8.1883	-63.288158	0.000061	0.608059	0.103008	0.000012
1599	1.5900e+02	-8.1671	-63.276047	0.000061	0.608059	0.103008	0.000012
1600	1.5910e+02	-8.1464	-63.203379	0.000365	3.648352	0.618048	0.000073
1601	1.5920e+02	-8.1262	-63.187230	0.000081	0.810745	0.137344	0.000016
1602	1.5930e+02	-8.1082	-63.150896	0.000182	1.824176	0.309024	0.000037
1603	1.5940e+02	-8.0867	-63.086302	0.000324	3.242980	0.549376	0.000065
1604	1.5950e+02	-8.0670	-63.078227	0.000041	0.405372	0.068672	0.000008
1605	1.5960e+02	-8.0472	-63.041893	0.000182	1.824176	0.309024	0.000037
1606	1.5970e+02	-8.0276	-62.973262	0.000345	3.445666	0.583712	0.000069
1607	1.5980e+02	-8.0078	-62.932890	0.000203	2.026862	0.343360	0.000041
1608	1.5990e+02	-7.9874	-62.904631	0.000142	1.418804	0.240352	0.000028
1609	1.6000e+02	-7.9680	-62.856185	0.000243	2.432235	0.412032	0.000049
1610	1.6010e+02	-7.9483	-62.807739	0.000243	2.432235	0.412032	0.000049
1611	1.6019e+02	-7.9279	-62.739108	0.000345	3.445666	0.583712	0.000069
1612	1.6029e+02	-7.9083	-62.682588	0.000284	2.837607	0.480704	0.000057
1613	1.6039e+02	-7.8881	-62.674514	0.000041	0.405372	0.068672	0.000008
1614	1.6049e+02	-7.8682	-62.634142	0.000203	2.026862	0.343360	0.000041
1615	1.6059e+02	-7.8482	-62.577623	0.000284	2.837607	0.480704	0.000057
1616	1.6069e+02	-7.8281	-62.561474	0.000081	0.810745	0.137344	0.000016
1617	1.6079e+02	-7.8094	-62.476694	0.000426	4.256411	0.721056	0.000085
1618	1.6089e+02	-7.7884	-62.408063	0.000345	3.445666	0.583712	0.000069
1619	1.6099e+02	-7.7686	-62.355580	0.000263	2.634921	0.446368	0.000053
1620	1.6109e+02	-7.7486	-62.307134	0.000243	2.432235	0.412032	0.000049
1621	1.6119e+02	-7.7290	-62.238503	0.000345	3.445666	0.583712	0.000069
1622	1.6129e+02	-7.7087	-62.206206	0.000162	1.621490	0.274688	0.000032
1623	1.6139e+02	-7.6892	-62.125463	0.000405	4.053725	0.686720	0.000081
1624	1.6149e+02	-7.6691	-62.121426	0.000020	0.202686	0.034336	0.000004
1625	1.6159e+02	-7.6483	-62.068943	0.000263	2.634921	0.446368	0.000053
1626	1.6169e+02	-7.6292	-61.972052	0.000486	4.864470	0.824064	0.000097
1627	1.6179e+02	-7.6086	-61.939755	0.000162	1.621490	0.274688	0.000032
1628	1.6189e+02	-7.5890	-61.891309	0.000243	2.432235	0.412032	0.000049
1629	1.6199e+02	-7.5703	-61.842864	0.000243	2.432235	0.412032	0.000049
1630	1.6209e+02	-7.5497	-61.754047	0.000446	4.459097	0.755392	0.000089
1631	1.6219e+02	-7.5305	-61.717713	0.000182	1.824176	0.309024	0.000037
1632	1.6228e+02	-7.5102	-61.665230	0.000263	2.634921	0.446368	0.000053
1633	1.6238e+02	-7.4899	-61.620821	0.000223	2.229549	0.377696	0.000045
1634	1.6248e+02	-7.4707	-61.536041	0.000426	4.256411	0.721056	0.000085
1635	1.6258e+02	-7.4500	-61.475484	0.000304	3.040294	0.515040	0.000061
1636	1.6268e+02	-7.4307	-61.447225	0.000142	1.418804	0.240352	0.000028
1637	1.6278e+02	-7.4103	-61.382630	0.000324	3.242980	0.549376	0.000065
1638	1.6288e+02	-7.3914	-61.334185	0.000243	2.432235	0.412032	0.000049
1639	1.6298e+02	-7.3705	-61.217108	0.000588	5.877901	0.995743	0.000118
1640	1.6308e+02	-7.3515	-61.237293	-0.000101	-1.013431	-0.171680	-0.000020
1641	1.6318e+02	-7.3309	-61.156551	0.000405	4.053725	0.686720	0.000081
1642	1.6328e+02	-7.3105	-61.071771	0.000426	4.256411	0.721056	0.000085
1643	1.6338e+02	-7.2911	-61.003140	0.000345	3.445666	0.583712	0.000069
1644	1.6348e+02	-7.2708	-60.986991	0.000081	0.810745	0.137344	0.000016
1645	1.6358e+02	-7.2513	-60.942583	0.000223	2.229549	0.377696	0.000045
1646	1.6368e+02	-7.2311	-60.865877	0.000385	3.851039	0.652384	0.000077
1647	1.6378e+02	-7.2116	-60.764949	0.000507	5.067156	0.858400	0.000101
1648	1.6388e+02	-7.1911	-60.748800	0.000081	0.810745	0.137344	0.000016
1649	1.6398e+02	-7.1710	-60.684206	0.000324	3.242980	0.549376	0.000065
1650	1.6408e+02	-7.1512	-60.563092	0.000608	6.080587	1.030079	0.000122
1651	1.6418e+02	-7.1307	-60.506572	0.000284	2.837607	0.480704	0.000057
1652	1.6427e+02	-7.1118	-60.470238	0.000182	1.824176	0.309024	0.000037
1653	1.6437e+02	-7.0920	-60.385458	0.000426	4.256411	0.721056	0.000085
1654	1.6447e+02	-7.0715	-60.345086	0.000203	2.026862	0.343360	0.000041
1655	1.6457e+02	-7.0526	-60.276455	0.000345	3.445666	0.583712	0.000069
1656	1.6467e+02	-7.0313	-60.195712	0.000405	4.053725	0.686720	0.000081
1657	1.6477e+02	-7.0129	-60.123044	0.000365	3.648352	0.618048	0.000073
1658	1.6487e+02	-6.9928	-60.078635	0.000223	2.229549	0.377696	0.000045
1659	1.6497e+02	-6.9717	-60.014041	0.000324	3.242980	0.549376	0.000065
1660	1.6507e+02	-6.9526	-59.933299	0.000405	4.053725	0.686720	0.000081
1661	1.6517e+02	-6.9320	-59.868704	0.000324	3.242980	0.549376	0.000065
1662	1.6527e+02	-6.9119	-59.832370	0.000182	1.824176	0.309024	0.000037
1663	1.6537e+02	-6.8919	-59.755665	0.000385	3.851039	0.652384	0.000077
1664	1.6547e+02	-6.8716	-59.670885	0.000426	4.256411	0.721056	0.000085
1665	1.6557e+02	-6.8524	-59.638588	0.000162	1.621490	0.274688	0.000032
1666	1.6567e+02	-6.8326	-59.557845	0.000405	4.053725	0.686720	0.000081
1667	1.6577e+02	-6.8121	-59.485177	0.000365	3.648352	0.618048	0.000073
1668	1.6587e+02	-6.7924	-59.432694	0.000263	2.634921	0.446368	0.000053
1669	1.6597e+02	-6.7725	-59.315617	0.000588	5.877901	0.995743	0.000118
1670	1.6607e+02	-6.7532	-59.271208	0.000223	2.229549	0.377696	0.000045
1671	1.6616e+02	-6.7333	-59.190466	0.000405	4.053725	0.686720	0.000081
1672	1.6626e+02	-6.7132	-59.154131	0.000182	1.824176	0.309024	0.000037
1673	1.6636e+02	-6.6925	-59.065314	0.000446	4.459097	0.755392	0.000089
1674	1.6646e+02	-6.6733	-58.992646	0.000365	3.648352	0.618048	0.000073
1675	1.6656e+02	-6.6531	-58.899792	0.000466	4.661784	0.789728	0.000093
1676	1.6666e+02	-6.6333	-58.835198	0.000324	3.242980	0.549376	0.000065
1677	1.6676e+02	-6.6129	-58.762529	0.000365	3.648352	0.618048	0.000073
1678	1.6686e+02	-6.5939	-58.714084	0.000243	2.432235	0.412032	0.000049
1679	1.6696e+02	-6.5733	-58.661601	0.000263	2.634921	0.446368	0.000053
1680	1.6706e+02	-6.5533	-58.548561	0.000568	5.675215	0.961407	0.000114
1681	1.6716e+02	-6.5338	-58.544524	0.000020	0.202686	0.034336	0.000004
1682	1.6726e+02	-6.5141	-58.483967	0.000304	3.040294	0.515040	0.000061
1683	1.6736e+02	-6.4900	-58.383038	0.000507	5.067156	0.858400	0.000101
1684	1.6746e+02	-6.4743	-58.298259	0.000426	4.256411	0.721056	0.000085
1685	1.6756e+02	-6.4540	-58.253850	0.000223	2.229549	0.377696	0.000045
1686	1.6766e+02	-6.4351	-58.156959	0.000486	4.864470	0.824064	0.000097
1687	1.6776e+02	-6.4133	-58.080253	0.000385	3.851039	0.652384	0.000077
1688	1.6786e+02	-6.3940	-57.979325	0.000507	5.067156	0.858400	0.000101
1689	1.6796e+02	-6.3751	-57.938954	0.000203	2.026862	0.343360	0.000041
1690	1.6806e+02	-6.3547	-57.805728	0.000669	6.688646	1.133087	0.000134
1691	1.6816e+02	-6.3345	-57.805728	0.000000	0.000000	0.000000	0.000000
1692	1.6825e+02	-6.3145	-57.696725	0.000547	5.472529	0.927071	0.000110
1693	1.6835e+02	-6.2956	-57.615983	0.000405	4.053725	0.686720	0.000081
1694	1.6845e+02	-6.2753	-57.595797	0.000101	1.013431	0.171680	0.000020
1695	1.6855e+02	-6.2540	-57.494869	0.000507	5.067156	0.858400	0.000101
1696	1.6865e+02	-6.2353	-57.397977	0.000486	4.864470	0.824064	0.000097
1697	1.6875e+02	-6.2163	-57.321272	0.000385	3.851039	0.652384	0.000077
1698	1.6885e+02	-6.1958	-57.256678	0.000324	3.242980	0.549376	0.000065
1699	1.6895e+02	-6.1752	-57.204195	0.000263	2.634921	0.446368	0.000053
1700	1.6905e+02	-6.1551	-57.087118	0.000588	5.877901	0.995743	0.000118
1701	1.6915e+02	-6.1349	-57.038672	0.000243	2.432235	0.412032	0.000049
1702	1.6925e+02	-6.1154	-56.953892	0.000426	4.256411	0.721056	0.000085
1703	1.6935e+02	-6.0950	-56.861038	0.000466	4.661784	0.789728	0.000093
1704	1.6945e+02	-6.0767	-56.800481	0.000304	3.040294	0.515040	0.000061
1705	1.6955e+02	-6.0562	-56.707627	0.000466	4.661784	0.789728	0.000093
1706	1.6965e+02	-6.0356	-56.606699	0.000507	5.067156	0.858400	0.000101
1707	1.6975e+02	-6.0170	-56.558253	0.000243	2.432235	0.412032	0.000049
1708	1.6985e+02	-5.9966	-56.497696	0.000304	3.040294	0.515040	0.000061
1709	1.6995e+02	-5.9760	-56.408879	0.000446	4.459097	0.755392	0.000089
1710	1.7005e+02	-5.9561	-56.356396	0.000263	2.634921	0.446368	0.000053
1711	1.7015e+02	-5.9357	-56.259505	0.000486	4.864470	0.824064	0.000097
1712	1.7024e+02	-5.9170	-56.207022	0.000263	2.634921	0.446368	0.000053
1713	1.7034e+02	-5.8960	-56.069760	0.000689	6.891332	1.167423	0.000138
1714	1.7044e+02	-5.8765	-56.053611	0.000081	0.810745	0.137344	0.000016
1715	1.7054e+02	-5.8569	-55.940571	0.000568	5.675215	0.961407	0.000114
1716	1.7064e+02	-5.8354	-55.880014	0.000304	3.040294	0.515040	0.000061
1717	1.7074e+02	-5.8160	-55.787160	0.000466	4.661784	0.789728	0.000093
1718	1.7084e+02	-5.7965	-55.674120	0.000568	5.675215	0.961407	0.000114
1719	1.7094e+02	-5.7771	-55.645860	0.000142	1.418804	0.240352	0.000028
1720	1.7104e+02	-5.7562	-55.520709	0.000628	6.283274	1.064415	0.000126
1721	1.7114e+02	-5.7373	-55.431892	0.000446	4.459097	0.755392	0.000089
1722	1.7124e+02	-5.7153	-55.343075	0.000446	4.459097	0.755392	0.000089
1723	1.7134e+02	-5.6970	-55.322890	0.000101	1.013431	0.171680	0.000020
1724	1.7144e+02	-5.6776	-55.230035	0.000466	4.661784	0.789728	0.000093
1725	1.7154e+02	-5.6567	-55.141218	0.000446	4.459097	0.755392	0.000089
1726	1.7164e+02	-5.6381	-55.076624	0.000324	3.242980	0.549376	0.000065
1727	1.7174e+02	-5.6175	-55.007993	0.000345	3.445666	0.583712	0.000069
1728	1.7184e+02	-5.5968	-54.886879	0.000608	6.080587	1.030079	0.000122
1729	1.7194e+02	-5.5783	-54.822285	0.000324	3.242980	0.549376	0.000065
1730	1.7204e+02	-5.5580	-54.701171	0.000608	6.080587	1.030079	0.000122
1731	1.7213e+02	-5.5381	-54.656762	0.000223	2.229549	0.377696	0.000045
1732	1.7223e+02	-5.5179	-54.535648	0.000608	6.080587	1.030079	0.000122
1733	1.7233e+02	-5.4979	-54.450868	0.000426	4.256411	0.721056	0.000085
1734	1.7243e+02	-5.4788	-54.366088	0.000426	4.256411	0.721056	0.000085
1735	1.7253e+02	-5.4585	-54.349940	0.000081	0.810745	0.137344	0.000016
1736	1.7263e+02	-5.4389	-54.244974	0.000527	5.269842	0.892735	0.000105
1737	1.7273e+02	-5.4175	-54.164232	0.000405	4.053725	0.686720	0.000081
1738	1.7283e+02	-5.3979	-54.067340	0.000486	4.864470	0.824064	0.000097
1739	1.7293e+02	-5.3772	-54.014858	0.000263	2.634921	0.446368	0.000053
1740	1.7303e+02	-5.3604	-53.897781	0.000588	5.877901	0.995743	0.000118
1741	1.7313e+02	-5.3383	-53.804927	0.000466	4.661784	0.789728	0.000093
1742	1.7323e+02	-5.3189	-53.732258	0.000365	3.648352	0.618048	0.000073
1743	1.7333e+02	-5.2988	-53.631330	0.000507	5.067156	0.858400	0.000101
1744	1.7343e+02	-5.2779	-53.570773	0.000304	3.040294	0.515040	0.000061
1745	1.7353e+02	-5.2586	-53.502141	0.000345	3.445666	0.583712	0.000069
1746	1.7363e+02	-5.2388	-53.393139	0.000547	5.472529	0.927071	0.000110
1747	1.7373e+02	-5.2179	-53.292210	0.000507	5.067156	0.858400	0.000101
1748	1.7383e+02	-5.1981	-53.219542	0.000365	3.648352	0.618048	0.000073
1749	1.7393e+02	-5.1793	-53.146873	0.000365	3.648352	0.618048	0.000073
1750	1.7403e+02	-5.1591	-53.078242	0.000345	3.445666	0.583712	0.000069
1751	1.7413e+02	-5.1401	-52.945017	0.000669	6.688646	1.133087	0.000134
1752	1.7422e+02	-5.1187	-52.896571	0.000243	2.432235	0.412032	0.000049
1753	1.7432e+02	-5.0995	-52.811791	0.000426	4.256411	0.721056	0.000085
1754	1.7442e+02	-5.0780	-52.714900	0.000486	4.864470	0.824064	0.000097
1755	1.7452e+02	-5.0587	-52.626083	0.000446	4.459097	0.755392	0.000089
1756	1.7462e+02	-5.0397	-52.557452	0.000345	3.445666	0.583712	0.000069
1757	1.7472e+02	-5.0200	-52.444412	0.000568	5.675215	0.961407	0.000114
1758	1.7482e+02	-4.9995	-52.367706	0.000385	3.851039	0.652384	0.000077
1759	1.7492e+02	-4.9799	-52.274852	0.000466	4.661784	0.789728	0.000093
1760	1.7502e+02	-4.9600	-52.173924	0.000507	5.067156	0.858400	0.000101
1761	1.7512e+02	-4.9403	-52.081070	0.000466	4.661784	0.789728	0.000093
1762	1.7522e+02	-4.9199	-52.020513	0.000304	3.040294	0.515040	0.000061
1763	1.7532e+02	-4.8999	-51.903436	0.000588	5.877901	0.995743	0.000118
1764	1.7542e+02	-4.8799	-51.802507	0.000507	5.067156	0.858400	0.000101
1765	1.7552e+02	-4.8595	-51.737913	0.000324	3.242980	0.549376	0.000065
1766	1.7562e+02	-4.8399	-51.661207	0.000385	3.851039	0.652384	0.000077
1767	1.7572e+02	-4.8209	-51.527982	0.000669	6.688646	1.133087	0.000134
1768	1.7582e+02	-4.8007	-51.471462	0.000284	2.837607	0.480704	0.000057
1769	1.7592e+02	-4.7810	-51.346311	0.000628	6.283274	1.064415	0.000126
1770	1.7602e+02	-4.7615	-51.297865	0.000243	2.432235	0.412032	0.000049
1771	1.7612e+02	-4.7414	-51.209048	0.000446	4.459097	0.755392	0.000089
1772	1.7621e+02	-4.7208	-51.091971	0.000588	5.877901	0.995743	0.000118
1773	1.7631e+02	-4.6999	-51.031414	0.000304	3.040294	0.515040	0.000061
1774	1.7641e+02	-4.6814	-50.938560	0.000466	4.661784	0.789728	0.000093
1775	1.7651e+02	-4.6605	-50.853780	0.000426	4.256411	0.721056	0.000085
1776	1.7661e+02	-4.6423	-50.720555	0.000669	6.688646	1.133087	0.000134
1777	1.7671e+02	-4.6210	-50.664035	0.000284	2.837607	0.480704	0.000057
1778	1.7681e+02	-4.6016	-50.579255	0.000426	4.256411	0.721056	0.000085
1779	1.7691e+02	-4.5819	-50.486401	0.000466	4.661784	0.789728	0.000093
1780	1.7701e+02	-4.5609	-50.357213	0.000649	6.485960	1.098751	0.000130
1781	1.7711e+02	-4.5406	-50.316841	0.000203	2.026862	0.343360	0.000041
1782	1.7721e+02	-4.5221	-50.203801	0.000568	5.675215	0.961407	0.000114
1783	1.7731e+02	-4.5013	-50.127096	0.000385	3.851039	0.652384	0.000077
1784	1.7741e+02	-4.4823	-50.014056	0.000568	5.675215	0.961407	0.000114
1785	1.7751e+02	-4.4608	-49.905053	0.000547	5.472529	0.927071	0.000110
1786	1.7761e+02	-4.4415	-49.820274	0.000426	4.256411	0.721056	0.000085
1787	1.7771e+02	-4.4209	-49.711271	0.000547	5.472529	0.927071	0.000110
1788	1.7781e+02	-4.4019	-49.634565	0.000385	3.851039	0.652384	0.000077
1789	1.7791e+02	-4.3823	-49.541711	0.000466	4.661784	0.789728	0.000093
1790	1.7801e+02	-4.3626	-49.465006	0.000385	3.851039	0.652384	0.000077
1791	1.7810e+02	-4.3430	-49.392337	0.000365	3.648352	0.618048	0.000073
1792	1.7820e+02	-4.3224	-49.247000	0.000730	7.296705	1.236095	0.000146
1793	1.7830e+02	-4.3016	-49.158183	0.000446	4.459097	0.755392	0.000089
1794	1.7840e+02	-4.2816	-49.061292	0.000486	4.864470	0.824064	0.000097
1795	1.7850e+02	-4.2636	-48.980549	0.000405	4.053725	0.686720	0.000081
1796	1.7860e+02	-4.2429	-48.887695	0.000466	4.661784	0.789728	0.000093
1797	1.7870e+02	-4.2224	-48.782730	0.000527	5.269842	0.892735	0.000105
1798	1.7880e+02	-4.2033	-48.710061	0.000365	3.648352	0.618048	0.000073
1799	1.7890e+02	-4.1814	-48.580873	0.000649	6.485960	1.098751	0.000130
1800	1.7900e+02	-4.1623	-48.500130	0.000405	4.053725	0.686720	0.000081
1801	1.7910e+02	-4.1422	-48.387090	0.000568	5.675215	0.961407	0.000114
1802	1.7920e+02	-4.1226	-48.330570	0.000284	2.837607	0.480704	0.000057
1803	1.7930e+02	-4.1028	-48.237716	0.000466	4.661784	0.789728	0.000093
1804	1.7940e+02	-4.0822	-48.100454	0.000689	6.891332	1.167423	0.000138
1805	1.7950e+02	-4.0636	-47.995488	0.000527	5.269842	0.892735	0.000105
1806	1.7960e+02	-4.0438	-47.926857	0.000345	3.445666	0.583712	0.000069
1807	1.7970e+02	-4.0238	-47.809780	0.000588	5.877901	0.995743	0.000118
1808	1.7980e+02	-4.0027	-47.716926	0.000466	4.661784	0.789728	0.000093
1809	1.7990e+02	-3.9832	-47.628109	0.000446	4.459097	0.755392	0.000089
1810	1.8000e+02	-3.9636	-47.531218	0.000486	4.864470	0.824064	0.000097
1811	1.8009e+02	-3.9438	-47.430289	0.000507	5.067156	0.858400	0.000101
1812	1.8019e+02	-3.9239	-47.333398	0.000486	4.864470	0.824064	0.000097
1813	1.8029e+02	-3.9040	-47.248618	0.000426	4.256411	0.721056	0.000085
1814	1.8039e+02	-3.8827	-47.119430	0.000649	6.485960	1.098751	0.000130
1815	1.8049e+02	-3.8647	-47.026576	0.000466	4.661784	0.789728	0.000093
1816	1.8059e+02	-3.8446	-46.949870	0.000385	3.851039	0.652384	0.000077
1817	1.8069e+02	-3.8239	-46.828756	0.000608	6.080587	1.030079	0.000122
1818	1.8079e+02	-3.8041	-46.752050	0.000385	3.851039	0.652384	0.000077
1819	1.8089e+02	-3.7845	-46.643048	0.000547	5.472529	0.927071	0.000110
1820	1.8099e+02	-3.7643	-46.554231	0.000446	4.459097	0.755392	0.000089
1821	1.8109e+02	-3.7445	-46.465414	0.000446	4.459097	0.755392	0.000089
1822	1.8119e+02	-3.7254	-46.340263	0.000628	6.283274	1.064415	0.000126
1823	1.8129e+02	-3.7050	-46.271631	0.000345	3.445666	0.583712	0.000069
1824	1.8139e+02	-3.6847	-46.154554	0.000588	5.877901	0.995743	0.000118
1825	1.8149e+02	-3.6649	-46.029403	0.000628	6.283274	1.064415	0.000126
1826	1.8159e+02	-3.6450	-45.936549	0.000466	4.661784	0.789728	0.000093
1827	1.8169e+02	-3.6250	-45.815435	0.000608	6.080587	1.030079	0.000122
1828	1.8179e+02	-3.6050	-45.738729	0.000385	3.851039	0.652384	0.000077
1829	1.8189e+02	-3.5850	-45.649912	0.000446	4.459097	0.755392	0.000089
1830	1.8199e+02	-3.5651	-45.536873	0.000568	5.675215	0.961407	0.000114
1831	1.8209e+02	-3.5455	-45.452093	0.000426	4.256411	0.721056	0.000085
1832	1.8218e+02	-3.5264	-45.351164	0.000507	5.067156	0.858400	0.000101
1833	1.8228e+02	-3.5056	-45.242162	0.000547	5.472529	0.927071	0.000110
1834	1.8238e+02	-3.4859	-45.121048	0.000608	6.080587	1.030079	0.000122
1835	1.8248e+02	-3.4662	-45.003971	0.000588	5.877901	0.995743	0.000118
1836	1.8258e+02	-3.4465	-44.939376	0.000324	3.242980	0.549376	0.000065
1837	1.8268e+02	-3.4251	-44.814225	0.000628	6.283274	1.064415	0.000126
1838	1.8278e+02	-3.4055	-44.709260	0.000527	5.269842	0.892735	0.000105
1839	1.8288e+02	-3.3855	-44.608331	0.000507	5.067156	0.858400	0.000101
1840	1.8298e+02	-3.3658	-44.491254	0.000588	5.877901	0.995743	0.000118
1841	1.8308e+02	-3.3459	-44.430697	0.000304	3.040294	0.515040	0.000061
1842	1.8318e+02	-3.3257	-44.353992	0.000385	3.851039	0.652384	0.000077
1843	1.8328e+02	-3.3069	-44.216729	0.000689	6.891332	1.167423	0.000138
1844	1.8338e+02	-3.2866	-44.111764	0.000527	5.269842	0.892735	0.000105
1845	1.8348e+02	-3.2663	-43.990650	0.000608	6.080587	1.030079	0.000122
1846	1.8358e+02	-3.2457	-43.905870	0.000426	4.256411	0.721056	0.000085
1847	1.8368e+02	-3.2267	-43.808978	0.000486	4.864470	0.824064	0.000097
1848	1.8378e+02	-3.2066	-43.683827	0.000628	6.283274	1.064415	0.000126
1849	1.8388e+02	-3.1862	-43.599047	0.000426	4.256411	0.721056	0.000085
1850	1.8398e+02	-3.1668	-43.477933	0.000608	6.080587	1.030079	0.000122
1851	1.8407e+02	-3.1468	-43.356819	0.000608	6.080587	1.030079	0.000122
1852	1.8417e+02	-3.1265	-43.243779	0.000568	5.675215	0.961407	0.000114
1853	1.8427e+02	-3.1070	-43.118628	0.000628	6.283274	1.064415	0.000126
1854	1.8437e+02	-3.0859	-43.021737	0.000486	4.864470	0.824064	0.000097
1855	1.8447e+02	-3.0679	-42.924846	0.000486	4.864470	0.824064	0.000097
1856	1.8457e+02	-3.0479	-42.787583	0.000689	6.891332	1.167423	0.000138
1857	1.8467e+02	-3.0273	-42.718952	0.000345	3.445666	0.583712	0.000069
1858	1.8477e+02	-3.0080	-42.613986	0.000527	5.269842	0.892735	0.000105
1859	1.8487e+02	-2.9871	-42.517095	0.000486	4.864470	0.824064	0.000097
1860	1.8497e+02	-2.9673	-42.420204	0.000486	4.864470	0.824064	0.000097
1861	1.8507e+02	-2.9475	-42.307164	0.000568	5.675215	0.961407	0.000114
1862	1.8517e+02	-2.9276	-42.182013	0.000628	6.283274	1.064415	0.000126
1863	1.8527e+02	-2.9079	-42.068973	0.000568	5.675215	0.961407	0.000114
1864	1.8537e+02	-2.8879	-41.959970	0.000547	5.472529	0.927071	0.000110
1865	1.8547e+02	-2.8671	-41.867116	0.000466	4.661784	0.789728	0.000093
1866	1.8557e+02	-2.8481	-41.729854	0.000689	6.891332	1.167423	0.000138
1867	1.8567e+02	-2.8282	-41.616814	0.000568	5.675215	0.961407	0.000114
1868	1.8577e+02	-2.8076	-41.532034	0.000426	4.256411	0.721056	0.000085
1869	1.8587e+02	-2.7882	-41.386697	0.000730	7.296705	1.236095	0.000146
1870	1.8597e+02	-2.7682	-41.318066	0.000345	3.445666	0.583712	0.000069
1871	1.8606e+02	-2.7477	-41.209063	0.000547	5.472529	0.927071	0.000110
1872	1.8616e+02	-2.7278	-41.128320	0.000405	4.053725	0.686720	0.000081
1873	1.8626e+02	-2.7084	-40.974909	0.000770	7.702077	1.304767	0.000154
1874	1.8636e+02	-2.6882	-40.837647	0.000689	6.891332	1.167423	0.000138
1875	1.8646e+02	-2.6686	-40.793238	0.000223	2.229549	0.377696	0.000045
1876	1.8656e+02	-2.6475	-40.660013	0.000669	6.688646	1.133087	0.000134
1877	1.8666e+02	-2.6292	-40.571196	0.000446	4.459097	0.755392	0.000089
1878	1.8676e+02	-2.6085	-40.429896	0.000709	7.094019	1.201759	0.000142
1879	1.8686e+02	-2.5876	-40.324930	0.000527	5.269842	0.892735	0.000105
1880	1.8696e+02	-2.5698	-40.215928	0.000547	5.472529	0.927071	0.000110
1881	1.8706e+02	-2.5491	-40.102888	0.000568	5.675215	0.961407	0.000114
1882	1.8716e+02	-2.5288	-39.997922	0.000527	5.269842	0.892735	0.000105
1883	1.8726e+02	-2.5095	-39.864697	0.000669	6.688646	1.133087	0.000134
1884	1.8736e+02	-2.4899	-39.808177	0.000284	2.837607	0.480704	0.000057
1885	1.8746e+02	-2.4701	-39.687063	0.000608	6.080587	1.030079	0.000122
1886	1.8756e+02	-2.4503	-39.541726	0.000730	7.296705	1.236095	0.000146
1887	1.8766e+02	-2.4294	-39.444835	0.000486	4.864470	0.824064	0.000097
1888	1.8776e+02	-2.4101	-39.315646	0.000649	6.485960	1.098751	0.000130
1889	1.8786e+02	-2.3898	-39.198569	0.000588	5.877901	0.995743	0.000118
1890	1.8796e+02	-2.3705	-39.089567	0.000547	5.472529	0.927071	0.000110
1891	1.8806e+02	-2.3502	-38.968453	0.000608	6.080587	1.030079	0.000122
1892	1.8815e+02	-2.3309	-38.907896	0.000304	3.040294	0.515040	0.000061
1893	1.8825e+02	-2.3093	-38.770633	0.000689	6.891332	1.167423	0.000138
1894	1.8835e+02	-2.2906	-38.649519	0.000608	6.080587	1.030079	0.000122
1895	1.8845e+02	-2.2711	-38.560702	0.000446	4.459097	0.755392	0.000089
1896	1.8855e+02	-2.2502	-38.431514	0.000649	6.485960	1.098751	0.000130
1897	1.8865e+02	-2.2313	-38.278103	0.000770	7.702077	1.304767	0.000154
1898	1.8875e+02	-2.2102	-38.205434	0.000365	3.648352	0.618048	0.000073
1899	1.8885e+02	-2.1906	-38.068171	0.000689	6.891332	1.167423	0.000138
1900	1.8895e+02	-2.1707	-37.967243	0.000507	5.067156	0.858400	0.000101
1901	1.8905e+02	-2.1505	-37.866315	0.000507	5.067156	0.858400	0.000101
1902	1.8915e+02	-2.1304	-37.737126	0.000649	6.485960	1.098751	0.000130
1903	1.8925e+02	-2.1115	-37.628124	0.000547	5.472529	0.927071	0.000110
1904	1.8935e+02	-2.0908	-37.507010	0.000608	6.080587	1.030079	0.000122
1905	1.8945e+02	-2.0706	-37.422230	0.000426	4.256411	0.721056	0.000085
1906	1.8955e+02	-2.0516	-37.276893	0.000730	7.296705	1.236095	0.000146
1907	1.8965e+02	-2.0317	-37.143667	0.000669	6.688646	1.133087	0.000134
1908	1.8975e+02	-2.0111	-37.022553	0.000608	6.080587	1.030079	0.000122
1909	1.8985e+02	-1.9913	-36.945848	0.000385	3.851039	0.652384	0.000077
1910	1.8995e+02	-1.9717	-36.804548	0.000709	7.094019	1.201759	0.000142
1911	1.9004e+02	-1.9522	-36.679397	0.000628	6.283274	1.064415	0.000126
1912	1.9014e+02	-1.9320	-36.590580	0.000446	4.459097	0.755392	0.000089
1913	1.9024e+02	-1.9122	-36.501763	0.000446	4.459097	0.755392	0.000089
1914	1.9034e+02	-1.8915	-36.352389	0.000750	7.499391	1.270431	0.000150
1915	1.9044e+02	-1.8724	-36.275683	0.000385	3.851039	0.652384	0.000077
1916	1.9054e+02	-1.8519	-36.118235	0.000790	7.904764	1.339103	0.000158
1917	1.9064e+02	-1.8324	-36.001158	0.000588	5.877901	0.995743	0.000118
1918	1.9074e+02	-1.8116	-35.920415	0.000405	4.053725	0.686720	0.000081
1919	1.9084e+02	-1.7924	-35.730670	0.000953	9.526254	1.613791	0.000191
1920	1.9094e+02	-1.7722	-35.662039	0.000345	3.445666	0.583712	0.000069
1921	1.9104e+02	-1.7516	-35.540924	0.000608	6.080587	1.030079	0.000122
1922	1.9114e+02	-1.7324	-35.427885	0.000568	5.675215	0.961407	0.000114
1923	1.9124e+02	-1.7124	-35.302733	0.000628	6.283274	1.064415	0.000126
1924	1.9134e+02	-1.6918	-35.153359	0.000750	7.499391	1.270431	0.000150
1925	1.9144e+02	-1.6722	-35.060505	0.000466	4.661784	0.789728	0.000093
1926	1.9154e+02	-1.6521	-34.955540	0.000527	5.269842	0.892735	0.000105
1927	1.9164e+02	-1.6331	-34.826351	0.000649	6.485960	1.098751	0.000130
1928	1.9174e+02	-1.6131	-34.717349	0.000547	5.472529	0.927071	0.000110
1929	1.9184e+02	-1.5926	-34.592198	0.000628	6.283274	1.064415	0.000126
1930	1.9194e+02	-1.5732	-34.471083	0.000608	6.080587	1.030079	0.000122
1931	1.9203e+02	-1.5529	-34.354007	0.000588	5.877901	0.995743	0.000118
1932	1.9213e+02	-1.5336	-34.196558	0.000790	7.904764	1.339103	0.000158
1933	1.9223e+02	-1.5131	-34.083518	0.000568	5.675215	0.961407	0.000114
1934	1.9233e+02	-1.4928	-33.978553	0.000527	5.269842	0.892735	0.000105
1935	1.9243e+02	-1.4733	-33.917996	0.000304	3.040294	0.515040	0.000061
1936	1.9253e+02	-1.4532	-33.740362	0.000892	8.918195	1.510783	0.000179
1937	1.9263e+02	-1.4333	-33.635396	0.000527	5.269842	0.892735	0.000105
1938	1.9273e+02	-1.4142	-33.506208	0.000649	6.485960	1.098751	0.000130
1939	1.9283e+02	-1.3937	-33.401243	0.000527	5.269842	0.892735	0.000105
1940	1.9293e+02	-1.3748	-33.263980	0.000689	6.891332	1.167423	0.000138
1941	1.9303e+02	-1.3536	-33.130754	0.000669	6.688646	1.133087	0.000134
1942	1.9313e+02	-1.3339	-33.017715	0.000568	5.675215	0.961407	0.000114
1943	1.9323e+02	-1.3143	-32.880452	0.000689	6.891332	1.167423	0.000138
1944	1.9333e+02	-1.2939	-32.775486	0.000527	5.269842	0.892735	0.000105
1945	1.9343e+02	-1.2741	-32.674558	0.000507	5.067156	0.858400	0.000101
1946	1.9353e+02	-1.2549	-32.529221	0.000730	7.296705	1.236095	0.000146
1947	1.9363e+02	-1.2347	-32.436367	0.000466	4.661784	0.789728	0.000093
1948	1.9373e+02	-1.2140	-32.315253	0.000608	6.080587	1.030079	0.000122
1949	1.9383e+02	-1.1943	-32.194139	0.000608	6.080587	1.030079	0.000122
1950	1.9393e+02	-1.1745	-32.068988	0.000628	6.283274	1.064415	0.000126
1951	1.9403e+02	-1.1551	-31.951911	0.000588	5.877901	0.995743	0.000118
1952	1.9412e+02	-1.1349	-31.846945	0.000527	5.269842	0.892735	0.000105
1953	1.9422e+02	-1.1144	-31.673348	0.000872	8.715509	1.476447	0.000174
1954	1.9432e+02	-1.0949	-31.600680	0.000365	3.648352	0.618048	0.000073
1955	1.9442e+02	-1.0744	-31.471492	0.000649	6.485960	1.098751	0.000130
1956	1.9452e+02	-1.0558	-31.326155	0.000730	7.296705	1.236095	0.000146
1957	1.9462e+02	-1.0339	-31.188892	0.000689	6.891332	1.167423	0.000138
1958	1.9472e+02	-1.0152	-31.104112	0.000426	4.256411	0.721056	0.000085
1959	1.9482e+02	-0.9959	-30.958775	0.000730	7.296705	1.236095	0.000146
1960	1.9492e+02	-0.9756	-30.833624	0.000628	6.283274	1.064415	0.000126
1961	1.9502e+02	-0.9559	-30.760956	0.000365	3.648352	0.618048	0.000073
1962	1.9512e+02	-0.9357	-30.607545	0.000770	7.702077	1.304767	0.000154
1963	1.9522e+02	-0.9163	-30.510653	0.000486	4.864470	0.824064	0.000097
1964	1.9532e+02	-0.8954	-30.373391	0.000689	6.891332	1.167423	0.000138
1965	1.9542e+02	-0.8757	-30.232091	0.000709	7.094019	1.201759	0.000142
1966	1.9552e+02	-0.8566	-30.110977	0.000608	6.080587	1.030079	0.000122
1967	1.9562e+02	-0.8350	-29.993900	0.000588	5.877901	0.995743	0.000118
1968	1.9572e+02	-0.8157	-29.860674	0.000669	6.688646	1.133087	0.000134
1969	1.9582e+02	-0.7965	-29.755709	0.000527	5.269842	0.892735	0.000105
1970	1.9592e+02	-0.7764	-29.606335	0.000750	7.499391	1.270431	0.000150
1971	1.9601e+02	-0.7561	-29.513481	0.000466	4.661784	0.789728	0.000093
1972	1.9611e+02	-0.7367	-29.347958	0.000831	8.310136	1.407775	0.000166
1973	1.9621e+02	-0.7164	-29.255104	0.000466	4.661784	0.789728	0.000093
1974	1.9631e+02	-0.6964	-29.105730	0.000750	7.499391	1.270431	0.000150
1975	1.9641e+02	-0.6752	-29.020950	0.000426	4.256411	0.721056	0.000085
1976	1.9651e+02	-0.6563	-28.871576	0.000750	7.499391	1.270431	0.000150
1977	1.9661e+02	-0.6373	-28.798908	0.000365	3.648352	0.618048	0.000073
1978	1.9671e+02	-0.6161	-28.625311	0.000872	8.715509	1.476447	0.000174
1979	1.9681e+02	-0.5963	-28.548605	0.000385	3.851039	0.652384	0.000077
1980	1.9691e+02	-0.5774	-28.379046	0.000851	8.512822	1.442111	0.000170
1981	1.9701e+02	-0.5566	-28.225635	0.000770	7.702077	1.304767	0.000154
1982	1.9711e+02	-0.5373	-28.136818	0.000446	4.459097	0.755392	0.000089
1983	1.9721e+02	-0.5161	-28.011666	0.000628	6.283274	1.064415	0.000126
1984	1.9731e+02	-0.4972	-27.910738	0.000507	5.067156	0.858400	0.000101
1985	1.9741e+02	-0.4774	-27.769438	0.000709	7.094019	1.201759	0.000142
1986	1.9751e+02	-0.4567	-27.644287	0.000628	6.283274	1.064415	0.000126
1987	1.9761e+02	-0.4376	-27.470690	0.000872	8.715509	1.476447	0.000174
1988	1.9771e+02	-0.4177	-27.377836	0.000466	4.661784	0.789728	0.000093
1989	1.9781e+02	-0.3976	-27.297093	0.000405	4.053725	0.686720	0.000081
1990	1.9791e+02	-0.3776	-27.151756	0.000730	7.296705	1.236095	0.000146
1991	1.9800e+02	-0.3577	-27.006420	0.000730	7.296705	1.236095	0.000146
1992	1.9810e+02	-0.3385	-26.901454	0.000527	5.269842	0.892735	0.000105
1993	1.9820e+02	-0.3176	-26.764191	0.000689	6.891332	1.167423	0.000138
1994	1.9830e+02	-0.2975	-26.639040	0.000628	6.283274	1.064415	0.000126
1995	1.9840e+02	-0.2780	-26.521963	0.000588	5.877901	0.995743	0.000118
1996	1.9850e+02	-0.2580	-26.416998	0.000527	5.269842	0.892735	0.000105
1997	1.9860e+02	-0.2377	-26.275698	0.000709	7.094019	1.201759	0.000142
1998	1.9870e+02	-0.2182	-26.174770	0.000507	5.067156	0.858400	0.000101
1999	1.9880e+02	-0.1988	-26.037507	0.000689	6.891332	1.167423	0.000138
2000	1.9890e+02	-0.1789	-25.936579	0.000507	5.067156	0.858400	0.000101
2001	1.9900e+02	-0.1590	-25.775093	0.000811	8.107450	1.373439	0.000162
2002	1.9910e+02	-0.1387	-25.666090	0.000547	5.472529	0.927071	0.000110
2003	1.9920e+02	-0.1183	-25.512679	0.000770	7.702077	1.304767	0.000154
2004	1.9930e+02	-0.0990	-25.391565	0.000608	6.080587	1.030079	0.000122
2005	1.9940e+02	-0.0790	-25.294674	0.000486	4.864470	0.824064	0.000097
2006	1.9950e+02	-0.0588	-25.149337	0.000730	7.296705	1.236095	0.000146
2007	1.9960e+02	-0.0388	-25.044372	0.000527	5.269842	0.892735	0.000105
2008	1.9970e+02	-0.0193	-24.894998	0.000750	7.499391	1.270431	0.000150
2009	1.9980e+02	0.0000	-24.794069	0.000750	7.499391	1.270431	0.000101

PMax (uC/cm2):	5.16e+01
Pr (uC/cm2):	5.93e+00
-Pr (uC/cm2):	-3.72e+01
PLoss (uC/cm2):	-3.72e+01
-Vc:	-9.65e-01
C (Max-Eff) (nF):	5.16e-01
K (Eff):	8.74e+02
Vert. (+/-Pr) Shift (uC/cm2):	-1.56e+01
Offset (uC/cm2):	-1.24e+01

A (Loop Area - uC/cm2·Volts):	-1.53e-01



Hysteresis Version: 5.48.1 - Radiant Technologies, Inc., 1999 - 9/12/24

