»»»»»»»»»»»»»»»»»»»»»»»»»»»»»»»»»»»» Hysteresis ««««««««««««««««««««««««««««««««««««
»»»  Executed Version:	5.48.1
»»»  Vision Version:	5.48.4 (R)
»»»  Vision Compiled:	9/18/24
»»»  Driver Version:	5.47.0
»»»  Windows Version:	Windows 8 or 8.1
»»»  Processor Information:	x86 (AMD or Intel) - 32 Processors
»»»  Tester Name:	PMF21124-494 (100V)
»»»  Tester S/N:	PMF21124-494
»»»  Internal Amp Type:	100V RevK 270k
»»»  Internal Amp S/N:	iAB2-596/K     
»»»  Execution Count:	1
»»»»»»»»»»»»»»»»»»»»»»»»»»»»»»»»»»»»»»»»»»««««««««««««««««««««««««««««««««««««««««««

Stored:	7/3/2025 - 14:20:5
Configured:	07/03/25 12:01:19 PM
Executed:	07/03/25 02:19:31 PM

»»»»»»»»»»»»»»»»»»»»»»»»»»»»»»»»»»» Sample Info ««««««««««««««««««««««««««««««««««««
Sample Name:	
Lot Name:	
Wafer Name:	
Die Row/Column:	0/0
Capacitor Number:	0
Sample Area (cm2):	1.00e-04
Sample Thickness (microns):	1.50e-01

Amplifier:	Internal

»»»»»»»»»»»»»»»»»»»»»»»»»»»»»»»»»»» Tester Info «««««««««««««««««««««««««««««««««««
Tester Name:	PMF21124-494 (100V)
Tester Serial Number:	PMF21124-494
Return Signal Amp. Level:	0.19 [Index: 3]

»»»»»»»»»»»»»»»»»»»»»»»»»»»»»»»» Hysteresis Info ««««««««««««««««««««««««««««««««««
Task Name:	Hyst-410
Volts:	10.00
Field:	666.67 (kV/cm)
DCBias:	0.00
DCField:	0.00 (kV/cm)
Hysteresis Period (ms):	2.00e+02
Preset:	Enabled
Preset Delay (ms):	1.00e+03
Profile:	Standard Bipolar

»»»»»»»»»»»»»»»»»»»»»»»»»»»»»»»»»»»»»» Data «««««««««««««««««««««««««««««««««««««««
Points:	2009

Valid Data

Point	Time (ms)	Drive Voltage	Measured Polarization (uC/cm2)	Capacitance (uF)	Normalized Capacitance (uF/cm2)	Dielectric Constant	Instantaneous Current (mA)
   1	0.0000e+00	-0.0005	13.427513	0.000608	6.080808	1.030117	0.000122
   2	9.9500e-02	0.0194	13.548628	0.000608	6.080808	1.030117	0.000122
   3	1.9900e-01	0.0386	13.633407	0.000426	4.256566	0.721082	0.000085
   4	2.9850e-01	0.0587	13.770670	0.000689	6.891582	1.167466	0.000138
   5	3.9800e-01	0.0793	13.899858	0.000649	6.486195	1.098791	0.000130
   6	4.9750e-01	0.0993	13.932155	0.000162	1.621549	0.274698	0.000032
   7	5.9700e-01	0.1187	14.089604	0.000791	7.905050	1.339152	0.000158
   8	6.9650e-01	0.1383	14.170346	0.000405	4.053872	0.686744	0.000081
   9	7.9600e-01	0.1588	14.303572	0.000669	6.688889	1.133128	0.000134
  10	8.9550e-01	0.1783	14.408537	0.000527	5.270034	0.892768	0.000105
  11	9.9500e-01	0.1988	14.509466	0.000507	5.067340	0.858431	0.000101
  12	1.0945e+00	0.2199	14.634617	0.000628	6.283501	1.064454	0.000126
  13	1.1940e+00	0.2383	14.711323	0.000385	3.851178	0.652407	0.000077
  14	1.2935e+00	0.2589	14.836474	0.000628	6.283501	1.064454	0.000126
  15	1.3930e+00	0.2789	14.953551	0.000588	5.878114	0.995780	0.000118
  16	1.4925e+00	0.2987	15.070628	0.000588	5.878114	0.995780	0.000118
  17	1.5920e+00	0.3178	15.191742	0.000608	6.080808	1.030117	0.000122
  18	1.6915e+00	0.3378	15.284596	0.000466	4.661953	0.789756	0.000093
  19	1.7910e+00	0.3583	15.337079	0.000264	2.635017	0.446384	0.000053
  20	1.8905e+00	0.3780	15.458193	0.000608	6.080808	1.030117	0.000122
  21	1.9900e+00	0.3991	15.575270	0.000588	5.878114	0.995780	0.000118
  22	2.0895e+00	0.4183	15.680235	0.000527	5.270034	0.892768	0.000105
  23	2.1890e+00	0.4374	15.797312	0.000588	5.878114	0.995780	0.000118
  24	2.2885e+00	0.4585	15.930538	0.000669	6.688889	1.133128	0.000134
  25	2.3880e+00	0.4781	16.019355	0.000446	4.459259	0.755419	0.000089
  26	2.4875e+00	0.4980	16.120283	0.000507	5.067340	0.858431	0.000101
  27	2.5870e+00	0.5170	16.253508	0.000669	6.688889	1.133128	0.000134
  28	2.6865e+00	0.5375	16.326177	0.000365	3.648485	0.618070	0.000073
  29	2.7860e+00	0.5559	16.491699	0.000831	8.310437	1.407826	0.000166
  30	2.8855e+00	0.5769	16.580516	0.000446	4.459259	0.755419	0.000089
  31	2.9850e+00	0.5974	16.661259	0.000405	4.053872	0.686744	0.000081
  32	3.0845e+00	0.6175	16.846967	0.000932	9.323905	1.579512	0.000187
  33	3.1840e+00	0.6374	16.911562	0.000324	3.243098	0.549396	0.000065
  34	3.2835e+00	0.6573	17.028639	0.000588	5.878114	0.995780	0.000118
  35	3.3830e+00	0.6768	17.145715	0.000588	5.878114	0.995780	0.000118
  36	3.4825e+00	0.6961	17.266830	0.000608	6.080808	1.030117	0.000122
  37	3.5820e+00	0.7166	17.351609	0.000426	4.256566	0.721082	0.000085
  38	3.6815e+00	0.7363	17.448501	0.000486	4.864646	0.824093	0.000097
  39	3.7810e+00	0.7562	17.573652	0.000628	6.283501	1.064454	0.000126
  40	3.8805e+00	0.7761	17.666506	0.000466	4.661953	0.789756	0.000093
  41	3.9800e+00	0.7969	17.844140	0.000892	8.918518	1.510838	0.000179
  42	4.0795e+00	0.8162	17.904697	0.000304	3.040404	0.515058	0.000061
  43	4.1790e+00	0.8366	18.041960	0.000689	6.891582	1.167466	0.000138
  44	4.2785e+00	0.8563	18.102517	0.000304	3.040404	0.515058	0.000061
  45	4.3780e+00	0.8758	18.235742	0.000669	6.688889	1.133128	0.000134
  46	4.4775e+00	0.8958	18.336671	0.000507	5.067340	0.858431	0.000101
  47	4.5770e+00	0.9153	18.445673	0.000547	5.472727	0.927105	0.000110
  48	4.6765e+00	0.9357	18.570824	0.000628	6.283501	1.064454	0.000126
  49	4.7760e+00	0.9557	18.651567	0.000405	4.053872	0.686744	0.000081
  50	4.8755e+00	0.9760	18.764607	0.000568	5.675421	0.961442	0.000114
  51	4.9750e+00	0.9963	18.893795	0.000649	6.486195	1.098791	0.000130
  52	5.0745e+00	1.0160	18.998761	0.000527	5.270034	0.892768	0.000105
  53	5.1740e+00	1.0352	19.107763	0.000547	5.472727	0.927105	0.000110
  54	5.2735e+00	1.0550	19.204655	0.000486	4.864646	0.824093	0.000097
  55	5.3730e+00	1.0752	19.333843	0.000649	6.486195	1.098791	0.000130
  56	5.4725e+00	1.0949	19.463031	0.000649	6.486195	1.098791	0.000130
  57	5.5720e+00	1.1144	19.539737	0.000385	3.851178	0.652407	0.000077
  58	5.6715e+00	1.1354	19.664888	0.000628	6.283501	1.064454	0.000126
  59	5.7710e+00	1.1549	19.769854	0.000527	5.270034	0.892768	0.000105
  60	5.8705e+00	1.1749	19.874819	0.000527	5.270034	0.892768	0.000105
  61	5.9700e+00	1.1945	20.008045	0.000669	6.688889	1.133128	0.000134
  62	6.0695e+00	1.2155	20.113010	0.000527	5.270034	0.892768	0.000105
  63	6.1690e+00	1.2347	20.213939	0.000507	5.067340	0.858431	0.000101
  64	6.2685e+00	1.2553	20.359276	0.000730	7.296969	1.236140	0.000146
  65	6.3680e+00	1.2743	20.452130	0.000466	4.661953	0.789756	0.000093
  66	6.4675e+00	1.2946	20.549021	0.000486	4.864646	0.824093	0.000097
  67	6.5670e+00	1.3142	20.662061	0.000568	5.675421	0.961442	0.000114
  68	6.6665e+00	1.3338	20.791249	0.000649	6.486195	1.098791	0.000130
  69	6.7660e+00	1.3541	20.859880	0.000345	3.445791	0.583733	0.000069
  70	6.8655e+00	1.3729	20.972920	0.000568	5.675421	0.961442	0.000114
  71	6.9650e+00	1.3937	21.122294	0.000750	7.499663	1.270477	0.000150
  72	7.0645e+00	1.4136	21.215148	0.000466	4.661953	0.789756	0.000093
  73	7.1640e+00	1.4336	21.316077	0.000507	5.067340	0.858431	0.000101
  74	7.2635e+00	1.4542	21.453339	0.000689	6.891582	1.167466	0.000138
  75	7.3630e+00	1.4729	21.558305	0.000527	5.270034	0.892768	0.000105
  76	7.4625e+00	1.4939	21.679419	0.000608	6.080808	1.030117	0.000122
  77	7.5620e+00	1.5126	21.739976	0.000304	3.040404	0.515058	0.000061
  78	7.6615e+00	1.5330	21.857053	0.000588	5.878114	0.995780	0.000118
  79	7.7610e+00	1.5527	21.990278	0.000669	6.688889	1.133128	0.000134
  80	7.8605e+00	1.5737	22.107355	0.000588	5.878114	0.995780	0.000118
  81	7.9600e+00	1.5932	22.236544	0.000649	6.486195	1.098791	0.000130
  82	8.0595e+00	1.6122	22.280952	0.000223	2.229630	0.377709	0.000045
  83	8.1590e+00	1.6323	22.458586	0.000892	8.918518	1.510838	0.000179
  84	8.2585e+00	1.6522	22.571626	0.000568	5.675421	0.961442	0.000114
  85	8.3580e+00	1.6729	22.648331	0.000385	3.851178	0.652407	0.000077
  86	8.4575e+00	1.6920	22.749260	0.000507	5.067340	0.858431	0.000101
  87	8.5570e+00	1.7126	22.894597	0.000730	7.296969	1.236140	0.000146
  88	8.6565e+00	1.7324	22.983414	0.000446	4.459259	0.755419	0.000089
  89	8.7560e+00	1.7522	23.072231	0.000446	4.459259	0.755419	0.000089
  90	8.8555e+00	1.7722	23.205456	0.000669	6.688889	1.133128	0.000134
  91	8.9550e+00	1.7925	23.294273	0.000446	4.459259	0.755419	0.000089
  92	9.0545e+00	1.8127	23.443647	0.000750	7.499663	1.270477	0.000150
  93	9.1540e+00	1.8322	23.568798	0.000628	6.283501	1.064454	0.000126
  94	9.2535e+00	1.8520	23.633393	0.000324	3.243098	0.549396	0.000065
  95	9.3530e+00	1.8720	23.766618	0.000669	6.688889	1.133128	0.000134
  96	9.4525e+00	1.8919	23.855435	0.000446	4.459259	0.755419	0.000089
  97	9.5520e+00	1.9114	23.952326	0.000486	4.864646	0.824093	0.000097
  98	9.6515e+00	1.9315	24.073440	0.000608	6.080808	1.030117	0.000122
  99	9.7510e+00	1.9517	24.190517	0.000588	5.878114	0.995780	0.000118
 100	9.8505e+00	1.9727	24.315669	0.000628	6.283501	1.064454	0.000126
 101	9.9500e+00	1.9914	24.420634	0.000527	5.270034	0.892768	0.000105
 102	1.0050e+01	2.0111	24.529637	0.000547	5.472727	0.927105	0.000110
 103	1.0149e+01	2.0315	24.630565	0.000507	5.067340	0.858431	0.000101
 104	1.0248e+01	2.0510	24.747642	0.000588	5.878114	0.995780	0.000118
 105	1.0348e+01	2.0712	24.872793	0.000628	6.283501	1.064454	0.000126
 106	1.0447e+01	2.0902	24.965647	0.000466	4.661953	0.789756	0.000093
 107	1.0547e+01	2.1112	25.074650	0.000547	5.472727	0.927105	0.000110
 108	1.0646e+01	2.1304	25.203838	0.000649	6.486195	1.098791	0.000130
 109	1.0746e+01	2.1504	25.296693	0.000466	4.661953	0.789756	0.000093
 110	1.0845e+01	2.1713	25.421844	0.000628	6.283501	1.064454	0.000126
 111	1.0945e+01	2.1909	25.534884	0.000568	5.675421	0.961442	0.000114
 112	1.1044e+01	2.2111	25.651960	0.000588	5.878114	0.995780	0.000118
 113	1.1144e+01	2.2301	25.712518	0.000304	3.040404	0.515058	0.000061
 114	1.1243e+01	2.2501	25.853817	0.000709	7.094276	1.201803	0.000142
 115	1.1343e+01	2.2710	25.958783	0.000527	5.270034	0.892768	0.000105
 116	1.1443e+01	2.2909	26.051637	0.000466	4.661953	0.789756	0.000093
 117	1.1542e+01	2.3097	26.168714	0.000588	5.878114	0.995780	0.000118
 118	1.1642e+01	2.3298	26.281754	0.000568	5.675421	0.961442	0.000114
 119	1.1741e+01	2.3508	26.414979	0.000669	6.688889	1.133128	0.000134
 120	1.1841e+01	2.3692	26.483610	0.000345	3.445791	0.583733	0.000069
 121	1.1940e+01	2.3907	26.624910	0.000709	7.094276	1.201803	0.000142
 122	1.2040e+01	2.4104	26.701616	0.000385	3.851178	0.652407	0.000077
 123	1.2139e+01	2.4306	26.842916	0.000709	7.094276	1.201803	0.000142
 124	1.2239e+01	2.4496	26.943844	0.000507	5.067340	0.858431	0.000101
 125	1.2338e+01	2.4700	27.060921	0.000588	5.878114	0.995780	0.000118
 126	1.2438e+01	2.4896	27.206258	0.000730	7.296969	1.236140	0.000146
 127	1.2537e+01	2.5099	27.266815	0.000304	3.040404	0.515058	0.000061
 128	1.2636e+01	2.5288	27.420226	0.000770	7.702357	1.304815	0.000154
 129	1.2736e+01	2.5488	27.537303	0.000588	5.878114	0.995780	0.000118
 130	1.2835e+01	2.5689	27.642268	0.000527	5.270034	0.892768	0.000105
 131	1.2935e+01	2.5879	27.767420	0.000628	6.283501	1.064454	0.000126
 132	1.3034e+01	2.6081	27.884497	0.000588	5.878114	0.995780	0.000118
 133	1.3134e+01	2.6295	27.993499	0.000547	5.472727	0.927105	0.000110
 134	1.3233e+01	2.6480	28.090390	0.000486	4.864646	0.824093	0.000097
 135	1.3333e+01	2.6687	28.207467	0.000588	5.878114	0.995780	0.000118
 136	1.3432e+01	2.6879	28.300322	0.000466	4.661953	0.789756	0.000093
 137	1.3532e+01	2.7081	28.417398	0.000588	5.878114	0.995780	0.000118
 138	1.3632e+01	2.7287	28.550624	0.000669	6.688889	1.133128	0.000134
 139	1.3731e+01	2.7488	28.675775	0.000628	6.283501	1.064454	0.000126
 140	1.3831e+01	2.7691	28.764592	0.000446	4.459259	0.755419	0.000089
 141	1.3930e+01	2.7869	28.861483	0.000486	4.864646	0.824093	0.000097
 142	1.4030e+01	2.8075	28.978560	0.000588	5.878114	0.995780	0.000118
 143	1.4129e+01	2.8277	29.087563	0.000547	5.472727	0.927105	0.000110
 144	1.4229e+01	2.8477	29.216751	0.000649	6.486195	1.098791	0.000130
 145	1.4328e+01	2.8686	29.317680	0.000507	5.067340	0.858431	0.000101
 146	1.4428e+01	2.8883	29.422645	0.000527	5.270034	0.892768	0.000105
 147	1.4527e+01	2.9076	29.503388	0.000405	4.053872	0.686744	0.000081
 148	1.4627e+01	2.9279	29.672948	0.000851	8.513131	1.442163	0.000170
 149	1.4726e+01	2.9470	29.725430	0.000264	2.635017	0.446384	0.000053
 150	1.4825e+01	2.9678	29.862693	0.000689	6.891582	1.167466	0.000138
 151	1.4925e+01	2.9861	29.971696	0.000547	5.472727	0.927105	0.000110
 152	1.5024e+01	3.0073	30.129144	0.000791	7.905050	1.339152	0.000158
 153	1.5124e+01	3.0276	30.217961	0.000446	4.459259	0.755419	0.000089
 154	1.5223e+01	3.0476	30.331001	0.000568	5.675421	0.961442	0.000114
 155	1.5323e+01	3.0663	30.452115	0.000608	6.080808	1.030117	0.000122
 156	1.5422e+01	3.0878	30.569192	0.000588	5.878114	0.995780	0.000118
 157	1.5522e+01	3.1071	30.666083	0.000486	4.864646	0.824093	0.000097
 158	1.5621e+01	3.1271	30.750863	0.000426	4.256566	0.721082	0.000085
 159	1.5721e+01	3.1474	30.904274	0.000770	7.702357	1.304815	0.000154
 160	1.5820e+01	3.1667	31.025388	0.000608	6.080808	1.030117	0.000122
 161	1.5920e+01	3.1869	31.098057	0.000365	3.648485	0.618070	0.000073
 162	1.6020e+01	3.2056	31.211096	0.000568	5.675421	0.961442	0.000114
 163	1.6119e+01	3.2262	31.380656	0.000851	8.513131	1.442163	0.000170
 164	1.6218e+01	3.2478	31.441213	0.000304	3.040404	0.515058	0.000061
 165	1.6318e+01	3.2659	31.574439	0.000669	6.688889	1.133128	0.000134
 166	1.6418e+01	3.2863	31.655181	0.000405	4.053872	0.686744	0.000081
 167	1.6517e+01	3.3068	31.788407	0.000669	6.688889	1.133128	0.000134
 168	1.6616e+01	3.3266	31.905484	0.000588	5.878114	0.995780	0.000118
 169	1.6716e+01	3.3456	32.006412	0.000507	5.067340	0.858431	0.000101
 170	1.6816e+01	3.3661	32.123489	0.000588	5.878114	0.995780	0.000118
 171	1.6915e+01	3.3868	32.240566	0.000588	5.878114	0.995780	0.000118
 172	1.7015e+01	3.4048	32.325346	0.000426	4.256566	0.721082	0.000085
 173	1.7114e+01	3.4254	32.438386	0.000568	5.675421	0.961442	0.000114
 174	1.7213e+01	3.4467	32.563537	0.000628	6.283501	1.064454	0.000126
 175	1.7313e+01	3.4655	32.680614	0.000588	5.878114	0.995780	0.000118
 176	1.7413e+01	3.4848	32.789616	0.000547	5.472727	0.927105	0.000110
 177	1.7512e+01	3.5033	32.870359	0.000405	4.053872	0.686744	0.000081
 178	1.7611e+01	3.5256	33.019733	0.000750	7.499663	1.270477	0.000150
 179	1.7711e+01	3.5449	33.140847	0.000608	6.080808	1.030117	0.000122
 180	1.7811e+01	3.5651	33.213516	0.000365	3.648485	0.618070	0.000073
 181	1.7910e+01	3.5851	33.338667	0.000628	6.283501	1.064454	0.000126
 182	1.8009e+01	3.6052	33.447670	0.000547	5.472727	0.927105	0.000110
 183	1.8109e+01	3.6253	33.584932	0.000689	6.891582	1.167466	0.000138
 184	1.8209e+01	3.6452	33.685861	0.000507	5.067340	0.858431	0.000101
 185	1.8308e+01	3.6654	33.815049	0.000649	6.486195	1.098791	0.000130
 186	1.8407e+01	3.6848	33.911940	0.000486	4.864646	0.824093	0.000097
 187	1.8507e+01	3.7054	34.004794	0.000466	4.661953	0.789756	0.000093
 188	1.8607e+01	3.7243	34.101686	0.000486	4.864646	0.824093	0.000097
 189	1.8706e+01	3.7447	34.186465	0.000426	4.256566	0.721082	0.000085
 190	1.8805e+01	3.7645	34.319691	0.000669	6.688889	1.133128	0.000134
 191	1.8905e+01	3.7841	34.404471	0.000426	4.256566	0.721082	0.000085
 192	1.9005e+01	3.8035	34.578068	0.000872	8.715825	1.476501	0.000174
 193	1.9104e+01	3.8251	34.658810	0.000405	4.053872	0.686744	0.000081
 194	1.9203e+01	3.8428	34.739553	0.000405	4.053872	0.686744	0.000081
 195	1.9303e+01	3.8642	34.872779	0.000669	6.688889	1.133128	0.000134
 196	1.9402e+01	3.8839	34.977744	0.000527	5.270034	0.892768	0.000105
 197	1.9502e+01	3.9042	35.078672	0.000507	5.067340	0.858431	0.000101
 198	1.9602e+01	3.9238	35.211898	0.000669	6.688889	1.133128	0.000134
 199	1.9701e+01	3.9434	35.304752	0.000466	4.661953	0.789756	0.000093
 200	1.9800e+01	3.9642	35.421829	0.000588	5.878114	0.995780	0.000118
 201	1.9900e+01	3.9830	35.551017	0.000649	6.486195	1.098791	0.000130
 202	2.0000e+01	4.0034	35.595426	0.000223	2.229630	0.377709	0.000045
 203	2.0099e+01	4.0244	35.744800	0.000750	7.499663	1.270477	0.000150
 204	2.0198e+01	4.0434	35.825543	0.000405	4.053872	0.686744	0.000081
 205	2.0298e+01	4.0636	35.918397	0.000466	4.661953	0.789756	0.000093
 206	2.0398e+01	4.0832	36.059696	0.000709	7.094276	1.201803	0.000142
 207	2.0497e+01	4.1029	36.136402	0.000385	3.851178	0.652407	0.000077
 208	2.0596e+01	4.1236	36.245405	0.000547	5.472727	0.927105	0.000110
 209	2.0696e+01	4.1441	36.386704	0.000709	7.094276	1.201803	0.000142
 210	2.0796e+01	4.1628	36.423039	0.000182	1.824242	0.309035	0.000037
 211	2.0895e+01	4.1822	36.600673	0.000892	8.918518	1.510838	0.000179
 212	2.0994e+01	4.2031	36.641044	0.000203	2.026936	0.343372	0.000041
 213	2.1094e+01	4.2196	36.766195	0.000628	6.283501	1.064454	0.000126
 214	2.1194e+01	4.2428	36.883272	0.000588	5.878114	0.995780	0.000118
 215	2.1293e+01	4.2631	36.980163	0.000486	4.864646	0.824093	0.000097
 216	2.1392e+01	4.2831	37.064943	0.000426	4.256566	0.721082	0.000085
 217	2.1492e+01	4.3031	37.173946	0.000547	5.472727	0.927105	0.000110
 218	2.1591e+01	4.3223	37.307171	0.000669	6.688889	1.133128	0.000134
 219	2.1691e+01	4.3426	37.363691	0.000284	2.837710	0.480721	0.000057
 220	2.1791e+01	4.3626	37.496917	0.000669	6.688889	1.133128	0.000134
 221	2.1890e+01	4.3826	37.585734	0.000446	4.459259	0.755419	0.000089
 222	2.1989e+01	4.4007	37.682625	0.000486	4.864646	0.824093	0.000097
 223	2.2089e+01	4.4218	37.823925	0.000709	7.094276	1.201803	0.000142
 224	2.2189e+01	4.4418	37.920816	0.000486	4.864646	0.824093	0.000097
 225	2.2288e+01	4.4612	38.017707	0.000486	4.864646	0.824093	0.000097
 226	2.2387e+01	4.4810	38.094413	0.000385	3.851178	0.652407	0.000077
 227	2.2487e+01	4.5020	38.227638	0.000669	6.688889	1.133128	0.000134
 228	2.2587e+01	4.5208	38.316455	0.000446	4.459259	0.755419	0.000089
 229	2.2686e+01	4.5409	38.433532	0.000588	5.878114	0.995780	0.000118
 230	2.2785e+01	4.5621	38.502164	0.000345	3.445791	0.583733	0.000069
 231	2.2885e+01	4.5814	38.631352	0.000649	6.486195	1.098791	0.000130
 232	2.2985e+01	4.6011	38.720169	0.000446	4.459259	0.755419	0.000089
 233	2.3084e+01	4.6204	38.800912	0.000405	4.053872	0.686744	0.000081
 234	2.3183e+01	4.6404	38.901840	0.000507	5.067340	0.858431	0.000101
 235	2.3283e+01	4.6607	39.006806	0.000527	5.270034	0.892768	0.000105
 236	2.3383e+01	4.6815	39.079474	0.000365	3.648485	0.618070	0.000073
 237	2.3482e+01	4.7012	39.208662	0.000649	6.486195	1.098791	0.000130
 238	2.3581e+01	4.7213	39.321702	0.000568	5.675421	0.961442	0.000114
 239	2.3681e+01	4.7401	39.386296	0.000324	3.243098	0.549396	0.000065
 240	2.3780e+01	4.7608	39.507410	0.000608	6.080808	1.030117	0.000122
 241	2.3880e+01	4.7797	39.616413	0.000547	5.472727	0.927105	0.000110
 242	2.3980e+01	4.8009	39.713304	0.000486	4.864646	0.824093	0.000097
 243	2.4079e+01	4.8201	39.806158	0.000466	4.661953	0.789756	0.000093
 244	2.4178e+01	4.8391	39.907087	0.000507	5.067340	0.858431	0.000101
 245	2.4278e+01	4.8598	39.995904	0.000446	4.459259	0.755419	0.000089
 246	2.4378e+01	4.8808	40.092795	0.000486	4.864646	0.824093	0.000097
 247	2.4477e+01	4.9006	40.165463	0.000365	3.648485	0.618070	0.000073
 248	2.4576e+01	4.9201	40.262355	0.000486	4.864646	0.824093	0.000097
 249	2.4676e+01	4.9401	40.359246	0.000486	4.864646	0.824093	0.000097
 250	2.4776e+01	4.9603	40.444026	0.000426	4.256566	0.721082	0.000085
 251	2.4875e+01	4.9798	40.565140	0.000608	6.080808	1.030117	0.000122
 252	2.4974e+01	4.9996	40.690291	0.000628	6.283501	1.064454	0.000126
 253	2.5074e+01	5.0198	40.746811	0.000284	2.837710	0.480721	0.000057
 254	2.5174e+01	5.0401	40.859851	0.000568	5.675421	0.961442	0.000114
 255	2.5273e+01	5.0596	40.928482	0.000345	3.445791	0.583733	0.000069
 256	2.5372e+01	5.0779	41.033448	0.000527	5.270034	0.892768	0.000105
 257	2.5472e+01	5.1000	41.134376	0.000507	5.067340	0.858431	0.000101
 258	2.5572e+01	5.1185	41.223193	0.000446	4.459259	0.755419	0.000089
 259	2.5671e+01	5.1397	41.307973	0.000426	4.256566	0.721082	0.000085
 260	2.5770e+01	5.1591	41.376604	0.000345	3.445791	0.583733	0.000069
 261	2.5870e+01	5.1780	41.505793	0.000649	6.486195	1.098791	0.000130
 262	2.5970e+01	5.1982	41.590572	0.000426	4.256566	0.721082	0.000085
 263	2.6069e+01	5.2178	41.679389	0.000446	4.459259	0.755419	0.000089
 264	2.6169e+01	5.2383	41.796466	0.000588	5.878114	0.995780	0.000118
 265	2.6268e+01	5.2583	41.881246	0.000426	4.256566	0.721082	0.000085
 266	2.6367e+01	5.2785	41.966026	0.000426	4.256566	0.721082	0.000085
 267	2.6467e+01	5.2979	42.079066	0.000568	5.675421	0.961442	0.000114
 268	2.6567e+01	5.3188	42.179994	0.000507	5.067340	0.858431	0.000101
 269	2.6666e+01	5.3382	42.236514	0.000284	2.837710	0.480721	0.000057
 270	2.6765e+01	5.3580	42.361665	0.000628	6.283501	1.064454	0.000126
 271	2.6865e+01	5.3777	42.458557	0.000486	4.864646	0.824093	0.000097
 272	2.6965e+01	5.3988	42.535262	0.000385	3.851178	0.652407	0.000077
 273	2.7064e+01	5.4179	42.616005	0.000405	4.053872	0.686744	0.000081
 274	2.7163e+01	5.4377	42.720970	0.000527	5.270034	0.892768	0.000105
 275	2.7263e+01	5.4581	42.817862	0.000486	4.864646	0.824093	0.000097
 276	2.7363e+01	5.4771	42.898604	0.000405	4.053872	0.686744	0.000081
 277	2.7462e+01	5.4981	43.007607	0.000547	5.472727	0.927105	0.000110
 278	2.7561e+01	5.5169	43.112573	0.000527	5.270034	0.892768	0.000105
 279	2.7661e+01	5.5378	43.197352	0.000426	4.256566	0.721082	0.000085
 280	2.7761e+01	5.5563	43.253872	0.000284	2.837710	0.480721	0.000057
 281	2.7860e+01	5.5779	43.395172	0.000709	7.094276	1.201803	0.000142
 282	2.7959e+01	5.5966	43.439581	0.000223	2.229630	0.377709	0.000045
 283	2.8059e+01	5.6170	43.560695	0.000608	6.080808	1.030117	0.000122
 284	2.8159e+01	5.6374	43.661623	0.000507	5.067340	0.858431	0.000101
 285	2.8258e+01	5.6566	43.766589	0.000527	5.270034	0.892768	0.000105
 286	2.8358e+01	5.6773	43.839257	0.000365	3.648485	0.618070	0.000073
 287	2.8457e+01	5.6958	43.924037	0.000426	4.256566	0.721082	0.000085
 288	2.8556e+01	5.7206	44.053225	0.000649	6.486195	1.098791	0.000130
 289	2.8656e+01	5.7369	44.138005	0.000426	4.256566	0.721082	0.000085
 290	2.8756e+01	5.7555	44.214711	0.000385	3.851178	0.652407	0.000077
 291	2.8855e+01	5.7761	44.311602	0.000486	4.864646	0.824093	0.000097
 292	2.8954e+01	5.7967	44.372159	0.000304	3.040404	0.515058	0.000061
 293	2.9054e+01	5.8160	44.485199	0.000568	5.675421	0.961442	0.000114
 294	2.9154e+01	5.8360	44.610350	0.000628	6.283501	1.064454	0.000126
 295	2.9253e+01	5.8562	44.695130	0.000426	4.256566	0.721082	0.000085
 296	2.9352e+01	5.8756	44.779910	0.000426	4.256566	0.721082	0.000085
 297	2.9452e+01	5.8960	44.860652	0.000405	4.053872	0.686744	0.000081
 298	2.9552e+01	5.9163	44.973692	0.000568	5.675421	0.961442	0.000114
 299	2.9651e+01	5.9357	45.058472	0.000426	4.256566	0.721082	0.000085
 300	2.9750e+01	5.9553	45.155363	0.000486	4.864646	0.824093	0.000097
 301	2.9850e+01	5.9750	45.223995	0.000345	3.445791	0.583733	0.000069
 302	2.9950e+01	5.9953	45.353183	0.000649	6.486195	1.098791	0.000130
 303	3.0049e+01	6.0162	45.429888	0.000385	3.851178	0.652407	0.000077
 304	3.0148e+01	6.0345	45.530817	0.000507	5.067340	0.858431	0.000101
 305	3.0248e+01	6.0552	45.615597	0.000426	4.256566	0.721082	0.000085
 306	3.0348e+01	6.0752	45.724599	0.000547	5.472727	0.927105	0.000110
 307	3.0447e+01	6.0957	45.829565	0.000527	5.270034	0.892768	0.000105
 308	3.0547e+01	6.1143	45.882048	0.000264	2.635017	0.446384	0.000053
 309	3.0646e+01	6.1352	46.011236	0.000649	6.486195	1.098791	0.000130
 310	3.0745e+01	6.1553	46.063719	0.000264	2.635017	0.446384	0.000053
 311	3.0845e+01	6.1751	46.168684	0.000527	5.270034	0.892768	0.000105
 312	3.0945e+01	6.1941	46.289798	0.000608	6.080808	1.030117	0.000122
 313	3.1044e+01	6.2150	46.390727	0.000507	5.067340	0.858431	0.000101
 314	3.1143e+01	6.2354	46.447247	0.000284	2.837710	0.480721	0.000057
 315	3.1243e+01	6.2548	46.552212	0.000527	5.270034	0.892768	0.000105
 316	3.1343e+01	6.2745	46.641029	0.000446	4.459259	0.755419	0.000089
 317	3.1442e+01	6.2943	46.758106	0.000588	5.878114	0.995780	0.000118
 318	3.1541e+01	6.3140	46.826737	0.000345	3.445791	0.583733	0.000069
 319	3.1641e+01	6.3338	46.951889	0.000628	6.283501	1.064454	0.000126
 320	3.1741e+01	6.3531	47.036668	0.000426	4.256566	0.721082	0.000085
 321	3.1840e+01	6.3737	47.089151	0.000264	2.635017	0.446384	0.000053
 322	3.1939e+01	6.3931	47.214302	0.000628	6.283501	1.064454	0.000126
 323	3.2039e+01	6.4127	47.323305	0.000547	5.472727	0.927105	0.000110
 324	3.2139e+01	6.4333	47.404048	0.000405	4.053872	0.686744	0.000081
 325	3.2238e+01	6.4533	47.476716	0.000365	3.648485	0.618070	0.000073
 326	3.2337e+01	6.4733	47.569570	0.000466	4.661953	0.789756	0.000093
 327	3.2437e+01	6.4935	47.702796	0.000669	6.688889	1.133128	0.000134
 328	3.2536e+01	6.5127	47.759316	0.000284	2.837710	0.480721	0.000057
 329	3.2636e+01	6.5334	47.860244	0.000507	5.067340	0.858431	0.000101
 330	3.2736e+01	6.5530	47.945024	0.000426	4.256566	0.721082	0.000085
 331	3.2835e+01	6.5716	48.037878	0.000466	4.661953	0.789756	0.000093
 332	3.2934e+01	6.5926	48.134769	0.000486	4.864646	0.824093	0.000097
 333	3.3034e+01	6.6119	48.215512	0.000405	4.053872	0.686744	0.000081
 334	3.3133e+01	6.6330	48.328552	0.000568	5.675421	0.961442	0.000114
 335	3.3233e+01	6.6521	48.393146	0.000324	3.243098	0.549396	0.000065
 336	3.3333e+01	6.6723	48.502149	0.000547	5.472727	0.927105	0.000110
 337	3.3432e+01	6.6926	48.586929	0.000426	4.256566	0.721082	0.000085
 338	3.3532e+01	6.7122	48.639411	0.000264	2.635017	0.446384	0.000053
 339	3.3631e+01	6.7319	48.808971	0.000851	8.513131	1.442163	0.000170
 340	3.3730e+01	6.7513	48.905862	0.000486	4.864646	0.824093	0.000097
 341	3.3830e+01	6.7720	48.958345	0.000264	2.635017	0.446384	0.000053
 342	3.3929e+01	6.7915	49.031014	0.000365	3.648485	0.618070	0.000073
 343	3.4029e+01	6.8118	49.140016	0.000547	5.472727	0.927105	0.000110
 344	3.4129e+01	6.8317	49.265167	0.000628	6.283501	1.064454	0.000126
 345	3.4228e+01	6.8520	49.329762	0.000324	3.243098	0.549396	0.000065
 346	3.4328e+01	6.8721	49.394356	0.000324	3.243098	0.549396	0.000065
 347	3.4427e+01	6.8919	49.539693	0.000730	7.296969	1.236140	0.000146
 348	3.4526e+01	6.9112	49.612361	0.000365	3.648485	0.618070	0.000073
 349	3.4626e+01	6.9308	49.668881	0.000284	2.837710	0.480721	0.000057
 350	3.4725e+01	6.9522	49.789995	0.000608	6.080808	1.030117	0.000122
 351	3.4825e+01	6.9709	49.866701	0.000385	3.851178	0.652407	0.000077
 352	3.4925e+01	6.9910	49.983778	0.000588	5.878114	0.995780	0.000118
 353	3.5024e+01	7.0100	50.060483	0.000385	3.851178	0.652407	0.000077
 354	3.5123e+01	7.0305	50.129114	0.000345	3.445791	0.583733	0.000069
 355	3.5223e+01	7.0510	50.197746	0.000345	3.445791	0.583733	0.000069
 356	3.5322e+01	7.0699	50.330971	0.000669	6.688889	1.133128	0.000134
 357	3.5422e+01	7.0904	50.431900	0.000507	5.067340	0.858431	0.000101
 358	3.5522e+01	7.1105	50.508605	0.000385	3.851178	0.652407	0.000077
 359	3.5621e+01	7.1306	50.613571	0.000527	5.270034	0.892768	0.000105
 360	3.5721e+01	7.1495	50.666054	0.000264	2.635017	0.446384	0.000053
 361	3.5820e+01	7.1706	50.750833	0.000426	4.256566	0.721082	0.000085
 362	3.5919e+01	7.1906	50.880022	0.000649	6.486195	1.098791	0.000130
 363	3.6019e+01	7.2097	50.940579	0.000304	3.040404	0.515058	0.000061
 364	3.6118e+01	7.2290	51.041507	0.000507	5.067340	0.858431	0.000101
 365	3.6218e+01	7.2503	51.146473	0.000527	5.270034	0.892768	0.000105
 366	3.6318e+01	7.2697	51.194918	0.000243	2.432323	0.412047	0.000049
 367	3.6417e+01	7.2906	51.267587	0.000365	3.648485	0.618070	0.000073
 368	3.6517e+01	7.3084	51.392738	0.000628	6.283501	1.064454	0.000126
 369	3.6616e+01	7.3307	51.461369	0.000345	3.445791	0.583733	0.000069
 370	3.6715e+01	7.3496	51.594595	0.000669	6.688889	1.133128	0.000134
 371	3.6815e+01	7.3691	51.659189	0.000324	3.243098	0.549396	0.000065
 372	3.6914e+01	7.3898	51.743969	0.000426	4.256566	0.721082	0.000085
 373	3.7014e+01	7.4094	51.848934	0.000527	5.270034	0.892768	0.000105
 374	3.7114e+01	7.4299	51.933714	0.000426	4.256566	0.721082	0.000085
 375	3.7213e+01	7.4492	52.026568	0.000466	4.661953	0.789756	0.000093
 376	3.7313e+01	7.4685	52.083088	0.000284	2.837710	0.480721	0.000057
 377	3.7412e+01	7.4892	52.184017	0.000507	5.067340	0.858431	0.000101
 378	3.7511e+01	7.5090	52.248611	0.000324	3.243098	0.549396	0.000065
 379	3.7611e+01	7.5284	52.321279	0.000365	3.648485	0.618070	0.000073
 380	3.7711e+01	7.5481	52.450468	0.000649	6.486195	1.098791	0.000130
 381	3.7810e+01	7.5684	52.482765	0.000162	1.621549	0.274698	0.000032
 382	3.7910e+01	7.5882	52.611953	0.000649	6.486195	1.098791	0.000130
 383	3.8009e+01	7.6087	52.704807	0.000466	4.661953	0.789756	0.000093
 384	3.8108e+01	7.6280	52.765364	0.000304	3.040404	0.515058	0.000061
 385	3.8208e+01	7.6488	52.850144	0.000426	4.256566	0.721082	0.000085
 386	3.8307e+01	7.6684	52.930887	0.000405	4.053872	0.686744	0.000081
 387	3.8407e+01	7.6888	53.031815	0.000507	5.067340	0.858431	0.000101
 388	3.8507e+01	7.7078	53.084298	0.000264	2.635017	0.446384	0.000053
 389	3.8606e+01	7.7282	53.177152	0.000466	4.661953	0.789756	0.000093
 390	3.8706e+01	7.7477	53.265969	0.000446	4.459259	0.755419	0.000089
 391	3.8805e+01	7.7673	53.326526	0.000304	3.040404	0.515058	0.000061
 392	3.8904e+01	7.7881	53.431491	0.000527	5.270034	0.892768	0.000105
 393	3.9004e+01	7.8080	53.528383	0.000486	4.864646	0.824093	0.000097
 394	3.9103e+01	7.8284	53.568754	0.000203	2.026936	0.343372	0.000041
 395	3.9203e+01	7.8481	53.669683	0.000507	5.067340	0.858431	0.000101
 396	3.9303e+01	7.8681	53.742351	0.000365	3.648485	0.618070	0.000073
 397	3.9402e+01	7.8873	53.835205	0.000466	4.661953	0.789756	0.000093
 398	3.9502e+01	7.9075	53.960356	0.000628	6.283501	1.064454	0.000126
 399	3.9601e+01	7.9270	53.960356	0.000000	0.000000	0.000000	0.000000
 400	3.9700e+01	7.9477	54.089545	0.000649	6.486195	1.098791	0.000130
 401	3.9800e+01	7.9679	54.137990	0.000243	2.432323	0.412047	0.000049
 402	3.9900e+01	7.9861	54.251030	0.000568	5.675421	0.961442	0.000114
 403	3.9999e+01	8.0080	54.307550	0.000284	2.837710	0.480721	0.000057
 404	4.0099e+01	8.0267	54.412515	0.000527	5.270034	0.892768	0.000105
 405	4.0198e+01	8.0473	54.509407	0.000486	4.864646	0.824093	0.000097
 406	4.0297e+01	8.0664	54.541704	0.000162	1.621549	0.274698	0.000032
 407	4.0397e+01	8.0865	54.650706	0.000547	5.472727	0.927105	0.000110
 408	4.0496e+01	8.1068	54.707226	0.000284	2.837710	0.480721	0.000057
 409	4.0596e+01	8.1254	54.800081	0.000466	4.661953	0.789756	0.000093
 410	4.0696e+01	8.1470	54.901009	0.000507	5.067340	0.858431	0.000101
 411	4.0795e+01	8.1660	54.933306	0.000162	1.621549	0.274698	0.000032
 412	4.0895e+01	8.1860	55.054420	0.000608	6.080808	1.030117	0.000122
 413	4.0994e+01	8.2063	55.106903	0.000264	2.635017	0.446384	0.000053
 414	4.1093e+01	8.2262	55.187646	0.000405	4.053872	0.686744	0.000081
 415	4.1193e+01	8.2459	55.272425	0.000426	4.256566	0.721082	0.000085
 416	4.1292e+01	8.2658	55.373354	0.000507	5.067340	0.858431	0.000101
 417	4.1392e+01	8.2851	55.421799	0.000243	2.432323	0.412047	0.000049
 418	4.1492e+01	8.3057	55.518691	0.000486	4.864646	0.824093	0.000097
 419	4.1591e+01	8.3256	55.583285	0.000324	3.243098	0.549396	0.000065
 420	4.1691e+01	8.3451	55.643842	0.000304	3.040404	0.515058	0.000061
 421	4.1790e+01	8.3655	55.785142	0.000709	7.094276	1.201803	0.000142
 422	4.1889e+01	8.3855	55.833587	0.000243	2.432323	0.412047	0.000049
 423	4.1989e+01	8.4046	55.890107	0.000284	2.837710	0.480721	0.000057
 424	4.2089e+01	8.4248	55.991036	0.000507	5.067340	0.858431	0.000101
 425	4.2188e+01	8.4452	56.087927	0.000486	4.864646	0.824093	0.000097
 426	4.2288e+01	8.4644	56.160595	0.000365	3.648485	0.618070	0.000073
 427	4.2387e+01	8.4846	56.196929	0.000182	1.824242	0.309035	0.000037
 428	4.2486e+01	8.5046	56.281709	0.000426	4.256566	0.721082	0.000085
 429	4.2586e+01	8.5259	56.374563	0.000466	4.661953	0.789756	0.000093
 430	4.2685e+01	8.5449	56.435120	0.000304	3.040404	0.515058	0.000061
 431	4.2785e+01	8.5648	56.527975	0.000466	4.661953	0.789756	0.000093
 432	4.2885e+01	8.5844	56.580457	0.000264	2.635017	0.446384	0.000053
 433	4.2984e+01	8.6040	56.685423	0.000527	5.270034	0.892768	0.000105
 434	4.3084e+01	8.6242	56.754054	0.000345	3.445791	0.583733	0.000069
 435	4.3183e+01	8.6441	56.834797	0.000405	4.053872	0.686744	0.000081
 436	4.3282e+01	8.6642	56.939762	0.000527	5.270034	0.892768	0.000105
 437	4.3382e+01	8.6842	57.020505	0.000405	4.053872	0.686744	0.000081
 438	4.3481e+01	8.7036	57.077025	0.000284	2.837710	0.480721	0.000057
 439	4.3581e+01	8.7241	57.133545	0.000284	2.837710	0.480721	0.000057
 440	4.3681e+01	8.7437	57.194102	0.000304	3.040404	0.515058	0.000061
 441	4.3780e+01	8.7646	57.286956	0.000466	4.661953	0.789756	0.000093
 442	4.3880e+01	8.7842	57.359625	0.000365	3.648485	0.618070	0.000073
 443	4.3979e+01	8.8029	57.464590	0.000527	5.270034	0.892768	0.000105
 444	4.4078e+01	8.8242	57.553407	0.000446	4.459259	0.755419	0.000089
 445	4.4178e+01	8.8430	57.605890	0.000264	2.635017	0.446384	0.000053
 446	4.4278e+01	8.8627	57.674521	0.000345	3.445791	0.583733	0.000069
 447	4.4377e+01	8.8822	57.739115	0.000324	3.243098	0.549396	0.000065
 448	4.4477e+01	8.9028	57.836007	0.000486	4.864646	0.824093	0.000097
 449	4.4576e+01	8.9230	57.924824	0.000446	4.459259	0.755419	0.000089
 450	4.4675e+01	8.9426	58.005566	0.000405	4.053872	0.686744	0.000081
 451	4.4775e+01	8.9619	58.054012	0.000243	2.432323	0.412047	0.000049
 452	4.4874e+01	8.9820	58.138792	0.000426	4.256566	0.721082	0.000085
 453	4.4974e+01	9.0022	58.203386	0.000324	3.243098	0.549396	0.000065
 454	4.5074e+01	9.0218	58.308351	0.000527	5.270034	0.892768	0.000105
 455	4.5173e+01	9.0413	58.372946	0.000324	3.243098	0.549396	0.000065
 456	4.5273e+01	9.0625	58.433503	0.000304	3.040404	0.515058	0.000061
 457	4.5372e+01	9.0820	58.510208	0.000385	3.851178	0.652407	0.000077
 458	4.5471e+01	9.1022	58.603062	0.000466	4.661953	0.789756	0.000093
 459	4.5571e+01	9.1225	58.687842	0.000426	4.256566	0.721082	0.000085
 460	4.5670e+01	9.1422	58.752436	0.000324	3.243098	0.549396	0.000065
 461	4.5770e+01	9.1617	58.808956	0.000284	2.837710	0.480721	0.000057
 462	4.5870e+01	9.1811	58.877588	0.000345	3.445791	0.583733	0.000069
 463	4.5969e+01	9.2014	58.974479	0.000486	4.864646	0.824093	0.000097
 464	4.6069e+01	9.2213	59.079444	0.000527	5.270034	0.892768	0.000105
 465	4.6168e+01	9.2409	59.140001	0.000304	3.040404	0.515058	0.000061
 466	4.6267e+01	9.2606	59.240930	0.000507	5.067340	0.858431	0.000101
 467	4.6367e+01	9.2803	59.309561	0.000345	3.445791	0.583733	0.000069
 468	4.6467e+01	9.3024	59.362044	0.000264	2.635017	0.446384	0.000053
 469	4.6566e+01	9.3213	59.454898	0.000466	4.661953	0.789756	0.000093
 470	4.6666e+01	9.3408	59.547752	0.000466	4.661953	0.789756	0.000093
 471	4.6765e+01	9.3612	59.636569	0.000446	4.459259	0.755419	0.000089
 472	4.6864e+01	9.3809	59.701163	0.000324	3.243098	0.549396	0.000065
 473	4.6964e+01	9.4010	59.757683	0.000284	2.837710	0.480721	0.000057
 474	4.7063e+01	9.4208	59.878797	0.000608	6.080808	1.030117	0.000122
 475	4.7163e+01	9.4401	59.927243	0.000243	2.432323	0.412047	0.000049
 476	4.7263e+01	9.4592	59.959540	0.000162	1.621549	0.274698	0.000032
 477	4.7362e+01	9.4807	60.108914	0.000750	7.499663	1.270477	0.000150
 478	4.7462e+01	9.5020	60.141211	0.000162	1.621549	0.274698	0.000032
 479	4.7561e+01	9.5209	60.254251	0.000568	5.675421	0.961442	0.000114
 480	4.7660e+01	9.5400	60.326919	0.000365	3.648485	0.618070	0.000073
 481	4.7760e+01	9.5596	60.391514	0.000324	3.243098	0.549396	0.000065
 482	4.7859e+01	9.5801	60.460145	0.000345	3.445791	0.583733	0.000069
 483	4.7959e+01	9.5996	60.561073	0.000507	5.067340	0.858431	0.000101
 484	4.8059e+01	9.6194	60.625667	0.000324	3.243098	0.549396	0.000065
 485	4.8158e+01	9.6387	60.718522	0.000466	4.661953	0.789756	0.000093
 486	4.8258e+01	9.6592	60.779079	0.000304	3.040404	0.515058	0.000061
 487	4.8357e+01	9.6793	60.863858	0.000426	4.256566	0.721082	0.000085
 488	4.8456e+01	9.6997	60.968824	0.000527	5.270034	0.892768	0.000105
 489	4.8556e+01	9.7190	61.017270	0.000243	2.432323	0.412047	0.000049
 490	4.8656e+01	9.7392	61.106087	0.000446	4.459259	0.755419	0.000089
 491	4.8755e+01	9.7587	61.182792	0.000385	3.851178	0.652407	0.000077
 492	4.8855e+01	9.7786	61.271609	0.000446	4.459259	0.755419	0.000089
 493	4.8954e+01	9.7990	61.307943	0.000182	1.824242	0.309035	0.000037
 494	4.9053e+01	9.8186	61.441169	0.000669	6.688889	1.133128	0.000134
 495	4.9153e+01	9.8389	61.493652	0.000264	2.635017	0.446384	0.000053
 496	4.9252e+01	9.8588	61.582469	0.000446	4.459259	0.755419	0.000089
 497	4.9352e+01	9.8792	61.647063	0.000324	3.243098	0.549396	0.000065
 498	4.9452e+01	9.8981	61.735880	0.000446	4.459259	0.755419	0.000089
 499	4.9551e+01	9.9185	61.816622	0.000405	4.053872	0.686744	0.000081
 500	4.9651e+01	9.9384	61.893328	0.000385	3.851178	0.652407	0.000077
 501	4.9750e+01	9.9596	62.002331	0.000547	5.472727	0.927105	0.000110
 502	4.9849e+01	9.9783	62.062888	0.000304	3.040404	0.515058	0.000061
 503	4.9949e+01	9.9990	62.147668	0.000426	4.256566	0.721082	0.000085
 504	5.0048e+01	9.9786	62.091148	0.000284	2.837710	0.480721	-0.000057
 505	5.0148e+01	9.9585	62.062888	0.000142	1.418855	0.240361	-0.000028
 506	5.0248e+01	9.9390	62.018479	0.000223	2.229630	0.377709	-0.000045
 507	5.0347e+01	9.9182	61.929662	0.000446	4.459259	0.755419	-0.000089
 508	5.0447e+01	9.8984	61.913514	0.000081	0.810774	0.137349	-0.000016
 509	5.0546e+01	9.8785	61.832771	0.000405	4.053872	0.686744	-0.000081
 510	5.0645e+01	9.8584	61.788362	0.000223	2.229630	0.377709	-0.000045
 511	5.0745e+01	9.8383	61.743954	0.000223	2.229630	0.377709	-0.000045
 512	5.0844e+01	9.8193	61.663211	0.000405	4.053872	0.686744	-0.000081
 513	5.0944e+01	9.7998	61.610728	0.000264	2.635017	0.446384	-0.000053
 514	5.1044e+01	9.7784	61.582469	0.000142	1.418855	0.240361	-0.000028
 515	5.1143e+01	9.7584	61.517874	0.000324	3.243098	0.549396	-0.000065
 516	5.1242e+01	9.7385	61.453280	0.000324	3.243098	0.549396	-0.000065
 517	5.1342e+01	9.7176	61.376575	0.000385	3.851178	0.652407	-0.000077
 518	5.1441e+01	9.6985	61.352352	0.000122	1.216162	0.206023	-0.000024
 519	5.1541e+01	9.6796	61.299869	0.000264	2.635017	0.446384	-0.000053
 520	5.1641e+01	9.6595	61.207015	0.000466	4.661953	0.789756	-0.000093
 521	5.1740e+01	9.6387	61.146458	0.000304	3.040404	0.515058	-0.000061
 522	5.1840e+01	9.6201	61.122235	0.000122	1.216162	0.206023	-0.000024
 523	5.1939e+01	9.5986	61.073789	0.000243	2.432323	0.412047	-0.000049
 524	5.2038e+01	9.5801	61.009195	0.000324	3.243098	0.549396	-0.000065
 525	5.2138e+01	9.5594	60.936527	0.000365	3.648485	0.618070	-0.000073
 526	5.2237e+01	9.5395	60.884044	0.000264	2.635017	0.446384	-0.000053
 527	5.2337e+01	9.5199	60.843673	0.000203	2.026936	0.343372	-0.000041
 528	5.2437e+01	9.5010	60.791190	0.000264	2.635017	0.446384	-0.000053
 529	5.2536e+01	9.4803	60.690262	0.000507	5.067340	0.858431	-0.000101
 530	5.2636e+01	9.4600	60.649890	0.000203	2.026936	0.343372	-0.000041
 531	5.2735e+01	9.4404	60.585296	0.000324	3.243098	0.549396	-0.000065
 532	5.2834e+01	9.4196	60.569147	0.000081	0.810774	0.137349	-0.000016
 533	5.2934e+01	9.3996	60.464182	0.000527	5.270034	0.892768	-0.000105
 534	5.3033e+01	9.3806	60.435922	0.000142	1.418855	0.240361	-0.000028
 535	5.3133e+01	9.3597	60.363254	0.000365	3.648485	0.618070	-0.000073
 536	5.3233e+01	9.3411	60.310771	0.000264	2.635017	0.446384	-0.000053
 537	5.3332e+01	9.3213	60.225991	0.000426	4.256566	0.721082	-0.000085
 538	5.3431e+01	9.3009	60.173508	0.000264	2.635017	0.446384	-0.000053
 539	5.3531e+01	9.2822	60.100840	0.000365	3.648485	0.618070	-0.000073
 540	5.3630e+01	9.2609	60.032208	0.000345	3.445791	0.583733	-0.000069
 541	5.3730e+01	9.2403	59.987800	0.000223	2.229630	0.377709	-0.000045
 542	5.3830e+01	9.2205	59.898983	0.000446	4.459259	0.755419	-0.000089
 543	5.3929e+01	9.2017	59.870723	0.000142	1.418855	0.240361	-0.000028
 544	5.4029e+01	9.1809	59.781906	0.000446	4.459259	0.755419	-0.000089
 545	5.4128e+01	9.1615	59.733460	0.000243	2.432323	0.412047	-0.000049
 546	5.4227e+01	9.1411	59.668866	0.000324	3.243098	0.549396	-0.000065
 547	5.4327e+01	9.1217	59.592161	0.000385	3.851178	0.652407	-0.000077
 548	5.4426e+01	9.1016	59.547752	0.000223	2.229630	0.377709	-0.000045
 549	5.4526e+01	9.0820	59.442787	0.000527	5.270034	0.892768	-0.000105
 550	5.4626e+01	9.0625	59.402415	0.000203	2.026936	0.343372	-0.000041
 551	5.4725e+01	9.0424	59.325710	0.000385	3.851178	0.652407	-0.000077
 552	5.4825e+01	9.0228	59.269190	0.000284	2.837710	0.480721	-0.000057
 553	5.4924e+01	9.0025	59.216707	0.000264	2.635017	0.446384	-0.000053
 554	5.5023e+01	8.9822	59.115779	0.000507	5.067340	0.858431	-0.000101
 555	5.5123e+01	8.9627	59.047147	0.000345	3.445791	0.583733	-0.000069
 556	5.5222e+01	8.9420	59.010813	0.000182	1.824242	0.309035	-0.000037
 557	5.5322e+01	8.9227	58.938145	0.000365	3.648485	0.618070	-0.000073
 558	5.5422e+01	8.9023	58.865476	0.000365	3.648485	0.618070	-0.000073
 559	5.5521e+01	8.8821	58.804919	0.000304	3.040404	0.515058	-0.000061
 560	5.5620e+01	8.8629	58.760511	0.000223	2.229630	0.377709	-0.000045
 561	5.5720e+01	8.8428	58.667657	0.000466	4.661953	0.789756	-0.000093
 562	5.5819e+01	8.8237	58.582877	0.000426	4.256566	0.721082	-0.000085
 563	5.5919e+01	8.8042	58.562691	0.000101	1.013468	0.171686	-0.000020
 564	5.6019e+01	8.7842	58.477911	0.000426	4.256566	0.721082	-0.000085
 565	5.6118e+01	8.7640	58.417354	0.000304	3.040404	0.515058	-0.000061
 566	5.6218e+01	8.7430	58.356797	0.000304	3.040404	0.515058	-0.000061
 567	5.6317e+01	8.7253	58.227609	0.000649	6.486195	1.098791	-0.000130
 568	5.6416e+01	8.7043	58.203386	0.000122	1.216162	0.206023	-0.000024
 569	5.6516e+01	8.6848	58.106495	0.000486	4.864646	0.824093	-0.000097
 570	5.6615e+01	8.6646	58.049975	0.000284	2.837710	0.480721	-0.000057
 571	5.6715e+01	8.6442	58.058049	-0.000041	-0.405387	-0.068674	0.000008
 572	5.6815e+01	8.6243	57.912712	0.000730	7.296969	1.236140	-0.000146
 573	5.6914e+01	8.6050	57.880415	0.000162	1.621549	0.274698	-0.000032
 574	5.7014e+01	8.5846	57.775450	0.000527	5.270034	0.892768	-0.000105
 575	5.7113e+01	8.5645	57.670484	0.000527	5.270034	0.892768	-0.000105
 576	5.7212e+01	8.5455	57.613964	0.000284	2.837710	0.480721	-0.000057
 577	5.7312e+01	8.5257	57.557444	0.000284	2.837710	0.480721	-0.000057
 578	5.7411e+01	8.5059	57.504961	0.000264	2.635017	0.446384	-0.000053
 579	5.7511e+01	8.4850	57.432293	0.000365	3.648485	0.618070	-0.000073
 580	5.7611e+01	8.4656	57.351550	0.000405	4.053872	0.686744	-0.000081
 581	5.7710e+01	8.4440	57.274845	0.000385	3.851178	0.652407	-0.000077
 582	5.7809e+01	8.4246	57.210251	0.000324	3.243098	0.549396	-0.000065
 583	5.7909e+01	8.4045	57.153731	0.000284	2.837710	0.480721	-0.000057
 584	5.8008e+01	8.3852	57.072988	0.000405	4.053872	0.686744	-0.000081
 585	5.8108e+01	8.3649	56.988208	0.000426	4.256566	0.721082	-0.000085
 586	5.8208e+01	8.3463	56.935725	0.000264	2.635017	0.446384	-0.000053
 587	5.8307e+01	8.3252	56.891317	0.000223	2.229630	0.377709	-0.000045
 588	5.8407e+01	8.3057	56.778277	0.000568	5.675421	0.961442	-0.000114
 589	5.8506e+01	8.2861	56.693497	0.000426	4.256566	0.721082	-0.000085
 590	5.8605e+01	8.2656	56.636977	0.000284	2.837710	0.480721	-0.000057
 591	5.8705e+01	8.2463	56.568346	0.000345	3.445791	0.583733	-0.000069
 592	5.8804e+01	8.2256	56.499715	0.000345	3.445791	0.583733	-0.000069
 593	5.8904e+01	8.2059	56.374563	0.000628	6.283501	1.064454	-0.000126
 594	5.9004e+01	8.1866	56.326118	0.000243	2.432323	0.412047	-0.000049
 595	5.9103e+01	8.1665	56.237301	0.000446	4.459259	0.755419	-0.000089
 596	5.9203e+01	8.1458	56.188855	0.000243	2.432323	0.412047	-0.000049
 597	5.9302e+01	8.1255	56.120224	0.000345	3.445791	0.583733	-0.000069
 598	5.9401e+01	8.1061	56.051593	0.000345	3.445791	0.583733	-0.000069
 599	5.9501e+01	8.0863	55.982961	0.000345	3.445791	0.583733	-0.000069
 600	5.9600e+01	8.0665	55.906256	0.000385	3.851178	0.652407	-0.000077
 601	5.9700e+01	8.0477	55.853773	0.000264	2.635017	0.446384	-0.000053
 602	5.9800e+01	8.0274	55.764956	0.000446	4.459259	0.755419	-0.000089
 603	5.9899e+01	8.0083	55.672102	0.000466	4.661953	0.789756	-0.000093
 604	5.9998e+01	7.9876	55.611545	0.000304	3.040404	0.515058	-0.000061
 605	6.0098e+01	7.9673	55.563099	0.000243	2.432323	0.412047	-0.000049
 606	6.0197e+01	7.9463	55.446022	0.000588	5.878114	0.995780	-0.000118
 607	6.0297e+01	7.9278	55.377391	0.000345	3.445791	0.583733	-0.000069
 608	6.0397e+01	7.9076	55.296648	0.000405	4.053872	0.686744	-0.000081
 609	6.0496e+01	7.8875	55.240128	0.000284	2.837710	0.480721	-0.000057
 610	6.0596e+01	7.8676	55.175534	0.000324	3.243098	0.549396	-0.000065
 611	6.0695e+01	7.8474	55.082680	0.000466	4.661953	0.789756	-0.000093
 612	6.0794e+01	7.8274	54.993863	0.000446	4.459259	0.755419	-0.000089
 613	6.0894e+01	7.8078	54.941380	0.000264	2.635017	0.446384	-0.000053
 614	6.0993e+01	7.7869	54.852563	0.000446	4.459259	0.755419	-0.000089
 615	6.1093e+01	7.7673	54.808155	0.000223	2.229630	0.377709	-0.000045
 616	6.1193e+01	7.7472	54.687041	0.000608	6.080808	1.030117	-0.000122
 617	6.1292e+01	7.7283	54.674929	0.000061	0.608081	0.103012	-0.000012
 618	6.1392e+01	7.7076	54.606298	0.000345	3.445791	0.583733	-0.000069
 619	6.1491e+01	7.6885	54.497295	0.000547	5.472727	0.927105	-0.000110
 620	6.1590e+01	7.6680	54.392330	0.000527	5.270034	0.892768	-0.000105
 621	6.1690e+01	7.6484	54.351958	0.000203	2.026936	0.343372	-0.000041
 622	6.1789e+01	7.6286	54.263141	0.000446	4.459259	0.755419	-0.000089
 623	6.1889e+01	7.6074	54.194510	0.000345	3.445791	0.583733	-0.000069
 624	6.1989e+01	7.5890	54.085507	0.000547	5.472727	0.927105	-0.000110
 625	6.2088e+01	7.5695	54.045136	0.000203	2.026936	0.343372	-0.000041
 626	6.2188e+01	7.5479	53.944208	0.000507	5.067340	0.858431	-0.000101
 627	6.2287e+01	7.5295	53.903836	0.000203	2.026936	0.343372	-0.000041
 628	6.2386e+01	7.5087	53.815019	0.000446	4.459259	0.755419	-0.000089
 629	6.2486e+01	7.4902	53.762537	0.000264	2.635017	0.446384	-0.000053
 630	6.2586e+01	7.4686	53.693905	0.000345	3.445791	0.583733	-0.000069
 631	6.2685e+01	7.4490	53.613163	0.000405	4.053872	0.686744	-0.000081
 632	6.2785e+01	7.4294	53.524346	0.000446	4.459259	0.755419	-0.000089
 633	6.2884e+01	7.4099	53.492049	0.000162	1.621549	0.274698	-0.000032
 634	6.2983e+01	7.3895	53.370934	0.000608	6.080808	1.030117	-0.000122
 635	6.3083e+01	7.3685	53.306340	0.000324	3.243098	0.549396	-0.000065
 636	6.3182e+01	7.3490	53.209449	0.000486	4.864646	0.824093	-0.000097
 637	6.3282e+01	7.3298	53.173115	0.000182	1.824242	0.309035	-0.000037
 638	6.3382e+01	7.3105	53.088335	0.000426	4.256566	0.721082	-0.000085
 639	6.3481e+01	7.2902	53.031815	0.000284	2.837710	0.480721	-0.000057
 640	6.3581e+01	7.2694	52.926850	0.000527	5.270034	0.892768	-0.000105
 641	6.3680e+01	7.2504	52.866292	0.000304	3.040404	0.515058	-0.000061
 642	6.3779e+01	7.2306	52.777476	0.000446	4.459259	0.755419	-0.000089
 643	6.3879e+01	7.2095	52.688659	0.000446	4.459259	0.755419	-0.000089
 644	6.3978e+01	7.1880	52.640213	0.000243	2.432323	0.412047	-0.000049
 645	6.4078e+01	7.1696	52.551396	0.000446	4.459259	0.755419	-0.000089
 646	6.4177e+01	7.1505	52.490839	0.000304	3.040404	0.515058	-0.000061
 647	6.4277e+01	7.1300	52.410096	0.000405	4.053872	0.686744	-0.000081
 648	6.4376e+01	7.1104	52.337428	0.000365	3.648485	0.618070	-0.000073
 649	6.4476e+01	7.0907	52.248611	0.000446	4.459259	0.755419	-0.000089
 650	6.4576e+01	7.0705	52.171905	0.000385	3.851178	0.652407	-0.000077
 651	6.4675e+01	7.0512	52.095200	0.000385	3.851178	0.652407	-0.000077
 652	6.4775e+01	7.0318	52.046754	0.000243	2.432323	0.412047	-0.000049
 653	6.4874e+01	7.0113	51.994271	0.000264	2.635017	0.446384	-0.000053
 654	6.4974e+01	6.9900	51.893343	0.000507	5.067340	0.858431	-0.000101
 655	6.5073e+01	6.9704	51.812600	0.000405	4.053872	0.686744	-0.000081
 656	6.5172e+01	6.9505	51.743969	0.000345	3.445791	0.583733	-0.000069
 657	6.5272e+01	6.9305	51.659189	0.000426	4.256566	0.721082	-0.000085
 658	6.5371e+01	6.9109	51.546149	0.000568	5.675421	0.961442	-0.000114
 659	6.5471e+01	6.8917	51.473481	0.000365	3.648485	0.618070	-0.000073
 660	6.5570e+01	6.8714	51.449258	0.000122	1.216162	0.206023	-0.000024
 661	6.5670e+01	6.8514	51.352367	0.000486	4.864646	0.824093	-0.000097
 662	6.5769e+01	6.8317	51.320070	0.000162	1.621549	0.274698	-0.000032
 663	6.5869e+01	6.8121	51.186844	0.000669	6.688889	1.133128	-0.000134
 664	6.5969e+01	6.7920	51.130324	0.000284	2.837710	0.480721	-0.000057
 665	6.6068e+01	6.7733	51.073804	0.000284	2.837710	0.480721	-0.000057
 666	6.6168e+01	6.7516	50.997099	0.000385	3.851178	0.652407	-0.000077
 667	6.6267e+01	6.7320	50.924430	0.000365	3.648485	0.618070	-0.000073
 668	6.6367e+01	6.7121	50.831576	0.000466	4.661953	0.789756	-0.000093
 669	6.6466e+01	6.6925	50.771019	0.000304	3.040404	0.515058	-0.000061
 670	6.6566e+01	6.6714	50.722573	0.000243	2.432323	0.412047	-0.000049
 671	6.6665e+01	6.6522	50.621645	0.000507	5.067340	0.858431	-0.000101
 672	6.6764e+01	6.6322	50.520717	0.000507	5.067340	0.858431	-0.000101
 673	6.6864e+01	6.6124	50.456122	0.000324	3.243098	0.549396	-0.000065
 674	6.6963e+01	6.5929	50.367305	0.000446	4.459259	0.755419	-0.000089
 675	6.7063e+01	6.5733	50.351157	0.000081	0.810774	0.137349	-0.000016
 676	6.7162e+01	6.5527	50.230043	0.000608	6.080808	1.030117	-0.000122
 677	6.7262e+01	6.5332	50.165449	0.000324	3.243098	0.549396	-0.000065
 678	6.7362e+01	6.5133	50.121040	0.000223	2.229630	0.377709	-0.000045
 679	6.7461e+01	6.4931	49.999926	0.000608	6.080808	1.030117	-0.000122
 680	6.7561e+01	6.4730	49.931295	0.000345	3.445791	0.583733	-0.000069
 681	6.7660e+01	6.4532	49.850552	0.000405	4.053872	0.686744	-0.000081
 682	6.7760e+01	6.4330	49.802106	0.000243	2.432323	0.412047	-0.000049
 683	6.7859e+01	6.4132	49.733475	0.000345	3.445791	0.583733	-0.000069
 684	6.7959e+01	6.3934	49.664844	0.000345	3.445791	0.583733	-0.000069
 685	6.8058e+01	6.3738	49.519507	0.000730	7.296969	1.236140	-0.000146
 686	6.8157e+01	6.3531	49.483173	0.000182	1.824242	0.309035	-0.000037
 687	6.8257e+01	6.3345	49.390319	0.000466	4.661953	0.789756	-0.000093
 688	6.8356e+01	6.3131	49.305539	0.000426	4.256566	0.721082	-0.000085
 689	6.8456e+01	6.2951	49.273242	0.000162	1.621549	0.274698	-0.000032
 690	6.8555e+01	6.2751	49.172313	0.000507	5.067340	0.858431	-0.000101
 691	6.8655e+01	6.2541	49.075422	0.000486	4.864646	0.824093	-0.000097
 692	6.8754e+01	6.2342	48.998716	0.000385	3.851178	0.652407	-0.000077
 693	6.8854e+01	6.2142	48.934122	0.000324	3.243098	0.549396	-0.000065
 694	6.8954e+01	6.1948	48.861454	0.000365	3.648485	0.618070	-0.000073
 695	6.9053e+01	6.1747	48.792823	0.000345	3.445791	0.583733	-0.000069
 696	6.9153e+01	6.1549	48.708043	0.000426	4.256566	0.721082	-0.000085
 697	6.9252e+01	6.1340	48.627300	0.000405	4.053872	0.686744	-0.000081
 698	6.9352e+01	6.1141	48.578854	0.000243	2.432323	0.412047	-0.000049
 699	6.9451e+01	6.0960	48.469852	0.000547	5.472727	0.927105	-0.000110
 700	6.9550e+01	6.0751	48.417369	0.000264	2.635017	0.446384	-0.000053
 701	6.9650e+01	6.0547	48.304329	0.000568	5.675421	0.961442	-0.000114
 702	6.9749e+01	6.0354	48.227624	0.000385	3.851178	0.652407	-0.000077
 703	6.9849e+01	6.0159	48.114584	0.000568	5.675421	0.961442	-0.000114
 704	6.9948e+01	5.9946	48.078250	0.000182	1.824242	0.309035	-0.000037
 705	7.0048e+01	5.9759	48.009618	0.000345	3.445791	0.583733	-0.000069
 706	7.0147e+01	5.9563	47.945024	0.000324	3.243098	0.549396	-0.000065
 707	7.0247e+01	5.9365	47.819873	0.000628	6.283501	1.064454	-0.000126
 708	7.0347e+01	5.9172	47.743167	0.000385	3.851178	0.652407	-0.000077
 709	7.0446e+01	5.8950	47.622053	0.000608	6.080808	1.030117	-0.000122
 710	7.0546e+01	5.8761	47.585719	0.000182	1.824242	0.309035	-0.000037
 711	7.0645e+01	5.8564	47.496902	0.000446	4.459259	0.755419	-0.000089
 712	7.0745e+01	5.8361	47.416159	0.000405	4.053872	0.686744	-0.000081
 713	7.0844e+01	5.8155	47.311194	0.000527	5.270034	0.892768	-0.000105
 714	7.0944e+01	5.7964	47.242562	0.000345	3.445791	0.583733	-0.000069
 715	7.1043e+01	5.7760	47.194117	0.000243	2.432323	0.412047	-0.000049
 716	7.1142e+01	5.7561	47.077040	0.000588	5.878114	0.995780	-0.000118
 717	7.1242e+01	5.7372	47.008409	0.000345	3.445791	0.583733	-0.000069
 718	7.1341e+01	5.7177	46.899406	0.000547	5.472727	0.927105	-0.000110
 719	7.1441e+01	5.6969	46.834812	0.000324	3.243098	0.549396	-0.000065
 720	7.1540e+01	5.6776	46.725809	0.000547	5.472727	0.927105	-0.000110
 721	7.1640e+01	5.6565	46.641029	0.000426	4.256566	0.721082	-0.000085
 722	7.1740e+01	5.6378	46.556249	0.000426	4.256566	0.721082	-0.000085
 723	7.1839e+01	5.6173	46.519915	0.000182	1.824242	0.309035	-0.000037
 724	7.1939e+01	5.5972	46.427061	0.000466	4.661953	0.789756	-0.000093
 725	7.2038e+01	5.5772	46.305947	0.000608	6.080808	1.030117	-0.000122
 726	7.2138e+01	5.5581	46.217130	0.000446	4.459259	0.755419	-0.000089
 727	7.2237e+01	5.5373	46.144461	0.000365	3.648485	0.618070	-0.000073
 728	7.2337e+01	5.5167	46.047570	0.000486	4.864646	0.824093	-0.000097
 729	7.2436e+01	5.4967	45.962790	0.000426	4.256566	0.721082	-0.000085
 730	7.2535e+01	5.4771	45.898196	0.000324	3.243098	0.549396	-0.000065
 731	7.2635e+01	5.4575	45.805342	0.000466	4.661953	0.789756	-0.000093
 732	7.2734e+01	5.4383	45.704414	0.000507	5.067340	0.858431	-0.000101
 733	7.2834e+01	5.4185	45.611560	0.000466	4.661953	0.789756	-0.000093
 734	7.2933e+01	5.3976	45.530817	0.000405	4.053872	0.686744	-0.000081
 735	7.3033e+01	5.3780	45.429888	0.000507	5.067340	0.858431	-0.000101
 736	7.3132e+01	5.3581	45.405666	0.000122	1.216162	0.206023	-0.000024
 737	7.3232e+01	5.3387	45.300700	0.000527	5.270034	0.892768	-0.000105
 738	7.3332e+01	5.3179	45.179586	0.000608	6.080808	1.030117	-0.000122
 739	7.3431e+01	5.2983	45.102880	0.000385	3.851178	0.652407	-0.000077
 740	7.3531e+01	5.2780	45.038286	0.000324	3.243098	0.549396	-0.000065
 741	7.3630e+01	5.2579	44.913135	0.000628	6.283501	1.064454	-0.000126
 742	7.3730e+01	5.2387	44.844504	0.000345	3.445791	0.583733	-0.000069
 743	7.3829e+01	5.2187	44.771835	0.000365	3.648485	0.618070	-0.000073
 744	7.3928e+01	5.1984	44.646684	0.000628	6.283501	1.064454	-0.000126
 745	7.4028e+01	5.1785	44.582090	0.000324	3.243098	0.549396	-0.000065
 746	7.4127e+01	5.1586	44.473087	0.000547	5.472727	0.927105	-0.000110
 747	7.4227e+01	5.1386	44.416567	0.000284	2.837710	0.480721	-0.000057
 748	7.4326e+01	5.1199	44.275268	0.000709	7.094276	1.201803	-0.000142
 749	7.4426e+01	5.0988	44.259119	0.000081	0.810774	0.137349	-0.000016
 750	7.4525e+01	5.0790	44.097634	0.000811	8.107744	1.373489	-0.000162
 751	7.4625e+01	5.0582	44.012854	0.000426	4.256566	0.721082	-0.000085
 752	7.4725e+01	5.0397	43.887703	0.000628	6.283501	1.064454	-0.000126
 753	7.4824e+01	5.0204	43.835220	0.000264	2.635017	0.446384	-0.000053
 754	7.4924e+01	4.9990	43.750440	0.000426	4.256566	0.721082	-0.000085
 755	7.5023e+01	4.9792	43.677772	0.000365	3.648485	0.618070	-0.000073
 756	7.5123e+01	4.9602	43.556657	0.000608	6.080808	1.030117	-0.000122
 757	7.5222e+01	4.9406	43.488026	0.000345	3.445791	0.583733	-0.000069
 758	7.5322e+01	4.9197	43.379024	0.000547	5.472727	0.927105	-0.000110
 759	7.5421e+01	4.9004	43.282132	0.000486	4.864646	0.824093	-0.000097
 760	7.5520e+01	4.8794	43.197352	0.000426	4.256566	0.721082	-0.000085
 761	7.5620e+01	4.8606	43.084313	0.000568	5.675421	0.961442	-0.000114
 762	7.5719e+01	4.8396	42.999533	0.000426	4.256566	0.721082	-0.000085
 763	7.5819e+01	4.8205	42.934939	0.000324	3.243098	0.549396	-0.000065
 764	7.5918e+01	4.7989	42.842084	0.000466	4.661953	0.789756	-0.000093
 765	7.6018e+01	4.7803	42.753267	0.000446	4.459259	0.755419	-0.000089
 766	7.6118e+01	4.7607	42.676562	0.000385	3.851178	0.652407	-0.000077
 767	7.6217e+01	4.7416	42.583708	0.000466	4.661953	0.789756	-0.000093
 768	7.6317e+01	4.7208	42.438371	0.000730	7.296969	1.236140	-0.000146
 769	7.6416e+01	4.7011	42.377814	0.000304	3.040404	0.515058	-0.000061
 770	7.6516e+01	4.6815	42.272848	0.000527	5.270034	0.892768	-0.000105
 771	7.6615e+01	4.6607	42.171920	0.000507	5.067340	0.858431	-0.000101
 772	7.6715e+01	4.6404	42.123474	0.000243	2.432323	0.412047	-0.000049
 773	7.6814e+01	4.6213	42.030620	0.000466	4.661953	0.789756	-0.000093
 774	7.6913e+01	4.6009	41.909506	0.000608	6.080808	1.030117	-0.000122
 775	7.7013e+01	4.5811	41.800503	0.000547	5.472727	0.927105	-0.000110
 776	7.7112e+01	4.5612	41.743984	0.000284	2.837710	0.480721	-0.000057
 777	7.7212e+01	4.5411	41.639018	0.000527	5.270034	0.892768	-0.000105
 778	7.7311e+01	4.5211	41.534052	0.000527	5.270034	0.892768	-0.000105
 779	7.7411e+01	4.5014	41.489644	0.000223	2.229630	0.377709	-0.000045
 780	7.7510e+01	4.4820	41.352381	0.000689	6.891582	1.167466	-0.000138
 781	7.7610e+01	4.4619	41.243379	0.000547	5.472727	0.927105	-0.000110
 782	7.7710e+01	4.4402	41.178785	0.000324	3.243098	0.549396	-0.000065
 783	7.7809e+01	4.4206	41.073819	0.000527	5.270034	0.892768	-0.000105
 784	7.7909e+01	4.4024	40.968853	0.000527	5.270034	0.892768	-0.000105
 785	7.8008e+01	4.3817	40.791219	0.000892	8.918518	1.510838	-0.000179
 786	7.8108e+01	4.3627	40.779108	0.000061	0.608081	0.103012	-0.000012
 787	7.8207e+01	4.3426	40.678180	0.000507	5.067340	0.858431	-0.000101
 788	7.8306e+01	4.3217	40.581288	0.000486	4.864646	0.824093	-0.000097
 789	7.8406e+01	4.3026	40.472286	0.000547	5.472727	0.927105	-0.000110
 790	7.8505e+01	4.2833	40.423840	0.000243	2.432323	0.412047	-0.000049
 791	7.8605e+01	4.2623	40.310800	0.000568	5.675421	0.961442	-0.000114
 792	7.8704e+01	4.2430	40.242169	0.000345	3.445791	0.583733	-0.000069
 793	7.8804e+01	4.2226	40.096832	0.000730	7.296969	1.236140	-0.000146
 794	7.8903e+01	4.2028	40.008015	0.000446	4.459259	0.755419	-0.000089
 795	7.9003e+01	4.1830	39.955532	0.000264	2.635017	0.446384	-0.000053
 796	7.9103e+01	4.1628	39.842493	0.000568	5.675421	0.961442	-0.000114
 797	7.9202e+01	4.1434	39.729453	0.000568	5.675421	0.961442	-0.000114
 798	7.9302e+01	4.1231	39.640636	0.000446	4.459259	0.755419	-0.000089
 799	7.9401e+01	4.1035	39.559893	0.000405	4.053872	0.686744	-0.000081
 800	7.9501e+01	4.0832	39.463002	0.000486	4.864646	0.824093	-0.000097
 801	7.9600e+01	4.0630	39.422630	0.000203	2.026936	0.343372	-0.000041
 802	7.9700e+01	4.0438	39.269219	0.000770	7.702357	1.304815	-0.000154
 803	7.9799e+01	4.0236	39.188477	0.000405	4.053872	0.686744	-0.000081
 804	7.9898e+01	4.0035	39.107734	0.000405	4.053872	0.686744	-0.000081
 805	7.9998e+01	3.9829	38.986620	0.000608	6.080808	1.030117	-0.000122
 806	8.0097e+01	3.9626	38.889729	0.000486	4.864646	0.824093	-0.000097
 807	8.0197e+01	3.9433	38.808986	0.000405	4.053872	0.686744	-0.000081
 808	8.0296e+01	3.9232	38.724206	0.000426	4.256566	0.721082	-0.000085
 809	8.0396e+01	3.9035	38.639426	0.000426	4.256566	0.721082	-0.000085
 810	8.0496e+01	3.8834	38.486015	0.000770	7.702357	1.304815	-0.000154
 811	8.0595e+01	3.8634	38.437569	0.000243	2.432323	0.412047	-0.000049
 812	8.0695e+01	3.8434	38.352790	0.000426	4.256566	0.721082	-0.000085
 813	8.0794e+01	3.8244	38.263973	0.000446	4.459259	0.755419	-0.000089
 814	8.0894e+01	3.8030	38.122673	0.000709	7.094276	1.201803	-0.000142
 815	8.0993e+01	3.7846	38.025782	0.000486	4.864646	0.824093	-0.000097
 816	8.1093e+01	3.7659	37.961187	0.000324	3.243098	0.549396	-0.000065
 817	8.1192e+01	3.7449	37.864296	0.000486	4.864646	0.824093	-0.000097
 818	8.1291e+01	3.7250	37.827962	0.000182	1.824242	0.309035	-0.000037
 819	8.1391e+01	3.7045	37.694736	0.000669	6.688889	1.133128	-0.000134
 820	8.1490e+01	3.6855	37.601882	0.000466	4.661953	0.789756	-0.000093
 821	8.1590e+01	3.6654	37.484805	0.000588	5.878114	0.995780	-0.000118
 822	8.1689e+01	3.6455	37.416174	0.000345	3.445791	0.583733	-0.000069
 823	8.1789e+01	3.6249	37.286986	0.000649	6.486195	1.098791	-0.000130
 824	8.1888e+01	3.6049	37.182020	0.000527	5.270034	0.892768	-0.000105
 825	8.1988e+01	3.5860	37.093203	0.000446	4.459259	0.755419	-0.000089
 826	8.2088e+01	3.5647	37.012460	0.000405	4.053872	0.686744	-0.000081
 827	8.2187e+01	3.5453	36.899421	0.000568	5.675421	0.961442	-0.000114
 828	8.2287e+01	3.5258	36.814641	0.000426	4.256566	0.721082	-0.000085
 829	8.2386e+01	3.5058	36.705638	0.000547	5.472727	0.927105	-0.000110
 830	8.2486e+01	3.4856	36.657193	0.000243	2.432323	0.412047	-0.000049
 831	8.2585e+01	3.4657	36.544153	0.000568	5.675421	0.961442	-0.000114
 832	8.2684e+01	3.4458	36.431113	0.000568	5.675421	0.961442	-0.000114
 833	8.2784e+01	3.4261	36.346333	0.000426	4.256566	0.721082	-0.000085
 834	8.2883e+01	3.4065	36.245405	0.000507	5.067340	0.858431	-0.000101
 835	8.2983e+01	3.3862	36.128328	0.000588	5.878114	0.995780	-0.000118
 836	8.3082e+01	3.3665	36.100068	0.000142	1.418855	0.240361	-0.000028
 837	8.3182e+01	3.3462	35.954731	0.000730	7.296969	1.236140	-0.000146
 838	8.3281e+01	3.3262	35.878025	0.000385	3.851178	0.652407	-0.000077
 839	8.3381e+01	3.3067	35.785171	0.000466	4.661953	0.789756	-0.000093
 840	8.3481e+01	3.2854	35.704428	0.000405	4.053872	0.686744	-0.000081
 841	8.3580e+01	3.2673	35.542943	0.000811	8.107744	1.373489	-0.000162
 842	8.3680e+01	3.2464	35.494497	0.000243	2.432323	0.412047	-0.000049
 843	8.3779e+01	3.2275	35.373383	0.000608	6.080808	1.030117	-0.000122
 844	8.3879e+01	3.2061	35.320901	0.000264	2.635017	0.446384	-0.000053
 845	8.3978e+01	3.1869	35.224009	0.000486	4.864646	0.824093	-0.000097
 846	8.4078e+01	3.1667	35.135192	0.000446	4.459259	0.755419	-0.000089
 847	8.4177e+01	3.1461	35.014078	0.000608	6.080808	1.030117	-0.000122
 848	8.4276e+01	3.1280	34.913150	0.000507	5.067340	0.858431	-0.000101
 849	8.4376e+01	3.1075	34.848556	0.000324	3.243098	0.549396	-0.000065
 850	8.4475e+01	3.0869	34.699182	0.000750	7.499663	1.270477	-0.000150
 851	8.4575e+01	3.0678	34.626513	0.000365	3.648485	0.618070	-0.000073
 852	8.4674e+01	3.0473	34.517511	0.000547	5.472727	0.927105	-0.000110
 853	8.4774e+01	3.0276	34.400434	0.000588	5.878114	0.995780	-0.000118
 854	8.4874e+01	3.0080	34.315654	0.000426	4.256566	0.721082	-0.000085
 855	8.4973e+01	2.9873	34.226837	0.000446	4.459259	0.755419	-0.000089
 856	8.5073e+01	2.9674	34.138020	0.000446	4.459259	0.755419	-0.000089
 857	8.5172e+01	2.9480	34.037091	0.000507	5.067340	0.858431	-0.000101
 858	8.5272e+01	2.9282	33.907903	0.000649	6.486195	1.098791	-0.000130
 859	8.5371e+01	2.9079	33.827160	0.000405	4.053872	0.686744	-0.000081
 860	8.5471e+01	2.8878	33.754492	0.000365	3.648485	0.618070	-0.000073
 861	8.5570e+01	2.8684	33.665675	0.000446	4.459259	0.755419	-0.000089
 862	8.5669e+01	2.8481	33.576858	0.000446	4.459259	0.755419	-0.000089
 863	8.5769e+01	2.8287	33.439595	0.000689	6.891582	1.167466	-0.000138
 864	8.5868e+01	2.8085	33.322518	0.000588	5.878114	0.995780	-0.000118
 865	8.5968e+01	2.7882	33.233701	0.000446	4.459259	0.755419	-0.000089
 866	8.6067e+01	2.7682	33.169107	0.000324	3.243098	0.549396	-0.000065
 867	8.6167e+01	2.7467	33.011659	0.000791	7.905050	1.339152	-0.000158
 868	8.6266e+01	2.7287	32.975325	0.000182	1.824242	0.309035	-0.000037
 869	8.6366e+01	2.7087	32.886508	0.000446	4.459259	0.755419	-0.000089
 870	8.6466e+01	2.6882	32.737134	0.000750	7.499663	1.270477	-0.000150
 871	8.6565e+01	2.6691	32.644280	0.000466	4.661953	0.789756	-0.000093
 872	8.6665e+01	2.6491	32.543351	0.000507	5.067340	0.858431	-0.000101
 873	8.6764e+01	2.6299	32.438386	0.000527	5.270034	0.892768	-0.000105
 874	8.6864e+01	2.6080	32.345532	0.000466	4.661953	0.789756	-0.000093
 875	8.6963e+01	2.5892	32.244603	0.000507	5.067340	0.858431	-0.000101
 876	8.7063e+01	2.5690	32.135600	0.000547	5.472727	0.927105	-0.000110
 877	8.7162e+01	2.5486	32.038709	0.000486	4.864646	0.824093	-0.000097
 878	8.7261e+01	2.5289	31.917595	0.000608	6.080808	1.030117	-0.000122
 879	8.7361e+01	2.5091	31.816667	0.000507	5.067340	0.858431	-0.000101
 880	8.7460e+01	2.4894	31.768221	0.000243	2.432323	0.412047	-0.000049
 881	8.7560e+01	2.4706	31.626921	0.000709	7.094276	1.201803	-0.000142
 882	8.7659e+01	2.4499	31.505807	0.000608	6.080808	1.030117	-0.000122
 883	8.7759e+01	2.4301	31.421027	0.000426	4.256566	0.721082	-0.000085
 884	8.7859e+01	2.4104	31.312025	0.000547	5.472727	0.927105	-0.000110
 885	8.7958e+01	2.3898	31.186874	0.000628	6.283501	1.064454	-0.000126
 886	8.8058e+01	2.3701	31.085945	0.000507	5.067340	0.858431	-0.000101
 887	8.8157e+01	2.3504	30.985017	0.000507	5.067340	0.858431	-0.000101
 888	8.8257e+01	2.3298	30.876014	0.000547	5.472727	0.927105	-0.000110
 889	8.8356e+01	2.3098	30.758937	0.000588	5.878114	0.995780	-0.000118
 890	8.8456e+01	2.2885	30.666083	0.000466	4.661953	0.789756	-0.000093
 891	8.8555e+01	2.2704	30.561118	0.000527	5.270034	0.892768	-0.000105
 892	8.8654e+01	2.2494	30.476338	0.000426	4.256566	0.721082	-0.000085
 893	8.8754e+01	2.2301	30.351186	0.000628	6.283501	1.064454	-0.000126
 894	8.8853e+01	2.2105	30.254295	0.000486	4.864646	0.824093	-0.000097
 895	8.8953e+01	2.1912	30.125107	0.000649	6.486195	1.098791	-0.000130
 896	8.9052e+01	2.1714	30.048401	0.000385	3.851178	0.652407	-0.000077
 897	8.9152e+01	2.1500	29.911139	0.000689	6.891582	1.167466	-0.000138
 898	8.9251e+01	2.1308	29.818285	0.000466	4.661953	0.789756	-0.000093
 899	8.9351e+01	2.1113	29.676985	0.000709	7.094276	1.201803	-0.000142
 900	8.9451e+01	2.0902	29.620465	0.000284	2.837710	0.480721	-0.000057
 901	8.9550e+01	2.0708	29.515499	0.000527	5.270034	0.892768	-0.000105
 902	8.9650e+01	2.0505	29.354014	0.000811	8.107744	1.373489	-0.000162
 903	8.9749e+01	2.0306	29.313643	0.000203	2.026936	0.343372	-0.000041
 904	8.9849e+01	2.0108	29.152157	0.000811	8.107744	1.373489	-0.000162
 905	8.9948e+01	1.9910	29.087563	0.000324	3.243098	0.549396	-0.000065
 906	9.0047e+01	1.9709	28.930115	0.000791	7.905050	1.339152	-0.000158
 907	9.0147e+01	1.9512	28.861483	0.000345	3.445791	0.583733	-0.000069
 908	9.0246e+01	1.9305	28.728258	0.000669	6.688889	1.133128	-0.000134
 909	9.0346e+01	1.9151	28.639441	0.000446	4.459259	0.755419	-0.000089
 910	9.0445e+01	1.8925	28.526401	0.000568	5.675421	0.961442	-0.000114
 911	9.0545e+01	1.8719	28.409324	0.000588	5.878114	0.995780	-0.000118
 912	9.0644e+01	1.8516	28.288210	0.000608	6.080808	1.030117	-0.000122
 913	9.0744e+01	1.8316	28.179207	0.000547	5.472727	0.927105	-0.000110
 914	9.0844e+01	1.8116	28.118650	0.000304	3.040404	0.515058	-0.000061
 915	9.0943e+01	1.7924	27.981388	0.000689	6.891582	1.167466	-0.000138
 916	9.1043e+01	1.7731	27.844125	0.000689	6.891582	1.167466	-0.000138
 917	9.1142e+01	1.7526	27.739160	0.000527	5.270034	0.892768	-0.000105
 918	9.1242e+01	1.7329	27.650343	0.000446	4.459259	0.755419	-0.000089
 919	9.1341e+01	1.7125	27.517117	0.000669	6.688889	1.133128	-0.000134
 920	9.1441e+01	1.6925	27.391966	0.000628	6.283501	1.064454	-0.000126
 921	9.1540e+01	1.6725	27.303149	0.000446	4.459259	0.755419	-0.000089
 922	9.1639e+01	1.6523	27.165886	0.000689	6.891582	1.167466	-0.000138
 923	9.1739e+01	1.6331	27.044772	0.000608	6.080808	1.030117	-0.000122
 924	9.1838e+01	1.6115	26.939807	0.000527	5.270034	0.892768	-0.000105
 925	9.1938e+01	1.5921	26.863101	0.000385	3.851178	0.652407	-0.000077
 926	9.2037e+01	1.5730	26.746024	0.000588	5.878114	0.995780	-0.000118
 927	9.2137e+01	1.5536	26.596650	0.000750	7.499663	1.270477	-0.000150
 928	9.2237e+01	1.5332	26.495722	0.000507	5.067340	0.858431	-0.000101
 929	9.2336e+01	1.5132	26.386719	0.000547	5.472727	0.927105	-0.000110
 930	9.2436e+01	1.4933	26.261568	0.000628	6.283501	1.064454	-0.000126
 931	9.2535e+01	1.4729	26.152565	0.000547	5.472727	0.927105	-0.000110
 932	9.2635e+01	1.4534	26.019340	0.000669	6.688889	1.133128	-0.000134
 933	9.2734e+01	1.4332	25.910337	0.000547	5.472727	0.927105	-0.000110
 934	9.2834e+01	1.4133	25.837669	0.000365	3.648485	0.618070	-0.000073
 935	9.2933e+01	1.3937	25.736740	0.000507	5.067340	0.858431	-0.000101
 936	9.3032e+01	1.3737	25.607552	0.000649	6.486195	1.098791	-0.000130
 937	9.3132e+01	1.3538	25.494512	0.000568	5.675421	0.961442	-0.000114
 938	9.3231e+01	1.3336	25.397621	0.000486	4.864646	0.824093	-0.000097
 939	9.3331e+01	1.3145	25.248247	0.000750	7.499663	1.270477	-0.000150
 940	9.3430e+01	1.2938	25.167504	0.000405	4.053872	0.686744	-0.000081
 941	9.3530e+01	1.2740	25.014093	0.000770	7.702357	1.304815	-0.000154
 942	9.3629e+01	1.2540	24.933350	0.000405	4.053872	0.686744	-0.000081
 943	9.3729e+01	1.2347	24.800125	0.000669	6.688889	1.133128	-0.000134
 944	9.3829e+01	1.2150	24.683048	0.000588	5.878114	0.995780	-0.000118
 945	9.3928e+01	1.1945	24.565971	0.000588	5.878114	0.995780	-0.000118
 946	9.4028e+01	1.1753	24.493303	0.000365	3.648485	0.618070	-0.000073
 947	9.4127e+01	1.1558	24.352003	0.000709	7.094276	1.201803	-0.000142
 948	9.4227e+01	1.1355	24.226852	0.000628	6.283501	1.064454	-0.000126
 949	9.4326e+01	1.1156	24.109775	0.000588	5.878114	0.995780	-0.000118
 950	9.4425e+01	1.0949	24.008846	0.000507	5.067340	0.858431	-0.000101
 951	9.4525e+01	1.0752	23.887732	0.000608	6.080808	1.030117	-0.000122
 952	9.4624e+01	1.0558	23.774692	0.000568	5.675421	0.961442	-0.000114
 953	9.4724e+01	1.0348	23.681838	0.000466	4.661953	0.789756	-0.000093
 954	9.4823e+01	1.0153	23.548613	0.000669	6.688889	1.133128	-0.000134
 955	9.4923e+01	0.9952	23.439610	0.000547	5.472727	0.927105	-0.000110
 956	9.5022e+01	0.9757	23.290236	0.000750	7.499663	1.270477	-0.000150
 957	9.5122e+01	0.9562	23.205456	0.000426	4.256566	0.721082	-0.000085
 958	9.5222e+01	0.9361	23.068194	0.000689	6.891582	1.167466	-0.000138
 959	9.5321e+01	0.9158	22.959191	0.000547	5.472727	0.927105	-0.000110
 960	9.5421e+01	0.8958	22.890560	0.000345	3.445791	0.583733	-0.000069
 961	9.5520e+01	0.8779	22.789631	0.000507	5.067340	0.858431	-0.000101
 962	9.5620e+01	0.8561	22.628146	0.000811	8.107744	1.373489	-0.000162
 963	9.5719e+01	0.8375	22.531255	0.000486	4.864646	0.824093	-0.000097
 964	9.5819e+01	0.8168	22.410140	0.000608	6.080808	1.030117	-0.000122
 965	9.5918e+01	0.7966	22.280952	0.000649	6.486195	1.098791	-0.000130
 966	9.6017e+01	0.7766	22.155801	0.000628	6.283501	1.064454	-0.000126
 967	9.6117e+01	0.7561	22.054873	0.000507	5.067340	0.858431	-0.000101
 968	9.6216e+01	0.7366	21.941833	0.000568	5.675421	0.961442	-0.000114
 969	9.6316e+01	0.7162	21.873201	0.000345	3.445791	0.583733	-0.000069
 970	9.6415e+01	0.6963	21.752087	0.000608	6.080808	1.030117	-0.000122
 971	9.6515e+01	0.6763	21.614825	0.000689	6.891582	1.167466	-0.000138
 972	9.6615e+01	0.6561	21.469488	0.000730	7.296969	1.236140	-0.000146
 973	9.6714e+01	0.6367	21.384708	0.000426	4.256566	0.721082	-0.000085
 974	9.6814e+01	0.6167	21.267631	0.000588	5.878114	0.995780	-0.000118
 975	9.6913e+01	0.5966	21.150554	0.000588	5.878114	0.995780	-0.000118
 976	9.7013e+01	0.5762	21.045589	0.000527	5.270034	0.892768	-0.000105
 977	9.7112e+01	0.5576	20.904289	0.000709	7.094276	1.201803	-0.000142
 978	9.7212e+01	0.5369	20.803360	0.000507	5.067340	0.858431	-0.000101
 979	9.7311e+01	0.5169	20.714543	0.000446	4.459259	0.755419	-0.000089
 980	9.7410e+01	0.4974	20.589392	0.000628	6.283501	1.064454	-0.000126
 981	9.7510e+01	0.4780	20.468278	0.000608	6.080808	1.030117	-0.000122
 982	9.7609e+01	0.4573	20.359276	0.000547	5.472727	0.927105	-0.000110
 983	9.7709e+01	0.4374	20.262384	0.000486	4.864646	0.824093	-0.000097
 984	9.7808e+01	0.4168	20.149344	0.000568	5.675421	0.961442	-0.000114
 985	9.7908e+01	0.3988	20.016119	0.000669	6.688889	1.133128	-0.000134
 986	9.8007e+01	0.3779	19.899042	0.000588	5.878114	0.995780	-0.000118
 987	9.8107e+01	0.3574	19.761779	0.000689	6.891582	1.167466	-0.000138
 988	9.8207e+01	0.3380	19.681037	0.000405	4.053872	0.686744	-0.000081
 989	9.8306e+01	0.3180	19.531663	0.000750	7.499663	1.270477	-0.000150
 990	9.8406e+01	0.2975	19.475143	0.000284	2.837710	0.480721	-0.000057
 991	9.8505e+01	0.2782	19.329806	0.000730	7.296969	1.236140	-0.000146
 992	9.8605e+01	0.2586	19.220803	0.000547	5.472727	0.927105	-0.000110
 993	9.8704e+01	0.2394	19.099689	0.000608	6.080808	1.030117	-0.000122
 994	9.8803e+01	0.2176	18.994724	0.000527	5.270034	0.892768	-0.000105
 995	9.8903e+01	0.1984	18.885721	0.000547	5.472727	0.927105	-0.000110
 996	9.9002e+01	0.1778	18.784793	0.000507	5.067340	0.858431	-0.000101
 997	9.9102e+01	0.1588	18.647530	0.000689	6.891582	1.167466	-0.000138
 998	9.9201e+01	0.1385	18.534490	0.000568	5.675421	0.961442	-0.000114
 999	9.9301e+01	0.1181	18.437599	0.000486	4.864646	0.824093	-0.000097
1000	9.9400e+01	0.0983	18.340708	0.000486	4.864646	0.824093	-0.000097
1001	9.9500e+01	0.0787	18.175185	0.000831	8.310437	1.407826	-0.000166
1002	9.9600e+01	0.0583	18.090405	0.000426	4.256566	0.721082	-0.000085
1003	9.9699e+01	0.0397	17.953143	0.000689	6.891582	1.167466	-0.000138
1004	9.9799e+01	0.0182	17.860289	0.000466	4.661953	0.789756	-0.000093
1005	9.9898e+01	-0.0009	17.759360	0.000507	5.067340	0.858431	-0.000101
1006	9.9998e+01	-0.0190	17.646320	0.000568	5.675421	0.961442	-0.000114
1007	1.0010e+02	-0.0381	17.525206	0.000608	6.080808	1.030117	-0.000122
1008	1.0020e+02	-0.0588	17.424278	0.000507	5.067340	0.858431	-0.000101
1009	1.0030e+02	-0.0797	17.278941	0.000730	7.296969	1.236140	-0.000146
1010	1.0040e+02	-0.0986	17.214347	0.000324	3.243098	0.549396	-0.000065
1011	1.0050e+02	-0.1191	17.060936	0.000770	7.702357	1.304815	-0.000154
1012	1.0059e+02	-0.1386	16.960007	0.000507	5.067340	0.858431	-0.000101
1013	1.0069e+02	-0.1580	16.871190	0.000446	4.459259	0.755419	-0.000089
1014	1.0079e+02	-0.1785	16.725853	0.000730	7.296969	1.236140	-0.000146
1015	1.0089e+02	-0.1969	16.580516	0.000730	7.296969	1.236140	-0.000146
1016	1.0099e+02	-0.2178	16.487662	0.000466	4.661953	0.789756	-0.000093
1017	1.0109e+02	-0.2388	16.362511	0.000628	6.283501	1.064454	-0.000126
1018	1.0119e+02	-0.2581	16.257546	0.000527	5.270034	0.892768	-0.000105
1019	1.0129e+02	-0.2780	16.172766	0.000426	4.256566	0.721082	-0.000085
1020	1.0139e+02	-0.2989	16.055689	0.000588	5.878114	0.995780	-0.000118
1021	1.0149e+02	-0.3174	15.894203	0.000811	8.107744	1.373489	-0.000162
1022	1.0159e+02	-0.3373	15.817498	0.000385	3.851178	0.652407	-0.000077
1023	1.0169e+02	-0.3577	15.668124	0.000750	7.499663	1.270477	-0.000150
1024	1.0179e+02	-0.3780	15.591418	0.000385	3.851178	0.652407	-0.000077
1025	1.0189e+02	-0.3973	15.458193	0.000669	6.688889	1.133128	-0.000134
1026	1.0199e+02	-0.4171	15.324967	0.000669	6.688889	1.133128	-0.000134
1027	1.0209e+02	-0.4366	15.268447	0.000284	2.837710	0.480721	-0.000057
1028	1.0219e+02	-0.4574	15.086776	0.000912	9.121212	1.545175	-0.000183
1029	1.0229e+02	-0.4774	15.018145	0.000345	3.445791	0.583733	-0.000069
1030	1.0239e+02	-0.4977	14.897031	0.000608	6.080808	1.030117	-0.000122
1031	1.0248e+02	-0.5166	14.792065	0.000527	5.270034	0.892768	-0.000105
1032	1.0258e+02	-0.5375	14.646728	0.000730	7.296969	1.236140	-0.000146
1033	1.0268e+02	-0.5569	14.537726	0.000547	5.472727	0.927105	-0.000110
1034	1.0278e+02	-0.5792	14.400463	0.000689	6.891582	1.167466	-0.000138
1035	1.0288e+02	-0.5966	14.287423	0.000568	5.675421	0.961442	-0.000114
1036	1.0298e+02	-0.6165	14.154198	0.000669	6.688889	1.133128	-0.000134
1037	1.0308e+02	-0.6366	14.057307	0.000486	4.864646	0.824093	-0.000097
1038	1.0318e+02	-0.6573	13.944267	0.000568	5.675421	0.961442	-0.000114
1039	1.0328e+02	-0.6769	13.782781	0.000811	8.107744	1.373489	-0.000162
1040	1.0338e+02	-0.6969	13.742410	0.000203	2.026936	0.343372	-0.000041
1041	1.0348e+02	-0.7176	13.588999	0.000770	7.702357	1.304815	-0.000154
1042	1.0358e+02	-0.7362	13.479996	0.000547	5.472727	0.927105	-0.000110
1043	1.0368e+02	-0.7568	13.330622	0.000750	7.499663	1.270477	-0.000150
1044	1.0378e+02	-0.7763	13.225657	0.000527	5.270034	0.892768	-0.000105
1045	1.0388e+02	-0.7968	13.112617	0.000568	5.675421	0.961442	-0.000114
1046	1.0398e+02	-0.8159	13.007651	0.000527	5.270034	0.892768	-0.000105
1047	1.0408e+02	-0.8369	12.850203	0.000791	7.905050	1.339152	-0.000158
1048	1.0418e+02	-0.8557	12.737163	0.000568	5.675421	0.961442	-0.000114
1049	1.0428e+02	-0.8759	12.595864	0.000709	7.094276	1.201803	-0.000142
1050	1.0438e+02	-0.8960	12.515121	0.000405	4.053872	0.686744	-0.000081
1051	1.0447e+02	-0.9163	12.414192	0.000507	5.067340	0.858431	-0.000101
1052	1.0457e+02	-0.9352	12.240596	0.000872	8.715825	1.476501	-0.000174
1053	1.0467e+02	-0.9558	12.147741	0.000466	4.661953	0.789756	-0.000093
1054	1.0477e+02	-0.9751	12.010479	0.000689	6.891582	1.167466	-0.000138
1055	1.0487e+02	-0.9949	11.921662	0.000446	4.459259	0.755419	-0.000089
1056	1.0497e+02	-1.0147	11.776325	0.000730	7.296969	1.236140	-0.000146
1057	1.0507e+02	-1.0345	11.675397	0.000507	5.067340	0.858431	-0.000101
1058	1.0517e+02	-1.0551	11.550245	0.000628	6.283501	1.064454	-0.000126
1059	1.0527e+02	-1.0751	11.417020	0.000669	6.688889	1.133128	-0.000134
1060	1.0537e+02	-1.0948	11.312054	0.000527	5.270034	0.892768	-0.000105
1061	1.0547e+02	-1.1142	11.182866	0.000649	6.486195	1.098791	-0.000130
1062	1.0557e+02	-1.1350	11.017343	0.000831	8.310437	1.407826	-0.000166
1063	1.0567e+02	-1.1547	10.940638	0.000385	3.851178	0.652407	-0.000077
1064	1.0577e+02	-1.1742	10.799338	0.000709	7.094276	1.201803	-0.000142
1065	1.0587e+02	-1.1943	10.702447	0.000486	4.864646	0.824093	-0.000097
1066	1.0597e+02	-1.2150	10.532887	0.000851	8.513131	1.442163	-0.000170
1067	1.0607e+02	-1.2345	10.435996	0.000486	4.864646	0.824093	-0.000097
1068	1.0617e+02	-1.2543	10.282585	0.000770	7.702357	1.304815	-0.000154
1069	1.0627e+02	-1.2760	10.185693	0.000486	4.864646	0.824093	-0.000097
1070	1.0637e+02	-1.2936	10.056505	0.000649	6.486195	1.098791	-0.000130
1071	1.0647e+02	-1.3144	9.927317	0.000649	6.486195	1.098791	-0.000130
1072	1.0656e+02	-1.3338	9.866760	0.000304	3.040404	0.515058	-0.000061
1073	1.0666e+02	-1.3529	9.705274	0.000811	8.107744	1.373489	-0.000162
1074	1.0676e+02	-1.3734	9.588197	0.000588	5.878114	0.995780	-0.000118
1075	1.0686e+02	-1.3938	9.442860	0.000730	7.296969	1.236140	-0.000146
1076	1.0696e+02	-1.4133	9.329821	0.000568	5.675421	0.961442	-0.000114
1077	1.0706e+02	-1.4339	9.208707	0.000608	6.080808	1.030117	-0.000122
1078	1.0716e+02	-1.4537	9.083555	0.000628	6.283501	1.064454	-0.000126
1079	1.0726e+02	-1.4732	8.998776	0.000426	4.256566	0.721082	-0.000085
1080	1.0736e+02	-1.4928	8.804993	0.000973	9.729293	1.648187	-0.000195
1081	1.0746e+02	-1.5134	8.760585	0.000223	2.229630	0.377709	-0.000045
1082	1.0756e+02	-1.5334	8.554691	0.001034	10.337373	1.751198	-0.000207
1083	1.0766e+02	-1.5525	8.453762	0.000507	5.067340	0.858431	-0.000101
1084	1.0776e+02	-1.5733	8.393205	0.000304	3.040404	0.515058	-0.000061
1085	1.0786e+02	-1.5935	8.247868	0.000730	7.296969	1.236140	-0.000146
1086	1.0796e+02	-1.6134	8.098494	0.000750	7.499663	1.270477	-0.000150
1087	1.0806e+02	-1.6326	7.957195	0.000709	7.094276	1.201803	-0.000142
1088	1.0816e+02	-1.6533	7.860303	0.000486	4.864646	0.824093	-0.000097
1089	1.0826e+02	-1.6715	7.747263	0.000568	5.675421	0.961442	-0.000114
1090	1.0836e+02	-1.6928	7.622112	0.000628	6.283501	1.064454	-0.000126
1091	1.0845e+02	-1.7124	7.500998	0.000608	6.080808	1.030117	-0.000122
1092	1.0855e+02	-1.7329	7.400070	0.000507	5.067340	0.858431	-0.000101
1093	1.0865e+02	-1.7524	7.202250	0.000993	9.931986	1.682524	-0.000199
1094	1.0875e+02	-1.7731	7.105359	0.000486	4.864646	0.824093	-0.000097
1095	1.0885e+02	-1.7917	6.988282	0.000588	5.878114	0.995780	-0.000118
1096	1.0895e+02	-1.8127	6.855056	0.000669	6.688889	1.133128	-0.000134
1097	1.0905e+02	-1.8310	6.766239	0.000446	4.459259	0.755419	-0.000089
1098	1.0915e+02	-1.8518	6.628977	0.000689	6.891582	1.167466	-0.000138
1099	1.0925e+02	-1.8719	6.483640	0.000730	7.296969	1.236140	-0.000146
1100	1.0935e+02	-1.8929	6.374637	0.000547	5.472727	0.927105	-0.000110
1101	1.0945e+02	-1.9112	6.253523	0.000608	6.080808	1.030117	-0.000122
1102	1.0955e+02	-1.9318	6.156632	0.000486	4.864646	0.824093	-0.000097
1103	1.0965e+02	-1.9521	6.011295	0.000730	7.296969	1.236140	-0.000146
1104	1.0975e+02	-1.9717	5.906330	0.000527	5.270034	0.892768	-0.000105
1105	1.0985e+02	-1.9915	5.760993	0.000730	7.296969	1.236140	-0.000146
1106	1.0995e+02	-2.0106	5.692361	0.000345	3.445791	0.583733	-0.000069
1107	1.1005e+02	-2.0316	5.498579	0.000973	9.729293	1.648187	-0.000195
1108	1.1015e+02	-2.0512	5.409762	0.000446	4.459259	0.755419	-0.000089
1109	1.1025e+02	-2.0705	5.252314	0.000791	7.905050	1.339152	-0.000158
1110	1.1035e+02	-2.0911	5.111014	0.000709	7.094276	1.201803	-0.000142
1111	1.1044e+02	-2.1116	5.026234	0.000426	4.256566	0.721082	-0.000085
1112	1.1054e+02	-2.1309	4.893009	0.000669	6.688889	1.133128	-0.000134
1113	1.1064e+02	-2.1510	4.779969	0.000568	5.675421	0.961442	-0.000114
1114	1.1074e+02	-2.1706	4.675003	0.000527	5.270034	0.892768	-0.000105
1115	1.1084e+02	-2.1918	4.541778	0.000669	6.688889	1.133128	-0.000134
1116	1.1094e+02	-2.2110	4.360107	0.000912	9.121212	1.545175	-0.000183
1117	1.1104e+02	-2.2305	4.267252	0.000466	4.661953	0.789756	-0.000093
1118	1.1114e+02	-2.2504	4.142101	0.000628	6.283501	1.064454	-0.000126
1119	1.1124e+02	-2.2703	4.020987	0.000608	6.080808	1.030117	-0.000122
1120	1.1134e+02	-2.2905	3.883725	0.000689	6.891582	1.167466	-0.000138
1121	1.1144e+02	-2.3098	3.831242	0.000264	2.635017	0.446384	-0.000053
1122	1.1154e+02	-2.3304	3.693979	0.000689	6.891582	1.167466	-0.000138
1123	1.1164e+02	-2.3505	3.548642	0.000730	7.296969	1.236140	-0.000146
1124	1.1174e+02	-2.3706	3.447714	0.000507	5.067340	0.858431	-0.000101
1125	1.1184e+02	-2.3898	3.302377	0.000730	7.296969	1.236140	-0.000146
1126	1.1194e+02	-2.4104	3.201449	0.000507	5.067340	0.858431	-0.000101
1127	1.1204e+02	-2.4289	3.092446	0.000547	5.472727	0.927105	-0.000110
1128	1.1214e+02	-2.4495	2.971332	0.000608	6.080808	1.030117	-0.000122
1129	1.1224e+02	-2.4698	2.817921	0.000770	7.702357	1.304815	-0.000154
1130	1.1234e+02	-2.4902	2.716992	0.000507	5.067340	0.858431	-0.000101
1131	1.1244e+02	-2.5096	2.583767	0.000669	6.688889	1.133128	-0.000134
1132	1.1253e+02	-2.5285	2.482838	0.000507	5.067340	0.858431	-0.000101
1133	1.1263e+02	-2.5500	2.357687	0.000628	6.283501	1.064454	-0.000126
1134	1.1273e+02	-2.5684	2.208313	0.000750	7.499663	1.270477	-0.000150
1135	1.1283e+02	-2.5883	2.159868	0.000243	2.432323	0.412047	-0.000049
1136	1.1293e+02	-2.6083	2.022605	0.000689	6.891582	1.167466	-0.000138
1137	1.1303e+02	-2.6284	1.861120	0.000811	8.107744	1.373489	-0.000162
1138	1.1313e+02	-2.6490	1.804600	0.000284	2.837710	0.480721	-0.000057
1139	1.1323e+02	-2.6682	1.635040	0.000851	8.513131	1.442163	-0.000170
1140	1.1333e+02	-2.6878	1.517963	0.000588	5.878114	0.995780	-0.000118
1141	1.1343e+02	-2.7086	1.408960	0.000547	5.472727	0.927105	-0.000110
1142	1.1353e+02	-2.7291	1.303995	0.000527	5.270034	0.892768	-0.000105
1143	1.1363e+02	-2.7474	1.199029	0.000527	5.270034	0.892768	-0.000105
1144	1.1373e+02	-2.7684	1.041581	0.000791	7.905050	1.339152	-0.000158
1145	1.1383e+02	-2.7889	0.948727	0.000466	4.661953	0.789756	-0.000093
1146	1.1393e+02	-2.8084	0.851836	0.000486	4.864646	0.824093	-0.000097
1147	1.1403e+02	-2.8285	0.771093	0.000405	4.053872	0.686744	-0.000081
1148	1.1413e+02	-2.8484	0.605570	0.000831	8.310437	1.407826	-0.000166
1149	1.1423e+02	-2.8659	0.488493	0.000588	5.878114	0.995780	-0.000118
1150	1.1433e+02	-2.8873	0.379491	0.000547	5.472727	0.927105	-0.000110
1151	1.1442e+02	-2.9082	0.282600	0.000486	4.864646	0.824093	-0.000097
1152	1.1452e+02	-2.9271	0.137263	0.000730	7.296969	1.236140	-0.000146
1153	1.1462e+02	-2.9470	0.028260	0.000547	5.472727	0.927105	-0.000110
1154	1.1472e+02	-2.9697	-0.092854	0.000608	6.080808	1.030117	-0.000122
1155	1.1482e+02	-2.9864	-0.193783	0.000507	5.067340	0.858431	-0.000101
1156	1.1492e+02	-3.0084	-0.335082	0.000709	7.094276	1.201803	-0.000142
1157	1.1502e+02	-3.0270	-0.452159	0.000588	5.878114	0.995780	-0.000118
1158	1.1512e+02	-3.0475	-0.553088	0.000507	5.067340	0.858431	-0.000101
1159	1.1522e+02	-3.0667	-0.674202	0.000608	6.080808	1.030117	-0.000122
1160	1.1532e+02	-3.0868	-0.767056	0.000466	4.661953	0.789756	-0.000093
1161	1.1542e+02	-3.1063	-0.863947	0.000486	4.864646	0.824093	-0.000097
1162	1.1552e+02	-3.1267	-0.968913	0.000527	5.270034	0.892768	-0.000105
1163	1.1562e+02	-3.1465	-1.138472	0.000851	8.513131	1.442163	-0.000170
1164	1.1572e+02	-3.1677	-1.207104	0.000345	3.445791	0.583733	-0.000069
1165	1.1582e+02	-3.1857	-1.356478	0.000750	7.499663	1.270477	-0.000150
1166	1.1592e+02	-3.2069	-1.437220	0.000405	4.053872	0.686744	-0.000081
1167	1.1602e+02	-3.2258	-1.566409	0.000649	6.486195	1.098791	-0.000130
1168	1.1612e+02	-3.2469	-1.667337	0.000507	5.067340	0.858431	-0.000101
1169	1.1622e+02	-3.2661	-1.800563	0.000669	6.688889	1.133128	-0.000134
1170	1.1632e+02	-3.2858	-1.897454	0.000486	4.864646	0.824093	-0.000097
1171	1.1642e+02	-3.3060	-1.994345	0.000486	4.864646	0.824093	-0.000097
1172	1.1651e+02	-3.3263	-2.167942	0.000872	8.715825	1.476501	-0.000174
1173	1.1661e+02	-3.3459	-2.248685	0.000405	4.053872	0.686744	-0.000081
1174	1.1671e+02	-3.3667	-2.365762	0.000588	5.878114	0.995780	-0.000118
1175	1.1681e+02	-3.3864	-2.450541	0.000426	4.256566	0.721082	-0.000085
1176	1.1691e+02	-3.4063	-2.551470	0.000507	5.067340	0.858431	-0.000101
1177	1.1701e+02	-3.4256	-2.652398	0.000507	5.067340	0.858431	-0.000101
1178	1.1711e+02	-3.4463	-2.821958	0.000851	8.513131	1.442163	-0.000170
1179	1.1721e+02	-3.4659	-2.858292	0.000182	1.824242	0.309035	-0.000037
1180	1.1731e+02	-3.4854	-3.007666	0.000750	7.499663	1.270477	-0.000150
1181	1.1741e+02	-3.5044	-3.104557	0.000486	4.864646	0.824093	-0.000097
1182	1.1751e+02	-3.5257	-3.213560	0.000547	5.472727	0.927105	-0.000110
1183	1.1761e+02	-3.5454	-3.310451	0.000486	4.864646	0.824093	-0.000097
1184	1.1771e+02	-3.5645	-3.443677	0.000669	6.688889	1.133128	-0.000134
1185	1.1781e+02	-3.5856	-3.589014	0.000730	7.296969	1.236140	-0.000146
1186	1.1791e+02	-3.6050	-3.677831	0.000446	4.459259	0.755419	-0.000089
1187	1.1801e+02	-3.6249	-3.778759	0.000507	5.067340	0.858431	-0.000101
1188	1.1811e+02	-3.6444	-3.916022	0.000689	6.891582	1.167466	-0.000138
1189	1.1821e+02	-3.6651	-3.992727	0.000385	3.851178	0.652407	-0.000077
1190	1.1831e+02	-3.6877	-4.138064	0.000730	7.296969	1.236140	-0.000146
1191	1.1841e+02	-3.7046	-4.234955	0.000486	4.864646	0.824093	-0.000097
1192	1.1850e+02	-3.7254	-4.360107	0.000628	6.283501	1.064454	-0.000126
1193	1.1860e+02	-3.7444	-4.416626	0.000284	2.837710	0.480721	-0.000057
1194	1.1870e+02	-3.7654	-4.566001	0.000750	7.499663	1.270477	-0.000150
1195	1.1880e+02	-3.7845	-4.670966	0.000527	5.270034	0.892768	-0.000105
1196	1.1890e+02	-3.8034	-4.779969	0.000547	5.472727	0.927105	-0.000110
1197	1.1900e+02	-3.8237	-4.852637	0.000365	3.648485	0.618070	-0.000073
1198	1.1910e+02	-3.8435	-4.977788	0.000628	6.283501	1.064454	-0.000126
1199	1.1920e+02	-3.8644	-5.078717	0.000507	5.067340	0.858431	-0.000101
1200	1.1930e+02	-3.8834	-5.211942	0.000669	6.688889	1.133128	-0.000134
1201	1.1940e+02	-3.9035	-5.316908	0.000527	5.270034	0.892768	-0.000105
1202	1.1950e+02	-3.9243	-5.409762	0.000466	4.661953	0.789756	-0.000093
1203	1.1960e+02	-3.9435	-5.559136	0.000750	7.499663	1.270477	-0.000150
1204	1.1970e+02	-3.9630	-5.660064	0.000507	5.067340	0.858431	-0.000101
1205	1.1980e+02	-3.9832	-5.712547	0.000264	2.635017	0.446384	-0.000053
1206	1.1990e+02	-4.0041	-5.849810	0.000689	6.891582	1.167466	-0.000138
1207	1.2000e+02	-4.0243	-5.983035	0.000669	6.688889	1.133128	-0.000134
1208	1.2010e+02	-4.0433	-6.071852	0.000446	4.459259	0.755419	-0.000089
1209	1.2020e+02	-4.0625	-6.168743	0.000486	4.864646	0.824093	-0.000097
1210	1.2030e+02	-4.0836	-6.277746	0.000547	5.472727	0.927105	-0.000110
1211	1.2039e+02	-4.1037	-6.386749	0.000547	5.472727	0.927105	-0.000110
1212	1.2049e+02	-4.1235	-6.503826	0.000588	5.878114	0.995780	-0.000118
1213	1.2059e+02	-4.1427	-6.641088	0.000689	6.891582	1.167466	-0.000138
1214	1.2069e+02	-4.1623	-6.766239	0.000628	6.283501	1.064454	-0.000126
1215	1.2079e+02	-4.1821	-6.859094	0.000466	4.661953	0.789756	-0.000093
1216	1.2089e+02	-4.2026	-6.955985	0.000486	4.864646	0.824093	-0.000097
1217	1.2099e+02	-4.2220	-7.077099	0.000608	6.080808	1.030117	-0.000122
1218	1.2109e+02	-4.2424	-7.173990	0.000486	4.864646	0.824093	-0.000097
1219	1.2119e+02	-4.2622	-7.323364	0.000750	7.499663	1.270477	-0.000150
1220	1.2129e+02	-4.2833	-7.400070	0.000385	3.851178	0.652407	-0.000077
1221	1.2139e+02	-4.3024	-7.505035	0.000527	5.270034	0.892768	-0.000105
1222	1.2149e+02	-4.3221	-7.622112	0.000588	5.878114	0.995780	-0.000118
1223	1.2159e+02	-4.3426	-7.727078	0.000527	5.270034	0.892768	-0.000105
1224	1.2169e+02	-4.3615	-7.836080	0.000547	5.472727	0.927105	-0.000110
1225	1.2179e+02	-4.3822	-7.977380	0.000709	7.094276	1.201803	-0.000142
1226	1.2189e+02	-4.4017	-8.066197	0.000446	4.459259	0.755419	-0.000089
1227	1.2199e+02	-4.4220	-8.163088	0.000486	4.864646	0.824093	-0.000097
1228	1.2209e+02	-4.4420	-8.255943	0.000466	4.661953	0.789756	-0.000093
1229	1.2219e+02	-4.4614	-8.397242	0.000709	7.094276	1.201803	-0.000142
1230	1.2229e+02	-4.4810	-8.514319	0.000588	5.878114	0.995780	-0.000118
1231	1.2239e+02	-4.5020	-8.647545	0.000669	6.688889	1.133128	-0.000134
1232	1.2248e+02	-4.5213	-8.760585	0.000568	5.675421	0.961442	-0.000114
1233	1.2258e+02	-4.5413	-8.845364	0.000426	4.256566	0.721082	-0.000085
1234	1.2268e+02	-4.5612	-8.962441	0.000588	5.878114	0.995780	-0.000118
1235	1.2278e+02	-4.5821	-9.079518	0.000588	5.878114	0.995780	-0.000118
1236	1.2288e+02	-4.6013	-9.168335	0.000446	4.459259	0.755419	-0.000089
1237	1.2298e+02	-4.6222	-9.297524	0.000649	6.486195	1.098791	-0.000130
1238	1.2308e+02	-4.6411	-9.414601	0.000588	5.878114	0.995780	-0.000118
1239	1.2318e+02	-4.6570	-9.519566	0.000527	5.270034	0.892768	-0.000105
1240	1.2328e+02	-4.6817	-9.644717	0.000628	6.283501	1.064454	-0.000126
1241	1.2338e+02	-4.7009	-9.753720	0.000547	5.472727	0.927105	-0.000110
1242	1.2348e+02	-4.7208	-9.862723	0.000547	5.472727	0.927105	-0.000110
1243	1.2358e+02	-4.7409	-9.967688	0.000527	5.270034	0.892768	-0.000105
1244	1.2368e+02	-4.7610	-10.084765	0.000588	5.878114	0.995780	-0.000118
1245	1.2378e+02	-4.7807	-10.197805	0.000568	5.675421	0.961442	-0.000114
1246	1.2388e+02	-4.8010	-10.294696	0.000486	4.864646	0.824093	-0.000097
1247	1.2398e+02	-4.8198	-10.472330	0.000892	8.918518	1.510838	-0.000179
1248	1.2408e+02	-4.8401	-10.516739	0.000223	2.229630	0.377709	-0.000045
1249	1.2418e+02	-4.8607	-10.670150	0.000770	7.702357	1.304815	-0.000154
1250	1.2428e+02	-4.8799	-10.763004	0.000466	4.661953	0.789756	-0.000093
1251	1.2438e+02	-4.9001	-10.892192	0.000649	6.486195	1.098791	-0.000130
1252	1.2447e+02	-4.9199	-10.981009	0.000446	4.459259	0.755419	-0.000089
1253	1.2457e+02	-4.9400	-11.106160	0.000628	6.283501	1.064454	-0.000126
1254	1.2467e+02	-4.9599	-11.203052	0.000486	4.864646	0.824093	-0.000097
1255	1.2477e+02	-4.9794	-11.340314	0.000689	6.891582	1.167466	-0.000138
1256	1.2487e+02	-5.0002	-11.412983	0.000365	3.648485	0.618070	-0.000073
1257	1.2497e+02	-5.0194	-11.602728	0.000953	9.526599	1.613850	-0.000191
1258	1.2507e+02	-5.0388	-11.695582	0.000466	4.661953	0.789756	-0.000093
1259	1.2517e+02	-5.0594	-11.796511	0.000507	5.067340	0.858431	-0.000101
1260	1.2527e+02	-5.0795	-11.957996	0.000811	8.107744	1.373489	-0.000162
1261	1.2537e+02	-5.0987	-12.014516	0.000284	2.837710	0.480721	-0.000057
1262	1.2547e+02	-5.1202	-12.119481	0.000527	5.270034	0.892768	-0.000105
1263	1.2557e+02	-5.1394	-12.256744	0.000689	6.891582	1.167466	-0.000138
1264	1.2567e+02	-5.1584	-12.398044	0.000709	7.094276	1.201803	-0.000142
1265	1.2577e+02	-5.1778	-12.503009	0.000527	5.270034	0.892768	-0.000105
1266	1.2587e+02	-5.1987	-12.644309	0.000709	7.094276	1.201803	-0.000142
1267	1.2597e+02	-5.2193	-12.757349	0.000568	5.675421	0.961442	-0.000114
1268	1.2607e+02	-5.2385	-12.906723	0.000750	7.499663	1.270477	-0.000150
1269	1.2617e+02	-5.2584	-12.991503	0.000426	4.256566	0.721082	-0.000085
1270	1.2627e+02	-5.2792	-13.104543	0.000568	5.675421	0.961442	-0.000114
1271	1.2636e+02	-5.2983	-13.229694	0.000628	6.283501	1.064454	-0.000126
1272	1.2646e+02	-5.3186	-13.314474	0.000426	4.256566	0.721082	-0.000085
1273	1.2656e+02	-5.3386	-13.439625	0.000628	6.283501	1.064454	-0.000126
1274	1.2666e+02	-5.3574	-13.544590	0.000527	5.270034	0.892768	-0.000105
1275	1.2676e+02	-5.3784	-13.633407	0.000446	4.459259	0.755419	-0.000089
1276	1.2686e+02	-5.3979	-13.790856	0.000791	7.905050	1.339152	-0.000158
1277	1.2696e+02	-5.4195	-13.911970	0.000608	6.080808	1.030117	-0.000122
1278	1.2706e+02	-5.4376	-14.025010	0.000568	5.675421	0.961442	-0.000114
1279	1.2716e+02	-5.4579	-14.146124	0.000608	6.080808	1.030117	-0.000122
1280	1.2726e+02	-5.4793	-14.255126	0.000547	5.472727	0.927105	-0.000110
1281	1.2736e+02	-5.4979	-14.364129	0.000547	5.472727	0.927105	-0.000110
1282	1.2746e+02	-5.5177	-14.493317	0.000649	6.486195	1.098791	-0.000130
1283	1.2756e+02	-5.5379	-14.598283	0.000527	5.270034	0.892768	-0.000105
1284	1.2766e+02	-5.5579	-14.751694	0.000770	7.702357	1.304815	-0.000154
1285	1.2776e+02	-5.5779	-14.876845	0.000628	6.283501	1.064454	-0.000126
1286	1.2786e+02	-5.5969	-14.977774	0.000507	5.067340	0.858431	-0.000101
1287	1.2796e+02	-5.6180	-15.123110	0.000730	7.296969	1.236140	-0.000146
1288	1.2806e+02	-5.6374	-15.240187	0.000588	5.878114	0.995780	-0.000118
1289	1.2816e+02	-5.6569	-15.357264	0.000588	5.878114	0.995780	-0.000118
1290	1.2826e+02	-5.6778	-15.486453	0.000649	6.486195	1.098791	-0.000130
1291	1.2835e+02	-5.6962	-15.656012	0.000851	8.513131	1.442163	-0.000170
1292	1.2845e+02	-5.7173	-15.708495	0.000264	2.635017	0.446384	-0.000053
1293	1.2855e+02	-5.7370	-15.837684	0.000649	6.486195	1.098791	-0.000130
1294	1.2865e+02	-5.7568	-15.934575	0.000486	4.864646	0.824093	-0.000097
1295	1.2875e+02	-5.7767	-16.092023	0.000791	7.905050	1.339152	-0.000158
1296	1.2885e+02	-5.7965	-16.205063	0.000568	5.675421	0.961442	-0.000114
1297	1.2895e+02	-5.8165	-16.342325	0.000689	6.891582	1.167466	-0.000138
1298	1.2905e+02	-5.8371	-16.451328	0.000547	5.472727	0.927105	-0.000110
1299	1.2915e+02	-5.8565	-16.572442	0.000608	6.080808	1.030117	-0.000122
1300	1.2925e+02	-5.8755	-16.725853	0.000770	7.702357	1.304815	-0.000154
1301	1.2935e+02	-5.8963	-16.859079	0.000669	6.688889	1.133128	-0.000134
1302	1.2945e+02	-5.9167	-16.947896	0.000446	4.459259	0.755419	-0.000089
1303	1.2955e+02	-5.9360	-17.069010	0.000608	6.080808	1.030117	-0.000122
1304	1.2965e+02	-5.9564	-17.178013	0.000547	5.472727	0.927105	-0.000110
1305	1.2975e+02	-5.9753	-17.327387	0.000750	7.499663	1.270477	-0.000150
1306	1.2985e+02	-5.9952	-17.436389	0.000547	5.472727	0.927105	-0.000110
1307	1.2995e+02	-6.0159	-17.557503	0.000608	6.080808	1.030117	-0.000122
1308	1.3005e+02	-6.0349	-17.682655	0.000628	6.283501	1.064454	-0.000126
1309	1.3015e+02	-6.0555	-17.779546	0.000486	4.864646	0.824093	-0.000097
1310	1.3025e+02	-6.0757	-17.973328	0.000973	9.729293	1.648187	-0.000195
1311	1.3034e+02	-6.0960	-18.045997	0.000365	3.648485	0.618070	-0.000073
1312	1.3044e+02	-6.1156	-18.179222	0.000669	6.688889	1.133128	-0.000134
1313	1.3054e+02	-6.1348	-18.296299	0.000588	5.878114	0.995780	-0.000118
1314	1.3064e+02	-6.1552	-18.437599	0.000709	7.094276	1.201803	-0.000142
1315	1.3074e+02	-6.1746	-18.574862	0.000689	6.891582	1.167466	-0.000138
1316	1.3084e+02	-6.1954	-18.691938	0.000588	5.878114	0.995780	-0.000118
1317	1.3094e+02	-6.2151	-18.817090	0.000628	6.283501	1.064454	-0.000126
1318	1.3104e+02	-6.2354	-18.954352	0.000689	6.891582	1.167466	-0.000138
1319	1.3114e+02	-6.2551	-19.091615	0.000689	6.891582	1.167466	-0.000138
1320	1.3124e+02	-6.2741	-19.184469	0.000466	4.661953	0.789756	-0.000093
1321	1.3134e+02	-6.2946	-19.341917	0.000791	7.905050	1.339152	-0.000158
1322	1.3144e+02	-6.3145	-19.475143	0.000669	6.688889	1.133128	-0.000134
1323	1.3154e+02	-6.3340	-19.632591	0.000791	7.905050	1.339152	-0.000158
1324	1.3164e+02	-6.3541	-19.693148	0.000304	3.040404	0.515058	-0.000061
1325	1.3174e+02	-6.3742	-19.866745	0.000872	8.715825	1.476501	-0.000174
1326	1.3184e+02	-6.3947	-20.012082	0.000730	7.296969	1.236140	-0.000146
1327	1.3194e+02	-6.4142	-20.100899	0.000446	4.459259	0.755419	-0.000089
1328	1.3204e+02	-6.4337	-20.262384	0.000811	8.107744	1.373489	-0.000162
1329	1.3214e+02	-6.4539	-20.375424	0.000568	5.675421	0.961442	-0.000114
1330	1.3224e+02	-6.4742	-20.536909	0.000811	8.107744	1.373489	-0.000162
1331	1.3234e+02	-6.4936	-20.674172	0.000689	6.891582	1.167466	-0.000138
1332	1.3243e+02	-6.5143	-20.746841	0.000365	3.648485	0.618070	-0.000073
1333	1.3253e+02	-6.5343	-20.896215	0.000750	7.499663	1.270477	-0.000150
1334	1.3263e+02	-6.5536	-21.037514	0.000709	7.094276	1.201803	-0.000142
1335	1.3273e+02	-6.5738	-21.215148	0.000892	8.918518	1.510838	-0.000179
1336	1.3283e+02	-6.5930	-21.308002	0.000466	4.661953	0.789756	-0.000093
1337	1.3293e+02	-6.6136	-21.449302	0.000709	7.094276	1.201803	-0.000142
1338	1.3303e+02	-6.6339	-21.586565	0.000689	6.891582	1.167466	-0.000138
1339	1.3313e+02	-6.6526	-21.699605	0.000568	5.675421	0.961442	-0.000114
1340	1.3323e+02	-6.6730	-21.848979	0.000750	7.499663	1.270477	-0.000150
1341	1.3333e+02	-6.6928	-21.990278	0.000709	7.094276	1.201803	-0.000142
1342	1.3343e+02	-6.7134	-22.151764	0.000811	8.107744	1.373489	-0.000162
1343	1.3353e+02	-6.7336	-22.284989	0.000669	6.688889	1.133128	-0.000134
1344	1.3363e+02	-6.7528	-22.450512	0.000831	8.310437	1.407826	-0.000166
1345	1.3373e+02	-6.7715	-22.539329	0.000446	4.459259	0.755419	-0.000089
1346	1.3383e+02	-6.7924	-22.668517	0.000649	6.486195	1.098791	-0.000130
1347	1.3393e+02	-6.8127	-22.781557	0.000568	5.675421	0.961442	-0.000114
1348	1.3403e+02	-6.8321	-22.963228	0.000912	9.121212	1.545175	-0.000183
1349	1.3413e+02	-6.8530	-23.084342	0.000608	6.080808	1.030117	-0.000122
1350	1.3423e+02	-6.8728	-23.261976	0.000892	8.918518	1.510838	-0.000179
1351	1.3432e+02	-6.8927	-23.354830	0.000466	4.661953	0.789756	-0.000093
1352	1.3442e+02	-6.9125	-23.536501	0.000912	9.121212	1.545175	-0.000183
1353	1.3452e+02	-6.9317	-23.629355	0.000466	4.661953	0.789756	-0.000093
1354	1.3462e+02	-6.9522	-23.786804	0.000791	7.905050	1.339152	-0.000158
1355	1.3472e+02	-6.9719	-23.932141	0.000730	7.296969	1.236140	-0.000146
1356	1.3482e+02	-6.9919	-24.129960	0.000993	9.931986	1.682524	-0.000199
1357	1.3492e+02	-7.0122	-24.247037	0.000588	5.878114	0.995780	-0.000118
1358	1.3502e+02	-7.0317	-24.400448	0.000770	7.702357	1.304815	-0.000154
1359	1.3512e+02	-7.0515	-24.541748	0.000709	7.094276	1.201803	-0.000142
1360	1.3522e+02	-7.0715	-24.703234	0.000811	8.107744	1.373489	-0.000162
1361	1.3532e+02	-7.0914	-24.840496	0.000689	6.891582	1.167466	-0.000138
1362	1.3542e+02	-7.1121	-24.989870	0.000750	7.499663	1.270477	-0.000150
1363	1.3552e+02	-7.1307	-25.143281	0.000770	7.702357	1.304815	-0.000154
1364	1.3562e+02	-7.1523	-25.304767	0.000811	8.107744	1.373489	-0.000162
1365	1.3572e+02	-7.1718	-25.466252	0.000811	8.107744	1.373489	-0.000162
1366	1.3582e+02	-7.1913	-25.563143	0.000486	4.864646	0.824093	-0.000097
1367	1.3592e+02	-7.2106	-25.744815	0.000912	9.121212	1.545175	-0.000183
1368	1.3602e+02	-7.2308	-25.865929	0.000608	6.080808	1.030117	-0.000122
1369	1.3612e+02	-7.2514	-26.071823	0.001034	10.337373	1.751198	-0.000207
1370	1.3622e+02	-7.2704	-26.188900	0.000588	5.878114	0.995780	-0.000118
1371	1.3631e+02	-7.2906	-26.350385	0.000811	8.107744	1.373489	-0.000162
1372	1.3641e+02	-7.3105	-26.560316	0.001054	10.540067	1.785536	-0.000211
1373	1.3651e+02	-7.3306	-26.693541	0.000669	6.688889	1.133128	-0.000134
1374	1.3661e+02	-7.3507	-26.826767	0.000669	6.688889	1.133128	-0.000134
1375	1.3671e+02	-7.3706	-27.020549	0.000973	9.729293	1.648187	-0.000195
1376	1.3681e+02	-7.3907	-27.157812	0.000689	6.891582	1.167466	-0.000138
1377	1.3691e+02	-7.4103	-27.335446	0.000892	8.918518	1.510838	-0.000179
1378	1.3701e+02	-7.4300	-27.500969	0.000831	8.310437	1.407826	-0.000166
1379	1.3711e+02	-7.4499	-27.642268	0.000709	7.094276	1.201803	-0.000142
1380	1.3721e+02	-7.4702	-27.775494	0.000669	6.688889	1.133128	-0.000134
1381	1.3731e+02	-7.4890	-27.969276	0.000973	9.729293	1.648187	-0.000195
1382	1.3741e+02	-7.5101	-28.171133	0.001013	10.134680	1.716861	-0.000203
1383	1.3751e+02	-7.5295	-28.300322	0.000649	6.486195	1.098791	-0.000130
1384	1.3761e+02	-7.5502	-28.465844	0.000831	8.310437	1.407826	-0.000166
1385	1.3771e+02	-7.5697	-28.631367	0.000831	8.310437	1.407826	-0.000166
1386	1.3781e+02	-7.5894	-28.829186	0.000993	9.931986	1.682524	-0.000199
1387	1.3791e+02	-7.6094	-28.982597	0.000770	7.702357	1.304815	-0.000154
1388	1.3801e+02	-7.6294	-29.168306	0.000932	9.323905	1.579512	-0.000187
1389	1.3811e+02	-7.6490	-29.325754	0.000791	7.905050	1.339152	-0.000158
1390	1.3821e+02	-7.6684	-29.547796	0.001115	11.148148	1.888547	-0.000223
1391	1.3831e+02	-7.6900	-29.701208	0.000770	7.702357	1.304815	-0.000154
1392	1.3840e+02	-7.7085	-29.890953	0.000953	9.526599	1.613850	-0.000191
1393	1.3850e+02	-7.7286	-30.064550	0.000872	8.715825	1.476501	-0.000174
1394	1.3860e+02	-7.7493	-30.213924	0.000750	7.499663	1.270477	-0.000150
1395	1.3870e+02	-7.7682	-30.415781	0.001013	10.134680	1.716861	-0.000203
1396	1.3880e+02	-7.7881	-30.585340	0.000851	8.513131	1.442163	-0.000170
1397	1.3890e+02	-7.8087	-30.767011	0.000912	9.121212	1.545175	-0.000183
1398	1.3900e+02	-7.8278	-30.908311	0.000709	7.094276	1.201803	-0.000142
1399	1.3910e+02	-7.8469	-31.158614	0.001257	12.567003	2.128908	-0.000252
1400	1.3920e+02	-7.8683	-31.291839	0.000669	6.688889	1.133128	-0.000134
1401	1.3930e+02	-7.8879	-31.538104	0.001236	12.364309	2.094571	-0.000248
1402	1.3940e+02	-7.9077	-31.699590	0.000811	8.107744	1.373489	-0.000162
1403	1.3950e+02	-7.9285	-31.865112	0.000831	8.310437	1.407826	-0.000166
1404	1.3960e+02	-7.9482	-32.079081	0.001074	10.742761	1.819873	-0.000215
1405	1.3970e+02	-7.9675	-32.256715	0.000892	8.918518	1.510838	-0.000179
1406	1.3980e+02	-7.9871	-32.438386	0.000912	9.121212	1.545175	-0.000183
1407	1.3990e+02	-8.0075	-32.607945	0.000851	8.513131	1.442163	-0.000170
1408	1.4000e+02	-8.0283	-32.817876	0.001054	10.540067	1.785536	-0.000211
1409	1.4010e+02	-8.0473	-33.039919	0.001115	11.148148	1.888547	-0.000223
1410	1.4020e+02	-8.0678	-33.185256	0.000730	7.296969	1.236140	-0.000146
1411	1.4029e+02	-8.0878	-33.427484	0.001216	12.161616	2.060233	-0.000243
1412	1.4039e+02	-8.1063	-33.568784	0.000709	7.094276	1.201803	-0.000142
1413	1.4049e+02	-8.1262	-33.742380	0.000872	8.715825	1.476501	-0.000174
1414	1.4059e+02	-8.1461	-34.024980	0.001419	14.188552	2.403606	-0.000284
1415	1.4069e+02	-8.1670	-34.174354	0.000750	7.499663	1.270477	-0.000150
1416	1.4079e+02	-8.1866	-34.364099	0.000953	9.526599	1.613850	-0.000191
1417	1.4089e+02	-8.2065	-34.598253	0.001176	11.756229	1.991559	-0.000235
1418	1.4099e+02	-8.2270	-34.816259	0.001095	10.945454	1.854210	-0.000219
1419	1.4109e+02	-8.2474	-35.018115	0.001013	10.134680	1.716861	-0.000203
1420	1.4119e+02	-8.2661	-35.232084	0.001074	10.742761	1.819873	-0.000215
1421	1.4129e+02	-8.2859	-35.433940	0.001013	10.134680	1.716861	-0.000203
1422	1.4139e+02	-8.3066	-35.635797	0.001013	10.134680	1.716861	-0.000203
1423	1.4149e+02	-8.3264	-35.853802	0.001095	10.945454	1.854210	-0.000219
1424	1.4159e+02	-8.3461	-36.059696	0.001034	10.337373	1.751198	-0.000207
1425	1.4169e+02	-8.3673	-36.265590	0.001034	10.337373	1.751198	-0.000207
1426	1.4179e+02	-8.3862	-36.463410	0.000993	9.931986	1.682524	-0.000199
1427	1.4189e+02	-8.4068	-36.705638	0.001216	12.161616	2.060233	-0.000243
1428	1.4199e+02	-8.4262	-36.923643	0.001095	10.945454	1.854210	-0.000219
1429	1.4209e+02	-8.4454	-37.097240	0.000872	8.715825	1.476501	-0.000174
1430	1.4219e+02	-8.4666	-37.379840	0.001419	14.188552	2.403606	-0.000284
1431	1.4228e+02	-8.4847	-37.553437	0.000872	8.715825	1.476501	-0.000174
1432	1.4238e+02	-8.5045	-37.799702	0.001236	12.364309	2.094571	-0.000248
1433	1.4248e+02	-8.5256	-38.017707	0.001095	10.945454	1.854210	-0.000219
1434	1.4258e+02	-8.5452	-38.251861	0.001176	11.756229	1.991559	-0.000235
1435	1.4268e+02	-8.5651	-38.473904	0.001115	11.148148	1.888547	-0.000223
1436	1.4278e+02	-8.5848	-38.663649	0.000953	9.526599	1.613850	-0.000191
1437	1.4288e+02	-8.6040	-38.897803	0.001176	11.756229	1.991559	-0.000235
1438	1.4298e+02	-8.6256	-39.144068	0.001236	12.364309	2.094571	-0.000248
1439	1.4308e+02	-8.6448	-39.329776	0.000932	9.323905	1.579512	-0.000187
1440	1.4318e+02	-8.6658	-39.600264	0.001358	13.580471	2.300594	-0.000272
1441	1.4328e+02	-8.6855	-39.802121	0.001013	10.134680	1.716861	-0.000203
1442	1.4338e+02	-8.7042	-40.092795	0.001459	14.593939	2.472280	-0.000292
1443	1.4348e+02	-8.7251	-40.302726	0.001054	10.540067	1.785536	-0.000211
1444	1.4358e+02	-8.7441	-40.569177	0.001338	13.377777	2.266257	-0.000268
1445	1.4368e+02	-8.7650	-40.795257	0.001135	11.350841	1.922885	-0.000227
1446	1.4378e+02	-8.7836	-41.009225	0.001074	10.742761	1.819873	-0.000215
1447	1.4388e+02	-8.8033	-41.235304	0.001135	11.350841	1.922885	-0.000227
1448	1.4398e+02	-8.8243	-41.505793	0.001358	13.580471	2.300594	-0.000272
1449	1.4408e+02	-8.8444	-41.739946	0.001176	11.756229	1.991559	-0.000235
1450	1.4418e+02	-8.8635	-41.994286	0.001277	12.769697	2.163245	-0.000256
1451	1.4428e+02	-8.8834	-42.212291	0.001095	10.945454	1.854210	-0.000219
1452	1.4437e+02	-8.9029	-42.494891	0.001419	14.188552	2.403606	-0.000284
1453	1.4447e+02	-8.9238	-42.733082	0.001196	11.958922	2.025896	-0.000239
1454	1.4457e+02	-8.9428	-42.983384	0.001257	12.567003	2.128908	-0.000252
1455	1.4467e+02	-8.9621	-43.217538	0.001176	11.756229	1.991559	-0.000235
1456	1.4477e+02	-8.9861	-43.492063	0.001378	13.783165	2.334931	-0.000276
1457	1.4487e+02	-9.0034	-43.742366	0.001257	12.567003	2.128908	-0.000252
1458	1.4497e+02	-9.0231	-43.968445	0.001135	11.350841	1.922885	-0.000227
1459	1.4507e+02	-9.0433	-44.247008	0.001399	13.985858	2.369269	-0.000280
1460	1.4517e+02	-9.0628	-44.477124	0.001155	11.553535	1.957222	-0.000231
1461	1.4527e+02	-9.0826	-44.775872	0.001500	14.999326	2.540955	-0.000300
1462	1.4537e+02	-9.1027	-45.050398	0.001378	13.783165	2.334931	-0.000276
1463	1.4547e+02	-9.1226	-45.296663	0.001236	12.364309	2.094571	-0.000248
1464	1.4557e+02	-9.1427	-45.567151	0.001358	13.580471	2.300594	-0.000272
1465	1.4567e+02	-9.1625	-45.817453	0.001257	12.567003	2.128908	-0.000252
1466	1.4577e+02	-9.1820	-46.104090	0.001439	14.391245	2.437943	-0.000288
1467	1.4587e+02	-9.2020	-46.358430	0.001277	12.769697	2.163245	-0.000256
1468	1.4597e+02	-9.2226	-46.653141	0.001480	14.796633	2.506617	-0.000296
1469	1.4607e+02	-9.2416	-46.899406	0.001236	12.364309	2.094571	-0.000248
1470	1.4617e+02	-9.2622	-47.169894	0.001358	13.580471	2.300594	-0.000272
1471	1.4626e+02	-9.2827	-47.496902	0.001642	16.418181	2.781315	-0.000329
1472	1.4636e+02	-9.3030	-47.755279	0.001297	12.972390	2.197582	-0.000260
1473	1.4646e+02	-9.3211	-48.025767	0.001358	13.580471	2.300594	-0.000272
1474	1.4656e+02	-9.3423	-48.292218	0.001338	13.377777	2.266257	-0.000268
1475	1.4666e+02	-9.3614	-48.595003	0.001520	15.202020	2.575292	-0.000304
1476	1.4676e+02	-9.3812	-48.869528	0.001378	13.783165	2.334931	-0.000276
1477	1.4686e+02	-9.4017	-49.196536	0.001642	16.418181	2.781315	-0.000329
1478	1.4696e+02	-9.4219	-49.426653	0.001155	11.553535	1.957222	-0.000231
1479	1.4706e+02	-9.4417	-49.713289	0.001439	14.391245	2.437943	-0.000288
1480	1.4716e+02	-9.4615	-50.020112	0.001540	15.404713	2.609629	-0.000308
1481	1.4726e+02	-9.4819	-50.335008	0.001581	15.810101	2.678304	-0.000316
1482	1.4736e+02	-9.5026	-50.601459	0.001338	13.377777	2.266257	-0.000268
1483	1.4746e+02	-9.5210	-50.928467	0.001642	16.418181	2.781315	-0.000329
1484	1.4756e+02	-9.5405	-51.243364	0.001581	15.810101	2.678304	-0.000316
1485	1.4766e+02	-9.5609	-51.473481	0.001155	11.553535	1.957222	-0.000231
1486	1.4776e+02	-9.5811	-51.852971	0.001905	19.053198	3.227699	-0.000381
1487	1.4786e+02	-9.6011	-52.155757	0.001520	15.202020	2.575292	-0.000304
1488	1.4796e+02	-9.6208	-52.426245	0.001358	13.580471	2.300594	-0.000272
1489	1.4806e+02	-9.6407	-52.769401	0.001723	17.228956	2.918664	-0.000345
1490	1.4816e+02	-9.6606	-53.088335	0.001601	16.012794	2.712641	-0.000321
1491	1.4825e+02	-9.6803	-53.387083	0.001500	14.999326	2.540955	-0.000300
1492	1.4835e+02	-9.7001	-53.754462	0.001845	18.445117	3.124687	-0.000369
1493	1.4845e+02	-9.7198	-54.033025	0.001399	13.985858	2.369269	-0.000280
1494	1.4855e+02	-9.7408	-54.372144	0.001703	17.026262	2.884327	-0.000341
1495	1.4865e+02	-9.7604	-54.666855	0.001480	14.796633	2.506617	-0.000296
1496	1.4875e+02	-9.7809	-54.981752	0.001581	15.810101	2.678304	-0.000316
1497	1.4885e+02	-9.8001	-55.357205	0.001885	18.850504	3.193362	-0.000377
1498	1.4895e+02	-9.8202	-55.668065	0.001561	15.607407	2.643966	-0.000312
1499	1.4905e+02	-9.8405	-55.999110	0.001662	16.620875	2.815652	-0.000333
1500	1.4915e+02	-9.8596	-56.318044	0.001601	16.012794	2.712641	-0.000321
1501	1.4925e+02	-9.8805	-56.689460	0.001865	18.647811	3.159025	-0.000373
1502	1.4935e+02	-9.9002	-57.020505	0.001662	16.620875	2.815652	-0.000333
1503	1.4945e+02	-9.9187	-57.343476	0.001622	16.215488	2.746978	-0.000325
1504	1.4955e+02	-9.9396	-57.690670	0.001743	17.431649	2.953001	-0.000349
1505	1.4965e+02	-9.9598	-58.054012	0.001824	18.242424	3.090350	-0.000365
1506	1.4975e+02	-9.9789	-58.417354	0.001824	18.242424	3.090350	-0.000365
1507	1.4985e+02	-9.9982	-58.736288	0.001601	16.012794	2.712641	-0.000321
1508	1.4995e+02	-9.9790	-58.954293	-0.001095	-10.945454	-1.854210	-0.000219
1509	1.5005e+02	-9.9596	-59.131927	-0.000892	-8.918518	-1.510838	-0.000179
1510	1.5015e+02	-9.9400	-59.337821	-0.001034	-10.337373	-1.751198	-0.000207
1511	1.5025e+02	-9.9213	-59.539678	-0.001013	-10.134680	-1.716861	-0.000203
1512	1.5034e+02	-9.9002	-59.648681	-0.000547	-5.472727	-0.927105	-0.000110
1513	1.5044e+02	-9.8804	-59.838426	-0.000953	-9.526599	-1.613850	-0.000191
1514	1.5054e+02	-9.8596	-59.979726	-0.000709	-7.094276	-1.201803	-0.000142
1515	1.5064e+02	-9.8402	-60.084691	-0.000527	-5.270034	-0.892768	-0.000105
1516	1.5074e+02	-9.8199	-60.234065	-0.000750	-7.499663	-1.270477	-0.000150
1517	1.5084e+02	-9.7998	-60.318845	-0.000426	-4.256566	-0.721082	-0.000085
1518	1.5094e+02	-9.7803	-60.439959	-0.000608	-6.080808	-1.030117	-0.000122
1519	1.5104e+02	-9.7602	-60.593370	-0.000770	-7.702357	-1.304815	-0.000154
1520	1.5114e+02	-9.7407	-60.706410	-0.000568	-5.675421	-0.961442	-0.000114
1521	1.5124e+02	-9.7197	-60.775041	-0.000345	-3.445791	-0.583733	-0.000069
1522	1.5134e+02	-9.6997	-60.835598	-0.000304	-3.040404	-0.515058	-0.000061
1523	1.5144e+02	-9.6806	-60.997084	-0.000811	-8.107744	-1.373489	-0.000162
1524	1.5154e+02	-9.6602	-61.033418	-0.000182	-1.824242	-0.309035	-0.000037
1525	1.5164e+02	-9.6407	-61.093975	-0.000304	-3.040404	-0.515058	-0.000061
1526	1.5174e+02	-9.6210	-61.219126	-0.000628	-6.283501	-1.064454	-0.000126
1527	1.5184e+02	-9.6017	-61.283721	-0.000324	-3.243098	-0.549396	-0.000065
1528	1.5194e+02	-9.5815	-61.324092	-0.000203	-2.026936	-0.343372	-0.000041
1529	1.5204e+02	-9.5601	-61.445206	-0.000608	-6.080808	-1.030117	-0.000122
1530	1.5214e+02	-9.5417	-61.485577	-0.000203	-2.026936	-0.343372	-0.000041
1531	1.5224e+02	-9.5219	-61.509800	-0.000122	-1.216162	-0.206023	-0.000024
1532	1.5233e+02	-9.5007	-61.558246	-0.000243	-2.432323	-0.412047	-0.000049
1533	1.5243e+02	-9.4819	-61.586506	-0.000142	-1.418855	-0.240361	-0.000028
1534	1.5253e+02	-9.4615	-61.675323	-0.000446	-4.459259	-0.755419	-0.000089
1535	1.5263e+02	-9.4428	-61.711657	-0.000182	-1.824242	-0.309035	-0.000037
1536	1.5273e+02	-9.4264	-61.808548	-0.000486	-4.864646	-0.824093	-0.000097
1537	1.5283e+02	-9.4014	-61.796437	0.000061	0.608081	0.103012	0.000012
1538	1.5293e+02	-9.3820	-61.848920	-0.000264	-2.635017	-0.446384	-0.000053
1539	1.5303e+02	-9.3614	-61.848920	0.000000	0.000000	0.000000	0.000000
1540	1.5313e+02	-9.3423	-61.865068	-0.000081	-0.810774	-0.137349	-0.000016
1541	1.5323e+02	-9.3222	-61.941774	-0.000385	-3.851178	-0.652407	-0.000077
1542	1.5333e+02	-9.3012	-61.986182	-0.000223	-2.229630	-0.377709	-0.000045
1543	1.5343e+02	-9.2830	-61.978108	0.000041	0.405387	0.068674	0.000008
1544	1.5353e+02	-9.2622	-61.982145	-0.000020	-0.202694	-0.034337	-0.000004
1545	1.5363e+02	-9.2426	-62.030591	-0.000243	-2.432323	-0.412047	-0.000049
1546	1.5373e+02	-9.2216	-62.050776	-0.000101	-1.013468	-0.171686	-0.000020
1547	1.5383e+02	-9.2031	-62.050776	0.000000	0.000000	0.000000	0.000000
1548	1.5393e+02	-9.1829	-62.070962	-0.000101	-1.013468	-0.171686	-0.000020
1549	1.5403e+02	-9.1625	-62.087111	-0.000081	-0.810774	-0.137349	-0.000016
1550	1.5413e+02	-9.1435	-62.062888	0.000122	1.216162	0.206023	0.000024
1551	1.5422e+02	-9.1217	-62.091148	-0.000142	-1.418855	-0.240361	-0.000028
1552	1.5432e+02	-9.1029	-62.119408	-0.000142	-1.418855	-0.240361	-0.000028
1553	1.5442e+02	-9.0829	-62.091148	0.000142	1.418855	0.240361	0.000028
1554	1.5452e+02	-9.0627	-62.135556	-0.000223	-2.229630	-0.377709	-0.000045
1555	1.5462e+02	-9.0430	-62.119408	0.000081	0.810774	0.137349	0.000016
1556	1.5472e+02	-9.0233	-62.123445	-0.000020	-0.202694	-0.034337	-0.000004
1557	1.5482e+02	-9.0030	-62.099222	0.000122	1.216162	0.206023	0.000024
1558	1.5492e+02	-8.9839	-62.111333	-0.000061	-0.608081	-0.103012	-0.000012
1559	1.5502e+02	-8.9638	-62.147668	-0.000182	-1.824242	-0.309035	-0.000037
1560	1.5512e+02	-8.9427	-62.127482	0.000101	1.013468	0.171686	0.000020
1561	1.5522e+02	-8.9229	-62.079036	0.000243	2.432323	0.412047	0.000049
1562	1.5532e+02	-8.9039	-62.123445	-0.000223	-2.229630	-0.377709	-0.000045
1563	1.5542e+02	-8.8837	-62.070962	0.000264	2.635017	0.446384	0.000053
1564	1.5552e+02	-8.8637	-62.058851	0.000061	0.608081	0.103012	0.000012
1565	1.5562e+02	-8.8441	-62.058851	0.000000	0.000000	0.000000	0.000000
1566	1.5572e+02	-8.8245	-62.062888	-0.000020	-0.202694	-0.034337	-0.000004
1567	1.5582e+02	-8.8041	-62.034628	0.000142	1.418855	0.240361	0.000028
1568	1.5592e+02	-8.7842	-61.965996	0.000345	3.445791	0.583733	0.000069
1569	1.5602e+02	-8.7648	-61.986182	-0.000101	-1.013468	-0.171686	-0.000020
1570	1.5612e+02	-8.7446	-61.953885	0.000162	1.621549	0.274698	0.000032
1571	1.5622e+02	-8.7251	-61.961959	-0.000041	-0.405387	-0.068674	-0.000008
1572	1.5631e+02	-8.7045	-61.957922	0.000020	0.202694	0.034337	0.000004
1573	1.5641e+02	-8.6842	-61.961959	-0.000020	-0.202694	-0.034337	-0.000004
1574	1.5651e+02	-8.6642	-61.889291	0.000365	3.648485	0.618070	0.000073
1575	1.5661e+02	-8.6456	-61.885254	0.000020	0.202694	0.034337	0.000004
1576	1.5671e+02	-8.6250	-61.812585	0.000365	3.648485	0.618070	0.000073
1577	1.5681e+02	-8.6052	-61.865068	-0.000264	-2.635017	-0.446384	-0.000053
1578	1.5691e+02	-8.5860	-61.836808	0.000142	1.418855	0.240361	0.000028
1579	1.5701e+02	-8.5649	-61.747991	0.000446	4.459259	0.755419	0.000089
1580	1.5711e+02	-8.5455	-61.735880	0.000061	0.608081	0.103012	0.000012
1581	1.5721e+02	-8.5252	-61.727805	0.000041	0.405387	0.068674	0.000008
1582	1.5731e+02	-8.5065	-61.659174	0.000345	3.445791	0.583733	0.000069
1583	1.5741e+02	-8.4853	-61.671286	-0.000061	-0.608081	-0.103012	-0.000012
1584	1.5751e+02	-8.4653	-61.618803	0.000264	2.635017	0.446384	0.000053
1585	1.5761e+02	-8.4453	-61.614766	0.000020	0.202694	0.034337	0.000004
1586	1.5771e+02	-8.4259	-61.586506	0.000142	1.418855	0.240361	0.000028
1587	1.5781e+02	-8.4056	-61.485577	0.000507	5.067340	0.858431	0.000101
1588	1.5791e+02	-8.3858	-61.529986	-0.000223	-2.229630	-0.377709	-0.000045
1589	1.5801e+02	-8.3658	-61.473466	0.000284	2.837710	0.480721	0.000057
1590	1.5811e+02	-8.3465	-61.420983	0.000264	2.635017	0.446384	0.000053
1591	1.5821e+02	-8.3260	-61.376575	0.000223	2.229630	0.377709	0.000045
1592	1.5830e+02	-8.3059	-61.384649	-0.000041	-0.405387	-0.068674	-0.000008
1593	1.5840e+02	-8.2870	-61.320055	0.000324	3.243098	0.549396	0.000065
1594	1.5850e+02	-8.2661	-61.255461	0.000324	3.243098	0.549396	0.000065
1595	1.5860e+02	-8.2465	-61.255461	0.000000	0.000000	0.000000	0.000000
1596	1.5870e+02	-8.2260	-61.202978	0.000264	2.635017	0.446384	0.000053
1597	1.5880e+02	-8.2071	-61.122235	0.000405	4.053872	0.686744	0.000081
1598	1.5890e+02	-8.1871	-61.146458	-0.000122	-1.216162	-0.206023	-0.000024
1599	1.5900e+02	-8.1660	-61.069752	0.000385	3.851178	0.652407	0.000077
1600	1.5910e+02	-8.1467	-60.993047	0.000385	3.851178	0.652407	0.000077
1601	1.5920e+02	-8.1274	-60.964787	0.000142	1.418855	0.240361	0.000028
1602	1.5930e+02	-8.1075	-60.989010	-0.000122	-1.216162	-0.206023	-0.000024
1603	1.5940e+02	-8.0864	-60.900193	0.000446	4.459259	0.755419	0.000089
1604	1.5950e+02	-8.0676	-60.851747	0.000243	2.432323	0.412047	0.000049
1605	1.5960e+02	-8.0475	-60.831561	0.000101	1.013468	0.171686	0.000020
1606	1.5970e+02	-8.0270	-60.771004	0.000304	3.040404	0.515058	0.000061
1607	1.5980e+02	-8.0078	-60.694299	0.000385	3.851178	0.652407	0.000077
1608	1.5990e+02	-7.9866	-60.678150	0.000081	0.810774	0.137349	0.000016
1609	1.6000e+02	-7.9680	-60.613556	0.000324	3.243098	0.549396	0.000065
1610	1.6010e+02	-7.9475	-60.589333	0.000122	1.216162	0.206023	0.000024
1611	1.6019e+02	-7.9288	-60.492442	0.000486	4.864646	0.824093	0.000097
1612	1.6029e+02	-7.9080	-60.468219	0.000122	1.216162	0.206023	0.000024
1613	1.6039e+02	-7.8876	-60.448033	0.000101	1.013468	0.171686	0.000020
1614	1.6049e+02	-7.8681	-60.395551	0.000264	2.635017	0.446384	0.000053
1615	1.6059e+02	-7.8475	-60.355179	0.000203	2.026936	0.343372	0.000041
1616	1.6069e+02	-7.8287	-60.278474	0.000385	3.851178	0.652407	0.000077
1617	1.6079e+02	-7.8093	-60.254251	0.000122	1.216162	0.206023	0.000024
1618	1.6089e+02	-7.7888	-60.141211	0.000568	5.675421	0.961442	0.000114
1619	1.6099e+02	-7.7685	-60.125063	0.000081	0.810774	0.137349	0.000016
1620	1.6109e+02	-7.7486	-60.076617	0.000243	2.432323	0.412047	0.000049
1621	1.6119e+02	-7.7290	-60.040283	0.000182	1.824242	0.309035	0.000037
1622	1.6129e+02	-7.7087	-59.959540	0.000405	4.053872	0.686744	0.000081
1623	1.6139e+02	-7.6886	-59.882834	0.000385	3.851178	0.652407	0.000077
1624	1.6149e+02	-7.6691	-59.850537	0.000162	1.621549	0.274698	0.000032
1625	1.6159e+02	-7.6483	-59.830352	0.000101	1.013468	0.171686	0.000020
1626	1.6169e+02	-7.6299	-59.753646	0.000385	3.851178	0.652407	0.000077
1627	1.6179e+02	-7.6086	-59.717312	0.000182	1.824242	0.309035	0.000037
1628	1.6189e+02	-7.5891	-59.600235	0.000588	5.878114	0.995780	0.000118
1629	1.6199e+02	-7.5688	-59.563901	0.000182	1.824242	0.309035	0.000037
1630	1.6209e+02	-7.5504	-59.499307	0.000324	3.243098	0.549396	0.000065
1631	1.6219e+02	-7.5327	-59.487195	0.000061	0.608081	0.103012	0.000012
1632	1.6228e+02	-7.5104	-59.430675	0.000284	2.837710	0.480721	0.000057
1633	1.6238e+02	-7.4902	-59.378192	0.000264	2.635017	0.446384	0.000053
1634	1.6248e+02	-7.4694	-59.317635	0.000304	3.040404	0.515058	0.000061
1635	1.6258e+02	-7.4512	-59.180373	0.000689	6.891582	1.167466	0.000138
1636	1.6268e+02	-7.4310	-59.172299	0.000041	0.405387	0.068674	0.000008
1637	1.6278e+02	-7.4106	-59.127890	0.000223	2.229630	0.377709	0.000045
1638	1.6288e+02	-7.3914	-59.051184	0.000385	3.851178	0.652407	0.000077
1639	1.6298e+02	-7.3711	-59.006776	0.000223	2.229630	0.377709	0.000045
1640	1.6308e+02	-7.3502	-58.901810	0.000527	5.270034	0.892768	0.000105
1641	1.6318e+02	-7.3306	-58.861439	0.000203	2.026936	0.343372	0.000041
1642	1.6328e+02	-7.3103	-58.804919	0.000284	2.837710	0.480721	0.000057
1643	1.6338e+02	-7.2914	-58.784733	0.000101	1.013468	0.171686	0.000020
1644	1.6348e+02	-7.2714	-58.703991	0.000405	4.053872	0.686744	0.000081
1645	1.6358e+02	-7.2516	-58.590951	0.000568	5.675421	0.961442	0.000114
1646	1.6368e+02	-7.2311	-58.542505	0.000243	2.432323	0.412047	0.000049
1647	1.6378e+02	-7.2110	-58.453688	0.000446	4.459259	0.755419	0.000089
1648	1.6388e+02	-7.1910	-58.368909	0.000426	4.256566	0.721082	0.000085
1649	1.6398e+02	-7.1706	-58.352760	0.000081	0.810774	0.137349	0.000016
1650	1.6408e+02	-7.1505	-58.255869	0.000486	4.864646	0.824093	0.000097
1651	1.6418e+02	-7.1311	-58.183200	0.000365	3.648485	0.618070	0.000073
1652	1.6427e+02	-7.1124	-58.179163	0.000020	0.202694	0.034337	0.000004
1653	1.6437e+02	-7.0911	-58.106495	0.000365	3.648485	0.618070	0.000073
1654	1.6447e+02	-7.0723	-58.045938	0.000304	3.040404	0.515058	0.000061
1655	1.6457e+02	-7.0515	-57.957121	0.000446	4.459259	0.755419	0.000089
1656	1.6467e+02	-7.0315	-57.888489	0.000345	3.445791	0.583733	0.000069
1657	1.6477e+02	-7.0117	-57.799672	0.000446	4.459259	0.755419	0.000089
1658	1.6487e+02	-6.9915	-57.759301	0.000203	2.026936	0.343372	0.000041
1659	1.6497e+02	-6.9717	-57.714893	0.000223	2.229630	0.377709	0.000045
1660	1.6507e+02	-6.9521	-57.658373	0.000284	2.837710	0.480721	0.000057
1661	1.6517e+02	-6.9316	-57.545333	0.000568	5.675421	0.961442	0.000114
1662	1.6527e+02	-6.9131	-57.432293	0.000568	5.675421	0.961442	0.000114
1663	1.6537e+02	-6.8925	-57.371736	0.000304	3.040404	0.515058	0.000061
1664	1.6547e+02	-6.8722	-57.379810	-0.000041	-0.405387	-0.068674	-0.000008
1665	1.6557e+02	-6.8518	-57.262733	0.000588	5.878114	0.995780	0.000118
1666	1.6567e+02	-6.8332	-57.186028	0.000385	3.851178	0.652407	0.000077
1667	1.6577e+02	-6.8130	-57.085099	0.000507	5.067340	0.858431	0.000101
1668	1.6587e+02	-6.7921	-57.077025	0.000041	0.405387	0.068674	0.000008
1669	1.6597e+02	-6.7723	-56.992245	0.000426	4.256566	0.721082	0.000085
1670	1.6607e+02	-6.7529	-56.935725	0.000284	2.837710	0.480721	0.000057
1671	1.6616e+02	-6.7325	-56.814611	0.000608	6.080808	1.030117	0.000122
1672	1.6626e+02	-6.7136	-56.745980	0.000345	3.445791	0.583733	0.000069
1673	1.6636e+02	-6.6928	-56.669274	0.000385	3.851178	0.652407	0.000077
1674	1.6646e+02	-6.6736	-56.600643	0.000345	3.445791	0.583733	0.000069
1675	1.6656e+02	-6.6522	-56.556235	0.000223	2.229630	0.377709	0.000045
1676	1.6666e+02	-6.6336	-56.435120	0.000608	6.080808	1.030117	0.000122
1677	1.6676e+02	-6.6130	-56.382638	0.000264	2.635017	0.446384	0.000053
1678	1.6686e+02	-6.5938	-56.322081	0.000304	3.040404	0.515058	0.000061
1679	1.6696e+02	-6.5729	-56.245375	0.000385	3.851178	0.652407	0.000077
1680	1.6706e+02	-6.5540	-56.192892	0.000264	2.635017	0.446384	0.000053
1681	1.6716e+02	-6.5337	-56.091964	0.000507	5.067340	0.858431	0.000101
1682	1.6726e+02	-6.5140	-55.999110	0.000466	4.661953	0.789756	0.000093
1683	1.6736e+02	-6.4934	-55.946627	0.000264	2.635017	0.446384	0.000053
1684	1.6746e+02	-6.4745	-55.853773	0.000466	4.661953	0.789756	0.000093
1685	1.6756e+02	-6.4531	-55.785142	0.000345	3.445791	0.583733	0.000069
1686	1.6766e+02	-6.4342	-55.716510	0.000345	3.445791	0.583733	0.000069
1687	1.6776e+02	-6.4141	-55.631730	0.000426	4.256566	0.721082	0.000085
1688	1.6786e+02	-6.3940	-55.550988	0.000405	4.053872	0.686744	0.000081
1689	1.6796e+02	-6.3742	-55.486394	0.000324	3.243098	0.549396	0.000065
1690	1.6806e+02	-6.3542	-55.413725	0.000365	3.648485	0.618070	0.000073
1691	1.6816e+02	-6.3351	-55.349131	0.000324	3.243098	0.549396	0.000065
1692	1.6825e+02	-6.3147	-55.264351	0.000426	4.256566	0.721082	0.000085
1693	1.6835e+02	-6.2949	-55.175534	0.000446	4.459259	0.755419	0.000089
1694	1.6845e+02	-6.2741	-55.114977	0.000304	3.040404	0.515058	0.000061
1695	1.6855e+02	-6.2546	-55.018086	0.000486	4.864646	0.824093	0.000097
1696	1.6865e+02	-6.2344	-54.953492	0.000324	3.243098	0.549396	0.000065
1697	1.6875e+02	-6.2149	-54.828340	0.000628	6.283501	1.064454	0.000126
1698	1.6885e+02	-6.1945	-54.800081	0.000142	1.418855	0.240361	0.000028
1699	1.6895e+02	-6.1758	-54.727412	0.000365	3.648485	0.618070	0.000073
1700	1.6905e+02	-6.1554	-54.638595	0.000446	4.459259	0.755419	0.000089
1701	1.6915e+02	-6.1353	-54.553815	0.000426	4.256566	0.721082	0.000085
1702	1.6925e+02	-6.1154	-54.493258	0.000304	3.040404	0.515058	0.000061
1703	1.6935e+02	-6.0958	-54.380218	0.000568	5.675421	0.961442	0.000114
1704	1.6945e+02	-6.0759	-54.299476	0.000405	4.053872	0.686744	0.000081
1705	1.6955e+02	-6.0561	-54.226807	0.000365	3.648485	0.618070	0.000073
1706	1.6965e+02	-6.0365	-54.146065	0.000405	4.053872	0.686744	0.000081
1707	1.6975e+02	-6.0155	-54.085507	0.000304	3.040404	0.515058	0.000061
1708	1.6985e+02	-5.9966	-54.008802	0.000385	3.851178	0.652407	0.000077
1709	1.6995e+02	-5.9756	-53.940171	0.000345	3.445791	0.583733	0.000069
1710	1.7005e+02	-5.9550	-53.839242	0.000507	5.067340	0.858431	0.000101
1711	1.7015e+02	-5.9357	-53.774648	0.000324	3.243098	0.549396	0.000065
1712	1.7024e+02	-5.9158	-53.701980	0.000365	3.648485	0.618070	0.000073
1713	1.7034e+02	-5.8951	-53.609125	0.000466	4.661953	0.789756	0.000093
1714	1.7044e+02	-5.8755	-53.540494	0.000345	3.445791	0.583733	0.000069
1715	1.7054e+02	-5.8559	-53.471863	0.000345	3.445791	0.583733	0.000069
1716	1.7064e+02	-5.8364	-53.391120	0.000405	4.053872	0.686744	0.000081
1717	1.7074e+02	-5.8160	-53.298266	0.000466	4.661953	0.789756	0.000093
1718	1.7084e+02	-5.7962	-53.221560	0.000385	3.851178	0.652407	0.000077
1719	1.7094e+02	-5.7770	-53.128706	0.000466	4.661953	0.789756	0.000093
1720	1.7104e+02	-5.7565	-53.068149	0.000304	3.040404	0.515058	0.000061
1721	1.7114e+02	-5.7369	-53.003555	0.000324	3.243098	0.549396	0.000065
1722	1.7124e+02	-5.7166	-52.886478	0.000588	5.878114	0.995780	0.000118
1723	1.7134e+02	-5.6960	-52.862255	0.000122	1.216162	0.206023	0.000024
1724	1.7144e+02	-5.6767	-52.741141	0.000608	6.080808	1.030117	0.000122
1725	1.7154e+02	-5.6569	-52.640213	0.000507	5.067340	0.858431	0.000101
1726	1.7164e+02	-5.6371	-52.559470	0.000405	4.053872	0.686744	0.000081
1727	1.7174e+02	-5.6184	-52.511025	0.000243	2.432323	0.412047	0.000049
1728	1.7184e+02	-5.5972	-52.422208	0.000446	4.459259	0.755419	0.000089
1729	1.7194e+02	-5.5785	-52.361651	0.000304	3.040404	0.515058	0.000061
1730	1.7204e+02	-5.5602	-52.293019	0.000345	3.445791	0.583733	0.000069
1731	1.7213e+02	-5.5371	-52.212276	0.000405	4.053872	0.686744	0.000081
1732	1.7223e+02	-5.5170	-52.099237	0.000568	5.675421	0.961442	0.000114
1733	1.7233e+02	-5.4971	-52.079051	0.000101	1.013468	0.171686	0.000020
1734	1.7243e+02	-5.4778	-51.961974	0.000588	5.878114	0.995780	0.000118
1735	1.7253e+02	-5.4572	-51.881231	0.000405	4.053872	0.686744	0.000081
1736	1.7263e+02	-5.4376	-51.788377	0.000466	4.661953	0.789756	0.000093
1737	1.7273e+02	-5.4171	-51.683412	0.000527	5.270034	0.892768	0.000105
1738	1.7283e+02	-5.3976	-51.639003	0.000223	2.229630	0.377709	0.000045
1739	1.7293e+02	-5.3781	-51.525963	0.000568	5.675421	0.961442	0.000114
1740	1.7303e+02	-5.3584	-51.525963	0.000000	0.000000	0.000000	0.000000
1741	1.7313e+02	-5.3384	-51.404849	0.000608	6.080808	1.030117	0.000122
1742	1.7323e+02	-5.3189	-51.311995	0.000466	4.661953	0.789756	0.000093
1743	1.7333e+02	-5.2979	-51.211067	0.000507	5.067340	0.858431	0.000101
1744	1.7343e+02	-5.2785	-51.150510	0.000304	3.040404	0.515058	0.000061
1745	1.7353e+02	-5.2593	-51.098027	0.000264	2.635017	0.446384	0.000053
1746	1.7363e+02	-5.2385	-50.952690	0.000730	7.296969	1.236140	0.000146
1747	1.7373e+02	-5.2185	-50.871947	0.000405	4.053872	0.686744	0.000081
1748	1.7383e+02	-5.1989	-50.815428	0.000284	2.837710	0.480721	0.000057
1749	1.7393e+02	-5.1785	-50.706425	0.000547	5.472727	0.927105	0.000110
1750	1.7403e+02	-5.1585	-50.645868	0.000304	3.040404	0.515058	0.000061
1751	1.7413e+02	-5.1396	-50.569162	0.000385	3.851178	0.652407	0.000077
1752	1.7422e+02	-5.1190	-50.476308	0.000466	4.661953	0.789756	0.000093
1753	1.7432e+02	-5.1004	-50.395565	0.000405	4.053872	0.686744	0.000081
1754	1.7442e+02	-5.0787	-50.302711	0.000466	4.661953	0.789756	0.000093
1755	1.7452e+02	-5.0581	-50.254266	0.000243	2.432323	0.412047	0.000049
1756	1.7462e+02	-5.0388	-50.177560	0.000385	3.851178	0.652407	0.000077
1757	1.7472e+02	-5.0200	-50.068557	0.000547	5.472727	0.927105	0.000110
1758	1.7482e+02	-4.9997	-50.028186	0.000203	2.026936	0.343372	0.000041
1759	1.7492e+02	-4.9797	-49.907072	0.000608	6.080808	1.030117	0.000122
1760	1.7502e+02	-4.9589	-49.866701	0.000203	2.026936	0.343372	0.000041
1761	1.7512e+02	-4.9390	-49.810181	0.000284	2.837710	0.480721	0.000057
1762	1.7522e+02	-4.9200	-49.656770	0.000770	7.702357	1.304815	0.000154
1763	1.7532e+02	-4.9001	-49.571990	0.000426	4.256566	0.721082	0.000085
1764	1.7542e+02	-4.8804	-49.507396	0.000324	3.243098	0.549396	0.000065
1765	1.7552e+02	-4.8598	-49.450876	0.000284	2.837710	0.480721	0.000057
1766	1.7562e+02	-4.8404	-49.309576	0.000709	7.094276	1.201803	0.000142
1767	1.7572e+02	-4.8212	-49.265167	0.000223	2.229630	0.377709	0.000045
1768	1.7582e+02	-4.8012	-49.172313	0.000466	4.661953	0.789756	0.000093
1769	1.7592e+02	-4.7803	-49.091571	0.000405	4.053872	0.686744	0.000081
1770	1.7602e+02	-4.7604	-49.035051	0.000284	2.837710	0.480721	0.000057
1771	1.7612e+02	-4.7411	-48.966419	0.000345	3.445791	0.583733	0.000069
1772	1.7621e+02	-4.7218	-48.837231	0.000649	6.486195	1.098791	0.000130
1773	1.7631e+02	-4.7008	-48.720154	0.000588	5.878114	0.995780	0.000118
1774	1.7641e+02	-4.6807	-48.627300	0.000466	4.661953	0.789756	0.000093
1775	1.7651e+02	-4.6612	-48.586929	0.000203	2.026936	0.343372	0.000041
1776	1.7661e+02	-4.6404	-48.494074	0.000466	4.661953	0.789756	0.000093
1777	1.7671e+02	-4.6219	-48.401220	0.000466	4.661953	0.789756	0.000093
1778	1.7681e+02	-4.6013	-48.316441	0.000426	4.256566	0.721082	0.000085
1779	1.7691e+02	-4.5810	-48.276069	0.000203	2.026936	0.343372	0.000041
1780	1.7701e+02	-4.5611	-48.142844	0.000669	6.688889	1.133128	0.000134
1781	1.7711e+02	-4.5403	-48.070175	0.000365	3.648485	0.618070	0.000073
1782	1.7721e+02	-4.5206	-47.993470	0.000385	3.851178	0.652407	0.000077
1783	1.7731e+02	-4.5013	-47.856207	0.000689	6.891582	1.167466	0.000138
1784	1.7741e+02	-4.4822	-47.815836	0.000203	2.026936	0.343372	0.000041
1785	1.7751e+02	-4.4611	-47.710870	0.000527	5.270034	0.892768	0.000105
1786	1.7761e+02	-4.4409	-47.662425	0.000243	2.432323	0.412047	0.000049
1787	1.7771e+02	-4.4220	-47.509013	0.000770	7.702357	1.304815	0.000154
1788	1.7781e+02	-4.4024	-47.456531	0.000264	2.635017	0.446384	0.000053
1789	1.7791e+02	-4.3814	-47.343491	0.000568	5.675421	0.961442	0.000114
1790	1.7801e+02	-4.3621	-47.291008	0.000264	2.635017	0.446384	0.000053
1791	1.7810e+02	-4.3422	-47.190080	0.000507	5.067340	0.858431	0.000101
1792	1.7820e+02	-4.3216	-47.117411	0.000365	3.648485	0.618070	0.000073
1793	1.7830e+02	-4.3021	-47.024557	0.000466	4.661953	0.789756	0.000093
1794	1.7840e+02	-4.2829	-46.947851	0.000385	3.851178	0.652407	0.000077
1795	1.7850e+02	-4.2628	-46.818663	0.000649	6.486195	1.098791	0.000130
1796	1.7860e+02	-4.2426	-46.737920	0.000405	4.053872	0.686744	0.000081
1797	1.7870e+02	-4.2227	-46.657178	0.000405	4.053872	0.686744	0.000081
1798	1.7880e+02	-4.2024	-46.536064	0.000608	6.080808	1.030117	0.000122
1799	1.7890e+02	-4.1821	-46.459358	0.000385	3.851178	0.652407	0.000077
1800	1.7900e+02	-4.1626	-46.338244	0.000608	6.080808	1.030117	0.000122
1801	1.7910e+02	-4.1434	-46.241353	0.000486	4.864646	0.824093	0.000097
1802	1.7920e+02	-4.1234	-46.172721	0.000345	3.445791	0.583733	0.000069
1803	1.7930e+02	-4.1026	-46.108127	0.000324	3.243098	0.549396	0.000065
1804	1.7940e+02	-4.0833	-46.019310	0.000446	4.459259	0.755419	0.000089
1805	1.7950e+02	-4.0632	-45.942605	0.000385	3.851178	0.652407	0.000077
1806	1.7960e+02	-4.0430	-45.857825	0.000426	4.256566	0.721082	0.000085
1807	1.7970e+02	-4.0226	-45.744785	0.000568	5.675421	0.961442	0.000114
1808	1.7980e+02	-4.0036	-45.643857	0.000507	5.067340	0.858431	0.000101
1809	1.7990e+02	-3.9837	-45.563114	0.000405	4.053872	0.686744	0.000081
1810	1.8000e+02	-3.9630	-45.425851	0.000689	6.891582	1.167466	0.000138
1811	1.8009e+02	-3.9434	-45.353183	0.000365	3.648485	0.618070	0.000073
1812	1.8019e+02	-3.9237	-45.264366	0.000446	4.459259	0.755419	0.000089
1813	1.8029e+02	-3.9035	-45.135178	0.000649	6.486195	1.098791	0.000130
1814	1.8039e+02	-3.8828	-45.058472	0.000385	3.851178	0.652407	0.000077
1815	1.8049e+02	-3.8628	-44.989841	0.000345	3.445791	0.583733	0.000069
1816	1.8059e+02	-3.8435	-44.884875	0.000527	5.270034	0.892768	0.000105
1817	1.8069e+02	-3.8240	-44.771835	0.000568	5.675421	0.961442	0.000114
1818	1.8079e+02	-3.8043	-44.703204	0.000345	3.445791	0.583733	0.000069
1819	1.8089e+02	-3.7839	-44.578053	0.000628	6.283501	1.064454	0.000126
1820	1.8099e+02	-3.7646	-44.465013	0.000568	5.675421	0.961442	0.000114
1821	1.8109e+02	-3.7450	-44.368122	0.000486	4.864646	0.824093	0.000097
1822	1.8119e+02	-3.7242	-44.307565	0.000304	3.040404	0.515058	0.000061
1823	1.8129e+02	-3.7043	-44.182414	0.000628	6.283501	1.064454	0.000126
1824	1.8139e+02	-3.6847	-44.073411	0.000547	5.472727	0.927105	0.000110
1825	1.8149e+02	-3.6645	-44.008817	0.000324	3.243098	0.549396	0.000065
1826	1.8159e+02	-3.6448	-43.891740	0.000588	5.878114	0.995780	0.000118
1827	1.8169e+02	-3.6241	-43.823108	0.000345	3.445791	0.583733	0.000069
1828	1.8179e+02	-3.6050	-43.685846	0.000689	6.891582	1.167466	0.000138
1829	1.8189e+02	-3.5851	-43.584917	0.000507	5.067340	0.858431	0.000101
1830	1.8199e+02	-3.5656	-43.504175	0.000405	4.053872	0.686744	0.000081
1831	1.8209e+02	-3.5449	-43.399209	0.000527	5.270034	0.892768	0.000105
1832	1.8218e+02	-3.5265	-43.322504	0.000385	3.851178	0.652407	0.000077
1833	1.8228e+02	-3.5051	-43.189278	0.000669	6.688889	1.133128	0.000134
1834	1.8238e+02	-3.4856	-43.100461	0.000446	4.459259	0.755419	0.000089
1835	1.8248e+02	-3.4653	-43.003570	0.000486	4.864646	0.824093	0.000097
1836	1.8258e+02	-3.4457	-42.858233	0.000730	7.296969	1.236140	0.000146
1837	1.8268e+02	-3.4256	-42.805750	0.000264	2.635017	0.446384	0.000053
1838	1.8278e+02	-3.4058	-42.733082	0.000365	3.648485	0.618070	0.000073
1839	1.8288e+02	-3.3852	-42.603893	0.000649	6.486195	1.098791	0.000130
1840	1.8298e+02	-3.3667	-42.470668	0.000669	6.688889	1.133128	0.000134
1841	1.8308e+02	-3.3459	-42.361665	0.000547	5.472727	0.927105	0.000110
1842	1.8318e+02	-3.3256	-42.252663	0.000547	5.472727	0.927105	0.000110
1843	1.8328e+02	-3.3061	-42.188068	0.000324	3.243098	0.549396	0.000065
1844	1.8338e+02	-3.2864	-42.079066	0.000547	5.472727	0.927105	0.000110
1845	1.8348e+02	-3.2668	-41.961989	0.000588	5.878114	0.995780	0.000118
1846	1.8358e+02	-3.2466	-41.852986	0.000547	5.472727	0.927105	0.000110
1847	1.8368e+02	-3.2263	-41.739946	0.000568	5.675421	0.961442	0.000114
1848	1.8378e+02	-3.2065	-41.675352	0.000324	3.243098	0.549396	0.000065
1849	1.8388e+02	-3.1869	-41.517904	0.000791	7.905050	1.339152	0.000158
1850	1.8398e+02	-3.1655	-41.453310	0.000324	3.243098	0.549396	0.000065
1851	1.8407e+02	-3.1467	-41.328159	0.000628	6.283501	1.064454	0.000126
1852	1.8417e+02	-3.1267	-41.203007	0.000628	6.283501	1.064454	0.000126
1853	1.8427e+02	-3.1068	-41.150525	0.000264	2.635017	0.446384	0.000053
1854	1.8437e+02	-3.0872	-41.041522	0.000547	5.472727	0.927105	0.000110
1855	1.8447e+02	-3.0678	-40.928482	0.000568	5.675421	0.961442	0.000114
1856	1.8457e+02	-3.0476	-40.799294	0.000649	6.486195	1.098791	0.000130
1857	1.8467e+02	-3.0269	-40.726625	0.000365	3.648485	0.618070	0.000073
1858	1.8477e+02	-3.0078	-40.593400	0.000669	6.688889	1.133128	0.000134
1859	1.8487e+02	-2.9880	-40.508620	0.000426	4.256566	0.721082	0.000085
1860	1.8497e+02	-2.9678	-40.407692	0.000507	5.067340	0.858431	0.000101
1861	1.8507e+02	-2.9471	-40.306763	0.000507	5.067340	0.858431	0.000101
1862	1.8517e+02	-2.9272	-40.193723	0.000568	5.675421	0.961442	0.000114
1863	1.8527e+02	-2.9070	-40.096832	0.000486	4.864646	0.824093	0.000097
1864	1.8537e+02	-2.8883	-39.971681	0.000628	6.283501	1.064454	0.000126
1865	1.8547e+02	-2.8674	-39.886901	0.000426	4.256566	0.721082	0.000085
1866	1.8557e+02	-2.8473	-39.777898	0.000547	5.472727	0.927105	0.000110
1867	1.8567e+02	-2.8275	-39.676970	0.000507	5.067340	0.858431	0.000101
1868	1.8577e+02	-2.8076	-39.567967	0.000547	5.472727	0.927105	0.000110
1869	1.8587e+02	-2.7883	-39.434742	0.000669	6.688889	1.133128	0.000134
1870	1.8597e+02	-2.7693	-39.305554	0.000649	6.486195	1.098791	0.000130
1871	1.8606e+02	-2.7478	-39.240959	0.000324	3.243098	0.549396	0.000065
1872	1.8616e+02	-2.7287	-39.148105	0.000466	4.661953	0.789756	0.000093
1873	1.8626e+02	-2.7090	-39.002768	0.000730	7.296969	1.236140	0.000146
1874	1.8636e+02	-2.6883	-38.905877	0.000486	4.864646	0.824093	0.000097
1875	1.8646e+02	-2.6681	-38.817060	0.000446	4.459259	0.755419	0.000089
1876	1.8656e+02	-2.6487	-38.679798	0.000689	6.891582	1.167466	0.000138
1877	1.8666e+02	-2.6279	-38.586943	0.000466	4.661953	0.789756	0.000093
1878	1.8676e+02	-2.6085	-38.514275	0.000365	3.648485	0.618070	0.000073
1879	1.8686e+02	-2.5883	-38.356827	0.000791	7.905050	1.339152	0.000158
1880	1.8696e+02	-2.5690	-38.223601	0.000669	6.688889	1.133128	0.000134
1881	1.8706e+02	-2.5486	-38.183230	0.000203	2.026936	0.343372	0.000041
1882	1.8716e+02	-2.5286	-38.041930	0.000709	7.094276	1.201803	0.000142
1883	1.8726e+02	-2.5094	-37.932927	0.000547	5.472727	0.927105	0.000110
1884	1.8736e+02	-2.4898	-37.876407	0.000284	2.837710	0.480721	0.000057
1885	1.8746e+02	-2.4697	-37.731071	0.000730	7.296969	1.236140	0.000146
1886	1.8756e+02	-2.4502	-37.622068	0.000547	5.472727	0.927105	0.000110
1887	1.8766e+02	-2.4305	-37.488842	0.000669	6.688889	1.133128	0.000134
1888	1.8776e+02	-2.4100	-37.408100	0.000405	4.053872	0.686744	0.000081
1889	1.8786e+02	-2.3892	-37.339468	0.000345	3.445791	0.583733	0.000069
1890	1.8796e+02	-2.3707	-37.194132	0.000730	7.296969	1.236140	0.000146
1891	1.8806e+02	-2.3499	-37.077055	0.000588	5.878114	0.995780	0.000118
1892	1.8815e+02	-2.3305	-37.016498	0.000304	3.040404	0.515058	0.000061
1893	1.8825e+02	-2.3107	-36.846938	0.000851	8.513131	1.442163	0.000170
1894	1.8835e+02	-2.2906	-36.818678	0.000142	1.418855	0.240361	0.000028
1895	1.8845e+02	-2.2710	-36.669304	0.000750	7.499663	1.270477	0.000150
1896	1.8855e+02	-2.2511	-36.584524	0.000426	4.256566	0.721082	0.000085
1897	1.8865e+02	-2.2305	-36.471484	0.000568	5.675421	0.961442	0.000114
1898	1.8875e+02	-2.2112	-36.386704	0.000426	4.256566	0.721082	0.000085
1899	1.8885e+02	-2.1906	-36.213108	0.000872	8.715825	1.476501	0.000174
1900	1.8895e+02	-2.1707	-36.120253	0.000466	4.661953	0.789756	0.000093
1901	1.8905e+02	-2.1514	-36.015288	0.000527	5.270034	0.892768	0.000105
1902	1.8915e+02	-2.1304	-35.922434	0.000466	4.661953	0.789756	0.000093
1903	1.8925e+02	-2.1117	-35.789208	0.000669	6.688889	1.133128	0.000134
1904	1.8935e+02	-2.0953	-35.704428	0.000426	4.256566	0.721082	0.000085
1905	1.8945e+02	-2.0702	-35.575240	0.000649	6.486195	1.098791	0.000130
1906	1.8955e+02	-2.0514	-35.470275	0.000527	5.270034	0.892768	0.000105
1907	1.8965e+02	-2.0314	-35.389532	0.000405	4.053872	0.686744	0.000081
1908	1.8975e+02	-2.0114	-35.187675	0.001013	10.134680	1.716861	0.000203
1909	1.8985e+02	-1.9913	-35.131155	0.000284	2.837710	0.480721	0.000057
1910	1.8995e+02	-1.9710	-35.042338	0.000446	4.459259	0.755419	0.000089
1911	1.9004e+02	-1.9516	-34.945447	0.000486	4.864646	0.824093	0.000097
1912	1.9014e+02	-1.9321	-34.816259	0.000649	6.486195	1.098791	0.000130
1913	1.9024e+02	-1.9114	-34.731479	0.000426	4.256566	0.721082	0.000085
1914	1.9034e+02	-1.8920	-34.602290	0.000649	6.486195	1.098791	0.000130
1915	1.9044e+02	-1.8719	-34.477139	0.000628	6.283501	1.064454	0.000126
1916	1.9054e+02	-1.8514	-34.404471	0.000365	3.648485	0.618070	0.000073
1917	1.9064e+02	-1.8320	-34.307580	0.000486	4.864646	0.824093	0.000097
1918	1.9074e+02	-1.8125	-34.186465	0.000608	6.080808	1.030117	0.000122
1919	1.9084e+02	-1.7926	-34.020943	0.000831	8.310437	1.407826	0.000166
1920	1.9094e+02	-1.7723	-33.952312	0.000345	3.445791	0.583733	0.000069
1921	1.9104e+02	-1.7519	-33.843309	0.000547	5.472727	0.927105	0.000110
1922	1.9114e+02	-1.7331	-33.738343	0.000527	5.270034	0.892768	0.000105
1923	1.9124e+02	-1.7123	-33.617229	0.000608	6.080808	1.030117	0.000122
1924	1.9134e+02	-1.6929	-33.524375	0.000466	4.661953	0.789756	0.000093
1925	1.9144e+02	-1.6730	-33.419410	0.000527	5.270034	0.892768	0.000105
1926	1.9154e+02	-1.6531	-33.286184	0.000669	6.688889	1.133128	0.000134
1927	1.9164e+02	-1.6324	-33.189293	0.000486	4.864646	0.824093	0.000097
1928	1.9174e+02	-1.6126	-33.096439	0.000466	4.661953	0.789756	0.000093
1929	1.9184e+02	-1.5921	-32.991473	0.000527	5.270034	0.892768	0.000105
1930	1.9194e+02	-1.5730	-32.838062	0.000770	7.702357	1.304815	0.000154
1931	1.9203e+02	-1.5535	-32.757319	0.000405	4.053872	0.686744	0.000081
1932	1.9213e+02	-1.5334	-32.656391	0.000507	5.067340	0.858431	0.000101
1933	1.9223e+02	-1.5130	-32.551425	0.000527	5.270034	0.892768	0.000105
1934	1.9233e+02	-1.4922	-32.422237	0.000649	6.486195	1.098791	0.000130
1935	1.9243e+02	-1.4729	-32.337457	0.000426	4.256566	0.721082	0.000085
1936	1.9253e+02	-1.4530	-32.244603	0.000466	4.661953	0.789756	0.000093
1937	1.9263e+02	-1.4326	-32.083118	0.000811	8.107744	1.373489	0.000162
1938	1.9273e+02	-1.4134	-31.945855	0.000689	6.891582	1.167466	0.000138
1939	1.9283e+02	-1.3932	-31.893372	0.000264	2.635017	0.446384	0.000053
1940	1.9293e+02	-1.3739	-31.760147	0.000669	6.688889	1.133128	0.000134
1941	1.9303e+02	-1.3543	-31.634996	0.000628	6.283501	1.064454	0.000126
1942	1.9313e+02	-1.3339	-31.530030	0.000527	5.270034	0.892768	0.000105
1943	1.9323e+02	-1.3140	-31.404879	0.000628	6.283501	1.064454	0.000126
1944	1.9333e+02	-1.2936	-31.312025	0.000466	4.661953	0.789756	0.000093
1945	1.9343e+02	-1.2740	-31.182836	0.000649	6.486195	1.098791	0.000130
1946	1.9353e+02	-1.2550	-31.094019	0.000446	4.459259	0.755419	0.000089
1947	1.9363e+02	-1.2340	-30.968868	0.000628	6.283501	1.064454	0.000126
1948	1.9373e+02	-1.2154	-30.863903	0.000527	5.270034	0.892768	0.000105
1949	1.9383e+02	-1.1948	-30.767011	0.000486	4.864646	0.824093	0.000097
1950	1.9393e+02	-1.1751	-30.678194	0.000446	4.459259	0.755419	0.000089
1951	1.9403e+02	-1.1544	-30.516709	0.000811	8.107744	1.373489	0.000162
1952	1.9412e+02	-1.1350	-30.435966	0.000405	4.053872	0.686744	0.000081
1953	1.9422e+02	-1.1154	-30.314852	0.000608	6.080808	1.030117	0.000122
1954	1.9432e+02	-1.0953	-30.185664	0.000649	6.486195	1.098791	0.000130
1955	1.9442e+02	-1.0754	-30.080698	0.000527	5.270034	0.892768	0.000105
1956	1.9452e+02	-1.0545	-29.935361	0.000730	7.296969	1.236140	0.000146
1957	1.9462e+02	-1.0348	-29.806173	0.000649	6.486195	1.098791	0.000130
1958	1.9472e+02	-1.0164	-29.701208	0.000527	5.270034	0.892768	0.000105
1959	1.9482e+02	-0.9968	-29.632576	0.000345	3.445791	0.583733	0.000069
1960	1.9492e+02	-0.9763	-29.515499	0.000588	5.878114	0.995780	0.000118
1961	1.9502e+02	-0.9555	-29.378237	0.000689	6.891582	1.167466	0.000138
1962	1.9512e+02	-0.9361	-29.297494	0.000405	4.053872	0.686744	0.000081
1963	1.9522e+02	-0.9155	-29.144083	0.000770	7.702357	1.304815	0.000154
1964	1.9532e+02	-0.8955	-29.055266	0.000446	4.459259	0.755419	0.000089
1965	1.9542e+02	-0.8759	-28.942226	0.000568	5.675421	0.961442	0.000114
1966	1.9552e+02	-0.8569	-28.796889	0.000730	7.296969	1.236140	0.000146
1967	1.9562e+02	-0.8370	-28.687887	0.000547	5.472727	0.927105	0.000110
1968	1.9572e+02	-0.8160	-28.562735	0.000628	6.283501	1.064454	0.000126
1969	1.9582e+02	-0.7957	-28.469881	0.000466	4.661953	0.789756	0.000093
1970	1.9592e+02	-0.7762	-28.312433	0.000791	7.905050	1.339152	0.000158
1971	1.9601e+02	-0.7565	-28.219579	0.000466	4.661953	0.789756	0.000093
1972	1.9611e+02	-0.7355	-28.094428	0.000628	6.283501	1.064454	0.000126
1973	1.9621e+02	-0.7168	-28.001573	0.000466	4.661953	0.789756	0.000093
1974	1.9631e+02	-0.6965	-27.840088	0.000811	8.107744	1.373489	0.000162
1975	1.9641e+02	-0.6768	-27.763382	0.000385	3.851178	0.652407	0.000077
1976	1.9651e+02	-0.6577	-27.626120	0.000689	6.891582	1.167466	0.000138
1977	1.9661e+02	-0.6364	-27.533266	0.000466	4.661953	0.789756	0.000093
1978	1.9671e+02	-0.6168	-27.371780	0.000811	8.107744	1.373489	0.000162
1979	1.9681e+02	-0.5961	-27.262778	0.000547	5.472727	0.927105	0.000110
1980	1.9691e+02	-0.5772	-27.133589	0.000649	6.486195	1.098791	0.000130
1981	1.9701e+02	-0.5571	-27.028624	0.000527	5.270034	0.892768	0.000105
1982	1.9711e+02	-0.5377	-26.939807	0.000446	4.459259	0.755419	0.000089
1983	1.9721e+02	-0.5175	-26.782358	0.000791	7.905050	1.339152	0.000158
1984	1.9731e+02	-0.4979	-26.665282	0.000588	5.878114	0.995780	0.000118
1985	1.9741e+02	-0.4788	-26.612799	0.000264	2.635017	0.446384	0.000053
1986	1.9751e+02	-0.4570	-26.451313	0.000811	8.107744	1.373489	0.000162
1987	1.9761e+02	-0.4378	-26.289828	0.000811	8.107744	1.373489	0.000162
1988	1.9771e+02	-0.4180	-26.176788	0.000568	5.675421	0.961442	0.000114
1989	1.9781e+02	-0.3979	-26.092008	0.000426	4.256566	0.721082	0.000085
1990	1.9791e+02	-0.3784	-25.946671	0.000730	7.296969	1.236140	0.000146
1991	1.9800e+02	-0.3576	-25.793260	0.000770	7.702357	1.304815	0.000154
1992	1.9810e+02	-0.3381	-25.748852	0.000223	2.229630	0.377709	0.000045
1993	1.9820e+02	-0.3169	-25.587366	0.000811	8.107744	1.373489	0.000162
1994	1.9830e+02	-0.2985	-25.490475	0.000486	4.864646	0.824093	0.000097
1995	1.9840e+02	-0.2782	-25.357250	0.000669	6.688889	1.133128	0.000134
1996	1.9850e+02	-0.2581	-25.264395	0.000466	4.661953	0.789756	0.000093
1997	1.9860e+02	-0.2386	-25.123096	0.000709	7.094276	1.201803	0.000142
1998	1.9870e+02	-0.2177	-25.001982	0.000608	6.080808	1.030117	0.000122
1999	1.9880e+02	-0.1979	-24.888942	0.000568	5.675421	0.961442	0.000114
2000	1.9890e+02	-0.1781	-24.775902	0.000568	5.675421	0.961442	0.000114
2001	1.9900e+02	-0.1581	-24.634602	0.000709	7.094276	1.201803	0.000142
2002	1.9910e+02	-0.1376	-24.497340	0.000689	6.891582	1.167466	0.000138
2003	1.9920e+02	-0.1192	-24.408523	0.000446	4.459259	0.755419	0.000089
2004	1.9930e+02	-0.0990	-24.279334	0.000649	6.486195	1.098791	0.000130
2005	1.9940e+02	-0.0788	-24.150146	0.000649	6.486195	1.098791	0.000130
2006	1.9950e+02	-0.0585	-24.029032	0.000608	6.080808	1.030117	0.000122
2007	1.9960e+02	-0.0381	-23.928104	0.000507	5.067340	0.858431	0.000101
2008	1.9970e+02	-0.0191	-23.746432	0.000912	9.121212	1.545175	0.000183
2009	1.9980e+02	-0.0007	-23.665690	0.000912	9.121212	1.545175	0.000081

PMax (uC/cm2):	4.87e+01
Pr (uC/cm2):	4.36e+00
-Pr (uC/cm2):	-3.71e+01
PLoss (uC/cm2):	-3.71e+01
-Vc:	-7.46e-01
C (Max-Eff) (nF):	4.87e-01
K (Eff):	8.26e+02
Vert. (+/-Pr) Shift (uC/cm2):	-1.64e+01
Offset (uC/cm2):	-1.34e+01

A (Loop Area - uC/cm2·Volts):	-1.56e-01



Hysteresis Version: 5.48.1 - Radiant Technologies, Inc., 1999 - 9/12/24

