»»»»»»»»»»»»»»»»»»»»»»»»»»»»»»»»»»»» Hysteresis ««««««««««««««««««««««««««««««««««««
»»»  Executed Version:	5.48.1
»»»  Vision Version:	5.48.4 (R)
»»»  Vision Compiled:	9/18/24
»»»  Driver Version:	5.47.0
»»»  Windows Version:	Windows 8 or 8.1
»»»  Processor Information:	x86 (AMD or Intel) - 32 Processors
»»»  Tester Name:	PMF21124-494 (100V)
»»»  Tester S/N:	PMF21124-494
»»»  Internal Amp Type:	100V RevK 270k
»»»  Internal Amp S/N:	iAB2-596/K     
»»»  Execution Count:	1
»»»»»»»»»»»»»»»»»»»»»»»»»»»»»»»»»»»»»»»»»»««««««««««««««««««««««««««««««««««««««««««

Stored:	7/3/2025 - 13:57:22
Configured:	07/03/25 12:01:19 PM
Executed:	07/03/25 01:56:32 PM

»»»»»»»»»»»»»»»»»»»»»»»»»»»»»»»»»»» Sample Info ««««««««««««««««««««««««««««««««««««
Sample Name:	
Lot Name:	
Wafer Name:	
Die Row/Column:	0/0
Capacitor Number:	0
Sample Area (cm2):	1.00e-04
Sample Thickness (microns):	1.50e-01

Amplifier:	Internal

»»»»»»»»»»»»»»»»»»»»»»»»»»»»»»»»»»» Tester Info «««««««««««««««««««««««««««««««««««
Tester Name:	PMF21124-494 (100V)
Tester Serial Number:	PMF21124-494
Return Signal Amp. Level:	0.19 [Index: 3]

»»»»»»»»»»»»»»»»»»»»»»»»»»»»»»»» Hysteresis Info ««««««««««««««««««««««««««««««««««
Task Name:	Hyst-410
Volts:	10.00
Field:	666.67 (kV/cm)
DCBias:	0.00
DCField:	0.00 (kV/cm)
Hysteresis Period (ms):	2.00e+02
Preset:	Enabled
Preset Delay (ms):	1.00e+03
Profile:	Standard Bipolar

»»»»»»»»»»»»»»»»»»»»»»»»»»»»»»»»»»»»»» Data «««««««««««««««««««««««««««««««««««««««
Points:	2009

Valid Data

Point	Time (ms)	Drive Voltage	Measured Polarization (uC/cm2)	Capacitance (uF)	Normalized Capacitance (uF/cm2)	Dielectric Constant	Instantaneous Current (mA)
   1	0.0000e+00	-0.0007	3.724258	0.000649	6.485552	1.098682	0.000130
   2	9.9500e-02	0.0197	3.853446	0.000649	6.485552	1.098682	0.000130
   3	1.9900e-01	0.0393	3.970523	0.000588	5.877531	0.995681	0.000118
   4	2.9850e-01	0.0588	4.099711	0.000649	6.485552	1.098682	0.000130
   5	3.9800e-01	0.0799	4.253123	0.000770	7.701593	1.304685	0.000154
   6	4.9750e-01	0.0993	4.325791	0.000365	3.648123	0.618009	0.000073
   7	5.9700e-01	0.1196	4.471128	0.000730	7.296246	1.236017	0.000146
   8	6.9650e-01	0.1389	4.543796	0.000365	3.648123	0.618009	0.000073
   9	7.9600e-01	0.1596	4.697207	0.000770	7.701593	1.304685	0.000154
  10	8.9550e-01	0.1785	4.822359	0.000628	6.282878	1.064348	0.000126
  11	9.9500e-01	0.1978	4.951547	0.000649	6.485552	1.098682	0.000130
  12	1.0945e+00	0.2175	5.044401	0.000466	4.661490	0.789678	0.000093
  13	1.1940e+00	0.2390	5.201849	0.000790	7.904266	1.339019	0.000158
  14	1.2935e+00	0.2579	5.343149	0.000709	7.093572	1.201684	0.000142
  15	1.3930e+00	0.2779	5.423892	0.000405	4.053470	0.686676	0.000081
  16	1.4925e+00	0.2969	5.557117	0.000669	6.688225	1.133016	0.000134
  17	1.5920e+00	0.3181	5.678231	0.000608	6.080205	1.030015	0.000122
  18	1.6915e+00	0.3384	5.859903	0.000912	9.120307	1.545022	0.000183
  19	1.7910e+00	0.3574	5.916422	0.000284	2.837429	0.480673	0.000057
  20	1.8905e+00	0.3777	6.069834	0.000770	7.701593	1.304685	0.000154
  21	1.9900e+00	0.3980	6.182873	0.000567	5.674858	0.961347	0.000114
  22	2.0895e+00	0.4176	6.303987	0.000608	6.080205	1.030015	0.000122
  23	2.1890e+00	0.4385	6.417027	0.000567	5.674858	0.961347	0.000114
  24	2.2885e+00	0.4578	6.517956	0.000507	5.066837	0.858345	0.000101
  25	2.3880e+00	0.4764	6.711738	0.000973	9.728328	1.648023	0.000195
  26	2.4875e+00	0.4971	6.792481	0.000405	4.053470	0.686676	0.000081
  27	2.5870e+00	0.5170	6.941855	0.000750	7.498919	1.270351	0.000150
  28	2.6865e+00	0.5376	7.071043	0.000649	6.485552	1.098682	0.000130
  29	2.7860e+00	0.5569	7.204269	0.000669	6.688225	1.133016	0.000134
  30	2.8855e+00	0.5771	7.301160	0.000486	4.864164	0.824012	0.000097
  31	2.9850e+00	0.5973	7.385940	0.000426	4.256143	0.721010	0.000085
  32	3.0845e+00	0.6168	7.559537	0.000871	8.714960	1.476354	0.000174
  33	3.1840e+00	0.6372	7.692762	0.000669	6.688225	1.133016	0.000134
  34	3.2835e+00	0.6564	7.809839	0.000588	5.877531	0.995681	0.000118
  35	3.3830e+00	0.6763	7.882508	0.000365	3.648123	0.618009	0.000073
  36	3.4825e+00	0.6963	8.043993	0.000811	8.106940	1.373353	0.000162
  37	3.5820e+00	0.7170	8.161070	0.000588	5.877531	0.995681	0.000118
  38	3.6815e+00	0.7368	8.298333	0.000689	6.890899	1.167350	0.000138
  39	3.7810e+00	0.7561	8.431558	0.000669	6.688225	1.133016	0.000134
  40	3.8805e+00	0.7760	8.524412	0.000466	4.661490	0.789678	0.000093
  41	3.9800e+00	0.7964	8.649563	0.000628	6.282878	1.064348	0.000126
  42	4.0795e+00	0.8163	8.774715	0.000628	6.282878	1.064348	0.000126
  43	4.1790e+00	0.8373	8.916014	0.000709	7.093572	1.201684	0.000142
  44	4.2785e+00	0.8569	9.057314	0.000709	7.093572	1.201684	0.000142
  45	4.3780e+00	0.8765	9.178428	0.000608	6.080205	1.030015	0.000122
  46	4.4775e+00	0.8955	9.307616	0.000649	6.485552	1.098682	0.000130
  47	4.5770e+00	0.9164	9.420656	0.000567	5.674858	0.961347	0.000114
  48	4.6765e+00	0.9356	9.541770	0.000608	6.080205	1.030015	0.000122
  49	4.7760e+00	0.9557	9.662884	0.000608	6.080205	1.030015	0.000122
  50	4.8755e+00	0.9763	9.783998	0.000608	6.080205	1.030015	0.000122
  51	4.9750e+00	0.9959	9.925298	0.000709	7.093572	1.201684	0.000142
  52	5.0745e+00	1.0155	10.042375	0.000588	5.877531	0.995681	0.000118
  53	5.1740e+00	1.0351	10.187712	0.000730	7.296246	1.236017	0.000146
  54	5.2735e+00	1.0558	10.304789	0.000588	5.877531	0.995681	0.000118
  55	5.3730e+00	1.0745	10.397643	0.000466	4.661490	0.789678	0.000093
  56	5.4725e+00	1.0962	10.567203	0.000851	8.512287	1.442020	0.000170
  57	5.5720e+00	1.1154	10.708503	0.000709	7.093572	1.201684	0.000142
  58	5.6715e+00	1.1347	10.813468	0.000527	5.269511	0.892679	0.000105
  59	5.7710e+00	1.1544	10.966879	0.000770	7.701593	1.304685	0.000154
  60	5.8705e+00	1.1742	11.075882	0.000547	5.472184	0.927013	0.000110
  61	5.9700e+00	1.1947	11.209107	0.000669	6.688225	1.133016	0.000134
  62	6.0695e+00	1.2143	11.350407	0.000709	7.093572	1.201684	0.000142
  63	6.1690e+00	1.2354	11.463447	0.000567	5.674858	0.961347	0.000114
  64	6.2685e+00	1.2560	11.584561	0.000608	6.080205	1.030015	0.000122
  65	6.3680e+00	1.2747	11.685489	0.000507	5.066837	0.858345	0.000101
  66	6.4675e+00	1.2943	11.846975	0.000811	8.106940	1.373353	0.000162
  67	6.5670e+00	1.3128	11.968089	0.000608	6.080205	1.030015	0.000122
  68	6.6665e+00	1.3340	12.089203	0.000608	6.080205	1.030015	0.000122
  69	6.7660e+00	1.3538	12.230503	0.000709	7.093572	1.201684	0.000142
  70	6.8655e+00	1.3749	12.359691	0.000649	6.485552	1.098682	0.000130
  71	6.9650e+00	1.3936	12.472731	0.000567	5.674858	0.961347	0.000114
  72	7.0645e+00	1.4128	12.650365	0.000892	8.917634	1.510688	0.000179
  73	7.1640e+00	1.4334	12.731108	0.000405	4.053470	0.686676	0.000081
  74	7.2635e+00	1.4533	12.848184	0.000588	5.877531	0.995681	0.000118
  75	7.3630e+00	1.4733	12.985447	0.000689	6.890899	1.167350	0.000138
  76	7.4625e+00	1.4935	13.122710	0.000689	6.890899	1.167350	0.000138
  77	7.5620e+00	1.5138	13.223638	0.000507	5.066837	0.858345	0.000101
  78	7.6615e+00	1.5327	13.409346	0.000932	9.322981	1.579356	0.000187
  79	7.7610e+00	1.5530	13.546609	0.000689	6.890899	1.167350	0.000138
  80	7.8605e+00	1.5725	13.635426	0.000446	4.458817	0.755344	0.000089
  81	7.9600e+00	1.5932	13.772689	0.000689	6.890899	1.167350	0.000138
  82	8.0595e+00	1.6122	13.893803	0.000608	6.080205	1.030015	0.000122
  83	8.1590e+00	1.6331	14.002805	0.000547	5.472184	0.927013	0.000110
  84	8.2585e+00	1.6521	14.148142	0.000730	7.296246	1.236017	0.000146
  85	8.3580e+00	1.6723	14.289442	0.000709	7.093572	1.201684	0.000142
  86	8.4575e+00	1.6917	14.418630	0.000649	6.485552	1.098682	0.000130
  87	8.5570e+00	1.7128	14.547819	0.000649	6.485552	1.098682	0.000130
  88	8.6565e+00	1.7315	14.677007	0.000649	6.485552	1.098682	0.000130
  89	8.7560e+00	1.7516	14.842530	0.000831	8.309613	1.407687	0.000166
  90	8.8555e+00	1.7725	14.927309	0.000426	4.256143	0.721010	0.000085
  91	8.9550e+00	1.7916	15.068609	0.000709	7.093572	1.201684	0.000142
  92	9.0545e+00	1.8114	15.185686	0.000588	5.877531	0.995681	0.000118
  93	9.1540e+00	1.8322	15.306800	0.000608	6.080205	1.030015	0.000122
  94	9.2535e+00	1.8520	15.431951	0.000628	6.282878	1.064348	0.000126
  95	9.3530e+00	1.8728	15.569214	0.000689	6.890899	1.167350	0.000138
  96	9.4525e+00	1.8929	15.694365	0.000628	6.282878	1.064348	0.000126
  97	9.5520e+00	1.9118	15.839702	0.000730	7.296246	1.236017	0.000146
  98	9.6515e+00	1.9318	15.944668	0.000527	5.269511	0.892679	0.000105
  99	9.7510e+00	1.9514	16.094042	0.000750	7.498919	1.270351	0.000150
 100	9.8505e+00	1.9716	16.227267	0.000669	6.688225	1.133016	0.000134
 101	9.9500e+00	1.9912	16.324158	0.000486	4.864164	0.824012	0.000097
 102	1.0050e+01	2.0114	16.457384	0.000669	6.688225	1.133016	0.000134
 103	1.0149e+01	2.0313	16.602721	0.000730	7.296246	1.236017	0.000146
 104	1.0248e+01	2.0506	16.735946	0.000669	6.688225	1.133016	0.000134
 105	1.0348e+01	2.0704	16.865135	0.000649	6.485552	1.098682	0.000130
 106	1.0447e+01	2.0905	16.982211	0.000588	5.877531	0.995681	0.000118
 107	1.0547e+01	2.1114	17.103326	0.000608	6.080205	1.030015	0.000122
 108	1.0646e+01	2.1308	17.244625	0.000709	7.093572	1.201684	0.000142
 109	1.0746e+01	2.1511	17.381888	0.000689	6.890899	1.167350	0.000138
 110	1.0845e+01	2.1712	17.519151	0.000689	6.890899	1.167350	0.000138
 111	1.0945e+01	2.1915	17.624116	0.000527	5.269511	0.892679	0.000105
 112	1.1044e+01	2.2103	17.757342	0.000669	6.688225	1.133016	0.000134
 113	1.1144e+01	2.2308	17.902678	0.000730	7.296246	1.236017	0.000146
 114	1.1243e+01	2.2511	18.023793	0.000608	6.080205	1.030015	0.000122
 115	1.1343e+01	2.2698	18.173167	0.000750	7.498919	1.270351	0.000150
 116	1.1443e+01	2.2892	18.306392	0.000669	6.688225	1.133016	0.000134
 117	1.1542e+01	2.3103	18.415395	0.000547	5.472184	0.927013	0.000110
 118	1.1642e+01	2.3296	18.556694	0.000709	7.093572	1.201684	0.000142
 119	1.1741e+01	2.3504	18.730291	0.000871	8.714960	1.476354	0.000174
 120	1.1841e+01	2.3692	18.823145	0.000466	4.661490	0.789678	0.000093
 121	1.1940e+01	2.3905	18.944259	0.000608	6.080205	1.030015	0.000122
 122	1.2040e+01	2.4087	19.073448	0.000649	6.485552	1.098682	0.000130
 123	1.2139e+01	2.4301	19.243007	0.000851	8.512287	1.442020	0.000170
 124	1.2239e+01	2.4496	19.360084	0.000588	5.877531	0.995681	0.000118
 125	1.2338e+01	2.4692	19.497347	0.000689	6.890899	1.167350	0.000138
 126	1.2438e+01	2.4883	19.570015	0.000365	3.648123	0.618009	0.000073
 127	1.2537e+01	2.5100	19.731501	0.000811	8.106940	1.373353	0.000162
 128	1.2636e+01	2.5290	19.804169	0.000365	3.648123	0.618009	0.000073
 129	1.2736e+01	2.5502	19.997952	0.000973	9.728328	1.648023	0.000195
 130	1.2835e+01	2.5689	20.110992	0.000567	5.674858	0.961347	0.000114
 131	1.2935e+01	2.5898	20.252291	0.000709	7.093572	1.201684	0.000142
 132	1.3034e+01	2.6085	20.377443	0.000628	6.282878	1.064348	0.000126
 133	1.3134e+01	2.6288	20.474334	0.000486	4.864164	0.824012	0.000097
 134	1.3233e+01	2.6487	20.615634	0.000709	7.093572	1.201684	0.000142
 135	1.3333e+01	2.6685	20.773082	0.000790	7.904266	1.339019	0.000158
 136	1.3432e+01	2.6881	20.878047	0.000527	5.269511	0.892679	0.000105
 137	1.3532e+01	2.7090	20.999162	0.000608	6.080205	1.030015	0.000122
 138	1.3632e+01	2.7283	21.128350	0.000649	6.485552	1.098682	0.000130
 139	1.3731e+01	2.7484	21.257538	0.000649	6.485552	1.098682	0.000130
 140	1.3831e+01	2.7691	21.362504	0.000527	5.269511	0.892679	0.000105
 141	1.3930e+01	2.7874	21.519952	0.000790	7.904266	1.339019	0.000158
 142	1.4030e+01	2.8088	21.641066	0.000608	6.080205	1.030015	0.000122
 143	1.4129e+01	2.8273	21.737957	0.000486	4.864164	0.824012	0.000097
 144	1.4229e+01	2.8485	21.863109	0.000628	6.282878	1.064348	0.000126
 145	1.4328e+01	2.8686	22.016520	0.000770	7.701593	1.304685	0.000154
 146	1.4428e+01	2.8885	22.141671	0.000628	6.282878	1.064348	0.000126
 147	1.4527e+01	2.9085	22.270859	0.000649	6.485552	1.098682	0.000130
 148	1.4627e+01	2.9287	22.379862	0.000547	5.472184	0.927013	0.000110
 149	1.4726e+01	2.9472	22.509050	0.000649	6.485552	1.098682	0.000130
 150	1.4825e+01	2.9673	22.682647	0.000871	8.714960	1.476354	0.000174
 151	1.4925e+01	2.9871	22.731093	0.000243	2.432082	0.412006	0.000049
 152	1.5024e+01	3.0080	22.860281	0.000649	6.485552	1.098682	0.000130
 153	1.5124e+01	3.0279	23.005618	0.000730	7.296246	1.236017	0.000146
 154	1.5223e+01	3.0477	23.114621	0.000547	5.472184	0.927013	0.000110
 155	1.5323e+01	3.0682	23.272069	0.000790	7.904266	1.339019	0.000158
 156	1.5422e+01	3.0873	23.381072	0.000547	5.472184	0.927013	0.000110
 157	1.5522e+01	3.1069	23.526409	0.000730	7.296246	1.236017	0.000146
 158	1.5621e+01	3.1272	23.647523	0.000608	6.080205	1.030015	0.000122
 159	1.5721e+01	3.1470	23.792859	0.000730	7.296246	1.236017	0.000146
 160	1.5820e+01	3.1665	23.901862	0.000547	5.472184	0.927013	0.000110
 161	1.5920e+01	3.1860	23.998753	0.000486	4.864164	0.824012	0.000097
 162	1.6020e+01	3.2061	24.103719	0.000527	5.269511	0.892679	0.000105
 163	1.6119e+01	3.2265	24.273279	0.000851	8.512287	1.442020	0.000170
 164	1.6218e+01	3.2462	24.374207	0.000507	5.066837	0.858345	0.000101
 165	1.6318e+01	3.2663	24.503395	0.000649	6.485552	1.098682	0.000130
 166	1.6418e+01	3.2869	24.612398	0.000547	5.472184	0.927013	0.000110
 167	1.6517e+01	3.3062	24.753698	0.000709	7.093572	1.201684	0.000142
 168	1.6616e+01	3.3259	24.907109	0.000770	7.701593	1.304685	0.000154
 169	1.6716e+01	3.3468	25.008037	0.000507	5.066837	0.858345	0.000101
 170	1.6816e+01	3.3665	25.096854	0.000446	4.458817	0.755344	0.000089
 171	1.6915e+01	3.3863	25.262377	0.000831	8.309613	1.407687	0.000166
 172	1.7015e+01	3.4056	25.371380	0.000547	5.472184	0.927013	0.000110
 173	1.7114e+01	3.4261	25.516716	0.000730	7.296246	1.236017	0.000146
 174	1.7213e+01	3.4466	25.601496	0.000426	4.256143	0.721010	0.000085
 175	1.7313e+01	3.4664	25.738759	0.000689	6.890899	1.167350	0.000138
 176	1.7413e+01	3.4853	25.863910	0.000628	6.282878	1.064348	0.000126
 177	1.7512e+01	3.5046	25.993098	0.000649	6.485552	1.098682	0.000130
 178	1.7611e+01	3.5256	26.114213	0.000608	6.080205	1.030015	0.000122
 179	1.7711e+01	3.5454	26.211104	0.000486	4.864164	0.824012	0.000097
 180	1.7811e+01	3.5650	26.384701	0.000871	8.714960	1.476354	0.000174
 181	1.7910e+01	3.5850	26.530038	0.000730	7.296246	1.236017	0.000146
 182	1.8009e+01	3.6047	26.594632	0.000324	3.242776	0.549341	0.000065
 183	1.8109e+01	3.6270	26.719783	0.000628	6.282878	1.064348	0.000126
 184	1.8209e+01	3.6457	26.885305	0.000831	8.309613	1.407687	0.000166
 185	1.8308e+01	3.6662	27.006420	0.000608	6.080205	1.030015	0.000122
 186	1.8407e+01	3.6862	27.095237	0.000446	4.458817	0.755344	0.000089
 187	1.8507e+01	3.7055	27.212313	0.000588	5.877531	0.995681	0.000118
 188	1.8607e+01	3.7247	27.357650	0.000730	7.296246	1.236017	0.000146
 189	1.8706e+01	3.7453	27.422245	0.000324	3.242776	0.549341	0.000065
 190	1.8805e+01	3.7647	27.611990	0.000953	9.525654	1.613689	0.000191
 191	1.8905e+01	3.7841	27.680621	0.000345	3.445449	0.583675	0.000069
 192	1.9005e+01	3.8044	27.825958	0.000730	7.296246	1.236017	0.000146
 193	1.9104e+01	3.8249	27.934961	0.000547	5.472184	0.927013	0.000110
 194	1.9203e+01	3.8439	28.052038	0.000588	5.877531	0.995681	0.000118
 195	1.9303e+01	3.8639	28.189300	0.000689	6.890899	1.167350	0.000138
 196	1.9402e+01	3.8830	28.270043	0.000405	4.053470	0.686676	0.000081
 197	1.9502e+01	3.9040	28.419417	0.000750	7.498919	1.270351	0.000150
 198	1.9602e+01	3.9239	28.532457	0.000567	5.674858	0.961347	0.000114
 199	1.9701e+01	3.9430	28.641459	0.000547	5.472184	0.927013	0.000110
 200	1.9800e+01	3.9637	28.798908	0.000790	7.904266	1.339019	0.000158
 201	1.9900e+01	3.9834	28.883688	0.000426	4.256143	0.721010	0.000085
 202	2.0000e+01	4.0044	28.984616	0.000507	5.066837	0.858345	0.000101
 203	2.0099e+01	4.0231	29.109767	0.000628	6.282878	1.064348	0.000126
 204	2.0198e+01	4.0441	29.214733	0.000527	5.269511	0.892679	0.000105
 205	2.0298e+01	4.0639	29.311624	0.000486	4.864164	0.824012	0.000097
 206	2.0398e+01	4.0832	29.432738	0.000608	6.080205	1.030015	0.000122
 207	2.0497e+01	4.1038	29.549815	0.000588	5.877531	0.995681	0.000118
 208	2.0596e+01	4.1227	29.662855	0.000567	5.674858	0.961347	0.000114
 209	2.0696e+01	4.1439	29.812229	0.000750	7.498919	1.270351	0.000150
 210	2.0796e+01	4.1626	29.929306	0.000588	5.877531	0.995681	0.000118
 211	2.0895e+01	4.1817	30.034271	0.000527	5.269511	0.892679	0.000105
 212	2.0994e+01	4.2031	30.171534	0.000689	6.890899	1.167350	0.000138
 213	2.1094e+01	4.2233	30.256314	0.000426	4.256143	0.721010	0.000085
 214	2.1194e+01	4.2423	30.389539	0.000669	6.688225	1.133016	0.000134
 215	2.1293e+01	4.2629	30.518728	0.000649	6.485552	1.098682	0.000130
 216	2.1392e+01	4.2831	30.611582	0.000466	4.661490	0.789678	0.000093
 217	2.1492e+01	4.3029	30.740770	0.000649	6.485552	1.098682	0.000130
 218	2.1591e+01	4.3222	30.853810	0.000567	5.674858	0.961347	0.000114
 219	2.1691e+01	4.3426	30.970887	0.000588	5.877531	0.995681	0.000118
 220	2.1791e+01	4.3618	31.039518	0.000345	3.445449	0.583675	0.000069
 221	2.1890e+01	4.3819	31.172744	0.000669	6.688225	1.133016	0.000134
 222	2.1989e+01	4.4015	31.297895	0.000628	6.282878	1.064348	0.000126
 223	2.2089e+01	4.4222	31.402860	0.000527	5.269511	0.892679	0.000105
 224	2.2189e+01	4.4431	31.519937	0.000588	5.877531	0.995681	0.000118
 225	2.2288e+01	4.4619	31.628940	0.000547	5.472184	0.927013	0.000110
 226	2.2387e+01	4.4827	31.778314	0.000750	7.498919	1.270351	0.000150
 227	2.2487e+01	4.5022	31.863094	0.000426	4.256143	0.721010	0.000085
 228	2.2587e+01	4.5214	31.984208	0.000608	6.080205	1.030015	0.000122
 229	2.2686e+01	4.5411	32.109359	0.000628	6.282878	1.064348	0.000126
 230	2.2785e+01	4.5618	32.230473	0.000608	6.080205	1.030015	0.000122
 231	2.2885e+01	4.5812	32.270845	0.000203	2.026735	0.343338	0.000041
 232	2.2985e+01	4.6014	32.416181	0.000730	7.296246	1.236017	0.000146
 233	2.3084e+01	4.6209	32.589778	0.000871	8.714960	1.476354	0.000174
 234	2.3183e+01	4.6410	32.638224	0.000243	2.432082	0.412006	0.000049
 235	2.3283e+01	4.6611	32.795672	0.000790	7.904266	1.339019	0.000158
 236	2.3383e+01	4.6812	32.884489	0.000446	4.458817	0.755344	0.000089
 237	2.3482e+01	4.7016	32.977343	0.000466	4.661490	0.789678	0.000093
 238	2.3581e+01	4.7212	33.171126	0.000973	9.728328	1.648023	0.000195
 239	2.3681e+01	4.7411	33.207460	0.000182	1.824061	0.309004	0.000037
 240	2.3780e+01	4.7601	33.377020	0.000851	8.512287	1.442020	0.000170
 241	2.3880e+01	4.7808	33.441614	0.000324	3.242776	0.549341	0.000065
 242	2.3980e+01	4.8003	33.566765	0.000628	6.282878	1.064348	0.000126
 243	2.4079e+01	4.8209	33.663656	0.000486	4.864164	0.824012	0.000097
 244	2.4178e+01	4.8400	33.800919	0.000689	6.890899	1.167350	0.000138
 245	2.4278e+01	4.8598	33.922033	0.000608	6.080205	1.030015	0.000122
 246	2.4378e+01	4.8811	33.978553	0.000284	2.837429	0.480673	0.000057
 247	2.4477e+01	4.8994	34.156187	0.000892	8.917634	1.510688	0.000179
 248	2.4576e+01	4.9204	34.236930	0.000405	4.053470	0.686676	0.000081
 249	2.4676e+01	4.9404	34.325747	0.000446	4.458817	0.755344	0.000089
 250	2.4776e+01	4.9599	34.467046	0.000709	7.093572	1.201684	0.000142
 251	2.4875e+01	4.9799	34.563938	0.000486	4.864164	0.824012	0.000097
 252	2.4974e+01	4.9998	34.660829	0.000486	4.864164	0.824012	0.000097
 253	2.5074e+01	5.0207	34.790017	0.000649	6.485552	1.098682	0.000130
 254	2.5174e+01	5.0396	34.830389	0.000203	2.026735	0.343338	0.000041
 255	2.5273e+01	5.0597	35.016097	0.000932	9.322981	1.579356	0.000187
 256	2.5372e+01	5.0790	35.121062	0.000527	5.269511	0.892679	0.000105
 257	2.5472e+01	5.0997	35.234102	0.000567	5.674858	0.961347	0.000114
 258	2.5572e+01	5.1197	35.351179	0.000588	5.877531	0.995681	0.000118
 259	2.5671e+01	5.1388	35.476330	0.000628	6.282878	1.064348	0.000126
 260	2.5770e+01	5.1586	35.573222	0.000486	4.864164	0.824012	0.000097
 261	2.5870e+01	5.1781	35.637816	0.000324	3.242776	0.549341	0.000065
 262	2.5970e+01	5.1987	35.771041	0.000669	6.688225	1.133016	0.000134
 263	2.6069e+01	5.2177	35.904267	0.000669	6.688225	1.133016	0.000134
 264	2.6169e+01	5.2390	35.968861	0.000324	3.242776	0.549341	0.000065
 265	2.6268e+01	5.2581	36.085938	0.000588	5.877531	0.995681	0.000118
 266	2.6367e+01	5.2773	36.170718	0.000426	4.256143	0.721010	0.000085
 267	2.6467e+01	5.2984	36.324129	0.000770	7.701593	1.304685	0.000154
 268	2.6567e+01	5.3176	36.416983	0.000466	4.661490	0.789678	0.000093
 269	2.6666e+01	5.3379	36.525986	0.000547	5.472184	0.927013	0.000110
 270	2.6765e+01	5.3587	36.622877	0.000486	4.864164	0.824012	0.000097
 271	2.6865e+01	5.3785	36.735917	0.000567	5.674858	0.961347	0.000114
 272	2.6965e+01	5.3985	36.820696	0.000426	4.256143	0.721010	0.000085
 273	2.7064e+01	5.4179	36.945848	0.000628	6.282878	1.064348	0.000126
 274	2.7163e+01	5.4381	37.006405	0.000304	3.040102	0.515007	0.000061
 275	2.7263e+01	5.4575	37.131556	0.000628	6.282878	1.064348	0.000126
 276	2.7363e+01	5.4783	37.280930	0.000750	7.498919	1.270351	0.000150
 277	2.7462e+01	5.4977	37.377821	0.000486	4.864164	0.824012	0.000097
 278	2.7561e+01	5.5172	37.490861	0.000567	5.674858	0.961347	0.000114
 279	2.7661e+01	5.5376	37.624087	0.000669	6.688225	1.133016	0.000134
 280	2.7761e+01	5.5572	37.712903	0.000446	4.458817	0.755344	0.000089
 281	2.7860e+01	5.5772	37.801720	0.000446	4.458817	0.755344	0.000089
 282	2.7959e+01	5.5973	37.967243	0.000831	8.309613	1.407687	0.000166
 283	2.8059e+01	5.6182	38.023763	0.000284	2.837429	0.480673	0.000057
 284	2.8159e+01	5.6370	38.152951	0.000649	6.485552	1.098682	0.000130
 285	2.8258e+01	5.6573	38.249843	0.000486	4.864164	0.824012	0.000097
 286	2.8358e+01	5.6759	38.366919	0.000588	5.877531	0.995681	0.000118
 287	2.8457e+01	5.6956	38.496108	0.000649	6.485552	1.098682	0.000130
 288	2.8556e+01	5.7172	38.560702	0.000324	3.242776	0.549341	0.000065
 289	2.8656e+01	5.7360	38.677779	0.000588	5.877531	0.995681	0.000118
 290	2.8756e+01	5.7557	38.778707	0.000507	5.066837	0.858345	0.000101
 291	2.8855e+01	5.7764	38.895784	0.000588	5.877531	0.995681	0.000118
 292	2.8954e+01	5.7961	38.992676	0.000486	4.864164	0.824012	0.000097
 293	2.9054e+01	5.8161	39.129938	0.000689	6.890899	1.167350	0.000138
 294	2.9154e+01	5.8355	39.206644	0.000385	3.850796	0.652343	0.000077
 295	2.9253e+01	5.8569	39.360055	0.000770	7.701593	1.304685	0.000154
 296	2.9352e+01	5.8761	39.408501	0.000243	2.432082	0.412006	0.000049
 297	2.9452e+01	5.8959	39.561912	0.000770	7.701593	1.304685	0.000154
 298	2.9552e+01	5.9164	39.634580	0.000365	3.648123	0.618009	0.000073
 299	2.9651e+01	5.9359	39.779917	0.000730	7.296246	1.236017	0.000146
 300	2.9750e+01	5.9557	39.868734	0.000446	4.458817	0.755344	0.000089
 301	2.9850e+01	5.9753	39.949477	0.000405	4.053470	0.686676	0.000081
 302	2.9950e+01	5.9956	40.086739	0.000689	6.890899	1.167350	0.000138
 303	3.0049e+01	6.0162	40.131148	0.000223	2.229408	0.377672	0.000045
 304	3.0148e+01	6.0348	40.236113	0.000527	5.269511	0.892679	0.000105
 305	3.0248e+01	6.0548	40.328967	0.000466	4.661490	0.789678	0.000093
 306	3.0348e+01	6.0763	40.482379	0.000770	7.701593	1.304685	0.000154
 307	3.0447e+01	6.0949	40.559084	0.000385	3.850796	0.652343	0.000077
 308	3.0547e+01	6.1147	40.660013	0.000507	5.066837	0.858345	0.000101
 309	3.0646e+01	6.1356	40.764978	0.000527	5.269511	0.892679	0.000105
 310	3.0745e+01	6.1550	40.878018	0.000567	5.674858	0.961347	0.000114
 311	3.0845e+01	6.1748	40.995095	0.000588	5.877531	0.995681	0.000118
 312	3.0945e+01	6.1956	41.059689	0.000324	3.242776	0.549341	0.000065
 313	3.1044e+01	6.2148	41.184840	0.000628	6.282878	1.064348	0.000126
 314	3.1143e+01	6.2354	41.301917	0.000588	5.877531	0.995681	0.000118
 315	3.1243e+01	6.2547	41.406883	0.000527	5.269511	0.892679	0.000105
 316	3.1343e+01	6.2746	41.491663	0.000426	4.256143	0.721010	0.000085
 317	3.1442e+01	6.2952	41.596628	0.000527	5.269511	0.892679	0.000105
 318	3.1541e+01	6.3140	41.677371	0.000405	4.053470	0.686676	0.000081
 319	3.1641e+01	6.3337	41.806559	0.000649	6.485552	1.098682	0.000130
 320	3.1741e+01	6.3530	41.927673	0.000608	6.080205	1.030015	0.000122
 321	3.1840e+01	6.3735	41.976119	0.000243	2.432082	0.412006	0.000049
 322	3.1939e+01	6.3927	42.113381	0.000689	6.890899	1.167350	0.000138
 323	3.2039e+01	6.4127	42.161827	0.000243	2.432082	0.412006	0.000049
 324	3.2139e+01	6.4332	42.327350	0.000831	8.309613	1.407687	0.000166
 325	3.2238e+01	6.4529	42.424241	0.000486	4.864164	0.824012	0.000097
 326	3.2337e+01	6.4728	42.525169	0.000507	5.066837	0.858345	0.000101
 327	3.2437e+01	6.4931	42.605912	0.000405	4.053470	0.686676	0.000081
 328	3.2536e+01	6.5131	42.710878	0.000527	5.269511	0.892679	0.000105
 329	3.2636e+01	6.5334	42.787583	0.000385	3.850796	0.652343	0.000077
 330	3.2736e+01	6.5530	42.928883	0.000709	7.093572	1.201684	0.000142
 331	3.2835e+01	6.5731	43.021737	0.000466	4.661490	0.789678	0.000093
 332	3.2934e+01	6.5929	43.110554	0.000446	4.458817	0.755344	0.000089
 333	3.3034e+01	6.6123	43.175148	0.000324	3.242776	0.549341	0.000065
 334	3.3133e+01	6.6329	43.300299	0.000628	6.282878	1.064348	0.000126
 335	3.3233e+01	6.6518	43.425451	0.000628	6.282878	1.064348	0.000126
 336	3.3333e+01	6.6726	43.469859	0.000223	2.229408	0.377672	0.000045
 337	3.3432e+01	6.6936	43.578862	0.000547	5.472184	0.927013	0.000110
 338	3.3532e+01	6.7126	43.679790	0.000507	5.066837	0.858345	0.000101
 339	3.3631e+01	6.7319	43.780719	0.000507	5.066837	0.858345	0.000101
 340	3.3730e+01	6.7522	43.889721	0.000547	5.472184	0.927013	0.000110
 341	3.3830e+01	6.7727	43.986612	0.000486	4.864164	0.824012	0.000097
 342	3.3929e+01	6.7924	44.099652	0.000567	5.674858	0.961347	0.000114
 343	3.4029e+01	6.8118	44.216729	0.000588	5.877531	0.995681	0.000118
 344	3.4129e+01	6.8322	44.305546	0.000446	4.458817	0.755344	0.000089
 345	3.4228e+01	6.8520	44.402437	0.000486	4.864164	0.824012	0.000097
 346	3.4328e+01	6.8712	44.511440	0.000547	5.472184	0.927013	0.000110
 347	3.4427e+01	6.8924	44.584109	0.000365	3.648123	0.618009	0.000073
 348	3.4526e+01	6.9112	44.705223	0.000608	6.080205	1.030015	0.000122
 349	3.4626e+01	6.9317	44.838448	0.000669	6.688225	1.133016	0.000134
 350	3.4725e+01	6.9518	44.903042	0.000324	3.242776	0.549341	0.000065
 351	3.4825e+01	6.9707	44.987822	0.000426	4.256143	0.721010	0.000085
 352	3.4925e+01	6.9913	45.104899	0.000588	5.877531	0.995681	0.000118
 353	3.5024e+01	7.0110	45.226013	0.000608	6.080205	1.030015	0.000122
 354	3.5123e+01	7.0309	45.274459	0.000243	2.432082	0.412006	0.000049
 355	3.5223e+01	7.0506	45.383461	0.000547	5.472184	0.927013	0.000110
 356	3.5322e+01	7.0708	45.500538	0.000588	5.877531	0.995681	0.000118
 357	3.5422e+01	7.0914	45.581281	0.000405	4.053470	0.686676	0.000081
 358	3.5522e+01	7.1104	45.653949	0.000365	3.648123	0.618009	0.000073
 359	3.5621e+01	7.1301	45.779101	0.000628	6.282878	1.064348	0.000126
 360	3.5721e+01	7.1513	45.859843	0.000405	4.053470	0.686676	0.000081
 361	3.5820e+01	7.1703	45.972883	0.000567	5.674858	0.961347	0.000114
 362	3.5919e+01	7.1914	46.049589	0.000385	3.850796	0.652343	0.000077
 363	3.6019e+01	7.2100	46.170703	0.000608	6.080205	1.030015	0.000122
 364	3.6118e+01	7.2298	46.259520	0.000446	4.458817	0.755344	0.000089
 365	3.6218e+01	7.2500	46.356411	0.000486	4.864164	0.824012	0.000097
 366	3.6318e+01	7.2697	46.425042	0.000345	3.445449	0.583675	0.000069
 367	3.6417e+01	7.2900	46.562305	0.000689	6.890899	1.167350	0.000138
 368	3.6517e+01	7.3093	46.618825	0.000284	2.837429	0.480673	0.000057
 369	3.6616e+01	7.3309	46.715716	0.000486	4.864164	0.824012	0.000097
 370	3.6715e+01	7.3496	46.808570	0.000466	4.661490	0.789678	0.000093
 371	3.6815e+01	7.3693	46.897387	0.000446	4.458817	0.755344	0.000089
 372	3.6914e+01	7.3893	46.978130	0.000405	4.053470	0.686676	0.000081
 373	3.7014e+01	7.4099	47.087133	0.000547	5.472184	0.927013	0.000110
 374	3.7114e+01	7.4290	47.155764	0.000345	3.445449	0.583675	0.000069
 375	3.7213e+01	7.4489	47.284952	0.000649	6.485552	1.098682	0.000130
 376	3.7313e+01	7.4692	47.361658	0.000385	3.850796	0.652343	0.000077
 377	3.7412e+01	7.4891	47.450475	0.000446	4.458817	0.755344	0.000089
 378	3.7511e+01	7.5095	47.539292	0.000446	4.458817	0.755344	0.000089
 379	3.7611e+01	7.5298	47.632146	0.000466	4.661490	0.789678	0.000093
 380	3.7711e+01	7.5486	47.741149	0.000547	5.472184	0.927013	0.000110
 381	3.7810e+01	7.5687	47.842077	0.000507	5.066837	0.858345	0.000101
 382	3.7910e+01	7.5880	47.918783	0.000385	3.850796	0.652343	0.000077
 383	3.8009e+01	7.6085	48.056045	0.000689	6.890899	1.167350	0.000138
 384	3.8108e+01	7.6284	48.108528	0.000263	2.634755	0.446340	0.000053
 385	3.8208e+01	7.6486	48.213494	0.000527	5.269511	0.892679	0.000105
 386	3.8307e+01	7.6685	48.318459	0.000527	5.269511	0.892679	0.000105
 387	3.8407e+01	7.6880	48.395165	0.000385	3.850796	0.652343	0.000077
 388	3.8507e+01	7.7085	48.471870	0.000385	3.850796	0.652343	0.000077
 389	3.8606e+01	7.7280	48.572799	0.000507	5.066837	0.858345	0.000101
 390	3.8706e+01	7.7478	48.645467	0.000365	3.648123	0.618009	0.000073
 391	3.8805e+01	7.7669	48.766581	0.000608	6.080205	1.030015	0.000122
 392	3.8904e+01	7.7881	48.859435	0.000466	4.661490	0.789678	0.000093
 393	3.9004e+01	7.8085	48.940178	0.000405	4.053470	0.686676	0.000081
 394	3.9103e+01	7.8278	49.041106	0.000507	5.066837	0.858345	0.000101
 395	3.9203e+01	7.8469	49.146072	0.000527	5.269511	0.892679	0.000105
 396	3.9303e+01	7.8677	49.247000	0.000507	5.066837	0.858345	0.000101
 397	3.9402e+01	7.8879	49.319669	0.000365	3.648123	0.618009	0.000073
 398	3.9502e+01	7.9073	49.404449	0.000426	4.256143	0.721010	0.000085
 399	3.9601e+01	7.9275	49.505377	0.000507	5.066837	0.858345	0.000101
 400	3.9700e+01	7.9473	49.569971	0.000324	3.242776	0.549341	0.000065
 401	3.9800e+01	7.9682	49.666862	0.000486	4.864164	0.824012	0.000097
 402	3.9900e+01	7.9877	49.779902	0.000567	5.674858	0.961347	0.000114
 403	3.9999e+01	8.0071	49.864682	0.000426	4.256143	0.721010	0.000085
 404	4.0099e+01	8.0273	49.985796	0.000608	6.080205	1.030015	0.000122
 405	4.0198e+01	8.0462	50.050390	0.000324	3.242776	0.549341	0.000065
 406	4.0297e+01	8.0657	50.127096	0.000385	3.850796	0.652343	0.000077
 407	4.0397e+01	8.0862	50.223987	0.000486	4.864164	0.824012	0.000097
 408	4.0496e+01	8.1063	50.341064	0.000588	5.877531	0.995681	0.000118
 409	4.0596e+01	8.1274	50.413733	0.000365	3.648123	0.618009	0.000073
 410	4.0696e+01	8.1464	50.506587	0.000466	4.661490	0.789678	0.000093
 411	4.0795e+01	8.1666	50.603478	0.000486	4.864164	0.824012	0.000097
 412	4.0895e+01	8.1863	50.708443	0.000527	5.269511	0.892679	0.000105
 413	4.0994e+01	8.2061	50.748815	0.000203	2.026735	0.343338	0.000041
 414	4.1093e+01	8.2256	50.869929	0.000608	6.080205	1.030015	0.000122
 415	4.1193e+01	8.2462	50.950672	0.000405	4.053470	0.686676	0.000081
 416	4.1292e+01	8.2661	51.075823	0.000628	6.282878	1.064348	0.000126
 417	4.1392e+01	8.2861	51.156566	0.000405	4.053470	0.686676	0.000081
 418	4.1492e+01	8.3057	51.237308	0.000405	4.053470	0.686676	0.000081
 419	4.1591e+01	8.3254	51.301902	0.000324	3.242776	0.549341	0.000065
 420	4.1691e+01	8.3456	51.386682	0.000426	4.256143	0.721010	0.000085
 421	4.1790e+01	8.3659	51.536056	0.000750	7.498919	1.270351	0.000150
 422	4.1889e+01	8.3865	51.580465	0.000223	2.229408	0.377672	0.000045
 423	4.1989e+01	8.4049	51.709653	0.000649	6.485552	1.098682	0.000130
 424	4.2089e+01	8.4255	51.786359	0.000385	3.850796	0.652343	0.000077
 425	4.2188e+01	8.4451	51.838841	0.000263	2.634755	0.446340	0.000053
 426	4.2288e+01	8.4646	51.980141	0.000709	7.093572	1.201684	0.000142
 427	4.2387e+01	8.4853	52.044735	0.000324	3.242776	0.549341	0.000065
 428	4.2486e+01	8.5049	52.149701	0.000527	5.269511	0.892679	0.000105
 429	4.2586e+01	8.5251	52.234481	0.000426	4.256143	0.721010	0.000085
 430	4.2685e+01	8.5449	52.319261	0.000426	4.256143	0.721010	0.000085
 431	4.2785e+01	8.5651	52.387892	0.000345	3.445449	0.583675	0.000069
 432	4.2885e+01	8.5849	52.496895	0.000547	5.472184	0.927013	0.000110
 433	4.2984e+01	8.6050	52.573600	0.000385	3.850796	0.652343	0.000077
 434	4.3084e+01	8.6250	52.686640	0.000567	5.674858	0.961347	0.000114
 435	4.3183e+01	8.6444	52.751234	0.000324	3.242776	0.549341	0.000065
 436	4.3282e+01	8.6649	52.836014	0.000426	4.256143	0.721010	0.000085
 437	4.3382e+01	8.6849	52.892534	0.000284	2.837429	0.480673	0.000057
 438	4.3481e+01	8.7041	53.005574	0.000567	5.674858	0.961347	0.000114
 439	4.3581e+01	8.7238	53.094391	0.000446	4.458817	0.755344	0.000089
 440	4.3681e+01	8.7451	53.211468	0.000588	5.877531	0.995681	0.000118
 441	4.3780e+01	8.7631	53.276062	0.000324	3.242776	0.549341	0.000065
 442	4.3880e+01	8.7842	53.368916	0.000466	4.661490	0.789678	0.000093
 443	4.3979e+01	8.8039	53.461770	0.000466	4.661490	0.789678	0.000093
 444	4.4078e+01	8.8251	53.542513	0.000405	4.053470	0.686676	0.000081
 445	4.4178e+01	8.8438	53.566736	0.000122	1.216041	0.206003	0.000024
 446	4.4278e+01	8.8633	53.736295	0.000851	8.512287	1.442020	0.000170
 447	4.4377e+01	8.8831	53.833186	0.000486	4.864164	0.824012	0.000097
 448	4.4477e+01	8.9024	53.897781	0.000324	3.242776	0.549341	0.000065
 449	4.4576e+01	8.9233	53.986598	0.000446	4.458817	0.755344	0.000089
 450	4.4675e+01	8.9429	54.103675	0.000588	5.877531	0.995681	0.000118
 451	4.4775e+01	8.9620	54.164232	0.000304	3.040102	0.515007	0.000061
 452	4.4874e+01	8.9809	54.257086	0.000466	4.661490	0.789678	0.000093
 453	4.4974e+01	9.0024	54.398386	0.000709	7.093572	1.201684	0.000142
 454	4.5074e+01	9.0226	54.483165	0.000426	4.256143	0.721010	0.000085
 455	4.5173e+01	9.0424	54.588131	0.000527	5.269511	0.892679	0.000105
 456	4.5273e+01	9.0628	54.656762	0.000345	3.445449	0.583675	0.000069
 457	4.5372e+01	9.0824	54.709245	0.000263	2.634755	0.446340	0.000053
 458	4.5471e+01	9.1016	54.830359	0.000608	6.080205	1.030015	0.000122
 459	4.5571e+01	9.1213	54.886879	0.000284	2.837429	0.480673	0.000057
 460	4.5670e+01	9.1412	54.987807	0.000507	5.066837	0.858345	0.000101
 461	4.5770e+01	9.1619	55.048364	0.000304	3.040102	0.515007	0.000061
 462	4.5870e+01	9.1812	55.145256	0.000486	4.864164	0.824012	0.000097
 463	4.5969e+01	9.2013	55.246184	0.000507	5.066837	0.858345	0.000101
 464	4.6069e+01	9.2213	55.343075	0.000486	4.864164	0.824012	0.000097
 465	4.6168e+01	9.2410	55.456115	0.000567	5.674858	0.961347	0.000114
 466	4.6267e+01	9.2612	55.528784	0.000365	3.648123	0.618009	0.000073
 467	4.6367e+01	9.2807	55.617600	0.000446	4.458817	0.755344	0.000089
 468	4.6467e+01	9.3011	55.730640	0.000567	5.674858	0.961347	0.000114
 469	4.6566e+01	9.3197	55.775049	0.000223	2.229408	0.377672	0.000045
 470	4.6666e+01	9.3412	55.863866	0.000446	4.458817	0.755344	0.000089
 471	4.6765e+01	9.3612	56.017277	0.000770	7.701593	1.304685	0.000154
 472	4.6864e+01	9.3814	56.049574	0.000162	1.621388	0.274671	0.000032
 473	4.6964e+01	9.4009	56.162614	0.000567	5.674858	0.961347	0.000114
 474	4.7063e+01	9.4205	56.239319	0.000385	3.850796	0.652343	0.000077
 475	4.7163e+01	9.4403	56.328136	0.000446	4.458817	0.755344	0.000089
 476	4.7263e+01	9.4603	56.396768	0.000345	3.445449	0.583675	0.000069
 477	4.7362e+01	9.4810	56.469436	0.000365	3.648123	0.618009	0.000073
 478	4.7462e+01	9.5033	56.562290	0.000466	4.661490	0.789678	0.000093
 479	4.7561e+01	9.5211	56.651107	0.000446	4.458817	0.755344	0.000089
 480	4.7660e+01	9.5396	56.756073	0.000527	5.269511	0.892679	0.000105
 481	4.7760e+01	9.5605	56.844890	0.000446	4.458817	0.755344	0.000089
 482	4.7859e+01	9.5801	56.937744	0.000466	4.661490	0.789678	0.000093
 483	4.7959e+01	9.5998	57.026561	0.000446	4.458817	0.755344	0.000089
 484	4.8059e+01	9.6200	57.115378	0.000446	4.458817	0.755344	0.000089
 485	4.8158e+01	9.6399	57.208232	0.000466	4.661490	0.789678	0.000093
 486	4.8258e+01	9.6606	57.301086	0.000466	4.661490	0.789678	0.000093
 487	4.8357e+01	9.6802	57.393940	0.000466	4.661490	0.789678	0.000093
 488	4.8456e+01	9.6997	57.478720	0.000426	4.256143	0.721010	0.000085
 489	4.8556e+01	9.7176	57.583686	0.000527	5.269511	0.892679	0.000105
 490	4.8656e+01	9.7390	57.636168	0.000263	2.634755	0.446340	0.000053
 491	4.8755e+01	9.7590	57.720948	0.000426	4.256143	0.721010	0.000085
 492	4.8855e+01	9.7782	57.777468	0.000284	2.837429	0.480673	0.000057
 493	4.8954e+01	9.7982	57.894545	0.000588	5.877531	0.995681	0.000118
 494	4.9053e+01	9.8187	57.963176	0.000345	3.445449	0.583675	0.000069
 495	4.9153e+01	9.8382	58.060068	0.000486	4.864164	0.824012	0.000097
 496	4.9252e+01	9.8585	58.136773	0.000385	3.850796	0.652343	0.000077
 497	4.9352e+01	9.8794	58.257887	0.000608	6.080205	1.030015	0.000122
 498	4.9452e+01	9.8978	58.302296	0.000223	2.229408	0.377672	0.000045
 499	4.9551e+01	9.9177	58.379001	0.000385	3.850796	0.652343	0.000077
 500	4.9651e+01	9.9384	58.492041	0.000567	5.674858	0.961347	0.000114
 501	4.9750e+01	9.9581	58.601044	0.000547	5.472184	0.927013	0.000110
 502	4.9849e+01	9.9784	58.657564	0.000284	2.837429	0.480673	0.000057
 503	4.9949e+01	9.9993	58.746381	0.000446	4.458817	0.755344	0.000089
 504	5.0048e+01	9.9783	58.677749	0.000345	3.445449	0.583675	-0.000069
 505	5.0148e+01	9.9580	58.621229	0.000284	2.837429	0.480673	-0.000057
 506	5.0248e+01	9.9390	58.609118	0.000061	0.608020	0.103001	-0.000012
 507	5.0347e+01	9.9180	58.524338	0.000426	4.256143	0.721010	-0.000085
 508	5.0447e+01	9.8983	58.451670	0.000365	3.648123	0.618009	-0.000073
 509	5.0546e+01	9.8782	58.423410	0.000142	1.418714	0.240337	-0.000028
 510	5.0645e+01	9.8590	58.338630	0.000426	4.256143	0.721010	-0.000085
 511	5.0745e+01	9.8392	58.298259	0.000203	2.026735	0.343338	-0.000041
 512	5.0844e+01	9.8193	58.229627	0.000345	3.445449	0.583675	-0.000069
 513	5.0944e+01	9.7987	58.185219	0.000223	2.229408	0.377672	-0.000045
 514	5.1044e+01	9.7796	58.120625	0.000324	3.242776	0.549341	-0.000065
 515	5.1143e+01	9.7595	58.043919	0.000385	3.850796	0.652343	-0.000077
 516	5.1242e+01	9.7390	57.983362	0.000304	3.040102	0.515007	-0.000061
 517	5.1342e+01	9.7195	57.926842	0.000284	2.837429	0.480673	-0.000057
 518	5.1441e+01	9.6988	57.874359	0.000263	2.634755	0.446340	-0.000053
 519	5.1541e+01	9.6799	57.789580	0.000426	4.256143	0.721010	-0.000085
 520	5.1641e+01	9.6595	57.733060	0.000284	2.837429	0.480673	-0.000057
 521	5.1740e+01	9.6387	57.676540	0.000284	2.837429	0.480673	-0.000057
 522	5.1840e+01	9.6206	57.599834	0.000385	3.850796	0.652343	-0.000077
 523	5.1939e+01	9.5996	57.571574	0.000142	1.418714	0.240337	-0.000028
 524	5.2038e+01	9.5795	57.474683	0.000486	4.864164	0.824012	-0.000097
 525	5.2138e+01	9.5591	57.418163	0.000284	2.837429	0.480673	-0.000057
 526	5.2237e+01	9.5410	57.361643	0.000284	2.837429	0.480673	-0.000057
 527	5.2337e+01	9.5216	57.276863	0.000426	4.256143	0.721010	-0.000085
 528	5.2437e+01	9.4995	57.236492	0.000203	2.026735	0.343338	-0.000041
 529	5.2536e+01	9.4802	57.155749	0.000405	4.053470	0.686676	-0.000081
 530	5.2636e+01	9.4604	57.095192	0.000304	3.040102	0.515007	-0.000061
 531	5.2735e+01	9.4410	57.014449	0.000405	4.053470	0.686676	-0.000081
 532	5.2834e+01	9.4202	56.941781	0.000365	3.648123	0.618009	-0.000073
 533	5.2934e+01	9.4007	56.913521	0.000142	1.418714	0.240337	-0.000028
 534	5.3033e+01	9.3812	56.780296	0.000669	6.688225	1.133016	-0.000134
 535	5.3133e+01	9.3610	56.743961	0.000182	1.824061	0.309004	-0.000037
 536	5.3233e+01	9.3408	56.683404	0.000304	3.040102	0.515007	-0.000061
 537	5.3332e+01	9.3213	56.582476	0.000507	5.066837	0.858345	-0.000101
 538	5.3431e+01	9.3003	56.550179	0.000162	1.621388	0.274671	-0.000032
 539	5.3531e+01	9.2810	56.420991	0.000649	6.485552	1.098682	-0.000130
 540	5.3630e+01	9.2611	56.352359	0.000345	3.445449	0.583675	-0.000069
 541	5.3730e+01	9.2414	56.320062	0.000162	1.621388	0.274671	-0.000032
 542	5.3830e+01	9.2213	56.223171	0.000486	4.864164	0.824012	-0.000097
 543	5.3929e+01	9.2010	56.186837	0.000182	1.824061	0.309004	-0.000037
 544	5.4029e+01	9.1803	56.106094	0.000405	4.053470	0.686676	-0.000081
 545	5.4128e+01	9.1627	56.037463	0.000345	3.445449	0.583675	-0.000069
 546	5.4227e+01	9.1410	55.940571	0.000486	4.864164	0.824012	-0.000097
 547	5.4327e+01	9.1221	55.867903	0.000365	3.648123	0.618009	-0.000073
 548	5.4426e+01	9.1016	55.811383	0.000284	2.837429	0.480673	-0.000057
 549	5.4526e+01	9.0811	55.771012	0.000203	2.026735	0.343338	-0.000041
 550	5.4626e+01	9.0591	55.653935	0.000588	5.877531	0.995681	-0.000118
 551	5.4725e+01	9.0424	55.557043	0.000486	4.864164	0.824012	-0.000097
 552	5.4825e+01	9.0229	55.516672	0.000203	2.026735	0.343338	-0.000041
 553	5.4924e+01	9.0010	55.460152	0.000284	2.837429	0.480673	-0.000057
 554	5.5023e+01	8.9819	55.391521	0.000345	3.445449	0.583675	-0.000069
 555	5.5123e+01	8.9626	55.314815	0.000385	3.850796	0.652343	-0.000077
 556	5.5222e+01	8.9425	55.234073	0.000405	4.053470	0.686676	-0.000081
 557	5.5322e+01	8.9226	55.161404	0.000365	3.648123	0.618009	-0.000073
 558	5.5422e+01	8.9024	55.068550	0.000466	4.661490	0.789678	-0.000093
 559	5.5521e+01	8.8824	55.028179	0.000203	2.026735	0.343338	-0.000041
 560	5.5620e+01	8.8628	54.943399	0.000426	4.256143	0.721010	-0.000085
 561	5.5720e+01	8.8428	54.850545	0.000466	4.661490	0.789678	-0.000093
 562	5.5819e+01	8.8226	54.785951	0.000324	3.242776	0.549341	-0.000065
 563	5.5919e+01	8.8030	54.725393	0.000304	3.040102	0.515007	-0.000061
 564	5.6019e+01	8.7842	54.644651	0.000405	4.053470	0.686676	-0.000081
 565	5.6118e+01	8.7646	54.555834	0.000446	4.458817	0.755344	-0.000089
 566	5.6218e+01	8.7431	54.487202	0.000345	3.445449	0.583675	-0.000069
 567	5.6317e+01	8.7240	54.390311	0.000486	4.864164	0.824012	-0.000097
 568	5.6416e+01	8.7046	54.349940	0.000203	2.026735	0.343338	-0.000041
 569	5.6516e+01	8.6843	54.285346	0.000324	3.242776	0.549341	-0.000065
 570	5.6615e+01	8.6651	54.208640	0.000385	3.850796	0.652343	-0.000077
 571	5.6715e+01	8.6444	54.107712	0.000507	5.066837	0.858345	-0.000101
 572	5.6815e+01	8.6254	54.067340	0.000203	2.026735	0.343338	-0.000041
 573	5.6914e+01	8.6051	53.970449	0.000486	4.864164	0.824012	-0.000097
 574	5.7014e+01	8.5853	53.897781	0.000365	3.648123	0.618009	-0.000073
 575	5.7113e+01	8.5650	53.817038	0.000405	4.053470	0.686676	-0.000081
 576	5.7212e+01	8.5439	53.748407	0.000345	3.445449	0.583675	-0.000069
 577	5.7312e+01	8.5256	53.667664	0.000405	4.053470	0.686676	-0.000081
 578	5.7411e+01	8.5046	53.570773	0.000486	4.864164	0.824012	-0.000097
 579	5.7511e+01	8.4856	53.510216	0.000304	3.040102	0.515007	-0.000061
 580	5.7611e+01	8.4656	53.437547	0.000365	3.648123	0.618009	-0.000073
 581	5.7710e+01	8.4448	53.393139	0.000223	2.229408	0.377672	-0.000045
 582	5.7809e+01	8.4258	53.328545	0.000324	3.242776	0.549341	-0.000065
 583	5.7909e+01	8.4057	53.239728	0.000446	4.458817	0.755344	-0.000089
 584	5.8008e+01	8.3857	53.138799	0.000507	5.066837	0.858345	-0.000101
 585	5.8108e+01	8.3656	53.070168	0.000345	3.445449	0.583675	-0.000069
 586	5.8208e+01	8.3456	52.989425	0.000405	4.053470	0.686676	-0.000081
 587	5.8307e+01	8.3254	52.949054	0.000203	2.026735	0.343338	-0.000041
 588	5.8407e+01	8.3057	52.860237	0.000446	4.458817	0.755344	-0.000089
 589	5.8506e+01	8.2854	52.759308	0.000507	5.066837	0.858345	-0.000101
 590	5.8605e+01	8.2658	52.678566	0.000405	4.053470	0.686676	-0.000081
 591	5.8705e+01	8.2460	52.605897	0.000365	3.648123	0.618009	-0.000073
 592	5.8804e+01	8.2272	52.533229	0.000365	3.648123	0.618009	-0.000073
 593	5.8904e+01	8.2069	52.460560	0.000365	3.648123	0.618009	-0.000073
 594	5.9004e+01	8.1871	52.387892	0.000365	3.648123	0.618009	-0.000073
 595	5.9103e+01	8.1668	52.266778	0.000608	6.080205	1.030015	-0.000122
 596	5.9203e+01	8.1464	52.206221	0.000304	3.040102	0.515007	-0.000061
 597	5.9302e+01	8.1266	52.145664	0.000304	3.040102	0.515007	-0.000061
 598	5.9401e+01	8.1073	52.036661	0.000547	5.472184	0.927013	-0.000110
 599	5.9501e+01	8.0875	52.016475	0.000101	1.013367	0.171669	-0.000020
 600	5.9600e+01	8.0668	51.895361	0.000608	6.080205	1.030015	-0.000122
 601	5.9700e+01	8.0474	51.838841	0.000284	2.837429	0.480673	-0.000057
 602	5.9800e+01	8.0273	51.729839	0.000547	5.472184	0.927013	-0.000110
 603	5.9899e+01	8.0071	51.649096	0.000405	4.053470	0.686676	-0.000081
 604	5.9998e+01	7.9855	51.604688	0.000223	2.229408	0.377672	-0.000045
 605	6.0098e+01	7.9675	51.499722	0.000527	5.269511	0.892679	-0.000105
 606	6.0197e+01	7.9472	51.443202	0.000284	2.837429	0.480673	-0.000057
 607	6.0297e+01	7.9266	51.330162	0.000567	5.674858	0.961347	-0.000114
 608	6.0397e+01	7.9076	51.253457	0.000385	3.850796	0.652343	-0.000077
 609	6.0496e+01	7.8876	51.140417	0.000567	5.674858	0.961347	-0.000114
 610	6.0596e+01	7.8681	51.104083	0.000182	1.824061	0.309004	-0.000037
 611	6.0695e+01	7.8469	51.015266	0.000446	4.458817	0.755344	-0.000089
 612	6.0794e+01	7.8272	50.987006	0.000142	1.418714	0.240337	-0.000028
 613	6.0894e+01	7.8069	50.833595	0.000770	7.701593	1.304685	-0.000154
 614	6.0993e+01	7.7872	50.833595	-0.000000	-0.000000	-0.000000	0.000000
 615	6.1093e+01	7.7686	50.728629	0.000527	5.269511	0.892679	-0.000105
 616	6.1193e+01	7.7480	50.639812	0.000446	4.458817	0.755344	-0.000089
 617	6.1292e+01	7.7280	50.567144	0.000365	3.648123	0.618009	-0.000073
 618	6.1392e+01	7.7084	50.498512	0.000345	3.445449	0.583675	-0.000069
 619	6.1491e+01	7.6881	50.405658	0.000466	4.661490	0.789678	-0.000093
 620	6.1590e+01	7.6679	50.308767	0.000486	4.864164	0.824012	-0.000097
 621	6.1690e+01	7.6485	50.288581	0.000101	1.013367	0.171669	-0.000020
 622	6.1789e+01	7.6295	50.199764	0.000446	4.458817	0.755344	-0.000089
 623	6.1889e+01	7.6089	50.082687	0.000588	5.877531	0.995681	-0.000118
 624	6.1989e+01	7.5894	50.005982	0.000385	3.850796	0.652343	-0.000077
 625	6.2088e+01	7.5692	49.941388	0.000324	3.242776	0.549341	-0.000065
 626	6.2188e+01	7.5483	49.840459	0.000507	5.066837	0.858345	-0.000101
 627	6.2287e+01	7.5285	49.796051	0.000223	2.229408	0.377672	-0.000045
 628	6.2386e+01	7.5085	49.683011	0.000567	5.674858	0.961347	-0.000114
 629	6.2486e+01	7.4897	49.622454	0.000304	3.040102	0.515007	-0.000061
 630	6.2586e+01	7.4684	49.533637	0.000446	4.458817	0.755344	-0.000089
 631	6.2685e+01	7.4491	49.473080	0.000304	3.040102	0.515007	-0.000061
 632	6.2785e+01	7.4300	49.380226	0.000466	4.661490	0.789678	-0.000093
 633	6.2884e+01	7.4102	49.315632	0.000324	3.242776	0.549341	-0.000065
 634	6.2983e+01	7.3898	49.186443	0.000649	6.485552	1.098682	-0.000130
 635	6.3083e+01	7.3690	49.093589	0.000466	4.661490	0.789678	-0.000093
 636	6.3182e+01	7.3495	49.012846	0.000405	4.053470	0.686676	-0.000081
 637	6.3282e+01	7.3297	48.952289	0.000304	3.040102	0.515007	-0.000061
 638	6.3382e+01	7.3089	48.879621	0.000365	3.648123	0.618009	-0.000073
 639	6.3481e+01	7.2905	48.790804	0.000446	4.458817	0.755344	-0.000089
 640	6.3581e+01	7.2692	48.714098	0.000385	3.850796	0.652343	-0.000077
 641	6.3680e+01	7.2503	48.641430	0.000365	3.648123	0.618009	-0.000073
 642	6.3779e+01	7.2298	48.552613	0.000446	4.458817	0.755344	-0.000089
 643	6.3879e+01	7.2106	48.439573	0.000567	5.674858	0.961347	-0.000114
 644	6.3978e+01	7.1905	48.354793	0.000426	4.256143	0.721010	-0.000085
 645	6.4078e+01	7.1699	48.310385	0.000223	2.229408	0.377672	-0.000045
 646	6.4177e+01	7.1508	48.169085	0.000709	7.093572	1.201684	-0.000142
 647	6.4277e+01	7.1313	48.104491	0.000324	3.242776	0.549341	-0.000065
 648	6.4376e+01	7.1105	48.043934	0.000304	3.040102	0.515007	-0.000061
 649	6.4476e+01	7.0910	47.999525	0.000223	2.229408	0.377672	-0.000045
 650	6.4576e+01	7.0707	47.882448	0.000588	5.877531	0.995681	-0.000118
 651	6.4675e+01	7.0513	47.809780	0.000365	3.648123	0.618009	-0.000073
 652	6.4775e+01	7.0306	47.733074	0.000385	3.850796	0.652343	-0.000077
 653	6.4874e+01	7.0113	47.607923	0.000628	6.282878	1.064348	-0.000126
 654	6.4974e+01	6.9898	47.527180	0.000405	4.053470	0.686676	-0.000081
 655	6.5073e+01	6.9704	47.454512	0.000365	3.648123	0.618009	-0.000073
 656	6.5172e+01	6.9512	47.369732	0.000426	4.256143	0.721010	-0.000085
 657	6.5272e+01	6.9320	47.264767	0.000527	5.269511	0.892679	-0.000105
 658	6.5371e+01	6.9112	47.208247	0.000284	2.837429	0.480673	-0.000057
 659	6.5471e+01	6.8918	47.119430	0.000446	4.458817	0.755344	-0.000089
 660	6.5570e+01	6.8720	47.042724	0.000385	3.850796	0.652343	-0.000077
 661	6.5670e+01	6.8523	46.949870	0.000466	4.661490	0.789678	-0.000093
 662	6.5769e+01	6.8325	46.869127	0.000405	4.053470	0.686676	-0.000081
 663	6.5869e+01	6.8118	46.772236	0.000486	4.864164	0.824012	-0.000097
 664	6.5969e+01	6.7914	46.695531	0.000385	3.850796	0.652343	-0.000077
 665	6.6068e+01	6.7715	46.594602	0.000507	5.066837	0.858345	-0.000101
 666	6.6168e+01	6.7515	46.501748	0.000466	4.661490	0.789678	-0.000093
 667	6.6267e+01	6.7321	46.421005	0.000405	4.053470	0.686676	-0.000081
 668	6.6367e+01	6.7117	46.320077	0.000507	5.066837	0.858345	-0.000101
 669	6.6466e+01	6.6921	46.279706	0.000203	2.026735	0.343338	-0.000041
 670	6.6566e+01	6.6732	46.146480	0.000669	6.688225	1.133016	-0.000134
 671	6.6665e+01	6.6527	46.085923	0.000304	3.040102	0.515007	-0.000061
 672	6.6764e+01	6.6314	46.013255	0.000365	3.648123	0.618009	-0.000073
 673	6.6864e+01	6.6122	45.908289	0.000527	5.269511	0.892679	-0.000105
 674	6.6963e+01	6.5932	45.791212	0.000588	5.877531	0.995681	-0.000118
 675	6.7063e+01	6.5728	45.690284	0.000507	5.066837	0.858345	-0.000101
 676	6.7162e+01	6.5528	45.617615	0.000365	3.648123	0.618009	-0.000073
 677	6.7262e+01	6.5330	45.557058	0.000304	3.040102	0.515007	-0.000061
 678	6.7362e+01	6.5142	45.484390	0.000365	3.648123	0.618009	-0.000073
 679	6.7461e+01	6.4931	45.383461	0.000507	5.066837	0.858345	-0.000101
 680	6.7561e+01	6.4736	45.294644	0.000446	4.458817	0.755344	-0.000089
 681	6.7660e+01	6.4532	45.205827	0.000446	4.458817	0.755344	-0.000089
 682	6.7760e+01	6.4336	45.145270	0.000304	3.040102	0.515007	-0.000061
 683	6.7859e+01	6.4129	45.056453	0.000446	4.458817	0.755344	-0.000089
 684	6.7959e+01	6.3934	44.951488	0.000527	5.269511	0.892679	-0.000105
 685	6.8058e+01	6.3723	44.858634	0.000466	4.661490	0.789678	-0.000093
 686	6.8157e+01	6.3533	44.790002	0.000345	3.445449	0.583675	-0.000069
 687	6.8257e+01	6.3337	44.705223	0.000426	4.256143	0.721010	-0.000085
 688	6.8356e+01	6.3136	44.571997	0.000669	6.688225	1.133016	-0.000134
 689	6.8456e+01	6.2951	44.547774	0.000122	1.216041	0.206003	-0.000024
 690	6.8555e+01	6.2745	44.406475	0.000709	7.093572	1.201684	-0.000142
 691	6.8655e+01	6.2542	44.370140	0.000182	1.824061	0.309004	-0.000037
 692	6.8754e+01	6.2347	44.273249	0.000486	4.864164	0.824012	-0.000097
 693	6.8854e+01	6.2142	44.156172	0.000588	5.877531	0.995681	-0.000118
 694	6.8954e+01	6.1938	44.059281	0.000486	4.864164	0.824012	-0.000097
 695	6.9053e+01	6.1752	43.954315	0.000527	5.269511	0.892679	-0.000105
 696	6.9153e+01	6.1552	43.841276	0.000567	5.674858	0.961347	-0.000114
 697	6.9252e+01	6.1351	43.768607	0.000365	3.648123	0.618009	-0.000073
 698	6.9352e+01	6.1155	43.708050	0.000304	3.040102	0.515007	-0.000061
 699	6.9451e+01	6.0961	43.586936	0.000608	6.080205	1.030015	-0.000122
 700	6.9550e+01	6.0758	43.477933	0.000547	5.472184	0.927013	-0.000110
 701	6.9650e+01	6.0549	43.393153	0.000426	4.256143	0.721010	-0.000085
 702	6.9749e+01	6.0357	43.304336	0.000446	4.458817	0.755344	-0.000089
 703	6.9849e+01	6.0159	43.219557	0.000426	4.256143	0.721010	-0.000085
 704	6.9948e+01	5.9963	43.122665	0.000486	4.864164	0.824012	-0.000097
 705	7.0048e+01	5.9766	43.049997	0.000365	3.648123	0.618009	-0.000073
 706	7.0147e+01	5.9550	42.908697	0.000709	7.093572	1.201684	-0.000142
 707	7.0247e+01	5.9354	42.856214	0.000263	2.634755	0.446340	-0.000053
 708	7.0347e+01	5.9167	42.779509	0.000385	3.850796	0.652343	-0.000077
 709	7.0446e+01	5.8958	42.638209	0.000709	7.093572	1.201684	-0.000142
 710	7.0546e+01	5.8752	42.557466	0.000405	4.053470	0.686676	-0.000081
 711	7.0645e+01	5.8571	42.468649	0.000446	4.458817	0.755344	-0.000089
 712	7.0745e+01	5.8374	42.351572	0.000588	5.877531	0.995681	-0.000118
 713	7.0844e+01	5.8164	42.278904	0.000365	3.648123	0.618009	-0.000073
 714	7.0944e+01	5.7960	42.218347	0.000304	3.040102	0.515007	-0.000061
 715	7.1043e+01	5.7763	42.101270	0.000588	5.877531	0.995681	-0.000118
 716	7.1142e+01	5.7566	41.996305	0.000527	5.269511	0.892679	-0.000105
 717	7.1242e+01	5.7366	41.875190	0.000608	6.080205	1.030015	-0.000122
 718	7.1341e+01	5.7178	41.774262	0.000507	5.066837	0.858345	-0.000101
 719	7.1441e+01	5.6973	41.705631	0.000345	3.445449	0.583675	-0.000069
 720	7.1540e+01	5.6762	41.600665	0.000527	5.269511	0.892679	-0.000105
 721	7.1640e+01	5.6567	41.527997	0.000365	3.648123	0.618009	-0.000073
 722	7.1740e+01	5.6368	41.435143	0.000466	4.661490	0.789678	-0.000093
 723	7.1839e+01	5.6176	41.326140	0.000547	5.472184	0.927013	-0.000110
 724	7.1939e+01	5.5981	41.205026	0.000608	6.080205	1.030015	-0.000122
 725	7.2038e+01	5.5769	41.108135	0.000486	4.864164	0.824012	-0.000097
 726	7.2138e+01	5.5575	41.035466	0.000365	3.648123	0.618009	-0.000073
 727	7.2237e+01	5.5383	40.914352	0.000608	6.080205	1.030015	-0.000122
 728	7.2337e+01	5.5169	40.898204	0.000081	0.810694	0.137335	-0.000016
 729	7.2436e+01	5.4974	40.752867	0.000730	7.296246	1.236017	-0.000146
 730	7.2535e+01	5.4777	40.664050	0.000446	4.458817	0.755344	-0.000089
 731	7.2635e+01	5.4574	40.555047	0.000547	5.472184	0.927013	-0.000110
 732	7.2734e+01	5.4382	40.474304	0.000405	4.053470	0.686676	-0.000081
 733	7.2834e+01	5.4176	40.357227	0.000588	5.877531	0.995681	-0.000118
 734	7.2933e+01	5.3976	40.252262	0.000527	5.269511	0.892679	-0.000105
 735	7.3033e+01	5.3780	40.175556	0.000385	3.850796	0.652343	-0.000077
 736	7.3132e+01	5.3579	40.082702	0.000466	4.661490	0.789678	-0.000093
 737	7.3232e+01	5.3378	39.985811	0.000486	4.864164	0.824012	-0.000097
 738	7.3332e+01	5.3177	39.872771	0.000567	5.674858	0.961347	-0.000114
 739	7.3431e+01	5.2979	39.792028	0.000405	4.053470	0.686676	-0.000081
 740	7.3531e+01	5.2779	39.666877	0.000628	6.282878	1.064348	-0.000126
 741	7.3630e+01	5.2588	39.582097	0.000426	4.256143	0.721010	-0.000085
 742	7.3730e+01	5.2384	39.485206	0.000486	4.864164	0.824012	-0.000097
 743	7.3829e+01	5.2187	39.376203	0.000547	5.472184	0.927013	-0.000110
 744	7.3928e+01	5.1980	39.291424	0.000426	4.256143	0.721010	-0.000085
 745	7.4028e+01	5.1746	39.206644	0.000426	4.256143	0.721010	-0.000085
 746	7.4127e+01	5.1588	39.121864	0.000426	4.256143	0.721010	-0.000085
 747	7.4227e+01	5.1389	38.988638	0.000669	6.688225	1.133016	-0.000134
 748	7.4326e+01	5.1187	38.903859	0.000426	4.256143	0.721010	-0.000085
 749	7.4426e+01	5.1003	38.815042	0.000446	4.458817	0.755344	-0.000089
 750	7.4525e+01	5.0784	38.702002	0.000567	5.674858	0.961347	-0.000114
 751	7.4625e+01	5.0584	38.588962	0.000567	5.674858	0.961347	-0.000114
 752	7.4725e+01	5.0396	38.496108	0.000466	4.661490	0.789678	-0.000093
 753	7.4824e+01	5.0208	38.415365	0.000405	4.053470	0.686676	-0.000081
 754	7.4924e+01	5.0002	38.318474	0.000486	4.864164	0.824012	-0.000097
 755	7.5023e+01	4.9807	38.221583	0.000486	4.864164	0.824012	-0.000097
 756	7.5123e+01	4.9604	38.116617	0.000527	5.269511	0.892679	-0.000105
 757	7.5222e+01	4.9404	38.047986	0.000345	3.445449	0.583675	-0.000069
 758	7.5322e+01	4.9207	37.914760	0.000669	6.688225	1.133016	-0.000134
 759	7.5421e+01	4.8997	37.809795	0.000527	5.269511	0.892679	-0.000105
 760	7.5520e+01	4.8803	37.692718	0.000588	5.877531	0.995681	-0.000118
 761	7.5620e+01	4.8605	37.575641	0.000588	5.877531	0.995681	-0.000118
 762	7.5719e+01	4.8398	37.494898	0.000405	4.053470	0.686676	-0.000081
 763	7.5819e+01	4.8199	37.406081	0.000446	4.458817	0.755344	-0.000089
 764	7.5918e+01	4.8003	37.268819	0.000689	6.890899	1.167350	-0.000138
 765	7.6018e+01	4.7808	37.163853	0.000527	5.269511	0.892679	-0.000105
 766	7.6118e+01	4.7604	37.058888	0.000527	5.269511	0.892679	-0.000105
 767	7.6217e+01	4.7398	36.998330	0.000304	3.040102	0.515007	-0.000061
 768	7.6317e+01	4.7217	36.905476	0.000466	4.661490	0.789678	-0.000093
 769	7.6416e+01	4.7013	36.780325	0.000628	6.282878	1.064348	-0.000126
 770	7.6516e+01	4.6815	36.663248	0.000588	5.877531	0.995681	-0.000118
 771	7.6615e+01	4.6604	36.578468	0.000426	4.256143	0.721010	-0.000085
 772	7.6715e+01	4.6410	36.481577	0.000486	4.864164	0.824012	-0.000097
 773	7.6814e+01	4.6212	36.336240	0.000730	7.296246	1.236017	-0.000146
 774	7.6913e+01	4.6014	36.259535	0.000385	3.850796	0.652343	-0.000077
 775	7.7013e+01	4.5828	36.142458	0.000588	5.877531	0.995681	-0.000118
 776	7.7112e+01	4.5612	36.029418	0.000567	5.674858	0.961347	-0.000114
 777	7.7212e+01	4.5419	35.928490	0.000507	5.066837	0.858345	-0.000101
 778	7.7311e+01	4.5219	35.867932	0.000304	3.040102	0.515007	-0.000061
 779	7.7411e+01	4.5022	35.730670	0.000689	6.890899	1.167350	-0.000138
 780	7.7510e+01	4.4821	35.621667	0.000547	5.472184	0.927013	-0.000110
 781	7.7610e+01	4.4609	35.524776	0.000486	4.864164	0.824012	-0.000097
 782	7.7710e+01	4.4419	35.448070	0.000385	3.850796	0.652343	-0.000077
 783	7.7809e+01	4.4219	35.343105	0.000527	5.269511	0.892679	-0.000105
 784	7.7909e+01	4.4021	35.258325	0.000426	4.256143	0.721010	-0.000085
 785	7.8008e+01	4.3826	35.129137	0.000649	6.485552	1.098682	-0.000130
 786	7.8108e+01	4.3628	35.060505	0.000345	3.445449	0.583675	-0.000069
 787	7.8207e+01	4.3427	34.915168	0.000730	7.296246	1.236017	-0.000146
 788	7.8306e+01	4.3221	34.822314	0.000466	4.661490	0.789678	-0.000093
 789	7.8406e+01	4.3029	34.729460	0.000466	4.661490	0.789678	-0.000093
 790	7.8505e+01	4.2822	34.632569	0.000486	4.864164	0.824012	-0.000097
 791	7.8605e+01	4.2623	34.547789	0.000426	4.256143	0.721010	-0.000085
 792	7.8704e+01	4.2420	34.410526	0.000689	6.890899	1.167350	-0.000138
 793	7.8804e+01	4.2221	34.358044	0.000263	2.634755	0.446340	-0.000053
 794	7.8903e+01	4.2023	34.208670	0.000750	7.498919	1.270351	-0.000150
 795	7.9003e+01	4.1771	34.123890	0.000426	4.256143	0.721010	-0.000085
 796	7.9103e+01	4.1621	34.018924	0.000527	5.269511	0.892679	-0.000105
 797	7.9202e+01	4.1431	33.917996	0.000507	5.066837	0.858345	-0.000101
 798	7.9302e+01	4.1237	33.825142	0.000466	4.661490	0.789678	-0.000093
 799	7.9401e+01	4.1033	33.671731	0.000770	7.701593	1.304685	-0.000154
 800	7.9501e+01	4.0833	33.590988	0.000405	4.053470	0.686676	-0.000081
 801	7.9600e+01	4.0639	33.486022	0.000527	5.269511	0.892679	-0.000105
 802	7.9700e+01	4.0437	33.385094	0.000507	5.066837	0.858345	-0.000101
 803	7.9799e+01	4.0240	33.255906	0.000649	6.485552	1.098682	-0.000130
 804	7.9898e+01	4.0038	33.195349	0.000304	3.040102	0.515007	-0.000061
 805	7.9998e+01	3.9832	33.033863	0.000811	8.106940	1.373353	-0.000162
 806	8.0097e+01	3.9636	32.981380	0.000263	2.634755	0.446340	-0.000053
 807	8.0197e+01	3.9436	32.884489	0.000486	4.864164	0.824012	-0.000097
 808	8.0296e+01	3.9245	32.767412	0.000588	5.877531	0.995681	-0.000118
 809	8.0396e+01	3.9046	32.614001	0.000770	7.701593	1.304685	-0.000154
 810	8.0496e+01	3.8830	32.521147	0.000466	4.661490	0.789678	-0.000093
 811	8.0595e+01	3.8642	32.400033	0.000608	6.080205	1.030015	-0.000122
 812	8.0695e+01	3.8436	32.319290	0.000405	4.053470	0.686676	-0.000081
 813	8.0794e+01	3.8239	32.210287	0.000547	5.472184	0.927013	-0.000110
 814	8.0894e+01	3.8042	32.117433	0.000466	4.661490	0.789678	-0.000093
 815	8.0993e+01	3.7841	32.020542	0.000486	4.864164	0.824012	-0.000097
 816	8.1093e+01	3.7647	31.895391	0.000628	6.282878	1.064348	-0.000126
 817	8.1192e+01	3.7454	31.778314	0.000588	5.877531	0.995681	-0.000118
 818	8.1291e+01	3.7252	31.693534	0.000426	4.256143	0.721010	-0.000085
 819	8.1391e+01	3.7052	31.568383	0.000628	6.282878	1.064348	-0.000126
 820	8.1490e+01	3.6846	31.435157	0.000669	6.688225	1.133016	-0.000134
 821	8.1590e+01	3.6657	31.346340	0.000446	4.458817	0.755344	-0.000089
 822	8.1689e+01	3.6449	31.213115	0.000669	6.688225	1.133016	-0.000134
 823	8.1789e+01	3.6265	31.148521	0.000324	3.242776	0.549341	-0.000065
 824	8.1888e+01	3.6042	31.019332	0.000649	6.485552	1.098682	-0.000130
 825	8.1988e+01	3.5857	30.934553	0.000426	4.256143	0.721010	-0.000085
 826	8.2088e+01	3.5656	30.801327	0.000669	6.688225	1.133016	-0.000134
 827	8.2187e+01	3.5458	30.688287	0.000567	5.674858	0.961347	-0.000114
 828	8.2287e+01	3.5253	30.579285	0.000547	5.472184	0.927013	-0.000110
 829	8.2386e+01	3.5056	30.502579	0.000385	3.850796	0.652343	-0.000077
 830	8.2486e+01	3.4850	30.381465	0.000608	6.080205	1.030015	-0.000122
 831	8.2585e+01	3.4664	30.252277	0.000649	6.485552	1.098682	-0.000130
 832	8.2684e+01	3.4454	30.155385	0.000486	4.864164	0.824012	-0.000097
 833	8.2784e+01	3.4263	30.038308	0.000588	5.877531	0.995681	-0.000118
 834	8.2883e+01	3.4056	29.909120	0.000649	6.485552	1.098682	-0.000130
 835	8.2983e+01	3.3855	29.788006	0.000608	6.080205	1.030015	-0.000122
 836	8.3082e+01	3.3665	29.711300	0.000385	3.850796	0.652343	-0.000077
 837	8.3182e+01	3.3461	29.610372	0.000507	5.066837	0.858345	-0.000101
 838	8.3281e+01	3.3259	29.485221	0.000628	6.282878	1.064348	-0.000126
 839	8.3381e+01	3.3065	29.388330	0.000486	4.864164	0.824012	-0.000097
 840	8.3481e+01	3.2867	29.275290	0.000567	5.674858	0.961347	-0.000114
 841	8.3580e+01	3.2665	29.121879	0.000770	7.701593	1.304685	-0.000154
 842	8.3680e+01	3.2464	29.024987	0.000486	4.864164	0.824012	-0.000097
 843	8.3779e+01	3.2269	28.928096	0.000486	4.864164	0.824012	-0.000097
 844	8.3879e+01	3.2066	28.815056	0.000567	5.674858	0.961347	-0.000114
 845	8.3978e+01	3.1867	28.677794	0.000689	6.890899	1.167350	-0.000138
 846	8.4078e+01	3.1670	28.609162	0.000345	3.445449	0.583675	-0.000069
 847	8.4177e+01	3.1478	28.479974	0.000649	6.485552	1.098682	-0.000130
 848	8.4276e+01	3.1266	28.362897	0.000588	5.877531	0.995681	-0.000118
 849	8.4376e+01	3.1071	28.253894	0.000547	5.472184	0.927013	-0.000110
 850	8.4475e+01	3.0878	28.152966	0.000507	5.066837	0.858345	-0.000101
 851	8.4575e+01	3.0666	28.043963	0.000547	5.472184	0.927013	-0.000110
 852	8.4674e+01	3.0474	27.906701	0.000689	6.890899	1.167350	-0.000138
 853	8.4774e+01	3.0278	27.813847	0.000466	4.661490	0.789678	-0.000093
 854	8.4874e+01	3.0068	27.708881	0.000527	5.269511	0.892679	-0.000105
 855	8.4973e+01	2.9857	27.575656	0.000669	6.688225	1.133016	-0.000134
 856	8.5073e+01	2.9675	27.507024	0.000345	3.445449	0.583675	-0.000069
 857	8.5172e+01	2.9486	27.369762	0.000689	6.890899	1.167350	-0.000138
 858	8.5272e+01	2.9284	27.260759	0.000547	5.472184	0.927013	-0.000110
 859	8.5371e+01	2.9085	27.155794	0.000527	5.269511	0.892679	-0.000105
 860	8.5471e+01	2.8875	27.038717	0.000588	5.877531	0.995681	-0.000118
 861	8.5570e+01	2.8674	26.893380	0.000730	7.296246	1.236017	-0.000146
 862	8.5669e+01	2.8482	26.760154	0.000669	6.688225	1.133016	-0.000134
 863	8.5769e+01	2.8277	26.647114	0.000567	5.674858	0.961347	-0.000114
 864	8.5868e+01	2.8087	26.546186	0.000507	5.066837	0.858345	-0.000101
 865	8.5968e+01	2.7891	26.433146	0.000567	5.674858	0.961347	-0.000114
 866	8.6067e+01	2.7685	26.312032	0.000608	6.080205	1.030015	-0.000122
 867	8.6167e+01	2.7487	26.243401	0.000345	3.445449	0.583675	-0.000069
 868	8.6266e+01	2.7287	26.102101	0.000709	7.093572	1.201684	-0.000142
 869	8.6366e+01	2.7092	25.976950	0.000628	6.282878	1.064348	-0.000126
 870	8.6466e+01	2.6894	25.876022	0.000507	5.066837	0.858345	-0.000101
 871	8.6565e+01	2.6685	25.746833	0.000649	6.485552	1.098682	-0.000130
 872	8.6665e+01	2.6488	25.617645	0.000649	6.485552	1.098682	-0.000130
 873	8.6764e+01	2.6287	25.512679	0.000527	5.269511	0.892679	-0.000105
 874	8.6864e+01	2.6086	25.383491	0.000649	6.485552	1.098682	-0.000130
 875	8.6963e+01	2.5890	25.266414	0.000588	5.877531	0.995681	-0.000118
 876	8.7063e+01	2.5690	25.149337	0.000588	5.877531	0.995681	-0.000118
 877	8.7162e+01	2.5494	25.012074	0.000689	6.890899	1.167350	-0.000138
 878	8.7261e+01	2.5289	24.915183	0.000486	4.864164	0.824012	-0.000097
 879	8.7361e+01	2.5099	24.830403	0.000426	4.256143	0.721010	-0.000085
 880	8.7460e+01	2.4899	24.664881	0.000831	8.309613	1.407687	-0.000166
 881	8.7560e+01	2.4691	24.563952	0.000507	5.066837	0.858345	-0.000101
 882	8.7659e+01	2.4499	24.438801	0.000628	6.282878	1.064348	-0.000126
 883	8.7759e+01	2.4297	24.313650	0.000628	6.282878	1.064348	-0.000126
 884	8.7859e+01	2.4110	24.200610	0.000567	5.674858	0.961347	-0.000114
 885	8.7958e+01	2.3904	24.107756	0.000466	4.661490	0.789678	-0.000093
 886	8.8058e+01	2.3692	23.966456	0.000709	7.093572	1.201684	-0.000142
 887	8.8157e+01	2.3499	23.841305	0.000628	6.282878	1.064348	-0.000126
 888	8.8257e+01	2.3310	23.740377	0.000507	5.066837	0.858345	-0.000101
 889	8.8356e+01	2.3106	23.643485	0.000486	4.864164	0.824012	-0.000097
 890	8.8456e+01	2.2906	23.514297	0.000649	6.485552	1.098682	-0.000130
 891	8.8555e+01	2.2700	23.356849	0.000790	7.904266	1.339019	-0.000158
 892	8.8654e+01	2.2504	23.235735	0.000608	6.080205	1.030015	-0.000122
 893	8.8754e+01	2.2292	23.130769	0.000527	5.269511	0.892679	-0.000105
 894	8.8853e+01	2.2101	22.977358	0.000770	7.701593	1.304685	-0.000154
 895	8.8953e+01	2.1913	22.888541	0.000446	4.458817	0.755344	-0.000089
 896	8.9052e+01	2.1712	22.779538	0.000547	5.472184	0.927013	-0.000110
 897	8.9152e+01	2.1522	22.674573	0.000527	5.269511	0.892679	-0.000105
 898	8.9251e+01	2.1309	22.561533	0.000567	5.674858	0.961347	-0.000114
 899	8.9351e+01	2.1116	22.379862	0.000912	9.120307	1.545022	-0.000183
 900	8.9451e+01	2.0910	22.287008	0.000466	4.661490	0.789678	-0.000093
 901	8.9550e+01	2.0706	22.182042	0.000527	5.269511	0.892679	-0.000105
 902	8.9650e+01	2.0509	22.056891	0.000628	6.282878	1.064348	-0.000126
 903	8.9749e+01	2.0318	21.939814	0.000588	5.877531	0.995681	-0.000118
 904	8.9849e+01	2.0115	21.802552	0.000689	6.890899	1.167350	-0.000138
 905	8.9948e+01	1.9912	21.717772	0.000426	4.256143	0.721010	-0.000085
 906	9.0047e+01	1.9704	21.560323	0.000790	7.904266	1.339019	-0.000158
 907	9.0147e+01	1.9518	21.447284	0.000567	5.674858	0.961347	-0.000114
 908	9.0246e+01	1.9316	21.334244	0.000567	5.674858	0.961347	-0.000114
 909	9.0346e+01	1.9126	21.217167	0.000588	5.877531	0.995681	-0.000118
 910	9.0445e+01	1.8917	21.079904	0.000689	6.890899	1.167350	-0.000138
 911	9.0545e+01	1.8719	20.950716	0.000649	6.485552	1.098682	-0.000130
 912	9.0644e+01	1.8520	20.861899	0.000446	4.458817	0.755344	-0.000089
 913	9.0744e+01	1.8320	20.744822	0.000588	5.877531	0.995681	-0.000118
 914	9.0844e+01	1.8121	20.567188	0.000892	8.917634	1.510688	-0.000179
 915	9.0943e+01	1.7918	20.470297	0.000486	4.864164	0.824012	-0.000097
 916	9.1043e+01	1.7722	20.341108	0.000649	6.485552	1.098682	-0.000130
 917	9.1142e+01	1.7531	20.219994	0.000608	6.080205	1.030015	-0.000122
 918	9.1242e+01	1.7327	20.119066	0.000507	5.066837	0.858345	-0.000101
 919	9.1341e+01	1.7115	20.010063	0.000547	5.472184	0.927013	-0.000110
 920	9.1441e+01	1.6919	19.892986	0.000588	5.877531	0.995681	-0.000118
 921	9.1540e+01	1.6722	19.739575	0.000770	7.701593	1.304685	-0.000154
 922	9.1639e+01	1.6517	19.606350	0.000669	6.688225	1.133016	-0.000134
 923	9.1739e+01	1.6328	19.501384	0.000527	5.269511	0.892679	-0.000105
 924	9.1838e+01	1.6132	19.396419	0.000527	5.269511	0.892679	-0.000105
 925	9.1938e+01	1.5932	19.243007	0.000770	7.701593	1.304685	-0.000154
 926	9.2037e+01	1.5735	19.134005	0.000547	5.472184	0.927013	-0.000110
 927	9.2137e+01	1.5526	19.057299	0.000385	3.850796	0.652343	-0.000077
 928	9.2237e+01	1.5331	18.916000	0.000709	7.093572	1.201684	-0.000142
 929	9.2336e+01	1.5133	18.762588	0.000770	7.701593	1.304685	-0.000154
 930	9.2436e+01	1.4935	18.669734	0.000466	4.661490	0.789678	-0.000093
 931	9.2535e+01	1.4727	18.536509	0.000669	6.688225	1.133016	-0.000134
 932	9.2635e+01	1.4542	18.387135	0.000750	7.498919	1.270351	-0.000150
 933	9.2734e+01	1.4339	18.266021	0.000608	6.080205	1.030015	-0.000122
 934	9.2834e+01	1.4132	18.128758	0.000689	6.890899	1.167350	-0.000138
 935	9.2933e+01	1.3938	18.007644	0.000608	6.080205	1.030015	-0.000122
 936	9.3032e+01	1.3737	17.898641	0.000547	5.472184	0.927013	-0.000110
 937	9.3132e+01	1.3541	17.749267	0.000750	7.498919	1.270351	-0.000150
 938	9.3231e+01	1.3335	17.636227	0.000567	5.674858	0.961347	-0.000114
 939	9.3331e+01	1.3138	17.515113	0.000608	6.080205	1.030015	-0.000122
 940	9.3430e+01	1.2938	17.385925	0.000649	6.485552	1.098682	-0.000130
 941	9.3530e+01	1.2744	17.240588	0.000730	7.296246	1.236017	-0.000146
 942	9.3629e+01	1.2553	17.147734	0.000466	4.661490	0.789678	-0.000093
 943	9.3729e+01	1.2348	17.014509	0.000669	6.688225	1.133016	-0.000134
 944	9.3829e+01	1.2154	16.869172	0.000730	7.296246	1.236017	-0.000146
 945	9.3928e+01	1.1958	16.776318	0.000466	4.661490	0.789678	-0.000093
 946	9.4028e+01	1.1745	16.659241	0.000588	5.877531	0.995681	-0.000118
 947	9.4127e+01	1.1549	16.530052	0.000649	6.485552	1.098682	-0.000130
 948	9.4227e+01	1.1357	16.429124	0.000507	5.066837	0.858345	-0.000101
 949	9.4326e+01	1.1148	16.275713	0.000770	7.701593	1.304685	-0.000154
 950	9.4425e+01	1.0950	16.158636	0.000588	5.877531	0.995681	-0.000118
 951	9.4525e+01	1.0762	16.049633	0.000547	5.472184	0.927013	-0.000110
 952	9.4624e+01	1.0555	15.888148	0.000811	8.106940	1.373353	-0.000162
 953	9.4724e+01	1.0346	15.791256	0.000486	4.864164	0.824012	-0.000097
 954	9.4823e+01	1.0164	15.658031	0.000669	6.688225	1.133016	-0.000134
 955	9.4923e+01	0.9959	15.528843	0.000649	6.485552	1.098682	-0.000130
 956	9.5022e+01	0.9760	15.399654	0.000649	6.485552	1.098682	-0.000130
 957	9.5122e+01	0.9560	15.310837	0.000446	4.458817	0.755344	-0.000089
 958	9.5222e+01	0.9354	15.121092	0.000953	9.525654	1.613689	-0.000191
 959	9.5321e+01	0.9158	15.040349	0.000405	4.053470	0.686676	-0.000081
 960	9.5421e+01	0.8942	14.947495	0.000466	4.661490	0.789678	-0.000093
 961	9.5520e+01	0.8772	14.769861	0.000892	8.917634	1.510688	-0.000179
 962	9.5620e+01	0.8575	14.701230	0.000345	3.445449	0.583675	-0.000069
 963	9.5719e+01	0.8372	14.568004	0.000669	6.688225	1.133016	-0.000134
 964	9.5819e+01	0.8161	14.426705	0.000709	7.093572	1.201684	-0.000142
 965	9.5918e+01	0.7970	14.309628	0.000588	5.877531	0.995681	-0.000118
 966	9.6017e+01	0.7762	14.148142	0.000811	8.106940	1.373353	-0.000162
 967	9.6117e+01	0.7562	14.043177	0.000527	5.269511	0.892679	-0.000105
 968	9.6216e+01	0.7364	13.885728	0.000790	7.904266	1.339019	-0.000158
 969	9.6316e+01	0.7172	13.800949	0.000426	4.256143	0.721010	-0.000085
 970	9.6415e+01	0.6956	13.671760	0.000649	6.485552	1.098682	-0.000130
 971	9.6515e+01	0.6769	13.562758	0.000547	5.472184	0.927013	-0.000110
 972	9.6615e+01	0.6570	13.417421	0.000730	7.296246	1.236017	-0.000146
 973	9.6714e+01	0.6377	13.300344	0.000588	5.877531	0.995681	-0.000118
 974	9.6814e+01	0.6168	13.179230	0.000608	6.080205	1.030015	-0.000122
 975	9.6913e+01	0.5965	13.046004	0.000669	6.688225	1.133016	-0.000134
 976	9.7013e+01	0.5775	12.928927	0.000588	5.877531	0.995681	-0.000118
 977	9.7112e+01	0.5568	12.795702	0.000669	6.688225	1.133016	-0.000134
 978	9.7212e+01	0.5370	12.654402	0.000709	7.093572	1.201684	-0.000142
 979	9.7311e+01	0.5169	12.545399	0.000547	5.472184	0.927013	-0.000110
 980	9.7410e+01	0.4965	12.391988	0.000770	7.701593	1.304685	-0.000154
 981	9.7510e+01	0.4778	12.278948	0.000567	5.674858	0.961347	-0.000114
 982	9.7609e+01	0.4564	12.121500	0.000790	7.904266	1.339019	-0.000158
 983	9.7709e+01	0.4376	12.036720	0.000426	4.256143	0.721010	-0.000085
 984	9.7808e+01	0.4180	11.879272	0.000790	7.904266	1.339019	-0.000158
 985	9.7908e+01	0.3997	11.766232	0.000567	5.674858	0.961347	-0.000114
 986	9.8007e+01	0.3765	11.633007	0.000669	6.688225	1.133016	-0.000134
 987	9.8107e+01	0.3576	11.503818	0.000649	6.485552	1.098682	-0.000130
 988	9.8207e+01	0.3373	11.386741	0.000588	5.877531	0.995681	-0.000118
 989	9.8306e+01	0.3183	11.221219	0.000831	8.309613	1.407687	-0.000166
 990	9.8406e+01	0.2979	11.140476	0.000405	4.053470	0.686676	-0.000081
 991	9.8505e+01	0.2781	11.019362	0.000608	6.080205	1.030015	-0.000122
 992	9.8605e+01	0.2588	10.890174	0.000649	6.485552	1.098682	-0.000130
 993	9.8704e+01	0.2385	10.744837	0.000730	7.296246	1.236017	-0.000146
 994	9.8803e+01	0.2177	10.615648	0.000649	6.485552	1.098682	-0.000130
 995	9.8903e+01	0.1982	10.458200	0.000790	7.904266	1.339019	-0.000158
 996	9.9002e+01	0.1780	10.329012	0.000649	6.485552	1.098682	-0.000130
 997	9.9102e+01	0.1596	10.228083	0.000507	5.066837	0.858345	-0.000101
 998	9.9201e+01	0.1376	10.074672	0.000770	7.701593	1.304685	-0.000154
 999	9.9301e+01	0.1182	9.957595	0.000588	5.877531	0.995681	-0.000118
1000	9.9400e+01	0.0991	9.860704	0.000486	4.864164	0.824012	-0.000097
1001	9.9500e+01	0.0800	9.703256	0.000790	7.904266	1.339019	-0.000158
1002	9.9600e+01	0.0591	9.565993	0.000689	6.890899	1.167350	-0.000138
1003	9.9699e+01	0.0399	9.452953	0.000567	5.674858	0.961347	-0.000114
1004	9.9799e+01	0.0195	9.323765	0.000649	6.485552	1.098682	-0.000130
1005	9.9898e+01	-0.0010	9.174391	0.000750	7.498919	1.270351	-0.000150
1006	9.9998e+01	-0.0188	9.065388	0.000547	5.472184	0.927013	-0.000110
1007	1.0010e+02	-0.0381	8.932163	0.000669	6.688225	1.133016	-0.000134
1008	1.0020e+02	-0.0584	8.823160	0.000547	5.472184	0.927013	-0.000110
1009	1.0030e+02	-0.0790	8.677823	0.000730	7.296246	1.236017	-0.000146
1010	1.0040e+02	-0.0982	8.544598	0.000669	6.688225	1.133016	-0.000134
1011	1.0050e+02	-0.1184	8.399261	0.000730	7.296246	1.236017	-0.000146
1012	1.0059e+02	-0.1383	8.278147	0.000608	6.080205	1.030015	-0.000122
1013	1.0069e+02	-0.1588	8.108587	0.000851	8.512287	1.442020	-0.000170
1014	1.0079e+02	-0.1778	7.999584	0.000547	5.472184	0.927013	-0.000110
1015	1.0089e+02	-0.1980	7.910767	0.000446	4.458817	0.755344	-0.000089
1016	1.0099e+02	-0.2186	7.769468	0.000709	7.093572	1.201684	-0.000142
1017	1.0109e+02	-0.2383	7.660465	0.000547	5.472184	0.927013	-0.000110
1018	1.0119e+02	-0.2590	7.523202	0.000689	6.890899	1.167350	-0.000138
1019	1.0129e+02	-0.2779	7.385940	0.000689	6.890899	1.167350	-0.000138
1020	1.0139e+02	-0.2973	7.248677	0.000689	6.890899	1.167350	-0.000138
1021	1.0149e+02	-0.3178	7.127563	0.000608	6.080205	1.030015	-0.000122
1022	1.0159e+02	-0.3387	7.006449	0.000608	6.080205	1.030015	-0.000122
1023	1.0169e+02	-0.3580	6.857075	0.000750	7.498919	1.270351	-0.000150
1024	1.0179e+02	-0.3773	6.727887	0.000649	6.485552	1.098682	-0.000130
1025	1.0189e+02	-0.3967	6.606773	0.000608	6.080205	1.030015	-0.000122
1026	1.0199e+02	-0.4177	6.469510	0.000689	6.890899	1.167350	-0.000138
1027	1.0209e+02	-0.4375	6.376656	0.000466	4.661490	0.789678	-0.000093
1028	1.0219e+02	-0.4574	6.190948	0.000932	9.322981	1.579356	-0.000187
1029	1.0229e+02	-0.4776	6.090019	0.000507	5.066837	0.858345	-0.000101
1030	1.0239e+02	-0.4974	5.948720	0.000709	7.093572	1.201684	-0.000142
1031	1.0248e+02	-0.5170	5.835680	0.000567	5.674858	0.961347	-0.000114
1032	1.0258e+02	-0.5367	5.694380	0.000709	7.093572	1.201684	-0.000142
1033	1.0268e+02	-0.5574	5.561154	0.000669	6.688225	1.133016	-0.000134
1034	1.0278e+02	-0.5772	5.415818	0.000730	7.296246	1.236017	-0.000146
1035	1.0288e+02	-0.5972	5.270481	0.000730	7.296246	1.236017	-0.000146
1036	1.0298e+02	-0.6165	5.104958	0.000831	8.309613	1.407687	-0.000166
1037	1.0308e+02	-0.6359	4.991918	0.000567	5.674858	0.961347	-0.000114
1038	1.0318e+02	-0.6561	4.886953	0.000527	5.269511	0.892679	-0.000105
1039	1.0328e+02	-0.6764	4.701245	0.000932	9.322981	1.579356	-0.000187
1040	1.0338e+02	-0.6961	4.600316	0.000507	5.066837	0.858345	-0.000101
1041	1.0348e+02	-0.7169	4.434794	0.000831	8.309613	1.407687	-0.000166
1042	1.0358e+02	-0.7357	4.350014	0.000426	4.256143	0.721010	-0.000085
1043	1.0368e+02	-0.7563	4.208714	0.000709	7.093572	1.201684	-0.000142
1044	1.0378e+02	-0.7769	4.018969	0.000953	9.525654	1.613689	-0.000191
1045	1.0388e+02	-0.7970	3.926115	0.000466	4.661490	0.789678	-0.000093
1046	1.0398e+02	-0.8150	3.784815	0.000709	7.093572	1.201684	-0.000142
1047	1.0408e+02	-0.8367	3.687923	0.000486	4.864164	0.824012	-0.000097
1048	1.0418e+02	-0.8567	3.534512	0.000770	7.701593	1.304685	-0.000154
1049	1.0428e+02	-0.8759	3.368990	0.000831	8.309613	1.407687	-0.000166
1050	1.0438e+02	-0.8956	3.223653	0.000730	7.296246	1.236017	-0.000146
1051	1.0447e+02	-0.9165	3.094465	0.000649	6.485552	1.098682	-0.000130
1052	1.0457e+02	-0.9359	3.009685	0.000426	4.256143	0.721010	-0.000085
1053	1.0467e+02	-0.9553	2.880496	0.000649	6.485552	1.098682	-0.000130
1054	1.0477e+02	-0.9763	2.723048	0.000790	7.904266	1.339019	-0.000158
1055	1.0487e+02	-0.9953	2.589823	0.000669	6.688225	1.133016	-0.000134
1056	1.0497e+02	-1.0150	2.452560	0.000689	6.890899	1.167350	-0.000138
1057	1.0507e+02	-1.0352	2.351632	0.000507	5.066837	0.858345	-0.000101
1058	1.0517e+02	-1.0553	2.214369	0.000689	6.890899	1.167350	-0.000138
1059	1.0527e+02	-1.0747	2.064995	0.000750	7.498919	1.270351	-0.000150
1060	1.0537e+02	-1.0954	1.923695	0.000709	7.093572	1.201684	-0.000142
1061	1.0547e+02	-1.1151	1.798544	0.000628	6.282878	1.064348	-0.000126
1062	1.0557e+02	-1.1352	1.673393	0.000628	6.282878	1.064348	-0.000126
1063	1.0567e+02	-1.1550	1.528056	0.000730	7.296246	1.236017	-0.000146
1064	1.0577e+02	-1.1746	1.346385	0.000912	9.120307	1.545022	-0.000183
1065	1.0587e+02	-1.1931	1.249494	0.000486	4.864164	0.824012	-0.000097
1066	1.0597e+02	-1.2142	1.128379	0.000608	6.080205	1.030015	-0.000122
1067	1.0607e+02	-1.2341	1.003228	0.000628	6.282878	1.064348	-0.000126
1068	1.0617e+02	-1.2532	0.841743	0.000811	8.106940	1.373353	-0.000162
1069	1.0627e+02	-1.2740	0.708517	0.000669	6.688225	1.133016	-0.000134
1070	1.0637e+02	-1.2949	0.595478	0.000567	5.674858	0.961347	-0.000114
1071	1.0647e+02	-1.3141	0.446103	0.000750	7.498919	1.270351	-0.000150
1072	1.0656e+02	-1.3343	0.316915	0.000649	6.485552	1.098682	-0.000130
1073	1.0666e+02	-1.3531	0.179653	0.000689	6.890899	1.167350	-0.000138
1074	1.0676e+02	-1.3735	0.038353	0.000709	7.093572	1.201684	-0.000142
1075	1.0686e+02	-1.3931	-0.094873	0.000669	6.688225	1.133016	-0.000134
1076	1.0696e+02	-1.4145	-0.199838	0.000527	5.269511	0.892679	-0.000105
1077	1.0706e+02	-1.4339	-0.369398	0.000851	8.512287	1.442020	-0.000170
1078	1.0716e+02	-1.4529	-0.470326	0.000507	5.066837	0.858345	-0.000101
1079	1.0726e+02	-1.4734	-0.599515	0.000649	6.485552	1.098682	-0.000130
1080	1.0736e+02	-1.4928	-0.724666	0.000628	6.282878	1.064348	-0.000126
1081	1.0746e+02	-1.5128	-0.906337	0.000912	9.120307	1.545022	-0.000183
1082	1.0756e+02	-1.5329	-0.995154	0.000446	4.458817	0.755344	-0.000089
1083	1.0766e+02	-1.5532	-1.156639	0.000811	8.106940	1.373353	-0.000162
1084	1.0776e+02	-1.5729	-1.301976	0.000730	7.296246	1.236017	-0.000146
1085	1.0786e+02	-1.5934	-1.402905	0.000507	5.066837	0.858345	-0.000101
1086	1.0796e+02	-1.6131	-1.564390	0.000811	8.106940	1.373353	-0.000162
1087	1.0806e+02	-1.6338	-1.681467	0.000588	5.877531	0.995681	-0.000118
1088	1.0816e+02	-1.6521	-1.786433	0.000527	5.269511	0.892679	-0.000105
1089	1.0826e+02	-1.6727	-1.955992	0.000851	8.512287	1.442020	-0.000170
1090	1.0836e+02	-1.6933	-2.064995	0.000547	5.472184	0.927013	-0.000110
1091	1.0845e+02	-1.7130	-2.234555	0.000851	8.512287	1.442020	-0.000170
1092	1.0855e+02	-1.7323	-2.339520	0.000527	5.269511	0.892679	-0.000105
1093	1.0865e+02	-1.7513	-2.464671	0.000628	6.282878	1.064348	-0.000126
1094	1.0875e+02	-1.7731	-2.618083	0.000770	7.701593	1.304685	-0.000154
1095	1.0885e+02	-1.7914	-2.751308	0.000669	6.688225	1.133016	-0.000134
1096	1.0895e+02	-1.8124	-2.864348	0.000567	5.674858	0.961347	-0.000114
1097	1.0905e+02	-1.8312	-3.001610	0.000689	6.890899	1.167350	-0.000138
1098	1.0915e+02	-1.8518	-3.163096	0.000811	8.106940	1.373353	-0.000162
1099	1.0925e+02	-1.8717	-3.320544	0.000790	7.904266	1.339019	-0.000158
1100	1.0935e+02	-1.8914	-3.417435	0.000486	4.864164	0.824012	-0.000097
1101	1.0945e+02	-1.9128	-3.534512	0.000588	5.877531	0.995681	-0.000118
1102	1.0955e+02	-1.9314	-3.716183	0.000912	9.120307	1.545022	-0.000183
1103	1.0965e+02	-1.9514	-3.825186	0.000547	5.472184	0.927013	-0.000110
1104	1.0975e+02	-1.9716	-3.982634	0.000790	7.904266	1.339019	-0.000158
1105	1.0985e+02	-1.9907	-4.111823	0.000649	6.485552	1.098682	-0.000130
1106	1.0995e+02	-2.0106	-4.208714	0.000486	4.864164	0.824012	-0.000097
1107	1.1005e+02	-2.0317	-4.358088	0.000750	7.498919	1.270351	-0.000150
1108	1.1015e+02	-2.0512	-4.527648	0.000851	8.512287	1.442020	-0.000170
1109	1.1025e+02	-2.0706	-4.616465	0.000446	4.458817	0.755344	-0.000089
1110	1.1035e+02	-2.0910	-4.781987	0.000831	8.309613	1.407687	-0.000166
1111	1.1044e+02	-2.1117	-4.915213	0.000669	6.688225	1.133016	-0.000134
1112	1.1054e+02	-2.1310	-5.028253	0.000567	5.674858	0.961347	-0.000114
1113	1.1064e+02	-2.1504	-5.165515	0.000689	6.890899	1.167350	-0.000138
1114	1.1074e+02	-2.1698	-5.290666	0.000628	6.282878	1.064348	-0.000126
1115	1.1084e+02	-2.1910	-5.431966	0.000709	7.093572	1.201684	-0.000142
1116	1.1094e+02	-2.2106	-5.536932	0.000527	5.269511	0.892679	-0.000105
1117	1.1104e+02	-2.2302	-5.674194	0.000689	6.890899	1.167350	-0.000138
1118	1.1114e+02	-2.2516	-5.819531	0.000730	7.296246	1.236017	-0.000146
1119	1.1124e+02	-2.2699	-5.936608	0.000588	5.877531	0.995681	-0.000118
1120	1.1134e+02	-2.2906	-6.081945	0.000730	7.296246	1.236017	-0.000146
1121	1.1144e+02	-2.3096	-6.207096	0.000628	6.282878	1.064348	-0.000126
1122	1.1154e+02	-2.3303	-6.320136	0.000567	5.674858	0.961347	-0.000114
1123	1.1164e+02	-2.3505	-6.449324	0.000649	6.485552	1.098682	-0.000130
1124	1.1174e+02	-2.3706	-6.578513	0.000649	6.485552	1.098682	-0.000130
1125	1.1184e+02	-2.3898	-6.719812	0.000709	7.093572	1.201684	-0.000142
1126	1.1194e+02	-2.4100	-6.828815	0.000547	5.472184	0.927013	-0.000110
1127	1.1204e+02	-2.4291	-6.966078	0.000689	6.890899	1.167350	-0.000138
1128	1.1214e+02	-2.4499	-7.079118	0.000567	5.674858	0.961347	-0.000114
1129	1.1224e+02	-2.4704	-7.208306	0.000649	6.485552	1.098682	-0.000130
1130	1.1234e+02	-2.4895	-7.345568	0.000689	6.890899	1.167350	-0.000138
1131	1.1244e+02	-2.5095	-7.478794	0.000669	6.688225	1.133016	-0.000134
1132	1.1253e+02	-2.5294	-7.583759	0.000527	5.269511	0.892679	-0.000105
1133	1.1263e+02	-2.5494	-7.733134	0.000750	7.498919	1.270351	-0.000150
1134	1.1273e+02	-2.5697	-7.854248	0.000608	6.080205	1.030015	-0.000122
1135	1.1283e+02	-2.5885	-7.999584	0.000730	7.296246	1.236017	-0.000146
1136	1.1293e+02	-2.6084	-8.124736	0.000628	6.282878	1.064348	-0.000126
1137	1.1303e+02	-2.6288	-8.233738	0.000547	5.472184	0.927013	-0.000110
1138	1.1313e+02	-2.6480	-8.387149	0.000770	7.701593	1.304685	-0.000154
1139	1.1323e+02	-2.6678	-8.524412	0.000689	6.890899	1.167350	-0.000138
1140	1.1333e+02	-2.6881	-8.645526	0.000608	6.080205	1.030015	-0.000122
1141	1.1343e+02	-2.7080	-8.807012	0.000811	8.106940	1.373353	-0.000162
1142	1.1353e+02	-2.7280	-8.899866	0.000466	4.661490	0.789678	-0.000093
1143	1.1363e+02	-2.7478	-9.053277	0.000770	7.701593	1.304685	-0.000154
1144	1.1373e+02	-2.7679	-9.170354	0.000588	5.877531	0.995681	-0.000118
1145	1.1383e+02	-2.7880	-9.279356	0.000547	5.472184	0.927013	-0.000110
1146	1.1393e+02	-2.8085	-9.416619	0.000689	6.890899	1.167350	-0.000138
1147	1.1403e+02	-2.8291	-9.541770	0.000628	6.282878	1.064348	-0.000126
1148	1.1413e+02	-2.8477	-9.658847	0.000588	5.877531	0.995681	-0.000118
1149	1.1423e+02	-2.8676	-9.775924	0.000588	5.877531	0.995681	-0.000118
1150	1.1433e+02	-2.8880	-9.913187	0.000689	6.890899	1.167350	-0.000138
1151	1.1442e+02	-2.9078	-10.054487	0.000709	7.093572	1.201684	-0.000142
1152	1.1452e+02	-2.9278	-10.191749	0.000689	6.890899	1.167350	-0.000138
1153	1.1462e+02	-2.9461	-10.316900	0.000628	6.282878	1.064348	-0.000126
1154	1.1472e+02	-2.9674	-10.413792	0.000486	4.864164	0.824012	-0.000097
1155	1.1482e+02	-2.9871	-10.559129	0.000730	7.296246	1.236017	-0.000146
1156	1.1492e+02	-3.0074	-10.704465	0.000730	7.296246	1.236017	-0.000146
1157	1.1502e+02	-3.0263	-10.805394	0.000507	5.066837	0.858345	-0.000101
1158	1.1512e+02	-3.0467	-10.958805	0.000770	7.701593	1.304685	-0.000154
1159	1.1522e+02	-3.0679	-11.063770	0.000527	5.269511	0.892679	-0.000105
1160	1.1532e+02	-3.0873	-11.192959	0.000649	6.485552	1.098682	-0.000130
1161	1.1542e+02	-3.1068	-11.334259	0.000709	7.093572	1.201684	-0.000142
1162	1.1552e+02	-3.1265	-11.443261	0.000547	5.472184	0.927013	-0.000110
1163	1.1562e+02	-3.1464	-11.580524	0.000689	6.890899	1.167350	-0.000138
1164	1.1572e+02	-3.1673	-11.665304	0.000426	4.256143	0.721010	-0.000085
1165	1.1582e+02	-3.1866	-11.818715	0.000770	7.701593	1.304685	-0.000154
1166	1.1592e+02	-3.2065	-11.964052	0.000730	7.296246	1.236017	-0.000146
1167	1.1602e+02	-3.2273	-12.060943	0.000486	4.864164	0.824012	-0.000097
1168	1.1612e+02	-3.2463	-12.206280	0.000730	7.296246	1.236017	-0.000146
1169	1.1622e+02	-3.2657	-12.327394	0.000608	6.080205	1.030015	-0.000122
1170	1.1632e+02	-3.2864	-12.444471	0.000588	5.877531	0.995681	-0.000118
1171	1.1642e+02	-3.3059	-12.545399	0.000507	5.066837	0.858345	-0.000101
1172	1.1651e+02	-3.3266	-12.702848	0.000790	7.904266	1.339019	-0.000158
1173	1.1661e+02	-3.3456	-12.856259	0.000770	7.701593	1.304685	-0.000154
1174	1.1671e+02	-3.3664	-12.981410	0.000628	6.282878	1.064348	-0.000126
1175	1.1681e+02	-3.3858	-13.050041	0.000345	3.445449	0.583675	-0.000069
1176	1.1691e+02	-3.4063	-13.207490	0.000790	7.904266	1.339019	-0.000158
1177	1.1701e+02	-3.4250	-13.324567	0.000588	5.877531	0.995681	-0.000118
1178	1.1711e+02	-3.4459	-13.445681	0.000608	6.080205	1.030015	-0.000122
1179	1.1721e+02	-3.4662	-13.582943	0.000689	6.890899	1.167350	-0.000138
1180	1.1731e+02	-3.4851	-13.704057	0.000608	6.080205	1.030015	-0.000122
1181	1.1741e+02	-3.5052	-13.841320	0.000689	6.890899	1.167350	-0.000138
1182	1.1751e+02	-3.5217	-13.938211	0.000486	4.864164	0.824012	-0.000097
1183	1.1761e+02	-3.5458	-14.075474	0.000689	6.890899	1.167350	-0.000138
1184	1.1771e+02	-3.5650	-14.184476	0.000547	5.472184	0.927013	-0.000110
1185	1.1781e+02	-3.5847	-14.293479	0.000547	5.472184	0.927013	-0.000110
1186	1.1791e+02	-3.6048	-14.422667	0.000649	6.485552	1.098682	-0.000130
1187	1.1801e+02	-3.6252	-14.527633	0.000527	5.269511	0.892679	-0.000105
1188	1.1811e+02	-3.6446	-14.648747	0.000608	6.080205	1.030015	-0.000122
1189	1.1821e+02	-3.6649	-14.777935	0.000649	6.485552	1.098682	-0.000130
1190	1.1831e+02	-3.6853	-14.886938	0.000547	5.472184	0.927013	-0.000110
1191	1.1841e+02	-3.7054	-15.028238	0.000709	7.093572	1.201684	-0.000142
1192	1.1850e+02	-3.7255	-15.153389	0.000628	6.282878	1.064348	-0.000126
1193	1.1860e+02	-3.7453	-15.278540	0.000628	6.282878	1.064348	-0.000126
1194	1.1870e+02	-3.7650	-15.375431	0.000486	4.864164	0.824012	-0.000097
1195	1.1880e+02	-3.7833	-15.516731	0.000709	7.093572	1.201684	-0.000142
1196	1.1890e+02	-3.8045	-15.617660	0.000507	5.066837	0.858345	-0.000101
1197	1.1900e+02	-3.8243	-15.730699	0.000567	5.674858	0.961347	-0.000114
1198	1.1910e+02	-3.8437	-15.847776	0.000588	5.877531	0.995681	-0.000118
1199	1.1920e+02	-3.8641	-15.985039	0.000689	6.890899	1.167350	-0.000138
1200	1.1930e+02	-3.8844	-16.090004	0.000527	5.269511	0.892679	-0.000105
1201	1.1940e+02	-3.9040	-16.247453	0.000790	7.904266	1.339019	-0.000158
1202	1.1950e+02	-3.9232	-16.380678	0.000669	6.688225	1.133016	-0.000134
1203	1.1960e+02	-3.9439	-16.473532	0.000466	4.661490	0.789678	-0.000093
1204	1.1970e+02	-3.9630	-16.586572	0.000567	5.674858	0.961347	-0.000114
1205	1.1980e+02	-3.9834	-16.731909	0.000730	7.296246	1.236017	-0.000146
1206	1.1990e+02	-4.0034	-16.844949	0.000567	5.674858	0.961347	-0.000114
1207	1.2000e+02	-4.0227	-16.966063	0.000608	6.080205	1.030015	-0.000122
1208	1.2010e+02	-4.0433	-17.091214	0.000628	6.282878	1.064348	-0.000126
1209	1.2020e+02	-4.0628	-17.220402	0.000649	6.485552	1.098682	-0.000130
1210	1.2030e+02	-4.0825	-17.333442	0.000567	5.674858	0.961347	-0.000114
1211	1.2039e+02	-4.1029	-17.438408	0.000527	5.269511	0.892679	-0.000105
1212	1.2049e+02	-4.1235	-17.583745	0.000730	7.296246	1.236017	-0.000146
1213	1.2059e+02	-4.1434	-17.712933	0.000649	6.485552	1.098682	-0.000130
1214	1.2069e+02	-4.1631	-17.830010	0.000588	5.877531	0.995681	-0.000118
1215	1.2079e+02	-4.1823	-17.902678	0.000365	3.648123	0.618009	-0.000073
1216	1.2089e+02	-4.2023	-18.076275	0.000871	8.714960	1.476354	-0.000174
1217	1.2099e+02	-4.2216	-18.173167	0.000486	4.864164	0.824012	-0.000097
1218	1.2109e+02	-4.2421	-18.286206	0.000567	5.674858	0.961347	-0.000114
1219	1.2119e+02	-4.2621	-18.379060	0.000466	4.661490	0.789678	-0.000093
1220	1.2129e+02	-4.2824	-18.544583	0.000831	8.309613	1.407687	-0.000166
1221	1.2139e+02	-4.3022	-18.629363	0.000426	4.256143	0.721010	-0.000085
1222	1.2149e+02	-4.3217	-18.778737	0.000750	7.498919	1.270351	-0.000150
1223	1.2159e+02	-4.3416	-18.895814	0.000588	5.877531	0.995681	-0.000118
1224	1.2169e+02	-4.3625	-18.956371	0.000304	3.040102	0.515007	-0.000061
1225	1.2179e+02	-4.3822	-19.117856	0.000811	8.106940	1.373353	-0.000162
1226	1.2189e+02	-4.4014	-19.247045	0.000649	6.485552	1.098682	-0.000130
1227	1.2199e+02	-4.4214	-19.327787	0.000405	4.053470	0.686676	-0.000081
1228	1.2209e+02	-4.4413	-19.489273	0.000811	8.106940	1.373353	-0.000162
1229	1.2219e+02	-4.4599	-19.578090	0.000446	4.458817	0.755344	-0.000089
1230	1.2229e+02	-4.4804	-19.691130	0.000567	5.674858	0.961347	-0.000114
1231	1.2239e+02	-4.5020	-19.804169	0.000567	5.674858	0.961347	-0.000114
1232	1.2248e+02	-4.5210	-19.913172	0.000547	5.472184	0.927013	-0.000110
1233	1.2258e+02	-4.5412	-20.030249	0.000588	5.877531	0.995681	-0.000118
1234	1.2268e+02	-4.5615	-20.151363	0.000608	6.080205	1.030015	-0.000122
1235	1.2278e+02	-4.5810	-20.296700	0.000730	7.296246	1.236017	-0.000146
1236	1.2288e+02	-4.6019	-20.425888	0.000649	6.485552	1.098682	-0.000130
1237	1.2298e+02	-4.6216	-20.502594	0.000385	3.850796	0.652343	-0.000077
1238	1.2308e+02	-4.6419	-20.619671	0.000588	5.877531	0.995681	-0.000118
1239	1.2318e+02	-4.6617	-20.748859	0.000649	6.485552	1.098682	-0.000130
1240	1.2328e+02	-4.6811	-20.853825	0.000527	5.269511	0.892679	-0.000105
1241	1.2338e+02	-4.7003	-20.995124	0.000709	7.093572	1.201684	-0.000142
1242	1.2348e+02	-4.7209	-21.092016	0.000486	4.864164	0.824012	-0.000097
1243	1.2358e+02	-4.7403	-21.201018	0.000547	5.472184	0.927013	-0.000110
1244	1.2368e+02	-4.7602	-21.318095	0.000588	5.877531	0.995681	-0.000118
1245	1.2378e+02	-4.7800	-21.398838	0.000405	4.053470	0.686676	-0.000081
1246	1.2388e+02	-4.8013	-21.515915	0.000588	5.877531	0.995681	-0.000118
1247	1.2398e+02	-4.8211	-21.673363	0.000790	7.904266	1.339019	-0.000158
1248	1.2408e+02	-4.8395	-21.774292	0.000507	5.066837	0.858345	-0.000101
1249	1.2418e+02	-4.8600	-21.855034	0.000405	4.053470	0.686676	-0.000081
1250	1.2428e+02	-4.8810	-21.992297	0.000689	6.890899	1.167350	-0.000138
1251	1.2438e+02	-4.9002	-22.081114	0.000446	4.458817	0.755344	-0.000089
1252	1.2447e+02	-4.9193	-22.202228	0.000608	6.080205	1.030015	-0.000122
1253	1.2457e+02	-4.9406	-22.351602	0.000750	7.498919	1.270351	-0.000150
1254	1.2467e+02	-4.9597	-22.436382	0.000426	4.256143	0.721010	-0.000085
1255	1.2477e+02	-4.9801	-22.517125	0.000405	4.053470	0.686676	-0.000081
1256	1.2487e+02	-4.9995	-22.646313	0.000649	6.485552	1.098682	-0.000130
1257	1.2497e+02	-5.0201	-22.771464	0.000628	6.282878	1.064348	-0.000126
1258	1.2507e+02	-5.0396	-22.880467	0.000547	5.472184	0.927013	-0.000110
1259	1.2517e+02	-5.0586	-22.965247	0.000426	4.256143	0.721010	-0.000085
1260	1.2527e+02	-5.0799	-23.082324	0.000588	5.877531	0.995681	-0.000118
1261	1.2537e+02	-5.0992	-23.199401	0.000588	5.877531	0.995681	-0.000118
1262	1.2547e+02	-5.1183	-23.316477	0.000588	5.877531	0.995681	-0.000118
1263	1.2557e+02	-5.1382	-23.441629	0.000628	6.282878	1.064348	-0.000126
1264	1.2567e+02	-5.1582	-23.526409	0.000426	4.256143	0.721010	-0.000085
1265	1.2577e+02	-5.1787	-23.643485	0.000588	5.877531	0.995681	-0.000118
1266	1.2587e+02	-5.1997	-23.752488	0.000547	5.472184	0.927013	-0.000110
1267	1.2597e+02	-5.2185	-23.873602	0.000608	6.080205	1.030015	-0.000122
1268	1.2607e+02	-5.2383	-23.982605	0.000547	5.472184	0.927013	-0.000110
1269	1.2617e+02	-5.2588	-24.099682	0.000588	5.877531	0.995681	-0.000118
1270	1.2627e+02	-5.2785	-24.245019	0.000730	7.296246	1.236017	-0.000146
1271	1.2636e+02	-5.2991	-24.349984	0.000527	5.269511	0.892679	-0.000105
1272	1.2646e+02	-5.3189	-24.446875	0.000486	4.864164	0.824012	-0.000097
1273	1.2656e+02	-5.3381	-24.539730	0.000466	4.661490	0.789678	-0.000093
1274	1.2666e+02	-5.3577	-24.668918	0.000649	6.485552	1.098682	-0.000130
1275	1.2676e+02	-5.3761	-24.785995	0.000588	5.877531	0.995681	-0.000118
1276	1.2686e+02	-5.3979	-24.890960	0.000527	5.269511	0.892679	-0.000105
1277	1.2696e+02	-5.4176	-25.012074	0.000608	6.080205	1.030015	-0.000122
1278	1.2706e+02	-5.4375	-25.080706	0.000345	3.445449	0.583675	-0.000069
1279	1.2716e+02	-5.4573	-25.213931	0.000669	6.688225	1.133016	-0.000134
1280	1.2726e+02	-5.4781	-25.339082	0.000628	6.282878	1.064348	-0.000126
1281	1.2736e+02	-5.4964	-25.435974	0.000486	4.864164	0.824012	-0.000097
1282	1.2746e+02	-5.5176	-25.536902	0.000507	5.066837	0.858345	-0.000101
1283	1.2756e+02	-5.5371	-25.633793	0.000486	4.864164	0.824012	-0.000097
1284	1.2766e+02	-5.5569	-25.750870	0.000588	5.877531	0.995681	-0.000118
1285	1.2776e+02	-5.5768	-25.839687	0.000446	4.458817	0.755344	-0.000089
1286	1.2786e+02	-5.5978	-25.956764	0.000588	5.877531	0.995681	-0.000118
1287	1.2796e+02	-5.6186	-26.053655	0.000486	4.864164	0.824012	-0.000097
1288	1.2806e+02	-5.6371	-26.150547	0.000486	4.864164	0.824012	-0.000097
1289	1.2816e+02	-5.6571	-26.271661	0.000608	6.080205	1.030015	-0.000122
1290	1.2826e+02	-5.6761	-26.396812	0.000628	6.282878	1.064348	-0.000126
1291	1.2835e+02	-5.6964	-26.501778	0.000527	5.269511	0.892679	-0.000105
1292	1.2845e+02	-5.7159	-26.594632	0.000466	4.661490	0.789678	-0.000093
1293	1.2855e+02	-5.7366	-26.667300	0.000365	3.648123	0.618009	-0.000073
1294	1.2865e+02	-5.7567	-26.808600	0.000709	7.093572	1.201684	-0.000142
1295	1.2875e+02	-5.7767	-26.905491	0.000486	4.864164	0.824012	-0.000097
1296	1.2885e+02	-5.7965	-26.978160	0.000365	3.648123	0.618009	-0.000073
1297	1.2895e+02	-5.8163	-27.135608	0.000790	7.904266	1.339019	-0.000158
1298	1.2905e+02	-5.8360	-27.216351	0.000405	4.053470	0.686676	-0.000081
1299	1.2915e+02	-5.8571	-27.337465	0.000608	6.080205	1.030015	-0.000122
1300	1.2925e+02	-5.8764	-27.466653	0.000649	6.485552	1.098682	-0.000130
1301	1.2935e+02	-5.8959	-27.515099	0.000243	2.432082	0.412006	-0.000049
1302	1.2945e+02	-5.9157	-27.668510	0.000770	7.701593	1.304685	-0.000154
1303	1.2955e+02	-5.9360	-27.809810	0.000709	7.093572	1.201684	-0.000142
1304	1.2965e+02	-5.9563	-27.898627	0.000446	4.458817	0.755344	-0.000089
1305	1.2975e+02	-5.9752	-27.987444	0.000446	4.458817	0.755344	-0.000089
1306	1.2985e+02	-5.9963	-28.092409	0.000527	5.269511	0.892679	-0.000105
1307	1.2995e+02	-6.0147	-28.205449	0.000567	5.674858	0.961347	-0.000114
1308	1.3005e+02	-6.0370	-28.294266	0.000446	4.458817	0.755344	-0.000089
1309	1.3015e+02	-6.0547	-28.403268	0.000547	5.472184	0.927013	-0.000110
1310	1.3025e+02	-6.0759	-28.528420	0.000628	6.282878	1.064348	-0.000126
1311	1.3034e+02	-6.0938	-28.645497	0.000588	5.877531	0.995681	-0.000118
1312	1.3044e+02	-6.1148	-28.758536	0.000567	5.674858	0.961347	-0.000114
1313	1.3054e+02	-6.1355	-28.875613	0.000588	5.877531	0.995681	-0.000118
1314	1.3064e+02	-6.1548	-28.940208	0.000324	3.242776	0.549341	-0.000065
1315	1.3074e+02	-6.1749	-29.061322	0.000608	6.080205	1.030015	-0.000122
1316	1.3084e+02	-6.1955	-29.162250	0.000507	5.066837	0.858345	-0.000101
1317	1.3094e+02	-6.2153	-29.303550	0.000709	7.093572	1.201684	-0.000142
1318	1.3104e+02	-6.2349	-29.335847	0.000162	1.621388	0.274671	-0.000032
1319	1.3114e+02	-6.2549	-29.481184	0.000730	7.296246	1.236017	-0.000146
1320	1.3124e+02	-6.2749	-29.594224	0.000567	5.674858	0.961347	-0.000114
1321	1.3134e+02	-6.2944	-29.707263	0.000567	5.674858	0.961347	-0.000114
1322	1.3144e+02	-6.3148	-29.848563	0.000709	7.093572	1.201684	-0.000142
1323	1.3154e+02	-6.3341	-29.957566	0.000547	5.472184	0.927013	-0.000110
1324	1.3164e+02	-6.3547	-30.050420	0.000466	4.661490	0.789678	-0.000093
1325	1.3174e+02	-6.3744	-30.167497	0.000588	5.877531	0.995681	-0.000118
1326	1.3184e+02	-6.3943	-30.264388	0.000486	4.864164	0.824012	-0.000097
1327	1.3194e+02	-6.4146	-30.328982	0.000324	3.242776	0.549341	-0.000065
1328	1.3204e+02	-6.4346	-30.458171	0.000649	6.485552	1.098682	-0.000130
1329	1.3214e+02	-6.4543	-30.583322	0.000628	6.282878	1.064348	-0.000126
1330	1.3224e+02	-6.4734	-30.660027	0.000385	3.850796	0.652343	-0.000077
1331	1.3234e+02	-6.4937	-30.809401	0.000750	7.498919	1.270351	-0.000150
1332	1.3243e+02	-6.5145	-30.914367	0.000527	5.269511	0.892679	-0.000105
1333	1.3253e+02	-6.5344	-30.995110	0.000405	4.053470	0.686676	-0.000081
1334	1.3263e+02	-6.5549	-31.108149	0.000567	5.674858	0.961347	-0.000114
1335	1.3273e+02	-6.5750	-31.205041	0.000486	4.864164	0.824012	-0.000097
1336	1.3283e+02	-6.5938	-31.358452	0.000770	7.701593	1.304685	-0.000154
1337	1.3293e+02	-6.6131	-31.451306	0.000466	4.661490	0.789678	-0.000093
1338	1.3303e+02	-6.6332	-31.552234	0.000507	5.066837	0.858345	-0.000101
1339	1.3313e+02	-6.6527	-31.669311	0.000588	5.877531	0.995681	-0.000118
1340	1.3323e+02	-6.6730	-31.842908	0.000871	8.714960	1.476354	-0.000174
1341	1.3333e+02	-6.6925	-31.927688	0.000426	4.256143	0.721010	-0.000085
1342	1.3343e+02	-6.7138	-31.976134	0.000243	2.432082	0.412006	-0.000049
1343	1.3353e+02	-6.7329	-32.109359	0.000669	6.688225	1.133016	-0.000134
1344	1.3363e+02	-6.7534	-32.218362	0.000547	5.472184	0.927013	-0.000110
1345	1.3373e+02	-6.7719	-32.363699	0.000730	7.296246	1.236017	-0.000146
1346	1.3383e+02	-6.7931	-32.420219	0.000284	2.837429	0.480673	-0.000057
1347	1.3393e+02	-6.8137	-32.614001	0.000973	9.728328	1.648023	-0.000195
1348	1.3403e+02	-6.8326	-32.658410	0.000223	2.229408	0.377672	-0.000045
1349	1.3413e+02	-6.8524	-32.791635	0.000669	6.688225	1.133016	-0.000134
1350	1.3423e+02	-6.8723	-32.896601	0.000527	5.269511	0.892679	-0.000105
1351	1.3432e+02	-6.8923	-33.009640	0.000567	5.674858	0.961347	-0.000114
1352	1.3442e+02	-6.9128	-33.082309	0.000365	3.648123	0.618009	-0.000073
1353	1.3452e+02	-6.9318	-33.235720	0.000770	7.701593	1.304685	-0.000154
1354	1.3462e+02	-6.9531	-33.336648	0.000507	5.066837	0.858345	-0.000101
1355	1.3472e+02	-6.9712	-33.429502	0.000466	4.661490	0.789678	-0.000093
1356	1.3482e+02	-6.9919	-33.570802	0.000709	7.093572	1.201684	-0.000142
1357	1.3492e+02	-7.0116	-33.687879	0.000588	5.877531	0.995681	-0.000118
1358	1.3502e+02	-7.0320	-33.780733	0.000466	4.661490	0.789678	-0.000093
1359	1.3512e+02	-7.0518	-33.901847	0.000608	6.080205	1.030015	-0.000122
1360	1.3522e+02	-7.0709	-34.014887	0.000567	5.674858	0.961347	-0.000114
1361	1.3532e+02	-7.0917	-34.095630	0.000405	4.053470	0.686676	-0.000081
1362	1.3542e+02	-7.1106	-34.245004	0.000750	7.498919	1.270351	-0.000150
1363	1.3552e+02	-7.1320	-34.394378	0.000750	7.498919	1.270351	-0.000150
1364	1.3562e+02	-7.1515	-34.483195	0.000446	4.458817	0.755344	-0.000089
1365	1.3572e+02	-7.1716	-34.580086	0.000486	4.864164	0.824012	-0.000097
1366	1.3582e+02	-7.1919	-34.709275	0.000649	6.485552	1.098682	-0.000130
1367	1.3592e+02	-7.2099	-34.830389	0.000608	6.080205	1.030015	-0.000122
1368	1.3602e+02	-7.2315	-34.939391	0.000547	5.472184	0.927013	-0.000110
1369	1.3612e+02	-7.2507	-35.044357	0.000527	5.269511	0.892679	-0.000105
1370	1.3622e+02	-7.2711	-35.197768	0.000770	7.701593	1.304685	-0.000154
1371	1.3631e+02	-7.2917	-35.322919	0.000628	6.282878	1.064348	-0.000126
1372	1.3641e+02	-7.3109	-35.411736	0.000446	4.458817	0.755344	-0.000089
1373	1.3651e+02	-7.3312	-35.573222	0.000811	8.106940	1.373353	-0.000162
1374	1.3661e+02	-7.3504	-35.694336	0.000608	6.080205	1.030015	-0.000122
1375	1.3671e+02	-7.3705	-35.807375	0.000567	5.674858	0.961347	-0.000114
1376	1.3681e+02	-7.3892	-35.928490	0.000608	6.080205	1.030015	-0.000122
1377	1.3691e+02	-7.4103	-36.045566	0.000588	5.877531	0.995681	-0.000118
1378	1.3701e+02	-7.4312	-36.203015	0.000790	7.904266	1.339019	-0.000158
1379	1.3711e+02	-7.4502	-36.287795	0.000426	4.256143	0.721010	-0.000085
1380	1.3721e+02	-7.4704	-36.416983	0.000649	6.485552	1.098682	-0.000130
1381	1.3731e+02	-7.4908	-36.546171	0.000649	6.485552	1.098682	-0.000130
1382	1.3741e+02	-7.5101	-36.679397	0.000669	6.688225	1.133016	-0.000134
1383	1.3751e+02	-7.5299	-36.788399	0.000547	5.472184	0.927013	-0.000110
1384	1.3761e+02	-7.5500	-36.889328	0.000507	5.066837	0.858345	-0.000101
1385	1.3771e+02	-7.5684	-37.010442	0.000608	6.080205	1.030015	-0.000122
1386	1.3781e+02	-7.5883	-37.180002	0.000851	8.512287	1.442020	-0.000170
1387	1.3791e+02	-7.6089	-37.293041	0.000567	5.674858	0.961347	-0.000114
1388	1.3801e+02	-7.6292	-37.414155	0.000608	6.080205	1.030015	-0.000122
1389	1.3811e+02	-7.6483	-37.531232	0.000588	5.877531	0.995681	-0.000118
1390	1.3821e+02	-7.6692	-37.632161	0.000507	5.066837	0.858345	-0.000101
1391	1.3831e+02	-7.6886	-37.781535	0.000750	7.498919	1.270351	-0.000150
1392	1.3840e+02	-7.7086	-37.894575	0.000567	5.674858	0.961347	-0.000114
1393	1.3850e+02	-7.7290	-38.043949	0.000750	7.498919	1.270351	-0.000150
1394	1.3860e+02	-7.7478	-38.209471	0.000831	8.309613	1.407687	-0.000166
1395	1.3870e+02	-7.7682	-38.286177	0.000385	3.850796	0.652343	-0.000077
1396	1.3880e+02	-7.7884	-38.435551	0.000750	7.498919	1.270351	-0.000150
1397	1.3890e+02	-7.8082	-38.576851	0.000709	7.093572	1.201684	-0.000142
1398	1.3900e+02	-7.8287	-38.637408	0.000304	3.040102	0.515007	-0.000061
1399	1.3910e+02	-7.8476	-38.823116	0.000932	9.322981	1.579356	-0.000187
1400	1.3920e+02	-7.8686	-38.948267	0.000628	6.282878	1.064348	-0.000126
1401	1.3930e+02	-7.8874	-39.097641	0.000750	7.498919	1.270351	-0.000150
1402	1.3940e+02	-7.9080	-39.226829	0.000649	6.485552	1.098682	-0.000130
1403	1.3950e+02	-7.9282	-39.323721	0.000486	4.864164	0.824012	-0.000097
1404	1.3960e+02	-7.9483	-39.481169	0.000790	7.904266	1.339019	-0.000158
1405	1.3970e+02	-7.9672	-39.654766	0.000871	8.714960	1.476354	-0.000174
1406	1.3980e+02	-7.9876	-39.743583	0.000446	4.458817	0.755344	-0.000089
1407	1.3990e+02	-8.0083	-39.864697	0.000608	6.080205	1.030015	-0.000122
1408	1.4000e+02	-8.0278	-40.050405	0.000932	9.322981	1.579356	-0.000187
1409	1.4010e+02	-8.0481	-40.143259	0.000466	4.661490	0.789678	-0.000093
1410	1.4020e+02	-8.0673	-40.304745	0.000811	8.106940	1.373353	-0.000162
1411	1.4029e+02	-8.0869	-40.421822	0.000588	5.877531	0.995681	-0.000118
1412	1.4039e+02	-8.1077	-40.575233	0.000770	7.701593	1.304685	-0.000154
1413	1.4049e+02	-8.1262	-40.708458	0.000669	6.688225	1.133016	-0.000134
1414	1.4059e+02	-8.1470	-40.886092	0.000892	8.917634	1.510688	-0.000179
1415	1.4069e+02	-8.1668	-40.978946	0.000466	4.661490	0.789678	-0.000093
1416	1.4079e+02	-8.1870	-41.120246	0.000709	7.093572	1.201684	-0.000142
1417	1.4089e+02	-8.2060	-41.245397	0.000628	6.282878	1.064348	-0.000126
1418	1.4099e+02	-8.2268	-41.390734	0.000730	7.296246	1.236017	-0.000146
1419	1.4109e+02	-8.2476	-41.540108	0.000750	7.498919	1.270351	-0.000150
1420	1.4119e+02	-8.2658	-41.705631	0.000831	8.309613	1.407687	-0.000166
1421	1.4129e+02	-8.2857	-41.842893	0.000689	6.890899	1.167350	-0.000138
1422	1.4139e+02	-8.3066	-41.980156	0.000689	6.890899	1.167350	-0.000138
1423	1.4149e+02	-8.3282	-42.133567	0.000770	7.701593	1.304685	-0.000154
1424	1.4159e+02	-8.3464	-42.262755	0.000649	6.485552	1.098682	-0.000130
1425	1.4169e+02	-8.3662	-42.387907	0.000628	6.282878	1.064348	-0.000126
1426	1.4179e+02	-8.3870	-42.561504	0.000871	8.714960	1.476354	-0.000174
1427	1.4189e+02	-8.4061	-42.727026	0.000831	8.309613	1.407687	-0.000166
1428	1.4199e+02	-8.4253	-42.852177	0.000628	6.282878	1.064348	-0.000126
1429	1.4209e+02	-8.4470	-43.045960	0.000973	9.728328	1.648023	-0.000195
1430	1.4219e+02	-8.4653	-43.154962	0.000547	5.472184	0.927013	-0.000110
1431	1.4228e+02	-8.4856	-43.324522	0.000851	8.512287	1.442020	-0.000170
1432	1.4238e+02	-8.5051	-43.465822	0.000709	7.093572	1.201684	-0.000142
1433	1.4248e+02	-8.5254	-43.611159	0.000730	7.296246	1.236017	-0.000146
1434	1.4258e+02	-8.5455	-43.796867	0.000932	9.322981	1.579356	-0.000187
1435	1.4268e+02	-8.5654	-43.901833	0.000527	5.269511	0.892679	-0.000105
1436	1.4278e+02	-8.5852	-44.083504	0.000912	9.120307	1.545022	-0.000183
1437	1.4288e+02	-8.6044	-44.261138	0.000892	8.917634	1.510688	-0.000179
1438	1.4298e+02	-8.6259	-44.366103	0.000527	5.269511	0.892679	-0.000105
1439	1.4308e+02	-8.6445	-44.547774	0.000912	9.120307	1.545022	-0.000183
1440	1.4318e+02	-8.6713	-44.709260	0.000811	8.106940	1.373353	-0.000162
1441	1.4328e+02	-8.6853	-44.890931	0.000912	9.120307	1.545022	-0.000183
1442	1.4338e+02	-8.7056	-45.040305	0.000750	7.498919	1.270351	-0.000150
1443	1.4348e+02	-8.7251	-45.209865	0.000851	8.512287	1.442020	-0.000170
1444	1.4358e+02	-8.7448	-45.363276	0.000770	7.701593	1.304685	-0.000154
1445	1.4368e+02	-8.7657	-45.516687	0.000770	7.701593	1.304685	-0.000154
1446	1.4378e+02	-8.7851	-45.706432	0.000953	9.525654	1.613689	-0.000191
1447	1.4388e+02	-8.8051	-45.783138	0.000385	3.850796	0.652343	-0.000077
1448	1.4398e+02	-8.8242	-46.017292	0.001176	11.755063	1.991361	-0.000235
1449	1.4408e+02	-8.8445	-46.150517	0.000669	6.688225	1.133016	-0.000134
1450	1.4418e+02	-8.8644	-46.316040	0.000831	8.309613	1.407687	-0.000166
1451	1.4428e+02	-8.8834	-46.513859	0.000993	9.931001	1.682357	-0.000199
1452	1.4437e+02	-8.9044	-46.687456	0.000871	8.714960	1.476354	-0.000174
1453	1.4447e+02	-8.9236	-46.828756	0.000709	7.093572	1.201684	-0.000142
1454	1.4457e+02	-8.9441	-47.034650	0.001034	10.336348	1.751025	-0.000207
1455	1.4467e+02	-8.9635	-47.163838	0.000649	6.485552	1.098682	-0.000130
1456	1.4477e+02	-8.9842	-47.357621	0.000973	9.728328	1.648023	-0.000195
1457	1.4487e+02	-9.0036	-47.490846	0.000669	6.688225	1.133016	-0.000134
1458	1.4497e+02	-9.0230	-47.684629	0.000973	9.728328	1.648023	-0.000195
1459	1.4507e+02	-9.0430	-47.838040	0.000770	7.701593	1.304685	-0.000154
1460	1.4517e+02	-9.0628	-48.019711	0.000912	9.120307	1.545022	-0.000183
1461	1.4527e+02	-9.0823	-48.197345	0.000892	8.917634	1.510688	-0.000179
1462	1.4537e+02	-9.1029	-48.354793	0.000790	7.904266	1.339019	-0.000158
1463	1.4547e+02	-9.1234	-48.528390	0.000871	8.714960	1.476354	-0.000174
1464	1.4557e+02	-9.1431	-48.750433	0.001115	11.147042	1.888360	-0.000223
1465	1.4567e+02	-9.1623	-48.883658	0.000669	6.688225	1.133016	-0.000134
1466	1.4577e+02	-9.1830	-49.065329	0.000912	9.120307	1.545022	-0.000183
1467	1.4587e+02	-9.2032	-49.283335	0.001094	10.944369	1.854026	-0.000219
1468	1.4597e+02	-9.2231	-49.444820	0.000811	8.106940	1.373353	-0.000162
1469	1.4607e+02	-9.2431	-49.658788	0.001074	10.741695	1.819692	-0.000215
1470	1.4617e+02	-9.2622	-49.836422	0.000892	8.917634	1.510688	-0.000179
1471	1.4626e+02	-9.2822	-50.058465	0.001115	11.147042	1.888360	-0.000223
1472	1.4636e+02	-9.3027	-50.215913	0.000790	7.904266	1.339019	-0.000158
1473	1.4646e+02	-9.3216	-50.417770	0.001013	10.133675	1.716691	-0.000203
1474	1.4656e+02	-9.3429	-50.587329	0.000851	8.512287	1.442020	-0.000170
1475	1.4666e+02	-9.3613	-50.801298	0.001074	10.741695	1.819692	-0.000215
1476	1.4676e+02	-9.3828	-50.991043	0.000953	9.525654	1.613689	-0.000191
1477	1.4686e+02	-9.4016	-51.172714	0.000912	9.120307	1.545022	-0.000183
1478	1.4696e+02	-9.4220	-51.382645	0.001054	10.539022	1.785359	-0.000211
1479	1.4706e+02	-9.4424	-51.552205	0.000851	8.512287	1.442020	-0.000170
1480	1.4716e+02	-9.4611	-51.766173	0.001074	10.741695	1.819692	-0.000215
1481	1.4726e+02	-9.4810	-51.980141	0.001074	10.741695	1.819692	-0.000215
1482	1.4736e+02	-9.5018	-52.161812	0.000912	9.120307	1.545022	-0.000183
1483	1.4746e+02	-9.5213	-52.371743	0.001054	10.539022	1.785359	-0.000211
1484	1.4756e+02	-9.5404	-52.581674	0.001054	10.539022	1.785359	-0.000211
1485	1.4766e+02	-9.5605	-52.803717	0.001115	11.147042	1.888360	-0.000223
1486	1.4776e+02	-9.5819	-53.017685	0.001074	10.741695	1.819692	-0.000215
1487	1.4786e+02	-9.6016	-53.207430	0.000953	9.525654	1.613689	-0.000191
1488	1.4796e+02	-9.6210	-53.405250	0.000993	9.931001	1.682357	-0.000199
1489	1.4806e+02	-9.6411	-53.619218	0.001074	10.741695	1.819692	-0.000215
1490	1.4816e+02	-9.6613	-53.833186	0.001074	10.741695	1.819692	-0.000215
1491	1.4825e+02	-9.6802	-54.031006	0.000993	9.931001	1.682357	-0.000199
1492	1.4835e+02	-9.7012	-54.281309	0.001257	12.565756	2.128697	-0.000252
1493	1.4845e+02	-9.7192	-54.475091	0.000973	9.728328	1.648023	-0.000195
1494	1.4855e+02	-9.7407	-54.693096	0.001094	10.944369	1.854026	-0.000219
1495	1.4865e+02	-9.7594	-54.882842	0.000953	9.525654	1.613689	-0.000191
1496	1.4875e+02	-9.7797	-55.145256	0.001317	13.173777	2.231698	-0.000264
1497	1.4885e+02	-9.8013	-55.387484	0.001216	12.160410	2.060029	-0.000243
1498	1.4895e+02	-9.8199	-55.601452	0.001074	10.741695	1.819692	-0.000215
1499	1.4905e+02	-9.8392	-55.811383	0.001054	10.539022	1.785359	-0.000211
1500	1.4915e+02	-9.8603	-56.081871	0.001358	13.579124	2.300366	-0.000272
1501	1.4925e+02	-9.8801	-56.263542	0.000912	9.120307	1.545022	-0.000183
1502	1.4935e+02	-9.9004	-56.489622	0.001135	11.349716	1.922694	-0.000227
1503	1.4945e+02	-9.9199	-56.735887	0.001236	12.363083	2.094363	-0.000248
1504	1.4955e+02	-9.9399	-56.982152	0.001236	12.363083	2.094363	-0.000248
1505	1.4965e+02	-9.9609	-57.200158	0.001094	10.944369	1.854026	-0.000219
1506	1.4975e+02	-9.9794	-57.450460	0.001257	12.565756	2.128697	-0.000252
1507	1.4985e+02	-9.9992	-57.644243	0.000973	9.728328	1.648023	-0.000195
1508	1.4995e+02	-9.9794	-57.789580	-0.000730	-7.296246	-1.236017	-0.000146
1509	1.5005e+02	-9.9591	-57.862248	-0.000365	-3.648123	-0.618009	-0.000073
1510	1.5015e+02	-9.9396	-57.971251	-0.000547	-5.472184	-0.927013	-0.000110
1511	1.5025e+02	-9.9196	-58.051993	-0.000405	-4.053470	-0.686676	-0.000081
1512	1.5034e+02	-9.9001	-58.100439	-0.000243	-2.432082	-0.412006	-0.000049
1513	1.5044e+02	-9.8796	-58.165033	-0.000324	-3.242776	-0.549341	-0.000065
1514	1.5054e+02	-9.8604	-58.241739	-0.000385	-3.850796	-0.652343	-0.000077
1515	1.5064e+02	-9.8407	-58.282110	-0.000203	-2.026735	-0.343338	-0.000041
1516	1.5074e+02	-9.8196	-58.354779	-0.000365	-3.648123	-0.618009	-0.000073
1517	1.5084e+02	-9.7998	-58.391113	-0.000182	-1.824061	-0.309004	-0.000037
1518	1.5094e+02	-9.7802	-58.407261	-0.000081	-0.810694	-0.137335	-0.000016
1519	1.5104e+02	-9.7604	-58.435521	-0.000142	-1.418714	-0.240337	-0.000028
1520	1.5114e+02	-9.7408	-58.536450	-0.000507	-5.066837	-0.858345	-0.000101
1521	1.5124e+02	-9.7203	-58.532412	0.000020	0.202673	0.034334	0.000004
1522	1.5134e+02	-9.7006	-58.548561	-0.000081	-0.810694	-0.137335	-0.000016
1523	1.5144e+02	-9.6806	-58.613155	-0.000324	-3.242776	-0.549341	-0.000065
1524	1.5154e+02	-9.6609	-58.629304	-0.000081	-0.810694	-0.137335	-0.000016
1525	1.5164e+02	-9.6402	-58.645452	-0.000081	-0.810694	-0.137335	-0.000016
1526	1.5174e+02	-9.6207	-58.657564	-0.000061	-0.608020	-0.103001	-0.000012
1527	1.5184e+02	-9.6005	-58.657564	0.000000	0.000000	0.000000	0.000000
1528	1.5194e+02	-9.5810	-58.673712	-0.000081	-0.810694	-0.137335	-0.000016
1529	1.5204e+02	-9.5605	-58.649489	0.000122	1.216041	0.206003	0.000024
1530	1.5214e+02	-9.5416	-58.665638	-0.000081	-0.810694	-0.137335	-0.000016
1531	1.5224e+02	-9.5213	-58.681787	-0.000081	-0.810694	-0.137335	-0.000016
1532	1.5233e+02	-9.5016	-58.689861	-0.000041	-0.405347	-0.068668	-0.000008
1533	1.5243e+02	-9.4821	-58.718121	-0.000142	-1.418714	-0.240337	-0.000028
1534	1.5253e+02	-9.4614	-58.681787	0.000182	1.824061	0.309004	0.000037
1535	1.5263e+02	-9.4418	-58.722158	-0.000203	-2.026735	-0.343338	-0.000041
1536	1.5273e+02	-9.4196	-58.726195	-0.000020	-0.202673	-0.034334	-0.000004
1537	1.5283e+02	-9.4014	-58.746381	-0.000101	-1.013367	-0.171669	-0.000020
1538	1.5293e+02	-9.3819	-58.693898	0.000263	2.634755	0.446340	0.000053
1539	1.5303e+02	-9.3614	-58.701972	-0.000041	-0.405347	-0.068668	-0.000008
1540	1.5313e+02	-9.3417	-58.706009	-0.000020	-0.202673	-0.034334	-0.000004
1541	1.5323e+02	-9.3219	-58.701972	0.000020	0.202673	0.034334	0.000004
1542	1.5333e+02	-9.3024	-58.689861	0.000061	0.608020	0.103001	0.000012
1543	1.5343e+02	-9.2827	-58.693898	-0.000020	-0.202673	-0.034334	-0.000004
1544	1.5353e+02	-9.2622	-58.653527	0.000203	2.026735	0.343338	0.000041
1545	1.5363e+02	-9.2413	-58.641415	0.000061	0.608020	0.103001	0.000012
1546	1.5373e+02	-9.2232	-58.649489	-0.000041	-0.405347	-0.068668	-0.000008
1547	1.5383e+02	-9.2030	-58.621229	0.000142	1.418714	0.240337	0.000028
1548	1.5393e+02	-9.1827	-58.617192	0.000020	0.202673	0.034334	0.000004
1549	1.5403e+02	-9.1620	-58.576821	0.000203	2.026735	0.343338	0.000041
1550	1.5413e+02	-9.1431	-58.568747	0.000041	0.405347	0.068668	0.000008
1551	1.5422e+02	-9.1234	-58.560672	0.000041	0.405347	0.068668	0.000008
1552	1.5432e+02	-9.1031	-58.552598	0.000041	0.405347	0.068668	0.000008
1553	1.5442e+02	-9.0817	-58.512227	0.000203	2.026735	0.343338	0.000041
1554	1.5452e+02	-9.0673	-58.455707	0.000284	2.837429	0.480673	0.000057
1555	1.5462e+02	-9.0434	-58.443596	0.000061	0.608020	0.103001	0.000012
1556	1.5472e+02	-9.0230	-58.423410	0.000101	1.013367	0.171669	0.000020
1557	1.5482e+02	-9.0038	-58.370927	0.000263	2.634755	0.446340	0.000053
1558	1.5492e+02	-8.9836	-58.358816	0.000061	0.608020	0.103001	0.000012
1559	1.5502e+02	-8.9626	-58.326519	0.000162	1.621388	0.274671	0.000032
1560	1.5512e+02	-8.9435	-58.298259	0.000142	1.418714	0.240337	0.000028
1561	1.5522e+02	-8.9236	-58.274036	0.000122	1.216041	0.206003	0.000024
1562	1.5532e+02	-8.9041	-58.217516	0.000284	2.837429	0.480673	0.000057
1563	1.5542e+02	-8.8838	-58.205405	0.000061	0.608020	0.103001	0.000012
1564	1.5552e+02	-8.8635	-58.152922	0.000263	2.634755	0.446340	0.000053
1565	1.5562e+02	-8.8445	-58.169070	-0.000081	-0.810694	-0.137335	-0.000016
1566	1.5572e+02	-8.8257	-58.092365	0.000385	3.850796	0.652343	0.000077
1567	1.5582e+02	-8.8046	-58.080253	0.000061	0.608020	0.103001	0.000012
1568	1.5592e+02	-8.7842	-58.031808	0.000243	2.432082	0.412006	0.000049
1569	1.5602e+02	-8.7653	-58.019696	0.000061	0.608020	0.103001	0.000012
1570	1.5612e+02	-8.7448	-57.947028	0.000365	3.648123	0.618009	0.000073
1571	1.5622e+02	-8.7251	-57.926842	0.000101	1.013367	0.171669	0.000020
1572	1.5631e+02	-8.7045	-57.886471	0.000203	2.026735	0.343338	0.000041
1573	1.5641e+02	-8.6847	-57.842062	0.000223	2.229408	0.377672	0.000045
1574	1.5651e+02	-8.6661	-57.805728	0.000182	1.824061	0.309004	0.000037
1575	1.5661e+02	-8.6451	-57.737097	0.000345	3.445449	0.583675	0.000069
1576	1.5671e+02	-8.6255	-57.664428	0.000365	3.648123	0.618009	0.000073
1577	1.5681e+02	-8.6046	-57.672503	-0.000041	-0.405347	-0.068668	-0.000008
1578	1.5691e+02	-8.5858	-57.587723	0.000426	4.256143	0.721010	0.000085
1579	1.5701e+02	-8.5650	-57.583686	0.000020	0.202673	0.034334	0.000004
1580	1.5711e+02	-8.5455	-57.511017	0.000365	3.648123	0.618009	0.000073
1581	1.5721e+02	-8.5256	-57.462572	0.000243	2.432082	0.412006	0.000049
1582	1.5731e+02	-8.5056	-57.450460	0.000061	0.608020	0.103001	0.000012
1583	1.5741e+02	-8.4853	-57.369717	0.000405	4.053470	0.686676	0.000081
1584	1.5751e+02	-8.4656	-57.321272	0.000243	2.432082	0.412006	0.000049
1585	1.5761e+02	-8.4450	-57.280900	0.000203	2.026735	0.343338	0.000041
1586	1.5771e+02	-8.4259	-57.232455	0.000243	2.432082	0.412006	0.000049
1587	1.5781e+02	-8.4064	-57.184009	0.000243	2.432082	0.412006	0.000049
1588	1.5791e+02	-8.3868	-57.139601	0.000223	2.229408	0.377672	0.000045
1589	1.5801e+02	-8.3664	-57.091155	0.000243	2.432082	0.412006	0.000049
1590	1.5811e+02	-8.3466	-57.022524	0.000345	3.445449	0.583675	0.000069
1591	1.5821e+02	-8.3258	-57.018487	0.000020	0.202673	0.034334	0.000004
1592	1.5830e+02	-8.3058	-56.978115	0.000203	2.026735	0.343338	0.000041
1593	1.5840e+02	-8.2858	-56.869113	0.000547	5.472184	0.927013	0.000110
1594	1.5850e+02	-8.2659	-56.844890	0.000122	1.216041	0.206003	0.000024
1595	1.5860e+02	-8.2460	-56.800481	0.000223	2.229408	0.377672	0.000045
1596	1.5870e+02	-8.2272	-56.719739	0.000405	4.053470	0.686676	0.000081
1597	1.5880e+02	-8.2065	-56.622847	0.000486	4.864164	0.824012	0.000097
1598	1.5890e+02	-8.1876	-56.582476	0.000203	2.026735	0.343338	0.000041
1599	1.5900e+02	-8.1670	-56.586513	-0.000020	-0.202673	-0.034334	-0.000004
1600	1.5910e+02	-8.1480	-56.538067	0.000243	2.432082	0.412006	0.000049
1601	1.5920e+02	-8.1255	-56.433102	0.000527	5.269511	0.892679	0.000105
1602	1.5930e+02	-8.1073	-56.384656	0.000243	2.432082	0.412006	0.000049
1603	1.5940e+02	-8.0862	-56.332174	0.000263	2.634755	0.446340	0.000053
1604	1.5950e+02	-8.0669	-56.275654	0.000284	2.837429	0.480673	0.000057
1605	1.5960e+02	-8.0475	-56.223171	0.000263	2.634755	0.446340	0.000053
1606	1.5970e+02	-8.0282	-56.154540	0.000345	3.445449	0.583675	0.000069
1607	1.5980e+02	-8.0075	-56.126280	0.000142	1.418714	0.240337	0.000028
1608	1.5990e+02	-7.9871	-56.021314	0.000527	5.269511	0.892679	0.000105
1609	1.6000e+02	-7.9672	-56.021314	0.000000	0.000000	0.000000	0.000000
1610	1.6010e+02	-7.9477	-55.952683	0.000345	3.445449	0.583675	0.000069
1611	1.6019e+02	-7.9279	-55.892126	0.000304	3.040102	0.515007	0.000061
1612	1.6029e+02	-7.9073	-55.815420	0.000385	3.850796	0.652343	0.000077
1613	1.6039e+02	-7.8876	-55.787160	0.000142	1.418714	0.240337	0.000028
1614	1.6049e+02	-7.8680	-55.678158	0.000547	5.472184	0.927013	0.000110
1615	1.6059e+02	-7.8491	-55.621638	0.000284	2.837429	0.480673	0.000057
1616	1.6069e+02	-7.8278	-55.569155	0.000263	2.634755	0.446340	0.000053
1617	1.6079e+02	-7.8093	-55.488412	0.000405	4.053470	0.686676	0.000081
1618	1.6089e+02	-7.7887	-55.435929	0.000263	2.634755	0.446340	0.000053
1619	1.6099e+02	-7.7687	-55.347112	0.000446	4.458817	0.755344	0.000089
1620	1.6109e+02	-7.7489	-55.330964	0.000081	0.810694	0.137335	0.000016
1621	1.6119e+02	-7.7283	-55.230035	0.000507	5.066837	0.858345	0.000101
1622	1.6129e+02	-7.7089	-55.149293	0.000405	4.053470	0.686676	0.000081
1623	1.6139e+02	-7.6886	-55.104884	0.000223	2.229408	0.377672	0.000045
1624	1.6149e+02	-7.6689	-55.084699	0.000101	1.013367	0.171669	0.000020
1625	1.6159e+02	-7.6491	-55.007993	0.000385	3.850796	0.652343	0.000077
1626	1.6169e+02	-7.6288	-54.931287	0.000385	3.850796	0.652343	0.000077
1627	1.6179e+02	-7.6093	-54.846508	0.000426	4.256143	0.721010	0.000085
1628	1.6189e+02	-7.5885	-54.769802	0.000385	3.850796	0.652343	0.000077
1629	1.6199e+02	-7.5687	-54.717319	0.000263	2.634755	0.446340	0.000053
1630	1.6209e+02	-7.5505	-54.620428	0.000486	4.864164	0.824012	0.000097
1631	1.6219e+02	-7.5298	-54.571982	0.000243	2.432082	0.412006	0.000049
1632	1.6228e+02	-7.5104	-54.507388	0.000324	3.242776	0.549341	0.000065
1633	1.6238e+02	-7.4906	-54.430683	0.000385	3.850796	0.652343	0.000077
1634	1.6248e+02	-7.4693	-54.353977	0.000385	3.850796	0.652343	0.000077
1635	1.6258e+02	-7.4500	-54.277271	0.000385	3.850796	0.652343	0.000077
1636	1.6268e+02	-7.4312	-54.220752	0.000284	2.837429	0.480673	0.000057
1637	1.6278e+02	-7.4152	-54.152120	0.000345	3.445449	0.583675	0.000069
1638	1.6288e+02	-7.3898	-54.111749	0.000203	2.026735	0.343338	0.000041
1639	1.6298e+02	-7.3709	-53.998709	0.000567	5.674858	0.961347	0.000114
1640	1.6308e+02	-7.3505	-53.950263	0.000243	2.432082	0.412006	0.000049
1641	1.6318e+02	-7.3309	-53.849335	0.000507	5.066837	0.858345	0.000101
1642	1.6328e+02	-7.3102	-53.853372	-0.000020	-0.202673	-0.034334	-0.000004
1643	1.6338e+02	-7.2910	-53.752444	0.000507	5.066837	0.858345	0.000101
1644	1.6348e+02	-7.2708	-53.675738	0.000385	3.850796	0.652343	0.000077
1645	1.6358e+02	-7.2505	-53.619218	0.000284	2.837429	0.480673	0.000057
1646	1.6368e+02	-7.2319	-53.558661	0.000304	3.040102	0.515007	0.000061
1647	1.6378e+02	-7.2113	-53.437547	0.000608	6.080205	1.030015	0.000122
1648	1.6388e+02	-7.1912	-53.409287	0.000142	1.418714	0.240337	0.000028
1649	1.6398e+02	-7.1719	-53.352767	0.000284	2.837429	0.480673	0.000057
1650	1.6408e+02	-7.1523	-53.227616	0.000628	6.282878	1.064348	0.000126
1651	1.6418e+02	-7.1319	-53.175133	0.000263	2.634755	0.446340	0.000053
1652	1.6427e+02	-7.1123	-53.098428	0.000385	3.850796	0.652343	0.000077
1653	1.6437e+02	-7.0911	-53.037871	0.000304	3.040102	0.515007	0.000061
1654	1.6447e+02	-7.0712	-52.985388	0.000263	2.634755	0.446340	0.000053
1655	1.6457e+02	-7.0517	-52.900608	0.000426	4.256143	0.721010	0.000085
1656	1.6467e+02	-7.0315	-52.827940	0.000365	3.648123	0.618009	0.000073
1657	1.6477e+02	-7.0117	-52.710863	0.000588	5.877531	0.995681	0.000118
1658	1.6487e+02	-6.9917	-52.670491	0.000203	2.026735	0.343338	0.000041
1659	1.6497e+02	-6.9713	-52.561489	0.000547	5.472184	0.927013	0.000110
1660	1.6507e+02	-6.9522	-52.517080	0.000223	2.229408	0.377672	0.000045
1661	1.6517e+02	-6.9312	-52.444412	0.000365	3.648123	0.618009	0.000073
1662	1.6527e+02	-6.9118	-52.363669	0.000405	4.053470	0.686676	0.000081
1663	1.6537e+02	-6.8932	-52.291001	0.000365	3.648123	0.618009	0.000073
1664	1.6547e+02	-6.8727	-52.282926	0.000041	0.405347	0.068668	0.000008
1665	1.6557e+02	-6.8517	-52.145664	0.000689	6.890899	1.167350	0.000138
1666	1.6567e+02	-6.8321	-52.109330	0.000182	1.824061	0.309004	0.000037
1667	1.6577e+02	-6.8124	-52.000327	0.000547	5.472184	0.927013	0.000110
1668	1.6587e+02	-6.7926	-51.927658	0.000365	3.648123	0.618009	0.000073
1669	1.6597e+02	-6.7731	-51.911510	0.000081	0.810694	0.137335	0.000016
1670	1.6607e+02	-6.7517	-51.766173	0.000730	7.296246	1.236017	0.000146
1671	1.6616e+02	-6.7340	-51.713690	0.000263	2.634755	0.446340	0.000053
1672	1.6626e+02	-6.7126	-51.649096	0.000324	3.242776	0.549341	0.000065
1673	1.6636e+02	-6.6934	-51.511833	0.000689	6.890899	1.167350	0.000138
1674	1.6646e+02	-6.6740	-51.463388	0.000243	2.432082	0.412006	0.000049
1675	1.6656e+02	-6.6528	-51.362459	0.000507	5.066837	0.858345	0.000101
1676	1.6666e+02	-6.6331	-51.342274	0.000101	1.013367	0.171669	0.000020
1677	1.6676e+02	-6.6125	-51.196937	0.000730	7.296246	1.236017	0.000146
1678	1.6686e+02	-6.5933	-51.164640	0.000162	1.621388	0.274671	0.000032
1679	1.6696e+02	-6.5723	-51.079860	0.000426	4.256143	0.721010	0.000085
1680	1.6706e+02	-6.5541	-50.999117	0.000405	4.053470	0.686676	0.000081
1681	1.6716e+02	-6.5338	-50.906263	0.000466	4.661490	0.789678	0.000093
1682	1.6726e+02	-6.5140	-50.829558	0.000385	3.850796	0.652343	0.000077
1683	1.6736e+02	-6.4951	-50.752852	0.000385	3.850796	0.652343	0.000077
1684	1.6746e+02	-6.4742	-50.668072	0.000426	4.256143	0.721010	0.000085
1685	1.6756e+02	-6.4546	-50.631738	0.000182	1.824061	0.309004	0.000037
1686	1.6766e+02	-6.4342	-50.546958	0.000426	4.256143	0.721010	0.000085
1687	1.6776e+02	-6.4139	-50.458141	0.000446	4.458817	0.755344	0.000089
1688	1.6786e+02	-6.3947	-50.377398	0.000405	4.053470	0.686676	0.000081
1689	1.6796e+02	-6.3745	-50.252247	0.000628	6.282878	1.064348	0.000126
1690	1.6806e+02	-6.3535	-50.215913	0.000182	1.824061	0.309004	0.000037
1691	1.6816e+02	-6.3344	-50.098836	0.000588	5.877531	0.995681	0.000118
1692	1.6825e+02	-6.3139	-50.014056	0.000426	4.256143	0.721010	0.000085
1693	1.6835e+02	-6.2949	-49.973685	0.000203	2.026735	0.343338	0.000041
1694	1.6845e+02	-6.2759	-49.872756	0.000507	5.066837	0.858345	0.000101
1695	1.6855e+02	-6.2549	-49.796051	0.000385	3.850796	0.652343	0.000077
1696	1.6865e+02	-6.2350	-49.727419	0.000345	3.445449	0.583675	0.000069
1697	1.6875e+02	-6.2154	-49.602268	0.000628	6.282878	1.064348	0.000126
1698	1.6885e+02	-6.1949	-49.569971	0.000162	1.621388	0.274671	0.000032
1699	1.6895e+02	-6.1760	-49.477117	0.000466	4.661490	0.789678	0.000093
1700	1.6905e+02	-6.1551	-49.416560	0.000304	3.040102	0.515007	0.000061
1701	1.6915e+02	-6.1357	-49.311594	0.000527	5.269511	0.892679	0.000105
1702	1.6925e+02	-6.1157	-49.242963	0.000345	3.445449	0.583675	0.000069
1703	1.6935e+02	-6.0956	-49.125886	0.000588	5.877531	0.995681	0.000118
1704	1.6945e+02	-6.0751	-49.089552	0.000182	1.824061	0.309004	0.000037
1705	1.6955e+02	-6.0561	-48.948252	0.000709	7.093572	1.201684	0.000142
1706	1.6965e+02	-6.0364	-48.915955	0.000162	1.621388	0.274671	0.000032
1707	1.6975e+02	-6.0161	-48.782730	0.000669	6.688225	1.133016	0.000134
1708	1.6985e+02	-5.9961	-48.730247	0.000263	2.634755	0.446340	0.000053
1709	1.6995e+02	-5.9753	-48.665653	0.000324	3.242776	0.549341	0.000065
1710	1.7005e+02	-5.9565	-48.528390	0.000689	6.890899	1.167350	0.000138
1711	1.7015e+02	-5.9360	-48.467833	0.000304	3.040102	0.515007	0.000061
1712	1.7024e+02	-5.9152	-48.443610	0.000122	1.216041	0.206003	0.000024
1713	1.7034e+02	-5.8957	-48.338645	0.000527	5.269511	0.892679	0.000105
1714	1.7044e+02	-5.8763	-48.257902	0.000405	4.053470	0.686676	0.000081
1715	1.7054e+02	-5.8566	-48.161011	0.000486	4.864164	0.824012	0.000097
1716	1.7064e+02	-5.8357	-48.056045	0.000527	5.269511	0.892679	0.000105
1717	1.7074e+02	-5.8173	-47.991451	0.000324	3.242776	0.549341	0.000065
1718	1.7084e+02	-5.7965	-47.910708	0.000405	4.053470	0.686676	0.000081
1719	1.7094e+02	-5.7773	-47.854188	0.000284	2.837429	0.480673	0.000057
1720	1.7104e+02	-5.7564	-47.729037	0.000628	6.282878	1.064348	0.000126
1721	1.7114e+02	-5.7359	-47.656369	0.000365	3.648123	0.618009	0.000073
1722	1.7124e+02	-5.7176	-47.579663	0.000385	3.850796	0.652343	0.000077
1723	1.7134e+02	-5.6975	-47.482772	0.000486	4.864164	0.824012	0.000097
1724	1.7144e+02	-5.6747	-47.377806	0.000527	5.269511	0.892679	0.000105
1725	1.7154e+02	-5.6570	-47.301101	0.000385	3.850796	0.652343	0.000077
1726	1.7164e+02	-5.6375	-47.192098	0.000547	5.472184	0.927013	0.000110
1727	1.7174e+02	-5.6178	-47.167875	0.000122	1.216041	0.206003	0.000024
1728	1.7184e+02	-5.5971	-47.050798	0.000588	5.877531	0.995681	0.000118
1729	1.7194e+02	-5.5768	-46.966019	0.000426	4.256143	0.721010	0.000085
1730	1.7204e+02	-5.5576	-46.848942	0.000588	5.877531	0.995681	0.000118
1731	1.7213e+02	-5.5377	-46.796459	0.000263	2.634755	0.446340	0.000053
1732	1.7223e+02	-5.5173	-46.683419	0.000567	5.674858	0.961347	0.000114
1733	1.7233e+02	-5.4980	-46.622862	0.000304	3.040102	0.515007	0.000061
1734	1.7243e+02	-5.4782	-46.534045	0.000446	4.458817	0.755344	0.000089
1735	1.7253e+02	-5.4578	-46.437154	0.000486	4.864164	0.824012	0.000097
1736	1.7263e+02	-5.4385	-46.348337	0.000446	4.458817	0.755344	0.000089
1737	1.7273e+02	-5.4180	-46.287780	0.000304	3.040102	0.515007	0.000061
1738	1.7283e+02	-5.3986	-46.178777	0.000547	5.472184	0.927013	0.000110
1739	1.7293e+02	-5.3782	-46.098034	0.000405	4.053470	0.686676	0.000081
1740	1.7303e+02	-5.3575	-46.001143	0.000486	4.864164	0.824012	0.000097
1741	1.7313e+02	-5.3375	-45.884066	0.000588	5.877531	0.995681	0.000118
1742	1.7323e+02	-5.3189	-45.847732	0.000182	1.824061	0.309004	0.000037
1743	1.7333e+02	-5.2982	-45.766989	0.000405	4.053470	0.686676	0.000081
1744	1.7343e+02	-5.2792	-45.633764	0.000669	6.688225	1.133016	0.000134
1745	1.7353e+02	-5.2586	-45.581281	0.000263	2.634755	0.446340	0.000053
1746	1.7363e+02	-5.2391	-45.431907	0.000750	7.498919	1.270351	0.000150
1747	1.7373e+02	-5.2188	-45.375387	0.000284	2.837429	0.480673	0.000057
1748	1.7383e+02	-5.1988	-45.270422	0.000527	5.269511	0.892679	0.000105
1749	1.7393e+02	-5.1788	-45.213902	0.000284	2.837429	0.480673	0.000057
1750	1.7403e+02	-5.1589	-45.137196	0.000385	3.850796	0.652343	0.000077
1751	1.7413e+02	-5.1393	-45.020119	0.000588	5.877531	0.995681	0.000118
1752	1.7422e+02	-5.1201	-44.894968	0.000628	6.282878	1.064348	0.000126
1753	1.7432e+02	-5.0998	-44.806151	0.000446	4.458817	0.755344	0.000089
1754	1.7442e+02	-5.0798	-44.729445	0.000385	3.850796	0.652343	0.000077
1755	1.7452e+02	-5.0592	-44.685037	0.000223	2.229408	0.377672	0.000045
1756	1.7462e+02	-5.0389	-44.551811	0.000669	6.688225	1.133016	0.000134
1757	1.7472e+02	-5.0198	-44.475106	0.000385	3.850796	0.652343	0.000077
1758	1.7482e+02	-5.0005	-44.337843	0.000689	6.890899	1.167350	0.000138
1759	1.7492e+02	-4.9805	-44.277286	0.000304	3.040102	0.515007	0.000061
1760	1.7502e+02	-4.9606	-44.220766	0.000284	2.837429	0.480673	0.000057
1761	1.7512e+02	-4.9409	-44.079467	0.000709	7.093572	1.201684	0.000142
1762	1.7522e+02	-4.9194	-43.986612	0.000466	4.661490	0.789678	0.000093
1763	1.7532e+02	-4.8994	-43.909907	0.000385	3.850796	0.652343	0.000077
1764	1.7542e+02	-4.8802	-43.796867	0.000567	5.674858	0.961347	0.000114
1765	1.7552e+02	-4.8602	-43.724199	0.000365	3.648123	0.618009	0.000073
1766	1.7562e+02	-4.8410	-43.639419	0.000426	4.256143	0.721010	0.000085
1767	1.7572e+02	-4.8210	-43.494082	0.000730	7.296246	1.236017	0.000146
1768	1.7582e+02	-4.8007	-43.441599	0.000263	2.634755	0.446340	0.000053
1769	1.7592e+02	-4.7805	-43.340671	0.000507	5.066837	0.858345	0.000101
1770	1.7602e+02	-4.7607	-43.243779	0.000486	4.864164	0.824012	0.000097
1771	1.7612e+02	-4.7411	-43.138814	0.000527	5.269511	0.892679	0.000105
1772	1.7621e+02	-4.7209	-43.070183	0.000345	3.445449	0.583675	0.000069
1773	1.7631e+02	-4.7002	-42.940994	0.000649	6.485552	1.098682	0.000130
1774	1.7641e+02	-4.6808	-42.868326	0.000365	3.648123	0.618009	0.000073
1775	1.7651e+02	-4.6606	-42.771435	0.000486	4.864164	0.824012	0.000097
1776	1.7661e+02	-4.6416	-42.654358	0.000588	5.877531	0.995681	0.000118
1777	1.7671e+02	-4.6201	-42.557466	0.000486	4.864164	0.824012	0.000097
1778	1.7681e+02	-4.6017	-42.468649	0.000446	4.458817	0.755344	0.000089
1779	1.7691e+02	-4.5811	-42.416167	0.000263	2.634755	0.446340	0.000053
1780	1.7701e+02	-4.5615	-42.315238	0.000507	5.066837	0.858345	0.000101
1781	1.7711e+02	-4.5415	-42.210273	0.000527	5.269511	0.892679	0.000105
1782	1.7721e+02	-4.5216	-42.113381	0.000486	4.864164	0.824012	0.000097
1783	1.7731e+02	-4.5016	-42.008416	0.000527	5.269511	0.892679	0.000105
1784	1.7741e+02	-4.4812	-41.891339	0.000588	5.877531	0.995681	0.000118
1785	1.7751e+02	-4.4614	-41.810596	0.000405	4.053470	0.686676	0.000081
1786	1.7761e+02	-4.4420	-41.721779	0.000446	4.458817	0.755344	0.000089
1787	1.7771e+02	-4.4218	-41.588554	0.000669	6.688225	1.133016	0.000134
1788	1.7781e+02	-4.4015	-41.499737	0.000446	4.458817	0.755344	0.000089
1789	1.7791e+02	-4.3817	-41.398808	0.000507	5.066837	0.858345	0.000101
1790	1.7801e+02	-4.3625	-41.285769	0.000567	5.674858	0.961347	0.000114
1791	1.7810e+02	-4.3425	-41.184840	0.000507	5.066837	0.858345	0.000101
1792	1.7820e+02	-4.3228	-41.075838	0.000547	5.472184	0.927013	0.000110
1793	1.7830e+02	-4.3022	-40.974909	0.000507	5.066837	0.858345	0.000101
1794	1.7840e+02	-4.2848	-40.869944	0.000527	5.269511	0.892679	0.000105
1795	1.7850e+02	-4.2627	-40.736718	0.000669	6.688225	1.133016	0.000134
1796	1.7860e+02	-4.2422	-40.651938	0.000426	4.256143	0.721010	0.000085
1797	1.7870e+02	-4.2221	-40.595418	0.000284	2.837429	0.480673	0.000057
1798	1.7880e+02	-4.2032	-40.486416	0.000547	5.472184	0.927013	0.000110
1799	1.7890e+02	-4.1818	-40.324930	0.000811	8.106940	1.373353	0.000162
1800	1.7900e+02	-4.1632	-40.240150	0.000426	4.256143	0.721010	0.000085
1801	1.7910e+02	-4.1432	-40.159408	0.000405	4.053470	0.686676	0.000081
1802	1.7920e+02	-4.1223	-40.054442	0.000527	5.269511	0.892679	0.000105
1803	1.7930e+02	-4.1028	-39.929291	0.000628	6.282878	1.064348	0.000126
1804	1.7940e+02	-4.0829	-39.848548	0.000405	4.053470	0.686676	0.000081
1805	1.7950e+02	-4.0636	-39.739546	0.000547	5.472184	0.927013	0.000110
1806	1.7960e+02	-4.0424	-39.626506	0.000567	5.674858	0.961347	0.000114
1807	1.7970e+02	-4.0230	-39.549800	0.000385	3.850796	0.652343	0.000077
1808	1.7980e+02	-4.0036	-39.420612	0.000649	6.485552	1.098682	0.000130
1809	1.7990e+02	-3.9834	-39.275275	0.000730	7.296246	1.236017	0.000146
1810	1.8000e+02	-3.9644	-39.202607	0.000365	3.648123	0.618009	0.000073
1811	1.8009e+02	-3.9433	-39.133975	0.000345	3.445449	0.583675	0.000069
1812	1.8019e+02	-3.9236	-39.012861	0.000608	6.080205	1.030015	0.000122
1813	1.8029e+02	-3.9038	-38.891747	0.000608	6.080205	1.030015	0.000122
1814	1.8039e+02	-3.8834	-38.802930	0.000446	4.458817	0.755344	0.000089
1815	1.8049e+02	-3.8644	-38.685853	0.000588	5.877531	0.995681	0.000118
1816	1.8059e+02	-3.8443	-38.576851	0.000547	5.472184	0.927013	0.000110
1817	1.8069e+02	-3.8243	-38.492071	0.000426	4.256143	0.721010	0.000085
1818	1.8079e+02	-3.8037	-38.346734	0.000730	7.296246	1.236017	0.000146
1819	1.8089e+02	-3.7837	-38.261954	0.000426	4.256143	0.721010	0.000085
1820	1.8099e+02	-3.7646	-38.156988	0.000527	5.269511	0.892679	0.000105
1821	1.8109e+02	-3.7451	-38.023763	0.000669	6.688225	1.133016	0.000134
1822	1.8119e+02	-3.7253	-37.938983	0.000426	4.256143	0.721010	0.000085
1823	1.8129e+02	-3.7045	-37.821906	0.000588	5.877531	0.995681	0.000118
1824	1.8139e+02	-3.6850	-37.741163	0.000405	4.053470	0.686676	0.000081
1825	1.8149e+02	-3.6653	-37.607938	0.000669	6.688225	1.133016	0.000134
1826	1.8159e+02	-3.6452	-37.498935	0.000547	5.472184	0.927013	0.000110
1827	1.8169e+02	-3.6246	-37.410118	0.000446	4.458817	0.755344	0.000089
1828	1.8179e+02	-3.6050	-37.268819	0.000709	7.093572	1.201684	0.000142
1829	1.8189e+02	-3.5847	-37.184039	0.000426	4.256143	0.721010	0.000085
1830	1.8199e+02	-3.5655	-37.099259	0.000426	4.256143	0.721010	0.000085
1831	1.8209e+02	-3.5454	-36.990256	0.000547	5.472184	0.927013	0.000110
1832	1.8218e+02	-3.5263	-36.857031	0.000669	6.688225	1.133016	0.000134
1833	1.8228e+02	-3.5057	-36.748028	0.000547	5.472184	0.927013	0.000110
1834	1.8238e+02	-3.4856	-36.622877	0.000628	6.282878	1.064348	0.000126
1835	1.8248e+02	-3.4657	-36.554246	0.000345	3.445449	0.583675	0.000069
1836	1.8258e+02	-3.4467	-36.441206	0.000567	5.674858	0.961347	0.000114
1837	1.8268e+02	-3.4270	-36.312017	0.000649	6.485552	1.098682	0.000130
1838	1.8278e+02	-3.4059	-36.182829	0.000649	6.485552	1.098682	0.000130
1839	1.8288e+02	-3.3866	-36.085938	0.000486	4.864164	0.824012	0.000097
1840	1.8298e+02	-3.3667	-35.972898	0.000567	5.674858	0.961347	0.000114
1841	1.8308e+02	-3.3459	-35.884081	0.000446	4.458817	0.755344	0.000089
1842	1.8318e+02	-3.3250	-35.726633	0.000790	7.904266	1.339019	0.000158
1843	1.8328e+02	-3.3065	-35.686261	0.000203	2.026735	0.343338	0.000041
1844	1.8338e+02	-3.2857	-35.532850	0.000770	7.701593	1.304685	0.000154
1845	1.8348e+02	-3.2658	-35.423848	0.000547	5.472184	0.927013	0.000110
1846	1.8358e+02	-3.2465	-35.306771	0.000588	5.877531	0.995681	0.000118
1847	1.8368e+02	-3.2255	-35.226028	0.000405	4.053470	0.686676	0.000081
1848	1.8378e+02	-3.2068	-35.060505	0.000831	8.309613	1.407687	0.000166
1849	1.8388e+02	-3.1856	-34.959577	0.000507	5.066837	0.858345	0.000101
1850	1.8398e+02	-3.1726	-34.862686	0.000486	4.864164	0.824012	0.000097
1851	1.8407e+02	-3.1474	-34.773869	0.000446	4.458817	0.755344	0.000089
1852	1.8417e+02	-3.1268	-34.600272	0.000871	8.714960	1.476354	0.000174
1853	1.8427e+02	-3.1072	-34.515492	0.000426	4.256143	0.721010	0.000085
1854	1.8437e+02	-3.0872	-34.386304	0.000649	6.485552	1.098682	0.000130
1855	1.8447e+02	-3.0676	-34.249041	0.000689	6.890899	1.167350	0.000138
1856	1.8457e+02	-3.0480	-34.204633	0.000223	2.229408	0.377672	0.000045
1857	1.8467e+02	-3.0267	-34.022961	0.000912	9.120307	1.545022	0.000183
1858	1.8477e+02	-3.0077	-33.942219	0.000405	4.053470	0.686676	0.000081
1859	1.8487e+02	-2.9877	-33.800919	0.000709	7.093572	1.201684	0.000142
1860	1.8497e+02	-2.9668	-33.695953	0.000527	5.269511	0.892679	0.000105
1861	1.8507e+02	-2.9473	-33.603099	0.000466	4.661490	0.789678	0.000093
1862	1.8517e+02	-2.9279	-33.449688	0.000770	7.701593	1.304685	0.000154
1863	1.8527e+02	-2.9072	-33.328574	0.000608	6.080205	1.030015	0.000122
1864	1.8537e+02	-2.8865	-33.255906	0.000365	3.648123	0.618009	0.000073
1865	1.8547e+02	-2.8683	-33.118643	0.000689	6.890899	1.167350	0.000138
1866	1.8557e+02	-2.8477	-33.041937	0.000385	3.850796	0.652343	0.000077
1867	1.8567e+02	-2.8271	-32.896601	0.000730	7.296246	1.236017	0.000146
1868	1.8577e+02	-2.8082	-32.759338	0.000689	6.890899	1.167350	0.000138
1869	1.8587e+02	-2.7884	-32.678595	0.000405	4.053470	0.686676	0.000081
1870	1.8597e+02	-2.7679	-32.553444	0.000628	6.282878	1.064348	0.000126
1871	1.8606e+02	-2.7470	-32.464627	0.000446	4.458817	0.755344	0.000089
1872	1.8616e+02	-2.7277	-32.286993	0.000892	8.917634	1.510688	0.000179
1873	1.8626e+02	-2.7077	-32.173953	0.000567	5.674858	0.961347	0.000114
1874	1.8636e+02	-2.6888	-32.073025	0.000507	5.066837	0.858345	0.000101
1875	1.8646e+02	-2.6688	-31.959985	0.000567	5.674858	0.961347	0.000114
1876	1.8656e+02	-2.6486	-31.830797	0.000649	6.485552	1.098682	0.000130
1877	1.8666e+02	-2.6284	-31.733905	0.000486	4.864164	0.824012	0.000097
1878	1.8676e+02	-2.6077	-31.584531	0.000750	7.498919	1.270351	0.000150
1879	1.8686e+02	-2.5888	-31.479566	0.000527	5.269511	0.892679	0.000105
1880	1.8696e+02	-2.5687	-31.382675	0.000486	4.864164	0.824012	0.000097
1881	1.8706e+02	-2.5484	-31.253486	0.000649	6.485552	1.098682	0.000130
1882	1.8716e+02	-2.5291	-31.156595	0.000486	4.864164	0.824012	0.000097
1883	1.8726e+02	-2.5095	-31.027407	0.000649	6.485552	1.098682	0.000130
1884	1.8736e+02	-2.4899	-30.906293	0.000608	6.080205	1.030015	0.000122
1885	1.8746e+02	-2.4698	-30.809401	0.000486	4.864164	0.824012	0.000097
1886	1.8756e+02	-2.4498	-30.655990	0.000770	7.701593	1.304685	0.000154
1887	1.8766e+02	-2.4312	-30.567173	0.000446	4.458817	0.755344	0.000089
1888	1.8776e+02	-2.4104	-30.437985	0.000649	6.485552	1.098682	0.000130
1889	1.8786e+02	-2.3898	-30.304759	0.000669	6.688225	1.133016	0.000134
1890	1.8796e+02	-2.3711	-30.191720	0.000567	5.674858	0.961347	0.000114
1891	1.8806e+02	-2.3496	-30.078680	0.000567	5.674858	0.961347	0.000114
1892	1.8815e+02	-2.3306	-29.953529	0.000628	6.282878	1.064348	0.000126
1893	1.8825e+02	-2.3108	-29.812229	0.000709	7.093572	1.201684	0.000142
1894	1.8835e+02	-2.2902	-29.658818	0.000770	7.701593	1.304685	0.000154
1895	1.8845e+02	-2.2704	-29.582112	0.000385	3.850796	0.652343	0.000077
1896	1.8855e+02	-2.2507	-29.465035	0.000588	5.877531	0.995681	0.000118
1897	1.8865e+02	-2.2296	-29.335847	0.000649	6.485552	1.098682	0.000130
1898	1.8875e+02	-2.2059	-29.242993	0.000466	4.661490	0.789678	0.000093
1899	1.8885e+02	-2.1896	-29.093619	0.000750	7.498919	1.270351	0.000150
1900	1.8895e+02	-2.1708	-28.944245	0.000750	7.498919	1.270351	0.000150
1901	1.8905e+02	-2.1503	-28.859465	0.000426	4.256143	0.721010	0.000085
1902	1.8915e+02	-2.1320	-28.730276	0.000649	6.485552	1.098682	0.000130
1903	1.8925e+02	-2.1117	-28.588977	0.000709	7.093572	1.201684	0.000142
1904	1.8935e+02	-2.0916	-28.471900	0.000588	5.877531	0.995681	0.000118
1905	1.8945e+02	-2.0712	-28.379046	0.000466	4.661490	0.789678	0.000093
1906	1.8955e+02	-2.0515	-28.245820	0.000669	6.688225	1.133016	0.000134
1907	1.8965e+02	-2.0309	-28.132780	0.000567	5.674858	0.961347	0.000114
1908	1.8975e+02	-2.0113	-28.035889	0.000486	4.864164	0.824012	0.000097
1909	1.8985e+02	-1.9919	-27.878441	0.000790	7.904266	1.339019	0.000158
1910	1.8995e+02	-1.9719	-27.741178	0.000689	6.890899	1.167350	0.000138
1911	1.9004e+02	-1.9525	-27.611990	0.000649	6.485552	1.098682	0.000130
1912	1.9014e+02	-1.9312	-27.490876	0.000608	6.080205	1.030015	0.000122
1913	1.9024e+02	-1.9118	-27.385910	0.000527	5.269511	0.892679	0.000105
1914	1.9034e+02	-1.8919	-27.224425	0.000811	8.106940	1.373353	0.000162
1915	1.9044e+02	-1.8724	-27.095237	0.000649	6.485552	1.098682	0.000130
1916	1.9054e+02	-1.8526	-26.982197	0.000567	5.674858	0.961347	0.000114
1917	1.9064e+02	-1.8318	-26.836860	0.000730	7.296246	1.236017	0.000146
1918	1.9074e+02	-1.8127	-26.752080	0.000426	4.256143	0.721010	0.000085
1919	1.9084e+02	-1.7918	-26.574446	0.000892	8.917634	1.510688	0.000179
1920	1.9094e+02	-1.7719	-26.469480	0.000527	5.269511	0.892679	0.000105
1921	1.9104e+02	-1.7525	-26.332218	0.000689	6.890899	1.167350	0.000138
1922	1.9114e+02	-1.7336	-26.251475	0.000405	4.053470	0.686676	0.000081
1923	1.9124e+02	-1.7130	-26.122287	0.000649	6.485552	1.098682	0.000130
1924	1.9134e+02	-1.6932	-25.972913	0.000750	7.498919	1.270351	0.000150
1925	1.9144e+02	-1.6734	-25.823539	0.000750	7.498919	1.270351	0.000150
1926	1.9154e+02	-1.6523	-25.714536	0.000547	5.472184	0.927013	0.000110
1927	1.9164e+02	-1.6325	-25.581311	0.000669	6.688225	1.133016	0.000134
1928	1.9174e+02	-1.6126	-25.476345	0.000527	5.269511	0.892679	0.000105
1929	1.9184e+02	-1.5916	-25.351194	0.000628	6.282878	1.064348	0.000126
1930	1.9194e+02	-1.5726	-25.197783	0.000770	7.701593	1.304685	0.000154
1931	1.9203e+02	-1.5520	-25.080706	0.000588	5.877531	0.995681	0.000118
1932	1.9213e+02	-1.5326	-24.931332	0.000750	7.498919	1.270351	0.000150
1933	1.9223e+02	-1.5123	-24.834440	0.000486	4.864164	0.824012	0.000097
1934	1.9233e+02	-1.4931	-24.685066	0.000750	7.498919	1.270351	0.000150
1935	1.9243e+02	-1.4728	-24.547804	0.000689	6.890899	1.167350	0.000138
1936	1.9253e+02	-1.4529	-24.475135	0.000365	3.648123	0.618009	0.000073
1937	1.9263e+02	-1.4323	-24.329799	0.000730	7.296246	1.236017	0.000146
1938	1.9273e+02	-1.4133	-24.180425	0.000750	7.498919	1.270351	0.000150
1939	1.9283e+02	-1.3925	-24.027013	0.000770	7.701593	1.304685	0.000154
1940	1.9293e+02	-1.3738	-23.922048	0.000527	5.269511	0.892679	0.000105
1941	1.9303e+02	-1.3536	-23.829194	0.000466	4.661490	0.789678	0.000093
1942	1.9313e+02	-1.3336	-23.643485	0.000932	9.322981	1.579356	0.000187
1943	1.9323e+02	-1.3136	-23.522371	0.000608	6.080205	1.030015	0.000122
1944	1.9333e+02	-1.2947	-23.397220	0.000628	6.282878	1.064348	0.000126
1945	1.9343e+02	-1.2733	-23.304366	0.000466	4.661490	0.789678	0.000093
1946	1.9353e+02	-1.2547	-23.171141	0.000669	6.688225	1.133016	0.000134
1947	1.9363e+02	-1.2346	-23.070212	0.000507	5.066837	0.858345	0.000101
1948	1.9373e+02	-1.2151	-22.892578	0.000892	8.917634	1.510688	0.000179
1949	1.9383e+02	-1.1941	-22.739167	0.000770	7.701593	1.304685	0.000154
1950	1.9393e+02	-1.1752	-22.670536	0.000345	3.445449	0.583675	0.000069
1951	1.9403e+02	-1.1549	-22.476753	0.000973	9.728328	1.648023	0.000195
1952	1.9412e+02	-1.1357	-22.383899	0.000466	4.661490	0.789678	0.000093
1953	1.9422e+02	-1.1140	-22.218377	0.000831	8.309613	1.407687	0.000166
1954	1.9432e+02	-1.0960	-22.109374	0.000547	5.472184	0.927013	0.000110
1955	1.9442e+02	-1.0760	-21.955963	0.000770	7.701593	1.304685	0.000154
1956	1.9452e+02	-1.0553	-21.814663	0.000709	7.093572	1.201684	0.000142
1957	1.9462e+02	-1.0349	-21.701623	0.000567	5.674858	0.961347	0.000114
1958	1.9472e+02	-1.0154	-21.596658	0.000527	5.269511	0.892679	0.000105
1959	1.9482e+02	-0.9953	-21.443246	0.000770	7.701593	1.304685	0.000154
1960	1.9492e+02	-0.9756	-21.301947	0.000709	7.093572	1.201684	0.000142
1961	1.9502e+02	-0.9558	-21.152573	0.000750	7.498919	1.270351	0.000150
1962	1.9512e+02	-0.9361	-21.019347	0.000669	6.688225	1.133016	0.000134
1963	1.9522e+02	-0.9162	-20.857862	0.000811	8.106940	1.373353	0.000162
1964	1.9532e+02	-0.8957	-20.756933	0.000507	5.066837	0.858345	0.000101
1965	1.9542e+02	-0.8762	-20.619671	0.000689	6.890899	1.167350	0.000138
1966	1.9552e+02	-0.8574	-20.478371	0.000709	7.093572	1.201684	0.000142
1967	1.9562e+02	-0.8366	-20.349183	0.000649	6.485552	1.098682	0.000130
1968	1.9572e+02	-0.8163	-20.219994	0.000649	6.485552	1.098682	0.000130
1969	1.9582e+02	-0.7959	-20.098880	0.000608	6.080205	1.030015	0.000122
1970	1.9592e+02	-0.7765	-19.925283	0.000871	8.714960	1.476354	0.000174
1971	1.9601e+02	-0.7558	-19.836466	0.000446	4.458817	0.755344	0.000089
1972	1.9611e+02	-0.7365	-19.723427	0.000567	5.674858	0.961347	0.000114
1973	1.9621e+02	-0.7158	-19.529644	0.000973	9.728328	1.648023	0.000195
1974	1.9631e+02	-0.6962	-19.400456	0.000649	6.485552	1.098682	0.000130
1975	1.9641e+02	-0.6769	-19.299527	0.000507	5.066837	0.858345	0.000101
1976	1.9651e+02	-0.6561	-19.178413	0.000608	6.080205	1.030015	0.000122
1977	1.9661e+02	-0.6370	-18.992705	0.000932	9.322981	1.579356	0.000187
1978	1.9671e+02	-0.6163	-18.875628	0.000588	5.877531	0.995681	0.000118
1979	1.9681e+02	-0.5969	-18.766625	0.000547	5.472184	0.927013	0.000110
1980	1.9691e+02	-0.5773	-18.625326	0.000709	7.093572	1.201684	0.000142
1981	1.9701e+02	-0.5572	-18.488063	0.000689	6.890899	1.167350	0.000138
1982	1.9711e+02	-0.5371	-18.334652	0.000770	7.701593	1.304685	0.000154
1983	1.9721e+02	-0.5165	-18.181241	0.000770	7.701593	1.304685	0.000154
1984	1.9731e+02	-0.4975	-18.116647	0.000324	3.242776	0.549341	0.000065
1985	1.9741e+02	-0.4772	-17.939013	0.000892	8.917634	1.510688	0.000179
1986	1.9751e+02	-0.4560	-17.773490	0.000831	8.309613	1.407687	0.000166
1987	1.9761e+02	-0.4369	-17.660450	0.000567	5.674858	0.961347	0.000114
1988	1.9771e+02	-0.4175	-17.535299	0.000628	6.282878	1.064348	0.000126
1989	1.9781e+02	-0.3931	-17.402074	0.000669	6.688225	1.133016	0.000134
1990	1.9791e+02	-0.3786	-17.280960	0.000608	6.080205	1.030015	0.000122
1991	1.9800e+02	-0.3566	-17.131586	0.000750	7.498919	1.270351	0.000150
1992	1.9810e+02	-0.3381	-16.978174	0.000770	7.701593	1.304685	0.000154
1993	1.9820e+02	-0.3181	-16.857060	0.000608	6.080205	1.030015	0.000122
1994	1.9830e+02	-0.2982	-16.739983	0.000588	5.877531	0.995681	0.000118
1995	1.9840e+02	-0.2781	-16.590609	0.000750	7.498919	1.270351	0.000150
1996	1.9850e+02	-0.2585	-16.437198	0.000770	7.701593	1.304685	0.000154
1997	1.9860e+02	-0.2386	-16.332233	0.000527	5.269511	0.892679	0.000105
1998	1.9870e+02	-0.2184	-16.203044	0.000649	6.485552	1.098682	0.000130
1999	1.9880e+02	-0.1986	-16.057707	0.000730	7.296246	1.236017	0.000146
2000	1.9890e+02	-0.1788	-15.936593	0.000608	6.080205	1.030015	0.000122
2001	1.9900e+02	-0.1579	-15.746848	0.000953	9.525654	1.613689	0.000191
2002	1.9910e+02	-0.1381	-15.637845	0.000547	5.472184	0.927013	0.000110
2003	1.9920e+02	-0.1189	-15.512694	0.000628	6.282878	1.064348	0.000126
2004	1.9930e+02	-0.0993	-15.351209	0.000811	8.106940	1.373353	0.000162
2005	1.9940e+02	-0.0793	-15.278540	0.000365	3.648123	0.618009	0.000073
2006	1.9950e+02	-0.0584	-15.108980	0.000851	8.512287	1.442020	0.000170
2007	1.9960e+02	-0.0387	-14.935384	0.000871	8.714960	1.476354	0.000174
2008	1.9970e+02	-0.0194	-14.834455	0.000507	5.066837	0.858345	0.000101
2009	1.9980e+02	0.0004	-14.717378	0.000507	5.066837	0.858345	0.000118

PMax (uC/cm2):	5.50e+01
Pr (uC/cm2):	5.43e+00
-Pr (uC/cm2):	-1.85e+01
PLoss (uC/cm2):	-1.84e+01
-Vc:	-8.23e-01
C (Max-Eff) (nF):	5.50e-01
K (Eff):	9.32e+02
Vert. (+/-Pr) Shift (uC/cm2):	-6.52e+00
Offset (uC/cm2):	-3.75e+00

A (Loop Area - uC/cm2·Volts):	-3.71e-02



Hysteresis Version: 5.48.1 - Radiant Technologies, Inc., 1999 - 9/12/24

