»»»»»»»»»»»»»»»»»»»»»»»»»»»»»»»»»»»» Hysteresis ««««««««««««««««««««««««««««««««««««
»»»  Executed Version:	5.48.1
»»»  Vision Version:	5.48.4 (R)
»»»  Vision Compiled:	9/18/24
»»»  Driver Version:	5.47.0
»»»  Windows Version:	Windows 8 or 8.1
»»»  Processor Information:	x86 (AMD or Intel) - 32 Processors
»»»  Tester Name:	PMF21124-494 (100V)
»»»  Tester S/N:	PMF21124-494
»»»  Internal Amp Type:	100V RevK 270k
»»»  Internal Amp S/N:	iAB2-596/K     
»»»  Execution Count:	1
»»»»»»»»»»»»»»»»»»»»»»»»»»»»»»»»»»»»»»»»»»««««««««««««««««««««««««««««««««««««««««««

Stored:	7/3/2025 - 14:6:54
Configured:	07/03/25 12:01:19 PM
Executed:	07/03/25 02:06:06 PM

»»»»»»»»»»»»»»»»»»»»»»»»»»»»»»»»»»» Sample Info ««««««««««««««««««««««««««««««««««««
Sample Name:	
Lot Name:	
Wafer Name:	
Die Row/Column:	0/0
Capacitor Number:	0
Sample Area (cm2):	1.00e-04
Sample Thickness (microns):	1.50e-01

Amplifier:	Internal

»»»»»»»»»»»»»»»»»»»»»»»»»»»»»»»»»»» Tester Info «««««««««««««««««««««««««««««««««««
Tester Name:	PMF21124-494 (100V)
Tester Serial Number:	PMF21124-494
Return Signal Amp. Level:	0.19 [Index: 3]

»»»»»»»»»»»»»»»»»»»»»»»»»»»»»»»» Hysteresis Info ««««««««««««««««««««««««««««««««««
Task Name:	Hyst-410
Volts:	10.00
Field:	666.67 (kV/cm)
DCBias:	0.00
DCField:	0.00 (kV/cm)
Hysteresis Period (ms):	2.00e+02
Preset:	Enabled
Preset Delay (ms):	1.00e+03
Profile:	Standard Bipolar

»»»»»»»»»»»»»»»»»»»»»»»»»»»»»»»»»»»»»» Data «««««««««««««««««««««««««««««««««««««««
Points:	2009

Valid Data

Point	Time (ms)	Drive Voltage	Measured Polarization (uC/cm2)	Capacitance (uF)	Normalized Capacitance (uF/cm2)	Dielectric Constant	Instantaneous Current (mA)
   1	0.0000e+00	-0.0005	6.584568	0.000507	5.067224	0.858411	0.000101
   2	9.9500e-02	0.0191	6.685497	0.000507	5.067224	0.858411	0.000101
   3	1.9900e-01	0.0381	6.790462	0.000527	5.269913	0.892747	0.000105
   4	2.9850e-01	0.0587	6.935799	0.000730	7.296802	1.236112	0.000146
   5	3.9800e-01	0.0792	7.032690	0.000486	4.864535	0.824075	0.000097
   6	4.9750e-01	0.0991	7.081136	0.000243	2.432267	0.412037	0.000049
   7	5.9700e-01	0.1184	7.234547	0.000770	7.702180	1.304785	0.000154
   8	6.9650e-01	0.1382	7.343550	0.000547	5.472602	0.927084	0.000110
   9	7.9600e-01	0.1591	7.448515	0.000527	5.269913	0.892747	0.000105
  10	8.9550e-01	0.1778	7.517147	0.000345	3.445712	0.583719	0.000069
  11	9.9500e-01	0.1991	7.658446	0.000709	7.094113	1.201775	0.000142
  12	1.0945e+00	0.2183	7.771486	0.000568	5.675291	0.961420	0.000114
  13	1.1940e+00	0.2387	7.900675	0.000649	6.486047	1.098766	0.000130
  14	1.2935e+00	0.2583	7.969306	0.000345	3.445712	0.583719	0.000069
  15	1.3930e+00	0.2777	8.090420	0.000608	6.080669	1.030093	0.000122
  16	1.4925e+00	0.2975	8.207497	0.000588	5.877980	0.995757	0.000118
  17	1.5920e+00	0.3187	8.312462	0.000527	5.269913	0.892747	0.000105
  18	1.6915e+00	0.3381	8.441651	0.000649	6.486047	1.098766	0.000130
  19	1.7910e+00	0.3577	8.538542	0.000486	4.864535	0.824075	0.000097
  20	1.8905e+00	0.3790	8.671768	0.000669	6.688736	1.133102	0.000134
  21	1.9900e+00	0.3985	8.780770	0.000547	5.472602	0.927084	0.000110
  22	2.0895e+00	0.4176	8.833253	0.000263	2.634956	0.446374	0.000053
  23	2.1890e+00	0.4374	8.978590	0.000730	7.296802	1.236112	0.000146
  24	2.2885e+00	0.4573	9.087593	0.000547	5.472602	0.927084	0.000110
  25	2.3880e+00	0.4778	9.204669	0.000588	5.877980	0.995757	0.000118
  26	2.4875e+00	0.4970	9.337895	0.000669	6.688736	1.133102	0.000134
  27	2.5870e+00	0.5172	9.430749	0.000466	4.661846	0.789738	0.000093
  28	2.6865e+00	0.5378	9.499380	0.000345	3.445712	0.583719	0.000069
  29	2.7860e+00	0.5577	9.640680	0.000709	7.094113	1.201775	0.000142
  30	2.8855e+00	0.5776	9.765831	0.000628	6.283358	1.064430	0.000126
  31	2.9850e+00	0.5973	9.874834	0.000547	5.472602	0.927084	0.000110
  32	3.0845e+00	0.6167	9.971725	0.000486	4.864535	0.824075	0.000097
  33	3.1840e+00	0.6372	10.084765	0.000568	5.675291	0.961420	0.000114
  34	3.2835e+00	0.6563	10.222028	0.000689	6.891425	1.167439	0.000138
  35	3.3830e+00	0.6768	10.326993	0.000527	5.269913	0.892747	0.000105
  36	3.4825e+00	0.6961	10.440033	0.000568	5.675291	0.961420	0.000114
  37	3.5820e+00	0.7163	10.557110	0.000588	5.877980	0.995757	0.000118
  38	3.6815e+00	0.7358	10.654001	0.000486	4.864535	0.824075	0.000097
  39	3.7810e+00	0.7567	10.767041	0.000568	5.675291	0.961420	0.000114
  40	3.8805e+00	0.7762	10.884118	0.000588	5.877980	0.995757	0.000118
  41	3.9800e+00	0.7962	11.009269	0.000628	6.283358	1.064430	0.000126
  42	4.0795e+00	0.8164	11.150569	0.000709	7.094113	1.201775	0.000142
  43	4.1790e+00	0.8370	11.215163	0.000324	3.243023	0.549383	0.000065
  44	4.2785e+00	0.8559	11.356463	0.000709	7.094113	1.201775	0.000142
  45	4.3780e+00	0.8758	11.445280	0.000446	4.459157	0.755402	0.000089
  46	4.4775e+00	0.8947	11.578505	0.000669	6.688736	1.133102	0.000134
  47	4.5770e+00	0.9160	11.695582	0.000588	5.877980	0.995757	0.000118
  48	4.6765e+00	0.9351	11.865142	0.000851	8.512936	1.442130	0.000170
  49	4.7760e+00	0.9558	11.949922	0.000426	4.256468	0.721065	0.000085
  50	4.8755e+00	0.9759	12.083147	0.000669	6.688736	1.133102	0.000134
  51	4.9750e+00	0.9953	12.204261	0.000608	6.080669	1.030093	0.000122
  52	5.0745e+00	1.0161	12.313264	0.000547	5.472602	0.927084	0.000110
  53	5.1740e+00	1.0355	12.410155	0.000486	4.864535	0.824075	0.000097
  54	5.2735e+00	1.0553	12.535306	0.000628	6.283358	1.064430	0.000126
  55	5.3730e+00	1.0752	12.632198	0.000486	4.864535	0.824075	0.000097
  56	5.4725e+00	1.0944	12.765423	0.000669	6.688736	1.133102	0.000134
  57	5.5720e+00	1.1143	12.890574	0.000628	6.283358	1.064430	0.000126
  58	5.6715e+00	1.1353	13.027837	0.000689	6.891425	1.167439	0.000138
  59	5.7710e+00	1.1549	13.177211	0.000750	7.499491	1.270448	0.000150
  60	5.8705e+00	1.1752	13.257954	0.000405	4.053779	0.686729	0.000081
  61	5.9700e+00	1.1943	13.366956	0.000547	5.472602	0.927084	0.000110
  62	6.0695e+00	1.2145	13.504219	0.000689	6.891425	1.167439	0.000138
  63	6.1690e+00	1.2347	13.601110	0.000486	4.864535	0.824075	0.000097
  64	6.2685e+00	1.2528	13.758559	0.000790	7.904869	1.339121	0.000158
  65	6.3680e+00	1.2745	13.851413	0.000466	4.661846	0.789738	0.000093
  66	6.4675e+00	1.2943	13.992712	0.000709	7.094113	1.201775	0.000142
  67	6.5670e+00	1.3138	14.077492	0.000426	4.256468	0.721065	0.000085
  68	6.6665e+00	1.3342	14.190532	0.000568	5.675291	0.961420	0.000114
  69	6.7660e+00	1.3544	14.343943	0.000770	7.702180	1.304785	0.000154
  70	6.8655e+00	1.3736	14.489280	0.000730	7.296802	1.236112	0.000146
  71	6.9650e+00	1.3942	14.561949	0.000365	3.648401	0.618056	0.000073
  72	7.0645e+00	1.4133	14.687100	0.000628	6.283358	1.064430	0.000126
  73	7.1640e+00	1.4332	14.844548	0.000790	7.904869	1.339121	0.000158
  74	7.2635e+00	1.4530	14.925291	0.000405	4.053779	0.686729	0.000081
  75	7.3630e+00	1.4729	15.046405	0.000608	6.080669	1.030093	0.000122
  76	7.4625e+00	1.4931	15.175593	0.000649	6.486047	1.098766	0.000130
  77	7.5620e+00	1.5134	15.272484	0.000486	4.864535	0.824075	0.000097
  78	7.6615e+00	1.5332	15.381487	0.000547	5.472602	0.927084	0.000110
  79	7.7610e+00	1.5522	15.555084	0.000872	8.715625	1.476467	0.000174
  80	7.8605e+00	1.5730	15.619678	0.000324	3.243023	0.549383	0.000065
  81	7.9600e+00	1.5935	15.765015	0.000730	7.296802	1.236112	0.000146
  82	8.0595e+00	1.6117	15.882092	0.000588	5.877980	0.995757	0.000118
  83	8.1590e+00	1.6331	15.991095	0.000547	5.472602	0.927084	0.000110
  84	8.2585e+00	1.6528	16.124320	0.000669	6.688736	1.133102	0.000134
  85	8.3580e+00	1.6730	16.257546	0.000669	6.688736	1.133102	0.000134
  86	8.4575e+00	1.6917	16.386734	0.000649	6.486047	1.098766	0.000130
  87	8.5570e+00	1.7126	16.487662	0.000507	5.067224	0.858411	0.000101
  88	8.6565e+00	1.7321	16.628962	0.000709	7.094113	1.201775	0.000142
  89	8.7560e+00	1.7525	16.701631	0.000365	3.648401	0.618056	0.000073
  90	8.8555e+00	1.7722	16.842930	0.000709	7.094113	1.201775	0.000142
  91	8.9550e+00	1.7918	16.931747	0.000446	4.459157	0.755402	0.000089
  92	9.0545e+00	1.8114	17.056898	0.000628	6.283358	1.064430	0.000126
  93	9.1540e+00	1.8322	17.206273	0.000750	7.499491	1.270448	0.000150
  94	9.2535e+00	1.8517	17.315275	0.000547	5.472602	0.927084	0.000110
  95	9.3530e+00	1.8714	17.432352	0.000588	5.877980	0.995757	0.000118
  96	9.4525e+00	1.8921	17.545392	0.000568	5.675291	0.961420	0.000114
  97	9.5520e+00	1.9117	17.662469	0.000588	5.877980	0.995757	0.000118
  98	9.6515e+00	1.9315	17.783583	0.000608	6.080669	1.030093	0.000122
  99	9.7510e+00	1.9511	17.945068	0.000811	8.107558	1.373458	0.000162
 100	9.8505e+00	1.9741	18.025811	0.000405	4.053779	0.686729	0.000081
 101	9.9500e+00	1.9920	18.150962	0.000628	6.283358	1.064430	0.000126
 102	1.0050e+01	2.0111	18.264002	0.000568	5.675291	0.961420	0.000114
 103	1.0149e+01	2.0315	18.377042	0.000568	5.675291	0.961420	0.000114
 104	1.0248e+01	2.0509	18.502193	0.000628	6.283358	1.064430	0.000126
 105	1.0348e+01	2.0702	18.607159	0.000527	5.269913	0.892747	0.000105
 106	1.0447e+01	2.0904	18.748458	0.000709	7.094113	1.201775	0.000142
 107	1.0547e+01	2.1111	18.853424	0.000527	5.269913	0.892747	0.000105
 108	1.0646e+01	2.1307	18.954352	0.000507	5.067224	0.858411	0.000101
 109	1.0746e+01	2.1506	19.111801	0.000790	7.904869	1.339121	0.000158
 110	1.0845e+01	2.1700	19.216766	0.000527	5.269913	0.892747	0.000105
 111	1.0945e+01	2.1917	19.321732	0.000527	5.269913	0.892747	0.000105
 112	1.1044e+01	2.2102	19.458994	0.000689	6.891425	1.167439	0.000138
 113	1.1144e+01	2.2301	19.572034	0.000568	5.675291	0.961420	0.000114
 114	1.1243e+01	2.2500	19.672962	0.000507	5.067224	0.858411	0.000101
 115	1.1343e+01	2.2697	19.846559	0.000872	8.715625	1.476467	0.000174
 116	1.1443e+01	2.2897	19.959599	0.000568	5.675291	0.961420	0.000114
 117	1.1542e+01	2.3099	20.056490	0.000486	4.864535	0.824075	0.000097
 118	1.1642e+01	2.3299	20.173567	0.000588	5.877980	0.995757	0.000118
 119	1.1741e+01	2.3503	20.262384	0.000446	4.459157	0.755402	0.000089
 120	1.1841e+01	2.3699	20.419833	0.000790	7.904869	1.339121	0.000158
 121	1.1940e+01	2.3891	20.512687	0.000466	4.661846	0.789738	0.000093
 122	1.2040e+01	2.4102	20.678209	0.000831	8.310247	1.407794	0.000166
 123	1.2139e+01	2.4310	20.734729	0.000284	2.837645	0.480710	0.000057
 124	1.2239e+01	2.4492	20.871992	0.000689	6.891425	1.167439	0.000138
 125	1.2338e+01	2.4690	20.985032	0.000568	5.675291	0.961420	0.000114
 126	1.2438e+01	2.4899	21.077886	0.000466	4.661846	0.789738	0.000093
 127	1.2537e+01	2.5103	21.243408	0.000831	8.310247	1.407794	0.000166
 128	1.2636e+01	2.5285	21.344337	0.000507	5.067224	0.858411	0.000101
 129	1.2736e+01	2.5496	21.449302	0.000527	5.269913	0.892747	0.000105
 130	1.2835e+01	2.5692	21.570416	0.000608	6.080669	1.030093	0.000122
 131	1.2935e+01	2.5883	21.663270	0.000466	4.661846	0.789738	0.000093
 132	1.3034e+01	2.6077	21.796496	0.000669	6.688736	1.133102	0.000134
 133	1.3134e+01	2.6284	21.909536	0.000568	5.675291	0.961420	0.000114
 134	1.3233e+01	2.6485	22.006427	0.000486	4.864535	0.824075	0.000097
 135	1.3333e+01	2.6688	22.127541	0.000608	6.080669	1.030093	0.000122
 136	1.3432e+01	2.6887	22.244618	0.000588	5.877980	0.995757	0.000118
 137	1.3532e+01	2.7090	22.393992	0.000750	7.499491	1.270448	0.000150
 138	1.3632e+01	2.7287	22.458586	0.000324	3.243023	0.549383	0.000065
 139	1.3731e+01	2.7482	22.563552	0.000527	5.269913	0.892747	0.000105
 140	1.3831e+01	2.7686	22.741186	0.000892	8.918314	1.510803	0.000179
 141	1.3930e+01	2.7896	22.793668	0.000263	2.634956	0.446374	0.000053
 142	1.4030e+01	2.8081	22.951117	0.000790	7.904869	1.339121	0.000158
 143	1.4129e+01	2.8294	23.056082	0.000527	5.269913	0.892747	0.000105
 144	1.4229e+01	2.8474	23.136825	0.000405	4.053779	0.686729	0.000081
 145	1.4328e+01	2.8675	23.270050	0.000669	6.688736	1.133102	0.000134
 146	1.4428e+01	2.8880	23.346756	0.000385	3.851090	0.652392	0.000077
 147	1.4527e+01	2.9063	23.451722	0.000527	5.269913	0.892747	0.000105
 148	1.4627e+01	2.9273	23.613207	0.000811	8.107558	1.373458	0.000162
 149	1.4726e+01	2.9478	23.734321	0.000608	6.080669	1.030093	0.000122
 150	1.4825e+01	2.9682	23.827175	0.000466	4.661846	0.789738	0.000093
 151	1.4925e+01	2.9874	23.915992	0.000446	4.459157	0.755402	0.000089
 152	1.5024e+01	3.0082	24.065366	0.000750	7.499491	1.270448	0.000150
 153	1.5124e+01	3.0280	24.174369	0.000547	5.472602	0.927084	0.000110
 154	1.5223e+01	3.0475	24.303557	0.000649	6.486047	1.098766	0.000130
 155	1.5323e+01	3.0676	24.388337	0.000426	4.256468	0.721065	0.000085
 156	1.5422e+01	3.0871	24.525600	0.000689	6.891425	1.167439	0.000138
 157	1.5522e+01	3.1072	24.618454	0.000466	4.661846	0.789738	0.000093
 158	1.5621e+01	3.1263	24.751679	0.000669	6.688736	1.133102	0.000134
 159	1.5721e+01	3.1460	24.864719	0.000568	5.675291	0.961420	0.000114
 160	1.5820e+01	3.1671	24.989870	0.000628	6.283358	1.064430	0.000126
 161	1.5920e+01	3.1867	25.094836	0.000527	5.269913	0.892747	0.000105
 162	1.6020e+01	3.2059	25.215950	0.000608	6.080669	1.030093	0.000122
 163	1.6119e+01	3.2262	25.300730	0.000426	4.256468	0.721065	0.000085
 164	1.6218e+01	3.2459	25.437992	0.000689	6.891425	1.167439	0.000138
 165	1.6318e+01	3.2665	25.538921	0.000507	5.067224	0.858411	0.000101
 166	1.6418e+01	3.2853	25.692332	0.000770	7.702180	1.304785	0.000154
 167	1.6517e+01	3.3056	25.789223	0.000486	4.864535	0.824075	0.000097
 168	1.6616e+01	3.3260	25.869966	0.000405	4.053779	0.686729	0.000081
 169	1.6716e+01	3.3471	25.995117	0.000628	6.283358	1.064430	0.000126
 170	1.6816e+01	3.3664	26.092008	0.000486	4.864535	0.824075	0.000097
 171	1.6915e+01	3.3865	26.217159	0.000628	6.283358	1.064430	0.000126
 172	1.7015e+01	3.4055	26.305976	0.000446	4.459157	0.755402	0.000089
 173	1.7114e+01	3.4258	26.435165	0.000649	6.486047	1.098766	0.000130
 174	1.7213e+01	3.4465	26.544167	0.000547	5.472602	0.927084	0.000110
 175	1.7313e+01	3.4658	26.628947	0.000426	4.256468	0.721065	0.000085
 176	1.7413e+01	3.4853	26.798507	0.000851	8.512936	1.442130	0.000170
 177	1.7512e+01	3.5052	26.863101	0.000324	3.243023	0.549383	0.000065
 178	1.7611e+01	3.5257	26.980178	0.000588	5.877980	0.995757	0.000118
 179	1.7711e+01	3.5460	27.101292	0.000608	6.080669	1.030093	0.000122
 180	1.7811e+01	3.5656	27.182035	0.000405	4.053779	0.686729	0.000081
 181	1.7910e+01	3.5848	27.359669	0.000892	8.918314	1.510803	0.000179
 182	1.8009e+01	3.6053	27.416189	0.000284	2.837645	0.480710	0.000057
 183	1.8109e+01	3.6256	27.525191	0.000547	5.472602	0.927084	0.000110
 184	1.8209e+01	3.6452	27.622083	0.000486	4.864535	0.824075	0.000097
 185	1.8308e+01	3.6662	27.775494	0.000770	7.702180	1.304785	0.000154
 186	1.8407e+01	3.6846	27.864311	0.000446	4.459157	0.755402	0.000089
 187	1.8507e+01	3.7048	27.969276	0.000527	5.269913	0.892747	0.000105
 188	1.8607e+01	3.7246	28.090390	0.000608	6.080669	1.030093	0.000122
 189	1.8706e+01	3.7452	28.175170	0.000426	4.256468	0.721065	0.000085
 190	1.8805e+01	3.7642	28.284173	0.000547	5.472602	0.927084	0.000110
 191	1.8905e+01	3.7833	28.389139	0.000527	5.269913	0.892747	0.000105
 192	1.9005e+01	3.8049	28.510253	0.000608	6.080669	1.030093	0.000122
 193	1.9104e+01	3.8253	28.635404	0.000628	6.283358	1.064430	0.000126
 194	1.9203e+01	3.8428	28.780741	0.000730	7.296802	1.236112	0.000146
 195	1.9303e+01	3.8647	28.817075	0.000182	1.824201	0.309028	0.000037
 196	1.9402e+01	3.8833	28.950300	0.000669	6.688736	1.133102	0.000134
 197	1.9502e+01	3.9037	29.083526	0.000669	6.688736	1.133102	0.000134
 198	1.9602e+01	3.9236	29.180417	0.000486	4.864535	0.824075	0.000097
 199	1.9701e+01	3.9438	29.257123	0.000385	3.851090	0.652392	0.000077
 200	1.9800e+01	3.9635	29.370162	0.000568	5.675291	0.961420	0.000114
 201	1.9900e+01	3.9840	29.458979	0.000446	4.459157	0.755402	0.000089
 202	2.0000e+01	4.0023	29.584131	0.000628	6.283358	1.064430	0.000126
 203	2.0099e+01	4.0239	29.717356	0.000669	6.688736	1.133102	0.000134
 204	2.0198e+01	4.0434	29.834433	0.000588	5.877980	0.995757	0.000118
 205	2.0298e+01	4.0643	29.907102	0.000365	3.648401	0.618056	0.000073
 206	2.0398e+01	4.0830	30.036290	0.000649	6.486047	1.098766	0.000130
 207	2.0497e+01	4.1031	30.185664	0.000750	7.499491	1.270448	0.000150
 208	2.0596e+01	4.1223	30.246221	0.000304	3.040334	0.515047	0.000061
 209	2.0696e+01	4.1428	30.363298	0.000588	5.877980	0.995757	0.000118
 210	2.0796e+01	4.1630	30.476338	0.000568	5.675291	0.961420	0.000114
 211	2.0895e+01	4.1828	30.573229	0.000486	4.864535	0.824075	0.000097
 212	2.0994e+01	4.2028	30.666083	0.000466	4.661846	0.789738	0.000093
 213	2.1094e+01	4.2229	30.811420	0.000730	7.296802	1.236112	0.000146
 214	2.1194e+01	4.2425	30.880051	0.000345	3.445712	0.583719	0.000069
 215	2.1293e+01	4.2633	31.033462	0.000770	7.702180	1.304785	0.000154
 216	2.1392e+01	4.2823	31.110168	0.000385	3.851090	0.652392	0.000077
 217	2.1492e+01	4.3118	31.211096	0.000507	5.067224	0.858411	0.000101
 218	2.1591e+01	4.3215	31.332210	0.000608	6.080669	1.030093	0.000122
 219	2.1691e+01	4.3430	31.477547	0.000730	7.296802	1.236112	0.000146
 220	2.1791e+01	4.3616	31.517919	0.000203	2.026890	0.343364	0.000041
 221	2.1890e+01	4.3824	31.659218	0.000709	7.094113	1.201775	0.000142
 222	2.1989e+01	4.4012	31.792444	0.000669	6.688736	1.133102	0.000134
 223	2.2089e+01	4.4217	31.909521	0.000588	5.877980	0.995757	0.000118
 224	2.2189e+01	4.4420	32.010449	0.000507	5.067224	0.858411	0.000101
 225	2.2288e+01	4.4612	32.095229	0.000426	4.256468	0.721065	0.000085
 226	2.2387e+01	4.4814	32.208269	0.000568	5.675291	0.961420	0.000114
 227	2.2487e+01	4.5022	32.321309	0.000568	5.675291	0.961420	0.000114
 228	2.2587e+01	4.5217	32.410126	0.000446	4.459157	0.755402	0.000089
 229	2.2686e+01	4.5422	32.547388	0.000689	6.891425	1.167439	0.000138
 230	2.2785e+01	4.5614	32.628131	0.000405	4.053779	0.686729	0.000081
 231	2.2885e+01	4.5811	32.765394	0.000689	6.891425	1.167439	0.000138
 232	2.2985e+01	4.6018	32.882471	0.000588	5.877980	0.995757	0.000118
 233	2.3084e+01	4.6214	32.955139	0.000365	3.648401	0.618056	0.000073
 234	2.3183e+01	4.6402	33.052030	0.000486	4.864535	0.824075	0.000097
 235	2.3283e+01	4.6605	33.185256	0.000669	6.688736	1.133102	0.000134
 236	2.3383e+01	4.6804	33.314444	0.000649	6.486047	1.098766	0.000130
 237	2.3482e+01	4.6998	33.395187	0.000405	4.053779	0.686729	0.000081
 238	2.3581e+01	4.7215	33.439595	0.000223	2.229579	0.377701	0.000045
 239	2.3681e+01	4.7411	33.617229	0.000892	8.918314	1.510803	0.000179
 240	2.3780e+01	4.7608	33.706046	0.000446	4.459157	0.755402	0.000089
 241	2.3880e+01	4.7810	33.811012	0.000527	5.269913	0.892747	0.000105
 242	2.3980e+01	4.7998	33.920014	0.000547	5.472602	0.927084	0.000110
 243	2.4079e+01	4.8208	34.029017	0.000547	5.472602	0.927084	0.000110
 244	2.4178e+01	4.8397	34.129946	0.000507	5.067224	0.858411	0.000101
 245	2.4278e+01	4.8601	34.238948	0.000547	5.472602	0.927084	0.000110
 246	2.4378e+01	4.8797	34.364099	0.000628	6.283358	1.064430	0.000126
 247	2.4477e+01	4.8997	34.432731	0.000345	3.445712	0.583719	0.000069
 248	2.4576e+01	4.9191	34.521548	0.000446	4.459157	0.755402	0.000089
 249	2.4676e+01	4.9395	34.658810	0.000689	6.891425	1.167439	0.000138
 250	2.4776e+01	4.9602	34.731479	0.000365	3.648401	0.618056	0.000073
 251	2.4875e+01	4.9805	34.840481	0.000547	5.472602	0.927084	0.000110
 252	2.4974e+01	5.0001	34.969670	0.000649	6.486047	1.098766	0.000130
 253	2.5074e+01	5.0198	35.062524	0.000466	4.661846	0.789738	0.000093
 254	2.5174e+01	5.0394	35.179601	0.000588	5.877980	0.995757	0.000118
 255	2.5273e+01	5.0593	35.252269	0.000365	3.648401	0.618056	0.000073
 256	2.5372e+01	5.0787	35.353198	0.000507	5.067224	0.858411	0.000101
 257	2.5472e+01	5.1003	35.458163	0.000527	5.269913	0.892747	0.000105
 258	2.5572e+01	5.1182	35.559092	0.000507	5.067224	0.858411	0.000101
 259	2.5671e+01	5.1385	35.664057	0.000527	5.269913	0.892747	0.000105
 260	2.5770e+01	5.1586	35.801320	0.000689	6.891425	1.167439	0.000138
 261	2.5870e+01	5.1785	35.873988	0.000365	3.648401	0.618056	0.000073
 262	2.5970e+01	5.1986	35.970879	0.000486	4.864535	0.824075	0.000097
 263	2.6069e+01	5.2180	36.067771	0.000486	4.864535	0.824075	0.000097
 264	2.6169e+01	5.2393	36.156588	0.000446	4.459157	0.755402	0.000089
 265	2.6268e+01	5.2589	36.293850	0.000689	6.891425	1.167439	0.000138
 266	2.6367e+01	5.2783	36.378630	0.000426	4.256468	0.721065	0.000085
 267	2.6467e+01	5.2975	36.471484	0.000466	4.661846	0.789738	0.000093
 268	2.6567e+01	5.3190	36.580487	0.000547	5.472602	0.927084	0.000110
 269	2.6666e+01	5.3395	36.685452	0.000527	5.269913	0.892747	0.000105
 270	2.6765e+01	5.3582	36.782344	0.000486	4.864535	0.824075	0.000097
 271	2.6865e+01	5.3756	36.895384	0.000568	5.675291	0.961420	0.000114
 272	2.6965e+01	5.3980	36.959978	0.000324	3.243023	0.549383	0.000065
 273	2.7064e+01	5.4177	37.093203	0.000669	6.688736	1.133102	0.000134
 274	2.7163e+01	5.4375	37.206243	0.000568	5.675291	0.961420	0.000114
 275	2.7263e+01	5.4574	37.274874	0.000345	3.445712	0.583719	0.000069
 276	2.7363e+01	5.4774	37.387914	0.000568	5.675291	0.961420	0.000114
 277	2.7462e+01	5.5017	37.484805	0.000486	4.864535	0.824075	0.000097
 278	2.7561e+01	5.5172	37.609957	0.000628	6.283358	1.064430	0.000126
 279	2.7661e+01	5.5371	37.658402	0.000243	2.432267	0.412037	0.000049
 280	2.7761e+01	5.5571	37.799702	0.000709	7.094113	1.201775	0.000142
 281	2.7860e+01	5.5770	37.876407	0.000385	3.851090	0.652392	0.000077
 282	2.7959e+01	5.5964	38.001559	0.000628	6.283358	1.064430	0.000126
 283	2.8059e+01	5.6170	38.114599	0.000568	5.675291	0.961420	0.000114
 284	2.8159e+01	5.6373	38.227638	0.000568	5.675291	0.961420	0.000114
 285	2.8258e+01	5.6567	38.308381	0.000405	4.053779	0.686729	0.000081
 286	2.8358e+01	5.6760	38.397198	0.000446	4.459157	0.755402	0.000089
 287	2.8457e+01	5.6969	38.534461	0.000689	6.891425	1.167439	0.000138
 288	2.8556e+01	5.7168	38.595018	0.000304	3.040334	0.515047	0.000061
 289	2.8656e+01	5.7361	38.683835	0.000446	4.459157	0.755402	0.000089
 290	2.8756e+01	5.7564	38.772652	0.000446	4.459157	0.755402	0.000089
 291	2.8855e+01	5.7768	38.877617	0.000527	5.269913	0.892747	0.000105
 292	2.8954e+01	5.7964	39.014880	0.000689	6.891425	1.167439	0.000138
 293	2.9054e+01	5.8160	39.059288	0.000223	2.229579	0.377701	0.000045
 294	2.9154e+01	5.8355	39.184439	0.000628	6.283358	1.064430	0.000126
 295	2.9253e+01	5.8561	39.257108	0.000365	3.648401	0.618056	0.000073
 296	2.9352e+01	5.8764	39.362073	0.000527	5.269913	0.892747	0.000105
 297	2.9452e+01	5.8955	39.442816	0.000405	4.053779	0.686729	0.000081
 298	2.9552e+01	5.9155	39.527596	0.000426	4.256468	0.721065	0.000085
 299	2.9651e+01	5.9368	39.648710	0.000608	6.080669	1.030093	0.000122
 300	2.9750e+01	5.9563	39.725416	0.000385	3.851090	0.652392	0.000077
 301	2.9850e+01	5.9756	39.830381	0.000527	5.269913	0.892747	0.000105
 302	2.9950e+01	5.9964	39.915161	0.000426	4.256468	0.721065	0.000085
 303	3.0049e+01	6.0166	40.016089	0.000507	5.067224	0.858411	0.000101
 304	3.0148e+01	6.0342	40.088758	0.000365	3.648401	0.618056	0.000073
 305	3.0248e+01	6.0561	40.217946	0.000649	6.486047	1.098766	0.000130
 306	3.0348e+01	6.0754	40.302726	0.000426	4.256468	0.721065	0.000085
 307	3.0447e+01	6.0957	40.363283	0.000304	3.040334	0.515047	0.000061
 308	3.0547e+01	6.1150	40.448063	0.000426	4.256468	0.721065	0.000085
 309	3.0646e+01	6.1353	40.540917	0.000466	4.661846	0.789738	0.000093
 310	3.0745e+01	6.1546	40.629734	0.000446	4.459157	0.755402	0.000089
 311	3.0845e+01	6.1749	40.742774	0.000568	5.675291	0.961420	0.000114
 312	3.0945e+01	6.1958	40.823517	0.000405	4.053779	0.686729	0.000081
 313	3.1044e+01	6.2147	40.960779	0.000689	6.891425	1.167439	0.000138
 314	3.1143e+01	6.2344	41.037485	0.000385	3.851090	0.652392	0.000077
 315	3.1243e+01	6.2539	41.130339	0.000466	4.661846	0.789738	0.000093
 316	3.1343e+01	6.2744	41.223193	0.000466	4.661846	0.789738	0.000093
 317	3.1442e+01	6.2939	41.320084	0.000486	4.864535	0.824075	0.000097
 318	3.1541e+01	6.3145	41.400827	0.000405	4.053779	0.686729	0.000081
 319	3.1641e+01	6.3336	41.493681	0.000466	4.661846	0.789738	0.000093
 320	3.1741e+01	6.3530	41.574424	0.000405	4.053779	0.686729	0.000081
 321	3.1840e+01	6.3747	41.691501	0.000588	5.877980	0.995757	0.000118
 322	3.1939e+01	6.3937	41.788392	0.000486	4.864535	0.824075	0.000097
 323	3.2039e+01	6.4129	41.840875	0.000263	2.634956	0.446374	0.000053
 324	3.2139e+01	6.4330	41.978137	0.000689	6.891425	1.167439	0.000138
 325	3.2238e+01	6.4520	42.046769	0.000345	3.445712	0.583719	0.000069
 326	3.2337e+01	6.4721	42.111363	0.000324	3.243023	0.549383	0.000065
 327	3.2437e+01	6.4938	42.236514	0.000628	6.283358	1.064430	0.000126
 328	3.2536e+01	6.5137	42.365702	0.000649	6.486047	1.098766	0.000130
 329	3.2636e+01	6.5328	42.406074	0.000203	2.026890	0.343364	0.000041
 330	3.2736e+01	6.5527	42.515076	0.000547	5.472602	0.927084	0.000110
 331	3.2835e+01	6.5732	42.575633	0.000304	3.040334	0.515047	0.000061
 332	3.2934e+01	6.5936	42.692710	0.000588	5.877980	0.995757	0.000118
 333	3.3034e+01	6.6120	42.797676	0.000527	5.269913	0.892747	0.000105
 334	3.3133e+01	6.6326	42.894567	0.000486	4.864535	0.824075	0.000097
 335	3.3233e+01	6.6525	42.975310	0.000405	4.053779	0.686729	0.000081
 336	3.3333e+01	6.6722	43.027793	0.000263	2.634956	0.446374	0.000053
 337	3.3432e+01	6.6924	43.152944	0.000628	6.283358	1.064430	0.000126
 338	3.3532e+01	6.7129	43.249835	0.000486	4.864535	0.824075	0.000097
 339	3.3631e+01	6.7327	43.342689	0.000466	4.661846	0.789738	0.000093
 340	3.3730e+01	6.7519	43.451692	0.000547	5.472602	0.927084	0.000110
 341	3.3830e+01	6.7728	43.500138	0.000243	2.432267	0.412037	0.000049
 342	3.3929e+01	6.7916	43.556657	0.000284	2.837645	0.480710	0.000057
 343	3.4029e+01	6.8119	43.701994	0.000730	7.296802	1.236112	0.000146
 344	3.4129e+01	6.8322	43.790811	0.000446	4.459157	0.755402	0.000089
 345	3.4228e+01	6.8522	43.891740	0.000507	5.067224	0.858411	0.000101
 346	3.4328e+01	6.8719	43.928074	0.000182	1.824201	0.309028	0.000037
 347	3.4427e+01	6.8920	44.077448	0.000750	7.499491	1.270448	0.000150
 348	3.4526e+01	6.9123	44.133968	0.000284	2.837645	0.480710	0.000057
 349	3.4626e+01	6.9305	44.210673	0.000385	3.851090	0.652392	0.000077
 350	3.4725e+01	6.9514	44.323713	0.000568	5.675291	0.961420	0.000114
 351	3.4825e+01	6.9705	44.388307	0.000324	3.243023	0.549383	0.000065
 352	3.4925e+01	6.9912	44.505384	0.000588	5.877980	0.995757	0.000118
 353	3.5024e+01	7.0111	44.590164	0.000426	4.256468	0.721065	0.000085
 354	3.5123e+01	7.0305	44.683018	0.000466	4.661846	0.789738	0.000093
 355	3.5223e+01	7.0501	44.743575	0.000304	3.040334	0.515047	0.000061
 356	3.5322e+01	7.0710	44.840467	0.000486	4.864535	0.824075	0.000097
 357	3.5422e+01	7.0915	44.949469	0.000547	5.472602	0.927084	0.000110
 358	3.5522e+01	7.1111	45.054435	0.000527	5.269913	0.892747	0.000105
 359	3.5621e+01	7.1304	45.119029	0.000324	3.243023	0.549383	0.000065
 360	3.5721e+01	7.1505	45.187660	0.000345	3.445712	0.583719	0.000069
 361	3.5820e+01	7.1703	45.280514	0.000466	4.661846	0.789738	0.000093
 362	3.5919e+01	7.1902	45.433926	0.000770	7.702180	1.304785	0.000154
 363	3.6019e+01	7.2107	45.474297	0.000203	2.026890	0.343364	0.000041
 364	3.6118e+01	7.2305	45.571188	0.000486	4.864535	0.824075	0.000097
 365	3.6218e+01	7.2501	45.627708	0.000284	2.837645	0.480710	0.000057
 366	3.6318e+01	7.2698	45.740748	0.000568	5.675291	0.961420	0.000114
 367	3.6417e+01	7.2912	45.829565	0.000446	4.459157	0.755402	0.000089
 368	3.6517e+01	7.3101	45.886085	0.000284	2.837645	0.480710	0.000057
 369	3.6616e+01	7.3298	45.962790	0.000385	3.851090	0.652392	0.000077
 370	3.6715e+01	7.3503	46.071793	0.000547	5.472602	0.927084	0.000110
 371	3.6815e+01	7.3699	46.152536	0.000405	4.053779	0.686729	0.000081
 372	3.6914e+01	7.3898	46.269613	0.000588	5.877980	0.995757	0.000118
 373	3.7014e+01	7.4094	46.330170	0.000304	3.040334	0.515047	0.000061
 374	3.7114e+01	7.4300	46.386690	0.000284	2.837645	0.480710	0.000057
 375	3.7213e+01	7.4491	46.499729	0.000568	5.675291	0.961420	0.000114
 376	3.7313e+01	7.4682	46.604695	0.000527	5.269913	0.892747	0.000105
 377	3.7412e+01	7.4895	46.713698	0.000547	5.472602	0.927084	0.000110
 378	3.7511e+01	7.5089	46.810589	0.000486	4.864535	0.824075	0.000097
 379	3.7611e+01	7.5295	46.867109	0.000284	2.837645	0.480710	0.000057
 380	3.7711e+01	7.5488	47.004371	0.000689	6.891425	1.167439	0.000138
 381	3.7810e+01	7.5687	47.056854	0.000263	2.634956	0.446374	0.000053
 382	3.7910e+01	7.5887	47.137597	0.000405	4.053779	0.686729	0.000081
 383	3.8009e+01	7.6085	47.250637	0.000568	5.675291	0.961420	0.000114
 384	3.8108e+01	7.6287	47.274859	0.000122	1.216134	0.206019	0.000024
 385	3.8208e+01	7.6495	47.395974	0.000608	6.080669	1.030093	0.000122
 386	3.8307e+01	7.6694	47.492865	0.000486	4.864535	0.824075	0.000097
 387	3.8407e+01	7.6884	47.589756	0.000486	4.864535	0.824075	0.000097
 388	3.8507e+01	7.7088	47.690684	0.000507	5.067224	0.858411	0.000101
 389	3.8606e+01	7.7279	47.759316	0.000345	3.445712	0.583719	0.000069
 390	3.8706e+01	7.7483	47.888504	0.000649	6.486047	1.098766	0.000130
 391	3.8805e+01	7.7662	47.916764	0.000142	1.418823	0.240355	0.000028
 392	3.8904e+01	7.7870	48.033841	0.000588	5.877980	0.995757	0.000118
 393	3.9004e+01	7.8078	48.138807	0.000527	5.269913	0.892747	0.000105
 394	3.9103e+01	7.8272	48.211475	0.000365	3.648401	0.618056	0.000073
 395	3.9203e+01	7.8468	48.300292	0.000446	4.459157	0.755402	0.000089
 396	3.9303e+01	7.8674	48.368923	0.000345	3.445712	0.583719	0.000069
 397	3.9402e+01	7.8870	48.498112	0.000649	6.486047	1.098766	0.000130
 398	3.9502e+01	7.9073	48.558669	0.000304	3.040334	0.515047	0.000061
 399	3.9601e+01	7.9267	48.655560	0.000486	4.864535	0.824075	0.000097
 400	3.9700e+01	7.9462	48.772637	0.000588	5.877980	0.995757	0.000118
 401	3.9800e+01	7.9670	48.841268	0.000345	3.445712	0.583719	0.000069
 402	3.9900e+01	7.9872	48.909899	0.000345	3.445712	0.583719	0.000069
 403	3.9999e+01	8.0070	49.022939	0.000568	5.675291	0.961420	0.000114
 404	4.0099e+01	8.0276	49.103682	0.000405	4.053779	0.686729	0.000081
 405	4.0198e+01	8.0469	49.176350	0.000365	3.648401	0.618056	0.000073
 406	4.0297e+01	8.0667	49.257093	0.000405	4.053779	0.686729	0.000081
 407	4.0397e+01	8.0869	49.329762	0.000365	3.648401	0.618056	0.000073
 408	4.0496e+01	8.1064	49.450876	0.000608	6.080669	1.030093	0.000122
 409	4.0596e+01	8.1274	49.555841	0.000527	5.269913	0.892747	0.000105
 410	4.0696e+01	8.1454	49.620435	0.000324	3.243023	0.549383	0.000065
 411	4.0795e+01	8.1675	49.701178	0.000405	4.053779	0.686729	0.000081
 412	4.0895e+01	8.1857	49.789995	0.000446	4.459157	0.755402	0.000089
 413	4.0994e+01	8.2056	49.854589	0.000324	3.243023	0.549383	0.000065
 414	4.1093e+01	8.2259	49.943406	0.000446	4.459157	0.755402	0.000089
 415	4.1193e+01	8.2467	50.076632	0.000669	6.688736	1.133102	0.000134
 416	4.1292e+01	8.2661	50.121040	0.000223	2.229579	0.377701	0.000045
 417	4.1392e+01	8.2862	50.189671	0.000345	3.445712	0.583719	0.000069
 418	4.1492e+01	8.3051	50.278488	0.000446	4.459157	0.755402	0.000089
 419	4.1591e+01	8.3260	50.363268	0.000426	4.256468	0.721065	0.000085
 420	4.1691e+01	8.3453	50.484382	0.000608	6.080669	1.030093	0.000122
 421	4.1790e+01	8.3646	50.553014	0.000345	3.445712	0.583719	0.000069
 422	4.1889e+01	8.3854	50.633756	0.000405	4.053779	0.686729	0.000081
 423	4.1989e+01	8.4056	50.738722	0.000527	5.269913	0.892747	0.000105
 424	4.2089e+01	8.4244	50.815428	0.000385	3.851090	0.652392	0.000077
 425	4.2188e+01	8.4452	50.888096	0.000365	3.648401	0.618056	0.000073
 426	4.2288e+01	8.4658	50.976913	0.000446	4.459157	0.755402	0.000089
 427	4.2387e+01	8.4859	51.069767	0.000466	4.661846	0.789738	0.000093
 428	4.2486e+01	8.5045	51.154547	0.000426	4.256468	0.721065	0.000085
 429	4.2586e+01	8.5255	51.190881	0.000182	1.824201	0.309028	0.000037
 430	4.2685e+01	8.5452	51.311995	0.000608	6.080669	1.030093	0.000122
 431	4.2785e+01	8.5651	51.412924	0.000507	5.067224	0.858411	0.000101
 432	4.2885e+01	8.5840	51.457332	0.000223	2.229579	0.377701	0.000045
 433	4.2984e+01	8.6047	51.538075	0.000405	4.053779	0.686729	0.000081
 434	4.3084e+01	8.6239	51.675337	0.000689	6.891425	1.167439	0.000138
 435	4.3183e+01	8.6446	51.739932	0.000324	3.243023	0.549383	0.000065
 436	4.3282e+01	8.6649	51.828749	0.000446	4.459157	0.755402	0.000089
 437	4.3382e+01	8.6861	51.873157	0.000223	2.229579	0.377701	0.000045
 438	4.3481e+01	8.7036	51.994271	0.000608	6.080669	1.030093	0.000122
 439	4.3581e+01	8.7244	52.087125	0.000466	4.661846	0.789738	0.000093
 440	4.3681e+01	8.7428	52.163831	0.000385	3.851090	0.652392	0.000077
 441	4.3780e+01	8.7638	52.256685	0.000466	4.661846	0.789738	0.000093
 442	4.3880e+01	8.7842	52.325316	0.000345	3.445712	0.583719	0.000069
 443	4.3979e+01	8.8045	52.422208	0.000486	4.864535	0.824075	0.000097
 444	4.4078e+01	8.8232	52.462579	0.000203	2.026890	0.343364	0.000041
 445	4.4178e+01	8.8428	52.591767	0.000649	6.486047	1.098766	0.000130
 446	4.4278e+01	8.8638	52.664436	0.000365	3.648401	0.618056	0.000073
 447	4.4377e+01	8.8818	52.716918	0.000263	2.634956	0.446374	0.000053
 448	4.4477e+01	8.9019	52.821884	0.000527	5.269913	0.892747	0.000105
 449	4.4576e+01	8.9228	52.878404	0.000284	2.837645	0.480710	0.000057
 450	4.4675e+01	8.9410	52.991444	0.000568	5.675291	0.961420	0.000114
 451	4.4775e+01	8.9624	53.072186	0.000405	4.053779	0.686729	0.000081
 452	4.4874e+01	8.9823	53.144855	0.000365	3.648401	0.618056	0.000073
 453	4.4974e+01	9.0029	53.225598	0.000405	4.053779	0.686729	0.000081
 454	4.5074e+01	9.0222	53.306340	0.000405	4.053779	0.686729	0.000081
 455	4.5173e+01	9.0417	53.419380	0.000568	5.675291	0.961420	0.000114
 456	4.5273e+01	9.0625	53.496086	0.000385	3.851090	0.652392	0.000077
 457	4.5372e+01	9.0825	53.524346	0.000142	1.418823	0.240355	0.000028
 458	4.5471e+01	9.1024	53.645460	0.000608	6.080669	1.030093	0.000122
 459	4.5571e+01	9.1214	53.722165	0.000385	3.851090	0.652392	0.000077
 460	4.5670e+01	9.1413	53.802908	0.000405	4.053779	0.686729	0.000081
 461	4.5770e+01	9.1613	53.911911	0.000547	5.472602	0.927084	0.000110
 462	4.5870e+01	9.1800	53.984579	0.000365	3.648401	0.618056	0.000073
 463	4.5969e+01	9.2017	54.057248	0.000365	3.648401	0.618056	0.000073
 464	4.6069e+01	9.2200	54.146065	0.000446	4.459157	0.755402	0.000089
 465	4.6168e+01	9.2413	54.218733	0.000365	3.648401	0.618056	0.000073
 466	4.6267e+01	9.2606	54.283327	0.000324	3.243023	0.549383	0.000065
 467	4.6367e+01	9.2822	54.368107	0.000426	4.256468	0.721065	0.000085
 468	4.6467e+01	9.3002	54.432701	0.000324	3.243023	0.549383	0.000065
 469	4.6566e+01	9.3199	54.517481	0.000426	4.256468	0.721065	0.000085
 470	4.6666e+01	9.3410	54.642632	0.000628	6.283358	1.064430	0.000126
 471	4.6765e+01	9.3604	54.662818	0.000101	1.013445	0.171682	0.000020
 472	4.6864e+01	9.3817	54.755672	0.000466	4.661846	0.789738	0.000093
 473	4.6964e+01	9.4013	54.856600	0.000507	5.067224	0.858411	0.000101
 474	4.7063e+01	9.4199	54.925232	0.000345	3.445712	0.583719	0.000069
 475	4.7163e+01	9.4419	54.989826	0.000324	3.243023	0.549383	0.000065
 476	4.7263e+01	9.4584	55.050383	0.000304	3.040334	0.515047	0.000061
 477	4.7362e+01	9.4791	55.167460	0.000588	5.877980	0.995757	0.000118
 478	4.7462e+01	9.5028	55.248203	0.000405	4.053779	0.686729	0.000081
 479	4.7561e+01	9.5210	55.304722	0.000284	2.837645	0.480710	0.000057
 480	4.7660e+01	9.5399	55.369317	0.000324	3.243023	0.549383	0.000065
 481	4.7760e+01	9.5599	55.421799	0.000263	2.634956	0.446374	0.000053
 482	4.7859e+01	9.5791	55.550988	0.000649	6.486047	1.098766	0.000130
 483	4.7959e+01	9.5998	55.607508	0.000284	2.837645	0.480710	0.000057
 484	4.8059e+01	9.6200	55.720547	0.000568	5.675291	0.961420	0.000114
 485	4.8158e+01	9.6387	55.793216	0.000365	3.648401	0.618056	0.000073
 486	4.8258e+01	9.6584	55.829550	0.000182	1.824201	0.309028	0.000037
 487	4.8357e+01	9.6796	55.922404	0.000466	4.661846	0.789738	0.000093
 488	4.8456e+01	9.6994	56.035444	0.000568	5.675291	0.961420	0.000114
 489	4.8556e+01	9.7186	56.120224	0.000426	4.256468	0.721065	0.000085
 490	4.8656e+01	9.7394	56.180781	0.000304	3.040334	0.515047	0.000061
 491	4.8755e+01	9.7584	56.277672	0.000486	4.864535	0.824075	0.000097
 492	4.8855e+01	9.7784	56.314006	0.000182	1.824201	0.309028	0.000037
 493	4.8954e+01	9.7987	56.390712	0.000385	3.851090	0.652392	0.000077
 494	4.9053e+01	9.8193	56.487603	0.000486	4.864535	0.824075	0.000097
 495	4.9153e+01	9.8389	56.544123	0.000284	2.837645	0.480710	0.000057
 496	4.9252e+01	9.8589	56.604680	0.000304	3.040334	0.515047	0.000061
 497	4.9352e+01	9.8781	56.733869	0.000649	6.486047	1.098766	0.000130
 498	4.9452e+01	9.8982	56.806537	0.000365	3.648401	0.618056	0.000073
 499	4.9551e+01	9.9188	56.875168	0.000345	3.445712	0.583719	0.000069
 500	4.9651e+01	9.9380	56.955911	0.000405	4.053779	0.686729	0.000081
 501	4.9750e+01	9.9591	57.060877	0.000527	5.269913	0.892747	0.000105
 502	4.9849e+01	9.9783	57.149694	0.000446	4.459157	0.755402	0.000089
 503	4.9949e+01	9.9988	57.222362	0.000365	3.648401	0.618056	0.000073
 504	5.0048e+01	9.9787	57.181991	0.000203	2.026890	0.343364	-0.000041
 505	5.0148e+01	9.9581	57.109322	0.000365	3.648401	0.618056	-0.000073
 506	5.0248e+01	9.9377	57.044728	0.000324	3.243023	0.549383	-0.000065
 507	5.0347e+01	9.9177	57.020505	0.000122	1.216134	0.206019	-0.000024
 508	5.0447e+01	9.8983	56.907465	0.000568	5.675291	0.961420	-0.000114
 509	5.0546e+01	9.8792	56.846908	0.000304	3.040334	0.515047	-0.000061
 510	5.0645e+01	9.8584	56.830760	0.000081	0.810756	0.137346	-0.000016
 511	5.0745e+01	9.8389	56.766166	0.000324	3.243023	0.549383	-0.000065
 512	5.0844e+01	9.8180	56.689460	0.000385	3.851090	0.652392	-0.000077
 513	5.0944e+01	9.7983	56.661200	0.000142	1.418823	0.240355	-0.000028
 514	5.1044e+01	9.7779	56.600643	0.000304	3.040334	0.515047	-0.000061
 515	5.1143e+01	9.7586	56.552197	0.000243	2.432267	0.412037	-0.000049
 516	5.1242e+01	9.7392	56.475492	0.000385	3.851090	0.652392	-0.000077
 517	5.1342e+01	9.7205	56.427046	0.000243	2.432267	0.412037	-0.000049
 518	5.1441e+01	9.6997	56.334192	0.000466	4.661846	0.789738	-0.000093
 519	5.1541e+01	9.6790	56.285746	0.000243	2.432267	0.412037	-0.000049
 520	5.1641e+01	9.6595	56.245375	0.000203	2.026890	0.343364	-0.000041
 521	5.1740e+01	9.6394	56.184818	0.000304	3.040334	0.515047	-0.000061
 522	5.1840e+01	9.6198	56.091964	0.000466	4.661846	0.789738	-0.000093
 523	5.1939e+01	9.5996	56.043518	0.000243	2.432267	0.412037	-0.000049
 524	5.2038e+01	9.5801	55.970850	0.000365	3.648401	0.618056	-0.000073
 525	5.2138e+01	9.5594	55.902219	0.000345	3.445712	0.583719	-0.000069
 526	5.2237e+01	9.5396	55.829550	0.000365	3.648401	0.618056	-0.000073
 527	5.2337e+01	9.5203	55.801290	0.000142	1.418823	0.240355	-0.000028
 528	5.2437e+01	9.5007	55.724585	0.000385	3.851090	0.652392	-0.000077
 529	5.2536e+01	9.4804	55.680176	0.000223	2.229579	0.377701	-0.000045
 530	5.2636e+01	9.4602	55.635768	0.000223	2.229579	0.377701	-0.000045
 531	5.2735e+01	9.4401	55.555025	0.000405	4.053779	0.686729	-0.000081
 532	5.2834e+01	9.4202	55.437948	0.000588	5.877980	0.995757	-0.000118
 533	5.2934e+01	9.4003	55.421799	0.000081	0.810756	0.137346	-0.000016
 534	5.3033e+01	9.3807	55.341057	0.000405	4.053779	0.686729	-0.000081
 535	5.3133e+01	9.3606	55.288574	0.000263	2.634956	0.446374	-0.000053
 536	5.3233e+01	9.3420	55.228017	0.000304	3.040334	0.515047	-0.000061
 537	5.3332e+01	9.3214	55.195720	0.000162	1.621512	0.274692	-0.000032
 538	5.3431e+01	9.3011	55.070569	0.000628	6.283358	1.064430	-0.000126
 539	5.3531e+01	9.2822	55.010012	0.000304	3.040334	0.515047	-0.000061
 540	5.3630e+01	9.2616	54.929269	0.000405	4.053779	0.686729	-0.000081
 541	5.3730e+01	9.2413	54.888897	0.000203	2.026890	0.343364	-0.000041
 542	5.3830e+01	9.2216	54.824303	0.000324	3.243023	0.549383	-0.000065
 543	5.3929e+01	9.2010	54.767783	0.000284	2.837645	0.480710	-0.000057
 544	5.4029e+01	9.1809	54.703189	0.000324	3.243023	0.549383	-0.000065
 545	5.4128e+01	9.1616	54.634558	0.000345	3.445712	0.583719	-0.000069
 546	5.4227e+01	9.1409	54.610335	0.000122	1.216134	0.206019	-0.000024
 547	5.4327e+01	9.1219	54.533630	0.000385	3.851090	0.652392	-0.000077
 548	5.4426e+01	9.1017	54.444813	0.000446	4.459157	0.755402	-0.000089
 549	5.4526e+01	9.0820	54.400404	0.000223	2.229579	0.377701	-0.000045
 550	5.4626e+01	9.0613	54.339847	0.000304	3.040334	0.515047	-0.000061
 551	5.4725e+01	9.0430	54.263141	0.000385	3.851090	0.652392	-0.000077
 552	5.4825e+01	9.0215	54.202584	0.000304	3.040334	0.515047	-0.000061
 553	5.4924e+01	9.0028	54.162213	0.000203	2.026890	0.343364	-0.000041
 554	5.5023e+01	8.9833	54.065322	0.000486	4.864535	0.824075	-0.000097
 555	5.5123e+01	8.9637	54.033025	0.000162	1.621512	0.274692	-0.000032
 556	5.5222e+01	8.9420	53.915948	0.000588	5.877980	0.995757	-0.000118
 557	5.5322e+01	8.9228	53.871539	0.000223	2.229579	0.377701	-0.000045
 558	5.5422e+01	8.9024	53.778685	0.000466	4.661846	0.789738	-0.000093
 559	5.5521e+01	8.8818	53.726202	0.000263	2.634956	0.446374	-0.000053
 560	5.5620e+01	8.8627	53.693905	0.000162	1.621512	0.274692	-0.000032
 561	5.5720e+01	8.8436	53.625274	0.000345	3.445712	0.583719	-0.000069
 562	5.5819e+01	8.8238	53.572791	0.000263	2.634956	0.446374	-0.000053
 563	5.5919e+01	8.8037	53.479937	0.000466	4.661846	0.789738	-0.000093
 564	5.6019e+01	8.7833	53.415343	0.000324	3.243023	0.549383	-0.000065
 565	5.6118e+01	8.7657	53.358823	0.000284	2.837645	0.480710	-0.000057
 566	5.6218e+01	8.7439	53.314415	0.000223	2.229579	0.377701	-0.000045
 567	5.6317e+01	8.7256	53.209449	0.000527	5.269913	0.892747	-0.000105
 568	5.6416e+01	8.7036	53.161003	0.000243	2.432267	0.412037	-0.000049
 569	5.6516e+01	8.6851	53.084298	0.000385	3.851090	0.652392	-0.000077
 570	5.6615e+01	8.6642	53.007592	0.000385	3.851090	0.652392	-0.000077
 571	5.6715e+01	8.6441	52.963184	0.000223	2.229579	0.377701	-0.000045
 572	5.6815e+01	8.6246	52.866292	0.000486	4.864535	0.824075	-0.000097
 573	5.6914e+01	8.6042	52.805735	0.000304	3.040334	0.515047	-0.000061
 574	5.7014e+01	8.5842	52.724993	0.000405	4.053779	0.686729	-0.000081
 575	5.7113e+01	8.5656	52.676547	0.000243	2.432267	0.412037	-0.000049
 576	5.7212e+01	8.5449	52.611953	0.000324	3.243023	0.549383	-0.000065
 577	5.7312e+01	8.5260	52.551396	0.000304	3.040334	0.515047	-0.000061
 578	5.7411e+01	8.5038	52.446430	0.000527	5.269913	0.892747	-0.000105
 579	5.7511e+01	8.4855	52.414133	0.000162	1.621512	0.274692	-0.000032
 580	5.7611e+01	8.4657	52.313205	0.000507	5.067224	0.858411	-0.000101
 581	5.7710e+01	8.4455	52.244574	0.000345	3.445712	0.583719	-0.000069
 582	5.7809e+01	8.4251	52.184017	0.000304	3.040334	0.515047	-0.000061
 583	5.7909e+01	8.4055	52.155757	0.000142	1.418823	0.240355	-0.000028
 584	5.8008e+01	8.3852	52.066940	0.000446	4.459157	0.755402	-0.000089
 585	5.8108e+01	8.3652	52.006383	0.000304	3.040334	0.515047	-0.000061
 586	5.8208e+01	8.3472	51.905454	0.000507	5.067224	0.858411	-0.000101
 587	5.8307e+01	8.3252	51.848934	0.000284	2.837645	0.480710	-0.000057
 588	5.8407e+01	8.3057	51.764154	0.000426	4.256468	0.721065	-0.000085
 589	5.8506e+01	8.2862	51.707635	0.000284	2.837645	0.480710	-0.000057
 590	5.8605e+01	8.2655	51.618818	0.000446	4.459157	0.755402	-0.000089
 591	5.8705e+01	8.2450	51.582483	0.000182	1.824201	0.309028	-0.000037
 592	5.8804e+01	8.2255	51.473481	0.000547	5.472602	0.927084	-0.000110
 593	5.8904e+01	8.2056	51.420998	0.000263	2.634956	0.446374	-0.000053
 594	5.9004e+01	8.1863	51.384664	0.000182	1.824201	0.309028	-0.000037
 595	5.9103e+01	8.1672	51.303921	0.000405	4.053779	0.686729	-0.000081
 596	5.9203e+01	8.1467	51.182807	0.000608	6.080669	1.030093	-0.000122
 597	5.9302e+01	8.1274	51.162621	0.000101	1.013445	0.171682	-0.000020
 598	5.9401e+01	8.1069	51.061693	0.000507	5.067224	0.858411	-0.000101
 599	5.9501e+01	8.0869	50.997099	0.000324	3.243023	0.549383	-0.000065
 600	5.9600e+01	8.0664	50.908282	0.000446	4.459157	0.755402	-0.000089
 601	5.9700e+01	8.0470	50.843687	0.000324	3.243023	0.549383	-0.000065
 602	5.9800e+01	8.0262	50.771019	0.000365	3.648401	0.618056	-0.000073
 603	5.9899e+01	8.0081	50.718536	0.000263	2.634956	0.446374	-0.000053
 604	5.9998e+01	7.9861	50.633756	0.000426	4.256468	0.721065	-0.000085
 605	6.0098e+01	7.9678	50.553014	0.000405	4.053779	0.686729	-0.000081
 606	6.0197e+01	7.9480	50.480345	0.000365	3.648401	0.618056	-0.000073
 607	6.0297e+01	7.9277	50.431900	0.000243	2.432267	0.412037	-0.000049
 608	6.0397e+01	7.9070	50.347120	0.000426	4.256468	0.721065	-0.000085
 609	6.0496e+01	7.8873	50.270414	0.000385	3.851090	0.652392	-0.000077
 610	6.0596e+01	7.8678	50.205820	0.000324	3.243023	0.549383	-0.000065
 611	6.0695e+01	7.8468	50.129114	0.000385	3.851090	0.652392	-0.000077
 612	6.0794e+01	7.8272	50.064520	0.000324	3.243023	0.549383	-0.000065
 613	6.0894e+01	7.8080	49.995889	0.000345	3.445712	0.583719	-0.000069
 614	6.0993e+01	7.7874	49.911109	0.000426	4.256468	0.721065	-0.000085
 615	6.1093e+01	7.7673	49.826329	0.000426	4.256468	0.721065	-0.000085
 616	6.1193e+01	7.7477	49.777884	0.000243	2.432267	0.412037	-0.000049
 617	6.1292e+01	7.7273	49.672918	0.000527	5.269913	0.892747	-0.000105
 618	6.1392e+01	7.7080	49.620435	0.000263	2.634956	0.446374	-0.000053
 619	6.1491e+01	7.6885	49.551804	0.000345	3.445712	0.583719	-0.000069
 620	6.1590e+01	7.6691	49.491247	0.000304	3.040334	0.515047	-0.000061
 621	6.1690e+01	7.6489	49.422616	0.000345	3.445712	0.583719	-0.000069
 622	6.1789e+01	7.6292	49.341873	0.000405	4.053779	0.686729	-0.000081
 623	6.1889e+01	7.6085	49.244982	0.000486	4.864535	0.824075	-0.000097
 624	6.1989e+01	7.5896	49.164239	0.000405	4.053779	0.686729	-0.000081
 625	6.2088e+01	7.5687	49.119831	0.000223	2.229579	0.377701	-0.000045
 626	6.2188e+01	7.5481	49.026976	0.000466	4.661846	0.789738	-0.000093
 627	6.2287e+01	7.5293	48.954308	0.000365	3.648401	0.618056	-0.000073
 628	6.2386e+01	7.5080	48.853380	0.000507	5.067224	0.858411	-0.000101
 629	6.2486e+01	7.4889	48.829157	0.000122	1.216134	0.206019	-0.000024
 630	6.2586e+01	7.4692	48.691894	0.000689	6.891425	1.167439	-0.000138
 631	6.2685e+01	7.4489	48.639411	0.000263	2.634956	0.446374	-0.000053
 632	6.2785e+01	7.4296	48.562706	0.000385	3.851090	0.652392	-0.000077
 633	6.2884e+01	7.4100	48.469852	0.000466	4.661846	0.789738	-0.000093
 634	6.2983e+01	7.3904	48.429480	0.000203	2.026890	0.343364	-0.000041
 635	6.3083e+01	7.3687	48.304329	0.000628	6.283358	1.064430	-0.000126
 636	6.3182e+01	7.3502	48.207438	0.000486	4.864535	0.824075	-0.000097
 637	6.3282e+01	7.3312	48.150918	0.000284	2.837645	0.480710	-0.000057
 638	6.3382e+01	7.3101	48.062101	0.000446	4.459157	0.755402	-0.000089
 639	6.3481e+01	7.2903	48.005581	0.000284	2.837645	0.480710	-0.000057
 640	6.3581e+01	7.2698	47.900616	0.000527	5.269913	0.892747	-0.000105
 641	6.3680e+01	7.2510	47.823910	0.000385	3.851090	0.652392	-0.000077
 642	6.3779e+01	7.2305	47.791613	0.000162	1.621512	0.274692	-0.000032
 643	6.3879e+01	7.2100	47.666462	0.000628	6.283358	1.064430	-0.000126
 644	6.3978e+01	7.1905	47.609942	0.000284	2.837645	0.480710	-0.000057
 645	6.4078e+01	7.1704	47.488828	0.000608	6.080669	1.030093	-0.000122
 646	6.4177e+01	7.1497	47.476716	0.000061	0.608067	0.103009	-0.000012
 647	6.4277e+01	7.1294	47.331379	0.000730	7.296802	1.236112	-0.000146
 648	6.4376e+01	7.1111	47.270822	0.000304	3.040334	0.515047	-0.000061
 649	6.4476e+01	7.0899	47.210265	0.000304	3.040334	0.515047	-0.000061
 650	6.4576e+01	7.0713	47.141634	0.000345	3.445712	0.583719	-0.000069
 651	6.4675e+01	7.0508	47.008409	0.000669	6.688736	1.133102	-0.000134
 652	6.4775e+01	7.0303	46.951889	0.000284	2.837645	0.480710	-0.000057
 653	6.4874e+01	7.0110	46.863072	0.000446	4.459157	0.755402	-0.000089
 654	6.4974e+01	6.9913	46.794440	0.000345	3.445712	0.583719	-0.000069
 655	6.5073e+01	6.9711	46.713698	0.000405	4.053779	0.686729	-0.000081
 656	6.5172e+01	6.9519	46.636992	0.000385	3.851090	0.652392	-0.000077
 657	6.5272e+01	6.9321	46.556249	0.000405	4.053779	0.686729	-0.000081
 658	6.5371e+01	6.9115	46.479544	0.000385	3.851090	0.652392	-0.000077
 659	6.5471e+01	6.8908	46.410912	0.000345	3.445712	0.583719	-0.000069
 660	6.5570e+01	6.8716	46.318058	0.000466	4.661846	0.789738	-0.000093
 661	6.5670e+01	6.8520	46.205019	0.000568	5.675291	0.961420	-0.000114
 662	6.5769e+01	6.8308	46.172721	0.000162	1.621512	0.274692	-0.000032
 663	6.5869e+01	6.8112	46.075830	0.000486	4.864535	0.824075	-0.000097
 664	6.5969e+01	6.7916	45.995087	0.000405	4.053779	0.686729	-0.000081
 665	6.6068e+01	6.7715	45.930493	0.000324	3.243023	0.549383	-0.000065
 666	6.6168e+01	6.7513	45.878011	0.000263	2.634956	0.446374	-0.000053
 667	6.6267e+01	6.7336	45.748822	0.000649	6.486047	1.098766	-0.000130
 668	6.6367e+01	6.7120	45.655968	0.000466	4.661846	0.789738	-0.000093
 669	6.6466e+01	6.6929	45.579262	0.000385	3.851090	0.652392	-0.000077
 670	6.6566e+01	6.6730	45.522743	0.000284	2.837645	0.480710	-0.000057
 671	6.6665e+01	6.6525	45.450074	0.000365	3.648401	0.618056	-0.000073
 672	6.6764e+01	6.6326	45.365294	0.000426	4.256468	0.721065	-0.000085
 673	6.6864e+01	6.6132	45.284552	0.000405	4.053779	0.686729	-0.000081
 674	6.6963e+01	6.5930	45.171512	0.000568	5.675291	0.961420	-0.000114
 675	6.7063e+01	6.5731	45.102880	0.000345	3.445712	0.583719	-0.000069
 676	6.7162e+01	6.5524	45.014063	0.000446	4.459157	0.755402	-0.000089
 677	6.7262e+01	6.5328	44.901024	0.000568	5.675291	0.961420	-0.000114
 678	6.7362e+01	6.5119	44.844504	0.000284	2.837645	0.480710	-0.000057
 679	6.7461e+01	6.4935	44.711278	0.000669	6.688736	1.133102	-0.000134
 680	6.7561e+01	6.4733	44.654758	0.000284	2.837645	0.480710	-0.000057
 681	6.7660e+01	6.4536	44.561904	0.000466	4.661846	0.789738	-0.000093
 682	6.7760e+01	6.4336	44.501347	0.000304	3.040334	0.515047	-0.000061
 683	6.7859e+01	6.4126	44.436753	0.000324	3.243023	0.549383	-0.000065
 684	6.7959e+01	6.3934	44.335825	0.000507	5.067224	0.858411	-0.000101
 685	6.8058e+01	6.3734	44.267193	0.000345	3.445712	0.583719	-0.000069
 686	6.8157e+01	6.3534	44.178376	0.000446	4.459157	0.755402	-0.000089
 687	6.8257e+01	6.3335	44.113782	0.000324	3.243023	0.549383	-0.000065
 688	6.8356e+01	6.3136	44.020928	0.000466	4.661846	0.789738	-0.000093
 689	6.8456e+01	6.2946	43.948260	0.000365	3.648401	0.618056	-0.000073
 690	6.8555e+01	6.2740	43.839257	0.000547	5.472602	0.927084	-0.000110
 691	6.8655e+01	6.2540	43.746403	0.000466	4.661846	0.789738	-0.000093
 692	6.8754e+01	6.2347	43.693920	0.000263	2.634956	0.446374	-0.000053
 693	6.8854e+01	6.2144	43.560695	0.000669	6.688736	1.133102	-0.000134
 694	6.8954e+01	6.1947	43.504175	0.000284	2.837645	0.480710	-0.000057
 695	6.9053e+01	6.1745	43.407283	0.000486	4.864535	0.824075	-0.000097
 696	6.9153e+01	6.1544	43.302318	0.000527	5.269913	0.892747	-0.000105
 697	6.9252e+01	6.1349	43.229649	0.000365	3.648401	0.618056	-0.000073
 698	6.9352e+01	6.1149	43.124684	0.000527	5.269913	0.892747	-0.000105
 699	6.9451e+01	6.0960	43.043941	0.000405	4.053779	0.686729	-0.000081
 700	6.9550e+01	6.0749	42.967236	0.000385	3.851090	0.652392	-0.000077
 701	6.9650e+01	6.0552	42.894567	0.000365	3.648401	0.618056	-0.000073
 702	6.9749e+01	6.0352	42.809787	0.000426	4.256468	0.721065	-0.000085
 703	6.9849e+01	6.0145	42.708859	0.000507	5.067224	0.858411	-0.000101
 704	6.9948e+01	5.9957	42.660413	0.000243	2.432267	0.412037	-0.000049
 705	7.0048e+01	5.9759	42.555448	0.000527	5.269913	0.892747	-0.000105
 706	7.0147e+01	5.9560	42.434334	0.000608	6.080669	1.030093	-0.000122
 707	7.0247e+01	5.9356	42.361665	0.000365	3.648401	0.618056	-0.000073
 708	7.0347e+01	5.9161	42.305145	0.000284	2.837645	0.480710	-0.000057
 709	7.0446e+01	5.8958	42.224403	0.000405	4.053779	0.686729	-0.000081
 710	7.0546e+01	5.8758	42.175957	0.000243	2.432267	0.412037	-0.000049
 711	7.0645e+01	5.8564	42.034657	0.000709	7.094113	1.201775	-0.000142
 712	7.0745e+01	5.8352	41.937766	0.000486	4.864535	0.824075	-0.000097
 713	7.0844e+01	5.8163	41.865098	0.000365	3.648401	0.618056	-0.000073
 714	7.0944e+01	5.7961	41.784355	0.000405	4.053779	0.686729	-0.000081
 715	7.1043e+01	5.7767	41.691501	0.000466	4.661846	0.789738	-0.000093
 716	7.1142e+01	5.7558	41.602684	0.000446	4.459157	0.755402	-0.000089
 717	7.1242e+01	5.7371	41.517904	0.000426	4.256468	0.721065	-0.000085
 718	7.1341e+01	5.7162	41.445235	0.000365	3.648401	0.618056	-0.000073
 719	7.1441e+01	5.6971	41.328159	0.000588	5.877980	0.995757	-0.000118
 720	7.1540e+01	5.6762	41.279713	0.000243	2.432267	0.412037	-0.000049
 721	7.1640e+01	5.6570	41.182822	0.000486	4.864535	0.824075	-0.000097
 722	7.1740e+01	5.6368	41.081893	0.000507	5.067224	0.858411	-0.000101
 723	7.1839e+01	5.6164	41.013262	0.000345	3.445712	0.583719	-0.000069
 724	7.1939e+01	5.5968	40.948668	0.000324	3.243023	0.549383	-0.000065
 725	7.2038e+01	5.5772	40.839665	0.000547	5.472602	0.927084	-0.000110
 726	7.2138e+01	5.5579	40.779108	0.000304	3.040334	0.515047	-0.000061
 727	7.2237e+01	5.5373	40.649920	0.000649	6.486047	1.098766	-0.000130
 728	7.2337e+01	5.5169	40.585326	0.000324	3.243023	0.549383	-0.000065
 729	7.2436e+01	5.4977	40.528806	0.000284	2.837645	0.480710	-0.000057
 730	7.2535e+01	5.4778	40.427877	0.000507	5.067224	0.858411	-0.000101
 731	7.2635e+01	5.4577	40.318875	0.000547	5.472602	0.927084	-0.000110
 732	7.2734e+01	5.4377	40.254280	0.000324	3.243023	0.549383	-0.000065
 733	7.2834e+01	5.4177	40.165463	0.000446	4.459157	0.755402	-0.000089
 734	7.2933e+01	5.3983	40.028201	0.000689	6.891425	1.167439	-0.000138
 735	7.3033e+01	5.3773	39.987829	0.000203	2.026890	0.343364	-0.000041
 736	7.3132e+01	5.3575	39.882864	0.000527	5.269913	0.892747	-0.000105
 737	7.3232e+01	5.3384	39.826344	0.000284	2.837645	0.480710	-0.000057
 738	7.3332e+01	5.3176	39.709267	0.000588	5.877980	0.995757	-0.000118
 739	7.3431e+01	5.2979	39.640636	0.000345	3.445712	0.583719	-0.000069
 740	7.3531e+01	5.2789	39.511447	0.000649	6.486047	1.098766	-0.000130
 741	7.3630e+01	5.2581	39.467039	0.000223	2.229579	0.377701	-0.000045
 742	7.3730e+01	5.2386	39.325739	0.000709	7.094113	1.201775	-0.000142
 743	7.3829e+01	5.2187	39.265182	0.000304	3.040334	0.515047	-0.000061
 744	7.3928e+01	5.1984	39.204625	0.000304	3.040334	0.515047	-0.000061
 745	7.4028e+01	5.1788	39.087548	0.000588	5.877980	0.995757	-0.000118
 746	7.4127e+01	5.1591	38.990657	0.000486	4.864535	0.824075	-0.000097
 747	7.4227e+01	5.1394	38.938174	0.000263	2.634956	0.446374	-0.000053
 748	7.4326e+01	5.1186	38.784763	0.000770	7.702180	1.304785	-0.000154
 749	7.4426e+01	5.0990	38.724206	0.000304	3.040334	0.515047	-0.000061
 750	7.4525e+01	5.0782	38.687872	0.000182	1.824201	0.309028	-0.000037
 751	7.4625e+01	5.0588	38.542535	0.000730	7.296802	1.236112	-0.000146
 752	7.4725e+01	5.0397	38.457755	0.000426	4.256468	0.721065	-0.000085
 753	7.4824e+01	5.0196	38.393161	0.000324	3.243023	0.549383	-0.000065
 754	7.4924e+01	4.9992	38.288195	0.000527	5.269913	0.892747	-0.000105
 755	7.5023e+01	4.9795	38.191304	0.000486	4.864535	0.824075	-0.000097
 756	7.5123e+01	4.9604	38.074227	0.000588	5.877980	0.995757	-0.000118
 757	7.5222e+01	4.9410	37.985410	0.000446	4.459157	0.755402	-0.000089
 758	7.5322e+01	4.9204	37.912742	0.000365	3.648401	0.618056	-0.000073
 759	7.5421e+01	4.9006	37.815850	0.000486	4.864535	0.824075	-0.000097
 760	7.5520e+01	4.8801	37.743182	0.000365	3.648401	0.618056	-0.000073
 761	7.5620e+01	4.8600	37.618031	0.000628	6.283358	1.064430	-0.000126
 762	7.5719e+01	4.8402	37.549399	0.000345	3.445712	0.583719	-0.000069
 763	7.5819e+01	4.8195	37.456545	0.000466	4.661846	0.789738	-0.000093
 764	7.5918e+01	4.8005	37.347543	0.000547	5.472602	0.927084	-0.000110
 765	7.6018e+01	4.7805	37.246614	0.000507	5.067224	0.858411	-0.000101
 766	7.6118e+01	4.7598	37.169909	0.000385	3.851090	0.652392	-0.000077
 767	7.6217e+01	4.7409	37.085129	0.000426	4.256468	0.721065	-0.000085
 768	7.6317e+01	4.7198	36.951903	0.000669	6.688736	1.133102	-0.000134
 769	7.6416e+01	4.7012	36.867124	0.000426	4.256468	0.721065	-0.000085
 770	7.6516e+01	4.6807	36.798492	0.000345	3.445712	0.583719	-0.000069
 771	7.6615e+01	4.6610	36.721787	0.000385	3.851090	0.652392	-0.000077
 772	7.6715e+01	4.6413	36.592598	0.000649	6.486047	1.098766	-0.000130
 773	7.6814e+01	4.6215	36.544153	0.000243	2.432267	0.412037	-0.000049
 774	7.6913e+01	4.6021	36.423039	0.000608	6.080669	1.030093	-0.000122
 775	7.7013e+01	4.5815	36.330185	0.000466	4.661846	0.789738	-0.000093
 776	7.7112e+01	4.5608	36.237330	0.000466	4.661846	0.789738	-0.000093
 777	7.7212e+01	4.5409	36.164662	0.000365	3.648401	0.618056	-0.000073
 778	7.7311e+01	4.5214	36.075845	0.000446	4.459157	0.755402	-0.000089
 779	7.7411e+01	4.5011	35.991065	0.000426	4.256468	0.721065	-0.000085
 780	7.7510e+01	4.4811	35.861877	0.000649	6.486047	1.098766	-0.000130
 781	7.7610e+01	4.4620	35.781134	0.000405	4.053779	0.686729	-0.000081
 782	7.7710e+01	4.4414	35.692317	0.000446	4.459157	0.755402	-0.000089
 783	7.7809e+01	4.4225	35.587352	0.000527	5.269913	0.892747	-0.000105
 784	7.7909e+01	4.4001	35.502572	0.000426	4.256468	0.721065	-0.000085
 785	7.8008e+01	4.3816	35.405680	0.000486	4.864535	0.824075	-0.000097
 786	7.8108e+01	4.3620	35.328975	0.000385	3.851090	0.652392	-0.000077
 787	7.8207e+01	4.3432	35.211898	0.000588	5.877980	0.995757	-0.000118
 788	7.8306e+01	4.3226	35.151341	0.000304	3.040334	0.515047	-0.000061
 789	7.8406e+01	4.3021	35.001967	0.000750	7.499491	1.270448	-0.000150
 790	7.8505e+01	4.2822	34.937373	0.000324	3.243023	0.549383	-0.000065
 791	7.8605e+01	4.2629	34.832407	0.000527	5.269913	0.892747	-0.000105
 792	7.8704e+01	4.2428	34.735516	0.000486	4.864535	0.824075	-0.000097
 793	7.8804e+01	4.2225	34.646699	0.000446	4.459157	0.755402	-0.000089
 794	7.8903e+01	4.2028	34.521548	0.000628	6.283358	1.064430	-0.000126
 795	7.9003e+01	4.1819	34.440805	0.000405	4.053779	0.686729	-0.000081
 796	7.9103e+01	4.1627	34.347951	0.000466	4.661846	0.789738	-0.000093
 797	7.9202e+01	4.1431	34.251060	0.000486	4.864535	0.824075	-0.000097
 798	7.9302e+01	4.1225	34.121871	0.000649	6.486047	1.098766	-0.000130
 799	7.9401e+01	4.1027	34.033054	0.000446	4.459157	0.755402	-0.000089
 800	7.9501e+01	4.0823	33.956349	0.000385	3.851090	0.652392	-0.000077
 801	7.9600e+01	4.0614	33.823123	0.000669	6.688736	1.133102	-0.000134
 802	7.9700e+01	4.0430	33.742380	0.000405	4.053779	0.686729	-0.000081
 803	7.9799e+01	4.0224	33.641452	0.000507	5.067224	0.858411	-0.000101
 804	7.9898e+01	4.0034	33.544561	0.000486	4.864535	0.824075	-0.000097
 805	7.9998e+01	3.9837	33.431521	0.000568	5.675291	0.961420	-0.000114
 806	8.0097e+01	3.9640	33.322518	0.000547	5.472602	0.927084	-0.000110
 807	8.0197e+01	3.9440	33.181219	0.000709	7.094113	1.201775	-0.000142
 808	8.0296e+01	3.9236	33.185256	-0.000020	-0.202689	-0.034336	0.000004
 809	8.0396e+01	3.9044	33.039919	0.000730	7.296802	1.236112	-0.000146
 810	8.0496e+01	3.8834	32.918805	0.000608	6.080669	1.030093	-0.000122
 811	8.0595e+01	3.8649	32.805765	0.000568	5.675291	0.961420	-0.000114
 812	8.0695e+01	3.8432	32.720985	0.000426	4.256468	0.721065	-0.000085
 813	8.0794e+01	3.8244	32.603908	0.000588	5.877980	0.995757	-0.000118
 814	8.0894e+01	3.8034	32.515091	0.000446	4.459157	0.755402	-0.000089
 815	8.0993e+01	3.7835	32.426274	0.000446	4.459157	0.755402	-0.000089
 816	8.1093e+01	3.7649	32.297086	0.000649	6.486047	1.098766	-0.000130
 817	8.1192e+01	3.7443	32.204232	0.000466	4.661846	0.789738	-0.000093
 818	8.1291e+01	3.7257	32.099266	0.000527	5.269913	0.892747	-0.000105
 819	8.1391e+01	3.7043	32.046783	0.000263	2.634956	0.446374	-0.000053
 820	8.1490e+01	3.6851	31.853001	0.000973	9.729070	1.648149	-0.000195
 821	8.1590e+01	3.6652	31.784370	0.000345	3.445712	0.583719	-0.000069
 822	8.1689e+01	3.6449	31.703627	0.000405	4.053779	0.686729	-0.000081
 823	8.1789e+01	3.6258	31.598661	0.000527	5.269913	0.892747	-0.000105
 824	8.1888e+01	3.6048	31.477547	0.000608	6.080669	1.030093	-0.000122
 825	8.1988e+01	3.5854	31.416990	0.000304	3.040334	0.515047	-0.000061
 826	8.2088e+01	3.5648	31.287802	0.000649	6.486047	1.098766	-0.000130
 827	8.2187e+01	3.5453	31.190911	0.000486	4.864535	0.824075	-0.000097
 828	8.2287e+01	3.5246	31.081908	0.000547	5.472602	0.927084	-0.000110
 829	8.2386e+01	3.5058	30.976943	0.000527	5.269913	0.892747	-0.000105
 830	8.2486e+01	3.4858	30.867940	0.000547	5.472602	0.927084	-0.000110
 831	8.2585e+01	3.4662	30.791234	0.000385	3.851090	0.652392	-0.000077
 832	8.2684e+01	3.4459	30.674157	0.000588	5.877980	0.995757	-0.000118
 833	8.2784e+01	3.4267	30.544969	0.000649	6.486047	1.098766	-0.000130
 834	8.2883e+01	3.4062	30.472301	0.000365	3.648401	0.618056	-0.000073
 835	8.2983e+01	3.3862	30.339075	0.000669	6.688736	1.133102	-0.000134
 836	8.3082e+01	3.3663	30.286592	0.000263	2.634956	0.446374	-0.000053
 837	8.3182e+01	3.3457	30.153367	0.000669	6.688736	1.133102	-0.000134
 838	8.3281e+01	3.3268	30.092810	0.000304	3.040334	0.515047	-0.000061
 839	8.3381e+01	3.3053	29.947473	0.000730	7.296802	1.236112	-0.000146
 840	8.3481e+01	3.2854	29.862693	0.000426	4.256468	0.721065	-0.000085
 841	8.3580e+01	3.2674	29.745616	0.000588	5.877980	0.995757	-0.000118
 842	8.3680e+01	3.2465	29.628539	0.000588	5.877980	0.995757	-0.000118
 843	8.3779e+01	3.2269	29.519537	0.000547	5.472602	0.927084	-0.000110
 844	8.3879e+01	3.2064	29.422645	0.000486	4.864535	0.824075	-0.000097
 845	8.3978e+01	3.1866	29.313643	0.000547	5.472602	0.927084	-0.000110
 846	8.4078e+01	3.1667	29.212714	0.000507	5.067224	0.858411	-0.000101
 847	8.4177e+01	3.1468	29.123897	0.000446	4.459157	0.755402	-0.000089
 848	8.4276e+01	3.1268	29.022969	0.000507	5.067224	0.858411	-0.000101
 849	8.4376e+01	3.1071	28.954338	0.000345	3.445712	0.583719	-0.000069
 850	8.4475e+01	3.0869	28.768629	0.000932	9.323692	1.579476	-0.000187
 851	8.4575e+01	3.0680	28.695961	0.000365	3.648401	0.618056	-0.000073
 852	8.4674e+01	3.0477	28.607144	0.000446	4.459157	0.755402	-0.000089
 853	8.4774e+01	3.0272	28.526401	0.000405	4.053779	0.686729	-0.000081
 854	8.4874e+01	3.0065	28.409324	0.000588	5.877980	0.995757	-0.000118
 855	8.4973e+01	2.9875	28.288210	0.000608	6.080669	1.030093	-0.000122
 856	8.5073e+01	2.9675	28.175170	0.000568	5.675291	0.961420	-0.000114
 857	8.5172e+01	2.9484	28.074242	0.000507	5.067224	0.858411	-0.000101
 858	8.5272e+01	2.9285	27.945054	0.000649	6.486047	1.098766	-0.000130
 859	8.5371e+01	2.9074	27.840088	0.000527	5.269913	0.892747	-0.000105
 860	8.5471e+01	2.8876	27.739160	0.000507	5.067224	0.858411	-0.000101
 861	8.5570e+01	2.8686	27.622083	0.000588	5.877980	0.995757	-0.000118
 862	8.5669e+01	2.8481	27.529229	0.000466	4.661846	0.789738	-0.000093
 863	8.5769e+01	2.8275	27.416189	0.000568	5.675291	0.961420	-0.000114
 864	8.5868e+01	2.8068	27.303149	0.000568	5.675291	0.961420	-0.000114
 865	8.5968e+01	2.7880	27.190109	0.000568	5.675291	0.961420	-0.000114
 866	8.6067e+01	2.7693	27.073032	0.000588	5.877980	0.995757	-0.000118
 867	8.6167e+01	2.7491	26.996327	0.000385	3.851090	0.652392	-0.000077
 868	8.6266e+01	2.7283	26.919621	0.000385	3.851090	0.652392	-0.000077
 869	8.6366e+01	2.7090	26.786396	0.000669	6.688736	1.133102	-0.000134
 870	8.6466e+01	2.6891	26.685467	0.000507	5.067224	0.858411	-0.000101
 871	8.6565e+01	2.6676	26.544167	0.000709	7.094113	1.201775	-0.000142
 872	8.6665e+01	2.6483	26.431128	0.000568	5.675291	0.961420	-0.000114
 873	8.6764e+01	2.6295	26.314051	0.000588	5.877980	0.995757	-0.000118
 874	8.6864e+01	2.6077	26.253494	0.000304	3.040334	0.515047	-0.000061
 875	8.6963e+01	2.5881	26.128342	0.000628	6.283358	1.064430	-0.000126
 876	8.7063e+01	2.5687	26.031451	0.000486	4.864535	0.824075	-0.000097
 877	8.7162e+01	2.5492	25.902263	0.000649	6.486047	1.098766	-0.000130
 878	8.7261e+01	2.5292	25.813446	0.000446	4.459157	0.755402	-0.000089
 879	8.7361e+01	2.5095	25.704443	0.000547	5.472602	0.927084	-0.000110
 880	8.7460e+01	2.4897	25.599478	0.000527	5.269913	0.892747	-0.000105
 881	8.7560e+01	2.4691	25.490475	0.000547	5.472602	0.927084	-0.000110
 882	8.7659e+01	2.4495	25.373398	0.000588	5.877980	0.995757	-0.000118
 883	8.7759e+01	2.4294	25.268433	0.000527	5.269913	0.892747	-0.000105
 884	8.7859e+01	2.4102	25.135207	0.000669	6.688736	1.133102	-0.000134
 885	8.7958e+01	2.3901	25.050427	0.000426	4.256468	0.721065	-0.000085
 886	8.8058e+01	2.3697	24.937387	0.000568	5.675291	0.961420	-0.000114
 887	8.8157e+01	2.3504	24.852608	0.000426	4.256468	0.721065	-0.000085
 888	8.8257e+01	2.3299	24.755716	0.000486	4.864535	0.824075	-0.000097
 889	8.8356e+01	2.3098	24.626528	0.000649	6.486047	1.098766	-0.000130
 890	8.8456e+01	2.2899	24.541748	0.000426	4.256468	0.721065	-0.000085
 891	8.8555e+01	2.2704	24.400448	0.000709	7.094113	1.201775	-0.000142
 892	8.8654e+01	2.2514	24.323743	0.000385	3.851090	0.652392	-0.000077
 893	8.8754e+01	2.2302	24.218777	0.000527	5.269913	0.892747	-0.000105
 894	8.8853e+01	2.2099	24.085552	0.000669	6.688736	1.133102	-0.000134
 895	8.8953e+01	2.1909	23.988661	0.000486	4.864535	0.824075	-0.000097
 896	8.9052e+01	2.1713	23.911955	0.000385	3.851090	0.652392	-0.000077
 897	8.9152e+01	2.1514	23.815064	0.000486	4.864535	0.824075	-0.000097
 898	8.9251e+01	2.1304	23.697987	0.000588	5.877980	0.995757	-0.000118
 899	8.9351e+01	2.1103	23.584947	0.000568	5.675291	0.961420	-0.000114
 900	8.9451e+01	2.0908	23.439610	0.000730	7.296802	1.236112	-0.000146
 901	8.9550e+01	2.0706	23.366942	0.000365	3.648401	0.618056	-0.000073
 902	8.9650e+01	2.0517	23.249865	0.000588	5.877980	0.995757	-0.000118
 903	8.9749e+01	2.0303	23.136825	0.000568	5.675291	0.961420	-0.000114
 904	8.9849e+01	2.0116	23.023785	0.000568	5.675291	0.961420	-0.000114
 905	8.9948e+01	1.9905	22.943042	0.000405	4.053779	0.686729	-0.000081
 906	9.0047e+01	1.9715	22.805780	0.000689	6.891425	1.167439	-0.000138
 907	9.0147e+01	1.9524	22.692740	0.000568	5.675291	0.961420	-0.000114
 908	9.0246e+01	1.9316	22.603923	0.000446	4.459157	0.755402	-0.000089
 909	9.0346e+01	1.9122	22.470698	0.000669	6.688736	1.133102	-0.000134
 910	9.0445e+01	1.8925	22.389955	0.000405	4.053779	0.686729	-0.000081
 911	9.0545e+01	1.8714	22.264804	0.000628	6.283358	1.064430	-0.000126
 912	9.0644e+01	1.8525	22.163875	0.000507	5.067224	0.858411	-0.000101
 913	9.0744e+01	1.8325	22.010464	0.000770	7.702180	1.304785	-0.000154
 914	9.0844e+01	1.8124	21.909536	0.000507	5.067224	0.858411	-0.000101
 915	9.0943e+01	1.7918	21.824756	0.000426	4.256468	0.721065	-0.000085
 916	9.1043e+01	1.7723	21.675382	0.000750	7.499491	1.270448	-0.000150
 917	9.1142e+01	1.7520	21.586565	0.000446	4.459157	0.755402	-0.000089
 918	9.1242e+01	1.7331	21.485636	0.000507	5.067224	0.858411	-0.000101
 919	9.1341e+01	1.7121	21.388745	0.000486	4.864535	0.824075	-0.000097
 920	9.1441e+01	1.6919	21.263594	0.000628	6.283358	1.064430	-0.000126
 921	9.1540e+01	1.6726	21.130368	0.000669	6.688736	1.133102	-0.000134
 922	9.1639e+01	1.6521	21.033477	0.000486	4.864535	0.824075	-0.000097
 923	9.1739e+01	1.6337	20.936586	0.000486	4.864535	0.824075	-0.000097
 924	9.1838e+01	1.6125	20.795286	0.000709	7.094113	1.201775	-0.000142
 925	9.1938e+01	1.5926	20.706469	0.000446	4.459157	0.755402	-0.000089
 926	9.2037e+01	1.5736	20.617652	0.000446	4.459157	0.755402	-0.000089
 927	9.2137e+01	1.5528	20.464241	0.000770	7.702180	1.304785	-0.000154
 928	9.2237e+01	1.5334	20.351201	0.000568	5.675291	0.961420	-0.000114
 929	9.2336e+01	1.5139	20.242199	0.000547	5.472602	0.927084	-0.000110
 930	9.2436e+01	1.4928	20.113010	0.000649	6.486047	1.098766	-0.000130
 931	9.2535e+01	1.4730	20.016119	0.000486	4.864535	0.824075	-0.000097
 932	9.2635e+01	1.4541	19.911153	0.000527	5.269913	0.892747	-0.000105
 933	9.2734e+01	1.4340	19.753705	0.000790	7.904869	1.339121	-0.000158
 934	9.2834e+01	1.4121	19.697185	0.000284	2.837645	0.480710	-0.000057
 935	9.2933e+01	1.3937	19.572034	0.000628	6.283358	1.064430	-0.000126
 936	9.3032e+01	1.3734	19.454957	0.000588	5.877980	0.995757	-0.000118
 937	9.3132e+01	1.3538	19.329806	0.000628	6.283358	1.064430	-0.000126
 938	9.3231e+01	1.3329	19.236952	0.000466	4.661846	0.789738	-0.000093
 939	9.3331e+01	1.3140	19.103726	0.000669	6.688736	1.133102	-0.000134
 940	9.3430e+01	1.2935	18.982612	0.000608	6.080669	1.030093	-0.000122
 941	9.3530e+01	1.2746	18.881684	0.000507	5.067224	0.858411	-0.000101
 942	9.3629e+01	1.2545	18.788830	0.000466	4.661846	0.789738	-0.000093
 943	9.3729e+01	1.2348	18.659641	0.000649	6.486047	1.098766	-0.000130
 944	9.3829e+01	1.2153	18.562750	0.000486	4.864535	0.824075	-0.000097
 945	9.3928e+01	1.1962	18.449710	0.000568	5.675291	0.961420	-0.000114
 946	9.4028e+01	1.1753	18.316485	0.000669	6.688736	1.133102	-0.000134
 947	9.4127e+01	1.1560	18.235742	0.000405	4.053779	0.686729	-0.000081
 948	9.4227e+01	1.1330	18.110591	0.000628	6.283358	1.064430	-0.000126
 949	9.4326e+01	1.1159	17.985440	0.000628	6.283358	1.064430	-0.000126
 950	9.4425e+01	1.0953	17.884511	0.000507	5.067224	0.858411	-0.000101
 951	9.4525e+01	1.0748	17.771472	0.000568	5.675291	0.961420	-0.000114
 952	9.4624e+01	1.0551	17.646320	0.000628	6.283358	1.064430	-0.000126
 953	9.4724e+01	1.0355	17.525206	0.000608	6.080669	1.030093	-0.000122
 954	9.4823e+01	1.0153	17.375832	0.000750	7.499491	1.270448	-0.000150
 955	9.4923e+01	0.9957	17.323349	0.000263	2.634956	0.446374	-0.000053
 956	9.5022e+01	0.9756	17.157827	0.000831	8.310247	1.407794	-0.000166
 957	9.5122e+01	0.9555	17.064973	0.000466	4.661846	0.789738	-0.000093
 958	9.5222e+01	0.9354	16.927710	0.000689	6.891425	1.167439	-0.000138
 959	9.5321e+01	0.9157	16.851005	0.000385	3.851090	0.652392	-0.000077
 960	9.5421e+01	0.8962	16.693556	0.000790	7.904869	1.339121	-0.000158
 961	9.5520e+01	0.8759	16.628962	0.000324	3.243023	0.549383	-0.000065
 962	9.5620e+01	0.8566	16.483625	0.000730	7.296802	1.236112	-0.000146
 963	9.5719e+01	0.8376	16.378660	0.000527	5.269913	0.892747	-0.000105
 964	9.5819e+01	0.8167	16.229286	0.000750	7.499491	1.270448	-0.000150
 965	9.5918e+01	0.7973	16.124320	0.000527	5.269913	0.892747	-0.000105
 966	9.6017e+01	0.7760	16.035503	0.000446	4.459157	0.755402	-0.000089
 967	9.6117e+01	0.7558	15.914389	0.000608	6.080669	1.030093	-0.000122
 968	9.6216e+01	0.7367	15.773089	0.000709	7.094113	1.201775	-0.000142
 969	9.6316e+01	0.7170	15.664087	0.000547	5.472602	0.927084	-0.000110
 970	9.6415e+01	0.6973	15.530861	0.000669	6.688736	1.133102	-0.000134
 971	9.6515e+01	0.6766	15.389561	0.000709	7.094113	1.201775	-0.000142
 972	9.6615e+01	0.6556	15.292670	0.000486	4.864535	0.824075	-0.000097
 973	9.6714e+01	0.6371	15.167519	0.000628	6.283358	1.064430	-0.000126
 974	9.6814e+01	0.6174	15.070628	0.000486	4.864535	0.824075	-0.000097
 975	9.6913e+01	0.5978	14.917217	0.000770	7.702180	1.304785	-0.000154
 976	9.7013e+01	0.5778	14.759768	0.000790	7.904869	1.339121	-0.000158
 977	9.7112e+01	0.5573	14.703248	0.000284	2.837645	0.480710	-0.000057
 978	9.7212e+01	0.5366	14.594246	0.000547	5.472602	0.927084	-0.000110
 979	9.7311e+01	0.5162	14.444872	0.000750	7.499491	1.270448	-0.000150
 980	9.7410e+01	0.4961	14.364129	0.000405	4.053779	0.686729	-0.000081
 981	9.7510e+01	0.4783	14.230903	0.000669	6.688736	1.133102	-0.000134
 982	9.7609e+01	0.4575	14.057307	0.000872	8.715625	1.476467	-0.000174
 983	9.7709e+01	0.4382	13.968490	0.000446	4.459157	0.755402	-0.000089
 984	9.7808e+01	0.4160	13.851413	0.000588	5.877980	0.995757	-0.000118
 985	9.7908e+01	0.3982	13.718187	0.000669	6.688736	1.133102	-0.000134
 986	9.8007e+01	0.3786	13.617259	0.000507	5.067224	0.858411	-0.000101
 987	9.8107e+01	0.3584	13.475959	0.000709	7.094113	1.201775	-0.000142
 988	9.8207e+01	0.3371	13.350808	0.000628	6.283358	1.064430	-0.000126
 989	9.8306e+01	0.3186	13.257954	0.000466	4.661846	0.789738	-0.000093
 990	9.8406e+01	0.2989	13.116654	0.000709	7.094113	1.201775	-0.000142
 991	9.8505e+01	0.2772	13.027837	0.000446	4.459157	0.755402	-0.000089
 992	9.8605e+01	0.2572	12.890574	0.000689	6.891425	1.167439	-0.000138
 993	9.8704e+01	0.2383	12.721015	0.000851	8.512936	1.442130	-0.000170
 994	9.8803e+01	0.2182	12.636235	0.000426	4.256468	0.721065	-0.000085
 995	9.8903e+01	0.1984	12.559529	0.000385	3.851090	0.652392	-0.000077
 996	9.9002e+01	0.1748	12.377858	0.000912	9.121003	1.545140	-0.000183
 997	9.9102e+01	0.1584	12.256744	0.000608	6.080669	1.030093	-0.000122
 998	9.9201e+01	0.1381	12.139667	0.000588	5.877980	0.995757	-0.000118
 999	9.9301e+01	0.1185	12.042776	0.000486	4.864535	0.824075	-0.000097
1000	9.9400e+01	0.0980	11.921662	0.000608	6.080669	1.030093	-0.000122
1001	9.9500e+01	0.0788	11.796511	0.000628	6.283358	1.064430	-0.000126
1002	9.9600e+01	0.0588	11.659248	0.000689	6.891425	1.167439	-0.000138
1003	9.9699e+01	0.0384	11.554282	0.000527	5.269913	0.892747	-0.000105
1004	9.9799e+01	0.0186	11.449317	0.000527	5.269913	0.892747	-0.000105
1005	9.9898e+01	0.0005	11.291869	0.000790	7.904869	1.339121	-0.000158
1006	9.9998e+01	-0.0198	11.158643	0.000669	6.688736	1.133102	-0.000134
1007	1.0010e+02	-0.0384	11.098086	0.000304	3.040334	0.515047	-0.000061
1008	1.0020e+02	-0.0587	10.956786	0.000709	7.094113	1.201775	-0.000142
1009	1.0030e+02	-0.0789	10.823561	0.000669	6.688736	1.133102	-0.000134
1010	1.0040e+02	-0.0989	10.706484	0.000588	5.877980	0.995757	-0.000118
1011	1.0050e+02	-0.1183	10.569221	0.000689	6.891425	1.167439	-0.000138
1012	1.0059e+02	-0.1382	10.452144	0.000588	5.877980	0.995757	-0.000118
1013	1.0069e+02	-0.1579	10.351216	0.000507	5.067224	0.858411	-0.000101
1014	1.0079e+02	-0.1779	10.201842	0.000750	7.499491	1.270448	-0.000150
1015	1.0089e+02	-0.1985	10.125136	0.000385	3.851090	0.652392	-0.000077
1016	1.0099e+02	-0.2178	9.979800	0.000730	7.296802	1.236112	-0.000146
1017	1.0109e+02	-0.2386	9.870797	0.000547	5.472602	0.927084	-0.000110
1018	1.0119e+02	-0.2587	9.765831	0.000527	5.269913	0.892747	-0.000105
1019	1.0129e+02	-0.2779	9.648754	0.000588	5.877980	0.995757	-0.000118
1020	1.0139e+02	-0.2982	9.511492	0.000689	6.891425	1.167439	-0.000138
1021	1.0149e+02	-0.3188	9.390378	0.000608	6.080669	1.030093	-0.000122
1022	1.0159e+02	-0.3376	9.245041	0.000730	7.296802	1.236112	-0.000146
1023	1.0169e+02	-0.3576	9.127964	0.000588	5.877980	0.995757	-0.000118
1024	1.0179e+02	-0.3774	9.002813	0.000628	6.283358	1.064430	-0.000126
1025	1.0189e+02	-0.3979	8.897847	0.000527	5.269913	0.892747	-0.000105
1026	1.0199e+02	-0.4174	8.796919	0.000507	5.067224	0.858411	-0.000101
1027	1.0209e+02	-0.4373	8.619285	0.000892	8.918314	1.510803	-0.000179
1028	1.0219e+02	-0.4578	8.469911	0.000750	7.499491	1.270448	-0.000150
1029	1.0229e+02	-0.4771	8.409354	0.000304	3.040334	0.515047	-0.000061
1030	1.0239e+02	-0.4977	8.276128	0.000669	6.688736	1.133102	-0.000134
1031	1.0248e+02	-0.5162	8.183274	0.000466	4.661846	0.789738	-0.000093
1032	1.0258e+02	-0.5371	8.046012	0.000689	6.891425	1.167439	-0.000138
1033	1.0268e+02	-0.5579	7.888563	0.000790	7.904869	1.339121	-0.000158
1034	1.0278e+02	-0.5764	7.783598	0.000527	5.269913	0.892747	-0.000105
1035	1.0288e+02	-0.5969	7.650372	0.000669	6.688736	1.133102	-0.000134
1036	1.0298e+02	-0.6158	7.521184	0.000649	6.486047	1.098766	-0.000130
1037	1.0308e+02	-0.6356	7.432367	0.000446	4.459157	0.755402	-0.000089
1038	1.0318e+02	-0.6567	7.254733	0.000892	8.918314	1.510803	-0.000179
1039	1.0328e+02	-0.6768	7.137656	0.000588	5.877980	0.995757	-0.000118
1040	1.0338e+02	-0.6969	7.048839	0.000446	4.459157	0.755402	-0.000089
1041	1.0348e+02	-0.7168	6.927725	0.000608	6.080669	1.030093	-0.000122
1042	1.0358e+02	-0.7358	6.790462	0.000689	6.891425	1.167439	-0.000138
1043	1.0368e+02	-0.7561	6.677423	0.000568	5.675291	0.961420	-0.000114
1044	1.0378e+02	-0.7758	6.511900	0.000831	8.310247	1.407794	-0.000166
1045	1.0388e+02	-0.7967	6.435194	0.000385	3.851090	0.652392	-0.000077
1046	1.0398e+02	-0.8162	6.301969	0.000669	6.688736	1.133102	-0.000134
1047	1.0408e+02	-0.8365	6.180855	0.000608	6.080669	1.030093	-0.000122
1048	1.0418e+02	-0.8558	6.047629	0.000669	6.688736	1.133102	-0.000134
1049	1.0428e+02	-0.8752	5.914404	0.000669	6.688736	1.133102	-0.000134
1050	1.0438e+02	-0.8960	5.813475	0.000507	5.067224	0.858411	-0.000101
1051	1.0447e+02	-0.9160	5.651990	0.000811	8.107558	1.373458	-0.000162
1052	1.0457e+02	-0.9367	5.575284	0.000385	3.851090	0.652392	-0.000077
1053	1.0467e+02	-0.9563	5.458208	0.000588	5.877980	0.995757	-0.000118
1054	1.0477e+02	-0.9758	5.353242	0.000527	5.269913	0.892747	-0.000105
1055	1.0487e+02	-0.9959	5.220017	0.000669	6.688736	1.133102	-0.000134
1056	1.0497e+02	-1.0144	5.094865	0.000628	6.283358	1.064430	-0.000126
1057	1.0507e+02	-1.0358	5.006048	0.000446	4.459157	0.755402	-0.000089
1058	1.0517e+02	-1.0552	4.852637	0.000770	7.702180	1.304785	-0.000154
1059	1.0527e+02	-1.0748	4.747672	0.000527	5.269913	0.892747	-0.000105
1060	1.0537e+02	-1.0957	4.578112	0.000851	8.512936	1.442130	-0.000170
1061	1.0547e+02	-1.1158	4.501406	0.000385	3.851090	0.652392	-0.000077
1062	1.0557e+02	-1.1349	4.388367	0.000568	5.675291	0.961420	-0.000114
1063	1.0567e+02	-1.1550	4.226881	0.000811	8.107558	1.373458	-0.000162
1064	1.0577e+02	-1.1743	4.150176	0.000385	3.851090	0.652392	-0.000077
1065	1.0587e+02	-1.1946	4.033099	0.000588	5.877980	0.995757	-0.000118
1066	1.0597e+02	-1.2145	3.907947	0.000628	6.283358	1.064430	-0.000126
1067	1.0607e+02	-1.2344	3.819130	0.000446	4.459157	0.755402	-0.000089
1068	1.0617e+02	-1.2542	3.653608	0.000831	8.310247	1.407794	-0.000166
1069	1.0627e+02	-1.2739	3.536531	0.000588	5.877980	0.995757	-0.000118
1070	1.0637e+02	-1.2942	3.387157	0.000750	7.499491	1.270448	-0.000150
1071	1.0647e+02	-1.3143	3.322563	0.000324	3.243023	0.549383	-0.000065
1072	1.0656e+02	-1.3338	3.157040	0.000831	8.310247	1.407794	-0.000166
1073	1.0666e+02	-1.3529	3.064186	0.000466	4.661846	0.789738	-0.000093
1074	1.0676e+02	-1.3734	2.943072	0.000608	6.080669	1.030093	-0.000122
1075	1.0686e+02	-1.3931	2.834069	0.000547	5.472602	0.927084	-0.000110
1076	1.0696e+02	-1.4142	2.680658	0.000770	7.702180	1.304785	-0.000154
1077	1.0706e+02	-1.4330	2.551470	0.000649	6.486047	1.098766	-0.000130
1078	1.0716e+02	-1.4539	2.434393	0.000588	5.877980	0.995757	-0.000118
1079	1.0726e+02	-1.4735	2.317316	0.000588	5.877980	0.995757	-0.000118
1080	1.0736e+02	-1.4927	2.163905	0.000770	7.702180	1.304785	-0.000154
1081	1.0746e+02	-1.5141	2.083162	0.000405	4.053779	0.686729	-0.000081
1082	1.0756e+02	-1.5324	1.974159	0.000547	5.472602	0.927084	-0.000110
1083	1.0766e+02	-1.5524	1.808637	0.000831	8.310247	1.407794	-0.000166
1084	1.0776e+02	-1.5735	1.667337	0.000709	7.094113	1.201775	-0.000142
1085	1.0786e+02	-1.5926	1.570446	0.000486	4.864535	0.824075	-0.000097
1086	1.0796e+02	-1.6127	1.477592	0.000466	4.661846	0.789738	-0.000093
1087	1.0806e+02	-1.6330	1.356478	0.000608	6.080669	1.030093	-0.000122
1088	1.0816e+02	-1.6529	1.194992	0.000811	8.107558	1.373458	-0.000162
1089	1.0826e+02	-1.6726	1.102138	0.000466	4.661846	0.789738	-0.000093
1090	1.0836e+02	-1.6938	0.956801	0.000730	7.296802	1.236112	-0.000146
1091	1.0845e+02	-1.7116	0.835687	0.000608	6.080669	1.030093	-0.000122
1092	1.0855e+02	-1.7331	0.730722	0.000527	5.269913	0.892747	-0.000105
1093	1.0865e+02	-1.7528	0.609607	0.000608	6.080669	1.030093	-0.000122
1094	1.0875e+02	-1.7725	0.448122	0.000811	8.107558	1.373458	-0.000162
1095	1.0885e+02	-1.7908	0.363342	0.000426	4.256468	0.721065	-0.000085
1096	1.0895e+02	-1.8129	0.266451	0.000486	4.864535	0.824075	-0.000097
1097	1.0905e+02	-1.8322	0.109003	0.000790	7.904869	1.339121	-0.000158
1098	1.0915e+02	-1.8529	-0.004037	0.000568	5.675291	0.961420	-0.000114
1099	1.0925e+02	-1.8727	-0.121114	0.000588	5.877980	0.995757	-0.000118
1100	1.0935e+02	-1.8918	-0.266451	0.000730	7.296802	1.236112	-0.000146
1101	1.0945e+02	-1.9115	-0.355268	0.000446	4.459157	0.755402	-0.000089
1102	1.0955e+02	-1.9326	-0.508679	0.000770	7.702180	1.304785	-0.000154
1103	1.0965e+02	-1.9521	-0.649979	0.000709	7.094113	1.201775	-0.000142
1104	1.0975e+02	-1.9722	-0.763019	0.000568	5.675291	0.961420	-0.000114
1105	1.0985e+02	-1.9917	-0.843761	0.000405	4.053779	0.686729	-0.000081
1106	1.0995e+02	-2.0120	-0.989098	0.000730	7.296802	1.236112	-0.000146
1107	1.1005e+02	-2.0309	-1.138472	0.000750	7.499491	1.270448	-0.000150
1108	1.1015e+02	-2.0514	-1.223252	0.000426	4.256468	0.721065	-0.000085
1109	1.1025e+02	-2.0711	-1.372626	0.000750	7.499491	1.270448	-0.000150
1110	1.1035e+02	-2.0909	-1.461443	0.000446	4.459157	0.755402	-0.000089
1111	1.1044e+02	-2.1112	-1.578520	0.000588	5.877980	0.995757	-0.000118
1112	1.1054e+02	-2.1312	-1.707708	0.000649	6.486047	1.098766	-0.000130
1113	1.1064e+02	-2.1507	-1.840934	0.000669	6.688736	1.133102	-0.000134
1114	1.1074e+02	-2.1712	-1.933788	0.000466	4.661846	0.789738	-0.000093
1115	1.1084e+02	-2.1920	-2.050865	0.000588	5.877980	0.995757	-0.000118
1116	1.1094e+02	-2.2114	-2.216388	0.000831	8.310247	1.407794	-0.000166
1117	1.1104e+02	-2.2307	-2.305205	0.000446	4.459157	0.755402	-0.000089
1118	1.1114e+02	-2.2507	-2.446504	0.000709	7.094113	1.201775	-0.000142
1119	1.1124e+02	-2.2704	-2.575693	0.000649	6.486047	1.098766	-0.000130
1120	1.1134e+02	-2.2903	-2.688732	0.000568	5.675291	0.961420	-0.000114
1121	1.1144e+02	-2.3099	-2.809846	0.000608	6.080669	1.030093	-0.000122
1122	1.1154e+02	-2.3304	-2.951146	0.000709	7.094113	1.201775	-0.000142
1123	1.1164e+02	-2.3494	-3.019778	0.000345	3.445712	0.583719	-0.000069
1124	1.1174e+02	-2.3698	-3.136854	0.000588	5.877980	0.995757	-0.000118
1125	1.1184e+02	-2.3901	-3.302377	0.000831	8.310247	1.407794	-0.000166
1126	1.1194e+02	-2.4099	-3.407343	0.000527	5.269913	0.892747	-0.000105
1127	1.1204e+02	-2.4303	-3.540568	0.000669	6.688736	1.133102	-0.000134
1128	1.1214e+02	-2.4500	-3.657645	0.000588	5.877980	0.995757	-0.000118
1129	1.1224e+02	-2.4694	-3.762611	0.000527	5.269913	0.892747	-0.000105
1130	1.1234e+02	-2.4902	-3.867576	0.000527	5.269913	0.892747	-0.000105
1131	1.1244e+02	-2.5107	-4.020987	0.000770	7.702180	1.304785	-0.000154
1132	1.1253e+02	-2.5284	-4.158250	0.000689	6.891425	1.167439	-0.000138
1133	1.1263e+02	-2.5496	-4.255141	0.000486	4.864535	0.824075	-0.000097
1134	1.1273e+02	-2.5686	-4.376255	0.000608	6.080669	1.030093	-0.000122
1135	1.1283e+02	-2.5890	-4.469109	0.000466	4.661846	0.789738	-0.000093
1136	1.1293e+02	-2.6085	-4.638669	0.000851	8.512936	1.442130	-0.000170
1137	1.1303e+02	-2.6277	-4.727486	0.000446	4.459157	0.755402	-0.000089
1138	1.1313e+02	-2.6488	-4.884934	0.000790	7.904869	1.339121	-0.000158
1139	1.1323e+02	-2.6712	-5.014123	0.000649	6.486047	1.098766	-0.000130
1140	1.1333e+02	-2.6881	-5.094865	0.000405	4.053779	0.686729	-0.000081
1141	1.1343e+02	-2.7088	-5.264425	0.000851	8.512936	1.442130	-0.000170
1142	1.1353e+02	-2.7278	-5.320945	0.000284	2.837645	0.480710	-0.000057
1143	1.1363e+02	-2.7487	-5.482430	0.000811	8.107558	1.373458	-0.000162
1144	1.1373e+02	-2.7691	-5.619693	0.000689	6.891425	1.167439	-0.000138
1145	1.1383e+02	-2.7878	-5.732733	0.000568	5.675291	0.961420	-0.000114
1146	1.1393e+02	-2.8085	-5.837698	0.000527	5.269913	0.892747	-0.000105
1147	1.1403e+02	-2.8275	-5.942664	0.000527	5.269913	0.892747	-0.000105
1148	1.1413e+02	-2.8480	-6.088001	0.000730	7.296802	1.236112	-0.000146
1149	1.1423e+02	-2.8673	-6.225263	0.000689	6.891425	1.167439	-0.000138
1150	1.1433e+02	-2.8883	-6.358489	0.000669	6.688736	1.133102	-0.000134
1151	1.1442e+02	-2.9077	-6.463454	0.000527	5.269913	0.892747	-0.000105
1152	1.1452e+02	-2.9275	-6.564383	0.000507	5.067224	0.858411	-0.000101
1153	1.1462e+02	-2.9478	-6.641088	0.000385	3.851090	0.652392	-0.000077
1154	1.1472e+02	-2.9678	-6.818722	0.000892	8.918314	1.510803	-0.000179
1155	1.1482e+02	-2.9876	-6.951948	0.000669	6.688736	1.133102	-0.000134
1156	1.1492e+02	-3.0087	-7.052876	0.000507	5.067224	0.858411	-0.000101
1157	1.1502e+02	-3.0273	-7.178027	0.000628	6.283358	1.064430	-0.000126
1158	1.1512e+02	-3.0464	-7.315290	0.000689	6.891425	1.167439	-0.000138
1159	1.1522e+02	-3.0672	-7.408144	0.000466	4.661846	0.789738	-0.000093
1160	1.1532e+02	-3.0868	-7.537332	0.000649	6.486047	1.098766	-0.000130
1161	1.1542e+02	-3.1065	-7.630187	0.000466	4.661846	0.789738	-0.000093
1162	1.1552e+02	-3.1267	-7.775523	0.000730	7.296802	1.236112	-0.000146
1163	1.1562e+02	-3.1471	-7.920860	0.000730	7.296802	1.236112	-0.000146
1164	1.1572e+02	-3.1670	-8.013714	0.000466	4.661846	0.789738	-0.000093
1165	1.1582e+02	-3.1863	-8.138866	0.000628	6.283358	1.064430	-0.000126
1166	1.1592e+02	-3.2063	-8.251905	0.000568	5.675291	0.961420	-0.000114
1167	1.1602e+02	-3.2266	-8.360908	0.000547	5.472602	0.927084	-0.000110
1168	1.1612e+02	-3.2475	-8.477985	0.000588	5.877980	0.995757	-0.000118
1169	1.1622e+02	-3.2668	-8.570839	0.000466	4.661846	0.789738	-0.000093
1170	1.1632e+02	-3.2861	-8.708102	0.000689	6.891425	1.167439	-0.000138
1171	1.1642e+02	-3.3064	-8.853439	0.000730	7.296802	1.236112	-0.000146
1172	1.1651e+02	-3.3264	-8.922070	0.000345	3.445712	0.583719	-0.000069
1173	1.1661e+02	-3.3466	-9.059333	0.000689	6.891425	1.167439	-0.000138
1174	1.1671e+02	-3.3662	-9.208707	0.000750	7.499491	1.270448	-0.000150
1175	1.1681e+02	-3.3864	-9.301561	0.000466	4.661846	0.789738	-0.000093
1176	1.1691e+02	-3.4065	-9.438823	0.000689	6.891425	1.167439	-0.000138
1177	1.1701e+02	-3.4260	-9.499380	0.000304	3.040334	0.515047	-0.000061
1178	1.1711e+02	-3.4466	-9.652792	0.000770	7.702180	1.304785	-0.000154
1179	1.1721e+02	-3.4660	-9.737571	0.000426	4.256468	0.721065	-0.000085
1180	1.1731e+02	-3.4853	-9.874834	0.000689	6.891425	1.167439	-0.000138
1181	1.1741e+02	-3.5056	-10.012097	0.000689	6.891425	1.167439	-0.000138
1182	1.1751e+02	-3.5260	-10.121099	0.000547	5.472602	0.927084	-0.000110
1183	1.1761e+02	-3.5443	-10.246251	0.000628	6.283358	1.064430	-0.000126
1184	1.1771e+02	-3.5651	-10.351216	0.000527	5.269913	0.892747	-0.000105
1185	1.1781e+02	-3.5846	-10.452144	0.000507	5.067224	0.858411	-0.000101
1186	1.1791e+02	-3.6052	-10.589407	0.000689	6.891425	1.167439	-0.000138
1187	1.1801e+02	-3.6252	-10.686298	0.000486	4.864535	0.824075	-0.000097
1188	1.1811e+02	-3.6450	-10.799338	0.000568	5.675291	0.961420	-0.000114
1189	1.1821e+02	-3.6654	-10.928526	0.000649	6.486047	1.098766	-0.000130
1190	1.1831e+02	-3.6847	-11.041566	0.000568	5.675291	0.961420	-0.000114
1191	1.1841e+02	-3.7039	-11.122309	0.000405	4.053779	0.686729	-0.000081
1192	1.1850e+02	-3.7251	-11.259572	0.000689	6.891425	1.167439	-0.000138
1193	1.1860e+02	-3.7447	-11.412983	0.000770	7.702180	1.304785	-0.000154
1194	1.1870e+02	-3.7654	-11.469503	0.000284	2.837645	0.480710	-0.000057
1195	1.1880e+02	-3.7851	-11.610802	0.000709	7.094113	1.201775	-0.000142
1196	1.1890e+02	-3.8032	-11.727879	0.000588	5.877980	0.995757	-0.000118
1197	1.1900e+02	-3.8243	-11.881290	0.000770	7.702180	1.304785	-0.000154
1198	1.1910e+02	-3.8435	-11.937810	0.000284	2.837645	0.480710	-0.000057
1199	1.1920e+02	-3.8644	-12.034702	0.000486	4.864535	0.824075	-0.000097
1200	1.1930e+02	-3.8829	-12.212336	0.000892	8.918314	1.510803	-0.000179
1201	1.1940e+02	-3.9041	-12.285004	0.000365	3.648401	0.618056	-0.000073
1202	1.1950e+02	-3.9243	-12.402081	0.000588	5.877980	0.995757	-0.000118
1203	1.1960e+02	-3.9435	-12.507047	0.000527	5.269913	0.892747	-0.000105
1204	1.1970e+02	-3.9645	-12.616049	0.000547	5.472602	0.927084	-0.000110
1205	1.1980e+02	-3.9842	-12.745238	0.000649	6.486047	1.098766	-0.000130
1206	1.1990e+02	-4.0032	-12.862314	0.000588	5.877980	0.995757	-0.000118
1207	1.2000e+02	-4.0236	-12.983429	0.000608	6.080669	1.030093	-0.000122
1208	1.2010e+02	-4.0430	-13.084357	0.000507	5.067224	0.858411	-0.000101
1209	1.2020e+02	-4.0628	-13.201434	0.000588	5.877980	0.995757	-0.000118
1210	1.2030e+02	-4.0829	-13.302362	0.000507	5.067224	0.858411	-0.000101
1211	1.2039e+02	-4.1037	-13.423476	0.000608	6.080669	1.030093	-0.000122
1212	1.2049e+02	-4.1226	-13.496145	0.000365	3.648401	0.618056	-0.000073
1213	1.2059e+02	-4.1423	-13.629370	0.000669	6.688736	1.133102	-0.000134
1214	1.2069e+02	-4.1631	-13.742410	0.000568	5.675291	0.961420	-0.000114
1215	1.2079e+02	-4.1833	-13.823153	0.000405	4.053779	0.686729	-0.000081
1216	1.2089e+02	-4.2026	-13.948304	0.000628	6.283358	1.064430	-0.000126
1217	1.2099e+02	-4.2227	-14.053270	0.000527	5.269913	0.892747	-0.000105
1218	1.2109e+02	-4.2430	-14.174384	0.000608	6.080669	1.030093	-0.000122
1219	1.2119e+02	-4.2630	-14.263201	0.000446	4.459157	0.755402	-0.000089
1220	1.2129e+02	-4.2833	-14.384315	0.000608	6.080669	1.030093	-0.000122
1221	1.2139e+02	-4.3021	-14.497354	0.000568	5.675291	0.961420	-0.000114
1222	1.2149e+02	-4.3219	-14.586171	0.000446	4.459157	0.755402	-0.000089
1223	1.2159e+02	-4.3429	-14.703248	0.000588	5.877980	0.995757	-0.000118
1224	1.2169e+02	-4.3626	-14.792065	0.000446	4.459157	0.755402	-0.000089
1225	1.2179e+02	-4.3823	-14.905105	0.000568	5.675291	0.961420	-0.000114
1226	1.2189e+02	-4.4027	-15.022182	0.000588	5.877980	0.995757	-0.000118
1227	1.2199e+02	-4.4193	-15.123110	0.000507	5.067224	0.858411	-0.000101
1228	1.2209e+02	-4.4418	-15.236150	0.000568	5.675291	0.961420	-0.000114
1229	1.2219e+02	-4.4609	-15.361301	0.000628	6.283358	1.064430	-0.000126
1230	1.2229e+02	-4.4815	-15.433970	0.000365	3.648401	0.618056	-0.000073
1231	1.2239e+02	-4.5012	-15.587381	0.000770	7.702180	1.304785	-0.000154
1232	1.2248e+02	-4.5218	-15.651975	0.000324	3.243023	0.549383	-0.000065
1233	1.2258e+02	-4.5407	-15.765015	0.000568	5.675291	0.961420	-0.000114
1234	1.2268e+02	-4.5614	-15.865943	0.000507	5.067224	0.858411	-0.000101
1235	1.2278e+02	-4.5815	-15.970909	0.000527	5.269913	0.892747	-0.000105
1236	1.2288e+02	-4.6010	-16.075875	0.000527	5.269913	0.892747	-0.000105
1237	1.2298e+02	-4.6214	-16.168729	0.000466	4.661846	0.789738	-0.000093
1238	1.2308e+02	-4.6408	-16.269657	0.000507	5.067224	0.858411	-0.000101
1239	1.2318e+02	-4.6608	-16.390771	0.000608	6.080669	1.030093	-0.000122
1240	1.2328e+02	-4.6805	-16.483625	0.000466	4.661846	0.789738	-0.000093
1241	1.2338e+02	-4.6996	-16.576479	0.000466	4.661846	0.789738	-0.000093
1242	1.2348e+02	-4.7205	-16.713742	0.000689	6.891425	1.167439	-0.000138
1243	1.2358e+02	-4.7414	-16.810633	0.000486	4.864535	0.824075	-0.000097
1244	1.2368e+02	-4.7614	-16.871190	0.000304	3.040334	0.515047	-0.000061
1245	1.2378e+02	-4.7814	-17.004416	0.000669	6.688736	1.133102	-0.000134
1246	1.2388e+02	-4.8007	-17.117456	0.000568	5.675291	0.961420	-0.000114
1247	1.2398e+02	-4.8203	-17.214347	0.000486	4.864535	0.824075	-0.000097
1248	1.2408e+02	-4.8404	-17.307201	0.000466	4.661846	0.789738	-0.000093
1249	1.2418e+02	-4.8602	-17.440426	0.000669	6.688736	1.133102	-0.000134
1250	1.2428e+02	-4.8804	-17.513095	0.000365	3.648401	0.618056	-0.000073
1251	1.2438e+02	-4.8999	-17.662469	0.000750	7.499491	1.270448	-0.000150
1252	1.2447e+02	-4.9197	-17.739174	0.000385	3.851090	0.652392	-0.000077
1253	1.2457e+02	-4.9400	-17.827991	0.000446	4.459157	0.755402	-0.000089
1254	1.2467e+02	-4.9600	-17.953143	0.000628	6.283358	1.064430	-0.000126
1255	1.2477e+02	-4.9810	-18.050034	0.000486	4.864535	0.824075	-0.000097
1256	1.2487e+02	-4.9997	-18.187296	0.000689	6.891425	1.167439	-0.000138
1257	1.2497e+02	-5.0201	-18.255928	0.000345	3.445712	0.583719	-0.000069
1258	1.2507e+02	-5.0401	-18.425488	0.000851	8.512936	1.442130	-0.000170
1259	1.2517e+02	-5.0586	-18.490082	0.000324	3.243023	0.549383	-0.000065
1260	1.2527e+02	-5.0787	-18.570824	0.000405	4.053779	0.686729	-0.000081
1261	1.2537e+02	-5.0992	-18.671753	0.000507	5.067224	0.858411	-0.000101
1262	1.2547e+02	-5.1193	-18.776718	0.000527	5.269913	0.892747	-0.000105
1263	1.2557e+02	-5.1388	-18.893795	0.000588	5.877980	0.995757	-0.000118
1264	1.2567e+02	-5.1592	-18.982612	0.000446	4.459157	0.755402	-0.000089
1265	1.2577e+02	-5.1789	-19.103726	0.000608	6.080669	1.030093	-0.000122
1266	1.2587e+02	-5.1987	-19.204655	0.000507	5.067224	0.858411	-0.000101
1267	1.2597e+02	-5.2185	-19.309620	0.000527	5.269913	0.892747	-0.000105
1268	1.2607e+02	-5.2402	-19.418623	0.000547	5.472602	0.927084	-0.000110
1269	1.2617e+02	-5.2585	-19.531663	0.000568	5.675291	0.961420	-0.000114
1270	1.2627e+02	-5.2795	-19.620480	0.000446	4.459157	0.755402	-0.000089
1271	1.2636e+02	-5.2988	-19.721408	0.000507	5.067224	0.858411	-0.000101
1272	1.2646e+02	-5.3186	-19.822336	0.000507	5.067224	0.858411	-0.000101
1273	1.2656e+02	-5.3381	-19.919228	0.000486	4.864535	0.824075	-0.000097
1274	1.2666e+02	-5.3584	-20.052453	0.000669	6.688736	1.133102	-0.000134
1275	1.2676e+02	-5.3769	-20.145307	0.000466	4.661846	0.789738	-0.000093
1276	1.2686e+02	-5.3984	-20.217976	0.000365	3.648401	0.618056	-0.000073
1277	1.2696e+02	-5.4185	-20.331016	0.000568	5.675291	0.961420	-0.000114
1278	1.2706e+02	-5.4387	-20.415795	0.000426	4.256468	0.721065	-0.000085
1279	1.2716e+02	-5.4579	-20.532872	0.000588	5.877980	0.995757	-0.000118
1280	1.2726e+02	-5.4779	-20.658024	0.000628	6.283358	1.064430	-0.000126
1281	1.2736e+02	-5.4973	-20.742803	0.000426	4.256468	0.721065	-0.000085
1282	1.2746e+02	-5.5175	-20.859880	0.000588	5.877980	0.995757	-0.000118
1283	1.2756e+02	-5.5377	-20.960809	0.000507	5.067224	0.858411	-0.000101
1284	1.2766e+02	-5.5576	-21.041551	0.000405	4.053779	0.686729	-0.000081
1285	1.2776e+02	-5.5768	-21.170740	0.000649	6.486047	1.098766	-0.000130
1286	1.2786e+02	-5.5975	-21.263594	0.000466	4.661846	0.789738	-0.000093
1287	1.2796e+02	-5.6172	-21.372597	0.000547	5.472602	0.927084	-0.000110
1288	1.2806e+02	-5.6378	-21.449302	0.000385	3.851090	0.652392	-0.000077
1289	1.2816e+02	-5.6570	-21.570416	0.000608	6.080669	1.030093	-0.000122
1290	1.2826e+02	-5.6769	-21.651159	0.000405	4.053779	0.686729	-0.000081
1291	1.2835e+02	-5.6976	-21.772273	0.000608	6.080669	1.030093	-0.000122
1292	1.2845e+02	-5.7174	-21.857053	0.000426	4.256468	0.721065	-0.000085
1293	1.2855e+02	-5.7370	-21.970093	0.000568	5.675291	0.961420	-0.000114
1294	1.2865e+02	-5.7568	-22.103318	0.000669	6.688736	1.133102	-0.000134
1295	1.2875e+02	-5.7767	-22.196172	0.000466	4.661846	0.789738	-0.000093
1296	1.2885e+02	-5.7958	-22.309212	0.000568	5.675291	0.961420	-0.000114
1297	1.2895e+02	-5.8167	-22.442438	0.000669	6.688736	1.133102	-0.000134
1298	1.2905e+02	-5.8362	-22.494920	0.000263	2.634956	0.446374	-0.000053
1299	1.2915e+02	-5.8572	-22.616034	0.000608	6.080669	1.030093	-0.000122
1300	1.2925e+02	-5.8768	-22.704851	0.000446	4.459157	0.755402	-0.000089
1301	1.2935e+02	-5.8960	-22.797706	0.000466	4.661846	0.789738	-0.000093
1302	1.2945e+02	-5.9166	-22.947080	0.000750	7.499491	1.270448	-0.000150
1303	1.2955e+02	-5.9372	-23.068194	0.000608	6.080669	1.030093	-0.000122
1304	1.2965e+02	-5.9564	-23.144899	0.000385	3.851090	0.652392	-0.000077
1305	1.2975e+02	-5.9753	-23.253902	0.000547	5.472602	0.927084	-0.000110
1306	1.2985e+02	-5.9956	-23.346756	0.000466	4.661846	0.789738	-0.000093
1307	1.2995e+02	-6.0152	-23.475944	0.000649	6.486047	1.098766	-0.000130
1308	1.3005e+02	-6.0361	-23.588984	0.000568	5.675291	0.961420	-0.000114
1309	1.3015e+02	-6.0555	-23.702024	0.000568	5.675291	0.961420	-0.000114
1310	1.3025e+02	-6.0756	-23.798915	0.000486	4.864535	0.824075	-0.000097
1311	1.3034e+02	-6.0957	-23.915992	0.000588	5.877980	0.995757	-0.000118
1312	1.3044e+02	-6.1070	-24.045180	0.000649	6.486047	1.098766	-0.000130
1313	1.3054e+02	-6.1346	-24.174369	0.000649	6.486047	1.098766	-0.000130
1314	1.3064e+02	-6.1557	-24.279334	0.000527	5.269913	0.892747	-0.000105
1315	1.3074e+02	-6.1749	-24.339891	0.000304	3.040334	0.515047	-0.000061
1316	1.3084e+02	-6.1954	-24.481191	0.000709	7.094113	1.201775	-0.000142
1317	1.3094e+02	-6.2144	-24.561934	0.000405	4.053779	0.686729	-0.000081
1318	1.3104e+02	-6.2357	-24.703234	0.000709	7.094113	1.201775	-0.000142
1319	1.3114e+02	-6.2549	-24.844533	0.000709	7.094113	1.201775	-0.000142
1320	1.3124e+02	-6.2756	-24.909128	0.000324	3.243023	0.549383	-0.000065
1321	1.3134e+02	-6.2943	-25.030242	0.000608	6.080669	1.030093	-0.000122
1322	1.3144e+02	-6.3144	-25.115021	0.000426	4.256468	0.721065	-0.000085
1323	1.3154e+02	-6.3345	-25.211913	0.000486	4.864535	0.824075	-0.000097
1324	1.3164e+02	-6.3547	-25.333027	0.000608	6.080669	1.030093	-0.000122
1325	1.3174e+02	-6.3745	-25.442029	0.000547	5.472602	0.927084	-0.000110
1326	1.3184e+02	-6.3950	-25.534884	0.000466	4.661846	0.789738	-0.000093
1327	1.3194e+02	-6.4143	-25.680220	0.000730	7.296802	1.236112	-0.000146
1328	1.3204e+02	-6.4346	-25.785186	0.000527	5.269913	0.892747	-0.000105
1329	1.3214e+02	-6.4543	-25.874003	0.000446	4.459157	0.755402	-0.000089
1330	1.3224e+02	-6.4746	-25.999154	0.000628	6.283358	1.064430	-0.000126
1331	1.3234e+02	-6.4937	-26.096045	0.000486	4.864535	0.824075	-0.000097
1332	1.3243e+02	-6.5137	-26.245419	0.000750	7.499491	1.270448	-0.000150
1333	1.3253e+02	-6.5338	-26.338274	0.000466	4.661846	0.789738	-0.000093
1334	1.3263e+02	-6.5536	-26.431128	0.000466	4.661846	0.789738	-0.000093
1335	1.3273e+02	-6.5729	-26.556279	0.000628	6.283358	1.064430	-0.000126
1336	1.3283e+02	-6.5936	-26.669319	0.000568	5.675291	0.961420	-0.000114
1337	1.3293e+02	-6.6144	-26.778321	0.000547	5.472602	0.927084	-0.000110
1338	1.3303e+02	-6.6330	-26.903473	0.000628	6.283358	1.064430	-0.000126
1339	1.3313e+02	-6.6536	-26.992290	0.000446	4.459157	0.755402	-0.000089
1340	1.3323e+02	-6.6734	-27.109366	0.000588	5.877980	0.995757	-0.000118
1341	1.3333e+02	-6.6938	-27.250666	0.000709	7.094113	1.201775	-0.000142
1342	1.3343e+02	-6.7119	-27.351595	0.000507	5.067224	0.858411	-0.000101
1343	1.3353e+02	-6.7334	-27.444449	0.000466	4.661846	0.789738	-0.000093
1344	1.3363e+02	-6.7535	-27.573637	0.000649	6.486047	1.098766	-0.000130
1345	1.3373e+02	-6.7725	-27.682640	0.000547	5.472602	0.927084	-0.000110
1346	1.3383e+02	-6.7929	-27.807791	0.000628	6.283358	1.064430	-0.000126
1347	1.3393e+02	-6.8130	-27.928905	0.000608	6.080669	1.030093	-0.000122
1348	1.3403e+02	-6.8332	-28.062131	0.000669	6.688736	1.133102	-0.000134
1349	1.3413e+02	-6.8530	-28.179207	0.000588	5.877980	0.995757	-0.000118
1350	1.3423e+02	-6.8713	-28.296284	0.000588	5.877980	0.995757	-0.000118
1351	1.3432e+02	-6.8922	-28.368953	0.000365	3.648401	0.618056	-0.000073
1352	1.3442e+02	-6.9122	-28.514290	0.000730	7.296802	1.236112	-0.000146
1353	1.3452e+02	-6.9321	-28.623292	0.000547	5.472602	0.927084	-0.000110
1354	1.3462e+02	-6.9516	-28.704035	0.000405	4.053779	0.686729	-0.000081
1355	1.3472e+02	-6.9727	-28.853409	0.000750	7.499491	1.270448	-0.000150
1356	1.3482e+02	-6.9925	-28.946263	0.000466	4.661846	0.789738	-0.000093
1357	1.3492e+02	-7.0116	-29.051229	0.000527	5.269913	0.892747	-0.000105
1358	1.3502e+02	-7.0325	-29.224826	0.000872	8.715625	1.476467	-0.000174
1359	1.3512e+02	-7.0517	-29.329791	0.000527	5.269913	0.892747	-0.000105
1360	1.3522e+02	-7.0717	-29.442831	0.000568	5.675291	0.961420	-0.000114
1361	1.3532e+02	-7.0912	-29.543759	0.000507	5.067224	0.858411	-0.000101
1362	1.3542e+02	-7.1124	-29.685059	0.000709	7.094113	1.201775	-0.000142
1363	1.3552e+02	-7.1319	-29.806173	0.000608	6.080669	1.030093	-0.000122
1364	1.3562e+02	-7.1526	-29.923250	0.000588	5.877980	0.995757	-0.000118
1365	1.3572e+02	-7.1715	-30.036290	0.000568	5.675291	0.961420	-0.000114
1366	1.3582e+02	-7.1918	-30.173553	0.000689	6.891425	1.167439	-0.000138
1367	1.3592e+02	-7.2107	-30.278518	0.000527	5.269913	0.892747	-0.000105
1368	1.3602e+02	-7.2309	-30.415781	0.000689	6.891425	1.167439	-0.000138
1369	1.3612e+02	-7.2508	-30.516709	0.000507	5.067224	0.858411	-0.000101
1370	1.3622e+02	-7.2708	-30.641860	0.000628	6.283358	1.064430	-0.000126
1371	1.3631e+02	-7.2905	-30.815457	0.000872	8.715625	1.476467	-0.000174
1372	1.3641e+02	-7.3104	-30.936571	0.000608	6.080669	1.030093	-0.000122
1373	1.3651e+02	-7.3309	-31.045574	0.000547	5.472602	0.927084	-0.000110
1374	1.3661e+02	-7.3508	-31.158614	0.000568	5.675291	0.961420	-0.000114
1375	1.3671e+02	-7.3700	-31.259542	0.000507	5.067224	0.858411	-0.000101
1376	1.3681e+02	-7.3915	-31.429102	0.000851	8.512936	1.442130	-0.000170
1377	1.3691e+02	-7.4109	-31.542142	0.000568	5.675291	0.961420	-0.000114
1378	1.3701e+02	-7.4307	-31.687478	0.000730	7.296802	1.236112	-0.000146
1379	1.3711e+02	-7.4507	-31.808592	0.000608	6.080669	1.030093	-0.000122
1380	1.3721e+02	-7.4691	-31.957967	0.000750	7.499491	1.270448	-0.000150
1381	1.3731e+02	-7.4908	-32.054858	0.000486	4.864535	0.824075	-0.000097
1382	1.3741e+02	-7.5099	-32.180009	0.000628	6.283358	1.064430	-0.000126
1383	1.3751e+02	-7.5305	-32.325346	0.000730	7.296802	1.236112	-0.000146
1384	1.3761e+02	-7.5504	-32.430311	0.000527	5.269913	0.892747	-0.000105
1385	1.3771e+02	-7.5703	-32.555463	0.000628	6.283358	1.064430	-0.000126
1386	1.3781e+02	-7.5900	-32.676577	0.000608	6.080669	1.030093	-0.000122
1387	1.3791e+02	-7.6093	-32.781542	0.000527	5.269913	0.892747	-0.000105
1388	1.3801e+02	-7.6295	-32.922842	0.000709	7.094113	1.201775	-0.000142
1389	1.3811e+02	-7.6488	-33.080290	0.000790	7.904869	1.339121	-0.000158
1390	1.3821e+02	-7.6678	-33.217553	0.000689	6.891425	1.167439	-0.000138
1391	1.3831e+02	-7.6892	-33.330593	0.000568	5.675291	0.961420	-0.000114
1392	1.3840e+02	-7.7090	-33.479967	0.000750	7.499491	1.270448	-0.000150
1393	1.3850e+02	-7.7290	-33.568784	0.000446	4.459157	0.755402	-0.000089
1394	1.3860e+02	-7.7487	-33.726232	0.000790	7.904869	1.339121	-0.000158
1395	1.3870e+02	-7.7682	-33.875606	0.000750	7.499491	1.270448	-0.000150
1396	1.3880e+02	-7.7892	-33.988646	0.000568	5.675291	0.961420	-0.000114
1397	1.3890e+02	-7.8085	-34.121871	0.000669	6.688736	1.133102	-0.000134
1398	1.3900e+02	-7.8278	-34.259134	0.000689	6.891425	1.167439	-0.000138
1399	1.3910e+02	-7.8477	-34.364099	0.000527	5.269913	0.892747	-0.000105
1400	1.3920e+02	-7.8683	-34.517511	0.000770	7.702180	1.304785	-0.000154
1401	1.3930e+02	-7.8881	-34.646699	0.000649	6.486047	1.098766	-0.000130
1402	1.3940e+02	-7.9089	-34.836444	0.000953	9.526381	1.613813	-0.000191
1403	1.3950e+02	-7.9285	-34.949484	0.000568	5.675291	0.961420	-0.000114
1404	1.3960e+02	-7.9478	-35.070598	0.000608	6.080669	1.030093	-0.000122
1405	1.3970e+02	-7.9683	-35.207861	0.000689	6.891425	1.167439	-0.000138
1406	1.3980e+02	-7.9877	-35.365309	0.000790	7.904869	1.339121	-0.000158
1407	1.3990e+02	-8.0083	-35.502572	0.000689	6.891425	1.167439	-0.000138
1408	1.4000e+02	-8.0273	-35.631760	0.000649	6.486047	1.098766	-0.000130
1409	1.4010e+02	-8.0472	-35.785171	0.000770	7.702180	1.304785	-0.000154
1410	1.4020e+02	-8.0673	-35.898211	0.000568	5.675291	0.961420	-0.000114
1411	1.4029e+02	-8.0874	-36.071808	0.000872	8.715625	1.476467	-0.000174
1412	1.4039e+02	-8.1078	-36.245405	0.000872	8.715625	1.476467	-0.000174
1413	1.4049e+02	-8.1271	-36.374593	0.000649	6.486047	1.098766	-0.000130
1414	1.4059e+02	-8.1473	-36.507818	0.000669	6.688736	1.133102	-0.000134
1415	1.4069e+02	-8.1670	-36.637007	0.000649	6.486047	1.098766	-0.000130
1416	1.4079e+02	-8.1863	-36.810604	0.000872	8.715625	1.476467	-0.000174
1417	1.4089e+02	-8.2063	-36.935755	0.000628	6.283358	1.064430	-0.000126
1418	1.4099e+02	-8.2270	-37.077055	0.000709	7.094113	1.201775	-0.000142
1419	1.4109e+02	-8.2477	-37.242577	0.000831	8.310247	1.407794	-0.000166
1420	1.4119e+02	-8.2671	-37.400025	0.000790	7.904869	1.339121	-0.000158
1421	1.4129e+02	-8.2867	-37.545362	0.000730	7.296802	1.236112	-0.000146
1422	1.4139e+02	-8.3067	-37.710885	0.000831	8.310247	1.407794	-0.000166
1423	1.4149e+02	-8.3255	-37.864296	0.000770	7.702180	1.304785	-0.000154
1424	1.4159e+02	-8.3468	-37.985410	0.000608	6.080669	1.030093	-0.000122
1425	1.4169e+02	-8.3658	-38.154970	0.000851	8.512936	1.442130	-0.000170
1426	1.4179e+02	-8.3867	-38.336641	0.000912	9.121003	1.545140	-0.000183
1427	1.4189e+02	-8.4055	-38.477941	0.000709	7.094113	1.201775	-0.000142
1428	1.4199e+02	-8.4258	-38.655575	0.000892	8.918314	1.510803	-0.000179
1429	1.4209e+02	-8.4460	-38.808986	0.000770	7.702180	1.304785	-0.000154
1430	1.4219e+02	-8.4653	-38.946248	0.000689	6.891425	1.167439	-0.000138
1431	1.4228e+02	-8.4863	-39.103697	0.000790	7.904869	1.339121	-0.000158
1432	1.4238e+02	-8.5056	-39.305554	0.001013	10.134448	1.716822	-0.000203
1433	1.4248e+02	-8.5260	-39.450890	0.000730	7.296802	1.236112	-0.000146
1434	1.4258e+02	-8.5455	-39.612376	0.000811	8.107558	1.373458	-0.000162
1435	1.4268e+02	-8.5654	-39.757713	0.000730	7.296802	1.236112	-0.000146
1436	1.4278e+02	-8.5860	-39.935347	0.000892	8.918314	1.510803	-0.000179
1437	1.4288e+02	-8.6053	-40.145278	0.001054	10.539826	1.785495	-0.000211
1438	1.4298e+02	-8.6255	-40.302726	0.000790	7.904869	1.339121	-0.000158
1439	1.4308e+02	-8.6450	-40.448063	0.000730	7.296802	1.236112	-0.000146
1440	1.4318e+02	-8.6654	-40.593400	0.000730	7.296802	1.236112	-0.000146
1441	1.4328e+02	-8.6847	-40.754885	0.000811	8.107558	1.373458	-0.000162
1442	1.4338e+02	-8.7055	-40.964816	0.001054	10.539826	1.785495	-0.000211
1443	1.4348e+02	-8.7245	-41.142450	0.000892	8.918314	1.510803	-0.000179
1444	1.4358e+02	-8.7448	-41.291824	0.000750	7.499491	1.270448	-0.000150
1445	1.4368e+02	-8.7656	-41.505793	0.001074	10.742515	1.819831	-0.000215
1446	1.4378e+02	-8.7845	-41.667278	0.000811	8.107558	1.373458	-0.000162
1447	1.4388e+02	-8.8049	-41.820689	0.000770	7.702180	1.304785	-0.000154
1448	1.4398e+02	-8.8242	-42.022546	0.001013	10.134448	1.716822	-0.000203
1449	1.4408e+02	-8.8431	-42.179994	0.000790	7.904869	1.339121	-0.000158
1450	1.4418e+02	-8.8643	-42.341480	0.000811	8.107558	1.373458	-0.000162
1451	1.4428e+02	-8.8846	-42.547374	0.001034	10.337137	1.751158	-0.000207
1452	1.4437e+02	-8.9047	-42.708859	0.000811	8.107558	1.373458	-0.000162
1453	1.4447e+02	-8.9239	-42.914753	0.001034	10.337137	1.751158	-0.000207
1454	1.4457e+02	-8.9435	-43.092387	0.000892	8.918314	1.510803	-0.000179
1455	1.4467e+02	-8.9630	-43.270021	0.000892	8.918314	1.510803	-0.000179
1456	1.4477e+02	-8.9838	-43.455729	0.000932	9.323692	1.579476	-0.000187
1457	1.4487e+02	-9.0038	-43.681809	0.001135	11.350582	1.922841	-0.000227
1458	1.4497e+02	-9.0215	-43.847331	0.000831	8.310247	1.407794	-0.000166
1459	1.4507e+02	-9.0427	-44.029002	0.000912	9.121003	1.545140	-0.000183
1460	1.4517e+02	-9.0636	-44.247008	0.001095	10.945204	1.854168	-0.000219
1461	1.4527e+02	-9.0829	-44.452902	0.001034	10.337137	1.751158	-0.000207
1462	1.4537e+02	-9.1032	-44.602276	0.000750	7.499491	1.270448	-0.000150
1463	1.4547e+02	-9.1226	-44.812207	0.001054	10.539826	1.785495	-0.000211
1464	1.4557e+02	-9.1437	-45.042323	0.001155	11.553271	1.957177	-0.000231
1465	1.4567e+02	-9.1632	-45.187660	0.000730	7.296802	1.236112	-0.000146
1466	1.4577e+02	-9.1818	-45.429888	0.001216	12.161337	2.060186	-0.000243
1467	1.4587e+02	-9.2036	-45.664042	0.001176	11.755959	1.991513	-0.000235
1468	1.4597e+02	-9.2214	-45.853788	0.000953	9.526381	1.613813	-0.000191
1469	1.4607e+02	-9.2422	-46.087942	0.001176	11.755959	1.991513	-0.000235
1470	1.4617e+02	-9.2624	-46.253464	0.000831	8.310247	1.407794	-0.000166
1471	1.4626e+02	-9.2830	-46.471469	0.001095	10.945204	1.854168	-0.000219
1472	1.4636e+02	-9.3022	-46.721772	0.001257	12.566715	2.128859	-0.000252
1473	1.4646e+02	-9.3213	-46.919592	0.000993	9.931759	1.682485	-0.000199
1474	1.4656e+02	-9.3414	-47.113374	0.000973	9.729070	1.648149	-0.000195
1475	1.4666e+02	-9.3623	-47.359639	0.001236	12.364026	2.094523	-0.000248
1476	1.4676e+02	-9.3829	-47.529199	0.000851	8.512936	1.442130	-0.000170
1477	1.4686e+02	-9.4025	-47.743167	0.001074	10.742515	1.819831	-0.000215
1478	1.4696e+02	-9.4217	-48.037878	0.001480	14.796294	2.506560	-0.000296
1479	1.4706e+02	-9.4415	-48.215512	0.000892	8.918314	1.510803	-0.000179
1480	1.4716e+02	-9.4610	-48.441592	0.001135	11.350582	1.922841	-0.000227
1481	1.4726e+02	-9.4819	-48.691894	0.001257	12.566715	2.128859	-0.000252
1482	1.4736e+02	-9.5018	-48.942197	0.001257	12.566715	2.128859	-0.000252
1483	1.4746e+02	-9.5221	-49.135979	0.000973	9.729070	1.648149	-0.000195
1484	1.4756e+02	-9.5421	-49.370133	0.001176	11.755959	1.991513	-0.000235
1485	1.4766e+02	-9.5612	-49.604287	0.001176	11.755959	1.991513	-0.000235
1486	1.4776e+02	-9.5815	-49.858626	0.001277	12.769404	2.163196	-0.000256
1487	1.4786e+02	-9.6014	-50.072595	0.001074	10.742515	1.819831	-0.000215
1488	1.4796e+02	-9.6210	-50.306748	0.001176	11.755959	1.991513	-0.000235
1489	1.4806e+02	-9.6417	-50.544939	0.001196	11.958648	2.025850	-0.000239
1490	1.4816e+02	-9.6602	-50.811390	0.001338	13.377471	2.266205	-0.000268
1491	1.4825e+02	-9.6805	-51.053619	0.001216	12.161337	2.060186	-0.000243
1492	1.4835e+02	-9.7009	-51.279698	0.001135	11.350582	1.922841	-0.000227
1493	1.4845e+02	-9.7200	-51.501741	0.001115	11.147893	1.888504	-0.000223
1494	1.4855e+02	-9.7408	-51.792414	0.001459	14.593605	2.472224	-0.000292
1495	1.4865e+02	-9.7610	-52.030605	0.001196	11.958648	2.025850	-0.000239
1496	1.4875e+02	-9.7797	-52.313205	0.001419	14.188227	2.403551	-0.000284
1497	1.4885e+02	-9.8009	-52.531210	0.001095	10.945204	1.854168	-0.000219
1498	1.4895e+02	-9.8209	-52.773438	0.001216	12.161337	2.060186	-0.000243
1499	1.4905e+02	-9.8402	-53.072186	0.001500	14.998983	2.540896	-0.000300
1500	1.4915e+02	-9.8604	-53.290192	0.001095	10.945204	1.854168	-0.000219
1501	1.4925e+02	-9.8798	-53.605088	0.001581	15.809739	2.678242	-0.000316
1502	1.4935e+02	-9.8997	-53.847316	0.001216	12.161337	2.060186	-0.000243
1503	1.4945e+02	-9.9197	-54.081470	0.001176	11.755959	1.991513	-0.000235
1504	1.4955e+02	-9.9400	-54.392330	0.001561	15.607050	2.643906	-0.000312
1505	1.4965e+02	-9.9609	-54.666855	0.001378	13.782849	2.334878	-0.000276
1506	1.4975e+02	-9.9792	-54.892935	0.001135	11.350582	1.922841	-0.000227
1507	1.4985e+02	-9.9986	-55.207831	0.001581	15.809739	2.678242	-0.000316
1508	1.4995e+02	-9.9788	-55.361242	-0.000770	-7.702180	-1.304785	-0.000154
1509	1.5005e+02	-9.9594	-55.446022	-0.000426	-4.256468	-0.721065	-0.000085
1510	1.5015e+02	-9.9399	-55.623656	-0.000892	-8.918314	-1.510803	-0.000179
1511	1.5025e+02	-9.9197	-55.704399	-0.000405	-4.053779	-0.686729	-0.000081
1512	1.5034e+02	-9.8994	-55.777067	-0.000365	-3.648401	-0.618056	-0.000073
1513	1.5044e+02	-9.8796	-55.910293	-0.000669	-6.688736	-1.133102	-0.000134
1514	1.5054e+02	-9.8598	-56.015258	-0.000527	-5.269913	-0.892747	-0.000105
1515	1.5064e+02	-9.8409	-56.096001	-0.000405	-4.053779	-0.686729	-0.000081
1516	1.5074e+02	-9.8218	-56.192892	-0.000486	-4.864535	-0.824075	-0.000097
1517	1.5084e+02	-9.8009	-56.273635	-0.000405	-4.053779	-0.686729	-0.000081
1518	1.5094e+02	-9.7806	-56.350341	-0.000385	-3.851090	-0.652392	-0.000077
1519	1.5104e+02	-9.7610	-56.382638	-0.000162	-1.621512	-0.274692	-0.000032
1520	1.5114e+02	-9.7407	-56.447232	-0.000324	-3.243023	-0.549383	-0.000065
1521	1.5124e+02	-9.7212	-56.536049	-0.000446	-4.459157	-0.755402	-0.000089
1522	1.5134e+02	-9.6996	-56.584495	-0.000243	-2.432267	-0.412037	-0.000049
1523	1.5144e+02	-9.6802	-56.604680	-0.000101	-1.013445	-0.171682	-0.000020
1524	1.5154e+02	-9.6619	-56.669274	-0.000324	-3.243023	-0.549383	-0.000065
1525	1.5164e+02	-9.6405	-56.705609	-0.000182	-1.824201	-0.309028	-0.000037
1526	1.5174e+02	-9.6214	-56.782314	-0.000385	-3.851090	-0.652392	-0.000077
1527	1.5184e+02	-9.6004	-56.830760	-0.000243	-2.432267	-0.412037	-0.000049
1528	1.5194e+02	-9.5813	-56.871131	-0.000203	-2.026890	-0.343364	-0.000041
1529	1.5204e+02	-9.5612	-56.891317	-0.000101	-1.013445	-0.171682	-0.000020
1530	1.5214e+02	-9.5413	-56.951874	-0.000304	-3.040334	-0.515047	-0.000061
1531	1.5224e+02	-9.5238	-56.959948	-0.000041	-0.405378	-0.068673	-0.000008
1532	1.5233e+02	-9.5020	-56.980134	-0.000101	-1.013445	-0.171682	-0.000020
1533	1.5243e+02	-9.4810	-57.052802	-0.000365	-3.648401	-0.618056	-0.000073
1534	1.5253e+02	-9.4614	-57.044728	0.000041	0.405378	0.068673	0.000008
1535	1.5263e+02	-9.4415	-57.121434	-0.000385	-3.851090	-0.652392	-0.000077
1536	1.5273e+02	-9.4218	-57.145656	-0.000122	-1.216134	-0.206019	-0.000024
1537	1.5283e+02	-9.4009	-57.137582	0.000041	0.405378	0.068673	0.000008
1538	1.5293e+02	-9.3818	-57.149694	-0.000061	-0.608067	-0.103009	-0.000012
1539	1.5303e+02	-9.3628	-57.169879	-0.000101	-1.013445	-0.171682	-0.000020
1540	1.5313e+02	-9.3417	-57.157768	0.000061	0.608067	0.103009	0.000012
1541	1.5323e+02	-9.3226	-57.177953	-0.000101	-1.013445	-0.171682	-0.000020
1542	1.5333e+02	-9.3024	-57.198139	-0.000101	-1.013445	-0.171682	-0.000020
1543	1.5343e+02	-9.2828	-57.194102	0.000020	0.202689	0.034336	0.000004
1544	1.5353e+02	-9.2624	-57.206213	-0.000061	-0.608067	-0.103009	-0.000012
1545	1.5363e+02	-9.2419	-57.214288	-0.000041	-0.405378	-0.068673	-0.000008
1546	1.5373e+02	-9.2220	-57.173916	0.000203	2.026890	0.343364	0.000041
1547	1.5383e+02	-9.2023	-57.194102	-0.000101	-1.013445	-0.171682	-0.000020
1548	1.5393e+02	-9.1832	-57.186028	0.000041	0.405378	0.068673	0.000008
1549	1.5403e+02	-9.1622	-57.161805	0.000122	1.216134	0.206019	0.000024
1550	1.5413e+02	-9.1432	-57.165842	-0.000020	-0.202689	-0.034336	-0.000004
1551	1.5422e+02	-9.1229	-57.222362	-0.000284	-2.837645	-0.480710	-0.000057
1552	1.5432e+02	-9.1032	-57.141619	0.000405	4.053779	0.686729	0.000081
1553	1.5442e+02	-9.0839	-57.145656	-0.000020	-0.202689	-0.034336	-0.000004
1554	1.5452e+02	-9.0636	-57.121434	0.000122	1.216134	0.206019	0.000024
1555	1.5462e+02	-9.0439	-57.137582	-0.000081	-0.810756	-0.137346	-0.000016
1556	1.5472e+02	-9.0227	-57.109322	0.000142	1.418823	0.240355	0.000028
1557	1.5482e+02	-9.0039	-57.097211	0.000061	0.608067	0.103009	0.000012
1558	1.5492e+02	-8.9838	-57.064914	0.000162	1.621512	0.274692	0.000032
1559	1.5502e+02	-8.9624	-57.028579	0.000182	1.824201	0.309028	0.000037
1560	1.5512e+02	-8.9435	-57.036654	-0.000041	-0.405378	-0.068673	-0.000008
1561	1.5522e+02	-8.9240	-57.012431	0.000122	1.216134	0.206019	0.000024
1562	1.5532e+02	-8.9036	-56.976097	0.000182	1.824201	0.309028	0.000037
1563	1.5542e+02	-8.8834	-56.968022	0.000041	0.405378	0.068673	0.000008
1564	1.5552e+02	-8.8651	-56.955911	0.000061	0.608067	0.103009	0.000012
1565	1.5562e+02	-8.8451	-56.915540	0.000203	2.026890	0.343364	0.000041
1566	1.5572e+02	-8.8243	-56.883243	0.000162	1.621512	0.274692	0.000032
1567	1.5582e+02	-8.8051	-56.826723	0.000284	2.837645	0.480710	0.000057
1568	1.5592e+02	-8.7849	-56.810574	0.000081	0.810756	0.137346	0.000016
1569	1.5602e+02	-8.7665	-56.790388	0.000101	1.013445	0.171682	0.000020
1570	1.5612e+02	-8.7439	-56.798463	-0.000041	-0.405378	-0.068673	-0.000008
1571	1.5622e+02	-8.7247	-56.737906	0.000304	3.040334	0.515047	0.000061
1572	1.5631e+02	-8.7048	-56.705609	0.000162	1.621512	0.274692	0.000032
1573	1.5641e+02	-8.6853	-56.661200	0.000223	2.229579	0.377701	0.000045
1574	1.5651e+02	-8.6655	-56.649089	0.000061	0.608067	0.103009	0.000012
1575	1.5661e+02	-8.6446	-56.604680	0.000223	2.229579	0.377701	0.000045
1576	1.5671e+02	-8.6255	-56.580457	0.000122	1.216134	0.206019	0.000024
1577	1.5681e+02	-8.6053	-56.519900	0.000304	3.040334	0.515047	0.000061
1578	1.5691e+02	-8.5852	-56.487603	0.000162	1.621512	0.274692	0.000032
1579	1.5701e+02	-8.5654	-56.447232	0.000203	2.026890	0.343364	0.000041
1580	1.5711e+02	-8.5454	-56.394749	0.000263	2.634956	0.446374	0.000053
1581	1.5721e+02	-8.5251	-56.418972	-0.000122	-1.216134	-0.206019	-0.000024
1582	1.5731e+02	-8.5054	-56.342266	0.000385	3.851090	0.652392	0.000077
1583	1.5741e+02	-8.4854	-56.318044	0.000122	1.216134	0.206019	0.000024
1584	1.5751e+02	-8.4660	-56.281709	0.000182	1.824201	0.309028	0.000037
1585	1.5761e+02	-8.4460	-56.269598	0.000061	0.608067	0.103009	0.000012
1586	1.5771e+02	-8.4259	-56.168670	0.000507	5.067224	0.858411	0.000101
1587	1.5781e+02	-8.4060	-56.184818	-0.000081	-0.810756	-0.137346	-0.000016
1588	1.5791e+02	-8.3819	-56.144447	0.000203	2.026890	0.343364	0.000041
1589	1.5801e+02	-8.3655	-56.063704	0.000405	4.053779	0.686729	0.000081
1590	1.5811e+02	-8.3459	-56.047555	0.000081	0.810756	0.137346	0.000016
1591	1.5821e+02	-8.3260	-55.999110	0.000243	2.432267	0.412037	0.000049
1592	1.5830e+02	-8.3057	-55.966813	0.000162	1.621512	0.274692	0.000032
1593	1.5840e+02	-8.2863	-55.910293	0.000284	2.837645	0.480710	0.000057
1594	1.5850e+02	-8.2669	-55.853773	0.000284	2.837645	0.480710	0.000057
1595	1.5860e+02	-8.2474	-55.837624	0.000081	0.810756	0.137346	0.000016
1596	1.5870e+02	-8.2270	-55.764956	0.000365	3.648401	0.618056	0.000073
1597	1.5880e+02	-8.2068	-55.672102	0.000466	4.661846	0.789738	0.000093
1598	1.5890e+02	-8.1873	-55.655953	0.000081	0.810756	0.137346	0.000016
1599	1.5900e+02	-8.1671	-55.611545	0.000223	2.229579	0.377701	0.000045
1600	1.5910e+02	-8.1482	-55.542913	0.000345	3.445712	0.583719	0.000069
1601	1.5920e+02	-8.1271	-55.478319	0.000324	3.243023	0.549383	0.000065
1602	1.5930e+02	-8.1070	-55.458134	0.000101	1.013445	0.171682	0.000020
1603	1.5940e+02	-8.0870	-55.409688	0.000243	2.432267	0.412037	0.000049
1604	1.5950e+02	-8.0664	-55.389502	0.000101	1.013445	0.171682	0.000020
1605	1.5960e+02	-8.0499	-55.300685	0.000446	4.459157	0.755402	0.000089
1606	1.5970e+02	-8.0272	-55.228017	0.000365	3.648401	0.618056	0.000073
1607	1.5980e+02	-8.0078	-55.183608	0.000223	2.229579	0.377701	0.000045
1608	1.5990e+02	-7.9880	-55.163423	0.000101	1.013445	0.171682	0.000020
1609	1.6000e+02	-7.9671	-55.114977	0.000243	2.432267	0.412037	0.000049
1610	1.6010e+02	-7.9480	-55.082680	0.000162	1.621512	0.274692	0.000032
1611	1.6019e+02	-7.9272	-55.018086	0.000324	3.243023	0.549383	0.000065
1612	1.6029e+02	-7.9068	-54.961566	0.000284	2.837645	0.480710	0.000057
1613	1.6039e+02	-7.8877	-54.892935	0.000345	3.445712	0.583719	0.000069
1614	1.6049e+02	-7.8687	-54.860638	0.000162	1.621512	0.274692	0.000032
1615	1.6059e+02	-7.8476	-54.787969	0.000365	3.648401	0.618056	0.000073
1616	1.6069e+02	-7.8278	-54.711264	0.000385	3.851090	0.652392	0.000077
1617	1.6079e+02	-7.8088	-54.666855	0.000223	2.229579	0.377701	0.000045
1618	1.6089e+02	-7.7890	-54.590149	0.000385	3.851090	0.652392	0.000077
1619	1.6099e+02	-7.7673	-54.561889	0.000142	1.418823	0.240355	0.000028
1620	1.6109e+02	-7.7481	-54.533630	0.000142	1.418823	0.240355	0.000028
1621	1.6119e+02	-7.7290	-54.428664	0.000527	5.269913	0.892747	0.000105
1622	1.6129e+02	-7.7087	-54.384256	0.000223	2.229579	0.377701	0.000045
1623	1.6139e+02	-7.6886	-54.303513	0.000405	4.053779	0.686729	0.000081
1624	1.6149e+02	-7.6694	-54.279290	0.000122	1.216134	0.206019	0.000024
1625	1.6159e+02	-7.6485	-54.178362	0.000507	5.067224	0.858411	0.000101
1626	1.6169e+02	-7.6294	-54.166250	0.000061	0.608067	0.103009	0.000012
1627	1.6179e+02	-7.6082	-54.101656	0.000324	3.243023	0.549383	0.000065
1628	1.6189e+02	-7.5890	-54.041099	0.000304	3.040334	0.515047	0.000061
1629	1.6199e+02	-7.5700	-53.948245	0.000466	4.661846	0.789738	0.000093
1630	1.6209e+02	-7.5490	-53.895762	0.000263	2.634956	0.446374	0.000053
1631	1.6219e+02	-7.5302	-53.819057	0.000385	3.851090	0.652392	0.000077
1632	1.6228e+02	-7.5112	-53.770611	0.000243	2.432267	0.412037	0.000049
1633	1.6238e+02	-7.4902	-53.722165	0.000243	2.432267	0.412037	0.000049
1634	1.6248e+02	-7.4695	-53.653534	0.000345	3.445712	0.583719	0.000069
1635	1.6258e+02	-7.4506	-53.621237	0.000162	1.621512	0.274692	0.000032
1636	1.6268e+02	-7.4304	-53.552606	0.000345	3.445712	0.583719	0.000069
1637	1.6278e+02	-7.4101	-53.528383	0.000122	1.216134	0.206019	0.000024
1638	1.6288e+02	-7.3904	-53.431491	0.000486	4.864535	0.824075	0.000097
1639	1.6298e+02	-7.3696	-53.399194	0.000162	1.621512	0.274692	0.000032
1640	1.6308e+02	-7.3506	-53.314415	0.000426	4.256468	0.721065	0.000085
1641	1.6318e+02	-7.3300	-53.253858	0.000304	3.040334	0.515047	0.000061
1642	1.6328e+02	-7.3105	-53.205412	0.000243	2.432267	0.412037	0.000049
1643	1.6338e+02	-7.2910	-53.124669	0.000405	4.053779	0.686729	0.000081
1644	1.6348e+02	-7.2705	-53.072186	0.000263	2.634956	0.446374	0.000053
1645	1.6358e+02	-7.2516	-52.975295	0.000486	4.864535	0.824075	0.000097
1646	1.6368e+02	-7.2311	-52.955109	0.000101	1.013445	0.171682	0.000020
1647	1.6378e+02	-7.2115	-52.894552	0.000304	3.040334	0.515047	0.000061
1648	1.6388e+02	-7.1915	-52.846107	0.000243	2.432267	0.412037	0.000049
1649	1.6398e+02	-7.1710	-52.769401	0.000385	3.851090	0.652392	0.000077
1650	1.6408e+02	-7.1514	-52.704807	0.000324	3.243023	0.549383	0.000065
1651	1.6418e+02	-7.1356	-52.652324	0.000263	2.634956	0.446374	0.000053
1652	1.6427e+02	-7.1130	-52.603879	0.000243	2.432267	0.412037	0.000049
1653	1.6437e+02	-7.0917	-52.531210	0.000365	3.648401	0.618056	0.000073
1654	1.6447e+02	-7.0720	-52.474690	0.000284	2.837645	0.480710	0.000057
1655	1.6457e+02	-7.0517	-52.393948	0.000405	4.053779	0.686729	0.000081
1656	1.6467e+02	-7.0305	-52.337428	0.000284	2.837645	0.480710	0.000057
1657	1.6477e+02	-7.0112	-52.248611	0.000446	4.459157	0.755402	0.000089
1658	1.6487e+02	-6.9911	-52.196128	0.000263	2.634956	0.446374	0.000053
1659	1.6497e+02	-6.9723	-52.135571	0.000304	3.040334	0.515047	0.000061
1660	1.6507e+02	-6.9517	-52.070977	0.000324	3.243023	0.549383	0.000065
1661	1.6517e+02	-6.9316	-52.014457	0.000284	2.837645	0.480710	0.000057
1662	1.6527e+02	-6.9128	-51.897380	0.000588	5.877980	0.995757	0.000118
1663	1.6537e+02	-6.8941	-51.873157	0.000122	1.216134	0.206019	0.000024
1664	1.6547e+02	-6.8736	-51.772229	0.000507	5.067224	0.858411	0.000101
1665	1.6557e+02	-6.8523	-51.727820	0.000223	2.229579	0.377701	0.000045
1666	1.6567e+02	-6.8329	-51.663226	0.000324	3.243023	0.549383	0.000065
1667	1.6577e+02	-6.8132	-51.590558	0.000365	3.648401	0.618056	0.000073
1668	1.6587e+02	-6.7924	-51.562298	0.000142	1.418823	0.240355	0.000028
1669	1.6597e+02	-6.7731	-51.445221	0.000588	5.877980	0.995757	0.000118
1670	1.6607e+02	-6.7529	-51.384664	0.000304	3.040334	0.515047	0.000061
1671	1.6616e+02	-6.7334	-51.279698	0.000527	5.269913	0.892747	0.000105
1672	1.6626e+02	-6.7128	-51.251438	0.000142	1.418823	0.240355	0.000028
1673	1.6636e+02	-6.6934	-51.223178	0.000142	1.418823	0.240355	0.000028
1674	1.6646e+02	-6.6740	-51.114176	0.000547	5.472602	0.927084	0.000110
1675	1.6656e+02	-6.6528	-51.053619	0.000304	3.040334	0.515047	0.000061
1676	1.6666e+02	-6.6341	-50.989024	0.000324	3.243023	0.549383	0.000065
1677	1.6676e+02	-6.6136	-50.924430	0.000324	3.243023	0.549383	0.000065
1678	1.6686e+02	-6.5936	-50.803316	0.000608	6.080669	1.030093	0.000122
1679	1.6696e+02	-6.5736	-50.783130	0.000101	1.013445	0.171682	0.000020
1680	1.6706e+02	-6.5532	-50.710462	0.000365	3.648401	0.618056	0.000073
1681	1.6716e+02	-6.5331	-50.617608	0.000466	4.661846	0.789738	0.000093
1682	1.6726e+02	-6.5136	-50.565125	0.000263	2.634956	0.446374	0.000053
1683	1.6736e+02	-6.4938	-50.480345	0.000426	4.256468	0.721065	0.000085
1684	1.6746e+02	-6.4737	-50.419788	0.000304	3.040334	0.515047	0.000061
1685	1.6756e+02	-6.4543	-50.318860	0.000507	5.067224	0.858411	0.000101
1686	1.6766e+02	-6.4345	-50.258303	0.000304	3.040334	0.515047	0.000061
1687	1.6776e+02	-6.4144	-50.161412	0.000486	4.864535	0.824075	0.000097
1688	1.6786e+02	-6.3937	-50.100855	0.000304	3.040334	0.515047	0.000061
1689	1.6796e+02	-6.3737	-50.012038	0.000446	4.459157	0.755402	0.000089
1690	1.6806e+02	-6.3548	-49.967629	0.000223	2.229579	0.377701	0.000045
1691	1.6816e+02	-6.3347	-49.931295	0.000182	1.824201	0.309028	0.000037
1692	1.6825e+02	-6.3152	-49.798069	0.000669	6.688736	1.133102	0.000134
1693	1.6835e+02	-6.2941	-49.749624	0.000243	2.432267	0.412037	0.000049
1694	1.6845e+02	-6.2750	-49.680992	0.000345	3.445712	0.583719	0.000069
1695	1.6855e+02	-6.2544	-49.600250	0.000405	4.053779	0.686729	0.000081
1696	1.6865e+02	-6.2358	-49.499321	0.000507	5.067224	0.858411	0.000101
1697	1.6875e+02	-6.2149	-49.450876	0.000243	2.432267	0.412037	0.000049
1698	1.6885e+02	-6.1951	-49.386281	0.000324	3.243023	0.549383	0.000065
1699	1.6895e+02	-6.1755	-49.325724	0.000304	3.040334	0.515047	0.000061
1700	1.6905e+02	-6.1554	-49.249019	0.000385	3.851090	0.652392	0.000077
1701	1.6915e+02	-6.1358	-49.160202	0.000446	4.459157	0.755402	0.000089
1702	1.6925e+02	-6.1148	-49.079459	0.000405	4.053779	0.686729	0.000081
1703	1.6935e+02	-6.0962	-49.014865	0.000324	3.243023	0.549383	0.000065
1704	1.6945e+02	-6.0760	-48.934122	0.000405	4.053779	0.686729	0.000081
1705	1.6955e+02	-6.0556	-48.857417	0.000385	3.851090	0.652392	0.000077
1706	1.6965e+02	-6.0353	-48.825120	0.000162	1.621512	0.274692	0.000032
1707	1.6975e+02	-6.0159	-48.687857	0.000689	6.891425	1.167439	0.000138
1708	1.6985e+02	-5.9961	-48.623263	0.000324	3.243023	0.549383	0.000065
1709	1.6995e+02	-5.9775	-48.615189	0.000041	0.405378	0.068673	0.000008
1710	1.7005e+02	-5.9569	-48.490037	0.000628	6.283358	1.064430	0.000126
1711	1.7015e+02	-5.9364	-48.437555	0.000263	2.634956	0.446374	0.000053
1712	1.7024e+02	-5.9177	-48.320478	0.000588	5.877980	0.995757	0.000118
1713	1.7034e+02	-5.8960	-48.280106	0.000203	2.026890	0.343364	0.000041
1714	1.7044e+02	-5.8771	-48.191289	0.000446	4.459157	0.755402	0.000089
1715	1.7054e+02	-5.8566	-48.146881	0.000223	2.229579	0.377701	0.000045
1716	1.7064e+02	-5.8372	-48.021730	0.000628	6.283358	1.064430	0.000126
1717	1.7074e+02	-5.8167	-47.961173	0.000304	3.040334	0.515047	0.000061
1718	1.7084e+02	-5.7967	-47.852170	0.000547	5.472602	0.927084	0.000110
1719	1.7094e+02	-5.7764	-47.799687	0.000263	2.634956	0.446374	0.000053
1720	1.7104e+02	-5.7568	-47.735093	0.000324	3.243023	0.549383	0.000065
1721	1.7114e+02	-5.7375	-47.646276	0.000446	4.459157	0.755402	0.000089
1722	1.7124e+02	-5.7170	-47.565533	0.000405	4.053779	0.686729	0.000081
1723	1.7134e+02	-5.6979	-47.452493	0.000568	5.675291	0.961420	0.000114
1724	1.7144e+02	-5.6773	-47.335417	0.000588	5.877980	0.995757	0.000118
1725	1.7154e+02	-5.6567	-47.266785	0.000345	3.445712	0.583719	0.000069
1726	1.7164e+02	-5.6369	-47.234488	0.000162	1.621512	0.274692	0.000032
1727	1.7174e+02	-5.6177	-47.157783	0.000385	3.851090	0.652392	0.000077
1728	1.7184e+02	-5.5975	-47.028594	0.000649	6.486047	1.098766	0.000130
1729	1.7194e+02	-5.5771	-46.943814	0.000426	4.256468	0.721065	0.000085
1730	1.7204e+02	-5.5579	-46.863072	0.000405	4.053779	0.686729	0.000081
1731	1.7213e+02	-5.5383	-46.794440	0.000345	3.445712	0.583719	0.000069
1732	1.7223e+02	-5.5179	-46.705623	0.000446	4.459157	0.755402	0.000089
1733	1.7233e+02	-5.4977	-46.632955	0.000365	3.648401	0.618056	0.000073
1734	1.7243e+02	-5.4786	-46.544138	0.000446	4.459157	0.755402	0.000089
1735	1.7253e+02	-5.4576	-46.459358	0.000426	4.256468	0.721065	0.000085
1736	1.7263e+02	-5.4367	-46.346318	0.000568	5.675291	0.961420	0.000114
1737	1.7273e+02	-5.4175	-46.265576	0.000405	4.053779	0.686729	0.000081
1738	1.7283e+02	-5.3994	-46.209056	0.000284	2.837645	0.480710	0.000057
1739	1.7293e+02	-5.3784	-46.104090	0.000527	5.269913	0.892747	0.000105
1740	1.7303e+02	-5.3587	-46.035459	0.000345	3.445712	0.583719	0.000069
1741	1.7313e+02	-5.3423	-45.966828	0.000345	3.445712	0.583719	0.000069
1742	1.7323e+02	-5.3177	-45.873973	0.000466	4.661846	0.789738	0.000093
1743	1.7333e+02	-5.2985	-45.777082	0.000486	4.864535	0.824075	0.000097
1744	1.7343e+02	-5.2783	-45.688265	0.000446	4.459157	0.755402	0.000089
1745	1.7353e+02	-5.2592	-45.607522	0.000405	4.053779	0.686729	0.000081
1746	1.7363e+02	-5.2399	-45.538891	0.000345	3.445712	0.583719	0.000069
1747	1.7373e+02	-5.2181	-45.442000	0.000486	4.864535	0.824075	0.000097
1748	1.7383e+02	-5.1982	-45.365294	0.000385	3.851090	0.652392	0.000077
1749	1.7393e+02	-5.1781	-45.276477	0.000446	4.459157	0.755402	0.000089
1750	1.7403e+02	-5.1598	-45.139215	0.000689	6.891425	1.167439	0.000138
1751	1.7413e+02	-5.1393	-45.102880	0.000182	1.824201	0.309028	0.000037
1752	1.7422e+02	-5.1187	-45.030212	0.000365	3.648401	0.618056	0.000073
1753	1.7432e+02	-5.0992	-44.957544	0.000365	3.648401	0.618056	0.000073
1754	1.7442e+02	-5.0789	-44.856615	0.000507	5.067224	0.858411	0.000101
1755	1.7452e+02	-5.0595	-44.783947	0.000365	3.648401	0.618056	0.000073
1756	1.7462e+02	-5.0404	-44.650721	0.000669	6.688736	1.133102	0.000134
1757	1.7472e+02	-5.0192	-44.565941	0.000426	4.256468	0.721065	0.000085
1758	1.7482e+02	-4.9997	-44.469050	0.000486	4.864535	0.824075	0.000097
1759	1.7492e+02	-4.9798	-44.372159	0.000486	4.864535	0.824075	0.000097
1760	1.7502e+02	-4.9606	-44.299490	0.000365	3.648401	0.618056	0.000073
1761	1.7512e+02	-4.9393	-44.238933	0.000304	3.040334	0.515047	0.000061
1762	1.7522e+02	-4.9206	-44.113782	0.000628	6.283358	1.064430	0.000126
1763	1.7532e+02	-4.8993	-44.029002	0.000426	4.256468	0.721065	0.000085
1764	1.7542e+02	-4.8788	-43.956334	0.000365	3.648401	0.618056	0.000073
1765	1.7552e+02	-4.8603	-43.887703	0.000345	3.445712	0.583719	0.000069
1766	1.7562e+02	-4.8412	-43.790811	0.000486	4.864535	0.824075	0.000097
1767	1.7572e+02	-4.8206	-43.697957	0.000466	4.661846	0.789738	0.000093
1768	1.7582e+02	-4.8007	-43.621252	0.000385	3.851090	0.652392	0.000077
1769	1.7592e+02	-4.7809	-43.528398	0.000466	4.661846	0.789738	0.000093
1770	1.7602e+02	-4.7618	-43.431506	0.000486	4.864535	0.824075	0.000097
1771	1.7612e+02	-4.7412	-43.334615	0.000486	4.864535	0.824075	0.000097
1772	1.7621e+02	-4.7203	-43.253872	0.000405	4.053779	0.686729	0.000081
1773	1.7631e+02	-4.6997	-43.173130	0.000405	4.053779	0.686729	0.000081
1774	1.7641e+02	-4.6812	-43.072201	0.000507	5.067224	0.858411	0.000101
1775	1.7651e+02	-4.6613	-42.983384	0.000446	4.459157	0.755402	0.000089
1776	1.7661e+02	-4.6409	-42.894567	0.000446	4.459157	0.755402	0.000089
1777	1.7671e+02	-4.6207	-42.789602	0.000527	5.269913	0.892747	0.000105
1778	1.7681e+02	-4.6014	-42.692710	0.000486	4.864535	0.824075	0.000097
1779	1.7691e+02	-4.5813	-42.656376	0.000182	1.824201	0.309028	0.000037
1780	1.7701e+02	-4.5614	-42.507002	0.000750	7.499491	1.270448	0.000150
1781	1.7711e+02	-4.5409	-42.438371	0.000345	3.445712	0.583719	0.000069
1782	1.7721e+02	-4.5219	-42.349554	0.000446	4.459157	0.755402	0.000089
1783	1.7731e+02	-4.5018	-42.240551	0.000547	5.472602	0.927084	0.000110
1784	1.7741e+02	-4.4824	-42.123474	0.000588	5.877980	0.995757	0.000118
1785	1.7751e+02	-4.4608	-42.103289	0.000101	1.013445	0.171682	0.000020
1786	1.7761e+02	-4.4416	-41.941803	0.000811	8.107558	1.373458	0.000162
1787	1.7771e+02	-4.4213	-41.897395	0.000223	2.229579	0.377701	0.000045
1788	1.7781e+02	-4.4020	-41.743984	0.000770	7.702180	1.304785	0.000154
1789	1.7791e+02	-4.3822	-41.691501	0.000263	2.634956	0.446374	0.000053
1790	1.7801e+02	-4.3616	-41.590572	0.000507	5.067224	0.858411	0.000101
1791	1.7810e+02	-4.3423	-41.497718	0.000466	4.661846	0.789738	0.000093
1792	1.7820e+02	-4.3219	-41.372567	0.000628	6.283358	1.064430	0.000126
1793	1.7830e+02	-4.3024	-41.312010	0.000304	3.040334	0.515047	0.000061
1794	1.7840e+02	-4.2828	-41.178785	0.000669	6.688736	1.133102	0.000134
1795	1.7850e+02	-4.2622	-41.106116	0.000365	3.648401	0.618056	0.000073
1796	1.7860e+02	-4.2434	-41.053633	0.000263	2.634956	0.446374	0.000053
1797	1.7870e+02	-4.2231	-40.980965	0.000365	3.648401	0.618056	0.000073
1798	1.7880e+02	-4.2024	-40.851777	0.000649	6.486047	1.098766	0.000130
1799	1.7890e+02	-4.1821	-40.754885	0.000486	4.864535	0.824075	0.000097
1800	1.7900e+02	-4.1624	-40.641845	0.000568	5.675291	0.961420	0.000114
1801	1.7910e+02	-4.1429	-40.569177	0.000365	3.648401	0.618056	0.000073
1802	1.7920e+02	-4.1231	-40.423840	0.000730	7.296802	1.236112	0.000146
1803	1.7930e+02	-4.1026	-40.355209	0.000345	3.445712	0.583719	0.000069
1804	1.7940e+02	-4.0841	-40.298689	0.000284	2.837645	0.480710	0.000057
1805	1.7950e+02	-4.0623	-40.209872	0.000446	4.459157	0.755402	0.000089
1806	1.7960e+02	-4.0437	-40.088758	0.000608	6.080669	1.030093	0.000122
1807	1.7970e+02	-4.0228	-40.012052	0.000385	3.851090	0.652392	0.000077
1808	1.7980e+02	-4.0033	-39.903050	0.000547	5.472602	0.927084	0.000110
1809	1.7990e+02	-3.9841	-39.806158	0.000486	4.864535	0.824075	0.000097
1810	1.8000e+02	-3.9639	-39.733490	0.000365	3.648401	0.618056	0.000073
1811	1.8009e+02	-3.9430	-39.640636	0.000466	4.661846	0.789738	0.000093
1812	1.8019e+02	-3.9240	-39.576042	0.000324	3.243023	0.549383	0.000065
1813	1.8029e+02	-3.9032	-39.458965	0.000588	5.877980	0.995757	0.000118
1814	1.8039e+02	-3.8837	-39.362073	0.000486	4.864535	0.824075	0.000097
1815	1.8049e+02	-3.8634	-39.265182	0.000486	4.864535	0.824075	0.000097
1816	1.8059e+02	-3.8445	-39.168291	0.000486	4.864535	0.824075	0.000097
1817	1.8069e+02	-3.8234	-39.091585	0.000385	3.851090	0.652392	0.000077
1818	1.8079e+02	-3.8034	-38.974508	0.000588	5.877980	0.995757	0.000118
1819	1.8089e+02	-3.7839	-38.873580	0.000507	5.067224	0.858411	0.000101
1820	1.8099e+02	-3.7650	-38.813023	0.000304	3.040334	0.515047	0.000061
1821	1.8109e+02	-3.7445	-38.663649	0.000750	7.499491	1.270448	0.000150
1822	1.8119e+02	-3.7240	-38.603092	0.000304	3.040334	0.515047	0.000061
1823	1.8129e+02	-3.7042	-38.473904	0.000649	6.486047	1.098766	0.000130
1824	1.8139e+02	-3.6850	-38.360864	0.000568	5.675291	0.961420	0.000114
1825	1.8149e+02	-3.6658	-38.263973	0.000486	4.864535	0.824075	0.000097
1826	1.8159e+02	-3.6458	-38.207453	0.000284	2.837645	0.480710	0.000057
1827	1.8169e+02	-3.6249	-38.126710	0.000405	4.053779	0.686729	0.000081
1828	1.8179e+02	-3.6047	-37.997522	0.000649	6.486047	1.098766	0.000130
1829	1.8189e+02	-3.5854	-37.900630	0.000486	4.864535	0.824075	0.000097
1830	1.8199e+02	-3.5654	-37.807776	0.000466	4.661846	0.789738	0.000093
1831	1.8209e+02	-3.5454	-37.682625	0.000628	6.283358	1.064430	0.000126
1832	1.8218e+02	-3.5255	-37.605919	0.000385	3.851090	0.652392	0.000077
1833	1.8228e+02	-3.5053	-37.500954	0.000527	5.269913	0.892747	0.000105
1834	1.8238e+02	-3.4854	-37.408100	0.000466	4.661846	0.789738	0.000093
1835	1.8248e+02	-3.4659	-37.286986	0.000608	6.080669	1.030093	0.000122
1836	1.8258e+02	-3.4452	-37.218354	0.000345	3.445712	0.583719	0.000069
1837	1.8268e+02	-3.4254	-37.101277	0.000588	5.877980	0.995757	0.000118
1838	1.8278e+02	-3.4065	-36.988238	0.000568	5.675291	0.961420	0.000114
1839	1.8288e+02	-3.3862	-36.899421	0.000446	4.459157	0.755402	0.000089
1840	1.8298e+02	-3.3665	-36.802529	0.000486	4.864535	0.824075	0.000097
1841	1.8308e+02	-3.3463	-36.677378	0.000628	6.283358	1.064430	0.000126
1842	1.8318e+02	-3.3258	-36.616821	0.000304	3.040334	0.515047	0.000061
1843	1.8328e+02	-3.3058	-36.463410	0.000770	7.702180	1.304785	0.000154
1844	1.8338e+02	-3.2861	-36.423039	0.000203	2.026890	0.343364	0.000041
1845	1.8348e+02	-3.2672	-36.249442	0.000872	8.715625	1.476467	0.000174
1846	1.8358e+02	-3.2463	-36.205033	0.000223	2.229579	0.377701	0.000045
1847	1.8368e+02	-3.2260	-36.112179	0.000466	4.661846	0.789738	0.000093
1848	1.8378e+02	-3.2072	-35.978954	0.000669	6.688736	1.133102	0.000134
1849	1.8388e+02	-3.1859	-35.882062	0.000486	4.864535	0.824075	0.000097
1850	1.8398e+02	-3.1664	-35.789208	0.000466	4.661846	0.789738	0.000093
1851	1.8407e+02	-3.1468	-35.680206	0.000547	5.472602	0.927084	0.000110
1852	1.8417e+02	-3.1262	-35.538906	0.000709	7.094113	1.201775	0.000142
1853	1.8427e+02	-3.1071	-35.490460	0.000243	2.432267	0.412037	0.000049
1854	1.8437e+02	-3.0880	-35.365309	0.000628	6.283358	1.064430	0.000126
1855	1.8447e+02	-3.0666	-35.264381	0.000507	5.067224	0.858411	0.000101
1856	1.8457e+02	-3.0478	-35.179601	0.000426	4.256468	0.721065	0.000085
1857	1.8467e+02	-3.0266	-35.050412	0.000649	6.486047	1.098766	0.000130
1858	1.8477e+02	-3.0073	-34.957558	0.000466	4.661846	0.789738	0.000093
1859	1.8487e+02	-2.9873	-34.848556	0.000547	5.472602	0.927084	0.000110
1860	1.8497e+02	-2.9674	-34.731479	0.000588	5.877980	0.995757	0.000118
1861	1.8507e+02	-2.9479	-34.598253	0.000669	6.688736	1.133102	0.000134
1862	1.8517e+02	-2.9265	-34.533659	0.000324	3.243023	0.549383	0.000065
1863	1.8527e+02	-2.9076	-34.424656	0.000547	5.472602	0.927084	0.000110
1864	1.8537e+02	-2.8876	-34.319691	0.000527	5.269913	0.892747	0.000105
1865	1.8547e+02	-2.8684	-34.202614	0.000588	5.877980	0.995757	0.000118
1866	1.8557e+02	-2.8482	-34.097648	0.000527	5.269913	0.892747	0.000105
1867	1.8567e+02	-2.8278	-33.992683	0.000527	5.269913	0.892747	0.000105
1868	1.8577e+02	-2.8075	-33.899829	0.000466	4.661846	0.789738	0.000093
1869	1.8587e+02	-2.7873	-33.770640	0.000649	6.486047	1.098766	0.000130
1870	1.8597e+02	-2.7682	-33.714121	0.000284	2.837645	0.480710	0.000057
1871	1.8606e+02	-2.7484	-33.564747	0.000750	7.499491	1.270448	0.000150
1872	1.8616e+02	-2.7283	-33.508227	0.000284	2.837645	0.480710	0.000057
1873	1.8626e+02	-2.7084	-33.407298	0.000507	5.067224	0.858411	0.000101
1874	1.8636e+02	-2.6888	-33.241776	0.000831	8.310247	1.407794	0.000166
1875	1.8646e+02	-2.6683	-33.156996	0.000426	4.256468	0.721065	0.000085
1876	1.8656e+02	-2.6485	-33.031845	0.000628	6.283358	1.064430	0.000126
1877	1.8666e+02	-2.6279	-32.951102	0.000405	4.053779	0.686729	0.000081
1878	1.8676e+02	-2.6087	-32.789616	0.000811	8.107558	1.373458	0.000162
1879	1.8686e+02	-2.5887	-32.729059	0.000304	3.040334	0.515047	0.000061
1880	1.8696e+02	-2.5700	-32.603908	0.000628	6.283358	1.064430	0.000126
1881	1.8706e+02	-2.5497	-32.519128	0.000426	4.256468	0.721065	0.000085
1882	1.8716e+02	-2.5316	-32.389940	0.000649	6.486047	1.098766	0.000130
1883	1.8726e+02	-2.5092	-32.284974	0.000527	5.269913	0.892747	0.000105
1884	1.8736e+02	-2.4887	-32.175972	0.000547	5.472602	0.927084	0.000110
1885	1.8746e+02	-2.4696	-32.054858	0.000608	6.080669	1.030093	0.000122
1886	1.8756e+02	-2.4506	-31.962004	0.000466	4.661846	0.789738	0.000093
1887	1.8766e+02	-2.4301	-31.840890	0.000608	6.080669	1.030093	0.000122
1888	1.8776e+02	-2.4104	-31.723813	0.000588	5.877980	0.995757	0.000118
1889	1.8786e+02	-2.3894	-31.639033	0.000426	4.256468	0.721065	0.000085
1890	1.8796e+02	-2.3699	-31.485622	0.000770	7.702180	1.304785	0.000154
1891	1.8806e+02	-2.3502	-31.360470	0.000628	6.283358	1.064430	0.000126
1892	1.8815e+02	-2.3304	-31.271653	0.000446	4.459157	0.755402	0.000089
1893	1.8825e+02	-2.3096	-31.130354	0.000709	7.094113	1.201775	0.000142
1894	1.8835e+02	-2.2900	-31.057685	0.000365	3.648401	0.618056	0.000073
1895	1.8845e+02	-2.2710	-30.908311	0.000750	7.499491	1.270448	0.000150
1896	1.8855e+02	-2.2513	-30.771049	0.000689	6.891425	1.167439	0.000138
1897	1.8865e+02	-2.2299	-30.674157	0.000486	4.864535	0.824075	0.000097
1898	1.8875e+02	-2.2091	-30.557080	0.000588	5.877980	0.995757	0.000118
1899	1.8885e+02	-2.1915	-30.460189	0.000486	4.864535	0.824075	0.000097
1900	1.8895e+02	-2.1710	-30.363298	0.000486	4.864535	0.824075	0.000097
1901	1.8905e+02	-2.1516	-30.262369	0.000507	5.067224	0.858411	0.000101
1902	1.8915e+02	-2.1298	-30.084736	0.000892	8.918314	1.510803	0.000179
1903	1.8925e+02	-2.1111	-30.003993	0.000405	4.053779	0.686729	0.000081
1904	1.8935e+02	-2.0906	-29.838470	0.000831	8.310247	1.407794	0.000166
1905	1.8945e+02	-2.0709	-29.753690	0.000426	4.256468	0.721065	0.000085
1906	1.8955e+02	-2.0518	-29.672948	0.000405	4.053779	0.686729	0.000081
1907	1.8965e+02	-2.0324	-29.559908	0.000568	5.675291	0.961420	0.000114
1908	1.8975e+02	-2.0119	-29.438794	0.000608	6.080669	1.030093	0.000122
1909	1.8985e+02	-1.9933	-29.293457	0.000730	7.296802	1.236112	0.000146
1910	1.8995e+02	-1.9720	-29.168306	0.000628	6.283358	1.064430	0.000126
1911	1.9004e+02	-1.9516	-29.083526	0.000426	4.256468	0.721065	0.000085
1912	1.9014e+02	-1.9318	-28.970486	0.000568	5.675291	0.961420	0.000114
1913	1.9024e+02	-1.9115	-28.825149	0.000730	7.296802	1.236112	0.000146
1914	1.9034e+02	-1.8921	-28.724221	0.000507	5.067224	0.858411	0.000101
1915	1.9044e+02	-1.8724	-28.627330	0.000486	4.864535	0.824075	0.000097
1916	1.9054e+02	-1.8524	-28.437584	0.000953	9.526381	1.613813	0.000191
1917	1.9064e+02	-1.8324	-28.368953	0.000345	3.445712	0.583719	0.000069
1918	1.9074e+02	-1.8118	-28.239764	0.000649	6.486047	1.098766	0.000130
1919	1.9084e+02	-1.7920	-28.146910	0.000466	4.661846	0.789738	0.000093
1920	1.9094e+02	-1.7728	-28.045982	0.000507	5.067224	0.858411	0.000101
1921	1.9104e+02	-1.7511	-27.888534	0.000790	7.904869	1.339121	0.000158
1922	1.9114e+02	-1.7325	-27.775494	0.000568	5.675291	0.961420	0.000114
1923	1.9124e+02	-1.7124	-27.694751	0.000405	4.053779	0.686729	0.000081
1924	1.9134e+02	-1.6930	-27.541340	0.000770	7.702180	1.304785	0.000154
1925	1.9144e+02	-1.6722	-27.424263	0.000588	5.877980	0.995757	0.000118
1926	1.9154e+02	-1.6531	-27.291038	0.000669	6.688736	1.133102	0.000134
1927	1.9164e+02	-1.6325	-27.145701	0.000730	7.296802	1.236112	0.000146
1928	1.9174e+02	-1.6127	-27.113404	0.000162	1.621512	0.274692	0.000032
1929	1.9184e+02	-1.5929	-26.992290	0.000608	6.080669	1.030093	0.000122
1930	1.9194e+02	-1.5735	-26.850990	0.000709	7.094113	1.201775	0.000142
1931	1.9203e+02	-1.5524	-26.701616	0.000750	7.499491	1.270448	0.000150
1932	1.9213e+02	-1.5328	-26.608762	0.000466	4.661846	0.789738	0.000093
1933	1.9223e+02	-1.5131	-26.463425	0.000730	7.296802	1.236112	0.000146
1934	1.9233e+02	-1.4935	-26.390756	0.000365	3.648401	0.618056	0.000073
1935	1.9243e+02	-1.4729	-26.192937	0.000993	9.931759	1.682485	0.000199
1936	1.9253e+02	-1.4529	-26.152565	0.000203	2.026890	0.343364	0.000041
1937	1.9263e+02	-1.4339	-25.987043	0.000831	8.310247	1.407794	0.000166
1938	1.9273e+02	-1.4130	-25.906300	0.000405	4.053779	0.686729	0.000081
1939	1.9283e+02	-1.3933	-25.769037	0.000689	6.891425	1.167439	0.000138
1940	1.9293e+02	-1.3741	-25.655998	0.000568	5.675291	0.961420	0.000114
1941	1.9303e+02	-1.3536	-25.551032	0.000527	5.269913	0.892747	0.000105
1942	1.9313e+02	-1.3342	-25.446067	0.000527	5.269913	0.892747	0.000105
1943	1.9323e+02	-1.3144	-25.320915	0.000628	6.283358	1.064430	0.000126
1944	1.9333e+02	-1.2946	-25.139244	0.000912	9.121003	1.545140	0.000183
1945	1.9343e+02	-1.2746	-25.038316	0.000507	5.067224	0.858411	0.000101
1946	1.9353e+02	-1.2537	-24.945462	0.000466	4.661846	0.789738	0.000093
1947	1.9363e+02	-1.2341	-24.804162	0.000709	7.094113	1.201775	0.000142
1948	1.9373e+02	-1.2145	-24.674974	0.000649	6.486047	1.098766	0.000130
1949	1.9383e+02	-1.1949	-24.541748	0.000669	6.688736	1.133102	0.000134
1950	1.9393e+02	-1.1752	-24.444857	0.000486	4.864535	0.824075	0.000097
1951	1.9403e+02	-1.1549	-24.295483	0.000750	7.499491	1.270448	0.000150
1952	1.9412e+02	-1.1349	-24.214740	0.000405	4.053779	0.686729	0.000081
1953	1.9422e+02	-1.1143	-24.061329	0.000770	7.702180	1.304785	0.000154
1954	1.9432e+02	-1.0954	-23.952326	0.000547	5.472602	0.927084	0.000110
1955	1.9442e+02	-1.0750	-23.827175	0.000628	6.283358	1.064430	0.000126
1956	1.9452e+02	-1.0550	-23.742395	0.000426	4.256468	0.721065	0.000085
1957	1.9462e+02	-1.0353	-23.597058	0.000730	7.296802	1.236112	0.000146
1958	1.9472e+02	-1.0158	-23.455759	0.000709	7.094113	1.201775	0.000142
1959	1.9482e+02	-0.9950	-23.322533	0.000669	6.688736	1.133102	0.000134
1960	1.9492e+02	-0.9762	-23.229679	0.000466	4.661846	0.789738	0.000093
1961	1.9502e+02	-0.9550	-23.116639	0.000568	5.675291	0.961420	0.000114
1962	1.9512e+02	-0.9347	-22.934968	0.000912	9.121003	1.545140	0.000183
1963	1.9522e+02	-0.9158	-22.858263	0.000385	3.851090	0.652392	0.000077
1964	1.9532e+02	-0.8957	-22.749260	0.000547	5.472602	0.927084	0.000110
1965	1.9542e+02	-0.8762	-22.624109	0.000628	6.283358	1.064430	0.000126
1966	1.9552e+02	-0.8569	-22.450512	0.000872	8.715625	1.476467	0.000174
1967	1.9562e+02	-0.8354	-22.365732	0.000426	4.256468	0.721065	0.000085
1968	1.9572e+02	-0.8160	-22.240581	0.000628	6.283358	1.064430	0.000126
1969	1.9582e+02	-0.7965	-22.099281	0.000709	7.094113	1.201775	0.000142
1970	1.9592e+02	-0.7767	-22.006427	0.000466	4.661846	0.789738	0.000093
1971	1.9601e+02	-0.7562	-21.873201	0.000669	6.688736	1.133102	0.000134
1972	1.9611e+02	-0.7369	-21.764199	0.000547	5.472602	0.927084	0.000110
1973	1.9621e+02	-0.7162	-21.671345	0.000466	4.661846	0.789738	0.000093
1974	1.9631e+02	-0.6968	-21.538119	0.000669	6.688736	1.133102	0.000134
1975	1.9641e+02	-0.6768	-21.396819	0.000709	7.094113	1.201775	0.000142
1976	1.9651e+02	-0.6561	-21.360485	0.000182	1.824201	0.309028	0.000037
1977	1.9661e+02	-0.6378	-21.207074	0.000770	7.702180	1.304785	0.000154
1978	1.9671e+02	-0.6171	-21.073849	0.000669	6.688736	1.133102	0.000134
1979	1.9681e+02	-0.5969	-20.968883	0.000527	5.269913	0.892747	0.000105
1980	1.9691e+02	-0.5783	-20.839695	0.000649	6.486047	1.098766	0.000130
1981	1.9701e+02	-0.5574	-20.714543	0.000628	6.283358	1.064430	0.000126
1982	1.9711e+02	-0.5370	-20.605541	0.000547	5.472602	0.927084	0.000110
1983	1.9721e+02	-0.5170	-20.452130	0.000770	7.702180	1.304785	0.000154
1984	1.9731e+02	-0.4971	-20.318904	0.000669	6.688736	1.133102	0.000134
1985	1.9741e+02	-0.4768	-20.254310	0.000324	3.243023	0.549383	0.000065
1986	1.9751e+02	-0.4606	-20.141270	0.000568	5.675291	0.961420	0.000114
1987	1.9761e+02	-0.4368	-19.987859	0.000770	7.702180	1.304785	0.000154
1988	1.9771e+02	-0.4174	-19.886931	0.000507	5.067224	0.858411	0.000101
1989	1.9781e+02	-0.3971	-19.781965	0.000527	5.269913	0.892747	0.000105
1990	1.9791e+02	-0.3784	-19.596257	0.000932	9.323692	1.579476	0.000187
1991	1.9800e+02	-0.3579	-19.495328	0.000507	5.067224	0.858411	0.000101
1992	1.9810e+02	-0.3383	-19.394400	0.000507	5.067224	0.858411	0.000101
1993	1.9820e+02	-0.3186	-19.293472	0.000507	5.067224	0.858411	0.000101
1994	1.9830e+02	-0.2979	-19.148135	0.000730	7.296802	1.236112	0.000146
1995	1.9840e+02	-0.2778	-19.043169	0.000527	5.269913	0.892747	0.000105
1996	1.9850e+02	-0.2587	-18.909944	0.000669	6.688736	1.133102	0.000134
1997	1.9860e+02	-0.2379	-18.788830	0.000608	6.080669	1.030093	0.000122
1998	1.9870e+02	-0.2170	-18.691938	0.000486	4.864535	0.824075	0.000097
1999	1.9880e+02	-0.1987	-18.494119	0.000993	9.931759	1.682485	0.000199
2000	1.9890e+02	-0.1788	-18.417413	0.000385	3.851090	0.652392	0.000077
2001	1.9900e+02	-0.1581	-18.255928	0.000811	8.107558	1.373458	0.000162
2002	1.9910e+02	-0.1389	-18.187296	0.000345	3.445712	0.583719	0.000069
2003	1.9920e+02	-0.1194	-18.041960	0.000730	7.296802	1.236112	0.000146
2004	1.9930e+02	-0.0989	-17.908734	0.000669	6.688736	1.133102	0.000134
2005	1.9940e+02	-0.0791	-17.779546	0.000649	6.486047	1.098766	0.000130
2006	1.9950e+02	-0.0598	-17.670543	0.000547	5.472602	0.927084	0.000110
2007	1.9960e+02	-0.0391	-17.569615	0.000507	5.067224	0.858411	0.000101
2008	1.9970e+02	-0.0201	-17.424278	0.000730	7.296802	1.236112	0.000146
2009	1.9980e+02	-0.0002	-17.315275	0.000730	7.296802	1.236112	0.000110

PMax (uC/cm2):	5.06e+01
Pr (uC/cm2):	4.71e+00
-Pr (uC/cm2):	-2.39e+01
PLoss (uC/cm2):	-2.39e+01
-Vc:	-7.68e-01
C (Max-Eff) (nF):	5.06e-01
K (Eff):	8.58e+02
Vert. (+/-Pr) Shift (uC/cm2):	-9.59e+00
Offset (uC/cm2):	-6.58e+00

A (Loop Area - uC/cm2·Volts):	-7.11e-02



Hysteresis Version: 5.48.1 - Radiant Technologies, Inc., 1999 - 9/12/24

