»»»»»»»»»»»»»»»»»»»»»»»»»»»»»»»»»»»» Hysteresis ««««««««««««««««««««««««««««««««««««
»»»  Executed Version:	5.48.1
»»»  Vision Version:	5.48.4 (R)
»»»  Vision Compiled:	9/18/24
»»»  Driver Version:	5.47.0
»»»  Windows Version:	Windows 8 or 8.1
»»»  Processor Information:	x86 (AMD or Intel) - 32 Processors
»»»  Tester Name:	PMF21124-494 (100V)
»»»  Tester S/N:	PMF21124-494
»»»  Internal Amp Type:	100V RevK 270k
»»»  Internal Amp S/N:	iAB2-596/K     
»»»  Execution Count:	1
»»»»»»»»»»»»»»»»»»»»»»»»»»»»»»»»»»»»»»»»»»««««««««««««««««««««««««««««««««««««««««««

Stored:	7/3/2025 - 14:2:43
Configured:	07/03/25 12:01:19 PM
Executed:	07/03/25 02:02:13 PM

»»»»»»»»»»»»»»»»»»»»»»»»»»»»»»»»»»» Sample Info ««««««««««««««««««««««««««««««««««««
Sample Name:	
Lot Name:	
Wafer Name:	
Die Row/Column:	0/0
Capacitor Number:	0
Sample Area (cm2):	1.00e-04
Sample Thickness (microns):	1.50e-01

Amplifier:	Internal

»»»»»»»»»»»»»»»»»»»»»»»»»»»»»»»»»»» Tester Info «««««««««««««««««««««««««««««««««««
Tester Name:	PMF21124-494 (100V)
Tester Serial Number:	PMF21124-494
Return Signal Amp. Level:	0.19 [Index: 3]

»»»»»»»»»»»»»»»»»»»»»»»»»»»»»»»» Hysteresis Info ««««««««««««««««««««««««««««««««««
Task Name:	Hyst-410
Volts:	10.00
Field:	666.67 (kV/cm)
DCBias:	0.00
DCField:	0.00 (kV/cm)
Hysteresis Period (ms):	2.00e+02
Preset:	Enabled
Preset Delay (ms):	1.00e+03
Profile:	Standard Bipolar

»»»»»»»»»»»»»»»»»»»»»»»»»»»»»»»»»»»»»» Data «««««««««««««««««««««««««««««««««««««««
Points:	2009

Valid Data

Point	Time (ms)	Drive Voltage	Measured Polarization (uC/cm2)	Capacitance (uF)	Normalized Capacitance (uF/cm2)	Dielectric Constant	Instantaneous Current (mA)
   1	0.0000e+00	0.0000	11.495744	0.000669	6.688723	1.133100	0.000134
   2	9.9500e-02	0.0185	11.628969	0.000669	6.688723	1.133100	0.000134
   3	1.9900e-01	0.0397	11.721824	0.000466	4.661837	0.789737	0.000093
   4	2.9850e-01	0.0588	11.859086	0.000689	6.891411	1.167437	0.000138
   5	3.9800e-01	0.0784	11.968089	0.000547	5.472591	0.927082	0.000110
   6	4.9750e-01	0.0987	12.069017	0.000507	5.067214	0.858409	0.000101
   7	5.9700e-01	0.1183	12.210317	0.000709	7.094100	1.201773	0.000142
   8	6.9650e-01	0.1379	12.323357	0.000568	5.675280	0.961418	0.000114
   9	7.9600e-01	0.1591	12.444471	0.000608	6.080657	1.030091	0.000122
  10	8.9550e-01	0.1782	12.549436	0.000527	5.269903	0.892746	0.000105
  11	9.9500e-01	0.1984	12.626142	0.000385	3.851083	0.652391	0.000077
  12	1.0945e+00	0.2177	12.787627	0.000811	8.107543	1.373455	0.000162
  13	1.1940e+00	0.2383	12.900667	0.000568	5.675280	0.961418	0.000114
  14	1.2935e+00	0.2583	13.001596	0.000507	5.067214	0.858409	0.000101
  15	1.3930e+00	0.2782	13.090413	0.000446	4.459149	0.755400	0.000089
  16	1.4925e+00	0.2969	13.255935	0.000831	8.310231	1.407791	0.000166
  17	1.5920e+00	0.3187	13.308418	0.000263	2.634951	0.446373	0.000053
  18	1.6915e+00	0.3380	13.461829	0.000770	7.702166	1.304782	0.000154
  19	1.7910e+00	0.3583	13.582943	0.000608	6.080657	1.030091	0.000122
  20	1.8905e+00	0.3772	13.695983	0.000568	5.675280	0.961418	0.000114
  21	1.9900e+00	0.3986	13.809023	0.000568	5.675280	0.961418	0.000114
  22	2.0895e+00	0.4177	13.922063	0.000568	5.675280	0.961418	0.000114
  23	2.1890e+00	0.4372	14.035102	0.000568	5.675280	0.961418	0.000114
  24	2.2885e+00	0.4579	14.144105	0.000547	5.472591	0.927082	0.000110
  25	2.3880e+00	0.4780	14.265219	0.000608	6.080657	1.030091	0.000122
  26	2.4875e+00	0.4960	14.406519	0.000709	7.094100	1.201773	0.000142
  27	2.5870e+00	0.5167	14.515522	0.000547	5.472591	0.927082	0.000110
  28	2.6865e+00	0.5374	14.624524	0.000547	5.472591	0.927082	0.000110
  29	2.7860e+00	0.5577	14.757750	0.000669	6.688723	1.133100	0.000134
  30	2.8855e+00	0.5769	14.866752	0.000547	5.472591	0.927082	0.000110
  31	2.9850e+00	0.5959	14.991904	0.000628	6.283346	1.064428	0.000126
  32	3.0845e+00	0.6167	15.076683	0.000426	4.256460	0.721064	0.000085
  33	3.1840e+00	0.6371	15.242206	0.000831	8.310231	1.407791	0.000166
  34	3.2835e+00	0.6570	15.367357	0.000628	6.283346	1.064428	0.000126
  35	3.3830e+00	0.6764	15.488471	0.000608	6.080657	1.030091	0.000122
  36	3.4825e+00	0.6966	15.581325	0.000466	4.661837	0.789737	0.000093
  37	3.5820e+00	0.7166	15.738774	0.000790	7.904854	1.339119	0.000158
  38	3.6815e+00	0.7362	15.803368	0.000324	3.243017	0.549382	0.000065
  39	3.7810e+00	0.7561	15.989076	0.000932	9.323674	1.579473	0.000187
  40	3.8805e+00	0.7755	16.085967	0.000486	4.864526	0.824073	0.000097
  41	3.9800e+00	0.7967	16.194970	0.000547	5.472591	0.927082	0.000110
  42	4.0795e+00	0.8157	16.291861	0.000486	4.864526	0.824073	0.000097
  43	4.1790e+00	0.8356	16.469495	0.000892	8.918297	1.510800	0.000179
  44	4.2785e+00	0.8565	16.582535	0.000568	5.675280	0.961418	0.000114
  45	4.3780e+00	0.8759	16.695575	0.000568	5.675280	0.961418	0.000114
  46	4.4775e+00	0.8961	16.832837	0.000689	6.891411	1.167437	0.000138
  47	4.5770e+00	0.9169	16.957989	0.000628	6.283346	1.064428	0.000126
  48	4.6765e+00	0.9356	17.083140	0.000628	6.283346	1.064428	0.000126
  49	4.7760e+00	0.9559	17.188105	0.000527	5.269903	0.892746	0.000105
  50	4.8755e+00	0.9760	17.325368	0.000689	6.891411	1.167437	0.000138
  51	4.9750e+00	0.9953	17.446482	0.000608	6.080657	1.030091	0.000122
  52	5.0745e+00	1.0146	17.551448	0.000527	5.269903	0.892746	0.000105
  53	5.1740e+00	1.0351	17.688710	0.000689	6.891411	1.167437	0.000138
  54	5.2735e+00	1.0555	17.801750	0.000568	5.675280	0.961418	0.000114
  55	5.3730e+00	1.0749	17.902678	0.000507	5.067214	0.858409	0.000101
  56	5.4725e+00	1.0946	18.052052	0.000750	7.499477	1.270446	0.000150
  57	5.5720e+00	1.1154	18.173167	0.000608	6.080657	1.030091	0.000122
  58	5.6715e+00	1.1353	18.290243	0.000588	5.877969	0.995755	0.000118
  59	5.7710e+00	1.1556	18.427506	0.000689	6.891411	1.167437	0.000138
  60	5.8705e+00	1.1753	18.548620	0.000608	6.080657	1.030091	0.000122
  61	5.9700e+00	1.1954	18.665697	0.000588	5.877969	0.995755	0.000118
  62	6.0695e+00	1.2148	18.790848	0.000628	6.283346	1.064428	0.000126
  63	6.1690e+00	1.2341	18.940222	0.000750	7.499477	1.270446	0.000150
  64	6.2685e+00	1.2543	19.025002	0.000426	4.256460	0.721064	0.000085
  65	6.3680e+00	1.2737	19.142079	0.000588	5.877969	0.995755	0.000118
  66	6.4675e+00	1.2930	19.295490	0.000770	7.702166	1.304782	0.000154
  67	6.5670e+00	1.3134	19.412567	0.000588	5.877969	0.995755	0.000118
  68	6.6665e+00	1.3341	19.525607	0.000568	5.675280	0.961418	0.000114
  69	6.7660e+00	1.3532	19.650758	0.000628	6.283346	1.064428	0.000126
  70	6.8655e+00	1.3735	19.763798	0.000568	5.675280	0.961418	0.000114
  71	6.9650e+00	1.3933	19.913172	0.000750	7.499477	1.270446	0.000150
  72	7.0645e+00	1.4129	20.014100	0.000507	5.067214	0.858409	0.000101
  73	7.1640e+00	1.4338	20.155400	0.000709	7.094100	1.201773	0.000142
  74	7.2635e+00	1.4531	20.284589	0.000649	6.486034	1.098764	0.000130
  75	7.3630e+00	1.4725	20.393591	0.000547	5.472591	0.927082	0.000110
  76	7.4625e+00	1.4929	20.534891	0.000709	7.094100	1.201773	0.000142
  77	7.5620e+00	1.5130	20.647931	0.000568	5.675280	0.961418	0.000114
  78	7.6615e+00	1.5327	20.748859	0.000507	5.067214	0.858409	0.000101
  79	7.7610e+00	1.5531	20.898233	0.000750	7.499477	1.270446	0.000150
  80	7.8605e+00	1.5727	21.003199	0.000527	5.269903	0.892746	0.000105
  81	7.9600e+00	1.5930	21.136424	0.000669	6.688723	1.133100	0.000134
  82	8.0595e+00	1.6125	21.277724	0.000709	7.094100	1.201773	0.000142
  83	8.1590e+00	1.6328	21.374615	0.000486	4.864526	0.824073	0.000097
  84	8.2585e+00	1.6532	21.495729	0.000608	6.080657	1.030091	0.000122
  85	8.3580e+00	1.6727	21.604732	0.000547	5.472591	0.927082	0.000110
  86	8.4575e+00	1.6910	21.790440	0.000932	9.323674	1.579473	0.000187
  87	8.5570e+00	1.7123	21.903480	0.000568	5.675280	0.961418	0.000114
  88	8.6565e+00	1.7315	21.976148	0.000365	3.648394	0.618055	0.000073
  89	8.7560e+00	1.7527	22.153782	0.000892	8.918297	1.510800	0.000179
  90	8.8555e+00	1.7722	22.250674	0.000486	4.864526	0.824073	0.000097
  91	8.9550e+00	1.7909	22.367751	0.000588	5.877969	0.995755	0.000118
  92	9.0545e+00	1.8119	22.513087	0.000730	7.296789	1.236109	0.000146
  93	9.1540e+00	1.8319	22.626127	0.000568	5.675280	0.961418	0.000114
  94	9.2535e+00	1.8515	22.723019	0.000486	4.864526	0.824073	0.000097
  95	9.3530e+00	1.8713	22.864318	0.000709	7.094100	1.201773	0.000142
  96	9.4525e+00	1.8909	22.985432	0.000608	6.080657	1.030091	0.000122
  97	9.5520e+00	1.9129	23.114621	0.000649	6.486034	1.098764	0.000130
  98	9.6515e+00	1.9311	23.255920	0.000709	7.094100	1.201773	0.000142
  99	9.7510e+00	1.9504	23.381072	0.000628	6.283346	1.064428	0.000126
 100	9.8505e+00	1.9716	23.502186	0.000608	6.080657	1.030091	0.000122
 101	9.9500e+00	1.9912	23.631374	0.000649	6.486034	1.098764	0.000130
 102	1.0050e+01	2.0109	23.748451	0.000588	5.877969	0.995755	0.000118
 103	1.0149e+01	2.0317	23.889751	0.000709	7.094100	1.201773	0.000142
 104	1.0248e+01	2.0512	23.990679	0.000507	5.067214	0.858409	0.000101
 105	1.0348e+01	2.0708	24.123905	0.000669	6.688723	1.133100	0.000134
 106	1.0447e+01	2.0908	24.257130	0.000669	6.688723	1.133100	0.000134
 107	1.0547e+01	2.1113	24.349984	0.000466	4.661837	0.789737	0.000093
 108	1.0646e+01	2.1301	24.491284	0.000709	7.094100	1.201773	0.000142
 109	1.0746e+01	2.1505	24.620472	0.000649	6.486034	1.098764	0.000130
 110	1.0845e+01	2.1706	24.765809	0.000730	7.296789	1.236109	0.000146
 111	1.0945e+01	2.1905	24.890960	0.000628	6.283346	1.064428	0.000126
 112	1.1044e+01	2.2108	24.987852	0.000486	4.864526	0.824073	0.000097
 113	1.1144e+01	2.2298	25.133189	0.000730	7.296789	1.236109	0.000146
 114	1.1243e+01	2.2506	25.213931	0.000405	4.053771	0.686727	0.000081
 115	1.1343e+01	2.2701	25.379454	0.000831	8.310231	1.407791	0.000166
 116	1.1443e+01	2.2898	25.460197	0.000405	4.053771	0.686727	0.000081
 117	1.1542e+01	2.3092	25.605533	0.000730	7.296789	1.236109	0.000146
 118	1.1642e+01	2.3299	25.750870	0.000730	7.296789	1.236109	0.000146
 119	1.1741e+01	2.3499	25.839687	0.000446	4.459149	0.755400	0.000089
 120	1.1841e+01	2.3695	26.009247	0.000851	8.512920	1.442128	0.000170
 121	1.1940e+01	2.3898	26.085953	0.000385	3.851083	0.652391	0.000077
 122	1.2040e+01	2.4095	26.239364	0.000770	7.702166	1.304782	0.000154
 123	1.2139e+01	2.4297	26.364515	0.000628	6.283346	1.064428	0.000126
 124	1.2239e+01	2.4496	26.485629	0.000608	6.080657	1.030091	0.000122
 125	1.2338e+01	2.4697	26.554260	0.000345	3.445706	0.583718	0.000069
 126	1.2438e+01	2.4909	26.719783	0.000831	8.310231	1.407791	0.000166
 127	1.2537e+01	2.5094	26.873194	0.000770	7.702166	1.304782	0.000154
 128	1.2636e+01	2.5286	26.974122	0.000507	5.067214	0.858409	0.000101
 129	1.2736e+01	2.5493	27.075051	0.000507	5.067214	0.858409	0.000101
 130	1.2835e+01	2.5686	27.188091	0.000568	5.675280	0.961418	0.000114
 131	1.2935e+01	2.5882	27.309205	0.000608	6.080657	1.030091	0.000122
 132	1.3034e+01	2.6092	27.446467	0.000689	6.891411	1.167437	0.000138
 133	1.3134e+01	2.6289	27.563544	0.000588	5.877969	0.995755	0.000118
 134	1.3233e+01	2.6487	27.704844	0.000709	7.094100	1.201773	0.000142
 135	1.3333e+01	2.6690	27.825958	0.000608	6.080657	1.030091	0.000122
 136	1.3432e+01	2.6878	27.906701	0.000405	4.053771	0.686727	0.000081
 137	1.3532e+01	2.7087	28.064149	0.000790	7.904854	1.339119	0.000158
 138	1.3632e+01	2.7287	28.189300	0.000628	6.283346	1.064428	0.000126
 139	1.3731e+01	2.7483	28.290229	0.000507	5.067214	0.858409	0.000101
 140	1.3831e+01	2.7682	28.475937	0.000932	9.323674	1.579473	0.000187
 141	1.3930e+01	2.7874	28.548605	0.000365	3.648394	0.618055	0.000073
 142	1.4030e+01	2.8075	28.669719	0.000608	6.080657	1.030091	0.000122
 143	1.4129e+01	2.8283	28.778722	0.000547	5.472591	0.927082	0.000110
 144	1.4229e+01	2.8484	28.911948	0.000669	6.688723	1.133100	0.000134
 145	1.4328e+01	2.8681	29.029025	0.000588	5.877969	0.995755	0.000118
 146	1.4428e+01	2.8878	29.142064	0.000568	5.675280	0.961418	0.000114
 147	1.4527e+01	2.9084	29.259141	0.000588	5.877969	0.995755	0.000118
 148	1.4627e+01	2.9270	29.376218	0.000588	5.877969	0.995755	0.000118
 149	1.4726e+01	2.9476	29.525592	0.000750	7.499477	1.270446	0.000150
 150	1.4825e+01	2.9675	29.630558	0.000527	5.269903	0.892746	0.000105
 151	1.4925e+01	2.9874	29.759746	0.000649	6.486034	1.098764	0.000130
 152	1.5024e+01	3.0070	29.880860	0.000608	6.080657	1.030091	0.000122
 153	1.5124e+01	3.0276	30.001974	0.000608	6.080657	1.030091	0.000122
 154	1.5223e+01	3.0474	30.119051	0.000588	5.877969	0.995755	0.000118
 155	1.5323e+01	3.0672	30.252277	0.000669	6.688723	1.133100	0.000134
 156	1.5422e+01	3.0877	30.381465	0.000649	6.486034	1.098764	0.000130
 157	1.5522e+01	3.1075	30.490468	0.000547	5.472591	0.927082	0.000110
 158	1.5621e+01	3.1265	30.583322	0.000466	4.661837	0.789737	0.000093
 159	1.5721e+01	3.1470	30.720584	0.000689	6.891411	1.167437	0.000138
 160	1.5820e+01	3.1675	30.825550	0.000527	5.269903	0.892746	0.000105
 161	1.5920e+01	3.1870	30.970887	0.000730	7.296789	1.236109	0.000146
 162	1.6020e+01	3.2063	31.079889	0.000547	5.472591	0.927082	0.000110
 163	1.6119e+01	3.2252	31.205041	0.000628	6.283346	1.064428	0.000126
 164	1.6218e+01	3.2464	31.310006	0.000527	5.269903	0.892746	0.000105
 165	1.6318e+01	3.2661	31.443232	0.000669	6.688723	1.133100	0.000134
 166	1.6418e+01	3.2864	31.560309	0.000588	5.877969	0.995755	0.000118
 167	1.6517e+01	3.3066	31.657200	0.000486	4.864526	0.824073	0.000097
 168	1.6616e+01	3.3256	31.818685	0.000811	8.107543	1.373455	0.000162
 169	1.6716e+01	3.3469	31.895391	0.000385	3.851083	0.652391	0.000077
 170	1.6816e+01	3.3665	32.036691	0.000709	7.094100	1.201773	0.000142
 171	1.6915e+01	3.3858	32.177990	0.000709	7.094100	1.201773	0.000142
 172	1.7015e+01	3.4060	32.274882	0.000486	4.864526	0.824073	0.000097
 173	1.7114e+01	3.4252	32.371773	0.000486	4.864526	0.824073	0.000097
 174	1.7213e+01	3.4463	32.509036	0.000689	6.891411	1.167437	0.000138
 175	1.7313e+01	3.4653	32.605927	0.000486	4.864526	0.824073	0.000097
 176	1.7413e+01	3.4853	32.723004	0.000588	5.877969	0.995755	0.000118
 177	1.7512e+01	3.5061	32.852192	0.000649	6.486034	1.098764	0.000130
 178	1.7611e+01	3.5253	32.977343	0.000628	6.283346	1.064428	0.000126
 179	1.7711e+01	3.5458	33.078272	0.000507	5.067214	0.858409	0.000101
 180	1.7811e+01	3.5659	33.175163	0.000486	4.864526	0.824073	0.000097
 181	1.7910e+01	3.5842	33.324537	0.000750	7.499477	1.270446	0.000150
 182	1.8009e+01	3.6059	33.425465	0.000507	5.067214	0.858409	0.000101
 183	1.8109e+01	3.6247	33.566765	0.000709	7.094100	1.201773	0.000142
 184	1.8209e+01	3.6448	33.663656	0.000486	4.864526	0.824073	0.000097
 185	1.8308e+01	3.6640	33.764585	0.000507	5.067214	0.858409	0.000101
 186	1.8407e+01	3.6855	33.885699	0.000608	6.080657	1.030091	0.000122
 187	1.8507e+01	3.7039	33.978553	0.000466	4.661837	0.789737	0.000093
 188	1.8607e+01	3.7237	34.123890	0.000730	7.296789	1.236109	0.000146
 189	1.8706e+01	3.7447	34.228855	0.000527	5.269903	0.892746	0.000105
 190	1.8805e+01	3.7643	34.333821	0.000527	5.269903	0.892746	0.000105
 191	1.8905e+01	3.7833	34.442824	0.000547	5.472591	0.927082	0.000110
 192	1.9005e+01	3.8039	34.551826	0.000547	5.472591	0.927082	0.000110
 193	1.9104e+01	3.8245	34.709275	0.000790	7.904854	1.339119	0.000158
 194	1.9203e+01	3.8433	34.798091	0.000446	4.459149	0.755400	0.000089
 195	1.9303e+01	3.8641	34.870760	0.000365	3.648394	0.618055	0.000073
 196	1.9402e+01	3.8840	35.024171	0.000770	7.702166	1.304782	0.000154
 197	1.9502e+01	3.9031	35.169508	0.000730	7.296789	1.236109	0.000146
 198	1.9602e+01	3.9237	35.274474	0.000527	5.269903	0.892746	0.000105
 199	1.9701e+01	3.9436	35.359253	0.000426	4.256460	0.721064	0.000085
 200	1.9800e+01	3.9629	35.504590	0.000730	7.296789	1.236109	0.000146
 201	1.9900e+01	3.9841	35.597444	0.000466	4.661837	0.789737	0.000093
 202	2.0000e+01	4.0037	35.702410	0.000527	5.269903	0.892746	0.000105
 203	2.0099e+01	4.0240	35.823524	0.000608	6.080657	1.030091	0.000122
 204	2.0198e+01	4.0435	35.936564	0.000568	5.675280	0.961418	0.000114
 205	2.0298e+01	4.0627	36.057678	0.000608	6.080657	1.030091	0.000122
 206	2.0398e+01	4.0823	36.134383	0.000385	3.851083	0.652391	0.000077
 207	2.0497e+01	4.1019	36.275683	0.000709	7.094100	1.201773	0.000142
 208	2.0596e+01	4.1231	36.404872	0.000649	6.486034	1.098764	0.000130
 209	2.0696e+01	4.1436	36.505800	0.000507	5.067214	0.858409	0.000101
 210	2.0796e+01	4.1627	36.602691	0.000486	4.864526	0.824073	0.000097
 211	2.0895e+01	4.1817	36.756102	0.000770	7.702166	1.304782	0.000154
 212	2.0994e+01	4.2030	36.828771	0.000365	3.648394	0.618055	0.000073
 213	2.1094e+01	4.2225	36.986219	0.000790	7.904854	1.339119	0.000158
 214	2.1194e+01	4.2423	37.054850	0.000345	3.445706	0.583718	0.000069
 215	2.1293e+01	4.2624	37.143667	0.000446	4.459149	0.755400	0.000089
 216	2.1392e+01	4.2830	37.280930	0.000689	6.891411	1.167437	0.000138
 217	2.1492e+01	4.3018	37.414155	0.000669	6.688723	1.133100	0.000134
 218	2.1591e+01	4.3216	37.511047	0.000486	4.864526	0.824073	0.000097
 219	2.1691e+01	4.3413	37.632161	0.000608	6.080657	1.030091	0.000122
 220	2.1791e+01	4.3609	37.720978	0.000446	4.459149	0.755400	0.000089
 221	2.1890e+01	4.3821	37.842092	0.000608	6.080657	1.030091	0.000122
 222	2.1989e+01	4.4012	37.934946	0.000466	4.661837	0.789737	0.000093
 223	2.2089e+01	4.4225	38.068171	0.000669	6.688723	1.133100	0.000134
 224	2.2189e+01	4.4415	38.156988	0.000446	4.459149	0.755400	0.000089
 225	2.2288e+01	4.4619	38.282140	0.000628	6.283346	1.064428	0.000126
 226	2.2387e+01	4.4813	38.415365	0.000669	6.688723	1.133100	0.000134
 227	2.2487e+01	4.5010	38.512256	0.000486	4.864526	0.824073	0.000097
 228	2.2587e+01	4.5220	38.645482	0.000669	6.688723	1.133100	0.000134
 229	2.2686e+01	4.5412	38.710076	0.000324	3.243017	0.549382	0.000065
 230	2.2785e+01	4.5621	38.806967	0.000486	4.864526	0.824073	0.000097
 231	2.2885e+01	4.5811	38.940193	0.000669	6.688723	1.133100	0.000134
 232	2.2985e+01	4.6009	39.053233	0.000568	5.675280	0.961418	0.000114
 233	2.3084e+01	4.6209	39.146087	0.000466	4.661837	0.789737	0.000093
 234	2.3183e+01	4.6391	39.230867	0.000426	4.256460	0.721064	0.000085
 235	2.3283e+01	4.6609	39.339869	0.000547	5.472591	0.927082	0.000110
 236	2.3383e+01	4.6807	39.456946	0.000588	5.877969	0.995755	0.000118
 237	2.3482e+01	4.7009	39.618432	0.000811	8.107543	1.373455	0.000162
 238	2.3581e+01	4.7208	39.723397	0.000527	5.269903	0.892746	0.000105
 239	2.3681e+01	4.7404	39.804140	0.000405	4.053771	0.686727	0.000081
 240	2.3780e+01	4.7605	39.892957	0.000446	4.459149	0.755400	0.000089
 241	2.3880e+01	4.7802	40.005997	0.000568	5.675280	0.961418	0.000114
 242	2.3980e+01	4.7997	40.110962	0.000527	5.269903	0.892746	0.000105
 243	2.4079e+01	4.8203	40.236113	0.000628	6.283346	1.064428	0.000126
 244	2.4178e+01	4.8403	40.353190	0.000588	5.877969	0.995755	0.000118
 245	2.4278e+01	4.8602	40.470267	0.000588	5.877969	0.995755	0.000118
 246	2.4378e+01	4.8797	40.567158	0.000486	4.864526	0.824073	0.000097
 247	2.4477e+01	4.9000	40.708458	0.000709	7.094100	1.201773	0.000142
 248	2.4576e+01	4.9200	40.785164	0.000385	3.851083	0.652391	0.000077
 249	2.4676e+01	4.9401	40.873981	0.000446	4.459149	0.755400	0.000089
 250	2.4776e+01	4.9596	40.995095	0.000608	6.080657	1.030091	0.000122
 251	2.4875e+01	4.9793	41.096023	0.000507	5.067214	0.858409	0.000101
 252	2.4974e+01	5.0005	41.184840	0.000446	4.459149	0.755400	0.000089
 253	2.5074e+01	5.0205	41.293843	0.000547	5.472591	0.927082	0.000110
 254	2.5174e+01	5.0388	41.394771	0.000507	5.067214	0.858409	0.000101
 255	2.5273e+01	5.0587	41.491663	0.000486	4.864526	0.824073	0.000097
 256	2.5372e+01	5.0790	41.600665	0.000547	5.472591	0.927082	0.000110
 257	2.5472e+01	5.0997	41.701594	0.000507	5.067214	0.858409	0.000101
 258	2.5572e+01	5.1186	41.846930	0.000730	7.296789	1.236109	0.000146
 259	2.5671e+01	5.1391	41.927673	0.000405	4.053771	0.686727	0.000081
 260	2.5770e+01	5.1577	42.073010	0.000730	7.296789	1.236109	0.000146
 261	2.5870e+01	5.1778	42.153753	0.000405	4.053771	0.686727	0.000081
 262	2.5970e+01	5.1977	42.250644	0.000486	4.864526	0.824073	0.000097
 263	2.6069e+01	5.2183	42.335424	0.000426	4.256460	0.721064	0.000085
 264	2.6169e+01	5.2384	42.472687	0.000689	6.891411	1.167437	0.000138
 265	2.6268e+01	5.2583	42.589763	0.000588	5.877969	0.995755	0.000118
 266	2.6367e+01	5.2775	42.670506	0.000405	4.053771	0.686727	0.000081
 267	2.6467e+01	5.2979	42.767397	0.000486	4.864526	0.824073	0.000097
 268	2.6567e+01	5.3173	42.856214	0.000446	4.459149	0.755400	0.000089
 269	2.6666e+01	5.3411	43.013663	0.000790	7.904854	1.339119	0.000158
 270	2.6765e+01	5.3577	43.098443	0.000426	4.256460	0.721064	0.000085
 271	2.6865e+01	5.3780	43.203408	0.000527	5.269903	0.892746	0.000105
 272	2.6965e+01	5.3976	43.288188	0.000426	4.256460	0.721064	0.000085
 273	2.7064e+01	5.4169	43.417376	0.000649	6.486034	1.098764	0.000130
 274	2.7163e+01	5.4372	43.538490	0.000608	6.080657	1.030091	0.000122
 275	2.7263e+01	5.4575	43.643456	0.000527	5.269903	0.892746	0.000105
 276	2.7363e+01	5.4774	43.752459	0.000547	5.472591	0.927082	0.000110
 277	2.7462e+01	5.4974	43.845313	0.000466	4.661837	0.789737	0.000093
 278	2.7561e+01	5.5173	43.946241	0.000507	5.067214	0.858409	0.000101
 279	2.7661e+01	5.5377	44.026984	0.000405	4.053771	0.686727	0.000081
 280	2.7761e+01	5.5581	44.192506	0.000831	8.310231	1.407791	0.000166
 281	2.7860e+01	5.5774	44.253063	0.000304	3.040329	0.515046	0.000061
 282	2.7959e+01	5.5962	44.386289	0.000669	6.688723	1.133100	0.000134
 283	2.8059e+01	5.6178	44.475106	0.000446	4.459149	0.755400	0.000089
 284	2.8159e+01	5.6373	44.571997	0.000486	4.864526	0.824073	0.000097
 285	2.8258e+01	5.6567	44.701185	0.000649	6.486034	1.098764	0.000130
 286	2.8358e+01	5.6765	44.745594	0.000223	2.229574	0.377700	0.000045
 287	2.8457e+01	5.6969	44.850559	0.000527	5.269903	0.892746	0.000105
 288	2.8556e+01	5.7165	44.995896	0.000730	7.296789	1.236109	0.000146
 289	2.8656e+01	5.7362	45.088750	0.000466	4.661837	0.789737	0.000093
 290	2.8756e+01	5.7555	45.173530	0.000426	4.256460	0.721064	0.000085
 291	2.8855e+01	5.7764	45.274459	0.000507	5.067214	0.858409	0.000101
 292	2.8954e+01	5.7966	45.387499	0.000568	5.675280	0.961418	0.000114
 293	2.9054e+01	5.8157	45.504575	0.000588	5.877969	0.995755	0.000118
 294	2.9154e+01	5.8358	45.597430	0.000466	4.661837	0.789737	0.000093
 295	2.9253e+01	5.8562	45.714507	0.000588	5.877969	0.995755	0.000118
 296	2.9352e+01	5.8758	45.787175	0.000365	3.648394	0.618055	0.000073
 297	2.9452e+01	5.8959	45.884066	0.000486	4.864526	0.824073	0.000097
 298	2.9552e+01	5.9165	46.017292	0.000669	6.688723	1.133100	0.000134
 299	2.9651e+01	5.9357	46.102072	0.000426	4.256460	0.721064	0.000085
 300	2.9750e+01	5.9551	46.178777	0.000385	3.851083	0.652391	0.000077
 301	2.9850e+01	5.9753	46.324114	0.000730	7.296789	1.236109	0.000146
 302	2.9950e+01	5.9951	46.396782	0.000365	3.648394	0.618055	0.000073
 303	3.0049e+01	6.0148	46.473488	0.000385	3.851083	0.652391	0.000077
 304	3.0148e+01	6.0348	46.594602	0.000608	6.080657	1.030091	0.000122
 305	3.0248e+01	6.0541	46.687456	0.000466	4.661837	0.789737	0.000093
 306	3.0348e+01	6.0746	46.780310	0.000466	4.661837	0.789737	0.000093
 307	3.0447e+01	6.0949	46.881239	0.000507	5.067214	0.858409	0.000101
 308	3.0547e+01	6.1150	46.998316	0.000588	5.877969	0.995755	0.000118
 309	3.0646e+01	6.1343	47.091170	0.000466	4.661837	0.789737	0.000093
 310	3.0745e+01	6.1555	47.204210	0.000568	5.675280	0.961418	0.000114
 311	3.0845e+01	6.1745	47.276878	0.000365	3.648394	0.618055	0.000073
 312	3.0945e+01	6.1948	47.430289	0.000770	7.702166	1.304782	0.000154
 313	3.1044e+01	6.2151	47.486809	0.000284	2.837640	0.480709	0.000057
 314	3.1143e+01	6.2344	47.599849	0.000568	5.675280	0.961418	0.000114
 315	3.1243e+01	6.2550	47.676554	0.000385	3.851083	0.652391	0.000077
 316	3.1343e+01	6.2737	47.793631	0.000588	5.877969	0.995755	0.000118
 317	3.1442e+01	6.2948	47.882448	0.000446	4.459149	0.755400	0.000089
 318	3.1541e+01	6.3142	47.995488	0.000568	5.675280	0.961418	0.000114
 319	3.1641e+01	6.3342	48.088342	0.000466	4.661837	0.789737	0.000093
 320	3.1741e+01	6.3535	48.156974	0.000345	3.445706	0.583718	0.000069
 321	3.1840e+01	6.3737	48.261939	0.000527	5.269903	0.892746	0.000105
 322	3.1939e+01	6.3934	48.374979	0.000568	5.675280	0.961418	0.000114
 323	3.2039e+01	6.4135	48.467833	0.000466	4.661837	0.789737	0.000093
 324	3.2139e+01	6.4333	48.576836	0.000547	5.472591	0.927082	0.000110
 325	3.2238e+01	6.4527	48.641430	0.000324	3.243017	0.549382	0.000065
 326	3.2337e+01	6.4730	48.734284	0.000466	4.661837	0.789737	0.000093
 327	3.2437e+01	6.4917	48.875584	0.000709	7.094100	1.201773	0.000142
 328	3.2536e+01	6.5128	48.924029	0.000243	2.432263	0.412036	0.000049
 329	3.2636e+01	6.5328	49.037069	0.000568	5.675280	0.961418	0.000114
 330	3.2736e+01	6.5527	49.121849	0.000426	4.256460	0.721064	0.000085
 331	3.2835e+01	6.5737	49.251037	0.000649	6.486034	1.098764	0.000130
 332	3.2934e+01	6.5923	49.368114	0.000588	5.877969	0.995755	0.000118
 333	3.3034e+01	6.6117	49.460968	0.000466	4.661837	0.789737	0.000093
 334	3.3133e+01	6.6323	49.545748	0.000426	4.256460	0.721064	0.000085
 335	3.3233e+01	6.6525	49.638602	0.000466	4.661837	0.789737	0.000093
 336	3.3333e+01	6.6726	49.763754	0.000628	6.283346	1.064428	0.000126
 337	3.3432e+01	6.6916	49.852571	0.000446	4.459149	0.755400	0.000089
 338	3.3532e+01	6.7121	49.921202	0.000345	3.445706	0.583718	0.000069
 339	3.3631e+01	6.7314	50.042316	0.000608	6.080657	1.030091	0.000122
 340	3.3730e+01	6.7518	50.123059	0.000405	4.053771	0.686727	0.000081
 341	3.3830e+01	6.7715	50.191690	0.000345	3.445706	0.583718	0.000069
 342	3.3929e+01	6.7915	50.284544	0.000466	4.661837	0.789737	0.000093
 343	3.4029e+01	6.8115	50.397584	0.000568	5.675280	0.961418	0.000114
 344	3.4129e+01	6.8315	50.466215	0.000345	3.445706	0.583718	0.000069
 345	3.4228e+01	6.8520	50.599441	0.000669	6.688723	1.133100	0.000134
 346	3.4328e+01	6.8719	50.676146	0.000385	3.851083	0.652391	0.000077
 347	3.4427e+01	6.8917	50.764963	0.000446	4.459149	0.755400	0.000089
 348	3.4526e+01	6.9120	50.873966	0.000547	5.472591	0.927082	0.000110
 349	3.4626e+01	6.9317	51.007191	0.000669	6.688723	1.133100	0.000134
 350	3.4725e+01	6.9511	51.067749	0.000304	3.040329	0.515046	0.000061
 351	3.4825e+01	6.9707	51.148491	0.000405	4.053771	0.686727	0.000081
 352	3.4925e+01	6.9920	51.249420	0.000507	5.067214	0.858409	0.000101
 353	3.5024e+01	7.0117	51.354385	0.000527	5.269903	0.892746	0.000105
 354	3.5123e+01	7.0308	51.451276	0.000486	4.864526	0.824073	0.000097
 355	3.5223e+01	7.0512	51.491648	0.000203	2.026886	0.343364	0.000041
 356	3.5322e+01	7.0708	51.588539	0.000486	4.864526	0.824073	0.000097
 357	3.5422e+01	7.0903	51.693505	0.000527	5.269903	0.892746	0.000105
 358	3.5522e+01	7.1107	51.802507	0.000547	5.472591	0.927082	0.000110
 359	3.5621e+01	7.1301	51.927658	0.000628	6.283346	1.064428	0.000126
 360	3.5721e+01	7.1504	52.024550	0.000486	4.864526	0.824073	0.000097
 361	3.5820e+01	7.1706	52.077032	0.000263	2.634951	0.446373	0.000053
 362	3.5919e+01	7.1905	52.177961	0.000507	5.067214	0.858409	0.000101
 363	3.6019e+01	7.2106	52.278889	0.000507	5.067214	0.858409	0.000101
 364	3.6118e+01	7.2301	52.351558	0.000365	3.648394	0.618055	0.000073
 365	3.6218e+01	7.2500	52.444412	0.000466	4.661837	0.789737	0.000093
 366	3.6318e+01	7.2701	52.577637	0.000669	6.688723	1.133100	0.000134
 367	3.6417e+01	7.2903	52.694714	0.000588	5.877969	0.995755	0.000118
 368	3.6517e+01	7.3100	52.743160	0.000243	2.432263	0.412036	0.000049
 369	3.6616e+01	7.3296	52.803717	0.000304	3.040329	0.515046	0.000061
 370	3.6715e+01	7.3498	52.936942	0.000669	6.688723	1.133100	0.000134
 371	3.6815e+01	7.3702	53.033834	0.000486	4.864526	0.824073	0.000097
 372	3.6914e+01	7.3892	53.130725	0.000486	4.864526	0.824073	0.000097
 373	3.7014e+01	7.4093	53.219542	0.000446	4.459149	0.755400	0.000089
 374	3.7114e+01	7.4300	53.284136	0.000324	3.243017	0.549382	0.000065
 375	3.7213e+01	7.4493	53.389102	0.000527	5.269903	0.892746	0.000105
 376	3.7313e+01	7.4688	53.498104	0.000547	5.472591	0.927082	0.000110
 377	3.7412e+01	7.4894	53.566736	0.000345	3.445706	0.583718	0.000069
 378	3.7511e+01	7.5091	53.671701	0.000527	5.269903	0.892746	0.000105
 379	3.7611e+01	7.5293	53.699961	0.000142	1.418820	0.240355	0.000028
 380	3.7711e+01	7.5485	53.845298	0.000730	7.296789	1.236109	0.000146
 381	3.7810e+01	7.5679	53.922003	0.000385	3.851083	0.652391	0.000077
 382	3.7910e+01	7.5883	54.022932	0.000507	5.067214	0.858409	0.000101
 383	3.8009e+01	7.6080	54.095600	0.000365	3.648394	0.618055	0.000073
 384	3.8108e+01	7.6291	54.216714	0.000608	6.080657	1.030091	0.000122
 385	3.8208e+01	7.6488	54.269197	0.000263	2.634951	0.446373	0.000053
 386	3.8307e+01	7.6676	54.386274	0.000588	5.877969	0.995755	0.000118
 387	3.8407e+01	7.6881	54.462980	0.000385	3.851083	0.652391	0.000077
 388	3.8507e+01	7.7074	54.567945	0.000527	5.269903	0.892746	0.000105
 389	3.8606e+01	7.7276	54.652725	0.000426	4.256460	0.721064	0.000085
 390	3.8706e+01	7.7471	54.757691	0.000527	5.269903	0.892746	0.000105
 391	3.8805e+01	7.7686	54.814210	0.000284	2.837640	0.480709	0.000057
 392	3.8904e+01	7.7872	54.943399	0.000649	6.486034	1.098764	0.000130
 393	3.9004e+01	7.8076	55.060476	0.000588	5.877969	0.995755	0.000118
 394	3.9103e+01	7.8277	55.100847	0.000203	2.026886	0.343364	0.000041
 395	3.9203e+01	7.8461	55.209850	0.000547	5.472591	0.927082	0.000110
 396	3.9303e+01	7.8671	55.306741	0.000486	4.864526	0.824073	0.000097
 397	3.9402e+01	7.8874	55.371335	0.000324	3.243017	0.549382	0.000065
 398	3.9502e+01	7.9078	55.492449	0.000608	6.080657	1.030091	0.000122
 399	3.9601e+01	7.9273	55.581266	0.000446	4.459149	0.755400	0.000089
 400	3.9700e+01	7.9462	55.702380	0.000608	6.080657	1.030091	0.000122
 401	3.9800e+01	7.9664	55.762937	0.000304	3.040329	0.515046	0.000061
 402	3.9900e+01	7.9871	55.847717	0.000426	4.256460	0.721064	0.000085
 403	3.9999e+01	8.0070	55.916349	0.000345	3.445706	0.583718	0.000069
 404	4.0099e+01	8.0264	55.993054	0.000385	3.851083	0.652391	0.000077
 405	4.0198e+01	8.0462	56.146465	0.000770	7.702166	1.304782	0.000154
 406	4.0297e+01	8.0658	56.243357	0.000486	4.864526	0.824073	0.000097
 407	4.0397e+01	8.0869	56.291802	0.000243	2.432263	0.412036	0.000049
 408	4.0496e+01	8.1065	56.384656	0.000466	4.661837	0.789737	0.000093
 409	4.0596e+01	8.1268	56.485585	0.000507	5.067214	0.858409	0.000101
 410	4.0696e+01	8.1457	56.562290	0.000385	3.851083	0.652391	0.000077
 411	4.0795e+01	8.1665	56.626884	0.000324	3.243017	0.549382	0.000065
 412	4.0895e+01	8.1864	56.739924	0.000568	5.675280	0.961418	0.000114
 413	4.0994e+01	8.2057	56.800481	0.000304	3.040329	0.515046	0.000061
 414	4.1093e+01	8.2265	56.897373	0.000486	4.864526	0.824073	0.000097
 415	4.1193e+01	8.2459	56.982152	0.000426	4.256460	0.721064	0.000085
 416	4.1292e+01	8.2648	57.062895	0.000405	4.053771	0.686727	0.000081
 417	4.1392e+01	8.2861	57.159786	0.000486	4.864526	0.824073	0.000097
 418	4.1492e+01	8.3057	57.244566	0.000426	4.256460	0.721064	0.000085
 419	4.1591e+01	8.3255	57.305123	0.000304	3.040329	0.515046	0.000061
 420	4.1691e+01	8.3458	57.418163	0.000568	5.675280	0.961418	0.000114
 421	4.1790e+01	8.3662	57.539277	0.000608	6.080657	1.030091	0.000122
 422	4.1889e+01	8.3855	57.607908	0.000345	3.445706	0.583718	0.000069
 423	4.1989e+01	8.4048	57.692688	0.000426	4.256460	0.721064	0.000085
 424	4.2089e+01	8.4246	57.793617	0.000507	5.067214	0.858409	0.000101
 425	4.2188e+01	8.4451	57.854174	0.000304	3.040329	0.515046	0.000061
 426	4.2288e+01	8.4649	57.959139	0.000527	5.269903	0.892746	0.000105
 427	4.2387e+01	8.4853	58.084290	0.000628	6.283346	1.064428	0.000126
 428	4.2486e+01	8.5043	58.116588	0.000162	1.621509	0.274691	0.000032
 429	4.2586e+01	8.5249	58.217516	0.000507	5.067214	0.858409	0.000101
 430	4.2685e+01	8.5444	58.318444	0.000507	5.067214	0.858409	0.000101
 431	4.2785e+01	8.5645	58.370927	0.000263	2.634951	0.446373	0.000053
 432	4.2885e+01	8.5841	58.467818	0.000486	4.864526	0.824073	0.000097
 433	4.2984e+01	8.6046	58.572784	0.000527	5.269903	0.892746	0.000105
 434	4.3084e+01	8.6250	58.665638	0.000466	4.661837	0.789737	0.000093
 435	4.3183e+01	8.6414	58.778678	0.000568	5.675280	0.961418	0.000114
 436	4.3282e+01	8.6642	58.859420	0.000405	4.053771	0.686727	0.000081
 437	4.3382e+01	8.6848	58.928052	0.000345	3.445706	0.583718	0.000069
 438	4.3481e+01	8.7036	59.020906	0.000466	4.661837	0.789737	0.000093
 439	4.3581e+01	8.7244	59.121834	0.000507	5.067214	0.858409	0.000101
 440	4.3681e+01	8.7434	59.222763	0.000507	5.067214	0.858409	0.000101
 441	4.3780e+01	8.7643	59.279283	0.000284	2.837640	0.480709	0.000057
 442	4.3880e+01	8.7838	59.355988	0.000385	3.851083	0.652391	0.000077
 443	4.3979e+01	8.8038	59.477102	0.000608	6.080657	1.030091	0.000122
 444	4.4078e+01	8.8239	59.573994	0.000486	4.864526	0.824073	0.000097
 445	4.4178e+01	8.8428	59.630513	0.000284	2.837640	0.480709	0.000057
 446	4.4278e+01	8.8627	59.747590	0.000588	5.877969	0.995755	0.000118
 447	4.4377e+01	8.8826	59.820259	0.000365	3.648394	0.618055	0.000073
 448	4.4477e+01	8.9017	59.905039	0.000426	4.256460	0.721064	0.000085
 449	4.4576e+01	8.9223	59.985781	0.000405	4.053771	0.686727	0.000081
 450	4.4675e+01	8.9419	60.094784	0.000547	5.472591	0.927082	0.000110
 451	4.4775e+01	8.9619	60.183601	0.000446	4.459149	0.755400	0.000089
 452	4.4874e+01	8.9816	60.219935	0.000182	1.824197	0.309027	0.000037
 453	4.4974e+01	9.0039	60.377384	0.000790	7.904854	1.339119	0.000158
 454	4.5074e+01	9.0218	60.409681	0.000162	1.621509	0.274691	0.000032
 455	4.5173e+01	9.0423	60.478312	0.000345	3.445706	0.583718	0.000069
 456	4.5273e+01	9.0626	60.631723	0.000770	7.702166	1.304782	0.000154
 457	4.5372e+01	9.0816	60.692280	0.000304	3.040329	0.515046	0.000061
 458	4.5471e+01	9.1010	60.760911	0.000345	3.445706	0.583718	0.000069
 459	4.5571e+01	9.1207	60.873951	0.000568	5.675280	0.961418	0.000114
 460	4.5670e+01	9.1417	60.958731	0.000426	4.256460	0.721064	0.000085
 461	4.5770e+01	9.1617	61.067734	0.000547	5.472591	0.927082	0.000110
 462	4.5870e+01	9.1808	61.095994	0.000142	1.418820	0.240355	0.000028
 463	4.5969e+01	9.2012	61.172699	0.000385	3.851083	0.652391	0.000077
 464	4.6069e+01	9.2214	61.330148	0.000790	7.904854	1.339119	0.000158
 465	4.6168e+01	9.2417	61.338222	0.000041	0.405377	0.068673	0.000008
 466	4.6267e+01	9.2603	61.447225	0.000547	5.472591	0.927082	0.000110
 467	4.6367e+01	9.2814	61.556227	0.000547	5.472591	0.927082	0.000110
 468	4.6467e+01	9.3012	61.632933	0.000385	3.851083	0.652391	0.000077
 469	4.6566e+01	9.3206	61.717713	0.000426	4.256460	0.721064	0.000085
 470	4.6666e+01	9.3412	61.822678	0.000527	5.269903	0.892746	0.000105
 471	4.6765e+01	9.3610	61.919569	0.000486	4.864526	0.824073	0.000097
 472	4.6864e+01	9.3806	61.963978	0.000223	2.229574	0.377700	0.000045
 473	4.6964e+01	9.4015	62.056832	0.000466	4.661837	0.789737	0.000093
 474	4.7063e+01	9.4201	62.145649	0.000446	4.459149	0.755400	0.000089
 475	4.7163e+01	9.4405	62.234466	0.000446	4.459149	0.755400	0.000089
 476	4.7263e+01	9.4598	62.347506	0.000568	5.675280	0.961418	0.000114
 477	4.7362e+01	9.4794	62.428248	0.000405	4.053771	0.686727	0.000081
 478	4.7462e+01	9.5010	62.525140	0.000486	4.864526	0.824073	0.000097
 479	4.7561e+01	9.5215	62.605882	0.000405	4.053771	0.686727	0.000081
 480	4.7660e+01	9.5400	62.682588	0.000385	3.851083	0.652391	0.000077
 481	4.7760e+01	9.5596	62.779479	0.000486	4.864526	0.824073	0.000097
 482	4.7859e+01	9.5801	62.835999	0.000284	2.837640	0.480709	0.000057
 483	4.7959e+01	9.6000	62.924816	0.000446	4.459149	0.755400	0.000089
 484	4.8059e+01	9.6194	63.041893	0.000588	5.877969	0.995755	0.000118
 485	4.8158e+01	9.6399	63.142822	0.000507	5.067214	0.858409	0.000101
 486	4.8258e+01	9.6595	63.211453	0.000345	3.445706	0.583718	0.000069
 487	4.8357e+01	9.6799	63.276047	0.000324	3.243017	0.549382	0.000065
 488	4.8456e+01	9.6986	63.360827	0.000426	4.256460	0.721064	0.000085
 489	4.8556e+01	9.7176	63.490015	0.000649	6.486034	1.098764	0.000130
 490	4.8656e+01	9.7388	63.542498	0.000263	2.634951	0.446373	0.000053
 491	4.8755e+01	9.7588	63.627278	0.000426	4.256460	0.721064	0.000085
 492	4.8855e+01	9.7785	63.699946	0.000365	3.648394	0.618055	0.000073
 493	4.8954e+01	9.7998	63.833172	0.000669	6.688723	1.133100	0.000134
 494	4.9053e+01	9.8179	63.877580	0.000223	2.229574	0.377700	0.000045
 495	4.9153e+01	9.8382	63.966397	0.000446	4.459149	0.755400	0.000089
 496	4.9252e+01	9.8590	64.059251	0.000466	4.661837	0.789737	0.000093
 497	4.9352e+01	9.8785	64.144031	0.000426	4.256460	0.721064	0.000085
 498	4.9452e+01	9.8975	64.228811	0.000426	4.256460	0.721064	0.000085
 499	4.9551e+01	9.9183	64.329739	0.000507	5.067214	0.858409	0.000101
 500	4.9651e+01	9.9383	64.414519	0.000426	4.256460	0.721064	0.000085
 501	4.9750e+01	9.9580	64.491225	0.000385	3.851083	0.652391	0.000077
 502	4.9849e+01	9.9780	64.571968	0.000405	4.053771	0.686727	0.000081
 503	4.9949e+01	9.9982	64.680970	0.000547	5.472591	0.927082	0.000110
 504	5.0048e+01	9.9780	64.620413	0.000304	3.040329	0.515046	-0.000061
 505	5.0148e+01	9.9580	64.608302	0.000061	0.608066	0.103009	-0.000012
 506	5.0248e+01	9.9378	64.531596	0.000385	3.851083	0.652391	-0.000077
 507	5.0347e+01	9.9193	64.462965	0.000345	3.445706	0.583718	-0.000069
 508	5.0447e+01	9.8987	64.430668	0.000162	1.621509	0.274691	-0.000032
 509	5.0546e+01	9.8780	64.329739	0.000507	5.067214	0.858409	-0.000101
 510	5.0645e+01	9.8584	64.309554	0.000101	1.013443	0.171682	-0.000020
 511	5.0745e+01	9.8383	64.244960	0.000324	3.243017	0.549382	-0.000065
 512	5.0844e+01	9.8185	64.168254	0.000385	3.851083	0.652391	-0.000077
 513	5.0944e+01	9.7998	64.131920	0.000182	1.824197	0.309027	-0.000037
 514	5.1044e+01	9.7787	64.071363	0.000304	3.040329	0.515046	-0.000061
 515	5.1143e+01	9.7586	64.035029	0.000182	1.824197	0.309027	-0.000037
 516	5.1242e+01	9.7392	63.970434	0.000324	3.243017	0.549382	-0.000065
 517	5.1342e+01	9.7193	63.885654	0.000426	4.256460	0.721064	-0.000085
 518	5.1441e+01	9.6988	63.841246	0.000223	2.229574	0.377700	-0.000045
 519	5.1541e+01	9.6790	63.772615	0.000345	3.445706	0.583718	-0.000069
 520	5.1641e+01	9.6598	63.663612	0.000547	5.472591	0.927082	-0.000110
 521	5.1740e+01	9.6400	63.675723	-0.000061	-0.608066	-0.103009	0.000012
 522	5.1840e+01	9.6198	63.574795	0.000507	5.067214	0.858409	-0.000101
 523	5.1939e+01	9.5991	63.477904	0.000486	4.864526	0.824073	-0.000097
 524	5.2038e+01	9.5789	63.469830	0.000041	0.405377	0.068673	-0.000008
 525	5.2138e+01	9.5599	63.421384	0.000243	2.432263	0.412036	-0.000049
 526	5.2237e+01	9.5393	63.328530	0.000466	4.661837	0.789737	-0.000093
 527	5.2337e+01	9.5204	63.272010	0.000284	2.837640	0.480709	-0.000057
 528	5.2437e+01	9.5004	63.207416	0.000324	3.243017	0.549382	-0.000065
 529	5.2536e+01	9.4802	63.138784	0.000345	3.445706	0.583718	-0.000069
 530	5.2636e+01	9.4595	63.106487	0.000162	1.621509	0.274691	-0.000032
 531	5.2735e+01	9.4404	63.009596	0.000486	4.864526	0.824073	-0.000097
 532	5.2834e+01	9.4201	62.945002	0.000324	3.243017	0.549382	-0.000065
 533	5.2934e+01	9.4010	62.912705	0.000162	1.621509	0.274691	-0.000032
 534	5.3033e+01	9.3804	62.831962	0.000405	4.053771	0.686727	-0.000081
 535	5.3133e+01	9.3604	62.775442	0.000284	2.837640	0.480709	-0.000057
 536	5.3233e+01	9.3408	62.694699	0.000405	4.053771	0.686727	-0.000081
 537	5.3332e+01	9.3201	62.650291	0.000223	2.229574	0.377700	-0.000045
 538	5.3431e+01	9.3005	62.605882	0.000223	2.229574	0.377700	-0.000045
 539	5.3531e+01	9.2817	62.500917	0.000527	5.269903	0.892746	-0.000105
 540	5.3630e+01	9.2608	62.456508	0.000223	2.229574	0.377700	-0.000045
 541	5.3730e+01	9.2407	62.408063	0.000243	2.432263	0.412036	-0.000049
 542	5.3830e+01	9.2213	62.307134	0.000507	5.067214	0.858409	-0.000101
 543	5.3929e+01	9.2019	62.254652	0.000263	2.634951	0.446373	-0.000053
 544	5.4029e+01	9.1811	62.177946	0.000385	3.851083	0.652391	-0.000077
 545	5.4128e+01	9.1610	62.149686	0.000142	1.418820	0.240355	-0.000028
 546	5.4227e+01	9.1412	62.004349	0.000730	7.296789	1.236109	-0.000146
 547	5.4327e+01	9.1218	61.980126	0.000122	1.216131	0.206018	-0.000024
 548	5.4426e+01	9.1016	61.927644	0.000263	2.634951	0.446373	-0.000053
 549	5.4526e+01	9.0820	61.846901	0.000405	4.053771	0.686727	-0.000081
 550	5.4626e+01	9.0620	61.782307	0.000324	3.243017	0.549382	-0.000065
 551	5.4725e+01	9.0423	61.689453	0.000466	4.661837	0.789737	-0.000093
 552	5.4825e+01	9.0219	61.641007	0.000243	2.432263	0.412036	-0.000049
 553	5.4924e+01	9.0026	61.564301	0.000385	3.851083	0.652391	-0.000077
 554	5.5023e+01	8.9819	61.479522	0.000426	4.256460	0.721064	-0.000085
 555	5.5123e+01	8.9624	61.455299	0.000122	1.216131	0.206018	-0.000024
 556	5.5222e+01	8.9423	61.362445	0.000466	4.661837	0.789737	-0.000093
 557	5.5322e+01	8.9228	61.305925	0.000284	2.837640	0.480709	-0.000057
 558	5.5422e+01	8.9026	61.237293	0.000345	3.445706	0.583718	-0.000069
 559	5.5521e+01	8.8818	61.200959	0.000182	1.824197	0.309027	-0.000037
 560	5.5620e+01	8.8626	61.112142	0.000446	4.459149	0.755400	-0.000089
 561	5.5720e+01	8.8431	61.039474	0.000365	3.648394	0.618055	-0.000073
 562	5.5819e+01	8.8240	60.942583	0.000486	4.864526	0.824073	-0.000097
 563	5.5919e+01	8.8037	60.914323	0.000142	1.418820	0.240355	-0.000028
 564	5.6019e+01	8.7842	60.845691	0.000345	3.445706	0.583718	-0.000069
 565	5.6118e+01	8.7641	60.760911	0.000426	4.256460	0.721064	-0.000085
 566	5.6218e+01	8.7440	60.659983	0.000507	5.067214	0.858409	-0.000101
 567	5.6317e+01	8.7238	60.607500	0.000263	2.634951	0.446373	-0.000053
 568	5.6416e+01	8.7041	60.555018	0.000263	2.634951	0.446373	-0.000053
 569	5.6516e+01	8.6843	60.478312	0.000385	3.851083	0.652391	-0.000077
 570	5.6615e+01	8.6637	60.437941	0.000203	2.026886	0.343364	-0.000041
 571	5.6715e+01	8.6445	60.373346	0.000324	3.243017	0.549382	-0.000065
 572	5.6815e+01	8.6253	60.284529	0.000446	4.459149	0.755400	-0.000089
 573	5.6914e+01	8.6048	60.228010	0.000284	2.837640	0.480709	-0.000057
 574	5.7014e+01	8.5835	60.135155	0.000466	4.661837	0.789737	-0.000093
 575	5.7113e+01	8.5648	60.050376	0.000426	4.256460	0.721064	-0.000085
 576	5.7212e+01	8.5443	59.993856	0.000284	2.837640	0.480709	-0.000057
 577	5.7312e+01	8.5249	59.901002	0.000466	4.661837	0.789737	-0.000093
 578	5.7411e+01	8.5038	59.844482	0.000284	2.837640	0.480709	-0.000057
 579	5.7511e+01	8.4844	59.755665	0.000446	4.459149	0.755400	-0.000089
 580	5.7611e+01	8.4650	59.723368	0.000162	1.621509	0.274691	-0.000032
 581	5.7710e+01	8.4445	59.618402	0.000527	5.269903	0.892746	-0.000105
 582	5.7809e+01	8.4243	59.545734	0.000365	3.648394	0.618055	-0.000073
 583	5.7909e+01	8.4048	59.469028	0.000385	3.851083	0.652391	-0.000077
 584	5.8008e+01	8.3860	59.400397	0.000345	3.445706	0.583718	-0.000069
 585	5.8108e+01	8.3657	59.303505	0.000486	4.864526	0.824073	-0.000097
 586	5.8208e+01	8.3447	59.255060	0.000243	2.432263	0.412036	-0.000049
 587	5.8307e+01	8.3252	59.194503	0.000304	3.040329	0.515046	-0.000061
 588	5.8407e+01	8.3069	59.121834	0.000365	3.648394	0.618055	-0.000073
 589	5.8506e+01	8.2858	59.049166	0.000365	3.648394	0.618055	-0.000073
 590	5.8605e+01	8.2644	58.964386	0.000426	4.256460	0.721064	-0.000085
 591	5.8705e+01	8.2462	58.907866	0.000284	2.837640	0.480709	-0.000057
 592	5.8804e+01	8.2257	58.827123	0.000405	4.053771	0.686727	-0.000081
 593	5.8904e+01	8.2058	58.734269	0.000466	4.661837	0.789737	-0.000093
 594	5.9004e+01	8.1861	58.653527	0.000405	4.053771	0.686727	-0.000081
 595	5.9103e+01	8.1658	58.617192	0.000182	1.824197	0.309027	-0.000037
 596	5.9203e+01	8.1463	58.524338	0.000466	4.661837	0.789737	-0.000093
 597	5.9302e+01	8.1263	58.463781	0.000304	3.040329	0.515046	-0.000061
 598	5.9401e+01	8.1066	58.342667	0.000608	6.080657	1.030091	-0.000122
 599	5.9501e+01	8.0867	58.326519	0.000081	0.810754	0.137345	-0.000016
 600	5.9600e+01	8.0667	58.221553	0.000527	5.269903	0.892746	-0.000105
 601	5.9700e+01	8.0473	58.156959	0.000324	3.243017	0.549382	-0.000065
 602	5.9800e+01	8.0264	58.064105	0.000466	4.661837	0.789737	-0.000093
 603	5.9899e+01	8.0071	58.015659	0.000243	2.432263	0.412036	-0.000049
 604	5.9998e+01	7.9868	57.918768	0.000486	4.864526	0.824073	-0.000097
 605	6.0098e+01	7.9668	57.858211	0.000304	3.040329	0.515046	-0.000061
 606	6.0197e+01	7.9478	57.793617	0.000324	3.243017	0.549382	-0.000065
 607	6.0297e+01	7.9275	57.716911	0.000385	3.851083	0.652391	-0.000077
 608	6.0397e+01	7.9076	57.636168	0.000405	4.053771	0.686727	-0.000081
 609	6.0496e+01	7.8879	57.551389	0.000426	4.256460	0.721064	-0.000085
 610	6.0596e+01	7.8674	57.478720	0.000365	3.648394	0.618055	-0.000073
 611	6.0695e+01	7.8477	57.410089	0.000345	3.445706	0.583718	-0.000069
 612	6.0794e+01	7.8278	57.317235	0.000466	4.661837	0.789737	-0.000093
 613	6.0894e+01	7.8078	57.268789	0.000243	2.432263	0.412036	-0.000049
 614	6.0993e+01	7.7876	57.192083	0.000385	3.851083	0.652391	-0.000077
 615	6.1093e+01	7.7677	57.095192	0.000486	4.864526	0.824073	-0.000097
 616	6.1193e+01	7.7470	57.030598	0.000324	3.243017	0.549382	-0.000065
 617	6.1292e+01	7.7276	56.961967	0.000345	3.445706	0.583718	-0.000069
 618	6.1392e+01	7.7087	56.861038	0.000507	5.067214	0.858409	-0.000101
 619	6.1491e+01	7.6871	56.792407	0.000345	3.445706	0.583718	-0.000069
 620	6.1590e+01	7.6687	56.723776	0.000345	3.445706	0.583718	-0.000069
 621	6.1690e+01	7.6492	56.626884	0.000486	4.864526	0.824073	-0.000097
 622	6.1789e+01	7.6289	56.586513	0.000203	2.026886	0.343364	-0.000041
 623	6.1889e+01	7.6080	56.485585	0.000507	5.067214	0.858409	-0.000101
 624	6.1989e+01	7.5881	56.437139	0.000243	2.432263	0.412036	-0.000049
 625	6.2088e+01	7.5700	56.311988	0.000628	6.283346	1.064428	-0.000126
 626	6.2188e+01	7.5488	56.259505	0.000263	2.634951	0.446373	-0.000053
 627	6.2287e+01	7.5288	56.182799	0.000385	3.851083	0.652391	-0.000077
 628	6.2386e+01	7.5089	56.106094	0.000385	3.851083	0.652391	-0.000077
 629	6.2486e+01	7.4888	56.017277	0.000446	4.459149	0.755400	-0.000089
 630	6.2586e+01	7.4688	55.948646	0.000345	3.445706	0.583718	-0.000069
 631	6.2685e+01	7.4506	55.859829	0.000446	4.459149	0.755400	-0.000089
 632	6.2785e+01	7.4300	55.734677	0.000628	6.283346	1.064428	-0.000126
 633	6.2884e+01	7.4111	55.706417	0.000142	1.418820	0.240355	-0.000028
 634	6.2983e+01	7.3895	55.629712	0.000385	3.851083	0.652391	-0.000077
 635	6.3083e+01	7.3693	55.532821	0.000486	4.864526	0.824073	-0.000097
 636	6.3182e+01	7.3493	55.472264	0.000304	3.040329	0.515046	-0.000061
 637	6.3282e+01	7.3307	55.379409	0.000466	4.661837	0.789737	-0.000093
 638	6.3382e+01	7.3099	55.314815	0.000324	3.243017	0.549382	-0.000065
 639	6.3481e+01	7.2903	55.193701	0.000608	6.080657	1.030091	-0.000122
 640	6.3581e+01	7.2697	55.173516	0.000101	1.013443	0.171682	-0.000020
 641	6.3680e+01	7.2511	55.092773	0.000405	4.053771	0.686727	-0.000081
 642	6.3779e+01	7.2295	54.999919	0.000466	4.661837	0.789737	-0.000093
 643	6.3879e+01	7.2100	54.927250	0.000365	3.648394	0.618055	-0.000073
 644	6.3978e+01	7.1906	54.846508	0.000405	4.053771	0.686727	-0.000081
 645	6.4078e+01	7.1700	54.745579	0.000507	5.067214	0.858409	-0.000101
 646	6.4177e+01	7.1500	54.656762	0.000446	4.459149	0.755400	-0.000089
 647	6.4277e+01	7.1313	54.604279	0.000263	2.634951	0.446373	-0.000053
 648	6.4376e+01	7.1104	54.495277	0.000547	5.472591	0.927082	-0.000110
 649	6.4476e+01	7.0913	54.414534	0.000405	4.053771	0.686727	-0.000081
 650	6.4576e+01	7.0703	54.345903	0.000345	3.445706	0.583718	-0.000069
 651	6.4675e+01	7.0508	54.277271	0.000345	3.445706	0.583718	-0.000069
 652	6.4775e+01	7.0303	54.180380	0.000486	4.864526	0.824073	-0.000097
 653	6.4874e+01	7.0112	54.087526	0.000466	4.661837	0.789737	-0.000093
 654	6.4974e+01	6.9907	54.022932	0.000324	3.243017	0.549382	-0.000065
 655	6.5073e+01	6.9707	53.946226	0.000385	3.851083	0.652391	-0.000077
 656	6.5172e+01	6.9506	53.865484	0.000405	4.053771	0.686727	-0.000081
 657	6.5272e+01	6.9323	53.744370	0.000608	6.080657	1.030091	-0.000122
 658	6.5371e+01	6.9128	53.687850	0.000284	2.837640	0.480709	-0.000057
 659	6.5471e+01	6.8922	53.623255	0.000324	3.243017	0.549382	-0.000065
 660	6.5570e+01	6.8716	53.538476	0.000426	4.256460	0.721064	-0.000085
 661	6.5670e+01	6.8523	53.441584	0.000486	4.864526	0.824073	-0.000097
 662	6.5769e+01	6.8317	53.348730	0.000466	4.661837	0.789737	-0.000093
 663	6.5869e+01	6.8123	53.263950	0.000426	4.256460	0.721064	-0.000085
 664	6.5969e+01	6.7922	53.187245	0.000385	3.851083	0.652391	-0.000077
 665	6.6068e+01	6.7726	53.114576	0.000365	3.648394	0.618055	-0.000073
 666	6.6168e+01	6.7516	53.009611	0.000527	5.269903	0.892746	-0.000105
 667	6.6267e+01	6.7320	52.945017	0.000324	3.243017	0.549382	-0.000065
 668	6.6367e+01	6.7112	52.888497	0.000284	2.837640	0.480709	-0.000057
 669	6.6466e+01	6.6891	52.811791	0.000385	3.851083	0.652391	-0.000077
 670	6.6566e+01	6.6729	52.714900	0.000486	4.864526	0.824073	-0.000097
 671	6.6665e+01	6.6518	52.634157	0.000405	4.053771	0.686727	-0.000081
 672	6.6764e+01	6.6321	52.521117	0.000568	5.675280	0.961418	-0.000114
 673	6.6864e+01	6.6129	52.448449	0.000365	3.648394	0.618055	-0.000073
 674	6.6963e+01	6.5936	52.351558	0.000486	4.864526	0.824073	-0.000097
 675	6.7063e+01	6.5726	52.319261	0.000162	1.621509	0.274691	-0.000032
 676	6.7162e+01	6.5527	52.173924	0.000730	7.296789	1.236109	-0.000146
 677	6.7262e+01	6.5336	52.117404	0.000284	2.837640	0.480709	-0.000057
 678	6.7362e+01	6.5130	52.020513	0.000486	4.864526	0.824073	-0.000097
 679	6.7461e+01	6.4928	51.947844	0.000365	3.648394	0.618055	-0.000073
 680	6.7561e+01	6.4725	51.850953	0.000486	4.864526	0.824073	-0.000097
 681	6.7660e+01	6.4533	51.741950	0.000547	5.472591	0.927082	-0.000110
 682	6.7760e+01	6.4330	51.685430	0.000284	2.837640	0.480709	-0.000057
 683	6.7859e+01	6.4130	51.568353	0.000588	5.877969	0.995755	-0.000118
 684	6.7959e+01	6.3924	51.515871	0.000263	2.634951	0.446373	-0.000053
 685	6.8058e+01	6.3729	51.423016	0.000466	4.661837	0.789737	-0.000093
 686	6.8157e+01	6.3531	51.322088	0.000507	5.067214	0.858409	-0.000101
 687	6.8257e+01	6.3331	51.281717	0.000203	2.026886	0.343364	-0.000041
 688	6.8356e+01	6.3134	51.164640	0.000588	5.877969	0.995755	-0.000118
 689	6.8456e+01	6.2945	51.055637	0.000547	5.472591	0.927082	-0.000110
 690	6.8555e+01	6.2746	51.007191	0.000243	2.432263	0.412036	-0.000049
 691	6.8655e+01	6.2545	50.898189	0.000547	5.472591	0.927082	-0.000110
 692	6.8754e+01	6.2345	50.773038	0.000628	6.283346	1.064428	-0.000126
 693	6.8854e+01	6.2152	50.704406	0.000345	3.445706	0.583718	-0.000069
 694	6.8954e+01	6.1935	50.611552	0.000466	4.661837	0.789737	-0.000093
 695	6.9053e+01	6.1744	50.530809	0.000405	4.053771	0.686727	-0.000081
 696	6.9153e+01	6.1550	50.417770	0.000568	5.675280	0.961418	-0.000114
 697	6.9252e+01	6.1346	50.369324	0.000243	2.432263	0.412036	-0.000049
 698	6.9352e+01	6.1149	50.264359	0.000527	5.269903	0.892746	-0.000105
 699	6.9451e+01	6.0950	50.211876	0.000263	2.634951	0.446373	-0.000053
 700	6.9550e+01	6.0738	50.074613	0.000689	6.891411	1.167437	-0.000138
 701	6.9650e+01	6.0558	49.993870	0.000405	4.053771	0.686727	-0.000081
 702	6.9749e+01	6.0350	49.909091	0.000426	4.256460	0.721064	-0.000085
 703	6.9849e+01	6.0165	49.832385	0.000385	3.851083	0.652391	-0.000077
 704	6.9948e+01	5.9966	49.747605	0.000426	4.256460	0.721064	-0.000085
 705	7.0048e+01	5.9759	49.666862	0.000405	4.053771	0.686727	-0.000081
 706	7.0147e+01	5.9554	49.586120	0.000405	4.053771	0.686727	-0.000081
 707	7.0247e+01	5.9355	49.497303	0.000446	4.459149	0.755400	-0.000089
 708	7.0347e+01	5.9161	49.364077	0.000669	6.688723	1.133100	-0.000134
 709	7.0446e+01	5.8964	49.319669	0.000223	2.229574	0.377700	-0.000045
 710	7.0546e+01	5.8794	49.202592	0.000588	5.877969	0.995755	-0.000118
 711	7.0645e+01	5.8556	49.129923	0.000365	3.648394	0.618055	-0.000073
 712	7.0745e+01	5.8364	49.020921	0.000547	5.472591	0.927082	-0.000110
 713	7.0844e+01	5.8157	48.932104	0.000446	4.459149	0.755400	-0.000089
 714	7.0944e+01	5.7964	48.855398	0.000385	3.851083	0.652391	-0.000077
 715	7.1043e+01	5.7764	48.730247	0.000628	6.283346	1.064428	-0.000126
 716	7.1142e+01	5.7553	48.701987	0.000142	1.418820	0.240355	-0.000028
 717	7.1242e+01	5.7373	48.556650	0.000730	7.296789	1.236109	-0.000146
 718	7.1341e+01	5.7157	48.479945	0.000385	3.851083	0.652391	-0.000077
 719	7.1441e+01	5.6969	48.403239	0.000385	3.851083	0.652391	-0.000077
 720	7.1540e+01	5.6759	48.322496	0.000405	4.053771	0.686727	-0.000081
 721	7.1640e+01	5.6570	48.225605	0.000486	4.864526	0.824073	-0.000097
 722	7.1740e+01	5.6365	48.165048	0.000304	3.040329	0.515046	-0.000061
 723	7.1839e+01	5.6168	48.015674	0.000750	7.499477	1.270446	-0.000150
 724	7.1939e+01	5.5965	47.951080	0.000324	3.243017	0.549382	-0.000065
 725	7.2038e+01	5.5770	47.842077	0.000547	5.472591	0.927082	-0.000110
 726	7.2138e+01	5.5570	47.761334	0.000405	4.053771	0.686727	-0.000081
 727	7.2237e+01	5.5386	47.668480	0.000466	4.661837	0.789737	-0.000093
 728	7.2337e+01	5.5169	47.591775	0.000385	3.851083	0.652391	-0.000077
 729	7.2436e+01	5.4977	47.502958	0.000446	4.459149	0.755400	-0.000089
 730	7.2535e+01	5.4772	47.389918	0.000568	5.675280	0.961418	-0.000114
 731	7.2635e+01	5.4562	47.288989	0.000507	5.067214	0.858409	-0.000101
 732	7.2734e+01	5.4365	47.220358	0.000345	3.445706	0.583718	-0.000069
 733	7.2834e+01	5.4176	47.115393	0.000527	5.269903	0.892746	-0.000105
 734	7.2933e+01	5.3974	47.018501	0.000486	4.864526	0.824073	-0.000097
 735	7.3033e+01	5.3782	46.925647	0.000466	4.661837	0.789737	-0.000093
 736	7.3132e+01	5.3577	46.857016	0.000345	3.445706	0.583718	-0.000069
 737	7.3232e+01	5.3381	46.760125	0.000486	4.864526	0.824073	-0.000097
 738	7.3332e+01	5.3185	46.671308	0.000446	4.459149	0.755400	-0.000089
 739	7.3431e+01	5.2984	46.525971	0.000730	7.296789	1.236109	-0.000146
 740	7.3531e+01	5.2786	46.429080	0.000486	4.864526	0.824073	-0.000097
 741	7.3630e+01	5.2575	46.364485	0.000324	3.243017	0.549382	-0.000065
 742	7.3730e+01	5.2380	46.267594	0.000486	4.864526	0.824073	-0.000097
 743	7.3829e+01	5.2183	46.170703	0.000486	4.864526	0.824073	-0.000097
 744	7.3928e+01	5.1987	46.093997	0.000385	3.851083	0.652391	-0.000077
 745	7.4028e+01	5.1785	45.948660	0.000730	7.296789	1.236109	-0.000146
 746	7.4127e+01	5.1586	45.888103	0.000304	3.040329	0.515046	-0.000061
 747	7.4227e+01	5.1391	45.823509	0.000324	3.243017	0.549382	-0.000065
 748	7.4326e+01	5.1180	45.718544	0.000527	5.269903	0.892746	-0.000105
 749	7.4426e+01	5.0991	45.613578	0.000527	5.269903	0.892746	-0.000105
 750	7.4525e+01	5.0792	45.528798	0.000426	4.256460	0.721064	-0.000085
 751	7.4625e+01	5.0591	45.407684	0.000608	6.080657	1.030091	-0.000122
 752	7.4725e+01	5.0399	45.306756	0.000507	5.067214	0.858409	-0.000101
 753	7.4824e+01	5.0201	45.217939	0.000446	4.459149	0.755400	-0.000089
 754	7.4924e+01	5.0005	45.096825	0.000608	6.080657	1.030091	-0.000122
 755	7.5023e+01	4.9795	45.003971	0.000466	4.661837	0.789737	-0.000093
 756	7.5123e+01	4.9604	44.919191	0.000426	4.256460	0.721064	-0.000085
 757	7.5222e+01	4.9390	44.838448	0.000405	4.053771	0.686727	-0.000081
 758	7.5322e+01	4.9194	44.733483	0.000527	5.269903	0.892746	-0.000105
 759	7.5421e+01	4.8994	44.652740	0.000405	4.053771	0.686727	-0.000081
 760	7.5520e+01	4.8795	44.576034	0.000385	3.851083	0.652391	-0.000077
 761	7.5620e+01	4.8598	44.442809	0.000669	6.688723	1.133100	-0.000134
 762	7.5719e+01	4.8399	44.349955	0.000466	4.661837	0.789737	-0.000093
 763	7.5819e+01	4.8199	44.220766	0.000649	6.486034	1.098764	-0.000130
 764	7.5918e+01	4.8009	44.115801	0.000527	5.269903	0.892746	-0.000105
 765	7.6018e+01	4.7799	44.079467	0.000182	1.824197	0.309027	-0.000037
 766	7.6118e+01	4.7607	43.954315	0.000628	6.283346	1.064428	-0.000126
 767	7.6217e+01	4.7401	43.833201	0.000608	6.080657	1.030091	-0.000122
 768	7.6317e+01	4.7204	43.760533	0.000365	3.648394	0.618055	-0.000073
 769	7.6416e+01	4.7008	43.675753	0.000426	4.256460	0.721064	-0.000085
 770	7.6516e+01	4.6812	43.554639	0.000608	6.080657	1.030091	-0.000122
 771	7.6615e+01	4.6612	43.445636	0.000547	5.472591	0.927082	-0.000110
 772	7.6715e+01	4.6409	43.368931	0.000385	3.851083	0.652391	-0.000077
 773	7.6814e+01	4.6212	43.284151	0.000426	4.256460	0.721064	-0.000085
 774	7.6913e+01	4.6016	43.187260	0.000486	4.864526	0.824073	-0.000097
 775	7.7013e+01	4.5811	43.114591	0.000365	3.648394	0.618055	-0.000073
 776	7.7112e+01	4.5623	42.993477	0.000608	6.080657	1.030091	-0.000122
 777	7.7212e+01	4.5412	42.904660	0.000446	4.459149	0.755400	-0.000089
 778	7.7311e+01	4.5217	42.819880	0.000426	4.256460	0.721064	-0.000085
 779	7.7411e+01	4.5014	42.714915	0.000527	5.269903	0.892746	-0.000105
 780	7.7510e+01	4.4805	42.626098	0.000446	4.459149	0.755400	-0.000089
 781	7.7610e+01	4.4616	42.517095	0.000547	5.472591	0.927082	-0.000110
 782	7.7710e+01	4.4419	42.408092	0.000547	5.472591	0.927082	-0.000110
 783	7.7809e+01	4.4224	42.282941	0.000628	6.283346	1.064428	-0.000126
 784	7.7909e+01	4.4019	42.222384	0.000304	3.040329	0.515046	-0.000061
 785	7.8008e+01	4.3820	42.125493	0.000486	4.864526	0.824073	-0.000097
 786	7.8108e+01	4.3621	41.996305	0.000649	6.486034	1.098764	-0.000130
 787	7.8207e+01	4.3426	41.915562	0.000405	4.053771	0.686727	-0.000081
 788	7.8306e+01	4.3221	41.842893	0.000365	3.648394	0.618055	-0.000073
 789	7.8406e+01	4.3026	41.733891	0.000547	5.472591	0.927082	-0.000110
 790	7.8505e+01	4.2817	41.592591	0.000709	7.094100	1.201773	-0.000142
 791	7.8605e+01	4.2630	41.507811	0.000426	4.256460	0.721064	-0.000085
 792	7.8704e+01	4.2422	41.378623	0.000649	6.486034	1.098764	-0.000130
 793	7.8804e+01	4.2228	41.265583	0.000568	5.675280	0.961418	-0.000114
 794	7.8903e+01	4.2031	41.225212	0.000203	2.026886	0.343364	-0.000041
 795	7.9003e+01	4.1827	41.087949	0.000689	6.891411	1.167437	-0.000138
 796	7.9103e+01	4.1626	41.003169	0.000426	4.256460	0.721064	-0.000085
 797	7.9202e+01	4.1428	40.869944	0.000669	6.688723	1.133100	-0.000134
 798	7.9302e+01	4.1224	40.809387	0.000304	3.040329	0.515046	-0.000061
 799	7.9401e+01	4.1039	40.704421	0.000527	5.269903	0.892746	-0.000105
 800	7.9501e+01	4.0816	40.603493	0.000507	5.067214	0.858409	-0.000101
 801	7.9600e+01	4.0641	40.494490	0.000547	5.472591	0.927082	-0.000110
 802	7.9700e+01	4.0429	40.349153	0.000730	7.296789	1.236109	-0.000146
 803	7.9799e+01	4.0224	40.288596	0.000304	3.040329	0.515046	-0.000061
 804	7.9898e+01	4.0032	40.183631	0.000527	5.269903	0.892746	-0.000105
 805	7.9998e+01	3.9834	40.050405	0.000669	6.688723	1.133100	-0.000134
 806	8.0097e+01	3.9622	39.993885	0.000284	2.837640	0.480709	-0.000057
 807	8.0197e+01	3.9436	39.872771	0.000608	6.080657	1.030091	-0.000122
 808	8.0296e+01	3.9242	39.775880	0.000486	4.864526	0.824073	-0.000097
 809	8.0396e+01	3.9043	39.691100	0.000426	4.256460	0.721064	-0.000085
 810	8.0496e+01	3.8839	39.569986	0.000608	6.080657	1.030091	-0.000122
 811	8.0595e+01	3.8631	39.452909	0.000588	5.877969	0.995755	-0.000118
 812	8.0695e+01	3.8432	39.388315	0.000324	3.243017	0.549382	-0.000065
 813	8.0794e+01	3.8241	39.259126	0.000649	6.486034	1.098764	-0.000130
 814	8.0894e+01	3.8032	39.162235	0.000486	4.864526	0.824073	-0.000097
 815	8.0993e+01	3.7849	39.016898	0.000730	7.296789	1.236109	-0.000146
 816	8.1093e+01	3.7644	38.968453	0.000243	2.432263	0.412036	-0.000049
 817	8.1192e+01	3.7447	38.859450	0.000547	5.472591	0.927082	-0.000110
 818	8.1291e+01	3.7249	38.734299	0.000628	6.283346	1.064428	-0.000126
 819	8.1391e+01	3.7051	38.597036	0.000689	6.891411	1.167437	-0.000138
 820	8.1490e+01	3.6849	38.572813	0.000122	1.216131	0.206018	-0.000024
 821	8.1590e+01	3.6649	38.439588	0.000669	6.688723	1.133100	-0.000134
 822	8.1689e+01	3.6440	38.334622	0.000527	5.269903	0.892746	-0.000105
 823	8.1789e+01	3.6240	38.193323	0.000709	7.094100	1.201773	-0.000142
 824	8.1888e+01	3.6052	38.104506	0.000446	4.459149	0.755400	-0.000089
 825	8.1988e+01	3.5853	37.983392	0.000608	6.080657	1.030091	-0.000122
 826	8.2088e+01	3.5647	37.886500	0.000486	4.864526	0.824073	-0.000097
 827	8.2187e+01	3.5452	37.801720	0.000426	4.256460	0.721064	-0.000085
 828	8.2287e+01	3.5255	37.676569	0.000628	6.283346	1.064428	-0.000126
 829	8.2386e+01	3.5057	37.579678	0.000486	4.864526	0.824073	-0.000097
 830	8.2486e+01	3.4852	37.502972	0.000385	3.851083	0.652391	-0.000077
 831	8.2585e+01	3.4675	37.325338	0.000892	8.918297	1.510800	-0.000179
 832	8.2684e+01	3.4454	37.276893	0.000243	2.432263	0.412036	-0.000049
 833	8.2784e+01	3.4264	37.151742	0.000628	6.283346	1.064428	-0.000126
 834	8.2883e+01	3.4055	37.070999	0.000405	4.053771	0.686727	-0.000081
 835	8.2983e+01	3.3862	36.953922	0.000588	5.877969	0.995755	-0.000118
 836	8.3082e+01	3.3662	36.869142	0.000426	4.256460	0.721064	-0.000085
 837	8.3182e+01	3.3459	36.715731	0.000770	7.702166	1.304782	-0.000154
 838	8.3281e+01	3.3255	36.647100	0.000345	3.445706	0.583718	-0.000069
 839	8.3381e+01	3.3041	36.534060	0.000568	5.675280	0.961418	-0.000114
 840	8.3481e+01	3.2862	36.392760	0.000709	7.094100	1.201773	-0.000142
 841	8.3580e+01	3.2662	36.316055	0.000385	3.851083	0.652391	-0.000077
 842	8.3680e+01	3.2471	36.186866	0.000649	6.486034	1.098764	-0.000130
 843	8.3779e+01	3.2264	36.102086	0.000426	4.256460	0.721064	-0.000085
 844	8.3879e+01	3.2067	35.993084	0.000547	5.472591	0.927082	-0.000110
 845	8.3978e+01	3.1863	35.880044	0.000568	5.675280	0.961418	-0.000114
 846	8.4078e+01	3.1660	35.750856	0.000649	6.486034	1.098764	-0.000130
 847	8.4177e+01	3.1479	35.674150	0.000385	3.851083	0.652391	-0.000077
 848	8.4276e+01	3.1271	35.577259	0.000486	4.864526	0.824073	-0.000097
 849	8.4376e+01	3.1066	35.439996	0.000689	6.891411	1.167437	-0.000138
 850	8.4475e+01	3.0863	35.298696	0.000709	7.094100	1.201773	-0.000142
 851	8.4575e+01	3.0671	35.230065	0.000345	3.445706	0.583718	-0.000069
 852	8.4674e+01	3.0473	35.100877	0.000649	6.486034	1.098764	-0.000130
 853	8.4774e+01	3.0285	35.024171	0.000385	3.851083	0.652391	-0.000077
 854	8.4874e+01	3.0080	34.890946	0.000669	6.688723	1.133100	-0.000134
 855	8.4973e+01	2.9869	34.769832	0.000608	6.080657	1.030091	-0.000122
 856	8.5073e+01	2.9683	34.681015	0.000446	4.459149	0.755400	-0.000089
 857	8.5172e+01	2.9475	34.567975	0.000568	5.675280	0.961418	-0.000114
 858	8.5272e+01	2.9279	34.418601	0.000750	7.499477	1.270446	-0.000150
 859	8.5371e+01	2.9076	34.321709	0.000486	4.864526	0.824073	-0.000097
 860	8.5471e+01	2.8881	34.212707	0.000547	5.472591	0.927082	-0.000110
 861	8.5570e+01	2.8671	34.119853	0.000466	4.661837	0.789737	-0.000093
 862	8.5669e+01	2.8477	34.002776	0.000588	5.877969	0.995755	-0.000118
 863	8.5769e+01	2.8281	33.861476	0.000709	7.094100	1.201773	-0.000142
 864	8.5868e+01	2.8078	33.813030	0.000243	2.432263	0.412036	-0.000049
 865	8.5968e+01	2.7880	33.675768	0.000689	6.891411	1.167437	-0.000138
 866	8.6067e+01	2.7685	33.526394	0.000750	7.499477	1.270446	-0.000150
 867	8.6167e+01	2.7481	33.453725	0.000365	3.648394	0.618055	-0.000073
 868	8.6266e+01	2.7289	33.348760	0.000527	5.269903	0.892746	-0.000105
 869	8.6366e+01	2.7074	33.211497	0.000689	6.891411	1.167437	-0.000138
 870	8.6466e+01	2.6880	33.106532	0.000527	5.269903	0.892746	-0.000105
 871	8.6565e+01	2.6690	32.993492	0.000568	5.675280	0.961418	-0.000114
 872	8.6665e+01	2.6484	32.872378	0.000608	6.080657	1.030091	-0.000122
 873	8.6764e+01	2.6297	32.767412	0.000527	5.269903	0.892746	-0.000105
 874	8.6864e+01	2.6086	32.658410	0.000547	5.472591	0.927082	-0.000110
 875	8.6963e+01	2.5889	32.553444	0.000527	5.269903	0.892746	-0.000105
 876	8.7063e+01	2.5690	32.436367	0.000588	5.877969	0.995755	-0.000118
 877	8.7162e+01	2.5481	32.371773	0.000324	3.243017	0.549382	-0.000065
 878	8.7261e+01	2.5295	32.226436	0.000730	7.296789	1.236109	-0.000146
 879	8.7361e+01	2.5088	32.085136	0.000709	7.094100	1.201773	-0.000142
 880	8.7460e+01	2.4889	31.980171	0.000527	5.269903	0.892746	-0.000105
 881	8.7560e+01	2.4703	31.871168	0.000547	5.472591	0.927082	-0.000110
 882	8.7659e+01	2.4499	31.746017	0.000628	6.283346	1.064428	-0.000126
 883	8.7759e+01	2.4300	31.673348	0.000365	3.648394	0.618055	-0.000073
 884	8.7859e+01	2.4107	31.528012	0.000730	7.296789	1.236109	-0.000146
 885	8.7958e+01	2.3900	31.423046	0.000527	5.269903	0.892746	-0.000105
 886	8.8058e+01	2.3696	31.293858	0.000649	6.486034	1.098764	-0.000130
 887	8.8157e+01	2.3500	31.237338	0.000284	2.837640	0.480709	-0.000057
 888	8.8257e+01	2.3299	31.063741	0.000872	8.715608	1.476464	-0.000174
 889	8.8356e+01	2.3119	30.966850	0.000486	4.864526	0.824073	-0.000097
 890	8.8456e+01	2.2906	30.841698	0.000628	6.283346	1.064428	-0.000126
 891	8.8555e+01	2.2716	30.720584	0.000608	6.080657	1.030091	-0.000122
 892	8.8654e+01	2.2504	30.587359	0.000669	6.688723	1.133100	-0.000134
 893	8.8754e+01	2.2309	30.510653	0.000385	3.851083	0.652391	-0.000077
 894	8.8853e+01	2.2110	30.385502	0.000628	6.283346	1.064428	-0.000126
 895	8.8953e+01	2.1919	30.248240	0.000689	6.891411	1.167437	-0.000138
 896	8.9052e+01	2.1706	30.159423	0.000446	4.459149	0.755400	-0.000089
 897	8.9152e+01	2.1513	30.038308	0.000608	6.080657	1.030091	-0.000122
 898	8.9251e+01	2.1311	29.949491	0.000446	4.459149	0.755400	-0.000089
 899	8.9351e+01	2.1109	29.800117	0.000750	7.499477	1.270446	-0.000150
 900	8.9451e+01	2.0910	29.703226	0.000486	4.864526	0.824073	-0.000097
 901	8.9550e+01	2.0712	29.570001	0.000669	6.688723	1.133100	-0.000134
 902	8.9650e+01	2.0499	29.456961	0.000568	5.675280	0.961418	-0.000114
 903	8.9749e+01	2.0318	29.360070	0.000486	4.864526	0.824073	-0.000097
 904	8.9849e+01	2.0107	29.267216	0.000466	4.661837	0.789737	-0.000093
 905	8.9948e+01	1.9915	29.133990	0.000669	6.688723	1.133100	-0.000134
 906	9.0047e+01	1.9710	28.968467	0.000831	8.310231	1.407791	-0.000166
 907	9.0147e+01	1.9524	28.899836	0.000345	3.445706	0.583718	-0.000069
 908	9.0246e+01	1.9311	28.774685	0.000628	6.283346	1.064428	-0.000126
 909	9.0346e+01	1.9118	28.633385	0.000709	7.094100	1.201773	-0.000142
 910	9.0445e+01	1.8911	28.540531	0.000466	4.661837	0.789737	-0.000093
 911	9.0545e+01	1.8717	28.399231	0.000709	7.094100	1.201773	-0.000142
 912	9.0644e+01	1.8512	28.310414	0.000446	4.459149	0.755400	-0.000089
 913	9.0744e+01	1.8319	28.169115	0.000709	7.094100	1.201773	-0.000142
 914	9.0844e+01	1.8121	28.031852	0.000689	6.891411	1.167437	-0.000138
 915	9.0943e+01	1.7922	27.910738	0.000608	6.080657	1.030091	-0.000122
 916	9.1043e+01	1.7709	27.817884	0.000466	4.661837	0.789737	-0.000093
 917	9.1142e+01	1.7527	27.720993	0.000486	4.864526	0.824073	-0.000097
 918	9.1242e+01	1.7321	27.579693	0.000709	7.094100	1.201773	-0.000142
 919	9.1341e+01	1.7121	27.474727	0.000527	5.269903	0.892746	-0.000105
 920	9.1441e+01	1.6922	27.333428	0.000709	7.094100	1.201773	-0.000142
 921	9.1540e+01	1.6722	27.228462	0.000527	5.269903	0.892746	-0.000105
 922	9.1639e+01	1.6525	27.119459	0.000547	5.472591	0.927082	-0.000110
 923	9.1739e+01	1.6322	26.982197	0.000689	6.891411	1.167437	-0.000138
 924	9.1838e+01	1.6120	26.901454	0.000405	4.053771	0.686727	-0.000081
 925	9.1938e+01	1.5928	26.760154	0.000709	7.094100	1.201773	-0.000142
 926	9.2037e+01	1.5720	26.651152	0.000547	5.472591	0.927082	-0.000110
 927	9.2137e+01	1.5521	26.538112	0.000568	5.675280	0.961418	-0.000114
 928	9.2237e+01	1.5327	26.421035	0.000588	5.877969	0.995755	-0.000118
 929	9.2336e+01	1.5134	26.287809	0.000669	6.688723	1.133100	-0.000134
 930	9.2436e+01	1.4922	26.154584	0.000669	6.688723	1.133100	-0.000134
 931	9.2535e+01	1.4732	26.065767	0.000446	4.459149	0.755400	-0.000089
 932	9.2635e+01	1.4538	25.936579	0.000649	6.486034	1.098764	-0.000130
 933	9.2734e+01	1.4339	25.787205	0.000750	7.499477	1.270446	-0.000150
 934	9.2834e+01	1.4127	25.694350	0.000466	4.661837	0.789737	-0.000093
 935	9.2933e+01	1.3931	25.585348	0.000547	5.472591	0.927082	-0.000110
 936	9.3032e+01	1.3737	25.456159	0.000649	6.486034	1.098764	-0.000130
 937	9.3132e+01	1.3537	25.331008	0.000628	6.283346	1.064428	-0.000126
 938	9.3231e+01	1.3337	25.213931	0.000588	5.877969	0.995755	-0.000118
 939	9.3331e+01	1.3129	25.096854	0.000588	5.877969	0.995755	-0.000118
 940	9.3430e+01	1.2944	24.955555	0.000709	7.094100	1.201773	-0.000142
 941	9.3530e+01	1.2734	24.854626	0.000507	5.067214	0.858409	-0.000101
 942	9.3629e+01	1.2540	24.749661	0.000527	5.269903	0.892746	-0.000105
 943	9.3729e+01	1.2347	24.592212	0.000790	7.904854	1.339119	-0.000158
 944	9.3829e+01	1.2148	24.491284	0.000507	5.067214	0.858409	-0.000101
 945	9.3928e+01	1.1950	24.390356	0.000507	5.067214	0.858409	-0.000101
 946	9.4028e+01	1.1747	24.293464	0.000486	4.864526	0.824073	-0.000097
 947	9.4127e+01	1.1546	24.123905	0.000851	8.512920	1.442128	-0.000170
 948	9.4227e+01	1.1351	24.031050	0.000466	4.661837	0.789737	-0.000093
 949	9.4326e+01	1.1166	23.913974	0.000588	5.877969	0.995755	-0.000118
 950	9.4425e+01	1.0950	23.768637	0.000730	7.296789	1.236109	-0.000146
 951	9.4525e+01	1.0757	23.651560	0.000588	5.877969	0.995755	-0.000118
 952	9.4624e+01	1.0555	23.530446	0.000608	6.080657	1.030091	-0.000122
 953	9.4724e+01	1.0351	23.421443	0.000547	5.472591	0.927082	-0.000110
 954	9.4823e+01	1.0159	23.288218	0.000669	6.688723	1.133100	-0.000134
 955	9.4923e+01	0.9959	23.199401	0.000446	4.459149	0.755400	-0.000089
 956	9.5022e+01	0.9756	23.041952	0.000790	7.904854	1.339119	-0.000158
 957	9.5122e+01	0.9550	22.924875	0.000588	5.877969	0.995755	-0.000118
 958	9.5222e+01	0.9359	22.779538	0.000730	7.296789	1.236109	-0.000146
 959	9.5321e+01	0.9155	22.690721	0.000446	4.459149	0.755400	-0.000089
 960	9.5421e+01	0.8959	22.569607	0.000608	6.080657	1.030091	-0.000122
 961	9.5520e+01	0.8755	22.428308	0.000709	7.094100	1.201773	-0.000142
 962	9.5620e+01	0.8560	22.323342	0.000527	5.269903	0.892746	-0.000105
 963	9.5719e+01	0.8361	22.198191	0.000628	6.283346	1.064428	-0.000126
 964	9.5819e+01	0.8168	22.052854	0.000730	7.296789	1.236109	-0.000146
 965	9.5918e+01	0.7967	21.980186	0.000365	3.648394	0.618055	-0.000073
 966	9.6017e+01	0.7766	21.806589	0.000872	8.715608	1.476464	-0.000174
 967	9.6117e+01	0.7561	21.673363	0.000669	6.688723	1.133100	-0.000134
 968	9.6216e+01	0.7349	21.548212	0.000628	6.283346	1.064428	-0.000126
 969	9.6316e+01	0.7162	21.479581	0.000345	3.445706	0.583718	-0.000069
 970	9.6415e+01	0.6965	21.310021	0.000851	8.512920	1.442128	-0.000170
 971	9.6515e+01	0.6763	21.225241	0.000426	4.256460	0.721064	-0.000085
 972	9.6615e+01	0.6564	21.083941	0.000709	7.094100	1.201773	-0.000142
 973	9.6714e+01	0.6371	20.974939	0.000547	5.472591	0.927082	-0.000110
 974	9.6814e+01	0.6173	20.837676	0.000689	6.891411	1.167437	-0.000138
 975	9.6913e+01	0.5970	20.732711	0.000527	5.269903	0.892746	-0.000105
 976	9.7013e+01	0.5772	20.627745	0.000527	5.269903	0.892746	-0.000105
 977	9.7112e+01	0.5573	20.502594	0.000628	6.283346	1.064428	-0.000126
 978	9.7212e+01	0.5376	20.312848	0.000953	9.526363	1.613810	-0.000191
 979	9.7311e+01	0.5172	20.219994	0.000466	4.661837	0.789737	-0.000093
 980	9.7410e+01	0.4972	20.078695	0.000709	7.094100	1.201773	-0.000142
 981	9.7510e+01	0.4776	19.945469	0.000669	6.688723	1.133100	-0.000134
 982	9.7609e+01	0.4572	19.860689	0.000426	4.256460	0.721064	-0.000085
 983	9.7709e+01	0.4375	19.691130	0.000851	8.512920	1.442128	-0.000170
 984	9.7808e+01	0.4173	19.578090	0.000568	5.675280	0.961418	-0.000114
 985	9.7908e+01	0.3974	19.481199	0.000486	4.864526	0.824073	-0.000097
 986	9.8007e+01	0.3786	19.339899	0.000709	7.094100	1.201773	-0.000142
 987	9.8107e+01	0.3572	19.251082	0.000446	4.459149	0.755400	-0.000089
 988	9.8207e+01	0.3385	19.093633	0.000790	7.904854	1.339119	-0.000158
 989	9.8306e+01	0.3182	18.996742	0.000486	4.864526	0.824073	-0.000097
 990	9.8406e+01	0.2978	18.831220	0.000831	8.310231	1.407791	-0.000166
 991	9.8505e+01	0.2766	18.714143	0.000588	5.877969	0.995755	-0.000118
 992	9.8605e+01	0.2576	18.593029	0.000608	6.080657	1.030091	-0.000122
 993	9.8704e+01	0.2387	18.463840	0.000649	6.486034	1.098764	-0.000130
 994	9.8803e+01	0.2177	18.342726	0.000608	6.080657	1.030091	-0.000122
 995	9.8903e+01	0.1981	18.209501	0.000669	6.688723	1.133100	-0.000134
 996	9.9002e+01	0.1782	18.076275	0.000669	6.688723	1.133100	-0.000134
 997	9.9102e+01	0.1589	17.979384	0.000486	4.864526	0.824073	-0.000097
 998	9.9201e+01	0.1382	17.825973	0.000770	7.702166	1.304782	-0.000154
 999	9.9301e+01	0.1190	17.700822	0.000628	6.283346	1.064428	-0.000126
1000	9.9400e+01	0.0982	17.575670	0.000628	6.283346	1.064428	-0.000126
1001	9.9500e+01	0.0786	17.446482	0.000649	6.486034	1.098764	-0.000130
1002	9.9600e+01	0.0580	17.337479	0.000547	5.472591	0.927082	-0.000110
1003	9.9699e+01	0.0388	17.220402	0.000588	5.877969	0.995755	-0.000118
1004	9.9799e+01	0.0191	17.075066	0.000730	7.296789	1.236109	-0.000146
1005	9.9898e+01	-0.0005	16.949914	0.000628	6.283346	1.064428	-0.000126
1006	9.9998e+01	-0.0198	16.848986	0.000507	5.067214	0.858409	-0.000101
1007	1.0010e+02	-0.0389	16.735946	0.000568	5.675280	0.961418	-0.000114
1008	1.0020e+02	-0.0592	16.602721	0.000669	6.688723	1.133100	-0.000134
1009	1.0030e+02	-0.0784	16.485644	0.000588	5.877969	0.995755	-0.000118
1010	1.0040e+02	-0.0990	16.348381	0.000689	6.891411	1.167437	-0.000138
1011	1.0050e+02	-0.1187	16.215156	0.000669	6.688723	1.133100	-0.000134
1012	1.0059e+02	-0.1381	16.081930	0.000669	6.688723	1.133100	-0.000134
1013	1.0069e+02	-0.1589	15.912371	0.000851	8.512920	1.442128	-0.000170
1014	1.0079e+02	-0.1778	15.811442	0.000507	5.067214	0.858409	-0.000101
1015	1.0089e+02	-0.1984	15.682254	0.000649	6.486034	1.098764	-0.000130
1016	1.0099e+02	-0.2189	15.540954	0.000709	7.094100	1.201773	-0.000142
1017	1.0109e+02	-0.2390	15.448100	0.000466	4.661837	0.789737	-0.000093
1018	1.0119e+02	-0.2586	15.298726	0.000750	7.499477	1.270446	-0.000150
1019	1.0129e+02	-0.2781	15.181649	0.000588	5.877969	0.995755	-0.000118
1020	1.0139e+02	-0.2985	15.040349	0.000709	7.094100	1.201773	-0.000142
1021	1.0149e+02	-0.3166	14.967681	0.000365	3.648394	0.618055	-0.000073
1022	1.0159e+02	-0.3388	14.790047	0.000892	8.918297	1.510800	-0.000179
1023	1.0169e+02	-0.3582	14.660858	0.000649	6.486034	1.098764	-0.000130
1024	1.0179e+02	-0.3777	14.551856	0.000547	5.472591	0.927082	-0.000110
1025	1.0189e+02	-0.3982	14.394407	0.000790	7.904854	1.339119	-0.000158
1026	1.0199e+02	-0.4164	14.277331	0.000588	5.877969	0.995755	-0.000118
1027	1.0209e+02	-0.4382	14.123919	0.000770	7.702166	1.304782	-0.000154
1028	1.0219e+02	-0.4572	14.014917	0.000547	5.472591	0.927082	-0.000110
1029	1.0229e+02	-0.4771	13.881691	0.000669	6.688723	1.133100	-0.000134
1030	1.0239e+02	-0.4980	13.732317	0.000750	7.499477	1.270446	-0.000150
1031	1.0248e+02	-0.5164	13.615240	0.000588	5.877969	0.995755	-0.000118
1032	1.0258e+02	-0.5377	13.514312	0.000507	5.067214	0.858409	-0.000101
1033	1.0268e+02	-0.5562	13.393198	0.000608	6.080657	1.030091	-0.000122
1034	1.0278e+02	-0.5773	13.231712	0.000811	8.107543	1.373455	-0.000162
1035	1.0288e+02	-0.5970	13.094450	0.000689	6.891411	1.167437	-0.000138
1036	1.0298e+02	-0.6165	12.973336	0.000608	6.080657	1.030091	-0.000122
1037	1.0308e+02	-0.6372	12.852222	0.000608	6.080657	1.030091	-0.000122
1038	1.0318e+02	-0.6558	12.714959	0.000689	6.891411	1.167437	-0.000138
1039	1.0328e+02	-0.6767	12.581734	0.000669	6.688723	1.133100	-0.000134
1040	1.0338e+02	-0.6973	12.456582	0.000628	6.283346	1.064428	-0.000126
1041	1.0348e+02	-0.7167	12.311245	0.000730	7.296789	1.236109	-0.000146
1042	1.0358e+02	-0.7370	12.186094	0.000628	6.283346	1.064428	-0.000126
1043	1.0368e+02	-0.7568	12.064980	0.000608	6.080657	1.030091	-0.000122
1044	1.0378e+02	-0.7764	11.931755	0.000669	6.688723	1.133100	-0.000134
1045	1.0388e+02	-0.7971	11.834863	0.000486	4.864526	0.824073	-0.000097
1046	1.0398e+02	-0.8157	11.685489	0.000750	7.499477	1.270446	-0.000150
1047	1.0408e+02	-0.8358	11.528041	0.000790	7.904854	1.339119	-0.000158
1048	1.0418e+02	-0.8559	11.415001	0.000568	5.675280	0.961418	-0.000114
1049	1.0428e+02	-0.8759	11.285813	0.000649	6.486034	1.098764	-0.000130
1050	1.0438e+02	-0.8954	11.168736	0.000588	5.877969	0.995755	-0.000118
1051	1.0447e+02	-0.9149	11.043585	0.000628	6.283346	1.064428	-0.000126
1052	1.0457e+02	-0.9364	10.898248	0.000730	7.296789	1.236109	-0.000146
1053	1.0467e+02	-0.9547	10.744837	0.000770	7.702166	1.304782	-0.000154
1054	1.0477e+02	-0.9753	10.627760	0.000588	5.877969	0.995755	-0.000118
1055	1.0487e+02	-0.9953	10.530869	0.000486	4.864526	0.824073	-0.000097
1056	1.0497e+02	-1.0155	10.377457	0.000770	7.702166	1.304782	-0.000154
1057	1.0507e+02	-1.0342	10.256343	0.000608	6.080657	1.030091	-0.000122
1058	1.0517e+02	-1.0556	10.155415	0.000507	5.067214	0.858409	-0.000101
1059	1.0527e+02	-1.0747	9.981818	0.000872	8.715608	1.476464	-0.000174
1060	1.0537e+02	-1.0954	9.856667	0.000628	6.283346	1.064428	-0.000126
1061	1.0547e+02	-1.1151	9.715367	0.000709	7.094100	1.201773	-0.000142
1062	1.0557e+02	-1.1348	9.598290	0.000588	5.877969	0.995755	-0.000118
1063	1.0567e+02	-1.1555	9.481213	0.000588	5.877969	0.995755	-0.000118
1064	1.0577e+02	-1.1750	9.352025	0.000649	6.486034	1.098764	-0.000130
1065	1.0587e+02	-1.1954	9.178428	0.000872	8.715608	1.476464	-0.000174
1066	1.0597e+02	-1.2145	9.061351	0.000588	5.877969	0.995755	-0.000118
1067	1.0607e+02	-1.2340	8.932163	0.000649	6.486034	1.098764	-0.000130
1068	1.0617e+02	-1.2547	8.835272	0.000486	4.864526	0.824073	-0.000097
1069	1.0627e+02	-1.2750	8.661675	0.000872	8.715608	1.476464	-0.000174
1070	1.0637e+02	-1.2946	8.512301	0.000750	7.499477	1.270446	-0.000150
1071	1.0647e+02	-1.3144	8.443669	0.000345	3.445706	0.583718	-0.000069
1072	1.0656e+02	-1.3330	8.298333	0.000730	7.296789	1.236109	-0.000146
1073	1.0666e+02	-1.3538	8.221627	0.000385	3.851083	0.652391	-0.000077
1074	1.0676e+02	-1.3736	8.052067	0.000851	8.512920	1.442128	-0.000170
1075	1.0686e+02	-1.3932	7.874433	0.000892	8.918297	1.510800	-0.000179
1076	1.0696e+02	-1.4132	7.817913	0.000284	2.837640	0.480709	-0.000057
1077	1.0706e+02	-1.4337	7.656428	0.000811	8.107543	1.373455	-0.000162
1078	1.0716e+02	-1.4532	7.503017	0.000770	7.702166	1.304782	-0.000154
1079	1.0726e+02	-1.4729	7.357680	0.000730	7.296789	1.236109	-0.000146
1080	1.0736e+02	-1.4935	7.276937	0.000405	4.053771	0.686727	-0.000081
1081	1.0746e+02	-1.5128	7.135637	0.000709	7.094100	1.201773	-0.000142
1082	1.0756e+02	-1.5331	6.982226	0.000770	7.702166	1.304782	-0.000154
1083	1.0766e+02	-1.5527	6.853038	0.000649	6.486034	1.098764	-0.000130
1084	1.0776e+02	-1.5730	6.715775	0.000689	6.891411	1.167437	-0.000138
1085	1.0786e+02	-1.5936	6.590624	0.000628	6.283346	1.064428	-0.000126
1086	1.0796e+02	-1.6118	6.473547	0.000588	5.877969	0.995755	-0.000118
1087	1.0806e+02	-1.6324	6.332247	0.000709	7.094100	1.201773	-0.000142
1088	1.0816e+02	-1.6531	6.231319	0.000507	5.067214	0.858409	-0.000101
1089	1.0826e+02	-1.6721	6.090019	0.000709	7.094100	1.201773	-0.000142
1090	1.0836e+02	-1.6928	5.936608	0.000770	7.702166	1.304782	-0.000154
1091	1.0845e+02	-1.7129	5.799345	0.000689	6.891411	1.167437	-0.000138
1092	1.0855e+02	-1.7326	5.641897	0.000790	7.904854	1.339119	-0.000158
1093	1.0865e+02	-1.7520	5.532895	0.000547	5.472591	0.927082	-0.000110
1094	1.0875e+02	-1.7727	5.440040	0.000466	4.661837	0.789737	-0.000093
1095	1.0885e+02	-1.7915	5.294704	0.000730	7.296789	1.236109	-0.000146
1096	1.0895e+02	-1.8130	5.145329	0.000750	7.499477	1.270446	-0.000150
1097	1.0905e+02	-1.8314	5.056513	0.000446	4.459149	0.755400	-0.000089
1098	1.0915e+02	-1.8520	4.903101	0.000770	7.702166	1.304782	-0.000154
1099	1.0925e+02	-1.8728	4.769876	0.000669	6.688723	1.133100	-0.000134
1100	1.0935e+02	-1.8921	4.616465	0.000770	7.702166	1.304782	-0.000154
1101	1.0945e+02	-1.9121	4.559945	0.000284	2.837640	0.480709	-0.000057
1102	1.0955e+02	-1.9318	4.386348	0.000872	8.715608	1.476464	-0.000174
1103	1.0965e+02	-1.9518	4.249085	0.000689	6.891411	1.167437	-0.000138
1104	1.0975e+02	-1.9712	4.144120	0.000527	5.269903	0.892746	-0.000105
1105	1.0985e+02	-1.9914	3.994746	0.000750	7.499477	1.270446	-0.000150
1106	1.0995e+02	-2.0124	3.853446	0.000709	7.094100	1.201773	-0.000142
1107	1.1005e+02	-2.0317	3.756555	0.000486	4.864526	0.824073	-0.000097
1108	1.1015e+02	-2.0509	3.639478	0.000588	5.877969	0.995755	-0.000118
1109	1.1025e+02	-2.0704	3.510290	0.000649	6.486034	1.098764	-0.000130
1110	1.1035e+02	-2.0910	3.373027	0.000689	6.891411	1.167437	-0.000138
1111	1.1044e+02	-2.1115	3.219616	0.000770	7.702166	1.304782	-0.000154
1112	1.1054e+02	-2.1313	3.090427	0.000649	6.486034	1.098764	-0.000130
1113	1.1064e+02	-2.1514	2.961239	0.000649	6.486034	1.098764	-0.000130
1114	1.1074e+02	-2.1704	2.848199	0.000568	5.675280	0.961418	-0.000114
1115	1.1084e+02	-2.1922	2.706900	0.000709	7.094100	1.201773	-0.000142
1116	1.1094e+02	-2.2108	2.597897	0.000547	5.472591	0.927082	-0.000110
1117	1.1104e+02	-2.2305	2.464671	0.000669	6.688723	1.133100	-0.000134
1118	1.1114e+02	-2.2510	2.307223	0.000790	7.904854	1.339119	-0.000158
1119	1.1124e+02	-2.2710	2.190146	0.000588	5.877969	0.995755	-0.000118
1120	1.1134e+02	-2.2897	2.101329	0.000446	4.459149	0.755400	-0.000089
1121	1.1144e+02	-2.3103	1.939844	0.000811	8.107543	1.373455	-0.000162
1122	1.1154e+02	-2.3314	1.806618	0.000669	6.688723	1.133100	-0.000134
1123	1.1164e+02	-2.3510	1.693578	0.000568	5.675280	0.961418	-0.000114
1124	1.1174e+02	-2.3690	1.544204	0.000750	7.499477	1.270446	-0.000150
1125	1.1184e+02	-2.3897	1.431165	0.000568	5.675280	0.961418	-0.000114
1126	1.1194e+02	-2.4107	1.277753	0.000770	7.702166	1.304782	-0.000154
1127	1.1204e+02	-2.4301	1.192974	0.000426	4.256460	0.721064	-0.000085
1128	1.1214e+02	-2.4500	1.027451	0.000831	8.310231	1.407791	-0.000166
1129	1.1224e+02	-2.4703	0.934597	0.000466	4.661837	0.789737	-0.000093
1130	1.1234e+02	-2.4910	0.785223	0.000750	7.499477	1.270446	-0.000150
1131	1.1244e+02	-2.5100	0.676220	0.000547	5.472591	0.927082	-0.000110
1132	1.1253e+02	-2.5299	0.547032	0.000649	6.486034	1.098764	-0.000130
1133	1.1263e+02	-2.5487	0.409769	0.000689	6.891411	1.167437	-0.000138
1134	1.1273e+02	-2.5701	0.292692	0.000588	5.877969	0.995755	-0.000118
1135	1.1283e+02	-2.5884	0.155430	0.000689	6.891411	1.167437	-0.000138
1136	1.1293e+02	-2.6093	0.002019	0.000770	7.702166	1.304782	-0.000154
1137	1.1303e+02	-2.6294	-0.106984	0.000547	5.472591	0.927082	-0.000110
1138	1.1313e+02	-2.6489	-0.240210	0.000669	6.688723	1.133100	-0.000134
1139	1.1323e+02	-2.6688	-0.361324	0.000608	6.080657	1.030091	-0.000122
1140	1.1333e+02	-2.6887	-0.466289	0.000527	5.269903	0.892746	-0.000105
1141	1.1343e+02	-2.7077	-0.607589	0.000709	7.094100	1.201773	-0.000142
1142	1.1353e+02	-2.7290	-0.732740	0.000628	6.283346	1.064428	-0.000126
1143	1.1363e+02	-2.7488	-0.853854	0.000608	6.080657	1.030091	-0.000122
1144	1.1373e+02	-2.7675	-0.991117	0.000689	6.891411	1.167437	-0.000138
1145	1.1383e+02	-2.7877	-1.088008	0.000486	4.864526	0.824073	-0.000097
1146	1.1393e+02	-2.8072	-1.205085	0.000588	5.877969	0.995755	-0.000118
1147	1.1403e+02	-2.8284	-1.354459	0.000750	7.499477	1.270446	-0.000150
1148	1.1413e+02	-2.8483	-1.491722	0.000689	6.891411	1.167437	-0.000138
1149	1.1423e+02	-2.8674	-1.588613	0.000486	4.864526	0.824073	-0.000097
1150	1.1433e+02	-2.8884	-1.746061	0.000790	7.904854	1.339119	-0.000158
1151	1.1442e+02	-2.9083	-1.842952	0.000486	4.864526	0.824073	-0.000097
1152	1.1452e+02	-2.9283	-1.980215	0.000689	6.891411	1.167437	-0.000138
1153	1.1462e+02	-2.9472	-2.093255	0.000568	5.675280	0.961418	-0.000114
1154	1.1472e+02	-2.9675	-2.178035	0.000426	4.256460	0.721064	-0.000085
1155	1.1482e+02	-2.9877	-2.311260	0.000669	6.688723	1.133100	-0.000134
1156	1.1492e+02	-3.0078	-2.468709	0.000790	7.904854	1.339119	-0.000158
1157	1.1502e+02	-3.0273	-2.601934	0.000669	6.688723	1.133100	-0.000134
1158	1.1512e+02	-3.0473	-2.767457	0.000831	8.310231	1.407791	-0.000166
1159	1.1522e+02	-3.0672	-2.872422	0.000527	5.269903	0.892746	-0.000105
1160	1.1532e+02	-3.0875	-2.953165	0.000405	4.053771	0.686727	-0.000081
1161	1.1542e+02	-3.1070	-3.082353	0.000649	6.486034	1.098764	-0.000130
1162	1.1552e+02	-3.1271	-3.239801	0.000790	7.904854	1.339119	-0.000158
1163	1.1562e+02	-3.1471	-3.336693	0.000486	4.864526	0.824073	-0.000097
1164	1.1572e+02	-3.1670	-3.482030	0.000730	7.296789	1.236109	-0.000146
1165	1.1582e+02	-3.1859	-3.558735	0.000385	3.851083	0.652391	-0.000077
1166	1.1592e+02	-3.2072	-3.732332	0.000872	8.715608	1.476464	-0.000174
1167	1.1602e+02	-3.2264	-3.865557	0.000669	6.688723	1.133100	-0.000134
1168	1.1612e+02	-3.2474	-4.014931	0.000750	7.499477	1.270446	-0.000150
1169	1.1622e+02	-3.2657	-4.079526	0.000324	3.243017	0.549382	-0.000065
1170	1.1632e+02	-3.2859	-4.196603	0.000588	5.877969	0.995755	-0.000118
1171	1.1642e+02	-3.3058	-4.313680	0.000588	5.877969	0.995755	-0.000118
1172	1.1651e+02	-3.3255	-4.450942	0.000689	6.891411	1.167437	-0.000138
1173	1.1661e+02	-3.3472	-4.559945	0.000547	5.472591	0.927082	-0.000110
1174	1.1671e+02	-3.3666	-4.713356	0.000770	7.702166	1.304782	-0.000154
1175	1.1681e+02	-3.3862	-4.786024	0.000365	3.648394	0.618055	-0.000073
1176	1.1691e+02	-3.4062	-4.911176	0.000628	6.283346	1.064428	-0.000126
1177	1.1701e+02	-3.4254	-5.052475	0.000709	7.094100	1.201773	-0.000142
1178	1.1711e+02	-3.4448	-5.157441	0.000527	5.269903	0.892746	-0.000105
1179	1.1721e+02	-3.4652	-5.318926	0.000811	8.107543	1.373455	-0.000162
1180	1.1731e+02	-3.4858	-5.387558	0.000345	3.445706	0.583718	-0.000069
1181	1.1741e+02	-3.5062	-5.524820	0.000689	6.891411	1.167437	-0.000138
1182	1.1751e+02	-3.5260	-5.641897	0.000588	5.877969	0.995755	-0.000118
1183	1.1761e+02	-3.5455	-5.750900	0.000547	5.472591	0.927082	-0.000110
1184	1.1771e+02	-3.5654	-5.944682	0.000973	9.729051	1.648146	-0.000195
1185	1.1781e+02	-3.5857	-6.001202	0.000284	2.837640	0.480709	-0.000057
1186	1.1791e+02	-3.6055	-6.134428	0.000669	6.688723	1.133100	-0.000134
1187	1.1801e+02	-3.6247	-6.247468	0.000568	5.675280	0.961418	-0.000114
1188	1.1811e+02	-3.6439	-6.364544	0.000588	5.877969	0.995755	-0.000118
1189	1.1821e+02	-3.6662	-6.513919	0.000750	7.499477	1.270446	-0.000150
1190	1.1831e+02	-3.6853	-6.635033	0.000608	6.080657	1.030091	-0.000122
1191	1.1841e+02	-3.7041	-6.731924	0.000486	4.864526	0.824073	-0.000097
1192	1.1850e+02	-3.7242	-6.869186	0.000689	6.891411	1.167437	-0.000138
1193	1.1860e+02	-3.7457	-7.018560	0.000750	7.499477	1.270446	-0.000150
1194	1.1870e+02	-3.7653	-7.131600	0.000568	5.675280	0.961418	-0.000114
1195	1.1880e+02	-3.7848	-7.224454	0.000466	4.661837	0.789737	-0.000093
1196	1.1890e+02	-3.8046	-7.333457	0.000547	5.472591	0.927082	-0.000110
1197	1.1900e+02	-3.8247	-7.438423	0.000527	5.269903	0.892746	-0.000105
1198	1.1910e+02	-3.8444	-7.603945	0.000831	8.310231	1.407791	-0.000166
1199	1.1920e+02	-3.8641	-7.696799	0.000466	4.661837	0.789737	-0.000093
1200	1.1930e+02	-3.8844	-7.834062	0.000689	6.891411	1.167437	-0.000138
1201	1.1940e+02	-3.9040	-7.959213	0.000628	6.283346	1.064428	-0.000126
1202	1.1950e+02	-3.9240	-8.052067	0.000466	4.661837	0.789737	-0.000093
1203	1.1960e+02	-3.9449	-8.140884	0.000446	4.459149	0.755400	-0.000089
1204	1.1970e+02	-3.9645	-8.306407	0.000831	8.310231	1.407791	-0.000166
1205	1.1980e+02	-3.9836	-8.399261	0.000466	4.661837	0.789737	-0.000093
1206	1.1990e+02	-4.0038	-8.516338	0.000588	5.877969	0.995755	-0.000118
1207	1.2000e+02	-4.0227	-8.657638	0.000709	7.094100	1.201773	-0.000142
1208	1.2010e+02	-4.0425	-8.742417	0.000426	4.256460	0.721064	-0.000085
1209	1.2020e+02	-4.0628	-8.891791	0.000750	7.499477	1.270446	-0.000150
1210	1.2030e+02	-4.0841	-8.972534	0.000405	4.053771	0.686727	-0.000081
1211	1.2039e+02	-4.1034	-9.105760	0.000669	6.688723	1.133100	-0.000134
1212	1.2049e+02	-4.1226	-9.210725	0.000527	5.269903	0.892746	-0.000105
1213	1.2059e+02	-4.1434	-9.368173	0.000790	7.904854	1.339119	-0.000158
1214	1.2069e+02	-4.1618	-9.448916	0.000405	4.053771	0.686727	-0.000081
1215	1.2079e+02	-4.1830	-9.654810	0.001034	10.337117	1.751155	-0.000207
1216	1.2089e+02	-4.2031	-9.711330	0.000284	2.837640	0.480709	-0.000057
1217	1.2099e+02	-4.2229	-9.812258	0.000507	5.067214	0.858409	-0.000101
1218	1.2109e+02	-4.2437	-9.893001	0.000405	4.053771	0.686727	-0.000081
1219	1.2119e+02	-4.2642	-10.078709	0.000932	9.323674	1.579473	-0.000187
1220	1.2129e+02	-4.2822	-10.147341	0.000345	3.445706	0.583718	-0.000069
1221	1.2139e+02	-4.3031	-10.268455	0.000608	6.080657	1.030091	-0.000122
1222	1.2149e+02	-4.3222	-10.357272	0.000446	4.459149	0.755400	-0.000089
1223	1.2159e+02	-4.3427	-10.530869	0.000872	8.715608	1.476464	-0.000174
1224	1.2169e+02	-4.3633	-10.639871	0.000547	5.472591	0.927082	-0.000110
1225	1.2179e+02	-4.3821	-10.744837	0.000527	5.269903	0.892746	-0.000105
1226	1.2189e+02	-4.4012	-10.869988	0.000628	6.283346	1.064428	-0.000126
1227	1.2199e+02	-4.4214	-10.991102	0.000608	6.080657	1.030091	-0.000122
1228	1.2209e+02	-4.4415	-11.108179	0.000588	5.877969	0.995755	-0.000118
1229	1.2219e+02	-4.4625	-11.229293	0.000608	6.080657	1.030091	-0.000122
1230	1.2229e+02	-4.4830	-11.330221	0.000507	5.067214	0.858409	-0.000101
1231	1.2239e+02	-4.5010	-11.398853	0.000345	3.445706	0.583718	-0.000069
1232	1.2248e+02	-4.5213	-11.568412	0.000851	8.512920	1.442128	-0.000170
1233	1.2258e+02	-4.5412	-11.653192	0.000426	4.256460	0.721064	-0.000085
1234	1.2268e+02	-4.5615	-11.794492	0.000709	7.094100	1.201773	-0.000142
1235	1.2278e+02	-4.5819	-11.931755	0.000689	6.891411	1.167437	-0.000138
1236	1.2288e+02	-4.6017	-12.020572	0.000446	4.459149	0.755400	-0.000089
1237	1.2298e+02	-4.6216	-12.149760	0.000649	6.486034	1.098764	-0.000130
1238	1.2308e+02	-4.6410	-12.234540	0.000426	4.256460	0.721064	-0.000085
1239	1.2318e+02	-4.6613	-12.359691	0.000628	6.283346	1.064428	-0.000126
1240	1.2328e+02	-4.6811	-12.476768	0.000588	5.877969	0.995755	-0.000118
1241	1.2338e+02	-4.7006	-12.609993	0.000669	6.688723	1.133100	-0.000134
1242	1.2348e+02	-4.7211	-12.698810	0.000446	4.459149	0.755400	-0.000089
1243	1.2358e+02	-4.7417	-12.807813	0.000547	5.472591	0.927082	-0.000110
1244	1.2368e+02	-4.7614	-12.953150	0.000730	7.296789	1.236109	-0.000146
1245	1.2378e+02	-4.7809	-13.013707	0.000304	3.040329	0.515046	-0.000061
1246	1.2388e+02	-4.8004	-13.146933	0.000669	6.688723	1.133100	-0.000134
1247	1.2398e+02	-4.8216	-13.272084	0.000628	6.283346	1.064428	-0.000126
1248	1.2408e+02	-4.8409	-13.385124	0.000568	5.675280	0.961418	-0.000114
1249	1.2418e+02	-4.8608	-13.486052	0.000507	5.067214	0.858409	-0.000101
1250	1.2428e+02	-4.8813	-13.643500	0.000790	7.904854	1.339119	-0.000158
1251	1.2438e+02	-4.9010	-13.748466	0.000527	5.269903	0.892746	-0.000105
1252	1.2447e+02	-4.9199	-13.869580	0.000608	6.080657	1.030091	-0.000122
1253	1.2457e+02	-4.9401	-13.966471	0.000486	4.864526	0.824073	-0.000097
1254	1.2467e+02	-4.9606	-14.075474	0.000547	5.472591	0.927082	-0.000110
1255	1.2477e+02	-4.9792	-14.228885	0.000770	7.702166	1.304782	-0.000154
1256	1.2487e+02	-5.0000	-14.321739	0.000466	4.661837	0.789737	-0.000093
1257	1.2497e+02	-5.0201	-14.422667	0.000507	5.067214	0.858409	-0.000101
1258	1.2507e+02	-5.0394	-14.551856	0.000649	6.486034	1.098764	-0.000130
1259	1.2517e+02	-5.0601	-14.685081	0.000669	6.688723	1.133100	-0.000134
1260	1.2527e+02	-5.0786	-14.802158	0.000588	5.877969	0.995755	-0.000118
1261	1.2537e+02	-5.0991	-14.915198	0.000568	5.675280	0.961418	-0.000114
1262	1.2547e+02	-5.1193	-15.012089	0.000486	4.864526	0.824073	-0.000097
1263	1.2557e+02	-5.1396	-15.121092	0.000547	5.472591	0.927082	-0.000110
1264	1.2567e+02	-5.1590	-15.222020	0.000507	5.067214	0.858409	-0.000101
1265	1.2577e+02	-5.1791	-15.331023	0.000547	5.472591	0.927082	-0.000110
1266	1.2587e+02	-5.1990	-15.472323	0.000709	7.094100	1.201773	-0.000142
1267	1.2597e+02	-5.2192	-15.577288	0.000527	5.269903	0.892746	-0.000105
1268	1.2607e+02	-5.2399	-15.686291	0.000547	5.472591	0.927082	-0.000110
1269	1.2617e+02	-5.2582	-15.843739	0.000790	7.904854	1.339119	-0.000158
1270	1.2627e+02	-5.2792	-15.908333	0.000324	3.243017	0.549382	-0.000065
1271	1.2636e+02	-5.2991	-16.053670	0.000730	7.296789	1.236109	-0.000146
1272	1.2646e+02	-5.3189	-16.122302	0.000345	3.445706	0.583718	-0.000069
1273	1.2656e+02	-5.3381	-16.271676	0.000750	7.499477	1.270446	-0.000150
1274	1.2666e+02	-5.3555	-16.388753	0.000588	5.877969	0.995755	-0.000118
1275	1.2676e+02	-5.3783	-16.501792	0.000568	5.675280	0.961418	-0.000114
1276	1.2686e+02	-5.3982	-16.598684	0.000486	4.864526	0.824073	-0.000097
1277	1.2696e+02	-5.4175	-16.711723	0.000568	5.675280	0.961418	-0.000114
1278	1.2706e+02	-5.4379	-16.877246	0.000831	8.310231	1.407791	-0.000166
1279	1.2716e+02	-5.4577	-16.966063	0.000446	4.459149	0.755400	-0.000089
1280	1.2726e+02	-5.4788	-17.111400	0.000730	7.296789	1.236109	-0.000146
1281	1.2736e+02	-5.4974	-17.232514	0.000608	6.080657	1.030091	-0.000122
1282	1.2746e+02	-5.5168	-17.276922	0.000223	2.229574	0.377700	-0.000045
1283	1.2756e+02	-5.5382	-17.398036	0.000608	6.080657	1.030091	-0.000122
1284	1.2766e+02	-5.5573	-17.531262	0.000669	6.688723	1.133100	-0.000134
1285	1.2776e+02	-5.5785	-17.656413	0.000628	6.283346	1.064428	-0.000126
1286	1.2786e+02	-5.5984	-17.785601	0.000649	6.486034	1.098764	-0.000130
1287	1.2796e+02	-5.6175	-17.886530	0.000507	5.067214	0.858409	-0.000101
1288	1.2806e+02	-5.6383	-17.995533	0.000547	5.472591	0.927082	-0.000110
1289	1.2816e+02	-5.6566	-18.152981	0.000790	7.904854	1.339119	-0.000158
1290	1.2826e+02	-5.6773	-18.245835	0.000466	4.661837	0.789737	-0.000093
1291	1.2835e+02	-5.6963	-18.370986	0.000628	6.283346	1.064428	-0.000126
1292	1.2845e+02	-5.7182	-18.500175	0.000649	6.486034	1.098764	-0.000130
1293	1.2855e+02	-5.7372	-18.653586	0.000770	7.702166	1.304782	-0.000154
1294	1.2865e+02	-5.7567	-18.734328	0.000405	4.053771	0.686727	-0.000081
1295	1.2875e+02	-5.7767	-18.839294	0.000527	5.269903	0.892746	-0.000105
1296	1.2885e+02	-5.7968	-18.964445	0.000628	6.283346	1.064428	-0.000126
1297	1.2895e+02	-5.8167	-19.077485	0.000568	5.675280	0.961418	-0.000114
1298	1.2905e+02	-5.8376	-19.234933	0.000790	7.904854	1.339119	-0.000158
1299	1.2915e+02	-5.8563	-19.303565	0.000345	3.445706	0.583718	-0.000069
1300	1.2925e+02	-5.8762	-19.456976	0.000770	7.702166	1.304782	-0.000154
1301	1.2935e+02	-5.8956	-19.578090	0.000608	6.080657	1.030091	-0.000122
1302	1.2945e+02	-5.9174	-19.674981	0.000486	4.864526	0.824073	-0.000097
1303	1.2955e+02	-5.9361	-19.804169	0.000649	6.486034	1.098764	-0.000130
1304	1.2965e+02	-5.9558	-19.921246	0.000588	5.877969	0.995755	-0.000118
1305	1.2975e+02	-5.9756	-20.034286	0.000568	5.675280	0.961418	-0.000114
1306	1.2985e+02	-5.9969	-20.203846	0.000851	8.512920	1.442128	-0.000170
1307	1.2995e+02	-6.0170	-20.292663	0.000446	4.459149	0.755400	-0.000089
1308	1.3005e+02	-6.0356	-20.393591	0.000507	5.067214	0.858409	-0.000101
1309	1.3015e+02	-6.0565	-20.534891	0.000709	7.094100	1.201773	-0.000142
1310	1.3025e+02	-6.0754	-20.656005	0.000608	6.080657	1.030091	-0.000122
1311	1.3034e+02	-6.0965	-20.748859	0.000466	4.661837	0.789737	-0.000093
1312	1.3044e+02	-6.1151	-20.906307	0.000790	7.904854	1.339119	-0.000158
1313	1.3054e+02	-6.1360	-21.011273	0.000527	5.269903	0.892746	-0.000105
1314	1.3064e+02	-6.1549	-21.124313	0.000568	5.675280	0.961418	-0.000114
1315	1.3074e+02	-6.1751	-21.265613	0.000709	7.094100	1.201773	-0.000142
1316	1.3084e+02	-6.1958	-21.386727	0.000608	6.080657	1.030091	-0.000122
1317	1.3094e+02	-6.2154	-21.519952	0.000669	6.688723	1.133100	-0.000134
1318	1.3104e+02	-6.2358	-21.632992	0.000568	5.675280	0.961418	-0.000114
1319	1.3114e+02	-6.2549	-21.814663	0.000912	9.120986	1.545137	-0.000183
1320	1.3124e+02	-6.2759	-21.919628	0.000527	5.269903	0.892746	-0.000105
1321	1.3134e+02	-6.2956	-21.996334	0.000385	3.851083	0.652391	-0.000077
1322	1.3144e+02	-6.3153	-22.137634	0.000709	7.094100	1.201773	-0.000142
1323	1.3154e+02	-6.3348	-22.262785	0.000628	6.283346	1.064428	-0.000126
1324	1.3164e+02	-6.3538	-22.424270	0.000811	8.107543	1.373455	-0.000162
1325	1.3174e+02	-6.3739	-22.541347	0.000588	5.877969	0.995755	-0.000118
1326	1.3184e+02	-6.3937	-22.690721	0.000750	7.499477	1.270446	-0.000150
1327	1.3194e+02	-6.4142	-22.787613	0.000486	4.864526	0.824073	-0.000097
1328	1.3204e+02	-6.4340	-22.924875	0.000689	6.891411	1.167437	-0.000138
1329	1.3214e+02	-6.4545	-23.029841	0.000527	5.269903	0.892746	-0.000105
1330	1.3224e+02	-6.4737	-23.163066	0.000669	6.688723	1.133100	-0.000134
1331	1.3234e+02	-6.4941	-23.288218	0.000628	6.283346	1.064428	-0.000126
1332	1.3243e+02	-6.5143	-23.433554	0.000730	7.296789	1.236109	-0.000146
1333	1.3253e+02	-6.5341	-23.558706	0.000628	6.283346	1.064428	-0.000126
1334	1.3263e+02	-6.5540	-23.679820	0.000608	6.080657	1.030091	-0.000122
1335	1.3273e+02	-6.5738	-23.841305	0.000811	8.107543	1.373455	-0.000162
1336	1.3283e+02	-6.5939	-23.918011	0.000385	3.851083	0.652391	-0.000077
1337	1.3293e+02	-6.6135	-24.055273	0.000689	6.891411	1.167437	-0.000138
1338	1.3303e+02	-6.6327	-24.196573	0.000709	7.094100	1.201773	-0.000142
1339	1.3313e+02	-6.6531	-24.297501	0.000507	5.067214	0.858409	-0.000101
1340	1.3323e+02	-6.6733	-24.483210	0.000932	9.323674	1.579473	-0.000187
1341	1.3333e+02	-6.6933	-24.604324	0.000608	6.080657	1.030091	-0.000122
1342	1.3343e+02	-6.7130	-24.717364	0.000568	5.675280	0.961418	-0.000114
1343	1.3353e+02	-6.7329	-24.834440	0.000588	5.877969	0.995755	-0.000118
1344	1.3363e+02	-6.7522	-24.967666	0.000669	6.688723	1.133100	-0.000134
1345	1.3373e+02	-6.7731	-25.149337	0.000912	9.120986	1.545137	-0.000183
1346	1.3383e+02	-6.7932	-25.262377	0.000568	5.675280	0.961418	-0.000114
1347	1.3393e+02	-6.8132	-25.411751	0.000750	7.499477	1.270446	-0.000150
1348	1.3403e+02	-6.8323	-25.516716	0.000527	5.269903	0.892746	-0.000105
1349	1.3413e+02	-6.8521	-25.714536	0.000993	9.931740	1.682482	-0.000199
1350	1.3423e+02	-6.8723	-25.815464	0.000507	5.067214	0.858409	-0.000101
1351	1.3432e+02	-6.8921	-25.948690	0.000669	6.688723	1.133100	-0.000134
1352	1.3442e+02	-6.9122	-26.061730	0.000568	5.675280	0.961418	-0.000114
1353	1.3452e+02	-6.9348	-26.211104	0.000750	7.499477	1.270446	-0.000150
1354	1.3462e+02	-6.9519	-26.384701	0.000872	8.715608	1.476464	-0.000174
1355	1.3472e+02	-6.9727	-26.505815	0.000608	6.080657	1.030091	-0.000122
1356	1.3482e+02	-6.9920	-26.647114	0.000709	7.094100	1.201773	-0.000142
1357	1.3492e+02	-7.0123	-26.812637	0.000831	8.310231	1.407791	-0.000166
1358	1.3502e+02	-7.0325	-26.978160	0.000831	8.310231	1.407791	-0.000166
1359	1.3512e+02	-7.0526	-27.111385	0.000669	6.688723	1.133100	-0.000134
1360	1.3522e+02	-7.0715	-27.212313	0.000507	5.067214	0.858409	-0.000101
1361	1.3532e+02	-7.0917	-27.377836	0.000831	8.310231	1.407791	-0.000166
1362	1.3542e+02	-7.1121	-27.535284	0.000790	7.904854	1.339119	-0.000158
1363	1.3552e+02	-7.1318	-27.684658	0.000750	7.499477	1.270446	-0.000150
1364	1.3562e+02	-7.1507	-27.789624	0.000527	5.269903	0.892746	-0.000105
1365	1.3572e+02	-7.1712	-27.967258	0.000892	8.918297	1.510800	-0.000179
1366	1.3582e+02	-7.1909	-28.080298	0.000568	5.675280	0.961418	-0.000114
1367	1.3592e+02	-7.2115	-28.233709	0.000770	7.702166	1.304782	-0.000154
1368	1.3602e+02	-7.2310	-28.427491	0.000973	9.729051	1.648146	-0.000195
1369	1.3612e+02	-7.2510	-28.548605	0.000608	6.080657	1.030091	-0.000122
1370	1.3622e+02	-7.2714	-28.718165	0.000851	8.512920	1.442128	-0.000170
1371	1.3631e+02	-7.2916	-28.867539	0.000750	7.499477	1.270446	-0.000150
1372	1.3641e+02	-7.3111	-28.980579	0.000568	5.675280	0.961418	-0.000114
1373	1.3651e+02	-7.3308	-29.133990	0.000770	7.702166	1.304782	-0.000154
1374	1.3661e+02	-7.3502	-29.335847	0.001013	10.134428	1.716819	-0.000203
1375	1.3671e+02	-7.3706	-29.452924	0.000588	5.877969	0.995755	-0.000118
1376	1.3681e+02	-7.3917	-29.614409	0.000811	8.107543	1.373455	-0.000162
1377	1.3691e+02	-7.4107	-29.775895	0.000811	8.107543	1.373455	-0.000162
1378	1.3701e+02	-7.4311	-29.941417	0.000831	8.310231	1.407791	-0.000166
1379	1.3711e+02	-7.4507	-30.070606	0.000649	6.486034	1.098764	-0.000130
1380	1.3721e+02	-7.4701	-30.224017	0.000770	7.702166	1.304782	-0.000154
1381	1.3731e+02	-7.4906	-30.393576	0.000851	8.512920	1.442128	-0.000170
1382	1.3741e+02	-7.5101	-30.555062	0.000811	8.107543	1.373455	-0.000162
1383	1.3751e+02	-7.5293	-30.668102	0.000568	5.675280	0.961418	-0.000114
1384	1.3761e+02	-7.5503	-30.886107	0.001095	10.945183	1.854164	-0.000219
1385	1.3771e+02	-7.5693	-31.023370	0.000689	6.891411	1.167437	-0.000138
1386	1.3781e+02	-7.5896	-31.176781	0.000770	7.702166	1.304782	-0.000154
1387	1.3791e+02	-7.6085	-31.354415	0.000892	8.918297	1.510800	-0.000179
1388	1.3801e+02	-7.6291	-31.515900	0.000811	8.107543	1.373455	-0.000162
1389	1.3811e+02	-7.6498	-31.673348	0.000790	7.904854	1.339119	-0.000158
1390	1.3821e+02	-7.6691	-31.850982	0.000892	8.918297	1.510800	-0.000179
1391	1.3831e+02	-7.6881	-31.984208	0.000669	6.688723	1.133100	-0.000134
1392	1.3840e+02	-7.7094	-32.202213	0.001095	10.945183	1.854164	-0.000219
1393	1.3850e+02	-7.7295	-32.319290	0.000588	5.877969	0.995755	-0.000118
1394	1.3860e+02	-7.7481	-32.529221	0.001054	10.539806	1.785491	-0.000211
1395	1.3870e+02	-7.7692	-32.706855	0.000892	8.918297	1.510800	-0.000179
1396	1.3880e+02	-7.7892	-32.832006	0.000628	6.283346	1.064428	-0.000126
1397	1.3890e+02	-7.8082	-32.993492	0.000811	8.107543	1.373455	-0.000162
1398	1.3900e+02	-7.8279	-33.134792	0.000709	7.094100	1.201773	-0.000142
1399	1.3910e+02	-7.8485	-33.348760	0.001074	10.742494	1.819828	-0.000215
1400	1.3920e+02	-7.8680	-33.526394	0.000892	8.918297	1.510800	-0.000179
1401	1.3930e+02	-7.8873	-33.712102	0.000932	9.323674	1.579473	-0.000187
1402	1.3940e+02	-7.9083	-33.849365	0.000689	6.891411	1.167437	-0.000138
1403	1.3950e+02	-7.9282	-34.014887	0.000831	8.310231	1.407791	-0.000166
1404	1.3960e+02	-7.9475	-34.212707	0.000993	9.931740	1.682482	-0.000199
1405	1.3970e+02	-7.9682	-34.382267	0.000851	8.512920	1.442128	-0.000170
1406	1.3980e+02	-7.9879	-34.588160	0.001034	10.337117	1.751155	-0.000207
1407	1.3990e+02	-8.0083	-34.737534	0.000750	7.499477	1.270446	-0.000150
1408	1.4000e+02	-8.0280	-34.919206	0.000912	9.120986	1.545137	-0.000183
1409	1.4010e+02	-8.0469	-35.112988	0.000973	9.729051	1.648146	-0.000195
1410	1.4020e+02	-8.0664	-35.282548	0.000851	8.512920	1.442128	-0.000170
1411	1.4029e+02	-8.0872	-35.472293	0.000953	9.526363	1.613810	-0.000191
1412	1.4039e+02	-8.1082	-35.653964	0.000912	9.120986	1.545137	-0.000183
1413	1.4049e+02	-8.1287	-35.827561	0.000872	8.715608	1.476464	-0.000174
1414	1.4059e+02	-8.1462	-36.037492	0.001054	10.539806	1.785491	-0.000211
1415	1.4069e+02	-8.1662	-36.186866	0.000750	7.499477	1.270446	-0.000150
1416	1.4079e+02	-8.1873	-36.372574	0.000932	9.323674	1.579473	-0.000187
1417	1.4089e+02	-8.2071	-36.590580	0.001095	10.945183	1.854164	-0.000219
1418	1.4099e+02	-8.2278	-36.816659	0.001135	11.350560	1.922837	-0.000227
1419	1.4109e+02	-8.2467	-37.002368	0.000932	9.323674	1.579473	-0.000187
1420	1.4119e+02	-8.2668	-37.196150	0.000973	9.729051	1.648146	-0.000195
1421	1.4129e+02	-8.2870	-37.361673	0.000831	8.310231	1.407791	-0.000166
1422	1.4139e+02	-8.3069	-37.591789	0.001155	11.553248	1.957173	-0.000231
1423	1.4149e+02	-8.3258	-37.797683	0.001034	10.337117	1.751155	-0.000207
1424	1.4159e+02	-8.3458	-38.007614	0.001054	10.539806	1.785491	-0.000211
1425	1.4169e+02	-8.3659	-38.161026	0.000770	7.702166	1.304782	-0.000154
1426	1.4179e+02	-8.3865	-38.354808	0.000973	9.729051	1.648146	-0.000195
1427	1.4189e+02	-8.4061	-38.552628	0.000993	9.931740	1.682482	-0.000199
1428	1.4199e+02	-8.4265	-38.746410	0.000973	9.729051	1.648146	-0.000195
1429	1.4209e+02	-8.4457	-39.020935	0.001378	13.782823	2.334873	-0.000276
1430	1.4219e+02	-8.4663	-39.158198	0.000689	6.891411	1.167437	-0.000138
1431	1.4228e+02	-8.4863	-39.408501	0.001257	12.566691	2.128855	-0.000252
1432	1.4238e+02	-8.5056	-39.610357	0.001013	10.134428	1.716819	-0.000203
1433	1.4248e+02	-8.5260	-39.824325	0.001074	10.742494	1.819828	-0.000215
1434	1.4258e+02	-8.5465	-40.014071	0.000953	9.526363	1.613810	-0.000191
1435	1.4268e+02	-8.5653	-40.224002	0.001054	10.539806	1.785491	-0.000211
1436	1.4278e+02	-8.5864	-40.409710	0.000932	9.323674	1.579473	-0.000187
1437	1.4288e+02	-8.6060	-40.660013	0.001257	12.566691	2.128855	-0.000252
1438	1.4298e+02	-8.6239	-40.873981	0.001074	10.742494	1.819828	-0.000215
1439	1.4308e+02	-8.6453	-41.120246	0.001236	12.364003	2.094519	-0.000248
1440	1.4318e+02	-8.6651	-41.350363	0.001155	11.553248	1.957173	-0.000231
1441	1.4328e+02	-8.6855	-41.503774	0.000770	7.702166	1.304782	-0.000154
1442	1.4338e+02	-8.7050	-41.750039	0.001236	12.364003	2.094519	-0.000248
1443	1.4348e+02	-8.7253	-41.955933	0.001034	10.337117	1.751155	-0.000207
1444	1.4358e+02	-8.7448	-42.226421	0.001358	13.580134	2.300537	-0.000272
1445	1.4368e+02	-8.7659	-42.452501	0.001135	11.350560	1.922837	-0.000227
1446	1.4378e+02	-8.7854	-42.654358	0.001013	10.134428	1.716819	-0.000203
1447	1.4388e+02	-8.8054	-42.892549	0.001196	11.958626	2.025846	-0.000239
1448	1.4398e+02	-8.8243	-43.078257	0.000932	9.323674	1.579473	-0.000187
1449	1.4408e+02	-8.8445	-43.344708	0.001338	13.377446	2.266201	-0.000268
1450	1.4418e+02	-8.8641	-43.611159	0.001338	13.377446	2.266201	-0.000268
1451	1.4428e+02	-8.8841	-43.861461	0.001257	12.566691	2.128855	-0.000252
1452	1.4437e+02	-8.9034	-44.055244	0.000973	9.729051	1.648146	-0.000195
1453	1.4447e+02	-8.9239	-44.309583	0.001277	12.769380	2.163192	-0.000256
1454	1.4457e+02	-8.9430	-44.543737	0.001176	11.755937	1.991510	-0.000235
1455	1.4467e+02	-8.9639	-44.765780	0.001115	11.147871	1.888501	-0.000223
1456	1.4477e+02	-8.9838	-45.048379	0.001419	14.188200	2.403546	-0.000284
1457	1.4487e+02	-9.0034	-45.298682	0.001257	12.566691	2.128855	-0.000252
1458	1.4497e+02	-9.0230	-45.544947	0.001236	12.364003	2.094519	-0.000248
1459	1.4507e+02	-9.0434	-45.791212	0.001236	12.364003	2.094519	-0.000248
1460	1.4517e+02	-9.0636	-46.029403	0.001196	11.958626	2.025846	-0.000239
1461	1.4527e+02	-9.0829	-46.287780	0.001297	12.972068	2.197528	-0.000260
1462	1.4537e+02	-9.1029	-46.538082	0.001257	12.566691	2.128855	-0.000252
1463	1.4547e+02	-9.1237	-46.828756	0.001459	14.593577	2.472219	-0.000292
1464	1.4557e+02	-9.1431	-47.050798	0.001115	11.147871	1.888501	-0.000223
1465	1.4567e+02	-9.1626	-47.353584	0.001520	15.201643	2.575228	-0.000304
1466	1.4577e+02	-9.1827	-47.575626	0.001115	11.147871	1.888501	-0.000223
1467	1.4587e+02	-9.2026	-47.825929	0.001257	12.566691	2.128855	-0.000252
1468	1.4597e+02	-9.2233	-48.112565	0.001439	14.390888	2.437882	-0.000288
1469	1.4607e+02	-9.2422	-48.407276	0.001480	14.796266	2.506555	-0.000296
1470	1.4617e+02	-9.2618	-48.685838	0.001399	13.985511	2.369210	-0.000280
1471	1.4626e+02	-9.2818	-48.924029	0.001196	11.958626	2.025846	-0.000239
1472	1.4636e+02	-9.3024	-49.259112	0.001682	16.823151	2.849919	-0.000337
1473	1.4646e+02	-9.3224	-49.485191	0.001135	11.350560	1.922837	-0.000227
1474	1.4656e+02	-9.3428	-49.739531	0.001277	12.769380	2.163192	-0.000256
1475	1.4666e+02	-9.3619	-50.058465	0.001601	16.012397	2.712573	-0.000321
1476	1.4676e+02	-9.3832	-50.324916	0.001338	13.377446	2.266201	-0.000268
1477	1.4686e+02	-9.4016	-50.627701	0.001520	15.201643	2.575228	-0.000304
1478	1.4696e+02	-9.4218	-50.950672	0.001622	16.215086	2.746910	-0.000325
1479	1.4706e+02	-9.4428	-51.229234	0.001399	13.985511	2.369210	-0.000280
1480	1.4716e+02	-9.4617	-51.491648	0.001317	13.174757	2.231864	-0.000264
1481	1.4726e+02	-9.4804	-51.814619	0.001622	16.215086	2.746910	-0.000325
1482	1.4736e+02	-9.4981	-52.097218	0.001419	14.188200	2.403546	-0.000284
1483	1.4746e+02	-9.5215	-52.408078	0.001561	15.607020	2.643901	-0.000312
1484	1.4756e+02	-9.5424	-52.731048	0.001622	16.215086	2.746910	-0.000325
1485	1.4766e+02	-9.5610	-53.049982	0.001601	16.012397	2.712573	-0.000321
1486	1.4776e+02	-9.5807	-53.340656	0.001459	14.593577	2.472219	-0.000292
1487	1.4786e+02	-9.6005	-53.643441	0.001520	15.201643	2.575228	-0.000304
1488	1.4796e+02	-9.6211	-53.966412	0.001622	16.215086	2.746910	-0.000325
1489	1.4806e+02	-9.6416	-54.297457	0.001662	16.620463	2.815583	-0.000333
1490	1.4816e+02	-9.6627	-54.620428	0.001622	16.215086	2.746910	-0.000325
1491	1.4825e+02	-9.6811	-54.951473	0.001662	16.620463	2.815583	-0.000333
1492	1.4835e+02	-9.7005	-55.238110	0.001439	14.390888	2.437882	-0.000288
1493	1.4845e+02	-9.7211	-55.569155	0.001662	16.620463	2.815583	-0.000333
1494	1.4855e+02	-9.7412	-55.900200	0.001662	16.620463	2.815583	-0.000333
1495	1.4865e+02	-9.7604	-56.227208	0.001642	16.417774	2.781246	-0.000329
1496	1.4875e+02	-9.7807	-56.574402	0.001743	17.431217	2.952928	-0.000349
1497	1.4885e+02	-9.8004	-56.933707	0.001804	18.039283	3.055937	-0.000361
1498	1.4895e+02	-9.8213	-57.268789	0.001682	16.823151	2.849919	-0.000337
1499	1.4905e+02	-9.8393	-57.624057	0.001784	17.836594	3.021601	-0.000357
1500	1.4915e+02	-9.8606	-57.955102	0.001662	16.620463	2.815583	-0.000333
1501	1.4925e+02	-9.8802	-58.274036	0.001601	16.012397	2.712573	-0.000321
1502	1.4935e+02	-9.9005	-58.645452	0.001865	18.647348	3.158946	-0.000373
1503	1.4945e+02	-9.9193	-59.000720	0.001784	17.836594	3.021601	-0.000357
1504	1.4955e+02	-9.9402	-59.392322	0.001966	19.660791	3.330628	-0.000394
1505	1.4965e+02	-9.9597	-59.723368	0.001662	16.620463	2.815583	-0.000333
1506	1.4975e+02	-9.9792	-60.098821	0.001885	18.850037	3.193283	-0.000377
1507	1.4985e+02	-10.0000	-60.450052	0.001763	17.633906	2.987264	-0.000353
1508	1.4995e+02	-9.9800	-60.664020	-0.001074	-10.742494	-1.819828	-0.000215
1509	1.5005e+02	-9.9596	-60.882025	-0.001095	-10.945183	-1.854164	-0.000219
1510	1.5015e+02	-9.9390	-61.087919	-0.001034	-10.337117	-1.751155	-0.000207
1511	1.5025e+02	-9.9200	-61.277665	-0.000953	-9.526363	-1.613810	-0.000191
1512	1.5034e+02	-9.9002	-61.487596	-0.001054	-10.539806	-1.785491	-0.000211
1513	1.5044e+02	-9.8799	-61.612747	-0.000628	-6.283346	-1.064428	-0.000126
1514	1.5054e+02	-9.8601	-61.786344	-0.000872	-8.715608	-1.476464	-0.000174
1515	1.5064e+02	-9.8401	-61.951866	-0.000831	-8.310231	-1.407791	-0.000166
1516	1.5074e+02	-9.8195	-62.117389	-0.000831	-8.310231	-1.407791	-0.000166
1517	1.5084e+02	-9.7997	-62.242540	-0.000628	-6.283346	-1.064428	-0.000126
1518	1.5094e+02	-9.7815	-62.387877	-0.000730	-7.296789	-1.236109	-0.000146
1519	1.5104e+02	-9.7602	-62.517065	-0.000649	-6.486034	-1.098764	-0.000130
1520	1.5114e+02	-9.7409	-62.609920	-0.000466	-4.661837	-0.789737	-0.000093
1521	1.5124e+02	-9.7205	-62.779479	-0.000851	-8.512920	-1.442128	-0.000170
1522	1.5134e+02	-9.7008	-62.840036	-0.000304	-3.040329	-0.515046	-0.000061
1523	1.5144e+02	-9.6811	-62.969225	-0.000649	-6.486034	-1.098764	-0.000130
1524	1.5154e+02	-9.6617	-63.041893	-0.000365	-3.648394	-0.618055	-0.000073
1525	1.5164e+02	-9.6418	-63.158970	-0.000588	-5.877969	-0.995755	-0.000118
1526	1.5174e+02	-9.6210	-63.280084	-0.000608	-6.080657	-1.030091	-0.000122
1527	1.5184e+02	-9.6005	-63.348715	-0.000345	-3.445706	-0.583718	-0.000069
1528	1.5194e+02	-9.5816	-63.473867	-0.000628	-6.283346	-1.064428	-0.000126
1529	1.5204e+02	-9.5609	-63.490015	-0.000081	-0.810754	-0.137345	-0.000016
1530	1.5214e+02	-9.5416	-63.582869	-0.000466	-4.661837	-0.789737	-0.000093
1531	1.5224e+02	-9.5219	-63.635352	-0.000263	-2.634951	-0.446373	-0.000053
1532	1.5233e+02	-9.5016	-63.732243	-0.000486	-4.864526	-0.824073	-0.000097
1533	1.5243e+02	-9.4823	-63.812986	-0.000405	-4.053771	-0.686727	-0.000081
1534	1.5253e+02	-9.4617	-63.901803	-0.000446	-4.459149	-0.755400	-0.000089
1535	1.5263e+02	-9.4415	-63.958323	-0.000284	-2.837640	-0.480709	-0.000057
1536	1.5273e+02	-9.4214	-64.030991	-0.000365	-3.648394	-0.618055	-0.000073
1537	1.5283e+02	-9.4013	-64.051177	-0.000101	-1.013443	-0.171682	-0.000020
1538	1.5293e+02	-9.3819	-64.139994	-0.000446	-4.459149	-0.755400	-0.000089
1539	1.5303e+02	-9.3628	-64.180365	-0.000203	-2.026886	-0.343364	-0.000041
1540	1.5313e+02	-9.3419	-64.240922	-0.000304	-3.040329	-0.515046	-0.000061
1541	1.5323e+02	-9.3217	-64.240922	0.000000	0.000000	0.000000	0.000000
1542	1.5333e+02	-9.3016	-64.317628	-0.000385	-3.851083	-0.652391	-0.000077
1543	1.5343e+02	-9.2821	-64.341851	-0.000122	-1.216131	-0.206018	-0.000024
1544	1.5353e+02	-9.2622	-64.378185	-0.000182	-1.824197	-0.309027	-0.000037
1545	1.5363e+02	-9.2429	-64.410482	-0.000162	-1.621509	-0.274691	-0.000032
1546	1.5373e+02	-9.2221	-64.442779	-0.000162	-1.621509	-0.274691	-0.000032
1547	1.5383e+02	-9.2036	-64.446816	-0.000020	-0.202689	-0.034336	-0.000004
1548	1.5393e+02	-9.1837	-64.487188	-0.000203	-2.026886	-0.343364	-0.000041
1549	1.5403e+02	-9.1630	-64.519485	-0.000162	-1.621509	-0.274691	-0.000032
1550	1.5413e+02	-9.1437	-64.559856	-0.000203	-2.026886	-0.343364	-0.000041
1551	1.5422e+02	-9.1229	-64.588116	-0.000142	-1.418820	-0.240355	-0.000028
1552	1.5432e+02	-9.1036	-64.576005	0.000061	0.608066	0.103009	0.000012
1553	1.5442e+02	-9.0831	-64.600228	-0.000122	-1.216131	-0.206018	-0.000024
1554	1.5452e+02	-9.0628	-64.640599	-0.000203	-2.026886	-0.343364	-0.000041
1555	1.5462e+02	-9.0431	-64.632525	0.000041	0.405377	0.068673	0.000008
1556	1.5472e+02	-9.0231	-64.628487	0.000020	0.202689	0.034336	0.000004
1557	1.5482e+02	-9.0036	-64.628487	0.000000	0.000000	0.000000	0.000000
1558	1.5492e+02	-8.9835	-64.676933	-0.000243	-2.432263	-0.412036	-0.000049
1559	1.5502e+02	-8.9639	-64.680970	-0.000020	-0.202689	-0.034336	-0.000004
1560	1.5512e+02	-8.9452	-64.656747	0.000122	1.216131	0.206018	0.000024
1561	1.5522e+02	-8.9240	-64.660785	-0.000020	-0.202689	-0.034336	-0.000004
1562	1.5532e+02	-8.9039	-64.672896	-0.000061	-0.608066	-0.103009	-0.000012
1563	1.5542e+02	-8.8834	-64.680970	-0.000041	-0.405377	-0.068673	-0.000008
1564	1.5552e+02	-8.8643	-64.672896	0.000041	0.405377	0.068673	0.000008
1565	1.5562e+02	-8.8444	-64.660785	0.000061	0.608066	0.103009	0.000012
1566	1.5572e+02	-8.8248	-64.668859	-0.000041	-0.405377	-0.068673	-0.000008
1567	1.5582e+02	-8.8032	-64.664822	0.000020	0.202689	0.034336	0.000004
1568	1.5592e+02	-8.7845	-64.600228	0.000324	3.243017	0.549382	0.000065
1569	1.5602e+02	-8.7651	-64.612339	-0.000061	-0.608066	-0.103009	-0.000012
1570	1.5612e+02	-8.7439	-64.616376	-0.000020	-0.202689	-0.034336	-0.000004
1571	1.5622e+02	-8.7244	-64.604265	0.000061	0.608066	0.103009	0.000012
1572	1.5631e+02	-8.7050	-64.612339	-0.000041	-0.405377	-0.068673	-0.000008
1573	1.5641e+02	-8.6853	-64.559856	0.000263	2.634951	0.446373	0.000053
1574	1.5651e+02	-8.6655	-64.571968	-0.000061	-0.608066	-0.103009	-0.000012
1575	1.5661e+02	-8.6450	-64.535633	0.000182	1.824197	0.309027	0.000037
1576	1.5671e+02	-8.6254	-64.535633	0.000000	0.000000	0.000000	0.000000
1577	1.5681e+02	-8.6054	-64.511411	0.000122	1.216131	0.206018	0.000024
1578	1.5691e+02	-8.5852	-64.479113	0.000162	1.621509	0.274691	0.000032
1579	1.5701e+02	-8.5666	-64.462965	0.000081	0.810754	0.137345	0.000016
1580	1.5711e+02	-8.5457	-64.430668	0.000162	1.621509	0.274691	0.000032
1581	1.5721e+02	-8.5257	-64.422594	0.000041	0.405377	0.068673	0.000008
1582	1.5731e+02	-8.5057	-64.394334	0.000142	1.418820	0.240355	0.000028
1583	1.5741e+02	-8.4862	-64.337814	0.000284	2.837640	0.480709	0.000057
1584	1.5751e+02	-8.4663	-64.305517	0.000162	1.621509	0.274691	0.000032
1585	1.5761e+02	-8.4448	-64.289368	0.000081	0.810754	0.137345	0.000016
1586	1.5771e+02	-8.4272	-64.273220	0.000081	0.810754	0.137345	0.000016
1587	1.5781e+02	-8.4064	-64.261108	0.000061	0.608066	0.103009	0.000012
1588	1.5791e+02	-8.3865	-64.240922	0.000101	1.013443	0.171682	0.000020
1589	1.5801e+02	-8.3662	-64.180365	0.000304	3.040329	0.515046	0.000061
1590	1.5811e+02	-8.3467	-64.160180	0.000101	1.013443	0.171682	0.000020
1591	1.5821e+02	-8.3263	-64.111734	0.000243	2.432263	0.412036	0.000049
1592	1.5830e+02	-8.3060	-64.127883	-0.000081	-0.810754	-0.137345	-0.000016
1593	1.5840e+02	-8.2864	-64.075400	0.000263	2.634951	0.446373	0.000053
1594	1.5850e+02	-8.2657	-64.051177	0.000122	1.216131	0.206018	0.000024
1595	1.5860e+02	-8.2466	-63.986583	0.000324	3.243017	0.549382	0.000065
1596	1.5870e+02	-8.2272	-63.921989	0.000324	3.243017	0.549382	0.000065
1597	1.5880e+02	-8.2068	-63.893729	0.000142	1.418820	0.240355	0.000028
1598	1.5890e+02	-8.1868	-63.889692	0.000020	0.202689	0.034336	0.000004
1599	1.5900e+02	-8.1673	-63.825097	0.000324	3.243017	0.549382	0.000065
1600	1.5910e+02	-8.1493	-63.792800	0.000162	1.621509	0.274691	0.000032
1601	1.5920e+02	-8.1271	-63.708021	0.000426	4.256460	0.721064	0.000085
1602	1.5930e+02	-8.1073	-63.716095	-0.000041	-0.405377	-0.068673	-0.000008
1603	1.5940e+02	-8.0876	-63.659575	0.000284	2.837640	0.480709	0.000057
1604	1.5950e+02	-8.0676	-63.615166	0.000223	2.229574	0.377700	0.000045
1605	1.5960e+02	-8.0469	-63.550572	0.000324	3.243017	0.549382	0.000065
1606	1.5970e+02	-8.0280	-63.514238	0.000182	1.824197	0.309027	0.000037
1607	1.5980e+02	-8.0081	-63.441570	0.000365	3.648394	0.618055	0.000073
1608	1.5990e+02	-7.9881	-63.421384	0.000101	1.013443	0.171682	0.000020
1609	1.6000e+02	-7.9672	-63.397161	0.000122	1.216131	0.206018	0.000024
1610	1.6010e+02	-7.9485	-63.304307	0.000466	4.661837	0.789737	0.000093
1611	1.6019e+02	-7.9279	-63.324493	-0.000101	-1.013443	-0.171682	-0.000020
1612	1.6029e+02	-7.9083	-63.231638	0.000466	4.661837	0.789737	0.000093
1613	1.6039e+02	-7.8879	-63.154933	0.000385	3.851083	0.652391	0.000077
1614	1.6049e+02	-7.8685	-63.102450	0.000263	2.634951	0.446373	0.000053
1615	1.6059e+02	-7.8482	-63.098413	0.000020	0.202689	0.034336	0.000004
1616	1.6069e+02	-7.8290	-63.045930	0.000263	2.634951	0.446373	0.000053
1617	1.6079e+02	-7.8091	-62.973262	0.000365	3.648394	0.618055	0.000073
1618	1.6089e+02	-7.7890	-62.872333	0.000507	5.067214	0.858409	0.000101
1619	1.6099e+02	-7.7682	-62.860222	0.000061	0.608066	0.103009	0.000012
1620	1.6109e+02	-7.7479	-62.811776	0.000243	2.432263	0.412036	0.000049
1621	1.6119e+02	-7.7283	-62.767368	0.000223	2.229574	0.377700	0.000045
1622	1.6129e+02	-7.7084	-62.702774	0.000324	3.243017	0.549382	0.000065
1623	1.6139e+02	-7.6883	-62.634142	0.000345	3.445706	0.583718	0.000069
1624	1.6149e+02	-7.6689	-62.569548	0.000324	3.243017	0.549382	0.000065
1625	1.6159e+02	-7.6489	-62.529177	0.000203	2.026886	0.343364	0.000041
1626	1.6169e+02	-7.6296	-62.496880	0.000162	1.621509	0.274691	0.000032
1627	1.6179e+02	-7.6080	-62.428248	0.000345	3.445706	0.583718	0.000069
1628	1.6189e+02	-7.5891	-62.351543	0.000385	3.851083	0.652391	0.000077
1629	1.6199e+02	-7.5693	-62.295023	0.000284	2.837640	0.480709	0.000057
1630	1.6209e+02	-7.5491	-62.262726	0.000162	1.621509	0.274691	0.000032
1631	1.6219e+02	-7.5279	-62.173909	0.000446	4.459149	0.755400	0.000089
1632	1.6228e+02	-7.5095	-62.133538	0.000203	2.026886	0.343364	0.000041
1633	1.6238e+02	-7.4907	-62.081055	0.000263	2.634951	0.446373	0.000053
1634	1.6248e+02	-7.4703	-61.988201	0.000466	4.661837	0.789737	0.000093
1635	1.6258e+02	-7.4493	-61.959941	0.000142	1.418820	0.240355	0.000028
1636	1.6268e+02	-7.4304	-61.919569	0.000203	2.026886	0.343364	0.000041
1637	1.6278e+02	-7.4106	-61.818641	0.000507	5.067214	0.858409	0.000101
1638	1.6288e+02	-7.3903	-61.725787	0.000466	4.661837	0.789737	0.000093
1639	1.6298e+02	-7.3703	-61.677341	0.000243	2.432263	0.412036	0.000049
1640	1.6308e+02	-7.3502	-61.653118	0.000122	1.216131	0.206018	0.000024
1641	1.6318e+02	-7.3317	-61.624858	0.000142	1.418820	0.240355	0.000028
1642	1.6328e+02	-7.3108	-61.544116	0.000405	4.053771	0.686727	0.000081
1643	1.6338e+02	-7.2916	-61.463373	0.000405	4.053771	0.686727	0.000081
1644	1.6348e+02	-7.2708	-61.386667	0.000385	3.851083	0.652391	0.000077
1645	1.6358e+02	-7.2516	-61.301888	0.000426	4.256460	0.721064	0.000085
1646	1.6368e+02	-7.2305	-61.245368	0.000284	2.837640	0.480709	0.000057
1647	1.6378e+02	-7.2115	-61.200959	0.000223	2.229574	0.377700	0.000045
1648	1.6388e+02	-7.1916	-61.156551	0.000223	2.229574	0.377700	0.000045
1649	1.6398e+02	-7.1710	-61.059659	0.000486	4.864526	0.824073	0.000097
1650	1.6408e+02	-7.1512	-60.999102	0.000304	3.040329	0.515046	0.000061
1651	1.6418e+02	-7.1313	-60.946620	0.000263	2.634951	0.446373	0.000053
1652	1.6427e+02	-7.1126	-60.869914	0.000385	3.851083	0.652391	0.000077
1653	1.6437e+02	-7.0914	-60.809357	0.000304	3.040329	0.515046	0.000061
1654	1.6447e+02	-7.0715	-60.732651	0.000385	3.851083	0.652391	0.000077
1655	1.6457e+02	-7.0520	-60.659983	0.000365	3.648394	0.618055	0.000073
1656	1.6467e+02	-7.0322	-60.603463	0.000284	2.837640	0.480709	0.000057
1657	1.6477e+02	-7.0126	-60.550980	0.000263	2.634951	0.446373	0.000053
1658	1.6487e+02	-6.9917	-60.474275	0.000385	3.851083	0.652391	0.000077
1659	1.6497e+02	-6.9723	-60.429866	0.000223	2.229574	0.377700	0.000045
1660	1.6507e+02	-6.9527	-60.357198	0.000365	3.648394	0.618055	0.000073
1661	1.6517e+02	-6.9318	-60.268381	0.000446	4.459149	0.755400	0.000089
1662	1.6527e+02	-6.9128	-60.183601	0.000426	4.256460	0.721064	0.000085
1663	1.6537e+02	-6.8921	-60.114970	0.000345	3.445706	0.583718	0.000069
1664	1.6547e+02	-6.8724	-60.042301	0.000365	3.648394	0.618055	0.000073
1665	1.6557e+02	-6.8523	-59.973670	0.000345	3.445706	0.583718	0.000069
1666	1.6567e+02	-6.8330	-59.913113	0.000304	3.040329	0.515046	0.000061
1667	1.6577e+02	-6.8132	-59.848519	0.000324	3.243017	0.549382	0.000065
1668	1.6587e+02	-6.7932	-59.804110	0.000223	2.229574	0.377700	0.000045
1669	1.6597e+02	-6.7722	-59.739516	0.000324	3.243017	0.549382	0.000065
1670	1.6607e+02	-6.7535	-59.654736	0.000426	4.256460	0.721064	0.000085
1671	1.6616e+02	-6.7340	-59.578031	0.000385	3.851083	0.652391	0.000077
1672	1.6626e+02	-6.7123	-59.485177	0.000466	4.661837	0.789737	0.000093
1673	1.6636e+02	-6.6938	-59.420582	0.000324	3.243017	0.549382	0.000065
1674	1.6646e+02	-6.6744	-59.372137	0.000243	2.432263	0.412036	0.000049
1675	1.6656e+02	-6.6531	-59.263134	0.000547	5.472591	0.927082	0.000110
1676	1.6666e+02	-6.6327	-59.178354	0.000426	4.256460	0.721064	0.000085
1677	1.6676e+02	-6.6135	-59.154131	0.000122	1.216131	0.206018	0.000024
1678	1.6686e+02	-6.5927	-58.972460	0.000912	9.120986	1.545137	0.000183
1679	1.6696e+02	-6.5744	-58.976497	-0.000020	-0.202689	-0.034336	-0.000004
1680	1.6706e+02	-6.5540	-58.936126	0.000203	2.026886	0.343364	0.000041
1681	1.6716e+02	-6.5335	-58.831161	0.000527	5.269903	0.892746	0.000105
1682	1.6726e+02	-6.5140	-58.738306	0.000466	4.661837	0.789737	0.000093
1683	1.6736e+02	-6.4936	-58.685824	0.000263	2.634951	0.446373	0.000053
1684	1.6746e+02	-6.4742	-58.580858	0.000527	5.269903	0.892746	0.000105
1685	1.6756e+02	-6.4539	-58.556635	0.000122	1.216131	0.206018	0.000024
1686	1.6766e+02	-6.4346	-58.451670	0.000527	5.269903	0.892746	0.000105
1687	1.6776e+02	-6.4139	-58.354779	0.000486	4.864526	0.824073	0.000097
1688	1.6786e+02	-6.3942	-58.306333	0.000243	2.432263	0.412036	0.000049
1689	1.6796e+02	-6.3733	-58.221553	0.000426	4.256460	0.721064	0.000085
1690	1.6806e+02	-6.3547	-58.136773	0.000426	4.256460	0.721064	0.000085
1691	1.6816e+02	-6.3358	-58.064105	0.000365	3.648394	0.618055	0.000073
1692	1.6825e+02	-6.3150	-57.999511	0.000324	3.243017	0.549382	0.000065
1693	1.6835e+02	-6.2952	-57.902619	0.000486	4.864526	0.824073	0.000097
1694	1.6845e+02	-6.2747	-57.829951	0.000365	3.648394	0.618055	0.000073
1695	1.6855e+02	-6.2555	-57.813802	0.000081	0.810754	0.137345	0.000016
1696	1.6865e+02	-6.2352	-57.684614	0.000649	6.486034	1.098764	0.000130
1697	1.6875e+02	-6.2146	-57.640205	0.000223	2.229574	0.377700	0.000045
1698	1.6885e+02	-6.1950	-57.547351	0.000466	4.661837	0.789737	0.000093
1699	1.6895e+02	-6.1748	-57.502943	0.000223	2.229574	0.377700	0.000045
1700	1.6905e+02	-6.1565	-57.406052	0.000486	4.864526	0.824073	0.000097
1701	1.6915e+02	-6.1357	-57.301086	0.000527	5.269903	0.892746	0.000105
1702	1.6925e+02	-6.1163	-57.228418	0.000365	3.648394	0.618055	0.000073
1703	1.6935e+02	-6.0953	-57.175935	0.000263	2.634951	0.446373	0.000053
1704	1.6945e+02	-6.0754	-57.066932	0.000547	5.472591	0.927082	0.000110
1705	1.6955e+02	-6.0556	-57.002338	0.000324	3.243017	0.549382	0.000065
1706	1.6965e+02	-6.0361	-56.909484	0.000466	4.661837	0.789737	0.000093
1707	1.6975e+02	-6.0156	-56.824704	0.000426	4.256460	0.721064	0.000085
1708	1.6985e+02	-5.9966	-56.768184	0.000284	2.837640	0.480709	0.000057
1709	1.6995e+02	-5.9759	-56.675330	0.000466	4.661837	0.789737	0.000093
1710	1.7005e+02	-5.9560	-56.610736	0.000324	3.243017	0.549382	0.000065
1711	1.7015e+02	-5.9363	-56.538067	0.000365	3.648394	0.618055	0.000073
1712	1.7024e+02	-5.9160	-56.441176	0.000486	4.864526	0.824073	0.000097
1713	1.7034e+02	-5.8969	-56.356396	0.000426	4.256460	0.721064	0.000085
1714	1.7044e+02	-5.8765	-56.271616	0.000426	4.256460	0.721064	0.000085
1715	1.7054e+02	-5.8568	-56.182799	0.000446	4.459149	0.755400	0.000089
1716	1.7064e+02	-5.8374	-56.114168	0.000345	3.445706	0.583718	0.000069
1717	1.7074e+02	-5.8170	-56.041500	0.000365	3.648394	0.618055	0.000073
1718	1.7084e+02	-5.7973	-55.976906	0.000324	3.243017	0.549382	0.000065
1719	1.7094e+02	-5.7770	-55.875977	0.000507	5.067214	0.858409	0.000101
1720	1.7104e+02	-5.7562	-55.811383	0.000324	3.243017	0.549382	0.000065
1721	1.7114e+02	-5.7364	-55.698343	0.000568	5.675280	0.961418	0.000114
1722	1.7124e+02	-5.7167	-55.678158	0.000101	1.013443	0.171682	0.000020
1723	1.7134e+02	-5.6969	-55.536858	0.000709	7.094100	1.201773	0.000142
1724	1.7144e+02	-5.6770	-55.468226	0.000345	3.445706	0.583718	0.000069
1725	1.7154e+02	-5.6564	-55.335001	0.000669	6.688723	1.133100	0.000134
1726	1.7164e+02	-5.6375	-55.310778	0.000122	1.216131	0.206018	0.000024
1727	1.7174e+02	-5.6177	-55.201776	0.000547	5.472591	0.927082	0.000110
1728	1.7184e+02	-5.5981	-55.100847	0.000507	5.067214	0.858409	0.000101
1729	1.7194e+02	-5.5772	-55.056439	0.000223	2.229574	0.377700	0.000045
1730	1.7204e+02	-5.5578	-54.963585	0.000466	4.661837	0.789737	0.000093
1731	1.7213e+02	-5.5383	-54.878805	0.000426	4.256460	0.721064	0.000085
1732	1.7223e+02	-5.5186	-54.814210	0.000324	3.243017	0.549382	0.000065
1733	1.7233e+02	-5.4980	-54.705208	0.000547	5.472591	0.927082	0.000110
1734	1.7243e+02	-5.4781	-54.608317	0.000486	4.864526	0.824073	0.000097
1735	1.7253e+02	-5.4581	-54.531611	0.000385	3.851083	0.652391	0.000077
1736	1.7263e+02	-5.4382	-54.442794	0.000446	4.459149	0.755400	0.000089
1737	1.7273e+02	-5.4173	-54.349940	0.000466	4.661837	0.789737	0.000093
1738	1.7283e+02	-5.3984	-54.261123	0.000446	4.459149	0.755400	0.000089
1739	1.7293e+02	-5.3795	-54.172306	0.000446	4.459149	0.755400	0.000089
1740	1.7303e+02	-5.3587	-54.087526	0.000426	4.256460	0.721064	0.000085
1741	1.7313e+02	-5.3392	-53.994672	0.000466	4.661837	0.789737	0.000093
1742	1.7323e+02	-5.3187	-53.934115	0.000304	3.040329	0.515046	0.000061
1743	1.7333e+02	-5.2994	-53.857409	0.000385	3.851083	0.652391	0.000077
1744	1.7343e+02	-5.2780	-53.720147	0.000689	6.891411	1.167437	0.000138
1745	1.7353e+02	-5.2596	-53.647478	0.000365	3.648394	0.618055	0.000073
1746	1.7363e+02	-5.2393	-53.550587	0.000486	4.864526	0.824073	0.000097
1747	1.7373e+02	-5.2197	-53.477919	0.000365	3.648394	0.618055	0.000073
1748	1.7383e+02	-5.1977	-53.389102	0.000446	4.459149	0.755400	0.000089
1749	1.7393e+02	-5.1844	-53.267987	0.000608	6.080657	1.030091	0.000122
1750	1.7403e+02	-5.1590	-53.215505	0.000263	2.634951	0.446373	0.000053
1751	1.7413e+02	-5.1402	-53.102465	0.000568	5.675280	0.961418	0.000114
1752	1.7422e+02	-5.1199	-53.037871	0.000324	3.243017	0.549382	0.000065
1753	1.7432e+02	-5.0989	-52.953091	0.000426	4.256460	0.721064	0.000085
1754	1.7442e+02	-5.0792	-52.840051	0.000568	5.675280	0.961418	0.000114
1755	1.7452e+02	-5.0587	-52.747197	0.000466	4.661837	0.789737	0.000093
1756	1.7462e+02	-5.0400	-52.674529	0.000365	3.648394	0.618055	0.000073
1757	1.7472e+02	-5.0203	-52.557452	0.000588	5.877969	0.995755	0.000118
1758	1.7482e+02	-4.9998	-52.496895	0.000304	3.040329	0.515046	0.000061
1759	1.7492e+02	-4.9796	-52.452486	0.000223	2.229574	0.377700	0.000045
1760	1.7502e+02	-4.9602	-52.339446	0.000568	5.675280	0.961418	0.000114
1761	1.7512e+02	-4.9409	-52.262741	0.000385	3.851083	0.652391	0.000077
1762	1.7522e+02	-4.9196	-52.145664	0.000588	5.877969	0.995755	0.000118
1763	1.7532e+02	-4.8997	-52.101255	0.000223	2.229574	0.377700	0.000045
1764	1.7542e+02	-4.8807	-51.992253	0.000547	5.472591	0.927082	0.000110
1765	1.7552e+02	-4.8601	-51.859027	0.000669	6.688723	1.133100	0.000134
1766	1.7562e+02	-4.8407	-51.750024	0.000547	5.472591	0.927082	0.000110
1767	1.7572e+02	-4.8203	-51.685430	0.000324	3.243017	0.549382	0.000065
1768	1.7582e+02	-4.8009	-51.620836	0.000324	3.243017	0.549382	0.000065
1769	1.7592e+02	-4.7810	-51.491648	0.000649	6.486034	1.098764	0.000130
1770	1.7602e+02	-4.7607	-51.398794	0.000466	4.661837	0.789737	0.000093
1771	1.7612e+02	-4.7400	-51.326125	0.000365	3.648394	0.618055	0.000073
1772	1.7621e+02	-4.7212	-51.237308	0.000446	4.459149	0.755400	0.000089
1773	1.7631e+02	-4.7008	-51.120231	0.000588	5.877969	0.995755	0.000118
1774	1.7641e+02	-4.6808	-51.051600	0.000345	3.445706	0.583718	0.000069
1775	1.7651e+02	-4.6613	-50.942597	0.000547	5.472591	0.927082	0.000110
1776	1.7661e+02	-4.6416	-50.845706	0.000486	4.864526	0.824073	0.000097
1777	1.7671e+02	-4.6210	-50.760926	0.000426	4.256460	0.721064	0.000085
1778	1.7681e+02	-4.6011	-50.696332	0.000324	3.243017	0.549382	0.000065
1779	1.7691e+02	-4.5813	-50.575218	0.000608	6.080657	1.030091	0.000122
1780	1.7701e+02	-4.5602	-50.478327	0.000486	4.864526	0.824073	0.000097
1781	1.7711e+02	-4.5406	-50.369324	0.000547	5.472591	0.927082	0.000110
1782	1.7721e+02	-4.5218	-50.244173	0.000628	6.283346	1.064428	0.000126
1783	1.7731e+02	-4.5015	-50.183616	0.000304	3.040329	0.515046	0.000061
1784	1.7741e+02	-4.4813	-50.062502	0.000608	6.080657	1.030091	0.000122
1785	1.7751e+02	-4.4624	-49.993870	0.000345	3.445706	0.583718	0.000069
1786	1.7761e+02	-4.4424	-49.880831	0.000568	5.675280	0.961418	0.000114
1787	1.7771e+02	-4.4220	-49.812199	0.000345	3.445706	0.583718	0.000069
1788	1.7781e+02	-4.4022	-49.703197	0.000547	5.472591	0.927082	0.000110
1789	1.7791e+02	-4.3819	-49.582083	0.000608	6.080657	1.030091	0.000122
1790	1.7801e+02	-4.3621	-49.521526	0.000304	3.040329	0.515046	0.000061
1791	1.7810e+02	-4.3422	-49.388300	0.000669	6.688723	1.133100	0.000134
1792	1.7820e+02	-4.3230	-49.299483	0.000446	4.459149	0.755400	0.000089
1793	1.7830e+02	-4.3018	-49.206629	0.000466	4.661837	0.789737	0.000093
1794	1.7840e+02	-4.2833	-49.105701	0.000507	5.067214	0.858409	0.000101
1795	1.7850e+02	-4.2633	-49.000735	0.000527	5.269903	0.892746	0.000105
1796	1.7860e+02	-4.2410	-48.940178	0.000304	3.040329	0.515046	0.000061
1797	1.7870e+02	-4.2223	-48.802915	0.000689	6.891411	1.167437	0.000138
1798	1.7880e+02	-4.2021	-48.697950	0.000527	5.269903	0.892746	0.000105
1799	1.7890e+02	-4.1820	-48.625281	0.000365	3.648394	0.618055	0.000073
1800	1.7900e+02	-4.1629	-48.524353	0.000507	5.067214	0.858409	0.000101
1801	1.7910e+02	-4.1435	-48.435536	0.000446	4.459149	0.755400	0.000089
1802	1.7920e+02	-4.1238	-48.334608	0.000507	5.067214	0.858409	0.000101
1803	1.7930e+02	-4.1029	-48.265976	0.000345	3.445706	0.583718	0.000069
1804	1.7940e+02	-4.0829	-48.136788	0.000649	6.486034	1.098764	0.000130
1805	1.7950e+02	-4.0628	-48.007600	0.000649	6.486034	1.098764	0.000130
1806	1.7960e+02	-4.0430	-47.898597	0.000547	5.472591	0.927082	0.000110
1807	1.7970e+02	-4.0242	-47.785557	0.000568	5.675280	0.961418	0.000114
1808	1.7980e+02	-4.0039	-47.737112	0.000243	2.432263	0.412036	0.000049
1809	1.7990e+02	-3.9832	-47.620035	0.000588	5.877969	0.995755	0.000118
1810	1.8000e+02	-3.9636	-47.474698	0.000730	7.296789	1.236109	0.000146
1811	1.8009e+02	-3.9426	-47.410104	0.000324	3.243017	0.549382	0.000065
1812	1.8019e+02	-3.9236	-47.309175	0.000507	5.067214	0.858409	0.000101
1813	1.8029e+02	-3.9042	-47.196135	0.000568	5.675280	0.961418	0.000114
1814	1.8039e+02	-3.8838	-47.066947	0.000649	6.486034	1.098764	0.000130
1815	1.8049e+02	-3.8636	-47.006390	0.000304	3.040329	0.515046	0.000061
1816	1.8059e+02	-3.8438	-46.913536	0.000466	4.661837	0.789737	0.000093
1817	1.8069e+02	-3.8242	-46.808570	0.000527	5.269903	0.892746	0.000105
1818	1.8079e+02	-3.8040	-46.687456	0.000608	6.080657	1.030091	0.000122
1819	1.8089e+02	-3.7843	-46.574416	0.000568	5.675280	0.961418	0.000114
1820	1.8099e+02	-3.7646	-46.497711	0.000385	3.851083	0.652391	0.000077
1821	1.8109e+02	-3.7450	-46.352374	0.000730	7.296789	1.236109	0.000146
1822	1.8119e+02	-3.7254	-46.267594	0.000426	4.256460	0.721064	0.000085
1823	1.8129e+02	-3.7048	-46.182814	0.000426	4.256460	0.721064	0.000085
1824	1.8139e+02	-3.6861	-46.057663	0.000628	6.283346	1.064428	0.000126
1825	1.8149e+02	-3.6652	-46.001143	0.000284	2.837640	0.480709	0.000057
1826	1.8159e+02	-3.6449	-45.888103	0.000568	5.675280	0.961418	0.000114
1827	1.8169e+02	-3.6250	-45.815435	0.000365	3.648394	0.618055	0.000073
1828	1.8179e+02	-3.6055	-45.674135	0.000709	7.094100	1.201773	0.000142
1829	1.8189e+02	-3.5856	-45.565133	0.000547	5.472591	0.927082	0.000110
1830	1.8199e+02	-3.5650	-45.464204	0.000507	5.067214	0.858409	0.000101
1831	1.8209e+02	-3.5452	-45.347127	0.000588	5.877969	0.995755	0.000118
1832	1.8218e+02	-3.5251	-45.266384	0.000405	4.053771	0.686727	0.000081
1833	1.8228e+02	-3.5052	-45.161419	0.000527	5.269903	0.892746	0.000105
1834	1.8238e+02	-3.4851	-45.060491	0.000507	5.067214	0.858409	0.000101
1835	1.8248e+02	-3.4665	-44.951488	0.000547	5.472591	0.927082	0.000110
1836	1.8258e+02	-3.4470	-44.830374	0.000608	6.080657	1.030091	0.000122
1837	1.8268e+02	-3.4264	-44.737520	0.000466	4.661837	0.789737	0.000093
1838	1.8278e+02	-3.4070	-44.624480	0.000568	5.675280	0.961418	0.000114
1839	1.8288e+02	-3.3871	-44.503366	0.000608	6.080657	1.030091	0.000122
1840	1.8298e+02	-3.3659	-44.358029	0.000730	7.296789	1.236109	0.000146
1841	1.8308e+02	-3.3449	-44.289398	0.000345	3.445706	0.583718	0.000069
1842	1.8318e+02	-3.3261	-44.208655	0.000405	4.053771	0.686727	0.000081
1843	1.8328e+02	-3.3057	-44.099652	0.000547	5.472591	0.927082	0.000110
1844	1.8338e+02	-3.2873	-43.978538	0.000608	6.080657	1.030091	0.000122
1845	1.8348e+02	-3.2660	-43.889721	0.000446	4.459149	0.755400	0.000089
1846	1.8358e+02	-3.2463	-43.728236	0.000811	8.107543	1.373455	0.000162
1847	1.8368e+02	-3.2266	-43.643456	0.000426	4.256460	0.721064	0.000085
1848	1.8378e+02	-3.2071	-43.538490	0.000527	5.269903	0.892746	0.000105
1849	1.8388e+02	-3.1862	-43.429488	0.000547	5.472591	0.927082	0.000110
1850	1.8398e+02	-3.1674	-43.328559	0.000507	5.067214	0.858409	0.000101
1851	1.8407e+02	-3.1476	-43.215520	0.000568	5.675280	0.961418	0.000114
1852	1.8417e+02	-3.1268	-43.114591	0.000507	5.067214	0.858409	0.000101
1853	1.8427e+02	-3.1072	-42.981366	0.000669	6.688723	1.133100	0.000134
1854	1.8437e+02	-3.0885	-42.868326	0.000568	5.675280	0.961418	0.000114
1855	1.8447e+02	-3.0670	-42.791620	0.000385	3.851083	0.652391	0.000077
1856	1.8457e+02	-3.0478	-42.662432	0.000649	6.486034	1.098764	0.000130
1857	1.8467e+02	-3.0260	-42.537281	0.000628	6.283346	1.064428	0.000126
1858	1.8477e+02	-3.0083	-42.432315	0.000527	5.269903	0.892746	0.000105
1859	1.8487e+02	-2.9878	-42.363684	0.000345	3.445706	0.583718	0.000069
1860	1.8497e+02	-2.9672	-42.254681	0.000547	5.472591	0.927082	0.000110
1861	1.8507e+02	-2.9483	-42.109344	0.000730	7.296789	1.236109	0.000146
1862	1.8517e+02	-2.9272	-42.028602	0.000405	4.053771	0.686727	0.000081
1863	1.8527e+02	-2.9079	-41.855005	0.000872	8.715608	1.476464	0.000174
1864	1.8537e+02	-2.8880	-41.802522	0.000263	2.634951	0.446373	0.000053
1865	1.8547e+02	-2.8675	-41.693519	0.000547	5.472591	0.927082	0.000110
1866	1.8557e+02	-2.8484	-41.536071	0.000790	7.904854	1.339119	0.000158
1867	1.8567e+02	-2.8282	-41.427068	0.000547	5.472591	0.927082	0.000110
1868	1.8577e+02	-2.8089	-41.354400	0.000365	3.648394	0.618055	0.000073
1869	1.8587e+02	-2.7888	-41.229249	0.000628	6.283346	1.064428	0.000126
1870	1.8597e+02	-2.7682	-41.132357	0.000486	4.864526	0.824073	0.000097
1871	1.8606e+02	-2.7483	-40.970872	0.000811	8.107543	1.373455	0.000162
1872	1.8616e+02	-2.7287	-40.918389	0.000263	2.634951	0.446373	0.000053
1873	1.8626e+02	-2.7077	-40.801312	0.000588	5.877969	0.995755	0.000118
1874	1.8636e+02	-2.6887	-40.647901	0.000770	7.702166	1.304782	0.000154
1875	1.8646e+02	-2.6688	-40.587344	0.000304	3.040329	0.515046	0.000061
1876	1.8656e+02	-2.6489	-40.458156	0.000649	6.486034	1.098764	0.000130
1877	1.8666e+02	-2.6294	-40.337042	0.000608	6.080657	1.030091	0.000122
1878	1.8676e+02	-2.6091	-40.191705	0.000730	7.296789	1.236109	0.000146
1879	1.8686e+02	-2.5885	-40.127111	0.000324	3.243017	0.549382	0.000065
1880	1.8696e+02	-2.5687	-39.977737	0.000750	7.499477	1.270446	0.000150
1881	1.8706e+02	-2.5488	-39.892957	0.000426	4.256460	0.721064	0.000085
1882	1.8716e+02	-2.5294	-39.743583	0.000750	7.499477	1.270446	0.000150
1883	1.8726e+02	-2.5096	-39.691100	0.000263	2.634951	0.446373	0.000053
1884	1.8736e+02	-2.4893	-39.574023	0.000588	5.877969	0.995755	0.000118
1885	1.8746e+02	-2.4697	-39.416575	0.000790	7.904854	1.339119	0.000158
1886	1.8756e+02	-2.4499	-39.335832	0.000405	4.053771	0.686727	0.000081
1887	1.8766e+02	-2.4307	-39.206644	0.000649	6.486034	1.098764	0.000130
1888	1.8776e+02	-2.4097	-39.053233	0.000770	7.702166	1.304782	0.000154
1889	1.8786e+02	-2.3901	-38.956341	0.000486	4.864526	0.824073	0.000097
1890	1.8796e+02	-2.3695	-38.871561	0.000426	4.256460	0.721064	0.000085
1891	1.8806e+02	-2.3510	-38.778707	0.000466	4.661837	0.789737	0.000093
1892	1.8815e+02	-2.3296	-38.625296	0.000770	7.702166	1.304782	0.000154
1893	1.8825e+02	-2.3097	-38.504182	0.000608	6.080657	1.030091	0.000122
1894	1.8835e+02	-2.2904	-38.391142	0.000568	5.675280	0.961418	0.000114
1895	1.8845e+02	-2.2705	-38.261954	0.000649	6.486034	1.098764	0.000130
1896	1.8855e+02	-2.2513	-38.161026	0.000507	5.067214	0.858409	0.000101
1897	1.8865e+02	-2.2303	-38.043949	0.000588	5.877969	0.995755	0.000118
1898	1.8875e+02	-2.2115	-37.902649	0.000709	7.094100	1.201773	0.000142
1899	1.8885e+02	-2.1903	-37.797683	0.000527	5.269903	0.892746	0.000105
1900	1.8895e+02	-2.1712	-37.684644	0.000568	5.675280	0.961418	0.000114
1901	1.8905e+02	-2.1523	-37.571604	0.000568	5.675280	0.961418	0.000114
1902	1.8915e+02	-2.1310	-37.458564	0.000568	5.675280	0.961418	0.000114
1903	1.8925e+02	-2.1114	-37.301116	0.000790	7.904854	1.339119	0.000158
1904	1.8935e+02	-2.0911	-37.216336	0.000426	4.256460	0.721064	0.000085
1905	1.8945e+02	-2.0709	-37.095222	0.000608	6.080657	1.030091	0.000122
1906	1.8955e+02	-2.0515	-36.957959	0.000689	6.891411	1.167437	0.000138
1907	1.8965e+02	-2.0315	-36.873179	0.000426	4.256460	0.721064	0.000085
1908	1.8975e+02	-2.0113	-36.752065	0.000608	6.080657	1.030091	0.000122
1909	1.8985e+02	-1.9916	-36.622877	0.000649	6.486034	1.098764	0.000130
1910	1.8995e+02	-1.9717	-36.473503	0.000750	7.499477	1.270446	0.000150
1911	1.9004e+02	-1.9519	-36.360463	0.000568	5.675280	0.961418	0.000114
1912	1.9014e+02	-1.9316	-36.283757	0.000385	3.851083	0.652391	0.000077
1913	1.9024e+02	-1.9114	-36.130346	0.000770	7.702166	1.304782	0.000154
1914	1.9034e+02	-1.8925	-36.021344	0.000547	5.472591	0.927082	0.000110
1915	1.9044e+02	-1.8723	-35.912341	0.000547	5.472591	0.927082	0.000110
1916	1.9054e+02	-1.8515	-35.779115	0.000669	6.688723	1.133100	0.000134
1917	1.9064e+02	-1.8323	-35.653964	0.000628	6.283346	1.064428	0.000126
1918	1.9074e+02	-1.8137	-35.520739	0.000669	6.688723	1.133100	0.000134
1919	1.9084e+02	-1.7921	-35.399625	0.000608	6.080657	1.030091	0.000122
1920	1.9094e+02	-1.7723	-35.242176	0.000790	7.904854	1.339119	0.000158
1921	1.9104e+02	-1.7517	-35.141248	0.000507	5.067214	0.858409	0.000101
1922	1.9114e+02	-1.7329	-35.024171	0.000588	5.877969	0.995755	0.000118
1923	1.9124e+02	-1.7125	-34.911131	0.000568	5.675280	0.961418	0.000114
1924	1.9134e+02	-1.6930	-34.826351	0.000426	4.256460	0.721064	0.000085
1925	1.9144e+02	-1.6727	-34.640643	0.000932	9.323674	1.579473	0.000187
1926	1.9154e+02	-1.6525	-34.535678	0.000527	5.269903	0.892746	0.000105
1927	1.9164e+02	-1.6330	-34.414564	0.000608	6.080657	1.030091	0.000122
1928	1.9174e+02	-1.6125	-34.317672	0.000486	4.864526	0.824073	0.000097
1929	1.9184e+02	-1.5930	-34.188484	0.000649	6.486034	1.098764	0.000130
1930	1.9194e+02	-1.5735	-34.083518	0.000527	5.269903	0.892746	0.000105
1931	1.9203e+02	-1.5533	-33.942219	0.000709	7.094100	1.201773	0.000142
1932	1.9213e+02	-1.5323	-33.841290	0.000507	5.067214	0.858409	0.000101
1933	1.9223e+02	-1.5136	-33.720176	0.000608	6.080657	1.030091	0.000122
1934	1.9233e+02	-1.4929	-33.582914	0.000689	6.891411	1.167437	0.000138
1935	1.9243e+02	-1.4737	-33.498134	0.000426	4.256460	0.721064	0.000085
1936	1.9253e+02	-1.4541	-33.312426	0.000932	9.323674	1.579473	0.000187
1937	1.9263e+02	-1.4339	-33.195349	0.000588	5.877969	0.995755	0.000118
1938	1.9273e+02	-1.4138	-33.090383	0.000527	5.269903	0.892746	0.000105
1939	1.9283e+02	-1.3939	-32.957158	0.000669	6.688723	1.133100	0.000134
1940	1.9293e+02	-1.3741	-32.815858	0.000709	7.094100	1.201773	0.000142
1941	1.9303e+02	-1.3535	-32.686670	0.000649	6.486034	1.098764	0.000130
1942	1.9313e+02	-1.3338	-32.609964	0.000385	3.851083	0.652391	0.000077
1943	1.9323e+02	-1.3136	-32.460590	0.000750	7.499477	1.270446	0.000150
1944	1.9333e+02	-1.2959	-32.315253	0.000730	7.296789	1.236109	0.000146
1945	1.9343e+02	-1.2741	-32.202213	0.000568	5.675280	0.961418	0.000114
1946	1.9353e+02	-1.2547	-32.028616	0.000872	8.715608	1.476464	0.000174
1947	1.9363e+02	-1.2345	-31.927688	0.000507	5.067214	0.858409	0.000101
1948	1.9373e+02	-1.2153	-31.814648	0.000568	5.675280	0.961418	0.000114
1949	1.9383e+02	-1.1944	-31.705646	0.000547	5.472591	0.927082	0.000110
1950	1.9393e+02	-1.1751	-31.536086	0.000851	8.512920	1.442128	0.000170
1951	1.9403e+02	-1.1552	-31.443232	0.000466	4.661837	0.789737	0.000093
1952	1.9412e+02	-1.1354	-31.330192	0.000568	5.675280	0.961418	0.000114
1953	1.9422e+02	-1.1160	-31.205041	0.000628	6.283346	1.064428	0.000126
1954	1.9432e+02	-1.0960	-31.039518	0.000831	8.310231	1.407791	0.000166
1955	1.9442e+02	-1.0747	-30.950701	0.000446	4.459149	0.755400	0.000089
1956	1.9452e+02	-1.0565	-30.809401	0.000709	7.094100	1.201773	0.000142
1957	1.9462e+02	-1.0360	-30.639842	0.000851	8.512920	1.442128	0.000170
1958	1.9472e+02	-1.0156	-30.534876	0.000527	5.269903	0.892746	0.000105
1959	1.9482e+02	-0.9955	-30.409725	0.000628	6.283346	1.064428	0.000126
1960	1.9492e+02	-0.9756	-30.244202	0.000831	8.310231	1.407791	0.000166
1961	1.9502e+02	-0.9566	-30.147311	0.000486	4.864526	0.824073	0.000097
1962	1.9512e+02	-0.9361	-30.026197	0.000608	6.080657	1.030091	0.000122
1963	1.9522e+02	-0.9164	-29.913157	0.000568	5.675280	0.961418	0.000114
1964	1.9532e+02	-0.8959	-29.751672	0.000811	8.107543	1.373455	0.000162
1965	1.9542e+02	-0.8759	-29.630558	0.000608	6.080657	1.030091	0.000122
1966	1.9552e+02	-0.8566	-29.533666	0.000486	4.864526	0.824073	0.000097
1967	1.9562e+02	-0.8367	-29.396404	0.000689	6.891411	1.167437	0.000138
1968	1.9572e+02	-0.8152	-29.267216	0.000649	6.486034	1.098764	0.000130
1969	1.9582e+02	-0.7962	-29.138027	0.000649	6.486034	1.098764	0.000130
1970	1.9592e+02	-0.7777	-29.029025	0.000547	5.472591	0.927082	0.000110
1971	1.9601e+02	-0.7561	-28.867539	0.000811	8.107543	1.373455	0.000162
1972	1.9611e+02	-0.7368	-28.742388	0.000628	6.283346	1.064428	0.000126
1973	1.9621e+02	-0.7167	-28.645497	0.000486	4.864526	0.824073	0.000097
1974	1.9631e+02	-0.6969	-28.475937	0.000851	8.512920	1.442128	0.000170
1975	1.9641e+02	-0.6763	-28.379046	0.000486	4.864526	0.824073	0.000097
1976	1.9651e+02	-0.6562	-28.233709	0.000730	7.296789	1.236109	0.000146
1977	1.9661e+02	-0.6370	-28.080298	0.000770	7.702166	1.304782	0.000154
1978	1.9671e+02	-0.6171	-27.971295	0.000547	5.472591	0.927082	0.000110
1979	1.9681e+02	-0.5963	-27.854218	0.000588	5.877969	0.995755	0.000118
1980	1.9691e+02	-0.5767	-27.712918	0.000709	7.094100	1.201773	0.000142
1981	1.9701e+02	-0.5560	-27.603916	0.000547	5.472591	0.927082	0.000110
1982	1.9711e+02	-0.5379	-27.474727	0.000649	6.486034	1.098764	0.000130
1983	1.9721e+02	-0.5171	-27.309205	0.000831	8.310231	1.407791	0.000166
1984	1.9731e+02	-0.4974	-27.200202	0.000547	5.472591	0.927082	0.000110
1985	1.9741e+02	-0.4770	-27.099274	0.000507	5.067214	0.858409	0.000101
1986	1.9751e+02	-0.4582	-26.953937	0.000730	7.296789	1.236109	0.000146
1987	1.9761e+02	-0.4384	-26.832823	0.000608	6.080657	1.030091	0.000122
1988	1.9771e+02	-0.4177	-26.663263	0.000851	8.512920	1.442128	0.000170
1989	1.9781e+02	-0.3978	-26.566372	0.000486	4.864526	0.824073	0.000097
1990	1.9791e+02	-0.3784	-26.429109	0.000689	6.891411	1.167437	0.000138
1991	1.9800e+02	-0.3577	-26.303958	0.000628	6.283346	1.064428	0.000126
1992	1.9810e+02	-0.3381	-26.134398	0.000851	8.512920	1.442128	0.000170
1993	1.9820e+02	-0.3175	-26.021358	0.000568	5.675280	0.961418	0.000114
1994	1.9830e+02	-0.2981	-25.912356	0.000547	5.472591	0.927082	0.000110
1995	1.9840e+02	-0.2790	-25.767019	0.000730	7.296789	1.236109	0.000146
1996	1.9850e+02	-0.2586	-25.621682	0.000730	7.296789	1.236109	0.000146
1997	1.9860e+02	-0.2379	-25.520754	0.000507	5.067214	0.858409	0.000101
1998	1.9870e+02	-0.2184	-25.407714	0.000568	5.675280	0.961418	0.000114
1999	1.9880e+02	-0.1989	-25.238154	0.000851	8.512920	1.442128	0.000170
2000	1.9890e+02	-0.1781	-25.125114	0.000568	5.675280	0.961418	0.000114
2001	1.9900e+02	-0.1593	-25.012074	0.000568	5.675280	0.961418	0.000114
2002	1.9910e+02	-0.1378	-24.858663	0.000770	7.702166	1.304782	0.000154
2003	1.9920e+02	-0.1192	-24.725438	0.000669	6.688723	1.133100	0.000134
2004	1.9930e+02	-0.0983	-24.620472	0.000527	5.269903	0.892746	0.000105
2005	1.9940e+02	-0.0782	-24.487247	0.000669	6.688723	1.133100	0.000134
2006	1.9950e+02	-0.0590	-24.341910	0.000730	7.296789	1.236109	0.000146
2007	1.9960e+02	-0.0391	-24.180425	0.000811	8.107543	1.373455	0.000162
2008	1.9970e+02	-0.0196	-24.063348	0.000588	5.877969	0.995755	0.000118
2009	1.9980e+02	-0.0011	-23.934159	0.000588	5.877969	0.995755	0.000130

PMax (uC/cm2):	5.32e+01
Pr (uC/cm2):	5.46e+00
-Pr (uC/cm2):	-3.54e+01
PLoss (uC/cm2):	-3.54e+01
-Vc:	-8.42e-01
C (Max-Eff) (nF):	5.32e-01
K (Eff):	9.01e+02
Vert. (+/-Pr) Shift (uC/cm2):	-1.50e+01
Offset (uC/cm2):	-1.15e+01

A (Loop Area - uC/cm2·Volts):	-1.62e-01



Hysteresis Version: 5.48.1 - Radiant Technologies, Inc., 1999 - 9/12/24

