»»»»»»»»»»»»»»»»»»»»»»»»»»»»»»»»»»»» Hysteresis ««««««««««««««««««««««««««««««««««««
»»»  Executed Version:	5.48.1
»»»  Vision Version:	5.48.4 (R)
»»»  Vision Compiled:	9/18/24
»»»  Driver Version:	5.47.0
»»»  Windows Version:	Windows 8 or 8.1
»»»  Processor Information:	x86 (AMD or Intel) - 32 Processors
»»»  Tester Name:	PMF21124-494 (100V)
»»»  Tester S/N:	PMF21124-494
»»»  Internal Amp Type:	100V RevK 270k
»»»  Internal Amp S/N:	iAB2-596/K     
»»»  Execution Count:	1
»»»»»»»»»»»»»»»»»»»»»»»»»»»»»»»»»»»»»»»»»»««««««««««««««««««««««««««««««««««««««««««

Stored:	7/3/2025 - 14:11:39
Configured:	07/03/25 12:01:19 PM
Executed:	07/03/25 02:11:11 PM

»»»»»»»»»»»»»»»»»»»»»»»»»»»»»»»»»»» Sample Info ««««««««««««««««««««««««««««««««««««
Sample Name:	
Lot Name:	
Wafer Name:	
Die Row/Column:	0/0
Capacitor Number:	0
Sample Area (cm2):	1.00e-04
Sample Thickness (microns):	1.50e-01

Amplifier:	Internal

»»»»»»»»»»»»»»»»»»»»»»»»»»»»»»»»»»» Tester Info «««««««««««««««««««««««««««««««««««
Tester Name:	PMF21124-494 (100V)
Tester Serial Number:	PMF21124-494
Return Signal Amp. Level:	0.19 [Index: 3]

»»»»»»»»»»»»»»»»»»»»»»»»»»»»»»»» Hysteresis Info ««««««««««««««««««««««««««««««««««
Task Name:	Hyst-410
Volts:	10.00
Field:	666.67 (kV/cm)
DCBias:	0.00
DCField:	0.00 (kV/cm)
Hysteresis Period (ms):	2.00e+02
Preset:	Enabled
Preset Delay (ms):	1.00e+03
Profile:	Standard Bipolar

»»»»»»»»»»»»»»»»»»»»»»»»»»»»»»»»»»»»»» Data «««««««««««««««««««««««««««««««««««««««
Points:	2009

Valid Data

Point	Time (ms)	Drive Voltage	Measured Polarization (uC/cm2)	Capacitance (uF)	Normalized Capacitance (uF/cm2)	Dielectric Constant	Instantaneous Current (mA)
   1	0.0000e+00	0.0002	25.742796	0.000750	7.500107	1.270552	0.000150
   2	9.9500e-02	0.0204	25.892170	0.000750	7.500107	1.270552	0.000150
   3	1.9900e-01	0.0394	25.985024	0.000466	4.662228	0.789803	0.000093
   4	2.9850e-01	0.0591	26.102101	0.000588	5.878462	0.995838	0.000118
   5	3.9800e-01	0.0787	26.190918	0.000446	4.459523	0.755464	0.000089
   6	4.9750e-01	0.0963	26.312032	0.000608	6.081168	1.030178	0.000122
   7	5.9700e-01	0.1189	26.453332	0.000709	7.094695	1.201874	0.000142
   8	6.9650e-01	0.1379	26.526000	0.000365	3.648701	0.618107	0.000073
   9	7.9600e-01	0.1586	26.651152	0.000628	6.283873	1.064517	0.000126
  10	8.9550e-01	0.1783	26.739969	0.000446	4.459523	0.755464	0.000089
  11	9.9500e-01	0.1978	26.889343	0.000750	7.500107	1.270552	0.000150
  12	1.0945e+00	0.2178	26.986234	0.000486	4.864934	0.824142	0.000097
  13	1.1940e+00	0.2380	27.103311	0.000588	5.878462	0.995838	0.000118
  14	1.2935e+00	0.2580	27.228462	0.000628	6.283873	1.064517	0.000126
  15	1.3930e+00	0.2781	27.325353	0.000486	4.864934	0.824142	0.000097
  16	1.4925e+00	0.2987	27.438393	0.000568	5.675756	0.961499	0.000114
  17	1.5920e+00	0.3185	27.551433	0.000568	5.675756	0.961499	0.000114
  18	1.6915e+00	0.3371	27.668510	0.000588	5.878462	0.995838	0.000118
  19	1.7910e+00	0.3574	27.769438	0.000507	5.067640	0.858481	0.000101
  20	1.8905e+00	0.3780	27.890552	0.000608	6.081168	1.030178	0.000122
  21	1.9900e+00	0.3968	28.007629	0.000588	5.878462	0.995838	0.000118
  22	2.0895e+00	0.4179	28.124706	0.000588	5.878462	0.995838	0.000118
  23	2.1890e+00	0.4373	28.205449	0.000405	4.054112	0.686785	0.000081
  24	2.2885e+00	0.4578	28.318489	0.000568	5.675756	0.961499	0.000114
  25	2.3880e+00	0.4776	28.479974	0.000811	8.108223	1.373570	0.000162
  26	2.4875e+00	0.4980	28.564754	0.000426	4.256817	0.721124	0.000085
  27	2.5870e+00	0.5173	28.697979	0.000669	6.689284	1.133195	0.000134
  28	2.6865e+00	0.5376	28.790834	0.000466	4.662228	0.789803	0.000093
  29	2.7860e+00	0.5576	28.895799	0.000527	5.270345	0.892821	0.000105
  30	2.8855e+00	0.5772	29.024987	0.000649	6.486579	1.098856	0.000130
  31	2.9850e+00	0.5970	29.154176	0.000649	6.486579	1.098856	0.000130
  32	3.0845e+00	0.6174	29.275290	0.000608	6.081168	1.030178	0.000122
  33	3.1840e+00	0.6375	29.376218	0.000507	5.067640	0.858481	0.000101
  34	3.2835e+00	0.6565	29.489258	0.000568	5.675756	0.961499	0.000114
  35	3.3830e+00	0.6764	29.622483	0.000669	6.689284	1.133195	0.000134
  36	3.4825e+00	0.6968	29.699189	0.000385	3.851406	0.652446	0.000077
  37	3.5820e+00	0.7168	29.824340	0.000628	6.283873	1.064517	0.000126
  38	3.6815e+00	0.7368	29.913157	0.000446	4.459523	0.755464	0.000089
  39	3.7810e+00	0.7568	30.046383	0.000669	6.689284	1.133195	0.000134
  40	3.8805e+00	0.7755	30.179608	0.000669	6.689284	1.133195	0.000134
  41	3.9800e+00	0.7964	30.296685	0.000588	5.878462	0.995838	0.000118
  42	4.0795e+00	0.8157	30.429911	0.000669	6.689284	1.133195	0.000134
  43	4.1790e+00	0.8363	30.506616	0.000385	3.851406	0.652446	0.000077
  44	4.2785e+00	0.8562	30.611582	0.000527	5.270345	0.892821	0.000105
  45	4.3780e+00	0.8757	30.764993	0.000770	7.702812	1.304892	0.000154
  46	4.4775e+00	0.8956	30.873996	0.000547	5.473051	0.927160	0.000110
  47	4.5770e+00	0.9158	30.995110	0.000608	6.081168	1.030178	0.000122
  48	4.6765e+00	0.9354	31.071815	0.000385	3.851406	0.652446	0.000077
  49	4.7760e+00	0.9557	31.205041	0.000669	6.689284	1.133195	0.000134
  50	4.8755e+00	0.9753	31.338266	0.000669	6.689284	1.133195	0.000134
  51	4.9750e+00	0.9954	31.431120	0.000466	4.662228	0.789803	0.000093
  52	5.0745e+00	1.0152	31.523974	0.000466	4.662228	0.789803	0.000093
  53	5.1740e+00	1.0364	31.681423	0.000791	7.905518	1.339231	0.000158
  54	5.2735e+00	1.0545	31.770240	0.000446	4.459523	0.755464	0.000089
  55	5.3730e+00	1.0752	31.887317	0.000588	5.878462	0.995838	0.000118
  56	5.4725e+00	1.0956	31.988245	0.000507	5.067640	0.858481	0.000101
  57	5.5720e+00	1.1147	32.125508	0.000689	6.891990	1.167535	0.000138
  58	5.6715e+00	1.1358	32.238547	0.000568	5.675756	0.961499	0.000114
  59	5.7710e+00	1.1555	32.335439	0.000486	4.864934	0.824142	0.000097
  60	5.8705e+00	1.1751	32.484813	0.000750	7.500107	1.270552	0.000150
  61	5.9700e+00	1.1946	32.581704	0.000486	4.864934	0.824142	0.000097
  62	6.0695e+00	1.2151	32.718967	0.000689	6.891990	1.167535	0.000138
  63	6.1690e+00	1.2356	32.803746	0.000426	4.256817	0.721124	0.000085
  64	6.2685e+00	1.2553	32.932935	0.000649	6.486579	1.098856	0.000130
  65	6.3680e+00	1.2745	33.082309	0.000750	7.500107	1.270552	0.000150
  66	6.4675e+00	1.2941	33.142866	0.000304	3.040584	0.515089	0.000061
  67	6.5670e+00	1.3136	33.308388	0.000831	8.310929	1.407909	0.000166
  68	6.6665e+00	1.3337	33.389131	0.000405	4.054112	0.686785	0.000081
  69	6.7660e+00	1.3543	33.546579	0.000791	7.905518	1.339231	0.000158
  70	6.8655e+00	1.3737	33.611174	0.000324	3.243289	0.549428	0.000065
  71	6.9650e+00	1.3931	33.752473	0.000709	7.094695	1.201874	0.000142
  72	7.0645e+00	1.4131	33.865513	0.000568	5.675756	0.961499	0.000114
  73	7.1640e+00	1.4339	33.954330	0.000446	4.459523	0.755464	0.000089
  74	7.2635e+00	1.4527	34.059296	0.000527	5.270345	0.892821	0.000105
  75	7.3630e+00	1.4734	34.200595	0.000709	7.094695	1.201874	0.000142
  76	7.4625e+00	1.4931	34.317672	0.000588	5.878462	0.995838	0.000118
  77	7.5620e+00	1.5125	34.390341	0.000365	3.648701	0.618107	0.000073
  78	7.6615e+00	1.5340	34.543752	0.000770	7.702812	1.304892	0.000154
  79	7.7610e+00	1.5527	34.640643	0.000486	4.864934	0.824142	0.000097
  80	7.8605e+00	1.5723	34.769832	0.000649	6.486579	1.098856	0.000130
  81	7.9600e+00	1.5931	34.862686	0.000466	4.662228	0.789803	0.000093
  82	8.0595e+00	1.6128	34.979763	0.000588	5.878462	0.995838	0.000118
  83	8.1590e+00	1.6328	35.104914	0.000628	6.283873	1.064517	0.000126
  84	8.2585e+00	1.6537	35.226028	0.000608	6.081168	1.030178	0.000122
  85	8.3580e+00	1.6724	35.330993	0.000527	5.270345	0.892821	0.000105
  86	8.4575e+00	1.6924	35.480367	0.000750	7.500107	1.270552	0.000150
  87	8.5570e+00	1.7126	35.536887	0.000284	2.837878	0.480750	0.000057
  88	8.6565e+00	1.7330	35.690298	0.000770	7.702812	1.304892	0.000154
  89	8.7560e+00	1.7536	35.775078	0.000426	4.256817	0.721124	0.000085
  90	8.8555e+00	1.7721	35.871970	0.000486	4.864934	0.824142	0.000097
  91	8.9550e+00	1.7918	36.009232	0.000689	6.891990	1.167535	0.000138
  92	9.0545e+00	1.8125	36.118235	0.000547	5.473051	0.927160	0.000110
  93	9.1540e+00	1.8319	36.235312	0.000588	5.878462	0.995838	0.000118
  94	9.2535e+00	1.8516	36.392760	0.000791	7.905518	1.339231	0.000158
  95	9.3530e+00	1.8716	36.497726	0.000527	5.270345	0.892821	0.000105
  96	9.4525e+00	1.8918	36.586543	0.000446	4.459523	0.755464	0.000089
  97	9.5520e+00	1.9119	36.695545	0.000547	5.473051	0.927160	0.000110
  98	9.6515e+00	1.9316	36.844919	0.000750	7.500107	1.270552	0.000150
  99	9.7510e+00	1.9512	36.933736	0.000446	4.459523	0.755464	0.000089
 100	9.8505e+00	1.9718	37.046776	0.000568	5.675756	0.961499	0.000114
 101	9.9500e+00	1.9909	37.204224	0.000791	7.905518	1.339231	0.000158
 102	1.0050e+01	2.0115	37.353598	0.000750	7.500107	1.270552	0.000150
 103	1.0149e+01	2.0307	37.418193	0.000324	3.243289	0.549428	0.000065
 104	1.0248e+01	2.0516	37.559492	0.000709	7.094695	1.201874	0.000142
 105	1.0348e+01	2.0716	37.664458	0.000527	5.270345	0.892821	0.000105
 106	1.0447e+01	2.0898	37.785572	0.000608	6.081168	1.030178	0.000122
 107	1.0547e+01	2.1119	37.926872	0.000709	7.094695	1.201874	0.000142
 108	1.0646e+01	2.1316	37.987429	0.000304	3.040584	0.515089	0.000061
 109	1.0746e+01	2.1503	38.144877	0.000791	7.905518	1.339231	0.000158
 110	1.0845e+01	2.1703	38.257917	0.000568	5.675756	0.961499	0.000114
 111	1.0945e+01	2.1906	38.374994	0.000588	5.878462	0.995838	0.000118
 112	1.1044e+01	2.2099	38.479959	0.000527	5.270345	0.892821	0.000105
 113	1.1144e+01	2.2307	38.605110	0.000628	6.283873	1.064517	0.000126
 114	1.1243e+01	2.2506	38.758522	0.000770	7.702812	1.304892	0.000154
 115	1.1343e+01	2.2697	38.843302	0.000426	4.256817	0.721124	0.000085
 116	1.1443e+01	2.2901	38.960378	0.000588	5.878462	0.995838	0.000118
 117	1.1542e+01	2.3095	39.089567	0.000649	6.486579	1.098856	0.000130
 118	1.1642e+01	2.3293	39.186458	0.000486	4.864934	0.824142	0.000097
 119	1.1741e+01	2.3499	39.311609	0.000628	6.283873	1.064517	0.000126
 120	1.1841e+01	2.3702	39.436760	0.000628	6.283873	1.064517	0.000126
 121	1.1940e+01	2.3902	39.553837	0.000588	5.878462	0.995838	0.000118
 122	1.2040e+01	2.4100	39.666877	0.000568	5.675756	0.961499	0.000114
 123	1.2139e+01	2.4293	39.783954	0.000588	5.878462	0.995838	0.000118
 124	1.2239e+01	2.4500	39.921217	0.000689	6.891990	1.167535	0.000138
 125	1.2338e+01	2.4694	40.042331	0.000608	6.081168	1.030178	0.000122
 126	1.2438e+01	2.4899	40.163445	0.000608	6.081168	1.030178	0.000122
 127	1.2537e+01	2.5095	40.256299	0.000466	4.662228	0.789803	0.000093
 128	1.2636e+01	2.5293	40.369339	0.000568	5.675756	0.961499	0.000114
 129	1.2736e+01	2.5500	40.482379	0.000568	5.675756	0.961499	0.000114
 130	1.2835e+01	2.5688	40.639827	0.000791	7.905518	1.339231	0.000158
 131	1.2935e+01	2.5886	40.716532	0.000385	3.851406	0.652446	0.000077
 132	1.3034e+01	2.6080	40.894166	0.000892	8.919046	1.510927	0.000179
 133	1.3134e+01	2.6287	40.987021	0.000466	4.662228	0.789803	0.000093
 134	1.3233e+01	2.6496	41.096023	0.000547	5.473051	0.927160	0.000110
 135	1.3333e+01	2.6687	41.245397	0.000750	7.500107	1.270552	0.000150
 136	1.3432e+01	2.6884	41.342289	0.000486	4.864934	0.824142	0.000097
 137	1.3532e+01	2.7084	41.447254	0.000527	5.270345	0.892821	0.000105
 138	1.3632e+01	2.7274	41.576442	0.000649	6.486579	1.098856	0.000130
 139	1.3731e+01	2.7479	41.669297	0.000466	4.662228	0.789803	0.000093
 140	1.3831e+01	2.7679	41.806559	0.000689	6.891990	1.167535	0.000138
 141	1.3930e+01	2.7887	41.919599	0.000568	5.675756	0.961499	0.000114
 142	1.4030e+01	2.8085	42.060899	0.000709	7.094695	1.201874	0.000142
 143	1.4129e+01	2.8286	42.149716	0.000446	4.459523	0.755464	0.000089
 144	1.4229e+01	2.8484	42.291015	0.000709	7.094695	1.201874	0.000142
 145	1.4328e+01	2.8684	42.387907	0.000486	4.864934	0.824142	0.000097
 146	1.4428e+01	2.8875	42.521132	0.000669	6.689284	1.133195	0.000134
 147	1.4527e+01	2.9083	42.613986	0.000466	4.662228	0.789803	0.000093
 148	1.4627e+01	2.9273	42.718952	0.000527	5.270345	0.892821	0.000105
 149	1.4726e+01	2.9472	42.888512	0.000851	8.513635	1.442249	0.000170
 150	1.4825e+01	2.9681	42.965217	0.000385	3.851406	0.652446	0.000077
 151	1.4925e+01	2.9870	43.094405	0.000649	6.486579	1.098856	0.000130
 152	1.5024e+01	3.0076	43.219557	0.000628	6.283873	1.064517	0.000126
 153	1.5124e+01	3.0268	43.332596	0.000568	5.675756	0.961499	0.000114
 154	1.5223e+01	3.0481	43.445636	0.000568	5.675756	0.961499	0.000114
 155	1.5323e+01	3.0679	43.546565	0.000507	5.067640	0.858481	0.000101
 156	1.5422e+01	3.0873	43.663642	0.000588	5.878462	0.995838	0.000118
 157	1.5522e+01	3.1066	43.800904	0.000689	6.891990	1.167535	0.000138
 158	1.5621e+01	3.1266	43.909907	0.000547	5.473051	0.927160	0.000110
 159	1.5721e+01	3.1474	44.026984	0.000588	5.878462	0.995838	0.000118
 160	1.5820e+01	3.1680	44.184432	0.000791	7.905518	1.339231	0.000158
 161	1.5920e+01	3.1864	44.273249	0.000446	4.459523	0.755464	0.000089
 162	1.6020e+01	3.2066	44.378215	0.000527	5.270345	0.892821	0.000105
 163	1.6119e+01	3.2275	44.507403	0.000649	6.486579	1.098856	0.000130
 164	1.6218e+01	3.2452	44.636591	0.000649	6.486579	1.098856	0.000130
 165	1.6318e+01	3.2668	44.769817	0.000669	6.689284	1.133195	0.000134
 166	1.6418e+01	3.2858	44.886894	0.000588	5.878462	0.995838	0.000118
 167	1.6517e+01	3.3080	45.024156	0.000689	6.891990	1.167535	0.000138
 168	1.6616e+01	3.3267	45.112973	0.000446	4.459523	0.755464	0.000089
 169	1.6716e+01	3.3460	45.234087	0.000608	6.081168	1.030178	0.000122
 170	1.6816e+01	3.3661	45.351164	0.000588	5.878462	0.995838	0.000118
 171	1.6915e+01	3.3867	45.468241	0.000588	5.878462	0.995838	0.000118
 172	1.7015e+01	3.4060	45.569170	0.000507	5.067640	0.858481	0.000101
 173	1.7114e+01	3.4259	45.738729	0.000851	8.513635	1.442249	0.000170
 174	1.7213e+01	3.4463	45.803324	0.000324	3.243289	0.549428	0.000065
 175	1.7313e+01	3.4654	45.916363	0.000568	5.675756	0.961499	0.000114
 176	1.7413e+01	3.4856	46.037477	0.000608	6.081168	1.030178	0.000122
 177	1.7512e+01	3.5053	46.174740	0.000689	6.891990	1.167535	0.000138
 178	1.7611e+01	3.5256	46.263557	0.000446	4.459523	0.755464	0.000089
 179	1.7711e+01	3.5456	46.356411	0.000466	4.662228	0.789803	0.000093
 180	1.7811e+01	3.5651	46.505785	0.000750	7.500107	1.270552	0.000150
 181	1.7910e+01	3.5848	46.586528	0.000405	4.054112	0.686785	0.000081
 182	1.8009e+01	3.6059	46.752050	0.000831	8.310929	1.407909	0.000166
 183	1.8109e+01	3.6248	46.844905	0.000466	4.662228	0.789803	0.000093
 184	1.8209e+01	3.6451	46.941796	0.000486	4.864934	0.824142	0.000097
 185	1.8308e+01	3.6658	47.062910	0.000608	6.081168	1.030178	0.000122
 186	1.8407e+01	3.6858	47.184024	0.000608	6.081168	1.030178	0.000122
 187	1.8507e+01	3.7057	47.248618	0.000324	3.243289	0.549428	0.000065
 188	1.8607e+01	3.7257	47.426252	0.000892	8.919046	1.510927	0.000179
 189	1.8706e+01	3.7450	47.490846	0.000324	3.243289	0.549428	0.000065
 190	1.8805e+01	3.7652	47.603886	0.000568	5.675756	0.961499	0.000114
 191	1.8905e+01	3.7840	47.741149	0.000689	6.891990	1.167535	0.000138
 192	1.9005e+01	3.8033	47.821891	0.000405	4.054112	0.686785	0.000081
 193	1.9104e+01	3.8249	47.934931	0.000568	5.675756	0.961499	0.000114
 194	1.9203e+01	3.8436	48.019711	0.000426	4.256817	0.721124	0.000085
 195	1.9303e+01	3.8638	48.136788	0.000588	5.878462	0.995838	0.000118
 196	1.9402e+01	3.8834	48.253865	0.000588	5.878462	0.995838	0.000118
 197	1.9502e+01	3.9043	48.370942	0.000588	5.878462	0.995838	0.000118
 198	1.9602e+01	3.9239	48.483982	0.000568	5.675756	0.961499	0.000114
 199	1.9701e+01	3.9436	48.621244	0.000689	6.891990	1.167535	0.000138
 200	1.9800e+01	3.9640	48.710061	0.000446	4.459523	0.755464	0.000089
 201	1.9900e+01	3.9834	48.867510	0.000791	7.905518	1.339231	0.000158
 202	2.0000e+01	4.0035	48.936141	0.000345	3.445995	0.583767	0.000069
 203	2.0099e+01	4.0245	49.053218	0.000588	5.878462	0.995838	0.000118
 204	2.0198e+01	4.0429	49.137998	0.000426	4.256817	0.721124	0.000085
 205	2.0298e+01	4.0630	49.267186	0.000649	6.486579	1.098856	0.000130
 206	2.0398e+01	4.0826	49.384263	0.000588	5.878462	0.995838	0.000118
 207	2.0497e+01	4.1029	49.428671	0.000223	2.229761	0.377732	0.000045
 208	2.0596e+01	4.1222	49.561897	0.000669	6.689284	1.133195	0.000134
 209	2.0696e+01	4.1442	49.638602	0.000385	3.851406	0.652446	0.000077
 210	2.0796e+01	4.1617	49.779902	0.000709	7.094695	1.201874	0.000142
 211	2.0895e+01	4.1824	49.888905	0.000547	5.473051	0.927160	0.000110
 212	2.0994e+01	4.2031	49.989833	0.000507	5.067640	0.858481	0.000101
 213	2.1094e+01	4.2226	50.110947	0.000608	6.081168	1.030178	0.000122
 214	2.1194e+01	4.2422	50.179579	0.000345	3.445995	0.583767	0.000069
 215	2.1293e+01	4.2628	50.296656	0.000588	5.878462	0.995838	0.000118
 216	2.1392e+01	4.2825	50.405658	0.000547	5.473051	0.927160	0.000110
 217	2.1492e+01	4.3022	50.518698	0.000568	5.675756	0.961499	0.000114
 218	2.1591e+01	4.3225	50.623664	0.000527	5.270345	0.892821	0.000105
 219	2.1691e+01	4.3433	50.756889	0.000669	6.689284	1.133195	0.000134
 220	2.1791e+01	4.3612	50.825520	0.000345	3.445995	0.583767	0.000069
 221	2.1890e+01	4.3820	50.950672	0.000628	6.283873	1.064517	0.000126
 222	2.1989e+01	4.4012	51.035451	0.000426	4.256817	0.721124	0.000085
 223	2.2089e+01	4.4227	51.160603	0.000628	6.283873	1.064517	0.000126
 224	2.2189e+01	4.4420	51.261531	0.000507	5.067640	0.858481	0.000101
 225	2.2288e+01	4.4613	51.338237	0.000385	3.851406	0.652446	0.000077
 226	2.2387e+01	4.4808	51.439165	0.000507	5.067640	0.858481	0.000101
 227	2.2487e+01	4.5015	51.576428	0.000689	6.891990	1.167535	0.000138
 228	2.2587e+01	4.5210	51.677356	0.000507	5.067640	0.858481	0.000101
 229	2.2686e+01	4.5420	51.762136	0.000426	4.256817	0.721124	0.000085
 230	2.2785e+01	4.5625	51.883250	0.000608	6.081168	1.030178	0.000122
 231	2.2885e+01	4.5818	52.020513	0.000689	6.891990	1.167535	0.000138
 232	2.2985e+01	4.6011	52.089144	0.000345	3.445995	0.583767	0.000069
 233	2.3084e+01	4.6220	52.181998	0.000466	4.662228	0.789803	0.000093
 234	2.3183e+01	4.6413	52.295038	0.000568	5.675756	0.961499	0.000114
 235	2.3283e+01	4.6612	52.400003	0.000527	5.270345	0.892821	0.000105
 236	2.3383e+01	4.6807	52.513043	0.000568	5.675756	0.961499	0.000114
 237	2.3482e+01	4.7005	52.613972	0.000507	5.067640	0.858481	0.000101
 238	2.3581e+01	4.7204	52.694714	0.000405	4.054112	0.686785	0.000081
 239	2.3681e+01	4.7405	52.807754	0.000568	5.675756	0.961499	0.000114
 240	2.3780e+01	4.7602	52.912720	0.000527	5.270345	0.892821	0.000105
 241	2.3880e+01	4.7799	53.009611	0.000486	4.864934	0.824142	0.000097
 242	2.3980e+01	4.8008	53.102465	0.000466	4.662228	0.789803	0.000093
 243	2.4079e+01	4.8202	53.203393	0.000507	5.067640	0.858481	0.000101
 244	2.4178e+01	4.8412	53.332582	0.000649	6.486579	1.098856	0.000130
 245	2.4278e+01	4.8612	53.409287	0.000385	3.851406	0.652446	0.000077
 246	2.4378e+01	4.8794	53.485993	0.000385	3.851406	0.652446	0.000077
 247	2.4477e+01	4.9006	53.550587	0.000324	3.243289	0.549428	0.000065
 248	2.4576e+01	4.9191	53.687850	0.000689	6.891990	1.167535	0.000138
 249	2.4676e+01	4.9398	53.792815	0.000527	5.270345	0.892821	0.000105
 250	2.4776e+01	4.9597	53.913929	0.000608	6.081168	1.030178	0.000122
 251	2.4875e+01	4.9797	53.966412	0.000264	2.635173	0.446410	0.000053
 252	2.4974e+01	4.9995	54.067340	0.000507	5.067640	0.858481	0.000101
 253	2.5074e+01	5.0204	54.192492	0.000628	6.283873	1.064517	0.000126
 254	2.5174e+01	5.0391	54.269197	0.000385	3.851406	0.652446	0.000077
 255	2.5273e+01	5.0584	54.370126	0.000507	5.067640	0.858481	0.000101
 256	2.5372e+01	5.0793	54.471054	0.000507	5.067640	0.858481	0.000101
 257	2.5472e+01	5.0999	54.551797	0.000405	4.054112	0.686785	0.000081
 258	2.5572e+01	5.1197	54.668874	0.000588	5.878462	0.995838	0.000118
 259	2.5671e+01	5.1394	54.789988	0.000608	6.081168	1.030178	0.000122
 260	2.5770e+01	5.1589	54.898990	0.000547	5.473051	0.927160	0.000110
 261	2.5870e+01	5.1783	54.975696	0.000385	3.851406	0.652446	0.000077
 262	2.5970e+01	5.2000	55.108921	0.000669	6.689284	1.133195	0.000134
 263	2.6069e+01	5.2190	55.157367	0.000243	2.432467	0.412071	0.000049
 264	2.6169e+01	5.2389	55.262333	0.000527	5.270345	0.892821	0.000105
 265	2.6268e+01	5.2588	55.359224	0.000486	4.864934	0.824142	0.000097
 266	2.6367e+01	5.2782	55.464189	0.000527	5.270345	0.892821	0.000105
 267	2.6467e+01	5.2990	55.581266	0.000588	5.878462	0.995838	0.000118
 268	2.6567e+01	5.3188	55.678158	0.000486	4.864934	0.824142	0.000097
 269	2.6666e+01	5.3388	55.803309	0.000628	6.283873	1.064517	0.000126
 270	2.6765e+01	5.3578	55.884051	0.000405	4.054112	0.686785	0.000081
 271	2.6865e+01	5.3776	55.984980	0.000507	5.067640	0.858481	0.000101
 272	2.6965e+01	5.3971	56.081871	0.000486	4.864934	0.824142	0.000097
 273	2.7064e+01	5.4192	56.166651	0.000426	4.256817	0.721124	0.000085
 274	2.7163e+01	5.4370	56.263542	0.000486	4.864934	0.824142	0.000097
 275	2.7263e+01	5.4566	56.388693	0.000628	6.283873	1.064517	0.000126
 276	2.7363e+01	5.4772	56.505770	0.000588	5.878462	0.995838	0.000118
 277	2.7462e+01	5.4972	56.562290	0.000284	2.837878	0.480750	0.000057
 278	2.7561e+01	5.5201	56.675330	0.000568	5.675756	0.961499	0.000114
 279	2.7661e+01	5.5371	56.788370	0.000568	5.675756	0.961499	0.000114
 280	2.7761e+01	5.5572	56.857001	0.000345	3.445995	0.583767	0.000069
 281	2.7860e+01	5.5772	56.986190	0.000649	6.486579	1.098856	0.000130
 282	2.7959e+01	5.5970	57.087118	0.000507	5.067640	0.858481	0.000101
 283	2.8059e+01	5.6178	57.188046	0.000507	5.067640	0.858481	0.000101
 284	2.8159e+01	5.6367	57.309160	0.000608	6.081168	1.030178	0.000122
 285	2.8258e+01	5.6576	57.402014	0.000466	4.662228	0.789803	0.000093
 286	2.8358e+01	5.6771	57.462572	0.000304	3.040584	0.515089	0.000061
 287	2.8457e+01	5.6963	57.571574	0.000547	5.473051	0.927160	0.000110
 288	2.8556e+01	5.7167	57.696725	0.000628	6.283873	1.064517	0.000126
 289	2.8656e+01	5.7360	57.757282	0.000304	3.040584	0.515089	0.000061
 290	2.8756e+01	5.7558	57.866285	0.000547	5.473051	0.927160	0.000110
 291	2.8855e+01	5.7766	57.991436	0.000628	6.283873	1.064517	0.000126
 292	2.8954e+01	5.7961	58.100439	0.000547	5.473051	0.927160	0.000110
 293	2.9054e+01	5.8166	58.144847	0.000223	2.229761	0.377732	0.000045
 294	2.9154e+01	5.8363	58.290184	0.000730	7.297401	1.236213	0.000146
 295	2.9253e+01	5.8562	58.379001	0.000446	4.459523	0.755464	0.000089
 296	2.9352e+01	5.8762	58.483967	0.000527	5.270345	0.892821	0.000105
 297	2.9452e+01	5.8962	58.580858	0.000486	4.864934	0.824142	0.000097
 298	2.9552e+01	5.9151	58.673712	0.000466	4.662228	0.789803	0.000093
 299	2.9651e+01	5.9356	58.778678	0.000527	5.270345	0.892821	0.000105
 300	2.9750e+01	5.9551	58.883643	0.000527	5.270345	0.892821	0.000105
 301	2.9850e+01	5.9745	58.992646	0.000547	5.473051	0.927160	0.000110
 302	2.9950e+01	5.9954	59.057240	0.000324	3.243289	0.549428	0.000065
 303	3.0049e+01	6.0159	59.137983	0.000405	4.054112	0.686785	0.000081
 304	3.0148e+01	6.0354	59.271208	0.000669	6.689284	1.133195	0.000134
 305	3.0248e+01	6.0554	59.368100	0.000486	4.864934	0.824142	0.000097
 306	3.0348e+01	6.0749	59.448842	0.000405	4.054112	0.686785	0.000081
 307	3.0447e+01	6.0951	59.557845	0.000547	5.473051	0.927160	0.000110
 308	3.0547e+01	6.1144	59.642625	0.000426	4.256817	0.721124	0.000085
 309	3.0646e+01	6.1353	59.767776	0.000628	6.283873	1.064517	0.000126
 310	3.0745e+01	6.1547	59.868704	0.000507	5.067640	0.858481	0.000101
 311	3.0845e+01	6.1752	59.925224	0.000284	2.837878	0.480750	0.000057
 312	3.0945e+01	6.1944	60.042301	0.000588	5.878462	0.995838	0.000118
 313	3.1044e+01	6.2156	60.119007	0.000385	3.851406	0.652446	0.000077
 314	3.1143e+01	6.2350	60.236084	0.000588	5.878462	0.995838	0.000118
 315	3.1243e+01	6.2540	60.328938	0.000466	4.662228	0.789803	0.000093
 316	3.1343e+01	6.2737	60.429866	0.000507	5.067640	0.858481	0.000101
 317	3.1442e+01	6.2943	60.534832	0.000527	5.270345	0.892821	0.000105
 318	3.1541e+01	6.3131	60.639797	0.000527	5.270345	0.892821	0.000105
 319	3.1641e+01	6.3338	60.732651	0.000466	4.662228	0.789803	0.000093
 320	3.1741e+01	6.3531	60.801283	0.000345	3.445995	0.583767	0.000069
 321	3.1840e+01	6.3738	60.918360	0.000588	5.878462	0.995838	0.000118
 322	3.1939e+01	6.3940	61.039474	0.000608	6.081168	1.030178	0.000122
 323	3.2039e+01	6.4124	61.136365	0.000486	4.864934	0.824142	0.000097
 324	3.2139e+01	6.4333	61.245368	0.000547	5.473051	0.927160	0.000110
 325	3.2238e+01	6.4532	61.322073	0.000385	3.851406	0.652446	0.000077
 326	3.2337e+01	6.4709	61.439150	0.000588	5.878462	0.995838	0.000118
 327	3.2437e+01	6.4928	61.548153	0.000547	5.473051	0.927160	0.000110
 328	3.2536e+01	6.5127	61.616784	0.000345	3.445995	0.583767	0.000069
 329	3.2636e+01	6.5332	61.721750	0.000527	5.270345	0.892821	0.000105
 330	3.2736e+01	6.5516	61.822678	0.000507	5.067640	0.858481	0.000101
 331	3.2835e+01	6.5737	61.891309	0.000345	3.445995	0.583767	0.000069
 332	3.2934e+01	6.5920	61.988201	0.000486	4.864934	0.824142	0.000097
 333	3.3034e+01	6.6123	62.109315	0.000608	6.081168	1.030178	0.000122
 334	3.3133e+01	6.6325	62.214280	0.000527	5.270345	0.892821	0.000105
 335	3.3233e+01	6.6515	62.327320	0.000568	5.675756	0.961499	0.000114
 336	3.3333e+01	6.6732	62.420174	0.000466	4.662228	0.789803	0.000093
 337	3.3432e+01	6.6933	62.517065	0.000486	4.864934	0.824142	0.000097
 338	3.3532e+01	6.7136	62.593771	0.000385	3.851406	0.652446	0.000077
 339	3.3631e+01	6.7321	62.690662	0.000486	4.864934	0.824142	0.000097
 340	3.3730e+01	6.7525	62.799665	0.000547	5.473051	0.927160	0.000110
 341	3.3830e+01	6.7725	62.908668	0.000547	5.473051	0.927160	0.000110
 342	3.3929e+01	6.7913	62.957113	0.000243	2.432467	0.412071	0.000049
 343	3.4029e+01	6.8121	63.066116	0.000547	5.473051	0.927160	0.000110
 344	3.4129e+01	6.8322	63.167044	0.000507	5.067640	0.858481	0.000101
 345	3.4228e+01	6.8523	63.247787	0.000405	4.054112	0.686785	0.000081
 346	3.4328e+01	6.8714	63.312381	0.000324	3.243289	0.549428	0.000065
 347	3.4427e+01	6.8911	63.425421	0.000568	5.675756	0.961499	0.000114
 348	3.4526e+01	6.9109	63.550572	0.000628	6.283873	1.064517	0.000126
 349	3.4626e+01	6.9311	63.623241	0.000365	3.648701	0.618107	0.000073
 350	3.4725e+01	6.9512	63.732243	0.000547	5.473051	0.927160	0.000110
 351	3.4825e+01	6.9719	63.764540	0.000162	1.621645	0.274714	0.000032
 352	3.4925e+01	6.9909	63.893729	0.000649	6.486579	1.098856	0.000130
 353	3.5024e+01	7.0115	64.030991	0.000689	6.891990	1.167535	0.000138
 354	3.5123e+01	7.0293	64.071363	0.000203	2.027056	0.343393	0.000041
 355	3.5223e+01	7.0514	64.184403	0.000568	5.675756	0.961499	0.000114
 356	3.5322e+01	7.0696	64.248997	0.000324	3.243289	0.549428	0.000065
 357	3.5422e+01	7.0908	64.366074	0.000588	5.878462	0.995838	0.000118
 358	3.5522e+01	7.1112	64.462965	0.000486	4.864934	0.824142	0.000097
 359	3.5621e+01	7.1311	64.531596	0.000345	3.445995	0.583767	0.000069
 360	3.5721e+01	7.1499	64.632525	0.000507	5.067640	0.858481	0.000101
 361	3.5820e+01	7.1716	64.721342	0.000446	4.459523	0.755464	0.000089
 362	3.5919e+01	7.1899	64.814196	0.000466	4.662228	0.789803	0.000093
 363	3.6019e+01	7.2106	64.870716	0.000284	2.837878	0.480750	0.000057
 364	3.6118e+01	7.2301	65.024127	0.000770	7.702812	1.304892	0.000154
 365	3.6218e+01	7.2497	65.068535	0.000223	2.229761	0.377732	0.000045
 366	3.6318e+01	7.2701	65.185612	0.000588	5.878462	0.995838	0.000118
 367	3.6417e+01	7.2909	65.246169	0.000304	3.040584	0.515089	0.000061
 368	3.6517e+01	7.3098	65.294615	0.000243	2.432467	0.412071	0.000049
 369	3.6616e+01	7.3306	65.407655	0.000568	5.675756	0.961499	0.000114
 370	3.6715e+01	7.3489	65.532806	0.000628	6.283873	1.064517	0.000126
 371	3.6815e+01	7.3691	65.625660	0.000466	4.662228	0.789803	0.000093
 372	3.6914e+01	7.3893	65.682180	0.000284	2.837878	0.480750	0.000057
 373	3.7014e+01	7.4098	65.787145	0.000527	5.270345	0.892821	0.000105
 374	3.7114e+01	7.4296	65.888074	0.000507	5.067640	0.858481	0.000101
 375	3.7213e+01	7.4495	65.989002	0.000507	5.067640	0.858481	0.000101
 376	3.7313e+01	7.4689	66.045522	0.000284	2.837878	0.480750	0.000057
 377	3.7412e+01	7.4886	66.154525	0.000547	5.473051	0.927160	0.000110
 378	3.7511e+01	7.5089	66.219119	0.000324	3.243289	0.549428	0.000065
 379	3.7611e+01	7.5283	66.316010	0.000486	4.864934	0.824142	0.000097
 380	3.7711e+01	7.5485	66.420976	0.000527	5.270345	0.892821	0.000105
 381	3.7810e+01	7.5686	66.485570	0.000324	3.243289	0.549428	0.000065
 382	3.7910e+01	7.5888	66.554201	0.000345	3.445995	0.583767	0.000069
 383	3.8009e+01	7.6094	66.667241	0.000568	5.675756	0.961499	0.000114
 384	3.8108e+01	7.6296	66.760095	0.000466	4.662228	0.789803	0.000093
 385	3.8208e+01	7.6490	66.836801	0.000385	3.851406	0.652446	0.000077
 386	3.8307e+01	7.6698	66.893321	0.000284	2.837878	0.480750	0.000057
 387	3.8407e+01	7.6884	67.014435	0.000608	6.081168	1.030178	0.000122
 388	3.8507e+01	7.7081	67.091140	0.000385	3.851406	0.652446	0.000077
 389	3.8606e+01	7.7278	67.200143	0.000547	5.473051	0.927160	0.000110
 390	3.8706e+01	7.7480	67.244551	0.000223	2.229761	0.377732	0.000045
 391	3.8805e+01	7.7676	67.373740	0.000649	6.486579	1.098856	0.000130
 392	3.8904e+01	7.7878	67.430260	0.000284	2.837878	0.480750	0.000057
 393	3.9004e+01	7.8082	67.531188	0.000507	5.067640	0.858481	0.000101
 394	3.9103e+01	7.8271	67.628079	0.000486	4.864934	0.824142	0.000097
 395	3.9203e+01	7.8484	67.684599	0.000284	2.837878	0.480750	0.000057
 396	3.9303e+01	7.8684	67.753231	0.000345	3.445995	0.583767	0.000069
 397	3.9402e+01	7.8882	67.882419	0.000649	6.486579	1.098856	0.000130
 398	3.9502e+01	7.9077	67.947013	0.000324	3.243289	0.549428	0.000065
 399	3.9601e+01	7.9270	68.023719	0.000385	3.851406	0.652446	0.000077
 400	3.9700e+01	7.9460	68.116573	0.000466	4.662228	0.789803	0.000093
 401	3.9800e+01	7.9676	68.221538	0.000527	5.270345	0.892821	0.000105
 402	3.9900e+01	7.9874	68.302281	0.000405	4.054112	0.686785	0.000081
 403	3.9999e+01	8.0068	68.374949	0.000365	3.648701	0.618107	0.000073
 404	4.0099e+01	8.0268	68.419358	0.000223	2.229761	0.377732	0.000045
 405	4.0198e+01	8.0470	68.552583	0.000669	6.689284	1.133195	0.000134
 406	4.0297e+01	8.0673	68.613140	0.000304	3.040584	0.515089	0.000061
 407	4.0397e+01	8.0862	68.718106	0.000527	5.270345	0.892821	0.000105
 408	4.0496e+01	8.1065	68.770589	0.000264	2.635173	0.446410	0.000053
 409	4.0596e+01	8.1268	68.875554	0.000527	5.270345	0.892821	0.000105
 410	4.0696e+01	8.1468	68.919963	0.000223	2.229761	0.377732	0.000045
 411	4.0795e+01	8.1661	69.012817	0.000466	4.662228	0.789803	0.000093
 412	4.0895e+01	8.1866	69.154117	0.000709	7.094695	1.201874	0.000142
 413	4.0994e+01	8.2063	69.170265	0.000081	0.810822	0.137357	0.000016
 414	4.1093e+01	8.2268	69.291379	0.000608	6.081168	1.030178	0.000122
 415	4.1193e+01	8.2471	69.360011	0.000345	3.445995	0.583767	0.000069
 416	4.1292e+01	8.2650	69.440753	0.000405	4.054112	0.686785	0.000081
 417	4.1392e+01	8.2854	69.481125	0.000203	2.027056	0.343393	0.000041
 418	4.1492e+01	8.3049	69.582053	0.000507	5.067640	0.858481	0.000101
 419	4.1591e+01	8.3260	69.650684	0.000345	3.445995	0.583767	0.000069
 420	4.1691e+01	8.3448	69.763724	0.000568	5.675756	0.961499	0.000114
 421	4.1790e+01	8.3630	69.832355	0.000345	3.445995	0.583767	0.000069
 422	4.1889e+01	8.3856	69.945395	0.000568	5.675756	0.961499	0.000114
 423	4.1989e+01	8.4054	70.001915	0.000284	2.837878	0.480750	0.000057
 424	4.2089e+01	8.4250	70.086695	0.000426	4.256817	0.721124	0.000085
 425	4.2188e+01	8.4438	70.183586	0.000486	4.864934	0.824142	0.000097
 426	4.2288e+01	8.4649	70.223958	0.000203	2.027056	0.343393	0.000041
 427	4.2387e+01	8.4852	70.312775	0.000446	4.459523	0.755464	0.000089
 428	4.2486e+01	8.5049	70.409666	0.000486	4.864934	0.824142	0.000097
 429	4.2586e+01	8.5254	70.494446	0.000426	4.256817	0.721124	0.000085
 430	4.2685e+01	8.5444	70.599411	0.000527	5.270345	0.892821	0.000105
 431	4.2785e+01	8.5647	70.684191	0.000426	4.256817	0.721124	0.000085
 432	4.2885e+01	8.5840	70.764934	0.000405	4.054112	0.686785	0.000081
 433	4.2984e+01	8.6047	70.817417	0.000264	2.635173	0.446410	0.000053
 434	4.3084e+01	8.6258	70.906234	0.000446	4.459523	0.755464	0.000089
 435	4.3183e+01	8.6446	70.982939	0.000385	3.851406	0.652446	0.000077
 436	4.3282e+01	8.6643	71.095979	0.000568	5.675756	0.961499	0.000114
 437	4.3382e+01	8.6842	71.156536	0.000304	3.040584	0.515089	0.000061
 438	4.3481e+01	8.7041	71.241316	0.000426	4.256817	0.721124	0.000085
 439	4.3581e+01	8.7238	71.350318	0.000547	5.473051	0.927160	0.000110
 440	4.3681e+01	8.7439	71.410876	0.000304	3.040584	0.515089	0.000061
 441	4.3780e+01	8.7641	71.507767	0.000486	4.864934	0.824142	0.000097
 442	4.3880e+01	8.7837	71.556212	0.000243	2.432467	0.412071	0.000049
 443	4.3979e+01	8.8037	71.661178	0.000527	5.270345	0.892821	0.000105
 444	4.4078e+01	8.8239	71.754032	0.000466	4.662228	0.789803	0.000093
 445	4.4178e+01	8.8419	71.826700	0.000365	3.648701	0.618107	0.000073
 446	4.4278e+01	8.8623	71.931666	0.000527	5.270345	0.892821	0.000105
 447	4.4377e+01	8.8821	71.984149	0.000264	2.635173	0.446410	0.000053
 448	4.4477e+01	8.9020	72.101226	0.000588	5.878462	0.995838	0.000118
 449	4.4576e+01	8.9230	72.165820	0.000324	3.243289	0.549428	0.000065
 450	4.4675e+01	8.9433	72.242525	0.000385	3.851406	0.652446	0.000077
 451	4.4775e+01	8.9614	72.343454	0.000507	5.067640	0.858481	0.000101
 452	4.4874e+01	8.9830	72.363640	0.000101	1.013528	0.171696	0.000020
 453	4.4974e+01	9.0021	72.508976	0.000730	7.297401	1.236213	0.000146
 454	4.5074e+01	9.0212	72.613942	0.000527	5.270345	0.892821	0.000105
 455	4.5173e+01	9.0425	72.662388	0.000243	2.432467	0.412071	0.000049
 456	4.5273e+01	9.0625	72.779465	0.000588	5.878462	0.995838	0.000118
 457	4.5372e+01	9.0826	72.807724	0.000142	1.418939	0.240375	0.000028
 458	4.5471e+01	9.1022	72.936913	0.000649	6.486579	1.098856	0.000130
 459	4.5571e+01	9.1222	73.021693	0.000426	4.256817	0.721124	0.000085
 460	4.5670e+01	9.1413	73.102435	0.000405	4.054112	0.686785	0.000081
 461	4.5770e+01	9.1621	73.171067	0.000345	3.445995	0.583767	0.000069
 462	4.5870e+01	9.1810	73.280069	0.000547	5.473051	0.927160	0.000110
 463	4.5969e+01	9.2010	73.320441	0.000203	2.027056	0.343393	0.000041
 464	4.6069e+01	9.2212	73.437518	0.000588	5.878462	0.995838	0.000118
 465	4.6168e+01	9.2412	73.510186	0.000365	3.648701	0.618107	0.000073
 466	4.6267e+01	9.2614	73.599003	0.000446	4.459523	0.755464	0.000089
 467	4.6367e+01	9.2822	73.687820	0.000446	4.459523	0.755464	0.000089
 468	4.6467e+01	9.3018	73.772600	0.000426	4.256817	0.721124	0.000085
 469	4.6566e+01	9.3217	73.877565	0.000527	5.270345	0.892821	0.000105
 470	4.6666e+01	9.3409	73.942160	0.000324	3.243289	0.549428	0.000065
 471	4.6765e+01	9.3613	74.010791	0.000345	3.445995	0.583767	0.000069
 472	4.6864e+01	9.3800	74.111719	0.000507	5.067640	0.858481	0.000101
 473	4.6964e+01	9.4003	74.188425	0.000385	3.851406	0.652446	0.000077
 474	4.7063e+01	9.4209	74.261093	0.000365	3.648701	0.618107	0.000073
 475	4.7163e+01	9.4411	74.333762	0.000365	3.648701	0.618107	0.000073
 476	4.7263e+01	9.4605	74.414504	0.000405	4.054112	0.686785	0.000081
 477	4.7362e+01	9.4803	74.547730	0.000669	6.689284	1.133195	0.000134
 478	4.7462e+01	9.4997	74.628473	0.000405	4.054112	0.686785	0.000081
 479	4.7561e+01	9.5202	74.689030	0.000304	3.040584	0.515089	0.000061
 480	4.7660e+01	9.5396	74.785921	0.000486	4.864934	0.824142	0.000097
 481	4.7760e+01	9.5596	74.898961	0.000568	5.675756	0.961499	0.000114
 482	4.7859e+01	9.5795	74.951444	0.000264	2.635173	0.446410	0.000053
 483	4.7959e+01	9.6000	75.032186	0.000405	4.054112	0.686785	0.000081
 484	4.8059e+01	9.6199	75.100818	0.000345	3.445995	0.583767	0.000069
 485	4.8158e+01	9.6395	75.193672	0.000466	4.662228	0.789803	0.000093
 486	4.8258e+01	9.6597	75.290563	0.000486	4.864934	0.824142	0.000097
 487	4.8357e+01	9.6802	75.330934	0.000203	2.027056	0.343393	0.000041
 488	4.8456e+01	9.6987	75.423788	0.000466	4.662228	0.789803	0.000093
 489	4.8556e+01	9.7195	75.536828	0.000568	5.675756	0.961499	0.000114
 490	4.8656e+01	9.7398	75.657942	0.000608	6.081168	1.030178	0.000122
 491	4.8755e+01	9.7595	75.710425	0.000264	2.635173	0.446410	0.000053
 492	4.8855e+01	9.7803	75.775019	0.000324	3.243289	0.549428	0.000065
 493	4.8954e+01	9.7992	75.867873	0.000466	4.662228	0.789803	0.000093
 494	4.9053e+01	9.8187	75.972839	0.000527	5.270345	0.892821	0.000105
 495	4.9153e+01	9.8389	76.057619	0.000426	4.256817	0.721124	0.000085
 496	4.9252e+01	9.8578	76.162584	0.000527	5.270345	0.892821	0.000105
 497	4.9352e+01	9.8788	76.219104	0.000284	2.837878	0.480750	0.000057
 498	4.9452e+01	9.8986	76.340218	0.000608	6.081168	1.030178	0.000122
 499	4.9551e+01	9.9184	76.392701	0.000264	2.635173	0.446410	0.000053
 500	4.9651e+01	9.9372	76.473444	0.000405	4.054112	0.686785	0.000081
 501	4.9750e+01	9.9585	76.566298	0.000466	4.662228	0.789803	0.000093
 502	4.9849e+01	9.9770	76.675301	0.000547	5.473051	0.927160	0.000110
 503	4.9949e+01	9.9969	76.800452	0.000628	6.283873	1.064517	0.000126
 504	5.0048e+01	9.9780	76.711635	0.000446	4.459523	0.755464	-0.000089
 505	5.0148e+01	9.9583	76.651078	0.000304	3.040584	0.515089	-0.000061
 506	5.0248e+01	9.9382	76.606669	0.000223	2.229761	0.377732	-0.000045
 507	5.0347e+01	9.9186	76.558224	0.000243	2.432467	0.412071	-0.000049
 508	5.0447e+01	9.8992	76.489592	0.000345	3.445995	0.583767	-0.000069
 509	5.0546e+01	9.8788	76.477481	0.000061	0.608117	0.103018	-0.000012
 510	5.0645e+01	9.8579	76.392701	0.000426	4.256817	0.721124	-0.000085
 511	5.0745e+01	9.8389	76.340218	0.000264	2.635173	0.446410	-0.000053
 512	5.0844e+01	9.8193	76.259476	0.000405	4.054112	0.686785	-0.000081
 513	5.0944e+01	9.7991	76.255438	0.000020	0.202706	0.034339	-0.000004
 514	5.1044e+01	9.7793	76.198918	0.000284	2.837878	0.480750	-0.000057
 515	5.1143e+01	9.7596	76.118176	0.000405	4.054112	0.686785	-0.000081
 516	5.1242e+01	9.7396	76.073767	0.000223	2.229761	0.377732	-0.000045
 517	5.1342e+01	9.7192	75.993025	0.000405	4.054112	0.686785	-0.000081
 518	5.1441e+01	9.6990	75.936505	0.000284	2.837878	0.480750	-0.000057
 519	5.1541e+01	9.6793	75.900170	0.000182	1.824350	0.309053	-0.000037
 520	5.1641e+01	9.6590	75.803279	0.000486	4.864934	0.824142	-0.000097
 521	5.1740e+01	9.6402	75.746759	0.000284	2.837878	0.480750	-0.000057
 522	5.1840e+01	9.6198	75.694277	0.000264	2.635173	0.446410	-0.000053
 523	5.1939e+01	9.5996	75.674091	0.000101	1.013528	0.171696	-0.000020
 524	5.2038e+01	9.5792	75.577200	0.000486	4.864934	0.824142	-0.000097
 525	5.2138e+01	9.5596	75.524717	0.000264	2.635173	0.446410	-0.000053
 526	5.2237e+01	9.5392	75.460123	0.000324	3.243289	0.549428	-0.000065
 527	5.2337e+01	9.5200	75.379380	0.000405	4.054112	0.686785	-0.000081
 528	5.2437e+01	9.5004	75.351120	0.000142	1.418939	0.240375	-0.000028
 529	5.2536e+01	9.4794	75.278452	0.000365	3.648701	0.618107	-0.000073
 530	5.2636e+01	9.4598	75.193672	0.000426	4.256817	0.721124	-0.000085
 531	5.2735e+01	9.4403	75.145226	0.000243	2.432467	0.412071	-0.000049
 532	5.2834e+01	9.4201	75.092743	0.000264	2.635173	0.446410	-0.000053
 533	5.2934e+01	9.4012	75.068520	0.000122	1.216234	0.206036	-0.000024
 534	5.3033e+01	9.3810	74.947406	0.000608	6.081168	1.030178	-0.000122
 535	5.3133e+01	9.3610	74.878775	0.000345	3.445995	0.583767	-0.000069
 536	5.3233e+01	9.3408	74.838404	0.000203	2.027056	0.343393	-0.000041
 537	5.3332e+01	9.3213	74.745550	0.000466	4.662228	0.789803	-0.000093
 538	5.3431e+01	9.3011	74.705178	0.000203	2.027056	0.343393	-0.000041
 539	5.3531e+01	9.2812	74.620398	0.000426	4.256817	0.721124	-0.000085
 540	5.3630e+01	9.2606	74.592138	0.000142	1.418939	0.240375	-0.000028
 541	5.3730e+01	9.2413	74.491210	0.000507	5.067640	0.858481	-0.000101
 542	5.3830e+01	9.2188	74.434690	0.000284	2.837878	0.480750	-0.000057
 543	5.3929e+01	9.2020	74.357985	0.000385	3.851406	0.652446	-0.000077
 544	5.4029e+01	9.1815	74.277242	0.000405	4.054112	0.686785	-0.000081
 545	5.4128e+01	9.1622	74.236871	0.000203	2.027056	0.343393	-0.000041
 546	5.4227e+01	9.1425	74.156128	0.000405	4.054112	0.686785	-0.000081
 547	5.4327e+01	9.1228	74.083459	0.000365	3.648701	0.618107	-0.000073
 548	5.4426e+01	9.1016	74.043088	0.000203	2.027056	0.343393	-0.000041
 549	5.4526e+01	9.0814	73.950234	0.000466	4.662228	0.789803	-0.000093
 550	5.4626e+01	9.0625	73.942160	0.000041	0.405411	0.068679	-0.000008
 551	5.4725e+01	9.0430	73.865454	0.000385	3.851406	0.652446	-0.000077
 552	5.4825e+01	9.0225	73.744340	0.000608	6.081168	1.030178	-0.000122
 553	5.4924e+01	9.0017	73.679746	0.000324	3.243289	0.549428	-0.000065
 554	5.5023e+01	8.9811	73.623226	0.000284	2.837878	0.480750	-0.000057
 555	5.5123e+01	8.9619	73.542483	0.000405	4.054112	0.686785	-0.000081
 556	5.5222e+01	8.9419	73.481926	0.000304	3.040584	0.515089	-0.000061
 557	5.5322e+01	8.9223	73.401183	0.000405	4.054112	0.686785	-0.000081
 558	5.5422e+01	8.9030	73.340626	0.000304	3.040584	0.515089	-0.000061
 559	5.5521e+01	8.8828	73.243735	0.000486	4.864934	0.824142	-0.000097
 560	5.5620e+01	8.8630	73.211438	0.000162	1.621645	0.274714	-0.000032
 561	5.5720e+01	8.8420	73.114547	0.000486	4.864934	0.824142	-0.000097
 562	5.5819e+01	8.8241	73.070138	0.000223	2.229761	0.377732	-0.000045
 563	5.5919e+01	8.8037	72.977284	0.000466	4.662228	0.789803	-0.000093
 564	5.6019e+01	8.7832	72.961136	0.000081	0.810822	0.137357	-0.000016
 565	5.6118e+01	8.7627	72.844059	0.000588	5.878462	0.995838	-0.000118
 566	5.6218e+01	8.7433	72.787539	0.000284	2.837878	0.480750	-0.000057
 567	5.6317e+01	8.7240	72.718907	0.000345	3.445995	0.583767	-0.000069
 568	5.6416e+01	8.7043	72.642202	0.000385	3.851406	0.652446	-0.000077
 569	5.6516e+01	8.6848	72.545311	0.000486	4.864934	0.824142	-0.000097
 570	5.6615e+01	8.6649	72.500902	0.000223	2.229761	0.377732	-0.000045
 571	5.6715e+01	8.6450	72.420159	0.000405	4.054112	0.686785	-0.000081
 572	5.6815e+01	8.6240	72.412085	0.000041	0.405411	0.068679	-0.000008
 573	5.6914e+01	8.6044	72.286934	0.000628	6.283873	1.064517	-0.000126
 574	5.7014e+01	8.5841	72.186006	0.000507	5.067640	0.858481	-0.000101
 575	5.7113e+01	8.5638	72.101226	0.000426	4.256817	0.721124	-0.000085
 576	5.7212e+01	8.5438	72.072966	0.000142	1.418939	0.240375	-0.000028
 577	5.7312e+01	8.5249	72.012409	0.000304	3.040584	0.515089	-0.000061
 578	5.7411e+01	8.5048	71.875146	0.000689	6.891990	1.167535	-0.000138
 579	5.7511e+01	8.4849	71.850923	0.000122	1.216234	0.206036	-0.000024
 580	5.7611e+01	8.4641	71.741921	0.000547	5.473051	0.927160	-0.000110
 581	5.7710e+01	8.4452	71.645029	0.000486	4.864934	0.824142	-0.000097
 582	5.7809e+01	8.4256	71.588509	0.000284	2.837878	0.480750	-0.000057
 583	5.7909e+01	8.4061	71.519878	0.000345	3.445995	0.583767	-0.000069
 584	5.8008e+01	8.3847	71.455284	0.000324	3.243289	0.549428	-0.000065
 585	5.8108e+01	8.3657	71.370504	0.000426	4.256817	0.721124	-0.000085
 586	5.8208e+01	8.3460	71.273613	0.000486	4.864934	0.824142	-0.000097
 587	5.8307e+01	8.3244	71.233242	0.000203	2.027056	0.343393	-0.000041
 588	5.8407e+01	8.3060	71.156536	0.000385	3.851406	0.652446	-0.000077
 589	5.8506e+01	8.2849	71.063682	0.000466	4.662228	0.789803	-0.000093
 590	5.8605e+01	8.2660	71.011199	0.000264	2.635173	0.446410	-0.000053
 591	5.8705e+01	8.2459	70.898159	0.000568	5.675756	0.961499	-0.000114
 592	5.8804e+01	8.2259	70.813379	0.000426	4.256817	0.721124	-0.000085
 593	5.8904e+01	8.2069	70.756860	0.000284	2.837878	0.480750	-0.000057
 594	5.9004e+01	8.1853	70.659968	0.000486	4.864934	0.824142	-0.000097
 595	5.9103e+01	8.1664	70.587300	0.000365	3.648701	0.618107	-0.000073
 596	5.9203e+01	8.1458	70.542891	0.000223	2.229761	0.377732	-0.000045
 597	5.9302e+01	8.1265	70.470223	0.000365	3.648701	0.618107	-0.000073
 598	5.9401e+01	8.1070	70.401592	0.000345	3.445995	0.583767	-0.000069
 599	5.9501e+01	8.0866	70.312775	0.000446	4.459523	0.755464	-0.000089
 600	5.9600e+01	8.0664	70.252218	0.000304	3.040584	0.515089	-0.000061
 601	5.9700e+01	8.0462	70.171475	0.000405	4.054112	0.686785	-0.000081
 602	5.9800e+01	8.0268	70.078621	0.000466	4.662228	0.789803	-0.000093
 603	5.9899e+01	8.0068	69.965581	0.000568	5.675756	0.961499	-0.000114
 604	5.9998e+01	7.9868	69.969618	-0.000020	-0.202706	-0.034339	0.000004
 605	6.0098e+01	7.9678	69.872727	0.000486	4.864934	0.824142	-0.000097
 606	6.0197e+01	7.9478	69.783910	0.000446	4.459523	0.755464	-0.000089
 607	6.0297e+01	7.9282	69.731427	0.000264	2.635173	0.446410	-0.000053
 608	6.0397e+01	7.9080	69.654721	0.000385	3.851406	0.652446	-0.000077
 609	6.0496e+01	7.8873	69.578016	0.000385	3.851406	0.652446	-0.000077
 610	6.0596e+01	7.8680	69.517459	0.000304	3.040584	0.515089	-0.000061
 611	6.0695e+01	7.8467	69.420568	0.000486	4.864934	0.824142	-0.000097
 612	6.0794e+01	7.8271	69.372122	0.000243	2.432467	0.412071	-0.000049
 613	6.0894e+01	7.8076	69.255045	0.000588	5.878462	0.995838	-0.000118
 614	6.0993e+01	7.7876	69.210637	0.000223	2.229761	0.377732	-0.000045
 615	6.1093e+01	7.7679	69.117782	0.000466	4.662228	0.789803	-0.000093
 616	6.1193e+01	7.7490	69.085485	0.000162	1.621645	0.274714	-0.000032
 617	6.1292e+01	7.7280	69.000705	0.000426	4.256817	0.721124	-0.000085
 618	6.1392e+01	7.7082	68.936111	0.000324	3.243289	0.549428	-0.000065
 619	6.1491e+01	7.6884	68.819034	0.000588	5.878462	0.995838	-0.000118
 620	6.1590e+01	7.6682	68.762514	0.000284	2.837878	0.480750	-0.000057
 621	6.1690e+01	7.6471	68.693883	0.000345	3.445995	0.583767	-0.000069
 622	6.1789e+01	7.6287	68.637363	0.000284	2.837878	0.480750	-0.000057
 623	6.1889e+01	7.6087	68.540472	0.000486	4.864934	0.824142	-0.000097
 624	6.1989e+01	7.5884	68.471841	0.000345	3.445995	0.583767	-0.000069
 625	6.2088e+01	7.5694	68.423395	0.000243	2.432467	0.412071	-0.000049
 626	6.2188e+01	7.5494	68.314392	0.000547	5.473051	0.927160	-0.000110
 627	6.2287e+01	7.5297	68.237687	0.000385	3.851406	0.652446	-0.000077
 628	6.2386e+01	7.5088	68.152907	0.000426	4.256817	0.721124	-0.000085
 629	6.2486e+01	7.4895	68.108498	0.000223	2.229761	0.377732	-0.000045
 630	6.2586e+01	7.4691	68.035830	0.000365	3.648701	0.618107	-0.000073
 631	6.2685e+01	7.4512	67.910679	0.000628	6.283873	1.064517	-0.000126
 632	6.2785e+01	7.4298	67.894530	0.000081	0.810822	0.137357	-0.000016
 633	6.2884e+01	7.4096	67.817825	0.000385	3.851406	0.652446	-0.000077
 634	6.2983e+01	7.3891	67.720933	0.000486	4.864934	0.824142	-0.000097
 635	6.3083e+01	7.3703	67.620005	0.000507	5.067640	0.858481	-0.000101
 636	6.3182e+01	7.3497	67.539262	0.000405	4.054112	0.686785	-0.000081
 637	6.3282e+01	7.3306	67.478705	0.000304	3.040584	0.515089	-0.000061
 638	6.3382e+01	7.3097	67.410074	0.000345	3.445995	0.583767	-0.000069
 639	6.3481e+01	7.2897	67.321257	0.000446	4.459523	0.755464	-0.000089
 640	6.3581e+01	7.2698	67.228403	0.000466	4.662228	0.789803	-0.000093
 641	6.3680e+01	7.2504	67.183994	0.000223	2.229761	0.377732	-0.000045
 642	6.3779e+01	7.2300	67.155734	0.000142	1.418939	0.240375	-0.000028
 643	6.3879e+01	7.2096	67.030583	0.000628	6.283873	1.064517	-0.000126
 644	6.3978e+01	7.1905	66.949841	0.000405	4.054112	0.686785	-0.000081
 645	6.4078e+01	7.1706	66.865061	0.000426	4.256817	0.721124	-0.000085
 646	6.4177e+01	7.1502	66.836801	0.000142	1.418939	0.240375	-0.000028
 647	6.4277e+01	7.1313	66.768169	0.000345	3.445995	0.583767	-0.000069
 648	6.4376e+01	7.1105	66.647055	0.000608	6.081168	1.030178	-0.000122
 649	6.4476e+01	7.0908	66.554201	0.000466	4.662228	0.789803	-0.000093
 650	6.4576e+01	7.0704	66.469421	0.000426	4.256817	0.721124	-0.000085
 651	6.4675e+01	7.0519	66.429050	0.000203	2.027056	0.343393	-0.000041
 652	6.4775e+01	7.0313	66.324084	0.000527	5.270345	0.892821	-0.000105
 653	6.4874e+01	7.0110	66.243342	0.000405	4.054112	0.686785	-0.000081
 654	6.4974e+01	6.9909	66.186822	0.000284	2.837878	0.480750	-0.000057
 655	6.5073e+01	6.9716	66.077819	0.000547	5.473051	0.927160	-0.000110
 656	6.5172e+01	6.9515	66.037448	0.000203	2.027056	0.343393	-0.000041
 657	6.5272e+01	6.9313	65.968817	0.000345	3.445995	0.583767	-0.000069
 658	6.5371e+01	6.9129	65.855777	0.000568	5.675756	0.961499	-0.000114
 659	6.5471e+01	6.8911	65.819443	0.000182	1.824350	0.309053	-0.000037
 660	6.5570e+01	6.8714	65.746774	0.000365	3.648701	0.618107	-0.000073
 661	6.5670e+01	6.8520	65.633734	0.000568	5.675756	0.961499	-0.000114
 662	6.5769e+01	6.8314	65.577214	0.000284	2.837878	0.480750	-0.000057
 663	6.5869e+01	6.8114	65.484360	0.000466	4.662228	0.789803	-0.000093
 664	6.5969e+01	6.7903	65.443989	0.000203	2.027056	0.343393	-0.000041
 665	6.6068e+01	6.7725	65.371320	0.000365	3.648701	0.618107	-0.000073
 666	6.6168e+01	6.7529	65.294615	0.000385	3.851406	0.652446	-0.000077
 667	6.6267e+01	6.7330	65.201761	0.000466	4.662228	0.789803	-0.000093
 668	6.6367e+01	6.7113	65.149278	0.000264	2.635173	0.446410	-0.000053
 669	6.6466e+01	6.6919	65.064498	0.000426	4.256817	0.721124	-0.000085
 670	6.6566e+01	6.6730	64.971644	0.000466	4.662228	0.789803	-0.000093
 671	6.6665e+01	6.6525	64.886864	0.000426	4.256817	0.721124	-0.000085
 672	6.6764e+01	6.6328	64.814196	0.000365	3.648701	0.618107	-0.000073
 673	6.6864e+01	6.6124	64.781899	0.000162	1.621645	0.274714	-0.000032
 674	6.6963e+01	6.5931	64.636562	0.000730	7.297401	1.236213	-0.000146
 675	6.7063e+01	6.5725	64.596190	0.000203	2.027056	0.343393	-0.000041
 676	6.7162e+01	6.5528	64.535633	0.000304	3.040584	0.515089	-0.000061
 677	6.7262e+01	6.5334	64.446816	0.000446	4.459523	0.755464	-0.000089
 678	6.7362e+01	6.5141	64.337814	0.000547	5.473051	0.927160	-0.000110
 679	6.7461e+01	6.4922	64.285331	0.000264	2.635173	0.446410	-0.000053
 680	6.7561e+01	6.4739	64.188440	0.000486	4.864934	0.824142	-0.000097
 681	6.7660e+01	6.4537	64.107697	0.000405	4.054112	0.686785	-0.000081
 682	6.7760e+01	6.4327	64.043103	0.000324	3.243289	0.549428	-0.000065
 683	6.7859e+01	6.4126	63.926026	0.000588	5.878462	0.995838	-0.000118
 684	6.7959e+01	6.3932	63.881617	0.000223	2.229761	0.377732	-0.000045
 685	6.8058e+01	6.3744	63.792800	0.000446	4.459523	0.755464	-0.000089
 686	6.8157e+01	6.3525	63.695909	0.000486	4.864934	0.824142	-0.000097
 687	6.8257e+01	6.3346	63.619204	0.000385	3.851406	0.652446	-0.000077
 688	6.8356e+01	6.3143	63.485978	0.000669	6.689284	1.133195	-0.000134
 689	6.8456e+01	6.2948	63.449644	0.000182	1.824350	0.309053	-0.000037
 690	6.8555e+01	6.2745	63.352753	0.000486	4.864934	0.824142	-0.000097
 691	6.8655e+01	6.2552	63.280084	0.000365	3.648701	0.618107	-0.000073
 692	6.8754e+01	6.2359	63.199341	0.000405	4.054112	0.686785	-0.000081
 693	6.8854e+01	6.2160	63.078227	0.000608	6.081168	1.030178	-0.000122
 694	6.8954e+01	6.1947	63.021707	0.000284	2.837878	0.480750	-0.000057
 695	6.9053e+01	6.1749	62.957113	0.000324	3.243289	0.549428	-0.000065
 696	6.9153e+01	6.1553	62.840036	0.000588	5.878462	0.995838	-0.000118
 697	6.9252e+01	6.1353	62.739108	0.000507	5.067640	0.858481	-0.000101
 698	6.9352e+01	6.1157	62.662402	0.000385	3.851406	0.652446	-0.000077
 699	6.9451e+01	6.0943	62.597808	0.000324	3.243289	0.549428	-0.000065
 700	6.9550e+01	6.0757	62.549363	0.000243	2.432467	0.412071	-0.000049
 701	6.9650e+01	6.0552	62.432286	0.000588	5.878462	0.995838	-0.000118
 702	6.9749e+01	6.0350	62.339431	0.000466	4.662228	0.789803	-0.000093
 703	6.9849e+01	6.0156	62.270800	0.000345	3.445995	0.583767	-0.000069
 704	6.9948e+01	5.9962	62.202169	0.000345	3.445995	0.583767	-0.000069
 705	7.0048e+01	5.9762	62.109315	0.000466	4.662228	0.789803	-0.000093
 706	7.0147e+01	5.9560	61.996275	0.000568	5.675756	0.961499	-0.000114
 707	7.0247e+01	5.9351	61.943792	0.000264	2.635173	0.446410	-0.000053
 708	7.0347e+01	5.9167	61.822678	0.000608	6.081168	1.030178	-0.000122
 709	7.0446e+01	5.8961	61.745973	0.000385	3.851406	0.652446	-0.000077
 710	7.0546e+01	5.8755	61.649081	0.000486	4.864934	0.824142	-0.000097
 711	7.0645e+01	5.8569	61.552190	0.000486	4.864934	0.824142	-0.000097
 712	7.0745e+01	5.8356	61.495670	0.000284	2.837878	0.480750	-0.000057
 713	7.0844e+01	5.8167	61.374556	0.000608	6.081168	1.030178	-0.000122
 714	7.0944e+01	5.7964	61.261516	0.000568	5.675756	0.961499	-0.000114
 715	7.1043e+01	5.7757	61.168662	0.000466	4.662228	0.789803	-0.000093
 716	7.1142e+01	5.7561	61.120217	0.000243	2.432467	0.412071	-0.000049
 717	7.1242e+01	5.7363	61.035437	0.000426	4.256817	0.721124	-0.000085
 718	7.1341e+01	5.7170	60.926434	0.000547	5.473051	0.927160	-0.000110
 719	7.1441e+01	5.6959	60.833580	0.000466	4.662228	0.789803	-0.000093
 720	7.1540e+01	5.6762	60.764949	0.000345	3.445995	0.583767	-0.000069
 721	7.1640e+01	5.6574	60.672094	0.000466	4.662228	0.789803	-0.000093
 722	7.1740e+01	5.6368	60.571166	0.000507	5.067640	0.858481	-0.000101
 723	7.1839e+01	5.6177	60.474275	0.000486	4.864934	0.824142	-0.000097
 724	7.1939e+01	5.5962	60.369309	0.000527	5.270345	0.892821	-0.000105
 725	7.2038e+01	5.5776	60.296641	0.000365	3.648701	0.618107	-0.000073
 726	7.2138e+01	5.5578	60.248195	0.000243	2.432467	0.412071	-0.000049
 727	7.2237e+01	5.5379	60.127081	0.000608	6.081168	1.030178	-0.000122
 728	7.2337e+01	5.5169	60.042301	0.000426	4.256817	0.721124	-0.000085
 729	7.2436e+01	5.4988	59.965596	0.000385	3.851406	0.652446	-0.000077
 730	7.2535e+01	5.4781	59.840444	0.000628	6.283873	1.064517	-0.000126
 731	7.2635e+01	5.4571	59.755665	0.000426	4.256817	0.721124	-0.000085
 732	7.2734e+01	5.4372	59.678959	0.000385	3.851406	0.652446	-0.000077
 733	7.2834e+01	5.4178	59.561882	0.000588	5.878462	0.995838	-0.000118
 734	7.2933e+01	5.3979	59.489214	0.000365	3.648701	0.618107	-0.000073
 735	7.3033e+01	5.3790	59.364062	0.000628	6.283873	1.064517	-0.000126
 736	7.3132e+01	5.3577	59.283320	0.000405	4.054112	0.686785	-0.000081
 737	7.3232e+01	5.3379	59.242948	0.000203	2.027056	0.343393	-0.000041
 738	7.3332e+01	5.3183	59.142020	0.000507	5.067640	0.858481	-0.000101
 739	7.3431e+01	5.2985	59.065314	0.000385	3.851406	0.652446	-0.000077
 740	7.3531e+01	5.2779	58.919978	0.000730	7.297401	1.236213	-0.000146
 741	7.3630e+01	5.2581	58.819049	0.000507	5.067640	0.858481	-0.000101
 742	7.3730e+01	5.2392	58.730232	0.000446	4.459523	0.755464	-0.000089
 743	7.3829e+01	5.2184	58.633341	0.000486	4.864934	0.824142	-0.000097
 744	7.3928e+01	5.1981	58.560672	0.000365	3.648701	0.618107	-0.000073
 745	7.4028e+01	5.1780	58.455707	0.000527	5.270345	0.892821	-0.000105
 746	7.4127e+01	5.1583	58.350741	0.000527	5.270345	0.892821	-0.000105
 747	7.4227e+01	5.1382	58.261924	0.000446	4.459523	0.755464	-0.000089
 748	7.4326e+01	5.1190	58.152922	0.000547	5.473051	0.927160	-0.000110
 749	7.4426e+01	5.0996	58.072179	0.000405	4.054112	0.686785	-0.000081
 750	7.4525e+01	5.0787	58.015659	0.000284	2.837878	0.480750	-0.000057
 751	7.4625e+01	5.0588	57.838025	0.000892	8.919046	1.510927	-0.000179
 752	7.4725e+01	5.0396	57.777468	0.000304	3.040584	0.515089	-0.000061
 753	7.4824e+01	5.0198	57.680577	0.000486	4.864934	0.824142	-0.000097
 754	7.4924e+01	5.0001	57.583686	0.000486	4.864934	0.824142	-0.000097
 755	7.5023e+01	4.9792	57.486794	0.000486	4.864934	0.824142	-0.000097
 756	7.5123e+01	4.9593	57.397977	0.000446	4.459523	0.755464	-0.000089
 757	7.5222e+01	4.9399	57.284938	0.000568	5.675756	0.961499	-0.000114
 758	7.5322e+01	4.9191	57.163823	0.000608	6.081168	1.030178	-0.000122
 759	7.5421e+01	4.8995	57.066932	0.000486	4.864934	0.824142	-0.000097
 760	7.5520e+01	4.8798	57.034635	0.000162	1.621645	0.274714	-0.000032
 761	7.5620e+01	4.8602	56.881224	0.000770	7.702812	1.304892	-0.000154
 762	7.5719e+01	4.8407	56.796444	0.000426	4.256817	0.721124	-0.000085
 763	7.5819e+01	4.8202	56.739924	0.000284	2.837878	0.480750	-0.000057
 764	7.5918e+01	4.8000	56.602662	0.000689	6.891990	1.167535	-0.000138
 765	7.6018e+01	4.7796	56.554216	0.000243	2.432467	0.412071	-0.000049
 766	7.6118e+01	4.7610	56.433102	0.000608	6.081168	1.030178	-0.000122
 767	7.6217e+01	4.7411	56.336211	0.000486	4.864934	0.824142	-0.000097
 768	7.6317e+01	4.7209	56.215097	0.000608	6.081168	1.030178	-0.000122
 769	7.6416e+01	4.7015	56.142428	0.000365	3.648701	0.618107	-0.000073
 770	7.6516e+01	4.6810	56.053611	0.000446	4.459523	0.755464	-0.000089
 771	7.6615e+01	4.6618	55.952683	0.000507	5.067640	0.858481	-0.000101
 772	7.6715e+01	4.6413	55.867903	0.000426	4.256817	0.721124	-0.000085
 773	7.6814e+01	4.6204	55.791197	0.000385	3.851406	0.652446	-0.000077
 774	7.6913e+01	4.6011	55.682195	0.000547	5.473051	0.927160	-0.000110
 775	7.7013e+01	4.5809	55.597415	0.000426	4.256817	0.721124	-0.000085
 776	7.7112e+01	4.5618	55.488412	0.000547	5.473051	0.927160	-0.000110
 777	7.7212e+01	4.5416	55.383447	0.000527	5.270345	0.892821	-0.000105
 778	7.7311e+01	4.5211	55.290593	0.000466	4.662228	0.789803	-0.000093
 779	7.7411e+01	4.5017	55.189664	0.000507	5.067640	0.858481	-0.000101
 780	7.7510e+01	4.4807	55.076624	0.000568	5.675756	0.961499	-0.000114
 781	7.7610e+01	4.4611	54.991844	0.000426	4.256817	0.721124	-0.000085
 782	7.7710e+01	4.4427	54.911102	0.000405	4.054112	0.686785	-0.000081
 783	7.7809e+01	4.4220	54.842470	0.000345	3.445995	0.583767	-0.000069
 784	7.7909e+01	4.4023	54.729431	0.000568	5.675756	0.961499	-0.000114
 785	7.8008e+01	4.3820	54.620428	0.000547	5.473051	0.927160	-0.000110
 786	7.8108e+01	4.3624	54.535648	0.000426	4.256817	0.721124	-0.000085
 787	7.8207e+01	4.3420	54.406460	0.000649	6.486579	1.098856	-0.000130
 788	7.8306e+01	4.3216	54.337828	0.000345	3.445995	0.583767	-0.000069
 789	7.8406e+01	4.3019	54.269197	0.000345	3.445995	0.583767	-0.000069
 790	7.8505e+01	4.2825	54.168269	0.000507	5.067640	0.858481	-0.000101
 791	7.8605e+01	4.2625	54.035043	0.000669	6.689284	1.133195	-0.000134
 792	7.8704e+01	4.2416	53.974486	0.000304	3.040584	0.515089	-0.000061
 793	7.8804e+01	4.2226	53.837224	0.000689	6.891990	1.167535	-0.000138
 794	7.8903e+01	4.2027	53.728221	0.000547	5.473051	0.927160	-0.000110
 795	7.9003e+01	4.1828	53.699961	0.000142	1.418939	0.240375	-0.000028
 796	7.9103e+01	4.1627	53.574810	0.000628	6.283873	1.064517	-0.000126
 797	7.9202e+01	4.1434	53.498104	0.000385	3.851406	0.652446	-0.000077
 798	7.9302e+01	4.1228	53.397176	0.000507	5.067640	0.858481	-0.000101
 799	7.9401e+01	4.1024	53.263950	0.000669	6.689284	1.133195	-0.000134
 800	7.9501e+01	4.0833	53.171096	0.000466	4.662228	0.789803	-0.000093
 801	7.9600e+01	4.0638	53.094391	0.000385	3.851406	0.652446	-0.000077
 802	7.9700e+01	4.0423	52.997499	0.000486	4.864934	0.824142	-0.000097
 803	7.9799e+01	4.0237	52.908682	0.000446	4.459523	0.755464	-0.000089
 804	7.9898e+01	4.0022	52.844088	0.000324	3.243289	0.549428	-0.000065
 805	7.9998e+01	3.9840	52.694714	0.000750	7.500107	1.270552	-0.000150
 806	8.0097e+01	3.9639	52.597823	0.000486	4.864934	0.824142	-0.000097
 807	8.0197e+01	3.9434	52.521117	0.000385	3.851406	0.652446	-0.000077
 808	8.0296e+01	3.9233	52.424226	0.000486	4.864934	0.824142	-0.000097
 809	8.0396e+01	3.9045	52.311186	0.000568	5.675756	0.961499	-0.000114
 810	8.0496e+01	3.8832	52.222369	0.000446	4.459523	0.755464	-0.000089
 811	8.0595e+01	3.8638	52.109330	0.000568	5.675756	0.961499	-0.000114
 812	8.0695e+01	3.8445	52.044735	0.000324	3.243289	0.549428	-0.000065
 813	8.0794e+01	3.8236	51.927658	0.000588	5.878462	0.995838	-0.000118
 814	8.0894e+01	3.8036	51.802507	0.000628	6.283873	1.064517	-0.000126
 815	8.0993e+01	3.7832	51.713690	0.000446	4.459523	0.755464	-0.000089
 816	8.1093e+01	3.7650	51.636985	0.000385	3.851406	0.652446	-0.000077
 817	8.1192e+01	3.7457	51.527982	0.000547	5.473051	0.927160	-0.000110
 818	8.1291e+01	3.7249	51.443202	0.000426	4.256817	0.721124	-0.000085
 819	8.1391e+01	3.7038	51.350348	0.000466	4.662228	0.789803	-0.000093
 820	8.1490e+01	3.6847	51.253457	0.000486	4.864934	0.824142	-0.000097
 821	8.1590e+01	3.6660	51.120231	0.000669	6.689284	1.133195	-0.000134
 822	8.1689e+01	3.6452	51.003154	0.000588	5.878462	0.995838	-0.000118
 823	8.1789e+01	3.6248	50.946634	0.000284	2.837878	0.480750	-0.000057
 824	8.1888e+01	3.6050	50.833595	0.000568	5.675756	0.961499	-0.000114
 825	8.1988e+01	3.5858	50.732666	0.000507	5.067640	0.858481	-0.000101
 826	8.2088e+01	3.5653	50.619626	0.000568	5.675756	0.961499	-0.000114
 827	8.2187e+01	3.5461	50.510624	0.000547	5.473051	0.927160	-0.000110
 828	8.2287e+01	3.5256	50.470252	0.000203	2.027056	0.343393	-0.000041
 829	8.2386e+01	3.5054	50.357213	0.000568	5.675756	0.961499	-0.000114
 830	8.2486e+01	3.4850	50.248210	0.000547	5.473051	0.927160	-0.000110
 831	8.2585e+01	3.4637	50.135170	0.000568	5.675756	0.961499	-0.000114
 832	8.2684e+01	3.4457	50.074613	0.000304	3.040584	0.515089	-0.000061
 833	8.2784e+01	3.4267	49.949462	0.000628	6.283873	1.064517	-0.000126
 834	8.2883e+01	3.4060	49.884868	0.000324	3.243289	0.549428	-0.000065
 835	8.2983e+01	3.3865	49.775865	0.000547	5.473051	0.927160	-0.000110
 836	8.3082e+01	3.3666	49.658788	0.000588	5.878462	0.995838	-0.000118
 837	8.3182e+01	3.3464	49.557860	0.000507	5.067640	0.858481	-0.000101
 838	8.3281e+01	3.3268	49.473080	0.000426	4.256817	0.721124	-0.000085
 839	8.3381e+01	3.3068	49.400411	0.000365	3.648701	0.618107	-0.000073
 840	8.3481e+01	3.2851	49.307557	0.000466	4.662228	0.789803	-0.000093
 841	8.3580e+01	3.2667	49.190480	0.000588	5.878462	0.995838	-0.000118
 842	8.3680e+01	3.2464	49.089552	0.000507	5.067640	0.858481	-0.000101
 843	8.3779e+01	3.2265	48.976512	0.000568	5.675756	0.961499	-0.000114
 844	8.3879e+01	3.2069	48.891732	0.000426	4.256817	0.721124	-0.000085
 845	8.3978e+01	3.1866	48.746395	0.000730	7.297401	1.236213	-0.000146
 846	8.4078e+01	3.1660	48.653541	0.000466	4.662228	0.789803	-0.000093
 847	8.4177e+01	3.1464	48.580873	0.000365	3.648701	0.618107	-0.000073
 848	8.4276e+01	3.1274	48.455722	0.000628	6.283873	1.064517	-0.000126
 849	8.4376e+01	3.1071	48.370942	0.000426	4.256817	0.721124	-0.000085
 850	8.4475e+01	3.0872	48.253865	0.000588	5.878462	0.995838	-0.000118
 851	8.4575e+01	3.0678	48.181196	0.000365	3.648701	0.618107	-0.000073
 852	8.4674e+01	3.0470	48.060082	0.000608	6.081168	1.030178	-0.000122
 853	8.4774e+01	3.0270	47.934931	0.000628	6.283873	1.064517	-0.000126
 854	8.4874e+01	3.0070	47.854188	0.000405	4.054112	0.686785	-0.000081
 855	8.4973e+01	2.9872	47.745186	0.000547	5.473051	0.927160	-0.000110
 856	8.5073e+01	2.9679	47.620035	0.000628	6.283873	1.064517	-0.000126
 857	8.5172e+01	2.9478	47.506995	0.000568	5.675756	0.961499	-0.000114
 858	8.5272e+01	2.9285	47.462586	0.000223	2.229761	0.377732	-0.000045
 859	8.5371e+01	2.9074	47.309175	0.000770	7.702812	1.304892	-0.000154
 860	8.5471e+01	2.8878	47.208247	0.000507	5.067640	0.858481	-0.000101
 861	8.5570e+01	2.8672	47.115393	0.000466	4.662228	0.789803	-0.000093
 862	8.5669e+01	2.8482	46.986204	0.000649	6.486579	1.098856	-0.000130
 863	8.5769e+01	2.8281	46.865090	0.000608	6.081168	1.030178	-0.000122
 864	8.5868e+01	2.8082	46.772236	0.000466	4.662228	0.789803	-0.000093
 865	8.5968e+01	2.7882	46.667271	0.000527	5.270345	0.892821	-0.000105
 866	8.6067e+01	2.7695	46.566342	0.000507	5.067640	0.858481	-0.000101
 867	8.6167e+01	2.7471	46.461377	0.000527	5.270345	0.892821	-0.000105
 868	8.6266e+01	2.7286	46.344300	0.000588	5.878462	0.995838	-0.000118
 869	8.6366e+01	2.7081	46.231260	0.000568	5.675756	0.961499	-0.000114
 870	8.6466e+01	2.6879	46.134369	0.000486	4.864934	0.824142	-0.000097
 871	8.6565e+01	2.6692	45.997106	0.000689	6.891990	1.167535	-0.000138
 872	8.6665e+01	2.6492	45.884066	0.000568	5.675756	0.961499	-0.000114
 873	8.6764e+01	2.6289	45.811398	0.000365	3.648701	0.618107	-0.000073
 874	8.6864e+01	2.6091	45.706432	0.000527	5.270345	0.892821	-0.000105
 875	8.6963e+01	2.5892	45.581281	0.000628	6.283873	1.064517	-0.000126
 876	8.7063e+01	2.5695	45.472278	0.000547	5.473051	0.927160	-0.000110
 877	8.7162e+01	2.5510	45.367313	0.000527	5.270345	0.892821	-0.000105
 878	8.7261e+01	2.5289	45.298682	0.000345	3.445995	0.583767	-0.000069
 879	8.7361e+01	2.5098	45.137196	0.000811	8.108223	1.373570	-0.000162
 880	8.7460e+01	2.4915	45.036268	0.000507	5.067640	0.858481	-0.000101
 881	8.7560e+01	2.4691	44.911117	0.000628	6.283873	1.064517	-0.000126
 882	8.7659e+01	2.4504	44.834411	0.000385	3.851406	0.652446	-0.000077
 883	8.7759e+01	2.4306	44.733483	0.000507	5.067640	0.858481	-0.000101
 884	8.7859e+01	2.4102	44.600257	0.000669	6.689284	1.133195	-0.000134
 885	8.7958e+01	2.3900	44.515477	0.000426	4.256817	0.721124	-0.000085
 886	8.8058e+01	2.3703	44.382252	0.000669	6.689284	1.133195	-0.000134
 887	8.8157e+01	2.3505	44.232878	0.000750	7.500107	1.270552	-0.000150
 888	8.8257e+01	2.3302	44.123875	0.000547	5.473051	0.927160	-0.000110
 889	8.8356e+01	2.3110	44.063318	0.000304	3.040584	0.515089	-0.000061
 890	8.8456e+01	2.2900	43.946241	0.000588	5.878462	0.995838	-0.000118
 891	8.8555e+01	2.2713	43.808978	0.000689	6.891990	1.167535	-0.000138
 892	8.8654e+01	2.2504	43.687864	0.000608	6.081168	1.030178	-0.000122
 893	8.8754e+01	2.2301	43.595010	0.000466	4.662228	0.789803	-0.000093
 894	8.8853e+01	2.2103	43.477933	0.000588	5.878462	0.995838	-0.000118
 895	8.8953e+01	2.1909	43.381042	0.000486	4.864934	0.824142	-0.000097
 896	8.9052e+01	2.1709	43.284151	0.000486	4.864934	0.824142	-0.000097
 897	8.9152e+01	2.1507	43.130740	0.000770	7.702812	1.304892	-0.000154
 898	8.9251e+01	2.1312	43.005588	0.000628	6.283873	1.064517	-0.000126
 899	8.9351e+01	2.1111	42.957143	0.000243	2.432467	0.412071	-0.000049
 900	8.9451e+01	2.0906	42.811806	0.000730	7.297401	1.236213	-0.000146
 901	8.9550e+01	2.0712	42.722989	0.000446	4.459523	0.755464	-0.000089
 902	8.9650e+01	2.0513	42.561504	0.000811	8.108223	1.373570	-0.000162
 903	8.9749e+01	2.0310	42.440389	0.000608	6.081168	1.030178	-0.000122
 904	8.9849e+01	2.0110	42.339461	0.000507	5.067640	0.858481	-0.000101
 905	8.9948e+01	1.9893	42.226421	0.000568	5.675756	0.961499	-0.000114
 906	9.0047e+01	1.9723	42.121456	0.000527	5.270345	0.892821	-0.000105
 907	9.0147e+01	1.9515	42.016490	0.000527	5.270345	0.892821	-0.000105
 908	9.0246e+01	1.9314	41.907488	0.000547	5.473051	0.927160	-0.000110
 909	9.0346e+01	1.9116	41.798485	0.000547	5.473051	0.927160	-0.000110
 910	9.0445e+01	1.8922	41.653148	0.000730	7.297401	1.236213	-0.000146
 911	9.0545e+01	1.8713	41.568368	0.000426	4.256817	0.721124	-0.000085
 912	9.0644e+01	1.8519	41.402846	0.000831	8.310929	1.407909	-0.000166
 913	9.0744e+01	1.8326	41.309991	0.000466	4.662228	0.789803	-0.000093
 914	9.0844e+01	1.8127	41.164655	0.000730	7.297401	1.236213	-0.000146
 915	9.0943e+01	1.7921	41.039503	0.000628	6.283873	1.064517	-0.000126
 916	9.1043e+01	1.7728	40.942612	0.000486	4.864934	0.824142	-0.000097
 917	9.1142e+01	1.7522	40.801312	0.000709	7.094695	1.201874	-0.000142
 918	9.1242e+01	1.7336	40.696347	0.000527	5.270345	0.892821	-0.000105
 919	9.1341e+01	1.7126	40.583307	0.000568	5.675756	0.961499	-0.000114
 920	9.1441e+01	1.6924	40.474304	0.000547	5.473051	0.927160	-0.000110
 921	9.1540e+01	1.6729	40.353190	0.000608	6.081168	1.030178	-0.000122
 922	9.1639e+01	1.6531	40.244188	0.000547	5.473051	0.927160	-0.000110
 923	9.1739e+01	1.6330	40.123074	0.000608	6.081168	1.030178	-0.000122
 924	9.1838e+01	1.6120	39.969662	0.000770	7.702812	1.304892	-0.000154
 925	9.1938e+01	1.5921	39.820288	0.000750	7.500107	1.270552	-0.000150
 926	9.2037e+01	1.5725	39.787991	0.000162	1.621645	0.274714	-0.000032
 927	9.2137e+01	1.5534	39.646692	0.000709	7.094695	1.201874	-0.000142
 928	9.2237e+01	1.5339	39.561912	0.000426	4.256817	0.721124	-0.000085
 929	9.2336e+01	1.5134	39.408501	0.000770	7.702812	1.304892	-0.000154
 930	9.2436e+01	1.4935	39.279312	0.000649	6.486579	1.098856	-0.000130
 931	9.2535e+01	1.4729	39.162235	0.000588	5.878462	0.995838	-0.000118
 932	9.2635e+01	1.4542	39.101678	0.000304	3.040584	0.515089	-0.000061
 933	9.2734e+01	1.4339	38.932118	0.000851	8.513635	1.442249	-0.000170
 934	9.2834e+01	1.4140	38.835227	0.000486	4.864934	0.824142	-0.000097
 935	9.2933e+01	1.3934	38.706039	0.000649	6.486579	1.098856	-0.000130
 936	9.3032e+01	1.3733	38.617222	0.000446	4.459523	0.755464	-0.000089
 937	9.3132e+01	1.3539	38.488034	0.000649	6.486579	1.098856	-0.000130
 938	9.3231e+01	1.3336	38.391142	0.000486	4.864934	0.824142	-0.000097
 939	9.3331e+01	1.3144	38.217545	0.000872	8.716340	1.476588	-0.000174
 940	9.3430e+01	1.2942	38.169100	0.000243	2.432467	0.412071	-0.000049
 941	9.3530e+01	1.2746	38.019726	0.000750	7.500107	1.270552	-0.000150
 942	9.3629e+01	1.2540	37.926872	0.000466	4.662228	0.789803	-0.000093
 943	9.3729e+01	1.2355	37.761349	0.000831	8.310929	1.407909	-0.000166
 944	9.3829e+01	1.2152	37.676569	0.000426	4.256817	0.721124	-0.000085
 945	9.3928e+01	1.1948	37.571604	0.000527	5.270345	0.892821	-0.000105
 946	9.4028e+01	1.1748	37.442415	0.000649	6.486579	1.098856	-0.000130
 947	9.4127e+01	1.1554	37.301116	0.000709	7.094695	1.201874	-0.000142
 948	9.4227e+01	1.1354	37.224410	0.000385	3.851406	0.652446	-0.000077
 949	9.4326e+01	1.1156	37.075036	0.000750	7.500107	1.270552	-0.000150
 950	9.4425e+01	1.0955	36.933736	0.000709	7.094695	1.201874	-0.000142
 951	9.4525e+01	1.0751	36.893365	0.000203	2.027056	0.343393	-0.000041
 952	9.4624e+01	1.0552	36.752065	0.000709	7.094695	1.201874	-0.000142
 953	9.4724e+01	1.0355	36.590580	0.000811	8.108223	1.373570	-0.000162
 954	9.4823e+01	1.0152	36.501763	0.000446	4.459523	0.755464	-0.000089
 955	9.4923e+01	0.9960	36.380649	0.000608	6.081168	1.030178	-0.000122
 956	9.5022e+01	0.9752	36.287795	0.000466	4.662228	0.789803	-0.000093
 957	9.5122e+01	0.9562	36.174755	0.000568	5.675756	0.961499	-0.000114
 958	9.5222e+01	0.9361	36.053641	0.000608	6.081168	1.030178	-0.000122
 959	9.5321e+01	0.9158	35.944638	0.000547	5.473051	0.927160	-0.000110
 960	9.5421e+01	0.8963	35.783153	0.000811	8.108223	1.373570	-0.000162
 961	9.5520e+01	0.8772	35.682224	0.000507	5.067640	0.858481	-0.000101
 962	9.5620e+01	0.8564	35.569184	0.000568	5.675756	0.961499	-0.000114
 963	9.5719e+01	0.8358	35.435959	0.000669	6.689284	1.133195	-0.000134
 964	9.5819e+01	0.8164	35.359253	0.000385	3.851406	0.652446	-0.000077
 965	9.5918e+01	0.7970	35.226028	0.000669	6.689284	1.133195	-0.000134
 966	9.6017e+01	0.7764	35.125099	0.000507	5.067640	0.858481	-0.000101
 967	9.6117e+01	0.7561	35.003985	0.000608	6.081168	1.030178	-0.000122
 968	9.6216e+01	0.7362	34.874797	0.000649	6.486579	1.098856	-0.000130
 969	9.6316e+01	0.7164	34.769832	0.000527	5.270345	0.892821	-0.000105
 970	9.6415e+01	0.6967	34.652755	0.000588	5.878462	0.995838	-0.000118
 971	9.6515e+01	0.6767	34.515492	0.000689	6.891990	1.167535	-0.000138
 972	9.6615e+01	0.6561	34.414564	0.000507	5.067640	0.858481	-0.000101
 973	9.6714e+01	0.6369	34.293450	0.000608	6.081168	1.030178	-0.000122
 974	9.6814e+01	0.6173	34.156187	0.000689	6.891990	1.167535	-0.000138
 975	9.6913e+01	0.5982	34.002776	0.000770	7.702812	1.304892	-0.000154
 976	9.7013e+01	0.5772	33.905884	0.000486	4.864934	0.824142	-0.000097
 977	9.7112e+01	0.5569	33.817068	0.000446	4.459523	0.755464	-0.000089
 978	9.7212e+01	0.5379	33.695953	0.000608	6.081168	1.030178	-0.000122
 979	9.7311e+01	0.5177	33.590988	0.000527	5.270345	0.892821	-0.000105
 980	9.7410e+01	0.4972	33.461800	0.000649	6.486579	1.098856	-0.000130
 981	9.7510e+01	0.4774	33.336648	0.000628	6.283873	1.064517	-0.000126
 982	9.7609e+01	0.4581	33.227646	0.000547	5.473051	0.927160	-0.000110
 983	9.7709e+01	0.4371	33.070197	0.000791	7.905518	1.339231	-0.000158
 984	9.7808e+01	0.4174	32.989455	0.000405	4.054112	0.686785	-0.000081
 985	9.7908e+01	0.3974	32.888526	0.000507	5.067640	0.858481	-0.000101
 986	9.8007e+01	0.3776	32.743189	0.000730	7.297401	1.236213	-0.000146
 987	9.8107e+01	0.3575	32.618038	0.000628	6.283873	1.064517	-0.000126
 988	9.8207e+01	0.3387	32.517110	0.000507	5.067640	0.858481	-0.000101
 989	9.8306e+01	0.3175	32.383884	0.000669	6.689284	1.133195	-0.000134
 990	9.8406e+01	0.2979	32.246622	0.000689	6.891990	1.167535	-0.000138
 991	9.8505e+01	0.2782	32.137619	0.000547	5.473051	0.927160	-0.000110
 992	9.8605e+01	0.2596	32.036691	0.000507	5.067640	0.858481	-0.000101
 993	9.8704e+01	0.2386	31.911539	0.000628	6.283873	1.064517	-0.000126
 994	9.8803e+01	0.2177	31.790425	0.000608	6.081168	1.030178	-0.000122
 995	9.8903e+01	0.1984	31.713720	0.000385	3.851406	0.652446	-0.000077
 996	9.9002e+01	0.1793	31.616829	0.000486	4.864934	0.824142	-0.000097
 997	9.9102e+01	0.1582	31.431120	0.000932	9.324457	1.579606	-0.000187
 998	9.9201e+01	0.1379	31.330192	0.000507	5.067640	0.858481	-0.000101
 999	9.9301e+01	0.1183	31.237338	0.000466	4.662228	0.789803	-0.000093
1000	9.9400e+01	0.0980	31.100075	0.000689	6.891990	1.167535	-0.000138
1001	9.9500e+01	0.0797	30.982998	0.000588	5.878462	0.995838	-0.000118
1002	9.9600e+01	0.0581	30.918404	0.000324	3.243289	0.549428	-0.000065
1003	9.9699e+01	0.0388	30.785179	0.000669	6.689284	1.133195	-0.000134
1004	9.9799e+01	0.0190	30.647916	0.000689	6.891990	1.167535	-0.000138
1005	9.9898e+01	-0.0002	30.502579	0.000730	7.297401	1.236213	-0.000146
1006	9.9998e+01	-0.0190	30.405688	0.000486	4.864934	0.824142	-0.000097
1007	1.0010e+02	-0.0380	30.324945	0.000405	4.054112	0.686785	-0.000081
1008	1.0020e+02	-0.0593	30.155385	0.000851	8.513635	1.442249	-0.000170
1009	1.0030e+02	-0.0781	30.034271	0.000608	6.081168	1.030178	-0.000122
1010	1.0040e+02	-0.0999	29.925269	0.000547	5.473051	0.927160	-0.000110
1011	1.0050e+02	-0.1187	29.816266	0.000547	5.473051	0.927160	-0.000110
1012	1.0059e+02	-0.1385	29.679003	0.000689	6.891990	1.167535	-0.000138
1013	1.0069e+02	-0.1591	29.610372	0.000345	3.445995	0.583767	-0.000069
1014	1.0079e+02	-0.1779	29.456961	0.000770	7.702812	1.304892	-0.000154
1015	1.0089e+02	-0.1982	29.311624	0.000730	7.297401	1.236213	-0.000146
1016	1.0099e+02	-0.2184	29.238956	0.000365	3.648701	0.618107	-0.000073
1017	1.0109e+02	-0.2388	29.097656	0.000709	7.094695	1.201874	-0.000142
1018	1.0119e+02	-0.2588	28.952319	0.000730	7.297401	1.236213	-0.000146
1019	1.0129e+02	-0.2775	28.887725	0.000324	3.243289	0.549428	-0.000065
1020	1.0139e+02	-0.2979	28.742388	0.000730	7.297401	1.236213	-0.000146
1021	1.0149e+02	-0.3164	28.580902	0.000811	8.108223	1.373570	-0.000162
1022	1.0159e+02	-0.3375	28.467863	0.000568	5.675756	0.961499	-0.000114
1023	1.0169e+02	-0.3572	28.366934	0.000507	5.067640	0.858481	-0.000101
1024	1.0179e+02	-0.3775	28.213523	0.000770	7.702812	1.304892	-0.000154
1025	1.0189e+02	-0.3974	28.104520	0.000547	5.473051	0.927160	-0.000110
1026	1.0199e+02	-0.4179	27.987444	0.000588	5.878462	0.995838	-0.000118
1027	1.0209e+02	-0.4391	27.854218	0.000669	6.689284	1.133195	-0.000134
1028	1.0219e+02	-0.4573	27.733104	0.000608	6.081168	1.030178	-0.000122
1029	1.0229e+02	-0.4771	27.563544	0.000851	8.513635	1.442249	-0.000170
1030	1.0239e+02	-0.4976	27.462616	0.000507	5.067640	0.858481	-0.000101
1031	1.0248e+02	-0.5168	27.345539	0.000588	5.878462	0.995838	-0.000118
1032	1.0258e+02	-0.5378	27.212313	0.000669	6.689284	1.133195	-0.000134
1033	1.0268e+02	-0.5563	27.103311	0.000547	5.473051	0.927160	-0.000110
1034	1.0278e+02	-0.5780	26.986234	0.000588	5.878462	0.995838	-0.000118
1035	1.0288e+02	-0.5966	26.861083	0.000628	6.283873	1.064517	-0.000126
1036	1.0298e+02	-0.6174	26.711709	0.000750	7.500107	1.270552	-0.000150
1037	1.0308e+02	-0.6362	26.610780	0.000507	5.067640	0.858481	-0.000101
1038	1.0318e+02	-0.6578	26.477555	0.000669	6.689284	1.133195	-0.000134
1039	1.0328e+02	-0.6773	26.328181	0.000750	7.500107	1.270552	-0.000150
1040	1.0338e+02	-0.6958	26.251475	0.000385	3.851406	0.652446	-0.000077
1041	1.0348e+02	-0.7157	26.094027	0.000791	7.905518	1.339231	-0.000158
1042	1.0358e+02	-0.7363	25.976950	0.000588	5.878462	0.995838	-0.000118
1043	1.0368e+02	-0.7560	25.835650	0.000709	7.094695	1.201874	-0.000142
1044	1.0378e+02	-0.7771	25.710499	0.000628	6.283873	1.064517	-0.000126
1045	1.0388e+02	-0.7955	25.593422	0.000588	5.878462	0.995838	-0.000118
1046	1.0398e+02	-0.8167	25.448085	0.000730	7.297401	1.236213	-0.000146
1047	1.0408e+02	-0.8360	25.367342	0.000405	4.054112	0.686785	-0.000081
1048	1.0418e+02	-0.8562	25.205857	0.000811	8.108223	1.373570	-0.000162
1049	1.0428e+02	-0.8764	25.060520	0.000730	7.297401	1.236213	-0.000146
1050	1.0438e+02	-0.8965	24.935369	0.000628	6.283873	1.064517	-0.000126
1051	1.0447e+02	-0.9160	24.826366	0.000547	5.473051	0.927160	-0.000110
1052	1.0457e+02	-0.9369	24.709289	0.000588	5.878462	0.995838	-0.000118
1053	1.0467e+02	-0.9549	24.567990	0.000709	7.094695	1.201874	-0.000142
1054	1.0477e+02	-0.9765	24.446875	0.000608	6.081168	1.030178	-0.000122
1055	1.0487e+02	-0.9952	24.281353	0.000831	8.310929	1.407909	-0.000166
1056	1.0497e+02	-1.0150	24.224833	0.000284	2.837878	0.480750	-0.000057
1057	1.0507e+02	-1.0349	24.075459	0.000750	7.500107	1.270552	-0.000150
1058	1.0517e+02	-1.0558	23.942233	0.000669	6.689284	1.133195	-0.000134
1059	1.0527e+02	-1.0759	23.792859	0.000750	7.500107	1.270552	-0.000150
1060	1.0537e+02	-1.0947	23.700005	0.000466	4.662228	0.789803	-0.000093
1061	1.0547e+02	-1.1143	23.558706	0.000709	7.094695	1.201874	-0.000142
1062	1.0557e+02	-1.1352	23.453740	0.000527	5.270345	0.892821	-0.000105
1063	1.0567e+02	-1.1554	23.308403	0.000730	7.297401	1.236213	-0.000146
1064	1.0577e+02	-1.1742	23.150955	0.000791	7.905518	1.339231	-0.000158
1065	1.0587e+02	-1.1943	23.058101	0.000466	4.662228	0.789803	-0.000093
1066	1.0597e+02	-1.2146	22.896615	0.000811	8.108223	1.373570	-0.000162
1067	1.0607e+02	-1.2348	22.787613	0.000547	5.473051	0.927160	-0.000110
1068	1.0617e+02	-1.2552	22.654387	0.000669	6.689284	1.133195	-0.000134
1069	1.0627e+02	-1.2738	22.553459	0.000507	5.067640	0.858481	-0.000101
1070	1.0637e+02	-1.2943	22.396011	0.000791	7.905518	1.339231	-0.000158
1071	1.0647e+02	-1.3142	22.270859	0.000628	6.283873	1.064517	-0.000126
1072	1.0656e+02	-1.3329	22.125522	0.000730	7.297401	1.236213	-0.000146
1073	1.0666e+02	-1.3541	22.032668	0.000466	4.662228	0.789803	-0.000093
1074	1.0676e+02	-1.3730	21.915591	0.000588	5.878462	0.995838	-0.000118
1075	1.0686e+02	-1.3943	21.754106	0.000811	8.108223	1.373570	-0.000162
1076	1.0696e+02	-1.4136	21.645103	0.000547	5.473051	0.927160	-0.000110
1077	1.0706e+02	-1.4337	21.483618	0.000811	8.108223	1.373570	-0.000162
1078	1.0716e+02	-1.4536	21.362504	0.000608	6.081168	1.030178	-0.000122
1079	1.0726e+02	-1.4732	21.257538	0.000527	5.270345	0.892821	-0.000105
1080	1.0736e+02	-1.4928	21.120276	0.000689	6.891990	1.167535	-0.000138
1081	1.0746e+02	-1.5141	20.978976	0.000709	7.094695	1.201874	-0.000142
1082	1.0756e+02	-1.5329	20.821528	0.000791	7.905518	1.339231	-0.000158
1083	1.0766e+02	-1.5530	20.664079	0.000791	7.905518	1.339231	-0.000158
1084	1.0776e+02	-1.5736	20.575262	0.000446	4.459523	0.755464	-0.000089
1085	1.0786e+02	-1.5928	20.446074	0.000649	6.486579	1.098856	-0.000130
1086	1.0796e+02	-1.6124	20.324960	0.000608	6.081168	1.030178	-0.000122
1087	1.0806e+02	-1.6331	20.171549	0.000770	7.702812	1.304892	-0.000154
1088	1.0816e+02	-1.6535	20.038323	0.000669	6.689284	1.133195	-0.000134
1089	1.0826e+02	-1.6724	19.941432	0.000486	4.864934	0.824142	-0.000097
1090	1.0836e+02	-1.6931	19.743612	0.000993	9.932574	1.682624	-0.000199
1091	1.0845e+02	-1.7129	19.662870	0.000405	4.054112	0.686785	-0.000081
1092	1.0855e+02	-1.7332	19.509458	0.000770	7.702812	1.304892	-0.000154
1093	1.0865e+02	-1.7532	19.368159	0.000709	7.094695	1.201874	-0.000142
1094	1.0875e+02	-1.7722	19.295490	0.000365	3.648701	0.618107	-0.000073
1095	1.0885e+02	-1.7916	19.109782	0.000932	9.324457	1.579606	-0.000187
1096	1.0895e+02	-1.8132	19.029039	0.000405	4.054112	0.686785	-0.000081
1097	1.0905e+02	-1.8327	18.859480	0.000851	8.513635	1.442249	-0.000170
1098	1.0915e+02	-1.8520	18.722217	0.000689	6.891990	1.167535	-0.000138
1099	1.0925e+02	-1.8732	18.617251	0.000527	5.270345	0.892821	-0.000105
1100	1.0935e+02	-1.8908	18.504212	0.000568	5.675756	0.961499	-0.000114
1101	1.0945e+02	-1.9118	18.346763	0.000791	7.905518	1.339231	-0.000158
1102	1.0955e+02	-1.9321	18.225649	0.000608	6.081168	1.030178	-0.000122
1103	1.0965e+02	-1.9524	18.128758	0.000486	4.864934	0.824142	-0.000097
1104	1.0975e+02	-1.9705	17.995533	0.000669	6.689284	1.133195	-0.000134
1105	1.0985e+02	-1.9905	17.882493	0.000568	5.675756	0.961499	-0.000114
1106	1.0995e+02	-2.0107	17.741193	0.000709	7.094695	1.201874	-0.000142
1107	1.1005e+02	-2.0319	17.628153	0.000568	5.675756	0.961499	-0.000114
1108	1.1015e+02	-2.0512	17.527225	0.000507	5.067640	0.858481	-0.000101
1109	1.1025e+02	-2.0718	17.398036	0.000649	6.486579	1.098856	-0.000130
1110	1.1035e+02	-2.0901	17.216365	0.000912	9.121751	1.545266	-0.000183
1111	1.1044e+02	-2.1111	17.143697	0.000365	3.648701	0.618107	-0.000073
1112	1.1054e+02	-2.1304	16.974137	0.000851	8.513635	1.442249	-0.000170
1113	1.1064e+02	-2.1508	16.865135	0.000547	5.473051	0.927160	-0.000110
1114	1.1074e+02	-2.1716	16.756132	0.000547	5.473051	0.927160	-0.000110
1115	1.1084e+02	-2.1910	16.590609	0.000831	8.310929	1.407909	-0.000166
1116	1.1094e+02	-2.2103	16.477570	0.000568	5.675756	0.961499	-0.000114
1117	1.1104e+02	-2.2310	16.384715	0.000466	4.662228	0.789803	-0.000093
1118	1.1114e+02	-2.2504	16.235341	0.000750	7.500107	1.270552	-0.000150
1119	1.1124e+02	-2.2707	16.085967	0.000750	7.500107	1.270552	-0.000150
1120	1.1134e+02	-2.2899	15.997150	0.000446	4.459523	0.755464	-0.000089
1121	1.1144e+02	-2.3100	15.847776	0.000750	7.500107	1.270552	-0.000150
1122	1.1154e+02	-2.3302	15.714551	0.000669	6.689284	1.133195	-0.000134
1123	1.1164e+02	-2.3504	15.617660	0.000486	4.864934	0.824142	-0.000097
1124	1.1174e+02	-2.3712	15.488471	0.000649	6.486579	1.098856	-0.000130
1125	1.1184e+02	-2.3895	15.399654	0.000446	4.459523	0.755464	-0.000089
1126	1.1194e+02	-2.4099	15.250280	0.000750	7.500107	1.270552	-0.000150
1127	1.1204e+02	-2.4308	15.113018	0.000689	6.891990	1.167535	-0.000138
1128	1.1214e+02	-2.4500	14.975755	0.000689	6.891990	1.167535	-0.000138
1129	1.1224e+02	-2.4699	14.854641	0.000608	6.081168	1.030178	-0.000122
1130	1.1234e+02	-2.4902	14.733527	0.000608	6.081168	1.030178	-0.000122
1131	1.1244e+02	-2.5104	14.612413	0.000608	6.081168	1.030178	-0.000122
1132	1.1253e+02	-2.5296	14.499373	0.000568	5.675756	0.961499	-0.000114
1133	1.1263e+02	-2.5484	14.390370	0.000547	5.473051	0.927160	-0.000110
1134	1.1273e+02	-2.5700	14.293479	0.000486	4.864934	0.824142	-0.000097
1135	1.1283e+02	-2.5886	14.107771	0.000932	9.324457	1.579606	-0.000187
1136	1.1293e+02	-2.6086	13.990694	0.000588	5.878462	0.995838	-0.000118
1137	1.1303e+02	-2.6294	13.901877	0.000446	4.459523	0.755464	-0.000089
1138	1.1313e+02	-2.6494	13.768651	0.000669	6.689284	1.133195	-0.000134
1139	1.1323e+02	-2.6682	13.667723	0.000507	5.067640	0.858481	-0.000101
1140	1.1333e+02	-2.6881	13.510275	0.000791	7.905518	1.339231	-0.000158
1141	1.1343e+02	-2.7080	13.385124	0.000628	6.283873	1.064517	-0.000126
1142	1.1353e+02	-2.7287	13.308418	0.000385	3.851406	0.652446	-0.000077
1143	1.1363e+02	-2.7477	13.179230	0.000649	6.486579	1.098856	-0.000130
1144	1.1373e+02	-2.7677	13.054078	0.000628	6.283873	1.064517	-0.000126
1145	1.1383e+02	-2.7882	12.924890	0.000649	6.486579	1.098856	-0.000130
1146	1.1393e+02	-2.8088	12.823962	0.000507	5.067640	0.858481	-0.000101
1147	1.1403e+02	-2.8278	12.670551	0.000770	7.702812	1.304892	-0.000154
1148	1.1413e+02	-2.8481	12.569622	0.000507	5.067640	0.858481	-0.000101
1149	1.1423e+02	-2.8684	12.456582	0.000568	5.675756	0.961499	-0.000114
1150	1.1433e+02	-2.8875	12.331431	0.000628	6.283873	1.064517	-0.000126
1151	1.1442e+02	-2.9077	12.190131	0.000709	7.094695	1.201874	-0.000142
1152	1.1452e+02	-2.9269	12.069017	0.000608	6.081168	1.030178	-0.000122
1153	1.1462e+02	-2.9471	11.951940	0.000588	5.878462	0.995838	-0.000118
1154	1.1472e+02	-2.9673	11.822752	0.000649	6.486579	1.098856	-0.000130
1155	1.1482e+02	-2.9880	11.701638	0.000608	6.081168	1.030178	-0.000122
1156	1.1492e+02	-3.0074	11.600710	0.000507	5.067640	0.858481	-0.000101
1157	1.1502e+02	-3.0275	11.443261	0.000791	7.905518	1.339231	-0.000158
1158	1.1512e+02	-3.0469	11.362519	0.000405	4.054112	0.686785	-0.000081
1159	1.1522e+02	-3.0678	11.249479	0.000568	5.675756	0.961499	-0.000114
1160	1.1532e+02	-3.0867	11.132402	0.000588	5.878462	0.995838	-0.000118
1161	1.1542e+02	-3.1064	11.003213	0.000649	6.486579	1.098856	-0.000130
1162	1.1552e+02	-3.1273	10.869988	0.000669	6.689284	1.133195	-0.000134
1163	1.1562e+02	-3.1470	10.748874	0.000608	6.081168	1.030178	-0.000122
1164	1.1572e+02	-3.1662	10.668131	0.000405	4.054112	0.686785	-0.000081
1165	1.1582e+02	-3.1857	10.518757	0.000750	7.500107	1.270552	-0.000150
1166	1.1592e+02	-3.2068	10.425903	0.000466	4.662228	0.789803	-0.000093
1167	1.1602e+02	-3.2263	10.324975	0.000507	5.067640	0.858481	-0.000101
1168	1.1612e+02	-3.2460	10.163489	0.000811	8.108223	1.373570	-0.000162
1169	1.1622e+02	-3.2658	10.046412	0.000588	5.878462	0.995838	-0.000118
1170	1.1632e+02	-3.2874	9.965670	0.000405	4.054112	0.686785	-0.000081
1171	1.1642e+02	-3.3063	9.856667	0.000547	5.473051	0.927160	-0.000110
1172	1.1651e+02	-3.3262	9.731516	0.000628	6.283873	1.064517	-0.000126
1173	1.1661e+02	-3.3459	9.614439	0.000588	5.878462	0.995838	-0.000118
1174	1.1671e+02	-3.3661	9.477176	0.000689	6.891990	1.167535	-0.000138
1175	1.1681e+02	-3.3862	9.412582	0.000324	3.243289	0.549428	-0.000065
1176	1.1691e+02	-3.4060	9.279356	0.000669	6.689284	1.133195	-0.000134
1177	1.1701e+02	-3.4257	9.146131	0.000669	6.689284	1.133195	-0.000134
1178	1.1711e+02	-3.4452	9.041165	0.000527	5.270345	0.892821	-0.000105
1179	1.1721e+02	-3.4653	8.932163	0.000547	5.473051	0.927160	-0.000110
1180	1.1731e+02	-3.4848	8.811049	0.000608	6.081168	1.030178	-0.000122
1181	1.1741e+02	-3.5053	8.702046	0.000547	5.473051	0.927160	-0.000110
1182	1.1751e+02	-3.5262	8.564783	0.000689	6.891990	1.167535	-0.000138
1183	1.1761e+02	-3.5451	8.443669	0.000608	6.081168	1.030178	-0.000122
1184	1.1771e+02	-3.5648	8.342741	0.000507	5.067640	0.858481	-0.000101
1185	1.1781e+02	-3.5849	8.217590	0.000628	6.283873	1.064517	-0.000126
1186	1.1791e+02	-3.6052	8.096476	0.000608	6.081168	1.030178	-0.000122
1187	1.1801e+02	-3.6251	7.991510	0.000527	5.270345	0.892821	-0.000105
1188	1.1811e+02	-3.6461	7.850210	0.000709	7.094695	1.201874	-0.000142
1189	1.1821e+02	-3.6658	7.725059	0.000628	6.283873	1.064517	-0.000126
1190	1.1831e+02	-3.6853	7.603945	0.000608	6.081168	1.030178	-0.000122
1191	1.1841e+02	-3.7045	7.494942	0.000547	5.473051	0.927160	-0.000110
1192	1.1850e+02	-3.7246	7.345568	0.000750	7.500107	1.270552	-0.000150
1193	1.1860e+02	-3.7456	7.256751	0.000446	4.459523	0.755464	-0.000089
1194	1.1870e+02	-3.7643	7.135637	0.000608	6.081168	1.030178	-0.000122
1195	1.1880e+02	-3.7838	7.006449	0.000649	6.486579	1.098856	-0.000130
1196	1.1890e+02	-3.8034	6.913595	0.000466	4.662228	0.789803	-0.000093
1197	1.1900e+02	-3.8232	6.772295	0.000709	7.094695	1.201874	-0.000142
1198	1.1910e+02	-3.8445	6.663293	0.000547	5.473051	0.927160	-0.000110
1199	1.1920e+02	-3.8642	6.570438	0.000466	4.662228	0.789803	-0.000093
1200	1.1930e+02	-3.8844	6.445287	0.000628	6.283873	1.064517	-0.000126
1201	1.1940e+02	-3.9030	6.324173	0.000608	6.081168	1.030178	-0.000122
1202	1.1950e+02	-3.9234	6.207096	0.000588	5.878462	0.995838	-0.000118
1203	1.1960e+02	-3.9433	6.081945	0.000628	6.283873	1.064517	-0.000126
1204	1.1970e+02	-3.9636	5.964868	0.000588	5.878462	0.995838	-0.000118
1205	1.1980e+02	-3.9837	5.835680	0.000649	6.486579	1.098856	-0.000130
1206	1.1990e+02	-4.0033	5.706491	0.000649	6.486579	1.098856	-0.000130
1207	1.2000e+02	-4.0235	5.581340	0.000628	6.283873	1.064517	-0.000126
1208	1.2010e+02	-4.0440	5.460226	0.000608	6.081168	1.030178	-0.000122
1209	1.2020e+02	-4.0636	5.347186	0.000568	5.675756	0.961499	-0.000114
1210	1.2030e+02	-4.0839	5.234146	0.000568	5.675756	0.961499	-0.000114
1211	1.2039e+02	-4.1028	5.072661	0.000811	8.108223	1.373570	-0.000162
1212	1.2049e+02	-4.1232	4.991918	0.000405	4.054112	0.686785	-0.000081
1213	1.2059e+02	-4.1435	4.890990	0.000507	5.067640	0.858481	-0.000101
1214	1.2069e+02	-4.1625	4.757764	0.000669	6.689284	1.133195	-0.000134
1215	1.2079e+02	-4.1831	4.632613	0.000628	6.283873	1.064517	-0.000126
1216	1.2089e+02	-4.2023	4.519573	0.000568	5.675756	0.961499	-0.000114
1217	1.2099e+02	-4.2226	4.406534	0.000568	5.675756	0.961499	-0.000114
1218	1.2109e+02	-4.2429	4.289457	0.000588	5.878462	0.995838	-0.000118
1219	1.2119e+02	-4.2624	4.127971	0.000811	8.108223	1.373570	-0.000162
1220	1.2129e+02	-4.2838	4.039154	0.000446	4.459523	0.755464	-0.000089
1221	1.2139e+02	-4.3027	3.918040	0.000608	6.081168	1.030178	-0.000122
1222	1.2149e+02	-4.3216	3.768666	0.000750	7.500107	1.270552	-0.000150
1223	1.2159e+02	-4.3429	3.659664	0.000547	5.473051	0.927160	-0.000110
1224	1.2169e+02	-4.3622	3.526438	0.000669	6.689284	1.133195	-0.000134
1225	1.2179e+02	-4.3811	3.425510	0.000507	5.067640	0.858481	-0.000101
1226	1.2189e+02	-4.4014	3.296321	0.000649	6.486579	1.098856	-0.000130
1227	1.2199e+02	-4.4240	3.187319	0.000547	5.473051	0.927160	-0.000110
1228	1.2209e+02	-4.4431	3.050056	0.000689	6.891990	1.167535	-0.000138
1229	1.2219e+02	-4.4615	2.965276	0.000426	4.256817	0.721124	-0.000085
1230	1.2229e+02	-4.4823	2.819939	0.000730	7.297401	1.236213	-0.000146
1231	1.2239e+02	-4.5020	2.706900	0.000568	5.675756	0.961499	-0.000114
1232	1.2248e+02	-4.5225	2.537340	0.000851	8.513635	1.442249	-0.000170
1233	1.2258e+02	-4.5410	2.440449	0.000486	4.864934	0.824142	-0.000097
1234	1.2268e+02	-4.5612	2.283000	0.000791	7.905518	1.339231	-0.000158
1235	1.2278e+02	-4.5818	2.206295	0.000385	3.851406	0.652446	-0.000077
1236	1.2288e+02	-4.6017	2.081143	0.000628	6.283873	1.064517	-0.000126
1237	1.2298e+02	-4.6207	1.980215	0.000507	5.067640	0.858481	-0.000101
1238	1.2308e+02	-4.6422	1.826804	0.000770	7.702812	1.304892	-0.000154
1239	1.2318e+02	-4.6616	1.689541	0.000689	6.891990	1.167535	-0.000138
1240	1.2328e+02	-4.6809	1.580539	0.000547	5.473051	0.927160	-0.000110
1241	1.2338e+02	-4.7008	1.439239	0.000709	7.094695	1.201874	-0.000142
1242	1.2348e+02	-4.7206	1.289865	0.000750	7.500107	1.270552	-0.000150
1243	1.2358e+02	-4.7407	1.217196	0.000365	3.648701	0.618107	-0.000073
1244	1.2368e+02	-4.7603	1.055711	0.000811	8.108223	1.373570	-0.000162
1245	1.2378e+02	-4.7809	0.958820	0.000486	4.864934	0.824142	-0.000097
1246	1.2388e+02	-4.8005	0.789260	0.000851	8.513635	1.442249	-0.000170
1247	1.2398e+02	-4.8206	0.680257	0.000547	5.473051	0.927160	-0.000110
1248	1.2408e+02	-4.8409	0.567218	0.000568	5.675756	0.961499	-0.000114
1249	1.2418e+02	-4.8611	0.425918	0.000709	7.094695	1.201874	-0.000142
1250	1.2428e+02	-4.8807	0.284618	0.000709	7.094695	1.201874	-0.000142
1251	1.2438e+02	-4.8993	0.179653	0.000527	5.270345	0.892821	-0.000105
1252	1.2447e+02	-4.9207	0.034316	0.000730	7.297401	1.236213	-0.000146
1253	1.2457e+02	-4.9397	-0.090836	0.000628	6.283873	1.064517	-0.000126
1254	1.2467e+02	-4.9596	-0.224061	0.000669	6.689284	1.133195	-0.000134
1255	1.2477e+02	-4.9786	-0.361324	0.000689	6.891990	1.167535	-0.000138
1256	1.2487e+02	-4.9998	-0.490512	0.000649	6.486579	1.098856	-0.000130
1257	1.2497e+02	-5.0229	-0.603552	0.000568	5.675756	0.961499	-0.000114
1258	1.2507e+02	-5.0395	-0.765037	0.000811	8.108223	1.373570	-0.000162
1259	1.2517e+02	-5.0592	-0.861928	0.000486	4.864934	0.824142	-0.000097
1260	1.2527e+02	-5.0787	-0.958820	0.000486	4.864934	0.824142	-0.000097
1261	1.2537e+02	-5.0990	-1.120305	0.000811	8.108223	1.373570	-0.000162
1262	1.2547e+02	-5.1189	-1.265642	0.000730	7.297401	1.236213	-0.000146
1263	1.2557e+02	-5.1391	-1.394830	0.000649	6.486579	1.098856	-0.000130
1264	1.2567e+02	-5.1585	-1.495759	0.000507	5.067640	0.858481	-0.000101
1265	1.2577e+02	-5.1787	-1.641096	0.000730	7.297401	1.236213	-0.000146
1266	1.2587e+02	-5.1990	-1.822767	0.000912	9.121751	1.545266	-0.000183
1267	1.2597e+02	-5.2184	-1.895435	0.000365	3.648701	0.618107	-0.000073
1268	1.2607e+02	-5.2394	-2.036735	0.000709	7.094695	1.201874	-0.000142
1269	1.2617e+02	-5.2597	-2.161886	0.000628	6.283873	1.064517	-0.000126
1270	1.2627e+02	-5.2786	-2.295112	0.000669	6.689284	1.133195	-0.000134
1271	1.2636e+02	-5.2985	-2.428337	0.000669	6.689284	1.133195	-0.000134
1272	1.2646e+02	-5.3188	-2.553488	0.000628	6.283873	1.064517	-0.000126
1273	1.2656e+02	-5.3386	-2.714974	0.000811	8.108223	1.373570	-0.000162
1274	1.2666e+02	-5.3578	-2.823976	0.000547	5.473051	0.927160	-0.000110
1275	1.2676e+02	-5.3773	-3.001610	0.000892	8.919046	1.510927	-0.000179
1276	1.2686e+02	-5.3943	-3.102539	0.000507	5.067640	0.858481	-0.000101
1277	1.2696e+02	-5.4175	-3.223653	0.000608	6.081168	1.030178	-0.000122
1278	1.2706e+02	-5.4382	-3.360916	0.000689	6.891990	1.167535	-0.000138
1279	1.2716e+02	-5.4581	-3.477992	0.000588	5.878462	0.995838	-0.000118
1280	1.2726e+02	-5.4783	-3.639478	0.000811	8.108223	1.373570	-0.000162
1281	1.2736e+02	-5.4975	-3.744443	0.000527	5.270345	0.892821	-0.000105
1282	1.2746e+02	-5.5181	-3.869595	0.000628	6.283873	1.064517	-0.000126
1283	1.2756e+02	-5.5376	-3.982634	0.000568	5.675756	0.961499	-0.000114
1284	1.2766e+02	-5.5569	-4.148157	0.000831	8.310929	1.407909	-0.000166
1285	1.2776e+02	-5.5769	-4.265234	0.000588	5.878462	0.995838	-0.000118
1286	1.2786e+02	-5.5981	-4.426719	0.000811	8.108223	1.373570	-0.000162
1287	1.2796e+02	-5.6175	-4.608390	0.000912	9.121751	1.545266	-0.000183
1288	1.2806e+02	-5.6375	-4.681059	0.000365	3.648701	0.618107	-0.000073
1289	1.2816e+02	-5.6566	-4.810247	0.000649	6.486579	1.098856	-0.000130
1290	1.2826e+02	-5.6768	-4.967696	0.000791	7.905518	1.339231	-0.000158
1291	1.2835e+02	-5.6979	-5.100921	0.000669	6.689284	1.133195	-0.000134
1292	1.2845e+02	-5.7178	-5.222035	0.000608	6.081168	1.030178	-0.000122
1293	1.2855e+02	-5.7375	-5.383521	0.000811	8.108223	1.373570	-0.000162
1294	1.2865e+02	-5.7565	-5.484449	0.000507	5.067640	0.858481	-0.000101
1295	1.2875e+02	-5.7780	-5.625749	0.000709	7.094695	1.201874	-0.000142
1296	1.2885e+02	-5.7974	-5.791271	0.000831	8.310929	1.407909	-0.000166
1297	1.2895e+02	-5.8154	-5.944682	0.000770	7.702812	1.304892	-0.000154
1298	1.2905e+02	-5.8367	-6.065796	0.000608	6.081168	1.030178	-0.000122
1299	1.2915e+02	-5.8562	-6.207096	0.000709	7.094695	1.201874	-0.000142
1300	1.2925e+02	-5.8755	-6.336285	0.000649	6.486579	1.098856	-0.000130
1301	1.2935e+02	-5.8966	-6.493733	0.000791	7.905518	1.339231	-0.000158
1302	1.2945e+02	-5.9174	-6.622921	0.000649	6.486579	1.098856	-0.000130
1303	1.2955e+02	-5.9360	-6.772295	0.000750	7.500107	1.270552	-0.000150
1304	1.2965e+02	-5.9569	-6.901484	0.000649	6.486579	1.098856	-0.000130
1305	1.2975e+02	-5.9763	-7.050858	0.000750	7.500107	1.270552	-0.000150
1306	1.2985e+02	-5.9962	-7.159860	0.000547	5.473051	0.927160	-0.000110
1307	1.2995e+02	-6.0153	-7.357680	0.000993	9.932574	1.682624	-0.000199
1308	1.3005e+02	-6.0345	-7.503017	0.000730	7.297401	1.236213	-0.000146
1309	1.3015e+02	-6.0558	-7.624131	0.000608	6.081168	1.030178	-0.000122
1310	1.3025e+02	-6.0756	-7.777542	0.000770	7.702812	1.304892	-0.000154
1311	1.3034e+02	-6.0953	-7.943065	0.000831	8.310929	1.407909	-0.000166
1312	1.3044e+02	-6.1144	-8.064179	0.000608	6.081168	1.030178	-0.000122
1313	1.3054e+02	-6.1349	-8.209516	0.000730	7.297401	1.236213	-0.000146
1314	1.3064e+02	-6.1543	-8.326592	0.000588	5.878462	0.995838	-0.000118
1315	1.3074e+02	-6.1745	-8.496152	0.000851	8.513635	1.442249	-0.000170
1316	1.3084e+02	-6.1948	-8.665712	0.000851	8.513635	1.442249	-0.000170
1317	1.3094e+02	-6.2143	-8.811049	0.000730	7.297401	1.236213	-0.000146
1318	1.3104e+02	-6.2363	-8.980608	0.000851	8.513635	1.442249	-0.000170
1319	1.3114e+02	-6.2549	-9.101723	0.000608	6.081168	1.030178	-0.000122
1320	1.3124e+02	-6.2746	-9.275319	0.000872	8.716340	1.476588	-0.000174
1321	1.3134e+02	-6.2961	-9.396433	0.000608	6.081168	1.030178	-0.000122
1322	1.3144e+02	-6.3148	-9.602327	0.001034	10.337985	1.751302	-0.000207
1323	1.3154e+02	-6.3347	-9.711330	0.000547	5.473051	0.927160	-0.000110
1324	1.3164e+02	-6.3542	-9.852630	0.000709	7.094695	1.201874	-0.000142
1325	1.3174e+02	-6.3741	-10.050449	0.000993	9.932574	1.682624	-0.000199
1326	1.3184e+02	-6.3947	-10.207898	0.000791	7.905518	1.339231	-0.000158
1327	1.3194e+02	-6.4138	-10.316900	0.000547	5.473051	0.927160	-0.000110
1328	1.3204e+02	-6.4337	-10.462237	0.000730	7.297401	1.236213	-0.000146
1329	1.3214e+02	-6.4536	-10.664094	0.001014	10.135279	1.716963	-0.000203
1330	1.3224e+02	-6.4746	-10.805394	0.000709	7.094695	1.201874	-0.000142
1331	1.3234e+02	-6.4935	-10.966879	0.000811	8.108223	1.373570	-0.000162
1332	1.3243e+02	-6.5143	-11.108179	0.000709	7.094695	1.201874	-0.000142
1333	1.3253e+02	-6.5338	-11.281776	0.000872	8.716340	1.476588	-0.000174
1334	1.3263e+02	-6.5536	-11.431150	0.000750	7.500107	1.270552	-0.000150
1335	1.3273e+02	-6.5747	-11.608784	0.000892	8.919046	1.510927	-0.000179
1336	1.3283e+02	-6.5941	-11.778344	0.000851	8.513635	1.442249	-0.000170
1337	1.3293e+02	-6.6124	-11.935792	0.000791	7.905518	1.339231	-0.000158
1338	1.3303e+02	-6.6336	-12.105352	0.000851	8.513635	1.442249	-0.000170
1339	1.3313e+02	-6.6531	-12.246651	0.000709	7.094695	1.201874	-0.000142
1340	1.3323e+02	-6.6744	-12.391988	0.000730	7.297401	1.236213	-0.000146
1341	1.3333e+02	-6.6913	-12.549436	0.000791	7.905518	1.339231	-0.000158
1342	1.3343e+02	-6.7132	-12.731108	0.000912	9.121751	1.545266	-0.000183
1343	1.3353e+02	-6.7334	-12.904704	0.000872	8.716340	1.476588	-0.000174
1344	1.3363e+02	-6.7529	-13.050041	0.000730	7.297401	1.236213	-0.000146
1345	1.3373e+02	-6.7731	-13.247861	0.000993	9.932574	1.682624	-0.000199
1346	1.3383e+02	-6.7920	-13.445681	0.000993	9.932574	1.682624	-0.000199
1347	1.3393e+02	-6.8127	-13.619277	0.000872	8.716340	1.476588	-0.000174
1348	1.3403e+02	-6.8329	-13.772689	0.000770	7.702812	1.304892	-0.000154
1349	1.3413e+02	-6.8535	-13.978582	0.001034	10.337985	1.751302	-0.000207
1350	1.3423e+02	-6.8723	-14.180439	0.001014	10.135279	1.716963	-0.000203
1351	1.3432e+02	-6.8927	-14.297516	0.000588	5.878462	0.995838	-0.000118
1352	1.3442e+02	-6.9125	-14.511484	0.001074	10.743396	1.819981	-0.000215
1353	1.3452e+02	-6.9316	-14.681044	0.000851	8.513635	1.442249	-0.000170
1354	1.3462e+02	-6.9522	-14.911161	0.001155	11.554218	1.957338	-0.000231
1355	1.3472e+02	-6.9718	-15.040349	0.000649	6.486579	1.098856	-0.000130
1356	1.3482e+02	-6.9918	-15.262392	0.001115	11.148807	1.888659	-0.000223
1357	1.3492e+02	-7.0102	-15.415803	0.000770	7.702812	1.304892	-0.000154
1358	1.3502e+02	-7.0320	-15.613622	0.000993	9.932574	1.682624	-0.000199
1359	1.3512e+02	-7.0523	-15.807405	0.000973	9.729868	1.648284	-0.000195
1360	1.3522e+02	-7.0720	-15.985039	0.000892	8.919046	1.510927	-0.000179
1361	1.3532e+02	-7.0915	-16.227267	0.001216	12.162335	2.060355	-0.000243
1362	1.3542e+02	-7.1113	-16.360493	0.000669	6.689284	1.133195	-0.000134
1363	1.3552e+02	-7.1312	-16.554275	0.000973	9.729868	1.648284	-0.000195
1364	1.3562e+02	-7.1516	-16.804578	0.001257	12.567746	2.129034	-0.000252
1365	1.3572e+02	-7.1718	-16.966063	0.000811	8.108223	1.373570	-0.000162
1366	1.3582e+02	-7.1914	-17.180031	0.001074	10.743396	1.819981	-0.000215
1367	1.3592e+02	-7.2115	-17.377851	0.000993	9.932574	1.682624	-0.000199
1368	1.3602e+02	-7.2314	-17.555485	0.000892	8.919046	1.510927	-0.000179
1369	1.3612e+02	-7.2508	-17.761379	0.001034	10.337985	1.751302	-0.000207
1370	1.3622e+02	-7.2705	-17.959198	0.000993	9.932574	1.682624	-0.000199
1371	1.3631e+02	-7.2905	-18.157018	0.000993	9.932574	1.682624	-0.000199
1372	1.3641e+02	-7.3111	-18.395209	0.001196	11.959629	2.026016	-0.000239
1373	1.3651e+02	-7.3303	-18.617251	0.001115	11.148807	1.888659	-0.000223
1374	1.3661e+02	-7.3508	-18.762588	0.000730	7.297401	1.236213	-0.000146
1375	1.3671e+02	-7.3698	-19.025002	0.001318	13.175863	2.232052	-0.000264
1376	1.3681e+02	-7.3906	-19.206673	0.000912	9.121751	1.545266	-0.000183
1377	1.3691e+02	-7.4097	-19.424679	0.001095	10.946102	1.854320	-0.000219
1378	1.3701e+02	-7.4301	-19.674981	0.001257	12.567746	2.129034	-0.000252
1379	1.3711e+02	-7.4507	-19.876838	0.001014	10.135279	1.716963	-0.000203
1380	1.3721e+02	-7.4709	-20.078695	0.001014	10.135279	1.716963	-0.000203
1381	1.3731e+02	-7.4902	-20.288626	0.001054	10.540690	1.785641	-0.000211
1382	1.3741e+02	-7.5095	-20.502594	0.001074	10.743396	1.819981	-0.000215
1383	1.3751e+02	-7.5302	-20.785193	0.001419	14.189391	2.403748	-0.000284
1384	1.3761e+02	-7.5500	-20.950716	0.000831	8.310929	1.407909	-0.000166
1385	1.3771e+02	-7.5696	-21.188907	0.001196	11.959629	2.026016	-0.000239
1386	1.3781e+02	-7.5888	-21.382689	0.000973	9.729868	1.648284	-0.000195
1387	1.3791e+02	-7.6089	-21.649140	0.001338	13.378569	2.266391	-0.000268
1388	1.3801e+02	-7.6292	-21.927703	0.001399	13.986685	2.369409	-0.000280
1389	1.3811e+02	-7.6486	-22.145708	0.001095	10.946102	1.854320	-0.000219
1390	1.3821e+02	-7.6682	-22.327379	0.000912	9.121751	1.545266	-0.000183
1391	1.3831e+02	-7.6886	-22.601904	0.001378	13.783980	2.335069	-0.000276
1392	1.3840e+02	-7.7094	-22.819910	0.001095	10.946102	1.854320	-0.000219
1393	1.3850e+02	-7.7279	-23.045989	0.001135	11.351513	1.922998	-0.000227
1394	1.3860e+02	-7.7486	-23.272069	0.001135	11.351513	1.922998	-0.000227
1395	1.3870e+02	-7.7686	-23.534483	0.001318	13.175863	2.232052	-0.000264
1396	1.3880e+02	-7.7887	-23.788822	0.001277	12.770452	2.163373	-0.000256
1397	1.3890e+02	-7.8091	-24.043162	0.001277	12.770452	2.163373	-0.000256
1398	1.3900e+02	-7.8282	-24.297501	0.001277	12.770452	2.163373	-0.000256
1399	1.3910e+02	-7.8476	-24.515507	0.001095	10.946102	1.854320	-0.000219
1400	1.3920e+02	-7.8687	-24.773883	0.001297	12.973157	2.197712	-0.000260
1401	1.3930e+02	-7.8874	-25.024186	0.001257	12.567746	2.129034	-0.000252
1402	1.3940e+02	-7.9080	-25.282563	0.001297	12.973157	2.197712	-0.000260
1403	1.3950e+02	-7.9277	-25.516716	0.001176	11.756924	1.991677	-0.000235
1404	1.3960e+02	-7.9476	-25.787205	0.001358	13.581274	2.300730	-0.000272
1405	1.3970e+02	-7.9675	-26.029433	0.001216	12.162335	2.060355	-0.000243
1406	1.3980e+02	-7.9889	-26.279735	0.001257	12.567746	2.129034	-0.000252
1407	1.3990e+02	-8.0081	-26.570409	0.001459	14.594802	2.472426	-0.000292
1408	1.4000e+02	-8.0280	-26.828786	0.001297	12.973157	2.197712	-0.000260
1409	1.4010e+02	-8.0475	-27.038717	0.001054	10.540690	1.785641	-0.000211
1410	1.4020e+02	-8.0667	-27.373799	0.001682	16.824563	2.850158	-0.000337
1411	1.4029e+02	-8.0867	-27.676584	0.001520	15.202919	2.575444	-0.000304
1412	1.4039e+02	-8.1076	-27.882478	0.001034	10.337985	1.751302	-0.000207
1413	1.4049e+02	-8.1259	-28.213523	0.001662	16.621858	2.815819	-0.000333
1414	1.4059e+02	-8.1470	-28.455751	0.001216	12.162335	2.060355	-0.000243
1415	1.4069e+02	-8.1671	-28.738351	0.001419	14.189391	2.403748	-0.000284
1416	1.4079e+02	-8.1879	-29.037099	0.001500	15.000213	2.541105	-0.000300
1417	1.4089e+02	-8.2064	-29.307587	0.001358	13.581274	2.300730	-0.000272
1418	1.4099e+02	-8.2263	-29.602298	0.001480	14.797508	2.506766	-0.000296
1419	1.4109e+02	-8.2465	-29.880860	0.001399	13.986685	2.369409	-0.000280
1420	1.4119e+02	-8.2677	-30.203831	0.001622	16.216447	2.747140	-0.000325
1421	1.4129e+02	-8.2861	-30.478356	0.001378	13.783980	2.335069	-0.000276
1422	1.4139e+02	-8.3063	-30.736733	0.001297	12.973157	2.197712	-0.000260
1423	1.4149e+02	-8.3263	-31.071815	0.001682	16.824563	2.850158	-0.000337
1424	1.4159e+02	-8.3456	-31.350378	0.001399	13.986685	2.369409	-0.000280
1425	1.4169e+02	-8.3655	-31.657200	0.001541	15.405624	2.609783	-0.000308
1426	1.4179e+02	-8.3865	-32.000356	0.001723	17.229975	2.918837	-0.000345
1427	1.4189e+02	-8.4050	-32.250659	0.001257	12.567746	2.129034	-0.000252
1428	1.4199e+02	-8.4264	-32.573630	0.001622	16.216447	2.747140	-0.000325
1429	1.4209e+02	-8.4460	-32.892563	0.001601	16.013741	2.712801	-0.000321
1430	1.4219e+02	-8.4650	-33.175163	0.001419	14.189391	2.403748	-0.000284
1431	1.4228e+02	-8.4851	-33.530431	0.001784	17.838091	3.021854	-0.000357
1432	1.4238e+02	-8.5057	-33.760548	0.001155	11.554218	1.957338	-0.000231
1433	1.4248e+02	-8.5258	-34.099667	0.001703	17.027269	2.884497	-0.000341
1434	1.4258e+02	-8.5458	-34.438786	0.001703	17.027269	2.884497	-0.000341
1435	1.4268e+02	-8.5657	-34.765794	0.001642	16.419152	2.781480	-0.000329
1436	1.4278e+02	-8.5852	-35.072617	0.001541	15.405624	2.609783	-0.000308
1437	1.4288e+02	-8.6047	-35.439996	0.001845	18.446208	3.124872	-0.000369
1438	1.4298e+02	-8.6240	-35.726633	0.001439	14.392096	2.438087	-0.000288
1439	1.4308e+02	-8.6472	-36.057678	0.001662	16.621858	2.815819	-0.000333
1440	1.4318e+02	-8.6652	-36.396797	0.001703	17.027269	2.884497	-0.000341
1441	1.4328e+02	-8.6845	-36.764177	0.001845	18.446208	3.124872	-0.000369
1442	1.4338e+02	-8.7042	-37.050813	0.001439	14.392096	2.438087	-0.000288
1443	1.4348e+02	-8.7247	-37.430304	0.001905	19.054325	3.227890	-0.000381
1444	1.4358e+02	-8.7447	-37.745201	0.001581	15.811036	2.678462	-0.000316
1445	1.4368e+02	-8.7653	-38.088357	0.001723	17.229975	2.918837	-0.000345
1446	1.4378e+02	-8.7842	-38.463811	0.001885	18.851619	3.193551	-0.000377
1447	1.4388e+02	-8.8037	-38.831190	0.001845	18.446208	3.124872	-0.000369
1448	1.4398e+02	-8.8247	-39.138012	0.001541	15.405624	2.609783	-0.000308
1449	1.4408e+02	-8.8434	-39.529615	0.001966	19.662442	3.330908	-0.000394
1450	1.4418e+02	-8.8641	-39.860660	0.001662	16.621858	2.815819	-0.000333
1451	1.4428e+02	-8.8831	-40.236113	0.001885	18.851619	3.193551	-0.000377
1452	1.4437e+02	-8.9034	-40.567158	0.001662	16.621858	2.815819	-0.000333
1453	1.4447e+02	-8.9240	-40.954723	0.001946	19.459736	3.296569	-0.000390
1454	1.4457e+02	-8.9439	-41.322103	0.001845	18.446208	3.124872	-0.000369
1455	1.4467e+02	-8.9635	-41.713705	0.001966	19.662442	3.330908	-0.000394
1456	1.4477e+02	-8.9838	-42.081084	0.001845	18.446208	3.124872	-0.000369
1457	1.4487e+02	-9.0034	-42.440389	0.001804	18.040797	3.056194	-0.000361
1458	1.4497e+02	-9.0222	-42.836029	0.001987	19.865147	3.365247	-0.000398
1459	1.4507e+02	-9.0434	-43.187260	0.001764	17.635386	2.987515	-0.000353
1460	1.4517e+02	-9.0637	-43.558676	0.001865	18.648914	3.159211	-0.000373
1461	1.4527e+02	-9.0828	-43.982575	0.002128	21.284086	3.605622	-0.000426
1462	1.4537e+02	-9.1028	-44.366103	0.001926	19.257030	3.262229	-0.000385
1463	1.4547e+02	-9.1235	-44.753668	0.001946	19.459736	3.296569	-0.000390
1464	1.4557e+02	-9.1426	-45.185642	0.002169	21.689497	3.674300	-0.000434
1465	1.4567e+02	-9.1621	-45.553021	0.001845	18.446208	3.124872	-0.000369
1466	1.4577e+02	-9.1817	-46.009217	0.002291	22.905731	3.880336	-0.000458
1467	1.4587e+02	-9.2041	-46.392745	0.001926	19.257030	3.262229	-0.000385
1468	1.4597e+02	-9.2232	-46.776273	0.001926	19.257030	3.262229	-0.000385
1469	1.4607e+02	-9.2421	-47.196135	0.002108	21.081381	3.571283	-0.000422
1470	1.4617e+02	-9.2630	-47.636183	0.002209	22.094909	3.742979	-0.000442
1471	1.4626e+02	-9.2825	-48.052008	0.002088	20.878675	3.536943	-0.000418
1472	1.4636e+02	-9.3024	-48.439573	0.001946	19.459736	3.296569	-0.000390
1473	1.4646e+02	-9.3208	-48.899807	0.002311	23.108437	3.914675	-0.000463
1474	1.4656e+02	-9.3430	-49.331780	0.002169	21.689497	3.674300	-0.000434
1475	1.4666e+02	-9.3623	-49.763754	0.002169	21.689497	3.674300	-0.000434
1476	1.4676e+02	-9.3819	-50.211876	0.002250	22.500320	3.811657	-0.000450
1477	1.4686e+02	-9.4009	-50.680183	0.002351	23.513848	3.983354	-0.000471
1478	1.4696e+02	-9.4212	-51.108120	0.002149	21.486792	3.639961	-0.000430
1479	1.4706e+02	-9.4412	-51.556242	0.002250	22.500320	3.811657	-0.000450
1480	1.4716e+02	-9.4614	-51.996290	0.002209	22.094909	3.742979	-0.000442
1481	1.4726e+02	-9.4809	-52.484783	0.002453	24.527376	4.155050	-0.000491
1482	1.4736e+02	-9.5014	-52.936942	0.002270	22.703025	3.845997	-0.000454
1483	1.4746e+02	-9.5211	-53.425436	0.002453	24.527376	4.155050	-0.000491
1484	1.4756e+02	-9.5418	-53.926041	0.002514	25.135492	4.258068	-0.000503
1485	1.4766e+02	-9.5605	-54.362051	0.002189	21.892203	3.708640	-0.000438
1486	1.4776e+02	-9.5813	-54.846508	0.002432	24.324670	4.120711	-0.000487
1487	1.4786e+02	-9.6011	-55.343075	0.002493	24.932787	4.223728	-0.000499
1488	1.4796e+02	-9.6216	-55.823494	0.002412	24.121964	4.086371	-0.000483
1489	1.4806e+02	-9.6401	-56.287765	0.002331	23.311142	3.949014	-0.000467
1490	1.4816e+02	-9.6603	-56.832778	0.002737	27.365254	4.635799	-0.000548
1491	1.4825e+02	-9.6807	-57.280900	0.002250	22.500320	3.811657	-0.000450
1492	1.4835e+02	-9.7013	-57.789580	0.002554	25.540904	4.326746	-0.000511
1493	1.4845e+02	-9.7211	-58.334593	0.002737	27.365254	4.635799	-0.000548
1494	1.4855e+02	-9.7412	-58.851346	0.002595	25.946315	4.395425	-0.000519
1495	1.4865e+02	-9.7604	-59.343877	0.002473	24.730081	4.189389	-0.000495
1496	1.4875e+02	-9.7801	-59.876779	0.002676	26.757137	4.532782	-0.000536
1497	1.4885e+02	-9.7998	-60.389495	0.002574	25.743609	4.361085	-0.000515
1498	1.4895e+02	-9.8199	-60.922397	0.002676	26.757137	4.532782	-0.000536
1499	1.4905e+02	-9.8395	-61.467410	0.002737	27.365254	4.635799	-0.000548
1500	1.4915e+02	-9.8605	-61.996275	0.002655	26.554431	4.498442	-0.000532
1501	1.4925e+02	-9.8799	-62.581660	0.002939	29.392310	4.979192	-0.000588
1502	1.4935e+02	-9.8994	-63.102450	0.002615	26.149020	4.429764	-0.000523
1503	1.4945e+02	-9.9191	-63.647463	0.002737	27.365254	4.635799	-0.000548
1504	1.4955e+02	-9.9396	-64.216700	0.002858	28.581487	4.841835	-0.000572
1505	1.4965e+02	-9.9604	-64.806121	0.002960	29.595015	5.013531	-0.000592
1506	1.4975e+02	-9.9796	-65.351135	0.002737	27.365254	4.635799	-0.000548
1507	1.4985e+02	-9.9991	-65.960742	0.003061	30.608543	5.185228	-0.000613
1508	1.4995e+02	-9.9799	-66.348307	-0.001946	-19.459736	-3.296569	-0.000390
1509	1.5005e+02	-9.9593	-66.743947	-0.001987	-19.865147	-3.365247	-0.000398
1510	1.5015e+02	-9.9387	-67.143623	-0.002007	-20.067853	-3.399586	-0.000402
1511	1.5025e+02	-9.9187	-67.539262	-0.001987	-19.865147	-3.365247	-0.000398
1512	1.5034e+02	-9.9000	-67.862233	-0.001622	-16.216447	-2.747140	-0.000325
1513	1.5044e+02	-9.8798	-68.189241	-0.001642	-16.419152	-2.781480	-0.000329
1514	1.5054e+02	-9.8597	-68.524323	-0.001682	-16.824563	-2.850158	-0.000337
1515	1.5064e+02	-9.8409	-68.827109	-0.001520	-15.202919	-2.575444	-0.000304
1516	1.5074e+02	-9.8203	-69.117782	-0.001459	-14.594802	-2.472426	-0.000292
1517	1.5084e+02	-9.7996	-69.456902	-0.001703	-17.027269	-2.884497	-0.000341
1518	1.5094e+02	-9.7809	-69.711241	-0.001277	-12.770452	-2.163373	-0.000256
1519	1.5104e+02	-9.7604	-69.973655	-0.001318	-13.175863	-2.232052	-0.000264
1520	1.5114e+02	-9.7407	-70.260292	-0.001439	-14.392096	-2.438087	-0.000288
1521	1.5124e+02	-9.7197	-70.474260	-0.001074	-10.743396	-1.819981	-0.000215
1522	1.5134e+02	-9.7003	-70.740711	-0.001338	-13.378569	-2.266391	-0.000268
1523	1.5144e+02	-9.6808	-70.974865	-0.001176	-11.756924	-1.991677	-0.000235
1524	1.5154e+02	-9.6608	-71.217093	-0.001216	-12.162335	-2.060355	-0.000243
1525	1.5164e+02	-9.6401	-71.422987	-0.001034	-10.337985	-1.751302	-0.000207
1526	1.5174e+02	-9.6207	-71.624844	-0.001014	-10.135279	-1.716963	-0.000203
1527	1.5184e+02	-9.6005	-71.858998	-0.001176	-11.756924	-1.991677	-0.000235
1528	1.5194e+02	-9.5810	-72.068929	-0.001054	-10.540690	-1.785641	-0.000211
1529	1.5204e+02	-9.5602	-72.230414	-0.000811	-8.108223	-1.373570	-0.000162
1530	1.5214e+02	-9.5410	-72.448419	-0.001095	-10.946102	-1.854320	-0.000219
1531	1.5224e+02	-9.5210	-72.622016	-0.000872	-8.716340	-1.476588	-0.000174
1532	1.5233e+02	-9.5018	-72.803687	-0.000912	-9.121751	-1.545266	-0.000183
1533	1.5243e+02	-9.4824	-72.953061	-0.000750	-7.500107	-1.270552	-0.000150
1534	1.5253e+02	-9.4624	-73.130695	-0.000892	-8.919046	-1.510927	-0.000179
1535	1.5263e+02	-9.4418	-73.288144	-0.000791	-7.905518	-1.339231	-0.000158
1536	1.5273e+02	-9.4219	-73.449629	-0.000811	-8.108223	-1.373570	-0.000162
1537	1.5283e+02	-9.4011	-73.590929	-0.000709	-7.094695	-1.201874	-0.000142
1538	1.5293e+02	-9.3816	-73.740303	-0.000750	-7.500107	-1.270552	-0.000150
1539	1.5303e+02	-9.3620	-73.881603	-0.000709	-7.094695	-1.201874	-0.000142
1540	1.5313e+02	-9.3413	-74.071348	-0.000953	-9.527162	-1.613945	-0.000191
1541	1.5323e+02	-9.3213	-74.160165	-0.000446	-4.459523	-0.755464	-0.000089
1542	1.5333e+02	-9.3022	-74.293390	-0.000669	-6.689284	-1.133195	-0.000134
1543	1.5343e+02	-9.2827	-74.438727	-0.000730	-7.297401	-1.236213	-0.000146
1544	1.5353e+02	-9.2625	-74.527544	-0.000446	-4.459523	-0.755464	-0.000089
1545	1.5363e+02	-9.2432	-74.644621	-0.000588	-5.878462	-0.995838	-0.000118
1546	1.5373e+02	-9.2221	-74.721327	-0.000385	-3.851406	-0.652446	-0.000077
1547	1.5383e+02	-9.2018	-74.927221	-0.001034	-10.337985	-1.751302	-0.000207
1548	1.5393e+02	-9.1821	-74.999889	-0.000365	-3.648701	-0.618107	-0.000073
1549	1.5403e+02	-9.1618	-75.080632	-0.000405	-4.054112	-0.686785	-0.000081
1550	1.5413e+02	-9.1428	-75.161375	-0.000405	-4.054112	-0.686785	-0.000081
1551	1.5422e+02	-9.1234	-75.274414	-0.000568	-5.675756	-0.961499	-0.000114
1552	1.5432e+02	-9.1028	-75.351120	-0.000385	-3.851406	-0.652446	-0.000077
1553	1.5442e+02	-9.0826	-75.423788	-0.000365	-3.648701	-0.618107	-0.000073
1554	1.5452e+02	-9.0636	-75.528754	-0.000527	-5.270345	-0.892821	-0.000105
1555	1.5462e+02	-9.0434	-75.593348	-0.000324	-3.243289	-0.549428	-0.000065
1556	1.5472e+02	-9.0240	-75.670054	-0.000385	-3.851406	-0.652446	-0.000077
1557	1.5482e+02	-9.0029	-75.750796	-0.000405	-4.054112	-0.686785	-0.000081
1558	1.5492e+02	-8.9835	-75.803279	-0.000264	-2.635173	-0.446410	-0.000053
1559	1.5502e+02	-8.9636	-75.847688	-0.000223	-2.229761	-0.377732	-0.000045
1560	1.5512e+02	-8.9435	-75.940542	-0.000466	-4.662228	-0.789803	-0.000093
1561	1.5522e+02	-8.9238	-75.993025	-0.000264	-2.635173	-0.446410	-0.000053
1562	1.5532e+02	-8.9040	-76.013210	-0.000101	-1.013528	-0.171696	-0.000020
1563	1.5542e+02	-8.8832	-76.110102	-0.000486	-4.864934	-0.824142	-0.000097
1564	1.5552e+02	-8.8641	-76.142399	-0.000162	-1.621645	-0.274714	-0.000032
1565	1.5562e+02	-8.8440	-76.219104	-0.000385	-3.851406	-0.652446	-0.000077
1566	1.5572e+02	-8.8239	-76.247364	-0.000142	-1.418939	-0.240375	-0.000028
1567	1.5582e+02	-8.8051	-76.328107	-0.000405	-4.054112	-0.686785	-0.000081
1568	1.5592e+02	-8.7839	-76.303884	0.000122	1.216234	0.206036	0.000024
1569	1.5602e+02	-8.7634	-76.384627	-0.000405	-4.054112	-0.686785	-0.000081
1570	1.5612e+02	-8.7446	-76.453258	-0.000345	-3.445995	-0.583767	-0.000069
1571	1.5622e+02	-8.7245	-76.469407	-0.000081	-0.810822	-0.137357	-0.000016
1572	1.5631e+02	-8.7055	-76.457295	0.000061	0.608117	0.103018	0.000012
1573	1.5641e+02	-8.6845	-76.465369	-0.000041	-0.405411	-0.068679	-0.000008
1574	1.5651e+02	-8.6653	-76.534001	-0.000345	-3.445995	-0.583767	-0.000069
1575	1.5661e+02	-8.6438	-76.550149	-0.000081	-0.810822	-0.137357	-0.000016
1576	1.5671e+02	-8.6252	-76.586484	-0.000182	-1.824350	-0.309053	-0.000037
1577	1.5681e+02	-8.6035	-76.606669	-0.000101	-1.013528	-0.171696	-0.000020
1578	1.5691e+02	-8.5854	-76.618781	-0.000061	-0.608117	-0.103018	-0.000012
1579	1.5701e+02	-8.5651	-76.651078	-0.000162	-1.621645	-0.274714	-0.000032
1580	1.5711e+02	-8.5452	-76.699523	-0.000243	-2.432467	-0.412071	-0.000049
1581	1.5721e+02	-8.5263	-76.719709	-0.000101	-1.013528	-0.171696	-0.000020
1582	1.5731e+02	-8.5061	-76.691449	0.000142	1.418939	0.240375	0.000028
1583	1.5741e+02	-8.4863	-76.735858	-0.000223	-2.229761	-0.377732	-0.000045
1584	1.5751e+02	-8.4648	-76.723746	0.000061	0.608117	0.103018	0.000012
1585	1.5761e+02	-8.4454	-76.747969	-0.000122	-1.216234	-0.206036	-0.000024
1586	1.5771e+02	-8.4244	-76.747969	0.000000	0.000000	0.000000	0.000000
1587	1.5781e+02	-8.4061	-76.756043	-0.000041	-0.405411	-0.068679	-0.000008
1588	1.5791e+02	-8.3859	-76.772192	-0.000081	-0.810822	-0.137357	-0.000016
1589	1.5801e+02	-8.3662	-76.727783	0.000223	2.229761	0.377732	0.000045
1590	1.5811e+02	-8.3466	-76.764117	-0.000182	-1.824350	-0.309053	-0.000037
1591	1.5821e+02	-8.3262	-76.800452	-0.000182	-1.824350	-0.309053	-0.000037
1592	1.5830e+02	-8.3069	-76.788340	0.000061	0.608117	0.103018	0.000012
1593	1.5840e+02	-8.2873	-76.784303	0.000020	0.202706	0.034339	0.000004
1594	1.5850e+02	-8.2658	-76.747969	0.000182	1.824350	0.309053	0.000037
1595	1.5860e+02	-8.2468	-76.760080	-0.000061	-0.608117	-0.103018	-0.000012
1596	1.5870e+02	-8.2262	-76.752006	0.000041	0.405411	0.068679	0.000008
1597	1.5880e+02	-8.2074	-76.772192	-0.000101	-1.013528	-0.171696	-0.000020
1598	1.5890e+02	-8.1863	-76.711635	0.000304	3.040584	0.515089	0.000061
1599	1.5900e+02	-8.1668	-76.687412	0.000122	1.216234	0.206036	0.000024
1600	1.5910e+02	-8.1471	-76.703560	-0.000081	-0.810822	-0.137357	-0.000016
1601	1.5920e+02	-8.1259	-76.671263	0.000162	1.621645	0.274714	0.000032
1602	1.5930e+02	-8.1075	-76.651078	0.000101	1.013528	0.171696	0.000020
1603	1.5940e+02	-8.0856	-76.630892	0.000101	1.013528	0.171696	0.000020
1604	1.5950e+02	-8.0669	-76.610706	0.000101	1.013528	0.171696	0.000020
1605	1.5960e+02	-8.0469	-76.634929	-0.000122	-1.216234	-0.206036	-0.000024
1606	1.5970e+02	-8.0268	-76.566298	0.000345	3.445995	0.583767	0.000069
1607	1.5980e+02	-8.0087	-76.538038	0.000142	1.418939	0.240375	0.000028
1608	1.5990e+02	-7.9874	-76.529964	0.000041	0.405411	0.068679	0.000008
1609	1.6000e+02	-7.9682	-76.509778	0.000101	1.013528	0.171696	0.000020
1610	1.6010e+02	-7.9472	-76.461332	0.000243	2.432467	0.412071	0.000049
1611	1.6019e+02	-7.9279	-76.416924	0.000223	2.229761	0.377732	0.000045
1612	1.6029e+02	-7.9086	-76.420961	-0.000020	-0.202706	-0.034339	-0.000004
1613	1.6039e+02	-7.8880	-76.368478	0.000264	2.635173	0.446410	0.000053
1614	1.6049e+02	-7.8687	-76.348293	0.000101	1.013528	0.171696	0.000020
1615	1.6059e+02	-7.8482	-76.340218	0.000041	0.405411	0.068679	0.000008
1616	1.6069e+02	-7.8284	-76.271587	0.000345	3.445995	0.583767	0.000069
1617	1.6079e+02	-7.8085	-76.263513	0.000041	0.405411	0.068679	0.000008
1618	1.6089e+02	-7.7914	-76.194881	0.000345	3.445995	0.583767	0.000069
1619	1.6099e+02	-7.7678	-76.134324	0.000304	3.040584	0.515089	0.000061
1620	1.6109e+02	-7.7490	-76.114139	0.000101	1.013528	0.171696	0.000020
1621	1.6119e+02	-7.7281	-76.097990	0.000081	0.810822	0.137357	0.000016
1622	1.6129e+02	-7.7089	-76.077804	0.000101	1.013528	0.171696	0.000020
1623	1.6139e+02	-7.6886	-76.005136	0.000365	3.648701	0.618107	0.000073
1624	1.6149e+02	-7.6678	-75.960727	0.000223	2.229761	0.377732	0.000045
1625	1.6159e+02	-7.6485	-75.936505	0.000122	1.216234	0.206036	0.000024
1626	1.6169e+02	-7.6290	-75.855762	0.000405	4.054112	0.686785	0.000081
1627	1.6179e+02	-7.6083	-75.835576	0.000101	1.013528	0.171696	0.000020
1628	1.6189e+02	-7.5912	-75.770982	0.000324	3.243289	0.549428	0.000065
1629	1.6199e+02	-7.5696	-75.738685	0.000162	1.621645	0.274714	0.000032
1630	1.6209e+02	-7.5494	-75.661979	0.000385	3.851406	0.652446	0.000077
1631	1.6219e+02	-7.5298	-75.621608	0.000203	2.027056	0.343393	0.000041
1632	1.6228e+02	-7.5098	-75.617571	0.000020	0.202706	0.034339	0.000004
1633	1.6238e+02	-7.4899	-75.561051	0.000284	2.837878	0.480750	0.000057
1634	1.6248e+02	-7.4697	-75.508568	0.000264	2.635173	0.446410	0.000053
1635	1.6258e+02	-7.4493	-75.456086	0.000264	2.635173	0.446410	0.000053
1636	1.6268e+02	-7.4307	-75.395528	0.000304	3.040584	0.515089	0.000061
1637	1.6278e+02	-7.4108	-75.347083	0.000243	2.432467	0.412071	0.000049
1638	1.6288e+02	-7.3901	-75.278452	0.000345	3.445995	0.583767	0.000069
1639	1.6298e+02	-7.3703	-75.294600	-0.000081	-0.810822	-0.137357	-0.000016
1640	1.6308e+02	-7.3531	-75.177523	0.000588	5.878462	0.995838	0.000118
1641	1.6318e+02	-7.3314	-75.141189	0.000182	1.824350	0.309053	0.000037
1642	1.6328e+02	-7.3103	-75.080632	0.000304	3.040584	0.515089	0.000061
1643	1.6338e+02	-7.2903	-75.060446	0.000101	1.013528	0.171696	0.000020
1644	1.6348e+02	-7.2708	-74.955481	0.000527	5.270345	0.892821	0.000105
1645	1.6358e+02	-7.2507	-74.931258	0.000122	1.216234	0.206036	0.000024
1646	1.6368e+02	-7.2311	-74.830329	0.000507	5.067640	0.858481	0.000101
1647	1.6378e+02	-7.2107	-74.789958	0.000203	2.027056	0.343393	0.000041
1648	1.6388e+02	-7.1918	-74.713253	0.000385	3.851406	0.652446	0.000077
1649	1.6398e+02	-7.1714	-74.684993	0.000142	1.418939	0.240375	0.000028
1650	1.6408e+02	-7.1509	-74.608287	0.000385	3.851406	0.652446	0.000077
1651	1.6418e+02	-7.1309	-74.571953	0.000182	1.824350	0.309053	0.000037
1652	1.6427e+02	-7.1112	-74.499284	0.000365	3.648701	0.618107	0.000073
1653	1.6437e+02	-7.0912	-74.438727	0.000304	3.040584	0.515089	0.000061
1654	1.6447e+02	-7.0712	-74.353947	0.000426	4.256817	0.721124	0.000085
1655	1.6457e+02	-7.0516	-74.261093	0.000466	4.662228	0.789803	0.000093
1656	1.6467e+02	-7.0322	-74.224759	0.000182	1.824350	0.309053	0.000037
1657	1.6477e+02	-7.0120	-74.224759	0.000000	0.000000	0.000000	0.000000
1658	1.6487e+02	-6.9925	-74.115756	0.000547	5.473051	0.927160	0.000110
1659	1.6497e+02	-6.9723	-74.059237	0.000284	2.837878	0.480750	0.000057
1660	1.6507e+02	-6.9536	-74.006754	0.000264	2.635173	0.446410	0.000053
1661	1.6517e+02	-6.9321	-73.913900	0.000466	4.662228	0.789803	0.000093
1662	1.6527e+02	-6.9119	-73.841231	0.000365	3.648701	0.618107	0.000073
1663	1.6537e+02	-6.8925	-73.837194	0.000020	0.202706	0.034339	0.000004
1664	1.6547e+02	-6.8716	-73.728191	0.000547	5.473051	0.927160	0.000110
1665	1.6557e+02	-6.8512	-73.647449	0.000405	4.054112	0.686785	0.000081
1666	1.6567e+02	-6.8324	-73.586892	0.000304	3.040584	0.515089	0.000061
1667	1.6577e+02	-6.8134	-73.514223	0.000365	3.648701	0.618107	0.000073
1668	1.6587e+02	-6.7923	-73.429443	0.000426	4.256817	0.721124	0.000085
1669	1.6597e+02	-6.7726	-73.393109	0.000182	1.824350	0.309053	0.000037
1670	1.6607e+02	-6.7530	-73.271995	0.000608	6.081168	1.030178	0.000122
1671	1.6616e+02	-6.7340	-73.263921	0.000041	0.405411	0.068679	0.000008
1672	1.6626e+02	-6.7142	-73.146844	0.000588	5.878462	0.995838	0.000118
1673	1.6636e+02	-6.6930	-73.098398	0.000243	2.432467	0.412071	0.000049
1674	1.6646e+02	-6.6743	-73.017656	0.000405	4.054112	0.686785	0.000081
1675	1.6656e+02	-6.6537	-72.916727	0.000507	5.067640	0.858481	0.000101
1676	1.6666e+02	-6.6341	-72.880393	0.000182	1.824350	0.309053	0.000037
1677	1.6676e+02	-6.6133	-72.819836	0.000304	3.040584	0.515089	0.000061
1678	1.6686e+02	-6.5938	-72.735056	0.000426	4.256817	0.721124	0.000085
1679	1.6696e+02	-6.5735	-72.658350	0.000385	3.851406	0.652446	0.000077
1680	1.6706e+02	-6.5536	-72.585682	0.000365	3.648701	0.618107	0.000073
1681	1.6716e+02	-6.5334	-72.529162	0.000284	2.837878	0.480750	0.000057
1682	1.6726e+02	-6.5137	-72.448419	0.000405	4.054112	0.686785	0.000081
1683	1.6736e+02	-6.4931	-72.343454	0.000527	5.270345	0.892821	0.000105
1684	1.6746e+02	-6.4737	-72.299045	0.000223	2.229761	0.377732	0.000045
1685	1.6756e+02	-6.4535	-72.206191	0.000466	4.662228	0.789803	0.000093
1686	1.6766e+02	-6.4337	-72.149671	0.000284	2.837878	0.480750	0.000057
1687	1.6776e+02	-6.4128	-72.089114	0.000304	3.040584	0.515089	0.000061
1688	1.6786e+02	-6.3940	-72.036632	0.000264	2.635173	0.446410	0.000053
1689	1.6796e+02	-6.3745	-71.919555	0.000588	5.878462	0.995838	0.000118
1690	1.6806e+02	-6.3550	-71.867072	0.000264	2.635173	0.446410	0.000053
1691	1.6816e+02	-6.3351	-71.770181	0.000486	4.864934	0.824142	0.000097
1692	1.6825e+02	-6.3144	-71.749995	0.000101	1.013528	0.171696	0.000020
1693	1.6835e+02	-6.2954	-71.665215	0.000426	4.256817	0.721124	0.000085
1694	1.6845e+02	-6.2743	-71.592547	0.000365	3.648701	0.618107	0.000073
1695	1.6855e+02	-6.2552	-71.499692	0.000466	4.662228	0.789803	0.000093
1696	1.6865e+02	-6.2347	-71.422987	0.000385	3.851406	0.652446	0.000077
1697	1.6875e+02	-6.2154	-71.326096	0.000486	4.864934	0.824142	0.000097
1698	1.6885e+02	-6.1949	-71.313984	0.000061	0.608117	0.103018	0.000012
1699	1.6895e+02	-6.1746	-71.200944	0.000568	5.675756	0.961499	0.000114
1700	1.6905e+02	-6.1551	-71.164610	0.000182	1.824350	0.309053	0.000037
1701	1.6915e+02	-6.1357	-71.071756	0.000466	4.662228	0.789803	0.000093
1702	1.6925e+02	-6.1162	-70.958716	0.000568	5.675756	0.961499	0.000114
1703	1.6935e+02	-6.0956	-70.890085	0.000345	3.445995	0.583767	0.000069
1704	1.6945e+02	-6.0756	-70.857788	0.000162	1.621645	0.274714	0.000032
1705	1.6955e+02	-6.0550	-70.740711	0.000588	5.878462	0.995838	0.000118
1706	1.6965e+02	-6.0357	-70.684191	0.000284	2.837878	0.480750	0.000057
1707	1.6975e+02	-6.0158	-70.627671	0.000284	2.837878	0.480750	0.000057
1708	1.6985e+02	-5.9953	-70.563077	0.000324	3.243289	0.549428	0.000065
1709	1.6995e+02	-5.9753	-70.450037	0.000568	5.675756	0.961499	0.000114
1710	1.7005e+02	-5.9560	-70.393517	0.000284	2.837878	0.480750	0.000057
1711	1.7015e+02	-5.9364	-70.304700	0.000446	4.459523	0.755464	0.000089
1712	1.7024e+02	-5.9161	-70.191661	0.000568	5.675756	0.961499	0.000114
1713	1.7034e+02	-5.8957	-70.131103	0.000304	3.040584	0.515089	0.000061
1714	1.7044e+02	-5.8764	-70.050361	0.000405	4.054112	0.686785	0.000081
1715	1.7054e+02	-5.8571	-69.973655	0.000385	3.851406	0.652446	0.000077
1716	1.7064e+02	-5.8363	-69.933284	0.000203	2.027056	0.343393	0.000041
1717	1.7074e+02	-5.8165	-69.832355	0.000507	5.067640	0.858481	0.000101
1718	1.7084e+02	-5.7964	-69.755650	0.000385	3.851406	0.652446	0.000077
1719	1.7094e+02	-5.7768	-69.687019	0.000345	3.445995	0.583767	0.000069
1720	1.7104e+02	-5.7556	-69.606276	0.000405	4.054112	0.686785	0.000081
1721	1.7114e+02	-5.7370	-69.529570	0.000385	3.851406	0.652446	0.000077
1722	1.7124e+02	-5.7167	-69.456902	0.000365	3.648701	0.618107	0.000073
1723	1.7134e+02	-5.6967	-69.347899	0.000547	5.473051	0.927160	0.000110
1724	1.7144e+02	-5.6773	-69.319639	0.000142	1.418939	0.240375	0.000028
1725	1.7154e+02	-5.6566	-69.263119	0.000284	2.837878	0.480750	0.000057
1726	1.7164e+02	-5.6377	-69.105671	0.000791	7.905518	1.339231	0.000158
1727	1.7174e+02	-5.6169	-69.061263	0.000223	2.229761	0.377732	0.000045
1728	1.7184e+02	-5.5978	-68.996668	0.000324	3.243289	0.549428	0.000065
1729	1.7194e+02	-5.5777	-68.875554	0.000608	6.081168	1.030178	0.000122
1730	1.7204e+02	-5.5565	-68.839220	0.000182	1.824350	0.309053	0.000037
1731	1.7213e+02	-5.5374	-68.758477	0.000405	4.054112	0.686785	0.000081
1732	1.7223e+02	-5.5164	-68.637363	0.000608	6.081168	1.030178	0.000122
1733	1.7233e+02	-5.4979	-68.572769	0.000324	3.243289	0.549428	0.000065
1734	1.7243e+02	-5.4779	-68.459729	0.000568	5.675756	0.961499	0.000114
1735	1.7253e+02	-5.4581	-68.419358	0.000203	2.027056	0.343393	0.000041
1736	1.7263e+02	-5.4382	-68.330541	0.000446	4.459523	0.755464	0.000089
1737	1.7273e+02	-5.4173	-68.245761	0.000426	4.256817	0.721124	0.000085
1738	1.7283e+02	-5.3983	-68.165018	0.000405	4.054112	0.686785	0.000081
1739	1.7293e+02	-5.3780	-68.092350	0.000365	3.648701	0.618107	0.000073
1740	1.7303e+02	-5.3584	-67.991422	0.000507	5.067640	0.858481	0.000101
1741	1.7313e+02	-5.3386	-67.942976	0.000243	2.432467	0.412071	0.000049
1742	1.7323e+02	-5.3188	-67.870307	0.000365	3.648701	0.618107	0.000073
1743	1.7333e+02	-5.2994	-67.749193	0.000608	6.081168	1.030178	0.000122
1744	1.7343e+02	-5.2786	-67.644228	0.000527	5.270345	0.892821	0.000105
1745	1.7353e+02	-5.2586	-67.607894	0.000182	1.824350	0.309053	0.000037
1746	1.7363e+02	-5.2390	-67.502928	0.000527	5.270345	0.892821	0.000105
1747	1.7373e+02	-5.2191	-67.406037	0.000486	4.864934	0.824142	0.000097
1748	1.7383e+02	-5.1993	-67.361628	0.000223	2.229761	0.377732	0.000045
1749	1.7393e+02	-5.1784	-67.292997	0.000345	3.445995	0.583767	0.000069
1750	1.7403e+02	-5.1593	-67.188032	0.000527	5.270345	0.892821	0.000105
1751	1.7413e+02	-5.1392	-67.099215	0.000446	4.459523	0.755464	0.000089
1752	1.7422e+02	-5.1193	-66.982138	0.000588	5.878462	0.995838	0.000118
1753	1.7432e+02	-5.1001	-66.949841	0.000162	1.621645	0.274714	0.000032
1754	1.7442e+02	-5.0793	-66.873135	0.000385	3.851406	0.652446	0.000077
1755	1.7452e+02	-5.0589	-66.784318	0.000446	4.459523	0.755464	0.000089
1756	1.7462e+02	-5.0394	-66.727798	0.000284	2.837878	0.480750	0.000057
1757	1.7472e+02	-5.0195	-66.618795	0.000547	5.473051	0.927160	0.000110
1758	1.7482e+02	-4.9997	-66.505756	0.000568	5.675756	0.961499	0.000114
1759	1.7492e+02	-4.9785	-66.473458	0.000162	1.621645	0.274714	0.000032
1760	1.7502e+02	-4.9596	-66.364456	0.000547	5.473051	0.927160	0.000110
1761	1.7512e+02	-4.9406	-66.283713	0.000405	4.054112	0.686785	0.000081
1762	1.7522e+02	-4.9197	-66.174710	0.000547	5.473051	0.927160	0.000110
1763	1.7532e+02	-4.8999	-66.114153	0.000304	3.040584	0.515089	0.000061
1764	1.7542e+02	-4.8803	-66.033411	0.000405	4.054112	0.686785	0.000081
1765	1.7552e+02	-4.8602	-65.928445	0.000527	5.270345	0.892821	0.000105
1766	1.7562e+02	-4.8401	-65.859814	0.000345	3.445995	0.583767	0.000069
1767	1.7572e+02	-4.8208	-65.775034	0.000426	4.256817	0.721124	0.000085
1768	1.7582e+02	-4.8000	-65.666031	0.000547	5.473051	0.927160	0.000110
1769	1.7592e+02	-4.7803	-65.581251	0.000426	4.256817	0.721124	0.000085
1770	1.7602e+02	-4.7610	-65.504546	0.000385	3.851406	0.652446	0.000077
1771	1.7612e+02	-4.7402	-65.419766	0.000426	4.256817	0.721124	0.000085
1772	1.7621e+02	-4.7215	-65.343060	0.000385	3.851406	0.652446	0.000077
1773	1.7631e+02	-4.7006	-65.242132	0.000507	5.067640	0.858481	0.000101
1774	1.7641e+02	-4.6805	-65.133129	0.000547	5.473051	0.927160	0.000110
1775	1.7651e+02	-4.6603	-65.056424	0.000385	3.851406	0.652446	0.000077
1776	1.7661e+02	-4.6411	-64.975681	0.000405	4.054112	0.686785	0.000081
1777	1.7671e+02	-4.6211	-64.903013	0.000365	3.648701	0.618107	0.000073
1778	1.7681e+02	-4.6011	-64.753639	0.000750	7.500107	1.270552	0.000150
1779	1.7691e+02	-4.5824	-64.652710	0.000507	5.067640	0.858481	0.000101
1780	1.7701e+02	-4.5616	-64.612339	0.000203	2.027056	0.343393	0.000041
1781	1.7711e+02	-4.5412	-64.483151	0.000649	6.486579	1.098856	0.000130
1782	1.7721e+02	-4.5215	-64.426631	0.000284	2.837878	0.480750	0.000057
1783	1.7731e+02	-4.5015	-64.313591	0.000568	5.675756	0.961499	0.000114
1784	1.7741e+02	-4.4806	-64.220737	0.000466	4.662228	0.789803	0.000093
1785	1.7751e+02	-4.4620	-64.180365	0.000203	2.027056	0.343393	0.000041
1786	1.7761e+02	-4.4421	-64.051177	0.000649	6.486579	1.098856	0.000130
1787	1.7771e+02	-4.4214	-63.962360	0.000446	4.459523	0.755464	0.000089
1788	1.7781e+02	-4.4028	-63.877580	0.000426	4.256817	0.721124	0.000085
1789	1.7791e+02	-4.3811	-63.764540	0.000568	5.675756	0.961499	0.000114
1790	1.7801e+02	-4.3619	-63.639389	0.000628	6.283873	1.064517	0.000126
1791	1.7810e+02	-4.3422	-63.522312	0.000588	5.878462	0.995838	0.000118
1792	1.7820e+02	-4.3221	-63.457718	0.000324	3.243289	0.549428	0.000065
1793	1.7830e+02	-4.3018	-63.348715	0.000547	5.473051	0.927160	0.000110
1794	1.7840e+02	-4.2831	-63.243750	0.000527	5.270345	0.892821	0.000105
1795	1.7850e+02	-4.2623	-63.163007	0.000405	4.054112	0.686785	0.000081
1796	1.7860e+02	-4.2433	-63.090339	0.000365	3.648701	0.618107	0.000073
1797	1.7870e+02	-4.2226	-63.025745	0.000324	3.243289	0.549428	0.000065
1798	1.7880e+02	-4.2025	-62.920779	0.000527	5.270345	0.892821	0.000105
1799	1.7890e+02	-4.1821	-62.815814	0.000527	5.270345	0.892821	0.000105
1800	1.7900e+02	-4.1626	-62.694699	0.000608	6.081168	1.030178	0.000122
1801	1.7910e+02	-4.1434	-62.585697	0.000547	5.473051	0.927160	0.000110
1802	1.7920e+02	-4.1230	-62.480731	0.000527	5.270345	0.892821	0.000105
1803	1.7930e+02	-4.1034	-62.424211	0.000284	2.837878	0.480750	0.000057
1804	1.7940e+02	-4.0836	-62.278874	0.000730	7.297401	1.236213	0.000146
1805	1.7950e+02	-4.0624	-62.222355	0.000284	2.837878	0.480750	0.000057
1806	1.7960e+02	-4.0431	-62.113352	0.000547	5.473051	0.927160	0.000110
1807	1.7970e+02	-4.0235	-62.012424	0.000507	5.067640	0.858481	0.000101
1808	1.7980e+02	-4.0027	-61.867087	0.000730	7.297401	1.236213	0.000146
1809	1.7990e+02	-3.9832	-61.814604	0.000264	2.635173	0.446410	0.000053
1810	1.8000e+02	-3.9636	-61.713675	0.000507	5.067640	0.858481	0.000101
1811	1.8009e+02	-3.9434	-61.616784	0.000486	4.864934	0.824142	0.000097
1812	1.8019e+02	-3.9203	-61.495670	0.000608	6.081168	1.030178	0.000122
1813	1.8029e+02	-3.9038	-61.414927	0.000405	4.054112	0.686785	0.000081
1814	1.8039e+02	-3.8844	-61.313999	0.000507	5.067640	0.858481	0.000101
1815	1.8049e+02	-3.8641	-61.213071	0.000507	5.067640	0.858481	0.000101
1816	1.8059e+02	-3.8443	-61.063697	0.000750	7.500107	1.270552	0.000150
1817	1.8069e+02	-3.8239	-61.035437	0.000142	1.418939	0.240375	0.000028
1818	1.8079e+02	-3.8040	-60.894137	0.000709	7.094695	1.201874	0.000142
1819	1.8089e+02	-3.7833	-60.789171	0.000527	5.270345	0.892821	0.000105
1820	1.8099e+02	-3.7646	-60.704392	0.000426	4.256817	0.721124	0.000085
1821	1.8109e+02	-3.7451	-60.607500	0.000486	4.864934	0.824142	0.000097
1822	1.8119e+02	-3.7252	-60.510609	0.000486	4.864934	0.824142	0.000097
1823	1.8129e+02	-3.7047	-60.397569	0.000568	5.675756	0.961499	0.000114
1824	1.8139e+02	-3.6847	-60.308752	0.000446	4.459523	0.755464	0.000089
1825	1.8149e+02	-3.6642	-60.179564	0.000649	6.486579	1.098856	0.000130
1826	1.8159e+02	-3.6452	-60.070561	0.000547	5.473051	0.927160	0.000110
1827	1.8169e+02	-3.6255	-59.949447	0.000608	6.081168	1.030178	0.000122
1828	1.8179e+02	-3.6055	-59.913113	0.000182	1.824350	0.309053	0.000037
1829	1.8189e+02	-3.5849	-59.771813	0.000709	7.094695	1.201874	0.000142
1830	1.8199e+02	-3.5657	-59.662811	0.000547	5.473051	0.927160	0.000110
1831	1.8209e+02	-3.5455	-59.549771	0.000568	5.675756	0.961499	0.000114
1832	1.8218e+02	-3.5249	-59.452879	0.000486	4.864934	0.824142	0.000097
1833	1.8228e+02	-3.5051	-59.335803	0.000588	5.878462	0.995838	0.000118
1834	1.8238e+02	-3.4859	-59.222763	0.000568	5.675756	0.961499	0.000114
1835	1.8248e+02	-3.4657	-59.121834	0.000507	5.067640	0.858481	0.000101
1836	1.8258e+02	-3.4461	-59.028980	0.000466	4.662228	0.789803	0.000093
1837	1.8268e+02	-3.4252	-58.915940	0.000568	5.675756	0.961499	0.000114
1838	1.8278e+02	-3.4064	-58.823086	0.000466	4.662228	0.789803	0.000093
1839	1.8288e+02	-3.3854	-58.706009	0.000588	5.878462	0.995838	0.000118
1840	1.8298e+02	-3.3659	-58.601044	0.000527	5.270345	0.892821	0.000105
1841	1.8308e+02	-3.3461	-58.479930	0.000608	6.081168	1.030178	0.000122
1842	1.8318e+02	-3.3275	-58.383038	0.000486	4.864934	0.824142	0.000097
1843	1.8328e+02	-3.3066	-58.257887	0.000628	6.283873	1.064517	0.000126
1844	1.8338e+02	-3.2861	-58.132736	0.000628	6.283873	1.064517	0.000126
1845	1.8348e+02	-3.2661	-58.011622	0.000608	6.081168	1.030178	0.000122
1846	1.8358e+02	-3.2465	-57.934916	0.000385	3.851406	0.652446	0.000077
1847	1.8368e+02	-3.2267	-57.829951	0.000527	5.270345	0.892821	0.000105
1848	1.8378e+02	-3.2058	-57.692688	0.000689	6.891990	1.167535	0.000138
1849	1.8388e+02	-3.1856	-57.575611	0.000588	5.878462	0.995838	0.000118
1850	1.8398e+02	-3.1664	-57.490831	0.000426	4.256817	0.721124	0.000085
1851	1.8407e+02	-3.1471	-57.410089	0.000405	4.054112	0.686785	0.000081
1852	1.8417e+02	-3.1272	-57.276863	0.000669	6.689284	1.133195	0.000134
1853	1.8427e+02	-3.1075	-57.196121	0.000405	4.054112	0.686785	0.000081
1854	1.8437e+02	-3.0871	-57.066932	0.000649	6.486579	1.098856	0.000130
1855	1.8447e+02	-3.0668	-56.982152	0.000426	4.256817	0.721124	0.000085
1856	1.8457e+02	-3.0469	-56.848927	0.000669	6.689284	1.133195	0.000134
1857	1.8467e+02	-3.0265	-56.752036	0.000486	4.864934	0.824142	0.000097
1858	1.8477e+02	-3.0075	-56.638996	0.000568	5.675756	0.961499	0.000114
1859	1.8487e+02	-2.9874	-56.501733	0.000689	6.891990	1.167535	0.000138
1860	1.8497e+02	-2.9679	-56.384656	0.000588	5.878462	0.995838	0.000118
1861	1.8507e+02	-2.9475	-56.320062	0.000324	3.243289	0.549428	0.000065
1862	1.8517e+02	-2.9272	-56.182799	0.000689	6.891990	1.167535	0.000138
1863	1.8527e+02	-2.9082	-56.085908	0.000486	4.864934	0.824142	0.000097
1864	1.8537e+02	-2.8875	-55.997091	0.000446	4.459523	0.755464	0.000089
1865	1.8547e+02	-2.8686	-55.863866	0.000669	6.689284	1.133195	0.000134
1866	1.8557e+02	-2.8481	-55.783123	0.000405	4.054112	0.686785	0.000081
1867	1.8567e+02	-2.8281	-55.649898	0.000669	6.689284	1.133195	0.000134
1868	1.8577e+02	-2.8087	-55.565118	0.000426	4.256817	0.721124	0.000085
1869	1.8587e+02	-2.7871	-55.480338	0.000426	4.256817	0.721124	0.000085
1870	1.8597e+02	-2.7687	-55.318852	0.000811	8.108223	1.373570	0.000162
1871	1.8606e+02	-2.7485	-55.209850	0.000547	5.473051	0.927160	0.000110
1872	1.8616e+02	-2.7284	-55.121033	0.000446	4.459523	0.755464	0.000089
1873	1.8626e+02	-2.7084	-54.979733	0.000709	7.094695	1.201874	0.000142
1874	1.8636e+02	-2.6883	-54.903027	0.000385	3.851406	0.652446	0.000077
1875	1.8646e+02	-2.6680	-54.806136	0.000486	4.864934	0.824142	0.000097
1876	1.8656e+02	-2.6485	-54.689059	0.000588	5.878462	0.995838	0.000118
1877	1.8666e+02	-2.6283	-54.580057	0.000547	5.473051	0.927160	0.000110
1878	1.8676e+02	-2.6088	-54.475091	0.000527	5.270345	0.892821	0.000105
1879	1.8686e+02	-2.5888	-54.349940	0.000628	6.283873	1.064517	0.000126
1880	1.8696e+02	-2.5689	-54.240937	0.000547	5.473051	0.927160	0.000110
1881	1.8706e+02	-2.5494	-54.123860	0.000588	5.878462	0.995838	0.000118
1882	1.8716e+02	-2.5297	-54.043118	0.000405	4.054112	0.686785	0.000081
1883	1.8726e+02	-2.5106	-53.901818	0.000709	7.094695	1.201874	0.000142
1884	1.8736e+02	-2.4893	-53.772629	0.000649	6.486579	1.098856	0.000130
1885	1.8746e+02	-2.4693	-53.667664	0.000527	5.270345	0.892821	0.000105
1886	1.8756e+02	-2.4504	-53.611144	0.000284	2.837878	0.480750	0.000057
1887	1.8766e+02	-2.4307	-53.481956	0.000649	6.486579	1.098856	0.000130
1888	1.8776e+02	-2.4104	-53.332582	0.000750	7.500107	1.270552	0.000150
1889	1.8786e+02	-2.3900	-53.247802	0.000426	4.256817	0.721124	0.000085
1890	1.8796e+02	-2.3701	-53.179171	0.000345	3.445995	0.583767	0.000069
1891	1.8806e+02	-2.3502	-53.037871	0.000709	7.094695	1.201874	0.000142
1892	1.8815e+02	-2.3308	-52.908682	0.000649	6.486579	1.098856	0.000130
1893	1.8825e+02	-2.3094	-52.791605	0.000588	5.878462	0.995838	0.000118
1894	1.8835e+02	-2.2908	-52.718937	0.000365	3.648701	0.618107	0.000073
1895	1.8845e+02	-2.2699	-52.605897	0.000568	5.675756	0.961499	0.000114
1896	1.8855e+02	-2.2510	-52.468635	0.000689	6.891990	1.167535	0.000138
1897	1.8865e+02	-2.2299	-52.395966	0.000365	3.648701	0.618107	0.000073
1898	1.8875e+02	-2.2106	-52.246592	0.000750	7.500107	1.270552	0.000150
1899	1.8885e+02	-2.1913	-52.097218	0.000750	7.500107	1.270552	0.000150
1900	1.8895e+02	-2.1702	-52.004364	0.000466	4.662228	0.789803	0.000093
1901	1.8905e+02	-2.1504	-51.935733	0.000345	3.445995	0.583767	0.000069
1902	1.8915e+02	-2.1310	-51.774247	0.000811	8.108223	1.373570	0.000162
1903	1.8925e+02	-2.1110	-51.681393	0.000466	4.662228	0.789803	0.000093
1904	1.8935e+02	-2.0910	-51.556242	0.000628	6.283873	1.064517	0.000126
1905	1.8945e+02	-2.0709	-51.491648	0.000324	3.243289	0.549428	0.000065
1906	1.8955e+02	-2.0518	-51.326125	0.000831	8.310929	1.407909	0.000166
1907	1.8965e+02	-2.0306	-51.217123	0.000547	5.473051	0.927160	0.000110
1908	1.8975e+02	-2.0107	-51.091971	0.000628	6.283873	1.064517	0.000126
1909	1.8985e+02	-1.9912	-51.011229	0.000405	4.054112	0.686785	0.000081
1910	1.8995e+02	-1.9721	-50.882040	0.000649	6.486579	1.098856	0.000130
1911	1.9004e+02	-1.9521	-50.769000	0.000568	5.675756	0.961499	0.000114
1912	1.9014e+02	-1.9313	-50.655961	0.000568	5.675756	0.961499	0.000114
1913	1.9024e+02	-1.9115	-50.538884	0.000588	5.878462	0.995838	0.000118
1914	1.9034e+02	-1.8915	-50.441992	0.000486	4.864934	0.824142	0.000097
1915	1.9044e+02	-1.8719	-50.357213	0.000426	4.256817	0.721124	0.000085
1916	1.9054e+02	-1.8514	-50.244173	0.000568	5.675756	0.961499	0.000114
1917	1.9064e+02	-1.8317	-50.114984	0.000649	6.486579	1.098856	0.000130
1918	1.9074e+02	-1.8137	-49.997908	0.000588	5.878462	0.995838	0.000118
1919	1.9084e+02	-1.7924	-49.880831	0.000588	5.878462	0.995838	0.000118
1920	1.9094e+02	-1.7720	-49.775865	0.000527	5.270345	0.892821	0.000105
1921	1.9104e+02	-1.7529	-49.658788	0.000588	5.878462	0.995838	0.000118
1922	1.9114e+02	-1.7327	-49.541711	0.000588	5.878462	0.995838	0.000118
1923	1.9124e+02	-1.7126	-49.440783	0.000507	5.067640	0.858481	0.000101
1924	1.9134e+02	-1.6924	-49.291409	0.000750	7.500107	1.270552	0.000150
1925	1.9144e+02	-1.6718	-49.230852	0.000304	3.040584	0.515089	0.000061
1926	1.9154e+02	-1.6521	-49.133960	0.000486	4.864934	0.824142	0.000097
1927	1.9164e+02	-1.6333	-49.041106	0.000466	4.662228	0.789803	0.000093
1928	1.9174e+02	-1.6129	-48.879621	0.000811	8.108223	1.373570	0.000162
1929	1.9184e+02	-1.5928	-48.742358	0.000689	6.891990	1.167535	0.000138
1930	1.9194e+02	-1.5736	-48.673727	0.000345	3.445995	0.583767	0.000069
1931	1.9203e+02	-1.5531	-48.564724	0.000547	5.473051	0.927160	0.000110
1932	1.9213e+02	-1.5330	-48.411313	0.000770	7.702812	1.304892	0.000154
1933	1.9223e+02	-1.5128	-48.314422	0.000486	4.864934	0.824142	0.000097
1934	1.9233e+02	-1.4932	-48.193308	0.000608	6.081168	1.030178	0.000122
1935	1.9243e+02	-1.4729	-48.047971	0.000730	7.297401	1.236213	0.000146
1936	1.9253e+02	-1.4534	-47.951080	0.000486	4.864934	0.824142	0.000097
1937	1.9263e+02	-1.4333	-47.838040	0.000568	5.675756	0.961499	0.000114
1938	1.9273e+02	-1.4124	-47.704814	0.000669	6.689284	1.133195	0.000134
1939	1.9283e+02	-1.3926	-47.595812	0.000547	5.473051	0.927160	0.000110
1940	1.9293e+02	-1.3732	-47.498921	0.000486	4.864934	0.824142	0.000097
1941	1.9303e+02	-1.3544	-47.369732	0.000649	6.486579	1.098856	0.000130
1942	1.9313e+02	-1.3339	-47.244581	0.000628	6.283873	1.064517	0.000126
1943	1.9323e+02	-1.3141	-47.115393	0.000649	6.486579	1.098856	0.000130
1944	1.9333e+02	-1.2939	-47.006390	0.000547	5.473051	0.927160	0.000110
1945	1.9343e+02	-1.2733	-46.869127	0.000689	6.891990	1.167535	0.000138
1946	1.9353e+02	-1.2534	-46.764162	0.000527	5.270345	0.892821	0.000105
1947	1.9363e+02	-1.2343	-46.630936	0.000669	6.689284	1.133195	0.000134
1948	1.9373e+02	-1.2142	-46.509822	0.000608	6.081168	1.030178	0.000122
1949	1.9383e+02	-1.1946	-46.400820	0.000547	5.473051	0.927160	0.000110
1950	1.9393e+02	-1.1749	-46.239334	0.000811	8.108223	1.373570	0.000162
1951	1.9403e+02	-1.1554	-46.203000	0.000182	1.824350	0.309053	0.000037
1952	1.9412e+02	-1.1359	-46.061700	0.000709	7.094695	1.201874	0.000142
1953	1.9422e+02	-1.1142	-45.936549	0.000628	6.283873	1.064517	0.000126
1954	1.9432e+02	-1.0951	-45.815435	0.000608	6.081168	1.030178	0.000122
1955	1.9442e+02	-1.0745	-45.666061	0.000750	7.500107	1.270552	0.000150
1956	1.9452e+02	-1.0559	-45.540910	0.000628	6.283873	1.064517	0.000126
1957	1.9462e+02	-1.0345	-45.431907	0.000547	5.473051	0.927160	0.000110
1958	1.9472e+02	-1.0159	-45.343090	0.000446	4.459523	0.755464	0.000089
1959	1.9482e+02	-0.9952	-45.181605	0.000811	8.108223	1.373570	0.000162
1960	1.9492e+02	-0.9757	-45.068565	0.000568	5.675756	0.961499	0.000114
1961	1.9502e+02	-0.9558	-44.919191	0.000750	7.500107	1.270552	0.000150
1962	1.9512e+02	-0.9362	-44.785965	0.000669	6.689284	1.133195	0.000134
1963	1.9522e+02	-0.9158	-44.737520	0.000243	2.432467	0.412071	0.000049
1964	1.9532e+02	-0.8951	-44.576034	0.000811	8.108223	1.373570	0.000162
1965	1.9542e+02	-0.8756	-44.458957	0.000588	5.878462	0.995838	0.000118
1966	1.9552e+02	-0.8560	-44.305546	0.000770	7.702812	1.304892	0.000154
1967	1.9562e+02	-0.8347	-44.216729	0.000446	4.459523	0.755464	0.000089
1968	1.9572e+02	-0.8164	-44.075429	0.000709	7.094695	1.201874	0.000142
1969	1.9582e+02	-0.7964	-43.966427	0.000547	5.473051	0.927160	0.000110
1970	1.9592e+02	-0.7768	-43.808978	0.000791	7.905518	1.339231	0.000158
1971	1.9601e+02	-0.7558	-43.732273	0.000385	3.851406	0.652446	0.000077
1972	1.9611e+02	-0.7358	-43.550602	0.000912	9.121751	1.545266	0.000183
1973	1.9621e+02	-0.7153	-43.457748	0.000466	4.662228	0.789803	0.000093
1974	1.9631e+02	-0.6960	-43.368931	0.000446	4.459523	0.755464	0.000089
1975	1.9641e+02	-0.6770	-43.207445	0.000811	8.108223	1.373570	0.000162
1976	1.9651e+02	-0.6569	-43.074220	0.000669	6.689284	1.133195	0.000134
1977	1.9661e+02	-0.6362	-42.953106	0.000608	6.081168	1.030178	0.000122
1978	1.9671e+02	-0.6168	-42.803732	0.000750	7.500107	1.270552	0.000150
1979	1.9681e+02	-0.5969	-42.714915	0.000446	4.459523	0.755464	0.000089
1980	1.9691e+02	-0.5772	-42.553429	0.000811	8.108223	1.373570	0.000162
1981	1.9701e+02	-0.5567	-42.424241	0.000649	6.486579	1.098856	0.000130
1982	1.9711e+02	-0.5364	-42.347535	0.000385	3.851406	0.652446	0.000077
1983	1.9721e+02	-0.5175	-42.214310	0.000669	6.689284	1.133195	0.000134
1984	1.9731e+02	-0.4978	-42.105307	0.000547	5.473051	0.927160	0.000110
1985	1.9741e+02	-0.4762	-41.947859	0.000791	7.905518	1.339231	0.000158
1986	1.9751e+02	-0.4575	-41.810596	0.000689	6.891990	1.167535	0.000138
1987	1.9761e+02	-0.4374	-41.689482	0.000608	6.081168	1.030178	0.000122
1988	1.9771e+02	-0.4169	-41.560294	0.000649	6.486579	1.098856	0.000130
1989	1.9781e+02	-0.3976	-41.447254	0.000568	5.675756	0.961499	0.000114
1990	1.9791e+02	-0.3775	-41.277694	0.000851	8.513635	1.442249	0.000170
1991	1.9800e+02	-0.3573	-41.168692	0.000547	5.473051	0.927160	0.000110
1992	1.9810e+02	-0.3379	-41.083912	0.000426	4.256817	0.721124	0.000085
1993	1.9820e+02	-0.3182	-40.926464	0.000791	7.905518	1.339231	0.000158
1994	1.9830e+02	-0.2978	-40.801312	0.000628	6.283873	1.064517	0.000126
1995	1.9840e+02	-0.2777	-40.692310	0.000547	5.473051	0.927160	0.000110
1996	1.9850e+02	-0.2583	-40.555047	0.000689	6.891990	1.167535	0.000138
1997	1.9860e+02	-0.2385	-40.437970	0.000588	5.878462	0.995838	0.000118
1998	1.9870e+02	-0.2171	-40.312819	0.000628	6.283873	1.064517	0.000126
1999	1.9880e+02	-0.1988	-40.171519	0.000709	7.094695	1.201874	0.000142
2000	1.9890e+02	-0.1781	-40.078665	0.000466	4.662228	0.789803	0.000093
2001	1.9900e+02	-0.1579	-39.884883	0.000973	9.729868	1.648284	0.000195
2002	1.9910e+02	-0.1382	-39.800103	0.000426	4.256817	0.721124	0.000085
2003	1.9920e+02	-0.1189	-39.666877	0.000669	6.689284	1.133195	0.000134
2004	1.9930e+02	-0.0990	-39.529615	0.000689	6.891990	1.167535	0.000138
2005	1.9940e+02	-0.0774	-39.380241	0.000750	7.500107	1.270552	0.000150
2006	1.9950e+02	-0.0585	-39.295461	0.000426	4.256817	0.721124	0.000085
2007	1.9960e+02	-0.0394	-39.129938	0.000831	8.310929	1.407909	0.000166
2008	1.9970e+02	-0.0195	-39.008824	0.000608	6.081168	1.030178	0.000122
2009	1.9980e+02	0.0000	-38.928081	0.000608	6.081168	1.030178	0.000081

PMax (uC/cm2):	5.11e+01
Pr (uC/cm2):	4.79e+00
-Pr (uC/cm2):	-6.46e+01
PLoss (uC/cm2):	-6.47e+01
-Vc:	-7.77e-01
C (Max-Eff) (nF):	5.11e-01
K (Eff):	8.66e+02
Vert. (+/-Pr) Shift (uC/cm2):	-2.99e+01
Offset (uC/cm2):	-2.57e+01

A (Loop Area - uC/cm2·Volts):	-4.75e-01



Hysteresis Version: 5.48.1 - Radiant Technologies, Inc., 1999 - 9/12/24

