»»»»»»»»»»»»»»»»»»»»»»»»»»»»»»»»»»»» Hysteresis ««««««««««««««««««««««««««««««««««««
»»»  Executed Version:	5.48.1
»»»  Vision Version:	5.48.4 (R)
»»»  Vision Compiled:	9/18/24
»»»  Driver Version:	5.47.0
»»»  Windows Version:	Windows 8 or 8.1
»»»  Processor Information:	x86 (AMD or Intel) - 32 Processors
»»»  Tester Name:	PMF21124-494 (100V)
»»»  Tester S/N:	PMF21124-494
»»»  Internal Amp Type:	100V RevK 270k
»»»  Internal Amp S/N:	iAB2-596/K     
»»»  Execution Count:	1
»»»»»»»»»»»»»»»»»»»»»»»»»»»»»»»»»»»»»»»»»»««««««««««««««««««««««««««««««««««««««««««

Stored:	7/3/2025 - 14:10:57
Configured:	07/03/25 12:01:19 PM
Executed:	07/03/25 02:09:40 PM

»»»»»»»»»»»»»»»»»»»»»»»»»»»»»»»»»»» Sample Info ««««««««««««««««««««««««««««««««««««
Sample Name:	
Lot Name:	
Wafer Name:	
Die Row/Column:	0/0
Capacitor Number:	0
Sample Area (cm2):	1.00e-04
Sample Thickness (microns):	1.50e-01

Amplifier:	Internal

»»»»»»»»»»»»»»»»»»»»»»»»»»»»»»»»»»» Tester Info «««««««««««««««««««««««««««««««««««
Tester Name:	PMF21124-494 (100V)
Tester Serial Number:	PMF21124-494
Return Signal Amp. Level:	0.2 [Index: 1]

»»»»»»»»»»»»»»»»»»»»»»»»»»»»»»»» Hysteresis Info ««««««««««««««««««««««««««««««««««
Task Name:	Hyst-410
Volts:	10.00
Field:	666.67 (kV/cm)
DCBias:	0.00
DCField:	0.00 (kV/cm)
Hysteresis Period (ms):	1.00e-02
Preset:	Enabled
Preset Delay (ms):	1.00e+03
Profile:	Standard Bipolar

»»»»»»»»»»»»»»»»»»»»»»»»»»»»»»»»»»»»»» Data «««««««««««««««««««««««««««««««««««««««
Points:	101

Valid Data

Point	Time (ms)	Drive Voltage	Measured Polarization (uC/cm2)	Capacitance (uF)	Normalized Capacitance (uF/cm2)	Dielectric Constant	Instantaneous Current (mA)
   1	0.0000e+00	0.2982	1.459984	0.000489	4.891303	0.828609	1.915091
   2	1.0000e-04	0.6864	3.375075	0.000489	4.891303	0.828609	1.915091
   3	2.0000e-04	1.0363	7.190694	0.000975	9.745410	1.650917	3.815619
   4	3.0000e-04	1.4867	10.227169	0.000776	7.755412	1.313802	3.036475
   5	4.0000e-04	1.9052	11.741766	0.000387	3.868407	0.655326	1.514597
   6	5.0000e-04	2.2913	13.241799	0.000383	3.831211	0.649025	1.500033
   7	6.0000e-04	2.6786	14.982129	0.000444	4.444948	0.752995	1.740330
   8	7.0000e-04	3.0603	17.763745	0.000710	7.104478	1.203531	2.781615
   9	8.0000e-04	3.4726	20.283218	0.000643	6.434946	1.090109	2.519474
  10	9.0000e-04	3.8931	22.187387	0.000486	4.863406	0.823883	1.904169
  11	1.0000e-03	4.2831	24.477486	0.000585	5.849106	0.990865	2.290099
  12	1.1000e-03	4.6829	26.188689	0.000437	4.370556	0.740392	1.711203
  13	1.2000e-03	5.0803	28.380486	0.000560	5.598031	0.948332	2.191796
  14	1.3000e-03	5.4770	30.488542	0.000538	5.384153	0.912100	2.108057
  15	1.4000e-03	5.8920	32.287126	0.000459	4.593733	0.778199	1.798584
  16	1.5000e-03	6.2830	34.711937	0.000619	6.193171	1.049152	2.424811
  17	1.6000e-03	6.6776	36.313915	0.000409	4.091584	0.693133	1.601977
  18	1.7000e-03	7.0834	37.992350	0.000429	4.286864	0.726215	1.678435
  19	1.8000e-03	7.4875	39.732680	0.000444	4.444948	0.752995	1.740330
  20	1.9000e-03	7.8809	41.389270	0.000423	4.231070	0.716763	1.656590
  21	2.0000e-03	8.2883	43.744905	0.000602	6.016489	1.019221	2.355635
  22	2.1000e-03	8.6789	44.990079	0.000318	3.180277	0.538753	1.245173
  23	2.2000e-03	9.0872	46.490112	0.000383	3.831211	0.649025	1.500033
  24	2.3000e-03	9.4803	47.986504	0.000382	3.821912	0.647449	1.496393
  25	2.4000e-03	9.8776	49.384594	0.000357	3.570837	0.604916	1.398089
  26	2.5000e-03	9.7043	51.547263	-0.000552	-5.523639	-0.935730	2.162669
  27	2.6000e-03	9.3301	49.279009	0.000579	5.793311	0.981414	-2.268254
  28	2.7000e-03	8.9377	45.758300	0.000899	8.992186	1.523318	-3.520709
  29	2.8000e-03	8.4842	44.560457	0.000306	3.059389	0.518275	-1.197842
  30	2.9000e-03	8.0844	44.440309	0.000031	0.306869	0.051985	-0.120148
  31	3.0000e-03	7.7170	43.661165	0.000199	1.989998	0.337115	-0.779144
  32	3.1000e-03	7.3007	40.664740	0.000765	7.653123	1.296474	-2.996426
  33	3.2000e-03	6.8906	38.727803	0.000495	4.947097	0.838061	-1.936936
  34	3.3000e-03	6.4877	37.690159	0.000265	2.650231	0.448961	-1.037644
  35	3.4000e-03	6.1026	36.324837	0.000349	3.487146	0.590738	-1.365322
  36	3.5000e-03	5.7236	34.883058	0.000368	3.682426	0.623820	-1.441780
  37	3.6000e-03	5.3140	32.396352	0.000635	6.351255	1.075932	-2.486706
  38	3.7000e-03	4.9014	30.637818	0.000449	4.491444	0.760871	-1.758534
  39	3.8000e-03	4.5035	28.922974	0.000438	4.379855	0.741968	-1.714844
  40	3.9000e-03	4.1156	26.938706	0.000507	5.067985	0.858540	-1.984267
  41	4.0000e-03	3.7102	25.387701	0.000396	3.961398	0.671079	-1.551005
  42	4.1000e-03	3.3179	22.897354	0.000636	6.360554	1.077507	-2.490347
  43	4.2000e-03	2.9031	20.847551	0.000524	5.235368	0.886895	-2.049803
  44	4.3000e-03	2.5131	18.743135	0.000537	5.374854	0.910525	-2.104416
  45	4.4000e-03	2.1231	16.474881	0.000579	5.793311	0.981414	-2.268254
  46	4.5000e-03	1.7191	14.676297	0.000459	4.593733	0.778199	-1.798584
  47	4.6000e-03	1.3138	12.164106	0.000642	6.416348	1.086959	-2.512192
  48	4.7000e-03	0.9254	9.764780	0.000613	6.128077	1.038124	-2.399325
  49	4.8000e-03	0.5183	7.416427	0.000600	5.997891	1.016070	-2.348353
  50	4.9000e-03	0.1224	5.089919	0.000594	5.942096	1.006618	-2.326508
  51	5.0000e-03	-0.2836	2.887200	0.000563	5.625928	0.953058	-2.202719
  52	5.1000e-03	-0.6715	0.338600	0.000651	6.509339	1.102712	-2.548600
  53	5.2000e-03	-1.0786	-2.100775	0.000623	6.230367	1.055453	-2.439375
  54	5.3000e-03	-1.4829	-4.409079	0.000590	5.895601	0.998742	-2.308304
  55	5.4000e-03	-1.8754	-6.830249	0.000618	6.183872	1.047576	-2.421170
  56	5.5000e-03	-2.2785	-9.145835	0.000591	5.914199	1.001892	-2.315585
  57	5.6000e-03	-2.6865	-11.435934	0.000585	5.849106	0.990865	-2.290099
  58	5.7000e-03	-3.0747	-13.696907	0.000577	5.774713	0.978263	-2.260973
  59	5.8000e-03	-3.4795	-15.910548	0.000565	5.653826	0.957784	-2.213641
  60	5.9000e-03	-3.8828	-18.084140	0.000555	5.551536	0.940456	-2.173592
  61	6.0000e-03	-4.2753	-20.388803	0.000589	5.886302	0.997167	-2.304663
  62	6.1000e-03	-4.6836	-22.300253	0.000488	4.882004	0.827034	-1.911450
  63	6.2000e-03	-5.0883	-24.299084	0.000511	5.105181	0.864841	-1.998831
  64	6.3000e-03	-5.4780	-26.286993	0.000508	5.077284	0.860115	-1.987908
  65	6.4000e-03	-5.8860	-28.267619	0.000506	5.058686	0.856965	-1.980627
  66	6.5000e-03	-6.2821	-30.543155	0.000581	5.811910	0.984564	-2.275536
  67	6.6000e-03	-6.6727	-32.392711	0.000472	4.723920	0.800254	-1.849556
  68	6.7000e-03	-7.0774	-34.351492	0.000500	5.002892	0.847513	-1.958781
  69	6.8000e-03	-7.4784	-36.368528	0.000515	5.151677	0.872718	-2.017035
  70	6.9000e-03	-7.8684	-38.403767	0.000520	5.198172	0.880594	-2.035239
  71	7.0000e-03	-8.2719	-41.025185	0.000670	6.695320	1.134218	-2.621418
  72	7.1000e-03	-8.6671	-42.667211	0.000419	4.193874	0.710461	-1.642027
  73	7.2000e-03	-9.0733	-44.593225	0.000492	4.919200	0.833335	-1.926014
  74	7.3000e-03	-9.4627	-46.672155	0.000531	5.309761	0.899498	-2.078930
  75	7.4000e-03	-9.8643	-48.743803	0.000529	5.291162	0.896347	-2.071648
  76	7.5000e-03	-9.7160	-51.547263	-0.000716	-7.160273	-1.212983	-2.803460
  77	7.6000e-03	-9.3284	-49.916159	0.000417	4.165977	0.705736	1.631104
  78	7.7000e-03	-8.9524	-46.639387	0.000837	8.369150	1.417772	3.276772
  79	7.8000e-03	-8.4971	-45.303192	0.000341	3.412753	0.578136	1.336195
  80	7.9000e-03	-8.0878	-45.197607	0.000027	0.269673	0.045684	0.105585
  81	8.0000e-03	-7.7195	-44.778909	0.000107	1.069391	0.181160	0.418699
  82	8.1000e-03	-7.3258	-41.716947	0.000782	7.820506	1.324829	3.061961
  83	8.2000e-03	-6.9090	-40.002104	0.000438	4.379855	0.741968	1.714844
  84	8.3000e-03	-6.5043	-39.011790	0.000253	2.529343	0.428482	0.990313
  85	8.4000e-03	-6.1234	-37.555447	0.000372	3.719622	0.630121	1.456343
  86	8.5000e-03	-5.7310	-36.517803	0.000265	2.650231	0.448961	1.037644
  87	8.6000e-03	-5.3172	-33.965561	0.000652	6.518638	1.104287	2.552241
  88	8.7000e-03	-4.9091	-32.330816	0.000418	4.175276	0.707311	1.634745
  89	8.8000e-03	-4.5152	-30.586846	0.000445	4.454247	0.754570	1.743971
  90	8.9000e-03	-4.1282	-28.693600	0.000484	4.835509	0.819157	1.893246
  91	9.0000e-03	-3.7107	-27.819794	0.000223	2.231773	0.378073	0.873806
  92	9.1000e-03	-3.3268	-25.081869	0.000699	6.992890	1.184628	2.737925
  93	9.2000e-03	-2.9142	-23.148573	0.000494	4.937798	0.836486	1.933295
  94	9.3000e-03	-2.5236	-21.080566	0.000528	5.281863	0.894772	2.068007
  95	9.4000e-03	-2.1244	-18.917897	0.000552	5.523639	0.935730	2.162669
  96	9.5000e-03	-1.7213	-17.894816	0.000261	2.613035	0.442660	1.023081
  97	9.6000e-03	-1.3190	-15.003975	0.000738	7.383450	1.250790	2.890841
  98	9.7000e-03	-0.9277	-12.739361	0.000578	5.784012	0.979838	2.264613
  99	9.8000e-03	-0.5182	-10.525720	0.000565	5.653826	0.957784	2.213641
 100	9.9000e-03	-0.1215	-8.213775	0.000590	5.904900	1.000317	2.311945
 101	1.0000e-02	-0.0326	-6.961320	0.000590	5.904900	1.000317	1.252455

PMax (uC/cm2):	4.80e+01
Pr (uC/cm2):	2.99e+00
-Pr (uC/cm2):	-8.40e+00
PLoss (uC/cm2):	-8.42e+00
-Vc:	-5.05e-01
C (Max-Eff) (nF):	4.85e-01
K (Eff):	8.22e+02
Vert. (+/-Pr) Shift (uC/cm2):	-2.70e+00
Offset (uC/cm2):	-1.43e+00

A (Loop Area - uC/cm2·Volts):	-3.14e+00



Hysteresis Version: 5.48.1 - Radiant Technologies, Inc., 1999 - 9/12/24

