»»»»»»»»»»»»»»»»»»»»»»»»»»»»»»»»»»»» Hysteresis ««««««««««««««««««««««««««««««««««««
»»»  Executed Version:	5.48.1
»»»  Vision Version:	5.48.4 (R)
»»»  Vision Compiled:	9/18/24
»»»  Driver Version:	5.47.0
»»»  Windows Version:	Windows 8 or 8.1
»»»  Processor Information:	x86 (AMD or Intel) - 32 Processors
»»»  Tester Name:	PMF21124-494 (100V)
»»»  Tester S/N:	PMF21124-494
»»»  Internal Amp Type:	100V RevK 270k
»»»  Internal Amp S/N:	iAB2-596/K     
»»»  Execution Count:	1
»»»»»»»»»»»»»»»»»»»»»»»»»»»»»»»»»»»»»»»»»»««««««««««««««««««««««««««««««««««««««««««

Stored:	7/7/2025 - 13:49:1
Configured:	07/07/25 01:27:50 PM
Executed:	07/07/25 01:48:32 PM

»»»»»»»»»»»»»»»»»»»»»»»»»»»»»»»»»»» Sample Info ««««««««««««««««««««««««««««««««««««
Sample Name:	
Lot Name:	
Wafer Name:	
Die Row/Column:	0/0
Capacitor Number:	0
Sample Area (cm2):	1.00e-04
Sample Thickness (microns):	1.50e-01

Amplifier:	Internal

»»»»»»»»»»»»»»»»»»»»»»»»»»»»»»»»»»» Tester Info «««««««««««««««««««««««««««««««««««
Tester Name:	PMF21124-494 (100V)
Tester Serial Number:	PMF21124-494
Return Signal Amp. Level:	0.19 [Index: 3]

»»»»»»»»»»»»»»»»»»»»»»»»»»»»»»»» Hysteresis Info ««««««««««««««««««««««««««««««««««
Task Name:	Hyst-528
Volts:	10.00
Field:	666.67 (kV/cm)
DCBias:	0.00
DCField:	0.00 (kV/cm)
Hysteresis Period (ms):	2.00e+02
Preset:	Enabled
Preset Delay (ms):	1.00e+03
Profile:	Standard Bipolar

»»»»»»»»»»»»»»»»»»»»»»»»»»»»»»»»»»»»»» Data «««««««««««««««««««««««««««««««««««««««
Points:	2009

Valid Data

Point	Time (ms)	Drive Voltage	Measured Polarization (uC/cm2)	Capacitance (uF)	Normalized Capacitance (uF/cm2)	Dielectric Constant	Instantaneous Current (mA)
   1	0.0000e+00	0.0005	20.724636	0.000507	5.066750	0.858331	0.000101
   2	9.9500e-02	0.0194	20.825565	0.000507	5.066750	0.858331	0.000101
   3	1.9900e-01	0.0399	20.910345	0.000426	4.256070	0.720998	0.000085
   4	2.9850e-01	0.0595	21.047607	0.000689	6.890780	1.167330	0.000138
   5	3.9800e-01	0.0809	21.128350	0.000405	4.053400	0.686665	0.000081
   6	4.9750e-01	0.1006	21.213130	0.000426	4.256070	0.720998	0.000085
   7	5.9700e-01	0.1198	21.338281	0.000628	6.282770	1.064330	0.000126
   8	6.9650e-01	0.1392	21.439209	0.000507	5.066750	0.858331	0.000101
   9	7.9600e-01	0.1604	21.532063	0.000466	4.661410	0.789664	0.000093
  10	8.9550e-01	0.1791	21.628955	0.000486	4.864080	0.823998	0.000097
  11	9.9500e-01	0.1996	21.717772	0.000446	4.458740	0.755331	0.000089
  12	1.0945e+00	0.2185	21.826774	0.000547	5.472090	0.926997	0.000110
  13	1.1940e+00	0.2391	21.899443	0.000365	3.648060	0.617998	0.000073
  14	1.2935e+00	0.2586	22.048817	0.000750	7.498790	1.270329	0.000150
  15	1.3930e+00	0.2786	22.121485	0.000365	3.648060	0.617998	0.000073
  16	1.4925e+00	0.2988	22.214339	0.000466	4.661410	0.789664	0.000093
  17	1.5920e+00	0.3184	22.303156	0.000446	4.458740	0.755331	0.000089
  18	1.6915e+00	0.3380	22.440419	0.000689	6.890780	1.167330	0.000138
  19	1.7910e+00	0.3580	22.533273	0.000466	4.661410	0.789664	0.000093
  20	1.8905e+00	0.3790	22.626127	0.000466	4.661410	0.789664	0.000093
  21	1.9900e+00	0.3989	22.771464	0.000730	7.296120	1.235996	0.000146
  22	2.0895e+00	0.4185	22.827984	0.000284	2.837380	0.480665	0.000057
  23	2.1890e+00	0.4385	22.920838	0.000466	4.661410	0.789664	0.000093
  24	2.2885e+00	0.4580	23.041952	0.000608	6.080100	1.029997	0.000122
  25	2.3880e+00	0.4784	23.171141	0.000649	6.485440	1.098663	0.000130
  26	2.4875e+00	0.4977	23.259958	0.000446	4.458740	0.755331	0.000089
  27	2.5870e+00	0.5185	23.372997	0.000567	5.674760	0.961330	0.000114
  28	2.6865e+00	0.5390	23.441629	0.000345	3.445390	0.583665	0.000069
  29	2.7860e+00	0.5582	23.554668	0.000567	5.674760	0.961330	0.000114
  30	2.8855e+00	0.5784	23.671745	0.000588	5.877430	0.995664	0.000118
  31	2.9850e+00	0.5972	23.740377	0.000345	3.445390	0.583665	0.000069
  32	3.0845e+00	0.6191	23.877639	0.000689	6.890780	1.167330	0.000138
  33	3.1840e+00	0.6371	23.986642	0.000547	5.472090	0.926997	0.000110
  34	3.2835e+00	0.6576	24.063348	0.000385	3.850730	0.652331	0.000077
  35	3.3830e+00	0.6779	24.188499	0.000628	6.282770	1.064330	0.000126
  36	3.4825e+00	0.6973	24.257130	0.000345	3.445390	0.583665	0.000069
  37	3.5820e+00	0.7181	24.386318	0.000649	6.485440	1.098663	0.000130
  38	3.6815e+00	0.7380	24.483210	0.000486	4.864080	0.823998	0.000097
  39	3.7810e+00	0.7578	24.612398	0.000649	6.485440	1.098663	0.000130
  40	3.8805e+00	0.7784	24.685066	0.000365	3.648060	0.617998	0.000073
  41	3.9800e+00	0.7976	24.761772	0.000385	3.850730	0.652331	0.000077
  42	4.0795e+00	0.8173	24.903072	0.000709	7.093450	1.201663	0.000142
  43	4.1790e+00	0.8375	25.004000	0.000507	5.066750	0.858331	0.000101
  44	4.2785e+00	0.8569	25.080706	0.000385	3.850730	0.652331	0.000077
  45	4.3780e+00	0.8772	25.226043	0.000730	7.296120	1.235996	0.000146
  46	4.4775e+00	0.8970	25.298711	0.000365	3.648060	0.617998	0.000073
  47	4.5770e+00	0.9167	25.391565	0.000466	4.661410	0.789664	0.000093
  48	4.6765e+00	0.9362	25.516716	0.000628	6.282770	1.064330	0.000126
  49	4.7760e+00	0.9559	25.617645	0.000507	5.066750	0.858331	0.000101
  50	4.8755e+00	0.9769	25.726647	0.000547	5.472090	0.926997	0.000110
  51	4.9750e+00	0.9959	25.819502	0.000466	4.661410	0.789664	0.000093
  52	5.0745e+00	1.0165	25.932541	0.000567	5.674760	0.961330	0.000114
  53	5.1740e+00	1.0369	26.001173	0.000345	3.445390	0.583665	0.000069
  54	5.2735e+00	1.0562	26.142472	0.000709	7.093450	1.201663	0.000142
  55	5.3730e+00	1.0762	26.235327	0.000466	4.661410	0.789664	0.000093
  56	5.4725e+00	1.0957	26.384701	0.000750	7.498790	1.270329	0.000150
  57	5.5720e+00	1.1163	26.469480	0.000426	4.256070	0.720998	0.000085
  58	5.6715e+00	1.1361	26.566372	0.000486	4.864080	0.823998	0.000097
  59	5.7710e+00	1.1559	26.671337	0.000527	5.269420	0.892664	0.000105
  60	5.8705e+00	1.1755	26.764191	0.000466	4.661410	0.789664	0.000093
  61	5.9700e+00	1.1958	26.897417	0.000669	6.688110	1.132997	0.000134
  62	6.0695e+00	1.2162	27.006420	0.000547	5.472090	0.926997	0.000110
  63	6.1690e+00	1.2350	27.107348	0.000507	5.066750	0.858331	0.000101
  64	6.2685e+00	1.2562	27.236536	0.000649	6.485440	1.098663	0.000130
  65	6.3680e+00	1.2740	27.321316	0.000426	4.256070	0.720998	0.000085
  66	6.4675e+00	1.2953	27.422245	0.000507	5.066750	0.858331	0.000101
  67	6.5670e+00	1.3149	27.571619	0.000750	7.498790	1.270329	0.000150
  68	6.6665e+00	1.3341	27.652361	0.000405	4.053400	0.686665	0.000081
  69	6.7660e+00	1.3549	27.737141	0.000426	4.256070	0.720998	0.000085
  70	6.8655e+00	1.3747	27.850181	0.000567	5.674760	0.961330	0.000114
  71	6.9650e+00	1.3947	27.963221	0.000567	5.674760	0.961330	0.000114
  72	7.0645e+00	1.4143	28.080298	0.000588	5.877430	0.995664	0.000118
  73	7.1640e+00	1.4339	28.221597	0.000709	7.093450	1.201663	0.000142
  74	7.2635e+00	1.4544	28.334637	0.000567	5.674760	0.961330	0.000114
  75	7.3630e+00	1.4742	28.447677	0.000567	5.674760	0.961330	0.000114
  76	7.4625e+00	1.4942	28.516308	0.000345	3.445390	0.583665	0.000069
  77	7.5620e+00	1.5134	28.629348	0.000567	5.674760	0.961330	0.000114
  78	7.6615e+00	1.5343	28.734314	0.000527	5.269420	0.892664	0.000105
  79	7.7610e+00	1.5539	28.867539	0.000669	6.688110	1.132997	0.000134
  80	7.8605e+00	1.5739	28.940208	0.000365	3.648060	0.617998	0.000073
  81	7.9600e+00	1.5944	29.085544	0.000730	7.296120	1.235996	0.000146
  82	8.0595e+00	1.6129	29.198584	0.000567	5.674760	0.961330	0.000114
  83	8.1590e+00	1.6335	29.283364	0.000426	4.256070	0.720998	0.000085
  84	8.2585e+00	1.6535	29.404478	0.000608	6.080100	1.029997	0.000122
  85	8.3580e+00	1.6740	29.549815	0.000730	7.296120	1.235996	0.000146
  86	8.4575e+00	1.6934	29.662855	0.000567	5.674760	0.961330	0.000114
  87	8.5570e+00	1.7130	29.755709	0.000466	4.661410	0.789664	0.000093
  88	8.6565e+00	1.7330	29.852600	0.000486	4.864080	0.823998	0.000097
  89	8.7560e+00	1.7537	29.953529	0.000507	5.066750	0.858331	0.000101
  90	8.8555e+00	1.7735	30.082717	0.000649	6.485440	1.098663	0.000130
  91	8.9550e+00	1.7940	30.175571	0.000466	4.661410	0.789664	0.000093
  92	9.0545e+00	1.8127	30.316871	0.000709	7.093450	1.201663	0.000142
  93	9.1540e+00	1.8328	30.413762	0.000486	4.864080	0.823998	0.000097
  94	9.2535e+00	1.8525	30.530839	0.000588	5.877430	0.995664	0.000118
  95	9.3530e+00	1.8732	30.631767	0.000507	5.066750	0.858331	0.000101
  96	9.4525e+00	1.8922	30.748844	0.000588	5.877430	0.995664	0.000118
  97	9.5520e+00	1.9112	30.865921	0.000588	5.877430	0.995664	0.000118
  98	9.6515e+00	1.9329	30.950701	0.000426	4.256070	0.720998	0.000085
  99	9.7510e+00	1.9530	31.063741	0.000567	5.674760	0.961330	0.000114
 100	9.8505e+00	1.9725	31.180818	0.000588	5.877430	0.995664	0.000118
 101	9.9500e+00	1.9920	31.314043	0.000669	6.688110	1.132997	0.000134
 102	1.0050e+01	2.0127	31.382675	0.000345	3.445390	0.583665	0.000069
 103	1.0149e+01	2.0317	31.519937	0.000689	6.890780	1.167330	0.000138
 104	1.0248e+01	2.0523	31.596643	0.000385	3.850730	0.652331	0.000077
 105	1.0348e+01	2.0724	31.729868	0.000669	6.688110	1.132997	0.000134
 106	1.0447e+01	2.0915	31.830797	0.000507	5.066750	0.858331	0.000101
 107	1.0547e+01	2.1127	31.935762	0.000527	5.269420	0.892664	0.000105
 108	1.0646e+01	2.1323	32.044765	0.000547	5.472090	0.926997	0.000110
 109	1.0746e+01	2.1522	32.113396	0.000345	3.445390	0.583665	0.000069
 110	1.0845e+01	2.1719	32.250659	0.000689	6.890780	1.167330	0.000138
 111	1.0945e+01	2.1928	32.375810	0.000628	6.282770	1.064330	0.000126
 112	1.1044e+01	2.2119	32.476738	0.000507	5.066750	0.858331	0.000101
 113	1.1144e+01	2.2323	32.605927	0.000649	6.485440	1.098663	0.000130
 114	1.1243e+01	2.2513	32.690707	0.000426	4.256070	0.720998	0.000085
 115	1.1343e+01	2.2710	32.815858	0.000628	6.282770	1.064330	0.000126
 116	1.1443e+01	2.2920	32.953120	0.000689	6.890780	1.167330	0.000138
 117	1.1542e+01	2.3111	33.025789	0.000365	3.648060	0.617998	0.000073
 118	1.1642e+01	2.3310	33.114606	0.000446	4.458740	0.755331	0.000089
 119	1.1741e+01	2.3517	33.223609	0.000547	5.472090	0.926997	0.000110
 120	1.1841e+01	2.3706	33.316463	0.000466	4.661410	0.789664	0.000093
 121	1.1940e+01	2.3916	33.481985	0.000831	8.309471	1.407662	0.000166
 122	1.2040e+01	2.4116	33.574839	0.000466	4.661410	0.789664	0.000093
 123	1.2139e+01	2.4313	33.708065	0.000669	6.688110	1.132997	0.000134
 124	1.2239e+01	2.4503	33.772659	0.000324	3.242720	0.549332	0.000065
 125	1.2338e+01	2.4716	33.913959	0.000709	7.093450	1.201663	0.000142
 126	1.2438e+01	2.4918	34.014887	0.000507	5.066750	0.858331	0.000101
 127	1.2537e+01	2.5106	34.123890	0.000547	5.472090	0.926997	0.000110
 128	1.2636e+01	2.5304	34.212707	0.000446	4.458740	0.755331	0.000089
 129	1.2736e+01	2.5509	34.333821	0.000608	6.080100	1.029997	0.000122
 130	1.2835e+01	2.5702	34.418601	0.000426	4.256070	0.720998	0.000085
 131	1.2935e+01	2.5902	34.527603	0.000547	5.472090	0.926997	0.000110
 132	1.3034e+01	2.6102	34.648717	0.000608	6.080100	1.029997	0.000122
 133	1.3134e+01	2.6295	34.810203	0.000811	8.106800	1.373329	0.000162
 134	1.3233e+01	2.6493	34.874797	0.000324	3.242720	0.549332	0.000065
 135	1.3333e+01	2.6699	35.012060	0.000689	6.890780	1.167330	0.000138
 136	1.3432e+01	2.6897	35.104914	0.000466	4.661410	0.789664	0.000093
 137	1.3532e+01	2.7096	35.217954	0.000567	5.674760	0.961330	0.000114
 138	1.3632e+01	2.7294	35.310808	0.000466	4.661410	0.789664	0.000093
 139	1.3731e+01	2.7495	35.439996	0.000649	6.485440	1.098663	0.000130
 140	1.3831e+01	2.7688	35.544962	0.000527	5.269420	0.892664	0.000105
 141	1.3930e+01	2.7885	35.633779	0.000446	4.458740	0.755331	0.000089
 142	1.4030e+01	2.8098	35.742781	0.000547	5.472090	0.926997	0.000110
 143	1.4129e+01	2.8300	35.835635	0.000466	4.661410	0.789664	0.000093
 144	1.4229e+01	2.8490	35.968861	0.000669	6.688110	1.132997	0.000134
 145	1.4328e+01	2.8692	36.069789	0.000507	5.066750	0.858331	0.000101
 146	1.4428e+01	2.8890	36.186866	0.000588	5.877430	0.995664	0.000118
 147	1.4527e+01	2.9092	36.267609	0.000405	4.053400	0.686665	0.000081
 148	1.4627e+01	2.9291	36.376612	0.000547	5.472090	0.926997	0.000110
 149	1.4726e+01	2.9481	36.477540	0.000507	5.066750	0.858331	0.000101
 150	1.4825e+01	2.9684	36.586543	0.000547	5.472090	0.926997	0.000110
 151	1.4925e+01	2.9876	36.715731	0.000649	6.485440	1.098663	0.000130
 152	1.5024e+01	3.0088	36.800511	0.000426	4.256070	0.720998	0.000085
 153	1.5124e+01	3.0291	36.873179	0.000365	3.648060	0.617998	0.000073
 154	1.5223e+01	3.0477	37.006405	0.000669	6.688110	1.132997	0.000134
 155	1.5323e+01	3.0688	37.058888	0.000263	2.634710	0.446332	0.000053
 156	1.5422e+01	3.0887	37.244596	0.000932	9.322821	1.579329	0.000187
 157	1.5522e+01	3.1091	37.353598	0.000547	5.472090	0.926997	0.000110
 158	1.5621e+01	3.1279	37.426267	0.000365	3.648060	0.617998	0.000073
 159	1.5721e+01	3.1490	37.519121	0.000466	4.661410	0.789664	0.000093
 160	1.5820e+01	3.1686	37.648309	0.000649	6.485440	1.098663	0.000130
 161	1.5920e+01	3.1872	37.700792	0.000263	2.634710	0.446332	0.000053
 162	1.6020e+01	3.2072	37.821906	0.000608	6.080100	1.029997	0.000122
 163	1.6119e+01	3.2284	37.959169	0.000689	6.890780	1.167330	0.000138
 164	1.6218e+01	3.2480	38.052023	0.000466	4.661410	0.789664	0.000093
 165	1.6318e+01	3.2676	38.161026	0.000547	5.472090	0.926997	0.000110
 166	1.6418e+01	3.2879	38.225620	0.000324	3.242720	0.549332	0.000065
 167	1.6517e+01	3.3065	38.342697	0.000588	5.877430	0.995664	0.000118
 168	1.6616e+01	3.3282	38.459774	0.000588	5.877430	0.995664	0.000118
 169	1.6716e+01	3.3470	38.528405	0.000345	3.445390	0.583665	0.000069
 170	1.6816e+01	3.3672	38.657593	0.000649	6.485440	1.098663	0.000130
 171	1.6915e+01	3.3876	38.742373	0.000426	4.256070	0.720998	0.000085
 172	1.7015e+01	3.4063	38.855413	0.000567	5.674760	0.961330	0.000114
 173	1.7114e+01	3.4268	38.984601	0.000649	6.485440	1.098663	0.000130
 174	1.7213e+01	3.4480	39.033047	0.000243	2.432040	0.411999	0.000049
 175	1.7313e+01	3.4672	39.182421	0.000750	7.498790	1.270329	0.000150
 176	1.7413e+01	3.4865	39.247015	0.000324	3.242720	0.549332	0.000065
 177	1.7512e+01	3.5070	39.347943	0.000507	5.066750	0.858331	0.000101
 178	1.7611e+01	3.5263	39.477132	0.000649	6.485440	1.098663	0.000130
 179	1.7711e+01	3.5470	39.594209	0.000588	5.877430	0.995664	0.000118
 180	1.7811e+01	3.5662	39.683026	0.000446	4.458740	0.755331	0.000089
 181	1.7910e+01	3.5869	39.820288	0.000689	6.890780	1.167330	0.000138
 182	1.8009e+01	3.6070	39.880845	0.000304	3.040050	0.514998	0.000061
 183	1.8109e+01	3.6269	40.001959	0.000608	6.080100	1.029997	0.000122
 184	1.8209e+01	3.6466	40.102888	0.000507	5.066750	0.858331	0.000101
 185	1.8308e+01	3.6662	40.175556	0.000365	3.648060	0.617998	0.000073
 186	1.8407e+01	3.6864	40.341079	0.000831	8.309471	1.407662	0.000166
 187	1.8507e+01	3.7058	40.393562	0.000263	2.634710	0.446332	0.000053
 188	1.8607e+01	3.7263	40.510639	0.000588	5.877430	0.995664	0.000118
 189	1.8706e+01	3.7467	40.595418	0.000426	4.256070	0.720998	0.000085
 190	1.8805e+01	3.7656	40.708458	0.000567	5.674760	0.961330	0.000114
 191	1.8905e+01	3.7863	40.813424	0.000527	5.269420	0.892664	0.000105
 192	1.9005e+01	3.8053	40.886092	0.000365	3.648060	0.617998	0.000073
 193	1.9104e+01	3.8265	40.999132	0.000567	5.674760	0.961330	0.000114
 194	1.9203e+01	3.8452	41.128320	0.000649	6.485440	1.098663	0.000130
 195	1.9303e+01	3.8659	41.217137	0.000446	4.458740	0.755331	0.000089
 196	1.9402e+01	3.8854	41.301917	0.000426	4.256070	0.720998	0.000085
 197	1.9502e+01	3.9053	41.410920	0.000547	5.472090	0.926997	0.000110
 198	1.9602e+01	3.9252	41.515885	0.000527	5.269420	0.892664	0.000105
 199	1.9701e+01	3.9437	41.653148	0.000689	6.890780	1.167330	0.000138
 200	1.9800e+01	3.9640	41.725816	0.000365	3.648060	0.617998	0.000073
 201	1.9900e+01	3.9855	41.826745	0.000507	5.066750	0.858331	0.000101
 202	2.0000e+01	4.0051	41.927673	0.000507	5.066750	0.858331	0.000101
 203	2.0099e+01	4.0247	41.996305	0.000345	3.445390	0.583665	0.000069
 204	2.0198e+01	4.0447	42.141641	0.000730	7.296120	1.235996	0.000146
 205	2.0298e+01	4.0649	42.198161	0.000284	2.837380	0.480665	0.000057
 206	2.0398e+01	4.0845	42.355610	0.000790	7.904130	1.338996	0.000158
 207	2.0497e+01	4.1042	42.412129	0.000284	2.837380	0.480665	0.000057
 208	2.0596e+01	4.1239	42.509021	0.000486	4.864080	0.823998	0.000097
 209	2.0696e+01	4.1448	42.646283	0.000689	6.890780	1.167330	0.000138
 210	2.0796e+01	4.1639	42.698766	0.000263	2.634710	0.446332	0.000053
 211	2.0895e+01	4.1837	42.827954	0.000649	6.485440	1.098663	0.000130
 212	2.0994e+01	4.2037	42.900623	0.000365	3.648060	0.617998	0.000073
 213	2.1094e+01	4.2242	43.017700	0.000588	5.877430	0.995664	0.000118
 214	2.1194e+01	4.2437	43.122665	0.000527	5.269420	0.892664	0.000105
 215	2.1293e+01	4.2643	43.191297	0.000345	3.445390	0.583665	0.000069
 216	2.1392e+01	4.2843	43.312411	0.000608	6.080100	1.029997	0.000122
 217	2.1492e+01	4.3041	43.421413	0.000547	5.472090	0.926997	0.000110
 218	2.1591e+01	4.3215	43.502156	0.000405	4.053400	0.686665	0.000081
 219	2.1691e+01	4.3444	43.582899	0.000405	4.053400	0.686665	0.000081
 220	2.1791e+01	4.3636	43.699976	0.000588	5.877430	0.995664	0.000118
 221	2.1890e+01	4.3840	43.796867	0.000486	4.864080	0.823998	0.000097
 222	2.1989e+01	4.4035	43.905870	0.000547	5.472090	0.926997	0.000110
 223	2.2089e+01	4.4239	44.014872	0.000547	5.472090	0.926997	0.000110
 224	2.2189e+01	4.4428	44.115801	0.000507	5.066750	0.858331	0.000101
 225	2.2288e+01	4.4630	44.204618	0.000446	4.458740	0.755331	0.000089
 226	2.2387e+01	4.4825	44.317658	0.000567	5.674760	0.961330	0.000114
 227	2.2487e+01	4.5023	44.434735	0.000588	5.877430	0.995664	0.000118
 228	2.2587e+01	4.5222	44.503366	0.000345	3.445390	0.583665	0.000069
 229	2.2686e+01	4.5429	44.580071	0.000385	3.850730	0.652331	0.000077
 230	2.2785e+01	4.5611	44.709260	0.000649	6.485440	1.098663	0.000130
 231	2.2885e+01	4.5823	44.814225	0.000527	5.269420	0.892664	0.000105
 232	2.2985e+01	4.6026	44.903042	0.000446	4.458740	0.755331	0.000089
 233	2.3084e+01	4.6232	45.016082	0.000567	5.674760	0.961330	0.000114
 234	2.3183e+01	4.6426	45.092788	0.000385	3.850730	0.652331	0.000077
 235	2.3283e+01	4.6621	45.185642	0.000466	4.661410	0.789664	0.000093
 236	2.3383e+01	4.6819	45.286570	0.000507	5.066750	0.858331	0.000101
 237	2.3482e+01	4.7021	45.379424	0.000466	4.661410	0.789664	0.000093
 238	2.3581e+01	4.7218	45.516687	0.000689	6.890780	1.167330	0.000138
 239	2.3681e+01	4.7414	45.613578	0.000486	4.864080	0.823998	0.000097
 240	2.3780e+01	4.7614	45.694321	0.000405	4.053400	0.686665	0.000081
 241	2.3880e+01	4.7823	45.783138	0.000446	4.458740	0.755331	0.000089
 242	2.3980e+01	4.8014	45.900215	0.000588	5.877430	0.995664	0.000118
 243	2.4079e+01	4.8220	46.001143	0.000507	5.066750	0.858331	0.000101
 244	2.4178e+01	4.8421	46.093997	0.000466	4.661410	0.789664	0.000093
 245	2.4278e+01	4.8614	46.178777	0.000426	4.256070	0.720998	0.000085
 246	2.4378e+01	4.8818	46.299891	0.000608	6.080100	1.029997	0.000122
 247	2.4477e+01	4.9014	46.412931	0.000567	5.674760	0.961330	0.000114
 248	2.4576e+01	4.9212	46.473488	0.000304	3.040050	0.514998	0.000061
 249	2.4676e+01	4.9416	46.594602	0.000608	6.080100	1.029997	0.000122
 250	2.4776e+01	4.9612	46.683419	0.000446	4.458740	0.755331	0.000089
 251	2.4875e+01	4.9815	46.776273	0.000466	4.661410	0.789664	0.000093
 252	2.4974e+01	5.0013	46.881239	0.000527	5.269420	0.892664	0.000105
 253	2.5074e+01	5.0213	47.010427	0.000649	6.485440	1.098663	0.000130
 254	2.5174e+01	5.0404	47.099244	0.000446	4.458740	0.755331	0.000089
 255	2.5273e+01	5.0605	47.167875	0.000345	3.445390	0.583665	0.000069
 256	2.5372e+01	5.0803	47.297064	0.000649	6.485440	1.098663	0.000130
 257	2.5472e+01	5.1009	47.397992	0.000507	5.066750	0.858331	0.000101
 258	2.5572e+01	5.1200	47.498921	0.000507	5.066750	0.858331	0.000101
 259	2.5671e+01	5.1403	47.571589	0.000365	3.648060	0.617998	0.000073
 260	2.5770e+01	5.1598	47.656369	0.000426	4.256070	0.720998	0.000085
 261	2.5870e+01	5.1797	47.761334	0.000527	5.269420	0.892664	0.000105
 262	2.5970e+01	5.2000	47.862263	0.000507	5.066750	0.858331	0.000101
 263	2.6069e+01	5.2184	47.979340	0.000588	5.877430	0.995664	0.000118
 264	2.6169e+01	5.2404	48.064120	0.000426	4.256070	0.720998	0.000085
 265	2.6268e+01	5.2605	48.165048	0.000507	5.066750	0.858331	0.000101
 266	2.6367e+01	5.2787	48.221568	0.000284	2.837380	0.480665	0.000057
 267	2.6467e+01	5.3002	48.366905	0.000730	7.296120	1.235996	0.000146
 268	2.6567e+01	5.3197	48.439573	0.000365	3.648060	0.617998	0.000073
 269	2.6666e+01	5.3394	48.520316	0.000405	4.053400	0.686665	0.000081
 270	2.6765e+01	5.3597	48.613170	0.000466	4.661410	0.789664	0.000093
 271	2.6865e+01	5.3796	48.750433	0.000689	6.890780	1.167330	0.000138
 272	2.6965e+01	5.3995	48.802915	0.000263	2.634710	0.446332	0.000053
 273	2.7064e+01	5.4183	48.915955	0.000567	5.674760	0.961330	0.000114
 274	2.7163e+01	5.4392	48.964401	0.000243	2.432040	0.411999	0.000049
 275	2.7263e+01	5.4583	49.109738	0.000730	7.296120	1.235996	0.000146
 276	2.7363e+01	5.4793	49.170295	0.000304	3.040050	0.514998	0.000061
 277	2.7462e+01	5.4986	49.271223	0.000507	5.066750	0.858331	0.000101
 278	2.7561e+01	5.5187	49.364077	0.000466	4.661410	0.789664	0.000093
 279	2.7661e+01	5.5389	49.469043	0.000527	5.269420	0.892664	0.000105
 280	2.7761e+01	5.5581	49.578045	0.000547	5.472090	0.926997	0.000110
 281	2.7860e+01	5.5788	49.642640	0.000324	3.242720	0.549332	0.000065
 282	2.7959e+01	5.5980	49.796051	0.000770	7.701460	1.304663	0.000154
 283	2.8059e+01	5.6188	49.844496	0.000243	2.432040	0.411999	0.000049
 284	2.8159e+01	5.6380	49.937351	0.000466	4.661410	0.789664	0.000093
 285	2.8258e+01	5.6582	50.054427	0.000588	5.877430	0.995664	0.000118
 286	2.8358e+01	5.6779	50.151319	0.000486	4.864080	0.823998	0.000097
 287	2.8457e+01	5.6976	50.211876	0.000304	3.040050	0.514998	0.000061
 288	2.8556e+01	5.7186	50.316841	0.000527	5.269420	0.892664	0.000105
 289	2.8656e+01	5.7391	50.425844	0.000547	5.472090	0.926997	0.000110
 290	2.8756e+01	5.7577	50.486401	0.000304	3.040050	0.514998	0.000061
 291	2.8855e+01	5.7784	50.603478	0.000588	5.877430	0.995664	0.000118
 292	2.8954e+01	5.7986	50.659998	0.000284	2.837380	0.480665	0.000057
 293	2.9054e+01	5.8178	50.748815	0.000446	4.458740	0.755331	0.000089
 294	2.9154e+01	5.8369	50.853780	0.000527	5.269420	0.892664	0.000105
 295	2.9253e+01	5.8575	50.987006	0.000669	6.688110	1.132997	0.000134
 296	2.9352e+01	5.8776	51.083897	0.000486	4.864080	0.823998	0.000097
 297	2.9452e+01	5.8983	51.156566	0.000365	3.648060	0.617998	0.000073
 298	2.9552e+01	5.9176	51.249420	0.000466	4.661410	0.789664	0.000093
 299	2.9651e+01	5.9379	51.330162	0.000405	4.053400	0.686665	0.000081
 300	2.9750e+01	5.9576	51.414942	0.000426	4.256070	0.720998	0.000085
 301	2.9850e+01	5.9777	51.544131	0.000649	6.485440	1.098663	0.000130
 302	2.9950e+01	5.9975	51.604688	0.000304	3.040050	0.514998	0.000061
 303	3.0049e+01	6.0171	51.701579	0.000486	4.864080	0.823998	0.000097
 304	3.0148e+01	6.0363	51.798470	0.000486	4.864080	0.823998	0.000097
 305	3.0248e+01	6.0574	51.907473	0.000547	5.472090	0.926997	0.000110
 306	3.0348e+01	6.0769	51.984178	0.000385	3.850730	0.652331	0.000077
 307	3.0447e+01	6.0971	52.077032	0.000466	4.661410	0.789664	0.000093
 308	3.0547e+01	6.1160	52.169887	0.000466	4.661410	0.789664	0.000093
 309	3.0646e+01	6.1370	52.266778	0.000486	4.864080	0.823998	0.000097
 310	3.0745e+01	6.1562	52.387892	0.000608	6.080100	1.029997	0.000122
 311	3.0845e+01	6.1755	52.420189	0.000162	1.621360	0.274666	0.000032
 312	3.0945e+01	6.1965	52.553414	0.000669	6.688110	1.132997	0.000134
 313	3.1044e+01	6.2162	52.626083	0.000365	3.648060	0.617998	0.000073
 314	3.1143e+01	6.2366	52.718937	0.000466	4.661410	0.789664	0.000093
 315	3.1243e+01	6.2560	52.795643	0.000385	3.850730	0.652331	0.000077
 316	3.1343e+01	6.2765	52.868311	0.000365	3.648060	0.617998	0.000073
 317	3.1442e+01	6.2968	52.949054	0.000405	4.053400	0.686665	0.000081
 318	3.1541e+01	6.3146	53.049982	0.000507	5.066750	0.858331	0.000101
 319	3.1641e+01	6.3360	53.158985	0.000547	5.472090	0.926997	0.000110
 320	3.1741e+01	6.3554	53.203393	0.000223	2.229370	0.377666	0.000045
 321	3.1840e+01	6.3760	53.276062	0.000365	3.648060	0.617998	0.000073
 322	3.1939e+01	6.3950	53.393139	0.000588	5.877430	0.995664	0.000118
 323	3.2039e+01	6.4149	53.453696	0.000304	3.040050	0.514998	0.000061
 324	3.2139e+01	6.4353	53.566736	0.000567	5.674760	0.961330	0.000114
 325	3.2238e+01	6.4544	53.643441	0.000385	3.850730	0.652331	0.000077
 326	3.2337e+01	6.4745	53.748407	0.000527	5.269420	0.892664	0.000105
 327	3.2437e+01	6.4945	53.821075	0.000365	3.648060	0.617998	0.000073
 328	3.2536e+01	6.5148	53.889706	0.000345	3.445390	0.583665	0.000069
 329	3.2636e+01	6.5339	53.970449	0.000405	4.053400	0.686665	0.000081
 330	3.2736e+01	6.5549	54.079452	0.000547	5.472090	0.926997	0.000110
 331	3.2835e+01	6.5745	54.160194	0.000405	4.053400	0.686665	0.000081
 332	3.2934e+01	6.5942	54.228826	0.000345	3.445390	0.583665	0.000069
 333	3.3034e+01	6.6142	54.293420	0.000324	3.242720	0.549332	0.000065
 334	3.3133e+01	6.6346	54.438757	0.000730	7.296120	1.235996	0.000146
 335	3.3233e+01	6.6544	54.511425	0.000365	3.648060	0.617998	0.000073
 336	3.3333e+01	6.6753	54.588131	0.000385	3.850730	0.652331	0.000077
 337	3.3432e+01	6.6946	54.656762	0.000345	3.445390	0.583665	0.000069
 338	3.3532e+01	6.7135	54.737505	0.000405	4.053400	0.686665	0.000081
 339	3.3631e+01	6.7341	54.806136	0.000345	3.445390	0.583665	0.000069
 340	3.3730e+01	6.7535	54.923213	0.000588	5.877430	0.995664	0.000118
 341	3.3830e+01	6.7730	54.975696	0.000263	2.634710	0.446332	0.000053
 342	3.3929e+01	6.7935	55.108921	0.000669	6.688110	1.132997	0.000134
 343	3.4029e+01	6.8131	55.181590	0.000365	3.648060	0.617998	0.000073
 344	3.4129e+01	6.8337	55.234073	0.000263	2.634710	0.446332	0.000053
 345	3.4228e+01	6.8533	55.318852	0.000426	4.256070	0.720998	0.000085
 346	3.4328e+01	6.8732	55.427855	0.000547	5.472090	0.926997	0.000110
 347	3.4427e+01	6.8938	55.532821	0.000527	5.269420	0.892664	0.000105
 348	3.4526e+01	6.9132	55.593378	0.000304	3.040050	0.514998	0.000061
 349	3.4626e+01	6.9317	55.678158	0.000426	4.256070	0.720998	0.000085
 350	3.4725e+01	6.9530	55.754863	0.000385	3.850730	0.652331	0.000077
 351	3.4825e+01	6.9732	55.847717	0.000466	4.661410	0.789664	0.000093
 352	3.4925e+01	6.9926	55.936534	0.000446	4.458740	0.755331	0.000089
 353	3.5024e+01	7.0132	56.001128	0.000324	3.242720	0.549332	0.000065
 354	3.5123e+01	7.0328	56.089945	0.000446	4.458740	0.755331	0.000089
 355	3.5223e+01	7.0535	56.202985	0.000567	5.674760	0.961330	0.000114
 356	3.5322e+01	7.0727	56.243357	0.000203	2.026700	0.343332	0.000041
 357	3.5422e+01	7.0932	56.364471	0.000608	6.080100	1.029997	0.000122
 358	3.5522e+01	7.1124	56.429065	0.000324	3.242720	0.549332	0.000065
 359	3.5621e+01	7.1320	56.521919	0.000466	4.661410	0.789664	0.000093
 360	3.5721e+01	7.1523	56.574402	0.000263	2.634710	0.446332	0.000053
 361	3.5820e+01	7.1731	56.679367	0.000527	5.269420	0.892664	0.000105
 362	3.5919e+01	7.1935	56.760110	0.000405	4.053400	0.686665	0.000081
 363	3.6019e+01	7.2120	56.893335	0.000669	6.688110	1.132997	0.000134
 364	3.6118e+01	7.2318	56.857001	-0.000182	-1.824030	-0.308999	-0.000037
 365	3.6218e+01	7.2523	57.026561	0.000851	8.512141	1.441996	0.000170
 366	3.6318e+01	7.2717	57.075006	0.000243	2.432040	0.411999	0.000049
 367	3.6417e+01	7.2921	57.196121	0.000608	6.080100	1.029997	0.000122
 368	3.6517e+01	7.3122	57.252640	0.000284	2.837380	0.480665	0.000057
 369	3.6616e+01	7.3322	57.337420	0.000426	4.256070	0.720998	0.000085
 370	3.6715e+01	7.3515	57.414126	0.000385	3.850730	0.652331	0.000077
 371	3.6815e+01	7.3721	57.506980	0.000466	4.661410	0.789664	0.000093
 372	3.6914e+01	7.3916	57.632131	0.000628	6.282770	1.064330	0.000126
 373	3.7014e+01	7.4121	57.672503	0.000203	2.026700	0.343332	0.000041
 374	3.7114e+01	7.4314	57.757282	0.000426	4.256070	0.720998	0.000085
 375	3.7213e+01	7.4514	57.842062	0.000426	4.256070	0.720998	0.000085
 376	3.7313e+01	7.4701	57.930879	0.000446	4.458740	0.755331	0.000089
 377	3.7412e+01	7.4918	57.971251	0.000203	2.026700	0.343332	0.000041
 378	3.7511e+01	7.5105	58.043919	0.000365	3.648060	0.617998	0.000073
 379	3.7611e+01	7.5311	58.169070	0.000628	6.282770	1.064330	0.000126
 380	3.7711e+01	7.5509	58.274036	0.000527	5.269420	0.892664	0.000105
 381	3.7810e+01	7.5712	58.358816	0.000426	4.256070	0.720998	0.000085
 382	3.7910e+01	7.5906	58.399187	0.000203	2.026700	0.343332	0.000041
 383	3.8009e+01	7.6101	58.419373	0.000101	1.013350	0.171666	0.000020
 384	3.8108e+01	7.6316	58.572784	0.000770	7.701460	1.304663	0.000154
 385	3.8208e+01	7.6502	58.625267	0.000263	2.634710	0.446332	0.000053
 386	3.8307e+01	7.6693	58.726195	0.000507	5.066750	0.858331	0.000101
 387	3.8407e+01	7.6905	58.782715	0.000284	2.837380	0.480665	0.000057
 388	3.8507e+01	7.7096	58.859420	0.000385	3.850730	0.652331	0.000077
 389	3.8606e+01	7.7287	58.972460	0.000567	5.674760	0.961330	0.000114
 390	3.8706e+01	7.7499	59.069352	0.000486	4.864080	0.823998	0.000097
 391	3.8805e+01	7.7700	59.133946	0.000324	3.242720	0.549332	0.000065
 392	3.8904e+01	7.7900	59.210651	0.000385	3.850730	0.652331	0.000077
 393	3.9004e+01	7.8103	59.295431	0.000426	4.256070	0.720998	0.000085
 394	3.9103e+01	7.8292	59.347914	0.000263	2.634710	0.446332	0.000053
 395	3.9203e+01	7.8498	59.452879	0.000527	5.269420	0.892664	0.000105
 396	3.9303e+01	7.8698	59.549771	0.000486	4.864080	0.823998	0.000097
 397	3.9402e+01	7.8893	59.590142	0.000203	2.026700	0.343332	0.000041
 398	3.9502e+01	7.9103	59.670885	0.000405	4.053400	0.686665	0.000081
 399	3.9601e+01	7.9289	59.783925	0.000567	5.674760	0.961330	0.000114
 400	3.9700e+01	7.9494	59.848519	0.000324	3.242720	0.549332	0.000065
 401	3.9800e+01	7.9699	59.937336	0.000446	4.458740	0.755331	0.000089
 402	3.9900e+01	7.9884	60.034227	0.000486	4.864080	0.823998	0.000097
 403	3.9999e+01	8.0095	60.102858	0.000345	3.445390	0.583665	0.000069
 404	4.0099e+01	8.0291	60.183601	0.000405	4.053400	0.686665	0.000081
 405	4.0198e+01	8.0480	60.248195	0.000324	3.242720	0.549332	0.000065
 406	4.0297e+01	8.0697	60.341049	0.000466	4.661410	0.789664	0.000093
 407	4.0397e+01	8.0883	60.397569	0.000284	2.837380	0.480665	0.000057
 408	4.0496e+01	8.1086	60.494460	0.000486	4.864080	0.823998	0.000097
 409	4.0596e+01	8.1289	60.627686	0.000669	6.688110	1.132997	0.000134
 410	4.0696e+01	8.1472	60.688243	0.000304	3.040050	0.514998	0.000061
 411	4.0795e+01	8.1689	60.760911	0.000365	3.648060	0.617998	0.000073
 412	4.0895e+01	8.1876	60.849728	0.000446	4.458740	0.755331	0.000089
 413	4.0994e+01	8.2075	60.918360	0.000345	3.445390	0.583665	0.000069
 414	4.1093e+01	8.2281	61.011214	0.000466	4.661410	0.789664	0.000093
 415	4.1193e+01	8.2476	61.112142	0.000507	5.066750	0.858331	0.000101
 416	4.1292e+01	8.2674	61.176736	0.000324	3.242720	0.549332	0.000065
 417	4.1392e+01	8.2879	61.249405	0.000365	3.648060	0.617998	0.000073
 418	4.1492e+01	8.3079	61.342259	0.000466	4.661410	0.789664	0.000093
 419	4.1591e+01	8.3277	61.451262	0.000547	5.472090	0.926997	0.000110
 420	4.1691e+01	8.3466	61.471447	0.000101	1.013350	0.171666	0.000020
 421	4.1790e+01	8.3678	61.596599	0.000628	6.282770	1.064330	0.000126
 422	4.1889e+01	8.3872	61.632933	0.000182	1.824030	0.308999	0.000037
 423	4.1989e+01	8.4086	61.754047	0.000608	6.080100	1.029997	0.000122
 424	4.2089e+01	8.4281	61.830752	0.000385	3.850730	0.652331	0.000077
 425	4.2188e+01	8.4467	61.883235	0.000263	2.634710	0.446332	0.000053
 426	4.2288e+01	8.4675	61.955904	0.000365	3.648060	0.617998	0.000073
 427	4.2387e+01	8.4875	62.044721	0.000446	4.458740	0.755331	0.000089
 428	4.2486e+01	8.5064	62.121426	0.000385	3.850730	0.652331	0.000077
 429	4.2586e+01	8.5267	62.230429	0.000547	5.472090	0.926997	0.000110
 430	4.2685e+01	8.5461	62.355580	0.000628	6.282770	1.064330	0.000126
 431	4.2785e+01	8.5662	62.371729	0.000081	0.810680	0.137333	0.000016
 432	4.2885e+01	8.5867	62.452471	0.000405	4.053400	0.686665	0.000081
 433	4.2984e+01	8.6068	62.533214	0.000405	4.053400	0.686665	0.000081
 434	4.3084e+01	8.6263	62.613957	0.000405	4.053400	0.686665	0.000081
 435	4.3183e+01	8.6468	62.686625	0.000365	3.648060	0.617998	0.000073
 436	4.3282e+01	8.6665	62.767368	0.000405	4.053400	0.686665	0.000081
 437	4.3382e+01	8.6858	62.844073	0.000385	3.850730	0.652331	0.000077
 438	4.3481e+01	8.7061	62.936928	0.000466	4.661410	0.789664	0.000093
 439	4.3581e+01	8.7260	62.989410	0.000263	2.634710	0.446332	0.000053
 440	4.3681e+01	8.7463	63.082264	0.000466	4.661410	0.789664	0.000093
 441	4.3780e+01	8.7667	63.167044	0.000426	4.256070	0.720998	0.000085
 442	4.3880e+01	8.7854	63.243750	0.000385	3.850730	0.652331	0.000077
 443	4.3979e+01	8.8058	63.308344	0.000324	3.242720	0.549332	0.000065
 444	4.4078e+01	8.8251	63.393124	0.000426	4.256070	0.720998	0.000085
 445	4.4178e+01	8.8447	63.494052	0.000507	5.066750	0.858331	0.000101
 446	4.4278e+01	8.8657	63.542498	0.000243	2.432040	0.411999	0.000049
 447	4.4377e+01	8.8847	63.643426	0.000507	5.066750	0.858331	0.000101
 448	4.4477e+01	8.9056	63.708021	0.000324	3.242720	0.549332	0.000065
 449	4.4576e+01	8.9242	63.788763	0.000405	4.053400	0.686665	0.000081
 450	4.4675e+01	8.9433	63.877580	0.000446	4.458740	0.755331	0.000089
 451	4.4775e+01	8.9635	63.934100	0.000284	2.837380	0.480665	0.000057
 452	4.4874e+01	8.9844	63.990620	0.000284	2.837380	0.480665	0.000057
 453	4.4974e+01	9.0046	64.083474	0.000466	4.661410	0.789664	0.000093
 454	4.5074e+01	9.0243	64.188440	0.000527	5.269420	0.892664	0.000105
 455	4.5173e+01	9.0441	64.248997	0.000304	3.040050	0.514998	0.000061
 456	4.5273e+01	9.0643	64.329739	0.000405	4.053400	0.686665	0.000081
 457	4.5372e+01	9.0845	64.382222	0.000263	2.634710	0.446332	0.000053
 458	4.5471e+01	9.1038	64.487188	0.000527	5.269420	0.892664	0.000105
 459	4.5571e+01	9.1236	64.584079	0.000486	4.864080	0.823998	0.000097
 460	4.5670e+01	9.1445	64.640599	0.000284	2.837380	0.480665	0.000057
 461	4.5770e+01	9.1650	64.729416	0.000446	4.458740	0.755331	0.000089
 462	4.5870e+01	9.1831	64.798047	0.000345	3.445390	0.583665	0.000069
 463	4.5969e+01	9.2025	64.878790	0.000405	4.053400	0.686665	0.000081
 464	4.6069e+01	9.2225	64.955495	0.000385	3.850730	0.652331	0.000077
 465	4.6168e+01	9.2434	65.012015	0.000284	2.837380	0.480665	0.000057
 466	4.6267e+01	9.2632	65.108907	0.000486	4.864080	0.823998	0.000097
 467	4.6367e+01	9.2831	65.153315	0.000223	2.229370	0.377666	0.000045
 468	4.6467e+01	9.3037	65.230021	0.000385	3.850730	0.652331	0.000077
 469	4.6566e+01	9.3233	65.363246	0.000669	6.688110	1.132997	0.000134
 470	4.6666e+01	9.3429	65.395543	0.000162	1.621360	0.274666	0.000032
 471	4.6765e+01	9.3635	65.504546	0.000547	5.472090	0.926997	0.000110
 472	4.6864e+01	9.3833	65.540880	0.000182	1.824030	0.308999	0.000037
 473	4.6964e+01	9.4027	65.674106	0.000669	6.688110	1.132997	0.000134
 474	4.7063e+01	9.4219	65.718514	0.000223	2.229370	0.377666	0.000045
 475	4.7163e+01	9.4424	65.791183	0.000365	3.648060	0.617998	0.000073
 476	4.7263e+01	9.4617	65.888074	0.000486	4.864080	0.823998	0.000097
 477	4.7362e+01	9.4826	65.952668	0.000324	3.242720	0.549332	0.000065
 478	4.7462e+01	9.5020	66.013225	0.000304	3.040050	0.514998	0.000061
 479	4.7561e+01	9.5223	66.085893	0.000365	3.648060	0.617998	0.000073
 480	4.7660e+01	9.5419	66.178748	0.000466	4.661410	0.789664	0.000093
 481	4.7760e+01	9.5614	66.255453	0.000385	3.850730	0.652331	0.000077
 482	4.7859e+01	9.5820	66.287750	0.000162	1.621360	0.274666	0.000032
 483	4.7959e+01	9.6015	66.388679	0.000507	5.066750	0.858331	0.000101
 484	4.8059e+01	9.6224	66.441161	0.000263	2.634710	0.446332	0.000053
 485	4.8158e+01	9.6413	66.517867	0.000385	3.850730	0.652331	0.000077
 486	4.8258e+01	9.6607	66.590535	0.000365	3.648060	0.617998	0.000073
 487	4.8357e+01	9.6819	66.679352	0.000446	4.458740	0.755331	0.000089
 488	4.8456e+01	9.7012	66.743947	0.000324	3.242720	0.549332	0.000065
 489	4.8556e+01	9.7217	66.840838	0.000486	4.864080	0.823998	0.000097
 490	4.8656e+01	9.7407	66.885246	0.000223	2.229370	0.377666	0.000045
 491	4.8755e+01	9.7614	66.949841	0.000324	3.242720	0.549332	0.000065
 492	4.8855e+01	9.7816	67.034620	0.000426	4.256070	0.720998	0.000085
 493	4.8954e+01	9.8023	67.103252	0.000345	3.445390	0.583665	0.000069
 494	4.9053e+01	9.8212	67.183994	0.000405	4.053400	0.686665	0.000081
 495	4.9153e+01	9.8403	67.244551	0.000304	3.040050	0.514998	0.000061
 496	4.9252e+01	9.8612	67.325294	0.000405	4.053400	0.686665	0.000081
 497	4.9352e+01	9.8820	67.373740	0.000243	2.432040	0.411999	0.000049
 498	4.9452e+01	9.9006	67.470631	0.000486	4.864080	0.823998	0.000097
 499	4.9551e+01	9.9200	67.527151	0.000284	2.837380	0.480665	0.000057
 500	4.9651e+01	9.9397	67.599819	0.000365	3.648060	0.617998	0.000073
 501	4.9750e+01	9.9602	67.664414	0.000324	3.242720	0.549332	0.000065
 502	4.9849e+01	9.9815	67.720933	0.000284	2.837380	0.480665	0.000057
 503	4.9949e+01	9.9999	67.817825	0.000486	4.864080	0.823998	0.000097
 504	5.0048e+01	9.9805	67.745156	0.000365	3.648060	0.617998	-0.000073
 505	5.0148e+01	9.9610	67.708822	0.000182	1.824030	0.308999	-0.000037
 506	5.0248e+01	9.9402	67.672488	0.000182	1.824030	0.308999	-0.000037
 507	5.0347e+01	9.9209	67.575597	0.000486	4.864080	0.823998	-0.000097
 508	5.0447e+01	9.9004	67.515040	0.000304	3.040050	0.514998	-0.000061
 509	5.0546e+01	9.8806	67.466594	0.000243	2.432040	0.411999	-0.000049
 510	5.0645e+01	9.8595	67.410074	0.000284	2.837380	0.480665	-0.000057
 511	5.0745e+01	9.8409	67.337406	0.000365	3.648060	0.617998	-0.000073
 512	5.0844e+01	9.8203	67.284923	0.000263	2.634710	0.446332	-0.000053
 513	5.0944e+01	9.8016	67.244551	0.000203	2.026700	0.343332	-0.000041
 514	5.1044e+01	9.7803	67.175920	0.000345	3.445390	0.583665	-0.000069
 515	5.1143e+01	9.7608	67.115363	0.000304	3.040050	0.514998	-0.000061
 516	5.1242e+01	9.7412	67.050769	0.000324	3.242720	0.549332	-0.000065
 517	5.1342e+01	9.7201	67.010398	0.000203	2.026700	0.343332	-0.000041
 518	5.1441e+01	9.7021	66.937729	0.000365	3.648060	0.617998	-0.000073
 519	5.1541e+01	9.6819	66.865061	0.000365	3.648060	0.617998	-0.000073
 520	5.1641e+01	9.6616	66.828726	0.000182	1.824030	0.308999	-0.000037
 521	5.1740e+01	9.6418	66.727798	0.000507	5.066750	0.858331	-0.000101
 522	5.1840e+01	9.6221	66.683390	0.000223	2.229370	0.377666	-0.000045
 523	5.1939e+01	9.6014	66.634944	0.000243	2.432040	0.411999	-0.000049
 524	5.2038e+01	9.5818	66.574387	0.000304	3.040050	0.514998	-0.000061
 525	5.2138e+01	9.5612	66.505756	0.000345	3.445390	0.583665	-0.000069
 526	5.2237e+01	9.5417	66.441161	0.000324	3.242720	0.549332	-0.000065
 527	5.2337e+01	9.5226	66.368493	0.000365	3.648060	0.617998	-0.000073
 528	5.2437e+01	9.5023	66.303899	0.000324	3.242720	0.549332	-0.000065
 529	5.2536e+01	9.4825	66.255453	0.000243	2.432040	0.411999	-0.000049
 530	5.2636e+01	9.4619	66.178748	0.000385	3.850730	0.652331	-0.000077
 531	5.2735e+01	9.4422	66.142413	0.000182	1.824030	0.308999	-0.000037
 532	5.2834e+01	9.4223	66.073782	0.000345	3.445390	0.583665	-0.000069
 533	5.2934e+01	9.4023	65.972854	0.000507	5.066750	0.858331	-0.000101
 534	5.3033e+01	9.3832	65.940557	0.000162	1.621360	0.274666	-0.000032
 535	5.3133e+01	9.3618	65.839628	0.000507	5.066750	0.858331	-0.000101
 536	5.3233e+01	9.3423	65.815405	0.000122	1.216020	0.205999	-0.000024
 537	5.3332e+01	9.3223	65.734663	0.000405	4.053400	0.686665	-0.000081
 538	5.3431e+01	9.3032	65.661994	0.000365	3.648060	0.617998	-0.000073
 539	5.3531e+01	9.2831	65.597400	0.000324	3.242720	0.549332	-0.000065
 540	5.3630e+01	9.2632	65.528769	0.000345	3.445390	0.583665	-0.000069
 541	5.3730e+01	9.2432	65.520694	0.000041	0.405340	0.068666	-0.000008
 542	5.3830e+01	9.2229	65.395543	0.000628	6.282770	1.064330	-0.000126
 543	5.3929e+01	9.2025	65.375358	0.000101	1.013350	0.171666	-0.000020
 544	5.4029e+01	9.1830	65.290578	0.000426	4.256070	0.720998	-0.000085
 545	5.4128e+01	9.1647	65.242132	0.000243	2.432040	0.411999	-0.000049
 546	5.4227e+01	9.1434	65.161389	0.000405	4.053400	0.686665	-0.000081
 547	5.4327e+01	9.1238	65.060461	0.000507	5.066750	0.858331	-0.000101
 548	5.4426e+01	9.1041	64.983755	0.000385	3.850730	0.652331	-0.000077
 549	5.4526e+01	9.0839	64.935310	0.000243	2.432040	0.411999	-0.000049
 550	5.4626e+01	9.0641	64.870716	0.000324	3.242720	0.549332	-0.000065
 551	5.4725e+01	9.0430	64.838419	0.000162	1.621360	0.274666	-0.000032
 552	5.4825e+01	9.0234	64.729416	0.000547	5.472090	0.926997	-0.000110
 553	5.4924e+01	9.0046	64.689044	0.000203	2.026700	0.343332	-0.000041
 554	5.5023e+01	8.9832	64.588116	0.000507	5.066750	0.858331	-0.000101
 555	5.5123e+01	8.9648	64.527559	0.000304	3.040050	0.514998	-0.000061
 556	5.5222e+01	8.9443	64.467002	0.000304	3.040050	0.514998	-0.000061
 557	5.5322e+01	8.9249	64.410482	0.000284	2.837380	0.480665	-0.000057
 558	5.5422e+01	8.9040	64.366074	0.000223	2.229370	0.377666	-0.000045
 559	5.5521e+01	8.8845	64.257071	0.000547	5.472090	0.926997	-0.000110
 560	5.5620e+01	8.8659	64.216700	0.000203	2.026700	0.343332	-0.000041
 561	5.5720e+01	8.8454	64.139994	0.000385	3.850730	0.652331	-0.000077
 562	5.5819e+01	8.8245	64.095586	0.000223	2.229370	0.377666	-0.000045
 563	5.5919e+01	8.8055	63.978509	0.000588	5.877430	0.995664	-0.000118
 564	5.6019e+01	8.7864	63.990620	-0.000061	-0.608010	-0.103000	0.000012
 565	5.6118e+01	8.7663	63.869506	0.000608	6.080100	1.029997	-0.000122
 566	5.6218e+01	8.7464	63.837209	0.000162	1.621360	0.274666	-0.000032
 567	5.6317e+01	8.7279	63.740318	0.000486	4.864080	0.823998	-0.000097
 568	5.6416e+01	8.7064	63.659575	0.000405	4.053400	0.686665	-0.000081
 569	5.6516e+01	8.6866	63.590944	0.000345	3.445390	0.583665	-0.000069
 570	5.6615e+01	8.6660	63.518275	0.000365	3.648060	0.617998	-0.000073
 571	5.6715e+01	8.6469	63.494052	0.000122	1.216020	0.205999	-0.000024
 572	5.6815e+01	8.6256	63.409272	0.000426	4.256070	0.720998	-0.000085
 573	5.6914e+01	8.6066	63.328530	0.000405	4.053400	0.686665	-0.000081
 574	5.7014e+01	8.5862	63.300270	0.000142	1.418690	0.240333	-0.000028
 575	5.7113e+01	8.5670	63.235676	0.000324	3.242720	0.549332	-0.000065
 576	5.7212e+01	8.5480	63.138784	0.000486	4.864080	0.823998	-0.000097
 577	5.7312e+01	8.5276	63.086302	0.000263	2.634710	0.446332	-0.000053
 578	5.7411e+01	8.5065	62.989410	0.000486	4.864080	0.823998	-0.000097
 579	5.7511e+01	8.4867	62.924816	0.000324	3.242720	0.549332	-0.000065
 580	5.7611e+01	8.4661	62.884445	0.000203	2.026700	0.343332	-0.000041
 581	5.7710e+01	8.4466	62.783516	0.000507	5.066750	0.858331	-0.000101
 582	5.7809e+01	8.4267	62.787554	-0.000020	-0.202670	-0.034333	0.000004
 583	5.7909e+01	8.4069	62.706811	0.000405	4.053400	0.686665	-0.000081
 584	5.8008e+01	8.3868	62.642217	0.000324	3.242720	0.549332	-0.000065
 585	5.8108e+01	8.3675	62.525140	0.000588	5.877430	0.995664	-0.000118
 586	5.8208e+01	8.3475	62.500917	0.000122	1.216020	0.205999	-0.000024
 587	5.8307e+01	8.3278	62.424211	0.000385	3.850730	0.652331	-0.000077
 588	5.8407e+01	8.3085	62.371729	0.000263	2.634710	0.446332	-0.000053
 589	5.8506e+01	8.2882	62.290986	0.000405	4.053400	0.686665	-0.000081
 590	5.8605e+01	8.2675	62.210243	0.000405	4.053400	0.686665	-0.000081
 591	5.8705e+01	8.2484	62.165835	0.000223	2.229370	0.377666	-0.000045
 592	5.8804e+01	8.2275	62.044721	0.000608	6.080100	1.029997	-0.000122
 593	5.8904e+01	8.2075	62.012424	0.000162	1.621360	0.274666	-0.000032
 594	5.9004e+01	8.1879	61.951866	0.000304	3.040050	0.514998	-0.000061
 595	5.9103e+01	8.1681	61.895347	0.000284	2.837380	0.480665	-0.000057
 596	5.9203e+01	8.1480	61.806530	0.000446	4.458740	0.755331	-0.000089
 597	5.9302e+01	8.1283	61.733861	0.000365	3.648060	0.617998	-0.000073
 598	5.9401e+01	8.1078	61.681378	0.000263	2.634710	0.446332	-0.000053
 599	5.9501e+01	8.0889	61.564301	0.000588	5.877430	0.995664	-0.000118
 600	5.9600e+01	8.0682	61.532004	0.000162	1.621360	0.274666	-0.000032
 601	5.9700e+01	8.0486	61.467410	0.000324	3.242720	0.549332	-0.000065
 602	5.9800e+01	8.0286	61.358408	0.000547	5.472090	0.926997	-0.000110
 603	5.9899e+01	8.0090	61.309962	0.000243	2.432040	0.411999	-0.000049
 604	5.9998e+01	7.9887	61.229219	0.000405	4.053400	0.686665	-0.000081
 605	6.0098e+01	7.9683	61.172699	0.000284	2.837380	0.480665	-0.000057
 606	6.0197e+01	7.9485	61.112142	0.000304	3.040050	0.514998	-0.000061
 607	6.0297e+01	7.9288	61.027362	0.000426	4.256070	0.720998	-0.000085
 608	6.0397e+01	7.9092	60.986991	0.000203	2.026700	0.343332	-0.000041
 609	6.0496e+01	7.8892	60.910285	0.000385	3.850730	0.652331	-0.000077
 610	6.0596e+01	7.8699	60.821468	0.000446	4.458740	0.755331	-0.000089
 611	6.0695e+01	7.8497	60.724577	0.000486	4.864080	0.823998	-0.000097
 612	6.0794e+01	7.8291	60.672094	0.000263	2.634710	0.446332	-0.000053
 613	6.0894e+01	7.8103	60.627686	0.000223	2.229370	0.377666	-0.000045
 614	6.0993e+01	7.7901	60.526758	0.000507	5.066750	0.858331	-0.000101
 615	6.1093e+01	7.7702	60.474275	0.000263	2.634710	0.446332	-0.000053
 616	6.1193e+01	7.7493	60.421792	0.000263	2.634710	0.446332	-0.000053
 617	6.1292e+01	7.7305	60.324901	0.000486	4.864080	0.823998	-0.000097
 618	6.1392e+01	7.7108	60.240121	0.000426	4.256070	0.720998	-0.000085
 619	6.1491e+01	7.6900	60.195712	0.000223	2.229370	0.377666	-0.000045
 620	6.1590e+01	7.6702	60.127081	0.000345	3.445390	0.583665	-0.000069
 621	6.1690e+01	7.6504	60.022116	0.000527	5.269420	0.892664	-0.000105
 622	6.1789e+01	7.6302	60.001930	0.000101	1.013350	0.171666	-0.000020
 623	6.1889e+01	7.6097	59.888890	0.000567	5.674760	0.961330	-0.000114
 624	6.1989e+01	7.5892	59.787962	0.000507	5.066750	0.858331	-0.000101
 625	6.2088e+01	7.5706	59.775850	0.000061	0.608010	0.103000	-0.000012
 626	6.2188e+01	7.5501	59.719330	0.000284	2.837380	0.480665	-0.000057
 627	6.2287e+01	7.5307	59.586105	0.000669	6.688110	1.132997	-0.000134
 628	6.2386e+01	7.5109	59.537659	0.000243	2.432040	0.411999	-0.000049
 629	6.2486e+01	7.4918	59.448842	0.000446	4.458740	0.755331	-0.000089
 630	6.2586e+01	7.4709	59.400397	0.000243	2.432040	0.411999	-0.000049
 631	6.2685e+01	7.4512	59.319654	0.000405	4.053400	0.686665	-0.000081
 632	6.2785e+01	7.4310	59.267171	0.000263	2.634710	0.446332	-0.000053
 633	6.2884e+01	7.4117	59.190466	0.000385	3.850730	0.652331	-0.000077
 634	6.2983e+01	7.3908	59.109723	0.000405	4.053400	0.686665	-0.000081
 635	6.3083e+01	7.3710	59.057240	0.000263	2.634710	0.446332	-0.000053
 636	6.3182e+01	7.3518	58.972460	0.000426	4.256070	0.720998	-0.000085
 637	6.3282e+01	7.3324	58.895755	0.000385	3.850730	0.652331	-0.000077
 638	6.3382e+01	7.3109	58.819049	0.000385	3.850730	0.652331	-0.000077
 639	6.3481e+01	7.2918	58.758492	0.000304	3.040050	0.514998	-0.000061
 640	6.3581e+01	7.2715	58.665638	0.000466	4.661410	0.789664	-0.000093
 641	6.3680e+01	7.2515	58.592970	0.000365	3.648060	0.617998	-0.000073
 642	6.3779e+01	7.2311	58.479930	0.000567	5.674760	0.961330	-0.000114
 643	6.3879e+01	7.2124	58.435521	0.000223	2.229370	0.377666	-0.000045
 644	6.3978e+01	7.1926	58.370927	0.000324	3.242720	0.549332	-0.000065
 645	6.4078e+01	7.1709	58.286147	0.000426	4.256070	0.720998	-0.000085
 646	6.4177e+01	7.1533	58.225590	0.000304	3.040050	0.514998	-0.000061
 647	6.4277e+01	7.1315	58.165033	0.000304	3.040050	0.514998	-0.000061
 648	6.4376e+01	7.1124	58.080253	0.000426	4.256070	0.720998	-0.000085
 649	6.4476e+01	7.0934	58.011622	0.000345	3.445390	0.583665	-0.000069
 650	6.4576e+01	7.0726	57.914731	0.000486	4.864080	0.823998	-0.000097
 651	6.4675e+01	7.0531	57.813802	0.000507	5.066750	0.858331	-0.000101
 652	6.4775e+01	7.0332	57.781505	0.000162	1.621360	0.274666	-0.000032
 653	6.4874e+01	7.0121	57.668465	0.000567	5.674760	0.961330	-0.000114
 654	6.4974e+01	6.9923	57.628094	0.000203	2.026700	0.343332	-0.000041
 655	6.5073e+01	6.9738	57.535240	0.000466	4.661410	0.789664	-0.000093
 656	6.5172e+01	6.9537	57.450460	0.000426	4.256070	0.720998	-0.000085
 657	6.5272e+01	6.9330	57.353569	0.000486	4.864080	0.823998	-0.000097
 658	6.5371e+01	6.9126	57.260715	0.000466	4.661410	0.789664	-0.000093
 659	6.5471e+01	6.8938	57.212269	0.000243	2.432040	0.411999	-0.000049
 660	6.5570e+01	6.8736	57.119415	0.000466	4.661410	0.789664	-0.000093
 661	6.5670e+01	6.8536	57.054821	0.000324	3.242720	0.549332	-0.000065
 662	6.5769e+01	6.8333	56.978115	0.000385	3.850730	0.652331	-0.000077
 663	6.5869e+01	6.8136	56.909484	0.000345	3.445390	0.583665	-0.000069
 664	6.5969e+01	6.7944	56.788370	0.000608	6.080100	1.029997	-0.000122
 665	6.6068e+01	6.7747	56.743961	0.000223	2.229370	0.377666	-0.000045
 666	6.6168e+01	6.7535	56.667256	0.000385	3.850730	0.652331	-0.000077
 667	6.6267e+01	6.7335	56.606699	0.000304	3.040050	0.514998	-0.000061
 668	6.6367e+01	6.7141	56.497696	0.000547	5.472090	0.926997	-0.000110
 669	6.6466e+01	6.6941	56.404842	0.000466	4.661410	0.789664	-0.000093
 670	6.6566e+01	6.6741	56.336211	0.000345	3.445390	0.583665	-0.000069
 671	6.6665e+01	6.6543	56.235282	0.000507	5.066750	0.858331	-0.000101
 672	6.6764e+01	6.6332	56.186837	0.000243	2.432040	0.411999	-0.000049
 673	6.6864e+01	6.6151	56.126280	0.000304	3.040050	0.514998	-0.000061
 674	6.6963e+01	6.5945	56.041500	0.000426	4.256070	0.720998	-0.000085
 675	6.7063e+01	6.5742	55.932497	0.000547	5.472090	0.926997	-0.000110
 676	6.7162e+01	6.5542	55.892126	0.000203	2.026700	0.343332	-0.000041
 677	6.7262e+01	6.5353	55.775049	0.000588	5.877430	0.995664	-0.000118
 678	6.7362e+01	6.5147	55.706417	0.000345	3.445390	0.583665	-0.000069
 679	6.7461e+01	6.4946	55.633749	0.000365	3.648060	0.617998	-0.000073
 680	6.7561e+01	6.4758	55.577229	0.000284	2.837380	0.480665	-0.000057
 681	6.7660e+01	6.4547	55.464189	0.000567	5.674760	0.961330	-0.000114
 682	6.7760e+01	6.4363	55.347112	0.000588	5.877430	0.995664	-0.000118
 683	6.7859e+01	6.4138	55.298667	0.000243	2.432040	0.411999	-0.000049
 684	6.7959e+01	6.3956	55.197738	0.000507	5.066750	0.858331	-0.000101
 685	6.8058e+01	6.3749	55.137181	0.000304	3.040050	0.514998	-0.000061
 686	6.8157e+01	6.3555	55.068550	0.000345	3.445390	0.583665	-0.000069
 687	6.8257e+01	6.3354	54.959547	0.000547	5.472090	0.926997	-0.000110
 688	6.8356e+01	6.3158	54.919176	0.000203	2.026700	0.343332	-0.000041
 689	6.8456e+01	6.2965	54.826322	0.000466	4.661410	0.789664	-0.000093
 690	6.8555e+01	6.2756	54.757691	0.000345	3.445390	0.583665	-0.000069
 691	6.8655e+01	6.2555	54.656762	0.000507	5.066750	0.858331	-0.000101
 692	6.8754e+01	6.2370	54.576019	0.000405	4.053400	0.686665	-0.000081
 693	6.8854e+01	6.2157	54.495277	0.000405	4.053400	0.686665	-0.000081
 694	6.8954e+01	6.1967	54.438757	0.000284	2.837380	0.480665	-0.000057
 695	6.9053e+01	6.1773	54.386274	0.000263	2.634710	0.446332	-0.000053
 696	6.9153e+01	6.1570	54.249011	0.000689	6.890780	1.167330	-0.000138
 697	6.9252e+01	6.1367	54.204603	0.000223	2.229370	0.377666	-0.000045
 698	6.9352e+01	6.1169	54.103675	0.000507	5.066750	0.858331	-0.000101
 699	6.9451e+01	6.0967	53.990635	0.000567	5.674760	0.961330	-0.000114
 700	6.9550e+01	6.0754	53.913929	0.000385	3.850730	0.652331	-0.000077
 701	6.9650e+01	6.0571	53.853372	0.000304	3.040050	0.514998	-0.000061
 702	6.9749e+01	6.0368	53.756481	0.000486	4.864080	0.823998	-0.000097
 703	6.9849e+01	6.0175	53.671701	0.000426	4.256070	0.720998	-0.000085
 704	6.9948e+01	5.9972	53.607107	0.000324	3.242720	0.549332	-0.000065
 705	7.0048e+01	5.9776	53.526364	0.000405	4.053400	0.686665	-0.000081
 706	7.0147e+01	5.9577	53.461770	0.000324	3.242720	0.549332	-0.000065
 707	7.0247e+01	5.9380	53.372953	0.000446	4.458740	0.755331	-0.000089
 708	7.0347e+01	5.9177	53.243765	0.000649	6.485440	1.098663	-0.000130
 709	7.0446e+01	5.8971	53.223579	0.000101	1.013350	0.171666	-0.000020
 710	7.0546e+01	5.8773	53.110539	0.000567	5.674760	0.961330	-0.000114
 711	7.0645e+01	5.8585	53.001537	0.000547	5.472090	0.926997	-0.000110
 712	7.0745e+01	5.8370	52.940980	0.000304	3.040050	0.514998	-0.000061
 713	7.0844e+01	5.8178	52.848125	0.000466	4.661410	0.789664	-0.000093
 714	7.0944e+01	5.7977	52.763346	0.000426	4.256070	0.720998	-0.000085
 715	7.1043e+01	5.7787	52.706826	0.000284	2.837380	0.480665	-0.000057
 716	7.1142e+01	5.7577	52.622046	0.000426	4.256070	0.720998	-0.000085
 717	7.1242e+01	5.7384	52.533229	0.000446	4.458740	0.755331	-0.000089
 718	7.1341e+01	5.7175	52.428263	0.000527	5.269420	0.892664	-0.000105
 719	7.1441e+01	5.6980	52.347521	0.000405	4.053400	0.686665	-0.000081
 720	7.1540e+01	5.6780	52.230444	0.000588	5.877430	0.995664	-0.000118
 721	7.1640e+01	5.6573	52.169887	0.000304	3.040050	0.514998	-0.000061
 722	7.1740e+01	5.6382	52.113367	0.000284	2.837380	0.480665	-0.000057
 723	7.1839e+01	5.6182	51.984178	0.000649	6.485440	1.098663	-0.000130
 724	7.1939e+01	5.5987	51.915547	0.000345	3.445390	0.583665	-0.000069
 725	7.2038e+01	5.5785	51.846916	0.000345	3.445390	0.583665	-0.000069
 726	7.2138e+01	5.5584	51.745987	0.000507	5.066750	0.858331	-0.000101
 727	7.2237e+01	5.5392	51.677356	0.000345	3.445390	0.583665	-0.000069
 728	7.2337e+01	5.5196	51.632948	0.000223	2.229370	0.377666	-0.000045
 729	7.2436e+01	5.4992	51.532019	0.000507	5.066750	0.858331	-0.000101
 730	7.2535e+01	5.4794	51.398794	0.000669	6.688110	1.132997	-0.000134
 731	7.2635e+01	5.4595	51.346311	0.000263	2.634710	0.446332	-0.000053
 732	7.2734e+01	5.4394	51.253457	0.000466	4.661410	0.789664	-0.000093
 733	7.2834e+01	5.4180	51.160603	0.000466	4.661410	0.789664	-0.000093
 734	7.2933e+01	5.3986	51.100046	0.000304	3.040050	0.514998	-0.000061
 735	7.3033e+01	5.3799	51.011229	0.000446	4.458740	0.755331	-0.000089
 736	7.3132e+01	5.3597	50.950672	0.000304	3.040050	0.514998	-0.000061
 737	7.3232e+01	5.3395	50.857817	0.000466	4.661410	0.789664	-0.000093
 738	7.3332e+01	5.3204	50.785149	0.000365	3.648060	0.617998	-0.000073
 739	7.3431e+01	5.2989	50.651924	0.000669	6.688110	1.132997	-0.000134
 740	7.3531e+01	5.2804	50.575218	0.000385	3.850730	0.652331	-0.000077
 741	7.3630e+01	5.2593	50.526772	0.000243	2.432040	0.411999	-0.000049
 742	7.3730e+01	5.2404	50.450067	0.000385	3.850730	0.652331	-0.000077
 743	7.3829e+01	5.2207	50.369324	0.000405	4.053400	0.686665	-0.000081
 744	7.3928e+01	5.1989	50.260321	0.000547	5.472090	0.926997	-0.000110
 745	7.4028e+01	5.1806	50.183616	0.000385	3.850730	0.652331	-0.000077
 746	7.4127e+01	5.1595	50.054427	0.000649	6.485440	1.098663	-0.000130
 747	7.4227e+01	5.1403	50.001945	0.000263	2.634710	0.446332	-0.000053
 748	7.4326e+01	5.1208	49.925239	0.000385	3.850730	0.652331	-0.000077
 749	7.4426e+01	5.1006	49.844496	0.000405	4.053400	0.686665	-0.000081
 750	7.4525e+01	5.0803	49.763754	0.000405	4.053400	0.686665	-0.000081
 751	7.4625e+01	5.0602	49.662825	0.000507	5.066750	0.858331	-0.000101
 752	7.4725e+01	5.0408	49.582083	0.000405	4.053400	0.686665	-0.000081
 753	7.4824e+01	5.0214	49.501340	0.000405	4.053400	0.686665	-0.000081
 754	7.4924e+01	5.0005	49.424634	0.000385	3.850730	0.652331	-0.000077
 755	7.5023e+01	4.9808	49.323706	0.000507	5.066750	0.858331	-0.000101
 756	7.5123e+01	4.9618	49.275260	0.000243	2.432040	0.411999	-0.000049
 757	7.5222e+01	4.9418	49.154146	0.000608	6.080100	1.029997	-0.000122
 758	7.5322e+01	4.9218	49.101663	0.000263	2.634710	0.446332	-0.000053
 759	7.5421e+01	4.9014	48.976512	0.000628	6.282770	1.064330	-0.000126
 760	7.5520e+01	4.8817	48.944215	0.000162	1.621360	0.274666	-0.000032
 761	7.5620e+01	4.8623	48.835212	0.000547	5.472090	0.926997	-0.000110
 762	7.5719e+01	4.8420	48.718136	0.000588	5.877430	0.995664	-0.000118
 763	7.5819e+01	4.8219	48.641430	0.000385	3.850730	0.652331	-0.000077
 764	7.5918e+01	4.8022	48.532427	0.000547	5.472090	0.926997	-0.000110
 765	7.6018e+01	4.7819	48.455722	0.000385	3.850730	0.652331	-0.000077
 766	7.6118e+01	4.7616	48.379016	0.000385	3.850730	0.652331	-0.000077
 767	7.6217e+01	4.7411	48.298273	0.000405	4.053400	0.686665	-0.000081
 768	7.6317e+01	4.7227	48.221568	0.000385	3.850730	0.652331	-0.000077
 769	7.6416e+01	4.7024	48.128714	0.000466	4.661410	0.789664	-0.000093
 770	7.6516e+01	4.6825	48.007600	0.000608	6.080100	1.029997	-0.000122
 771	7.6615e+01	4.6624	47.918783	0.000446	4.458740	0.755331	-0.000089
 772	7.6715e+01	4.6425	47.870337	0.000243	2.432040	0.411999	-0.000049
 773	7.6814e+01	4.6227	47.753260	0.000588	5.877430	0.995664	-0.000118
 774	7.6913e+01	4.6028	47.696740	0.000284	2.837380	0.480665	-0.000057
 775	7.7013e+01	4.5834	47.595812	0.000507	5.066750	0.858331	-0.000101
 776	7.7112e+01	4.5631	47.539292	0.000284	2.837380	0.480665	-0.000057
 777	7.7212e+01	4.5431	47.397992	0.000709	7.093450	1.201663	-0.000142
 778	7.7311e+01	4.5232	47.349547	0.000243	2.432040	0.411999	-0.000049
 779	7.7411e+01	4.5040	47.232470	0.000588	5.877430	0.995664	-0.000118
 780	7.7510e+01	4.4826	47.139615	0.000466	4.661410	0.789664	-0.000093
 781	7.7610e+01	4.4630	47.062910	0.000385	3.850730	0.652331	-0.000077
 782	7.7710e+01	4.4425	46.957944	0.000527	5.269420	0.892664	-0.000105
 783	7.7809e+01	4.4230	46.897387	0.000304	3.040050	0.514998	-0.000061
 784	7.7909e+01	4.4029	46.760125	0.000689	6.890780	1.167330	-0.000138
 785	7.8008e+01	4.3832	46.663233	0.000486	4.864080	0.823998	-0.000097
 786	7.8108e+01	4.3639	46.598639	0.000324	3.242720	0.549332	-0.000065
 787	7.8207e+01	4.3444	46.505785	0.000466	4.661410	0.789664	-0.000093
 788	7.8306e+01	4.3240	46.437154	0.000345	3.445390	0.583665	-0.000069
 789	7.8406e+01	4.3044	46.348337	0.000446	4.458740	0.755331	-0.000089
 790	7.8505e+01	4.2843	46.255483	0.000466	4.661410	0.789664	-0.000093
 791	7.8605e+01	4.2637	46.154554	0.000507	5.066750	0.858331	-0.000101
 792	7.8704e+01	4.2431	46.089960	0.000324	3.242720	0.549332	-0.000065
 793	7.8804e+01	4.2236	45.968846	0.000608	6.080100	1.029997	-0.000122
 794	7.8903e+01	4.2040	45.880029	0.000446	4.458740	0.755331	-0.000089
 795	7.9003e+01	4.1843	45.787175	0.000466	4.661410	0.789664	-0.000093
 796	7.9103e+01	4.1636	45.710469	0.000385	3.850730	0.652331	-0.000077
 797	7.9202e+01	4.1452	45.625690	0.000426	4.256070	0.720998	-0.000085
 798	7.9302e+01	4.1253	45.536873	0.000446	4.458740	0.755331	-0.000089
 799	7.9401e+01	4.1041	45.419796	0.000588	5.877430	0.995664	-0.000118
 800	7.9501e+01	4.0842	45.339053	0.000405	4.053400	0.686665	-0.000081
 801	7.9600e+01	4.0649	45.226013	0.000567	5.674760	0.961330	-0.000114
 802	7.9700e+01	4.0446	45.149308	0.000385	3.850730	0.652331	-0.000077
 803	7.9799e+01	4.0248	45.068565	0.000405	4.053400	0.686665	-0.000081
 804	7.9898e+01	4.0054	44.995896	0.000365	3.648060	0.617998	-0.000073
 805	7.9998e+01	3.9849	44.890931	0.000527	5.269420	0.892664	-0.000105
 806	8.0097e+01	3.9657	44.794040	0.000486	4.864080	0.823998	-0.000097
 807	8.0197e+01	3.9446	44.713297	0.000405	4.053400	0.686665	-0.000081
 808	8.0296e+01	3.9251	44.620443	0.000466	4.661410	0.789664	-0.000093
 809	8.0396e+01	3.9056	44.507403	0.000567	5.674760	0.961330	-0.000114
 810	8.0496e+01	3.8860	44.414549	0.000466	4.661410	0.789664	-0.000093
 811	8.0595e+01	3.8652	44.374177	0.000203	2.026700	0.343332	-0.000041
 812	8.0695e+01	3.8464	44.228841	0.000730	7.296120	1.235996	-0.000146
 813	8.0794e+01	3.8254	44.148098	0.000405	4.053400	0.686665	-0.000081
 814	8.0894e+01	3.8048	44.051207	0.000486	4.864080	0.823998	-0.000097
 815	8.0993e+01	3.7853	43.922018	0.000649	6.485440	1.098663	-0.000130
 816	8.1093e+01	3.7663	43.849350	0.000365	3.648060	0.617998	-0.000073
 817	8.1192e+01	3.7463	43.756496	0.000466	4.661410	0.789664	-0.000093
 818	8.1291e+01	3.7261	43.671716	0.000426	4.256070	0.720998	-0.000085
 819	8.1391e+01	3.7064	43.586936	0.000426	4.256070	0.720998	-0.000085
 820	8.1490e+01	3.6857	43.498119	0.000446	4.458740	0.755331	-0.000089
 821	8.1590e+01	3.6669	43.389116	0.000547	5.472090	0.926997	-0.000110
 822	8.1689e+01	3.6466	43.259928	0.000649	6.485440	1.098663	-0.000130
 823	8.1789e+01	3.6269	43.175148	0.000426	4.256070	0.720998	-0.000085
 824	8.1888e+01	3.6068	43.074220	0.000507	5.066750	0.858331	-0.000101
 825	8.1988e+01	3.5867	42.997514	0.000385	3.850730	0.652331	-0.000077
 826	8.2088e+01	3.5661	42.920809	0.000385	3.850730	0.652331	-0.000077
 827	8.2187e+01	3.5471	42.771435	0.000750	7.498790	1.270329	-0.000150
 828	8.2287e+01	3.5271	42.690692	0.000405	4.053400	0.686665	-0.000081
 829	8.2386e+01	3.5066	42.589763	0.000507	5.066750	0.858331	-0.000101
 830	8.2486e+01	3.4879	42.509021	0.000405	4.053400	0.686665	-0.000081
 831	8.2585e+01	3.4669	42.408092	0.000507	5.066750	0.858331	-0.000101
 832	8.2684e+01	3.4473	42.323313	0.000426	4.256070	0.720998	-0.000085
 833	8.2784e+01	3.4273	42.173938	0.000750	7.498790	1.270329	-0.000150
 834	8.2883e+01	3.4068	42.109344	0.000324	3.242720	0.549332	-0.000065
 835	8.2983e+01	3.3872	42.000342	0.000547	5.472090	0.926997	-0.000110
 836	8.3082e+01	3.3677	41.899413	0.000507	5.066750	0.858331	-0.000101
 837	8.3182e+01	3.3474	41.794448	0.000527	5.269420	0.892664	-0.000105
 838	8.3281e+01	3.3273	41.701594	0.000466	4.661410	0.789664	-0.000093
 839	8.3381e+01	3.3077	41.612777	0.000446	4.458740	0.755331	-0.000089
 840	8.3481e+01	3.2876	41.455328	0.000790	7.904130	1.338996	-0.000158
 841	8.3580e+01	3.2677	41.410920	0.000223	2.229370	0.377666	-0.000045
 842	8.3680e+01	3.2478	41.297880	0.000567	5.674760	0.961330	-0.000114
 843	8.3779e+01	3.2286	41.200989	0.000486	4.864080	0.823998	-0.000097
 844	8.3879e+01	3.2076	41.132357	0.000345	3.445390	0.583665	-0.000069
 845	8.3978e+01	3.1881	41.007206	0.000628	6.282770	1.064330	-0.000126
 846	8.4078e+01	3.1682	40.922426	0.000426	4.256070	0.720998	-0.000085
 847	8.4177e+01	3.1483	40.817461	0.000527	5.269420	0.892664	-0.000105
 848	8.4276e+01	3.1281	40.688273	0.000649	6.485440	1.098663	-0.000130
 849	8.4376e+01	3.1078	40.627715	0.000304	3.040050	0.514998	-0.000061
 850	8.4475e+01	3.0882	40.482379	0.000730	7.296120	1.235996	-0.000146
 851	8.4575e+01	3.0684	40.393562	0.000446	4.458740	0.755331	-0.000089
 852	8.4674e+01	3.0481	40.288596	0.000527	5.269420	0.892664	-0.000105
 853	8.4774e+01	3.0274	40.215928	0.000365	3.648060	0.617998	-0.000073
 854	8.4874e+01	3.0091	40.094814	0.000608	6.080100	1.029997	-0.000122
 855	8.4973e+01	2.9882	40.005997	0.000446	4.458740	0.755331	-0.000089
 856	8.5073e+01	2.9688	39.937365	0.000345	3.445390	0.583665	-0.000069
 857	8.5172e+01	2.9481	39.844511	0.000466	4.661410	0.789664	-0.000093
 858	8.5272e+01	2.9288	39.719360	0.000628	6.282770	1.064330	-0.000126
 859	8.5371e+01	2.9079	39.614394	0.000527	5.269420	0.892664	-0.000105
 860	8.5471e+01	2.8881	39.509429	0.000527	5.269420	0.892664	-0.000105
 861	8.5570e+01	2.8696	39.400426	0.000547	5.472090	0.926997	-0.000110
 862	8.5669e+01	2.8491	39.283349	0.000588	5.877430	0.995664	-0.000118
 863	8.5769e+01	2.8296	39.198569	0.000426	4.256070	0.720998	-0.000085
 864	8.5868e+01	2.8095	39.125901	0.000365	3.648060	0.617998	-0.000073
 865	8.5968e+01	2.7892	38.980564	0.000730	7.296120	1.235996	-0.000146
 866	8.6067e+01	2.7699	38.940193	0.000203	2.026700	0.343332	-0.000041
 867	8.6167e+01	2.7491	38.798893	0.000709	7.093450	1.201663	-0.000142
 868	8.6266e+01	2.7299	38.706039	0.000466	4.661410	0.789664	-0.000093
 869	8.6366e+01	2.7102	38.576851	0.000649	6.485440	1.098663	-0.000130
 870	8.6466e+01	2.6900	38.500145	0.000385	3.850730	0.652331	-0.000077
 871	8.6565e+01	2.6696	38.403254	0.000486	4.864080	0.823998	-0.000097
 872	8.6665e+01	2.6502	38.334622	0.000345	3.445390	0.583665	-0.000069
 873	8.6764e+01	2.6305	38.197360	0.000689	6.890780	1.167330	-0.000138
 874	8.6864e+01	2.6093	38.084320	0.000567	5.674760	0.961330	-0.000114
 875	8.6963e+01	2.5901	37.979354	0.000527	5.269420	0.892664	-0.000105
 876	8.7063e+01	2.5706	37.882463	0.000486	4.864080	0.823998	-0.000097
 877	8.7162e+01	2.5499	37.797683	0.000426	4.256070	0.720998	-0.000085
 878	8.7261e+01	2.5304	37.640235	0.000790	7.904130	1.338996	-0.000158
 879	8.7361e+01	2.5105	37.559492	0.000405	4.053400	0.686665	-0.000081
 880	8.7460e+01	2.4908	37.458564	0.000507	5.066750	0.858331	-0.000101
 881	8.7560e+01	2.4703	37.361673	0.000486	4.864080	0.823998	-0.000097
 882	8.7659e+01	2.4506	37.212299	0.000750	7.498790	1.270329	-0.000150
 883	8.7759e+01	2.4306	37.167890	0.000223	2.229370	0.377666	-0.000045
 884	8.7859e+01	2.4114	37.046776	0.000608	6.080100	1.029997	-0.000122
 885	8.7958e+01	2.3917	36.933736	0.000567	5.674760	0.961330	-0.000114
 886	8.8058e+01	2.3711	36.840882	0.000466	4.661410	0.789664	-0.000093
 887	8.8157e+01	2.3512	36.735917	0.000527	5.269420	0.892664	-0.000105
 888	8.8257e+01	2.3306	36.614803	0.000608	6.080100	1.029997	-0.000122
 889	8.8356e+01	2.3110	36.517911	0.000486	4.864080	0.823998	-0.000097
 890	8.8456e+01	2.2916	36.421020	0.000486	4.864080	0.823998	-0.000097
 891	8.8555e+01	2.2713	36.312017	0.000547	5.472090	0.926997	-0.000110
 892	8.8654e+01	2.2517	36.215126	0.000486	4.864080	0.823998	-0.000097
 893	8.8754e+01	2.2315	36.110161	0.000527	5.269420	0.892664	-0.000105
 894	8.8853e+01	2.2110	35.997121	0.000567	5.674760	0.961330	-0.000114
 895	8.8953e+01	2.1928	35.904267	0.000466	4.661410	0.789664	-0.000093
 896	8.9052e+01	2.1719	35.815450	0.000446	4.458740	0.755331	-0.000089
 897	8.9152e+01	2.1531	35.730670	0.000426	4.256070	0.720998	-0.000085
 898	8.9251e+01	2.1313	35.601482	0.000649	6.485440	1.098663	-0.000130
 899	8.9351e+01	2.1117	35.476330	0.000628	6.282770	1.064330	-0.000126
 900	8.9451e+01	2.0911	35.383476	0.000466	4.661410	0.789664	-0.000093
 901	8.9550e+01	2.0724	35.282548	0.000507	5.066750	0.858331	-0.000101
 902	8.9650e+01	2.0529	35.226028	0.000284	2.837380	0.480665	-0.000057
 903	8.9749e+01	2.0310	35.060505	0.000831	8.309471	1.407662	-0.000166
 904	8.9849e+01	2.0118	35.003985	0.000284	2.837380	0.480665	-0.000057
 905	8.9948e+01	1.9914	34.927280	0.000385	3.850730	0.652331	-0.000077
 906	9.0047e+01	1.9726	34.785980	0.000709	7.093450	1.201663	-0.000142
 907	9.0147e+01	1.9524	34.668903	0.000588	5.877430	0.995664	-0.000118
 908	9.0246e+01	1.9324	34.563938	0.000527	5.269420	0.892664	-0.000105
 909	9.0346e+01	1.9135	34.515492	0.000243	2.432040	0.411999	-0.000049
 910	9.0445e+01	1.8925	34.398415	0.000588	5.877430	0.995664	-0.000118
 911	9.0545e+01	1.8732	34.293450	0.000527	5.269420	0.892664	-0.000105
 912	9.0644e+01	1.8532	34.180410	0.000567	5.674760	0.961330	-0.000114
 913	9.0744e+01	1.8333	34.059296	0.000608	6.080100	1.029997	-0.000122
 914	9.0844e+01	1.8126	33.970479	0.000446	4.458740	0.755331	-0.000089
 915	9.0943e+01	1.7930	33.869550	0.000507	5.066750	0.858331	-0.000101
 916	9.1043e+01	1.7730	33.748436	0.000608	6.080100	1.029997	-0.000122
 917	9.1142e+01	1.7533	33.679805	0.000345	3.445390	0.583665	-0.000069
 918	9.1242e+01	1.7327	33.566765	0.000567	5.674760	0.961330	-0.000114
 919	9.1341e+01	1.7136	33.465837	0.000507	5.066750	0.858331	-0.000101
 920	9.1441e+01	1.6930	33.312426	0.000770	7.701460	1.304663	-0.000154
 921	9.1540e+01	1.6739	33.263980	0.000243	2.432040	0.411999	-0.000049
 922	9.1639e+01	1.6529	33.159014	0.000527	5.269420	0.892664	-0.000105
 923	9.1739e+01	1.6332	32.993492	0.000831	8.309471	1.407662	-0.000166
 924	9.1838e+01	1.6137	32.904675	0.000446	4.458740	0.755331	-0.000089
 925	9.1938e+01	1.5939	32.836044	0.000345	3.445390	0.583665	-0.000069
 926	9.2037e+01	1.5743	32.731078	0.000527	5.269420	0.892664	-0.000105
 927	9.2137e+01	1.5545	32.601890	0.000649	6.485440	1.098663	-0.000130
 928	9.2237e+01	1.5339	32.476738	0.000628	6.282770	1.064330	-0.000126
 929	9.2336e+01	1.5145	32.416181	0.000304	3.040050	0.514998	-0.000061
 930	9.2436e+01	1.4936	32.319290	0.000486	4.864080	0.823998	-0.000097
 931	9.2535e+01	1.4742	32.194139	0.000628	6.282770	1.064330	-0.000126
 932	9.2635e+01	1.4536	32.113396	0.000405	4.053400	0.686665	-0.000081
 933	9.2734e+01	1.4336	32.008431	0.000527	5.269420	0.892664	-0.000105
 934	9.2834e+01	1.4145	31.867131	0.000709	7.093450	1.201663	-0.000142
 935	9.2933e+01	1.3947	31.798500	0.000345	3.445390	0.583665	-0.000069
 936	9.3032e+01	1.3743	31.661237	0.000689	6.890780	1.167330	-0.000138
 937	9.3132e+01	1.3543	31.548197	0.000567	5.674760	0.961330	-0.000114
 938	9.3231e+01	1.3346	31.463417	0.000426	4.256070	0.720998	-0.000085
 939	9.3331e+01	1.3153	31.334229	0.000649	6.485440	1.098663	-0.000130
 940	9.3430e+01	1.2948	31.285783	0.000243	2.432040	0.411999	-0.000049
 941	9.3530e+01	1.2753	31.156595	0.000649	6.485440	1.098663	-0.000130
 942	9.3629e+01	1.2553	31.019332	0.000689	6.890780	1.167330	-0.000138
 943	9.3729e+01	1.2361	30.938590	0.000405	4.053400	0.686665	-0.000081
 944	9.3829e+01	1.2164	30.813439	0.000628	6.282770	1.064330	-0.000126
 945	9.3928e+01	1.1965	30.732696	0.000405	4.053400	0.686665	-0.000081
 946	9.4028e+01	1.1756	30.607545	0.000628	6.282770	1.064330	-0.000126
 947	9.4127e+01	1.1553	30.522765	0.000426	4.256070	0.720998	-0.000085
 948	9.4227e+01	1.1361	30.373391	0.000750	7.498790	1.270329	-0.000150
 949	9.4326e+01	1.1156	30.288611	0.000426	4.256070	0.720998	-0.000085
 950	9.4425e+01	1.0964	30.155385	0.000669	6.688110	1.132997	-0.000134
 951	9.4525e+01	1.0771	30.074643	0.000405	4.053400	0.686665	-0.000081
 952	9.4624e+01	1.0568	29.913157	0.000811	8.106800	1.373329	-0.000162
 953	9.4724e+01	1.0364	29.828377	0.000426	4.256070	0.720998	-0.000085
 954	9.4823e+01	1.0168	29.743598	0.000426	4.256070	0.720998	-0.000085
 955	9.4923e+01	0.9966	29.618446	0.000628	6.282770	1.064330	-0.000126
 956	9.5022e+01	0.9762	29.537704	0.000405	4.053400	0.686665	-0.000081
 957	9.5122e+01	0.9573	29.416590	0.000608	6.080100	1.029997	-0.000122
 958	9.5222e+01	0.9365	29.311624	0.000527	5.269420	0.892664	-0.000105
 959	9.5321e+01	0.9173	29.190510	0.000608	6.080100	1.029997	-0.000122
 960	9.5421e+01	0.8971	29.085544	0.000527	5.269420	0.892664	-0.000105
 961	9.5520e+01	0.8762	29.000765	0.000426	4.256070	0.720998	-0.000085
 962	9.5620e+01	0.8564	28.859465	0.000709	7.093450	1.201663	-0.000142
 963	9.5719e+01	0.8369	28.758536	0.000507	5.066750	0.858331	-0.000101
 964	9.5819e+01	0.8170	28.645497	0.000567	5.674760	0.961330	-0.000114
 965	9.5918e+01	0.7970	28.528420	0.000588	5.877430	0.995664	-0.000118
 966	9.6017e+01	0.7761	28.395194	0.000669	6.688110	1.132997	-0.000134
 967	9.6117e+01	0.7570	28.330600	0.000324	3.242720	0.549332	-0.000065
 968	9.6216e+01	0.7371	28.249857	0.000405	4.053400	0.686665	-0.000081
 969	9.6316e+01	0.7175	28.116632	0.000669	6.688110	1.132997	-0.000134
 970	9.6415e+01	0.6979	27.967258	0.000750	7.498790	1.270329	-0.000150
 971	9.6515e+01	0.6770	27.886515	0.000405	4.053400	0.686665	-0.000081
 972	9.6615e+01	0.6579	27.805772	0.000405	4.053400	0.686665	-0.000081
 973	9.6714e+01	0.6376	27.708881	0.000486	4.864080	0.823998	-0.000097
 974	9.6814e+01	0.6187	27.563544	0.000730	7.296120	1.235996	-0.000146
 975	9.6913e+01	0.5972	27.446467	0.000588	5.877430	0.995664	-0.000118
 976	9.7013e+01	0.5783	27.333428	0.000567	5.674760	0.961330	-0.000114
 977	9.7112e+01	0.5589	27.248648	0.000426	4.256070	0.720998	-0.000085
 978	9.7212e+01	0.5381	27.163868	0.000426	4.256070	0.720998	-0.000085
 979	9.7311e+01	0.5187	27.058902	0.000527	5.269420	0.892664	-0.000105
 980	9.7410e+01	0.4981	26.905491	0.000770	7.701460	1.304663	-0.000154
 981	9.7510e+01	0.4778	26.816674	0.000446	4.458740	0.755331	-0.000089
 982	9.7609e+01	0.4587	26.719783	0.000486	4.864080	0.823998	-0.000097
 983	9.7709e+01	0.4381	26.578483	0.000709	7.093450	1.201663	-0.000142
 984	9.7808e+01	0.4185	26.449295	0.000649	6.485440	1.098663	-0.000130
 985	9.7908e+01	0.3983	26.340292	0.000547	5.472090	0.926997	-0.000110
 986	9.8007e+01	0.3792	26.211104	0.000649	6.485440	1.098663	-0.000130
 987	9.8107e+01	0.3586	26.130361	0.000405	4.053400	0.686665	-0.000081
 988	9.8207e+01	0.3387	26.041544	0.000446	4.458740	0.755331	-0.000089
 989	9.8306e+01	0.3196	25.932541	0.000547	5.472090	0.926997	-0.000110
 990	9.8406e+01	0.2992	25.758945	0.000871	8.714811	1.476329	-0.000174
 991	9.8505e+01	0.2795	25.649942	0.000547	5.472090	0.926997	-0.000110
 992	9.8605e+01	0.2592	25.516716	0.000669	6.688110	1.132997	-0.000134
 993	9.8704e+01	0.2388	25.444048	0.000365	3.648060	0.617998	-0.000073
 994	9.8803e+01	0.2192	25.322934	0.000608	6.080100	1.029997	-0.000122
 995	9.8903e+01	0.2000	25.181634	0.000709	7.093450	1.201663	-0.000142
 996	9.9002e+01	0.1797	25.056483	0.000628	6.282770	1.064330	-0.000126
 997	9.9102e+01	0.1601	24.963629	0.000466	4.661410	0.789664	-0.000093
 998	9.9201e+01	0.1392	24.842515	0.000608	6.080100	1.029997	-0.000122
 999	9.9301e+01	0.1197	24.717364	0.000628	6.282770	1.064330	-0.000126
1000	9.9400e+01	0.1003	24.624509	0.000466	4.661410	0.789664	-0.000093
1001	9.9500e+01	0.0799	24.495321	0.000649	6.485440	1.098663	-0.000130
1002	9.9600e+01	0.0591	24.394393	0.000507	5.066750	0.858331	-0.000101
1003	9.9699e+01	0.0404	24.289427	0.000527	5.269420	0.892664	-0.000105
1004	9.9799e+01	0.0199	24.180425	0.000547	5.472090	0.926997	-0.000110
1005	9.9898e+01	0.0003	24.051236	0.000649	6.485440	1.098663	-0.000130
1006	9.9998e+01	-0.0183	23.926085	0.000628	6.282770	1.064330	-0.000126
1007	1.0010e+02	-0.0377	23.829194	0.000486	4.864080	0.823998	-0.000097
1008	1.0020e+02	-0.0573	23.720191	0.000547	5.472090	0.926997	-0.000110
1009	1.0030e+02	-0.0779	23.615225	0.000527	5.269420	0.892664	-0.000105
1010	1.0040e+02	-0.0981	23.482000	0.000669	6.688110	1.132997	-0.000134
1011	1.0050e+02	-0.1169	23.372997	0.000547	5.472090	0.926997	-0.000110
1012	1.0059e+02	-0.1373	23.263995	0.000547	5.472090	0.926997	-0.000110
1013	1.0069e+02	-0.1579	23.102509	0.000811	8.106800	1.373329	-0.000162
1014	1.0079e+02	-0.1775	23.009655	0.000466	4.661410	0.789664	-0.000093
1015	1.0089e+02	-0.1978	22.900652	0.000547	5.472090	0.926997	-0.000110
1016	1.0099e+02	-0.2171	22.791650	0.000547	5.472090	0.926997	-0.000110
1017	1.0109e+02	-0.2378	22.682647	0.000547	5.472090	0.926997	-0.000110
1018	1.0119e+02	-0.2573	22.573644	0.000547	5.472090	0.926997	-0.000110
1019	1.0129e+02	-0.2775	22.436382	0.000689	6.890780	1.167330	-0.000138
1020	1.0139e+02	-0.2969	22.331416	0.000527	5.269420	0.892664	-0.000105
1021	1.0149e+02	-0.3165	22.218377	0.000567	5.674760	0.961330	-0.000114
1022	1.0159e+02	-0.3369	22.073040	0.000730	7.296120	1.235996	-0.000146
1023	1.0169e+02	-0.3576	22.008445	0.000324	3.242720	0.549332	-0.000065
1024	1.0179e+02	-0.3769	21.883294	0.000628	6.282770	1.064330	-0.000126
1025	1.0189e+02	-0.3958	21.762180	0.000608	6.080100	1.029997	-0.000122
1026	1.0199e+02	-0.4173	21.628955	0.000669	6.688110	1.132997	-0.000134
1027	1.0209e+02	-0.4372	21.511878	0.000588	5.877430	0.995664	-0.000118
1028	1.0219e+02	-0.4565	21.378652	0.000669	6.688110	1.132997	-0.000134
1029	1.0229e+02	-0.4767	21.281761	0.000486	4.864080	0.823998	-0.000097
1030	1.0239e+02	-0.4965	21.201018	0.000405	4.053400	0.686665	-0.000081
1031	1.0248e+02	-0.5160	21.079904	0.000608	6.080100	1.029997	-0.000122
1032	1.0258e+02	-0.5376	20.930530	0.000750	7.498790	1.270329	-0.000150
1033	1.0268e+02	-0.5562	20.801342	0.000649	6.485440	1.098663	-0.000130
1034	1.0278e+02	-0.5768	20.700413	0.000507	5.066750	0.858331	-0.000101
1035	1.0288e+02	-0.5963	20.591411	0.000547	5.472090	0.926997	-0.000110
1036	1.0298e+02	-0.6160	20.466260	0.000628	6.282770	1.064330	-0.000126
1037	1.0308e+02	-0.6354	20.369368	0.000486	4.864080	0.823998	-0.000097
1038	1.0318e+02	-0.6564	20.268440	0.000507	5.066750	0.858331	-0.000101
1039	1.0328e+02	-0.6763	20.135214	0.000669	6.688110	1.132997	-0.000134
1040	1.0338e+02	-0.6956	20.018138	0.000588	5.877430	0.995664	-0.000118
1041	1.0348e+02	-0.7159	19.909135	0.000547	5.472090	0.926997	-0.000110
1042	1.0358e+02	-0.7367	19.816281	0.000466	4.661410	0.789664	-0.000093
1043	1.0368e+02	-0.7556	19.687092	0.000649	6.485440	1.098663	-0.000130
1044	1.0378e+02	-0.7761	19.561941	0.000628	6.282770	1.064330	-0.000126
1045	1.0388e+02	-0.7957	19.452939	0.000547	5.472090	0.926997	-0.000110
1046	1.0398e+02	-0.8163	19.327787	0.000628	6.282770	1.064330	-0.000126
1047	1.0408e+02	-0.8353	19.230896	0.000486	4.864080	0.823998	-0.000097
1048	1.0418e+02	-0.8557	19.113819	0.000588	5.877430	0.995664	-0.000118
1049	1.0428e+02	-0.8744	18.976557	0.000689	6.890780	1.167330	-0.000138
1050	1.0438e+02	-0.8961	18.871591	0.000527	5.269420	0.892664	-0.000105
1051	1.0447e+02	-0.9148	18.762588	0.000547	5.472090	0.926997	-0.000110
1052	1.0457e+02	-0.9351	18.661660	0.000507	5.066750	0.858331	-0.000101
1053	1.0467e+02	-0.9557	18.516323	0.000730	7.296120	1.235996	-0.000146
1054	1.0477e+02	-0.9753	18.383098	0.000669	6.688110	1.132997	-0.000134
1055	1.0487e+02	-0.9953	18.298318	0.000426	4.256070	0.720998	-0.000085
1056	1.0497e+02	-1.0143	18.185278	0.000567	5.674760	0.961330	-0.000114
1057	1.0507e+02	-1.0337	18.035904	0.000750	7.498790	1.270329	-0.000150
1058	1.0517e+02	-1.0550	17.939013	0.000486	4.864080	0.823998	-0.000097
1059	1.0527e+02	-1.0738	17.789639	0.000750	7.498790	1.270329	-0.000150
1060	1.0537e+02	-1.0941	17.680636	0.000547	5.472090	0.926997	-0.000110
1061	1.0547e+02	-1.1141	17.575670	0.000527	5.269420	0.892664	-0.000105
1062	1.0557e+02	-1.1351	17.454556	0.000608	6.080100	1.029997	-0.000122
1063	1.0567e+02	-1.1546	17.337479	0.000588	5.877430	0.995664	-0.000118
1064	1.0577e+02	-1.1742	17.244625	0.000466	4.661410	0.789664	-0.000093
1065	1.0587e+02	-1.1943	17.087177	0.000790	7.904130	1.338996	-0.000158
1066	1.0597e+02	-1.2144	17.014509	0.000365	3.648060	0.617998	-0.000073
1067	1.0607e+02	-1.2335	16.905506	0.000547	5.472090	0.926997	-0.000110
1068	1.0617e+02	-1.2543	16.796503	0.000547	5.472090	0.926997	-0.000110
1069	1.0627e+02	-1.2732	16.663278	0.000669	6.688110	1.132997	-0.000134
1070	1.0637e+02	-1.2938	16.558312	0.000527	5.269420	0.892664	-0.000105
1071	1.0647e+02	-1.3131	16.429124	0.000649	6.485440	1.098663	-0.000130
1072	1.0656e+02	-1.3333	16.299936	0.000649	6.485440	1.098663	-0.000130
1073	1.0666e+02	-1.3535	16.215156	0.000426	4.256070	0.720998	-0.000085
1074	1.0676e+02	-1.3732	16.081930	0.000669	6.688110	1.132997	-0.000134
1075	1.0686e+02	-1.3925	15.968890	0.000567	5.674760	0.961330	-0.000114
1076	1.0696e+02	-1.4125	15.876036	0.000466	4.661410	0.789664	-0.000093
1077	1.0706e+02	-1.4333	15.762996	0.000567	5.674760	0.961330	-0.000114
1078	1.0716e+02	-1.4539	15.662068	0.000507	5.066750	0.858331	-0.000101
1079	1.0726e+02	-1.4722	15.512694	0.000750	7.498790	1.270329	-0.000150
1080	1.0736e+02	-1.4929	15.452137	0.000304	3.040050	0.514998	-0.000061
1081	1.0746e+02	-1.5124	15.318912	0.000669	6.688110	1.132997	-0.000134
1082	1.0756e+02	-1.5323	15.193760	0.000628	6.282770	1.064330	-0.000126
1083	1.0766e+02	-1.5522	15.060535	0.000669	6.688110	1.132997	-0.000134
1084	1.0776e+02	-1.5729	14.955569	0.000527	5.269420	0.892664	-0.000105
1085	1.0786e+02	-1.5923	14.878864	0.000385	3.850730	0.652331	-0.000077
1086	1.0796e+02	-1.6119	14.757750	0.000608	6.080100	1.029997	-0.000122
1087	1.0806e+02	-1.6324	14.640673	0.000588	5.877430	0.995664	-0.000118
1088	1.0816e+02	-1.6523	14.531670	0.000547	5.472090	0.926997	-0.000110
1089	1.0826e+02	-1.6714	14.370185	0.000811	8.106800	1.373329	-0.000162
1090	1.0836e+02	-1.6926	14.293479	0.000385	3.850730	0.652331	-0.000077
1091	1.0845e+02	-1.7117	14.184476	0.000547	5.472090	0.926997	-0.000110
1092	1.0855e+02	-1.7314	14.087585	0.000486	4.864080	0.823998	-0.000097
1093	1.0865e+02	-1.7516	13.950323	0.000689	6.890780	1.167330	-0.000138
1094	1.0875e+02	-1.7722	13.845357	0.000527	5.269420	0.892664	-0.000105
1095	1.0885e+02	-1.7911	13.736354	0.000547	5.472090	0.926997	-0.000110
1096	1.0895e+02	-1.8117	13.578906	0.000790	7.904130	1.338996	-0.000158
1097	1.0905e+02	-1.8324	13.494126	0.000426	4.256070	0.720998	-0.000085
1098	1.0915e+02	-1.8511	13.364938	0.000649	6.485440	1.098663	-0.000130
1099	1.0925e+02	-1.8719	13.272084	0.000466	4.661410	0.789664	-0.000093
1100	1.0935e+02	-1.8921	13.155007	0.000588	5.877430	0.995664	-0.000118
1101	1.0945e+02	-1.9111	13.046004	0.000547	5.472090	0.926997	-0.000110
1102	1.0955e+02	-1.9310	12.945076	0.000507	5.066750	0.858331	-0.000101
1103	1.0965e+02	-1.9524	12.815887	0.000649	6.485440	1.098663	-0.000130
1104	1.0975e+02	-1.9713	12.658439	0.000790	7.904130	1.338996	-0.000158
1105	1.0985e+02	-1.9910	12.605956	0.000263	2.634710	0.446332	-0.000053
1106	1.0995e+02	-2.0113	12.484842	0.000608	6.080100	1.029997	-0.000122
1107	1.1005e+02	-2.0300	12.335468	0.000750	7.498790	1.270329	-0.000150
1108	1.1015e+02	-2.0513	12.214354	0.000608	6.080100	1.029997	-0.000122
1109	1.1025e+02	-2.0712	12.137649	0.000385	3.850730	0.652331	-0.000077
1110	1.1035e+02	-2.0908	12.028646	0.000547	5.472090	0.926997	-0.000110
1111	1.1044e+02	-2.1107	11.911569	0.000588	5.877430	0.995664	-0.000118
1112	1.1054e+02	-2.1318	11.782381	0.000649	6.485440	1.098663	-0.000130
1113	1.1064e+02	-2.1502	11.661267	0.000608	6.080100	1.029997	-0.000122
1114	1.1074e+02	-2.1713	11.552264	0.000547	5.472090	0.926997	-0.000110
1115	1.1084e+02	-2.1906	11.419038	0.000669	6.688110	1.132997	-0.000134
1116	1.1094e+02	-2.2103	11.342333	0.000385	3.850730	0.652331	-0.000077
1117	1.1104e+02	-2.2293	11.196996	0.000730	7.296120	1.235996	-0.000146
1118	1.1114e+02	-2.2510	11.067808	0.000649	6.485440	1.098663	-0.000130
1119	1.1124e+02	-2.2694	10.950731	0.000588	5.877430	0.995664	-0.000118
1120	1.1134e+02	-2.2897	10.894211	0.000284	2.837380	0.480665	-0.000057
1121	1.1144e+02	-2.3101	10.740800	0.000770	7.701460	1.304663	-0.000154
1122	1.1154e+02	-2.3297	10.668131	0.000365	3.648060	0.617998	-0.000073
1123	1.1164e+02	-2.3495	10.551054	0.000588	5.877430	0.995664	-0.000118
1124	1.1174e+02	-2.3697	10.425903	0.000628	6.282770	1.064330	-0.000126
1125	1.1184e+02	-2.3901	10.308826	0.000588	5.877430	0.995664	-0.000118
1126	1.1194e+02	-2.4093	10.195786	0.000567	5.674760	0.961330	-0.000114
1127	1.1204e+02	-2.4298	10.062561	0.000669	6.688110	1.132997	-0.000134
1128	1.1214e+02	-2.4490	9.953558	0.000547	5.472090	0.926997	-0.000110
1129	1.1224e+02	-2.4692	9.828407	0.000628	6.282770	1.064330	-0.000126
1130	1.1234e+02	-2.4899	9.739590	0.000446	4.458740	0.755331	-0.000089
1131	1.1244e+02	-2.5082	9.626550	0.000567	5.674760	0.961330	-0.000114
1132	1.1253e+02	-2.5283	9.541770	0.000426	4.256070	0.720998	-0.000085
1133	1.1263e+02	-2.5490	9.432768	0.000547	5.472090	0.926997	-0.000110
1134	1.1273e+02	-2.5690	9.267245	0.000831	8.309471	1.407662	-0.000166
1135	1.1283e+02	-2.5882	9.186502	0.000405	4.053400	0.686665	-0.000081
1136	1.1293e+02	-2.6080	9.041165	0.000730	7.296120	1.235996	-0.000146
1137	1.1303e+02	-2.6288	8.960423	0.000405	4.053400	0.686665	-0.000081
1138	1.1313e+02	-2.6482	8.867569	0.000466	4.661410	0.789664	-0.000093
1139	1.1323e+02	-2.6689	8.742417	0.000628	6.282770	1.064330	-0.000126
1140	1.1333e+02	-2.6889	8.593043	0.000750	7.498790	1.270329	-0.000150
1141	1.1343e+02	-2.7083	8.536524	0.000284	2.837380	0.480665	-0.000057
1142	1.1353e+02	-2.7285	8.403298	0.000669	6.688110	1.132997	-0.000134
1143	1.1363e+02	-2.7478	8.282184	0.000608	6.080100	1.029997	-0.000122
1144	1.1373e+02	-2.7681	8.161070	0.000608	6.080100	1.029997	-0.000122
1145	1.1383e+02	-2.7873	8.072253	0.000446	4.458740	0.755331	-0.000089
1146	1.1393e+02	-2.8079	7.922879	0.000750	7.498790	1.270329	-0.000150
1147	1.1403e+02	-2.8271	7.797728	0.000628	6.282770	1.064330	-0.000126
1148	1.1413e+02	-2.8479	7.729096	0.000345	3.445390	0.583665	-0.000069
1149	1.1423e+02	-2.8673	7.620094	0.000547	5.472090	0.926997	-0.000110
1150	1.1433e+02	-2.8880	7.458608	0.000811	8.106800	1.373329	-0.000162
1151	1.1442e+02	-2.9070	7.394014	0.000324	3.242720	0.549332	-0.000065
1152	1.1452e+02	-2.9267	7.264826	0.000649	6.485440	1.098663	-0.000130
1153	1.1462e+02	-2.9468	7.147749	0.000588	5.877430	0.995664	-0.000118
1154	1.1472e+02	-2.9670	7.010486	0.000689	6.890780	1.167330	-0.000138
1155	1.1482e+02	-2.9861	6.917632	0.000466	4.661410	0.789664	-0.000093
1156	1.1492e+02	-3.0070	6.824778	0.000466	4.661410	0.789664	-0.000093
1157	1.1502e+02	-3.0266	6.739998	0.000426	4.256070	0.720998	-0.000085
1158	1.1512e+02	-3.0471	6.578513	0.000811	8.106800	1.373329	-0.000162
1159	1.1522e+02	-3.0666	6.457399	0.000608	6.080100	1.029997	-0.000122
1160	1.1532e+02	-3.0871	6.380693	0.000385	3.850730	0.652331	-0.000077
1161	1.1542e+02	-3.1073	6.239393	0.000709	7.093450	1.201663	-0.000142
1162	1.1552e+02	-3.1267	6.154613	0.000426	4.256070	0.720998	-0.000085
1163	1.1562e+02	-3.1464	5.989091	0.000831	8.309471	1.407662	-0.000166
1164	1.1572e+02	-3.1673	5.896237	0.000466	4.661410	0.789664	-0.000093
1165	1.1582e+02	-3.1863	5.795308	0.000507	5.066750	0.858331	-0.000101
1166	1.1592e+02	-3.2062	5.694380	0.000507	5.066750	0.858331	-0.000101
1167	1.1602e+02	-3.2262	5.549043	0.000730	7.296120	1.235996	-0.000146
1168	1.1612e+02	-3.2471	5.411780	0.000689	6.890780	1.167330	-0.000138
1169	1.1622e+02	-3.2658	5.327001	0.000426	4.256070	0.720998	-0.000085
1170	1.1632e+02	-3.2861	5.189738	0.000689	6.890780	1.167330	-0.000138
1171	1.1642e+02	-3.3061	5.113032	0.000385	3.850730	0.652331	-0.000077
1172	1.1651e+02	-3.3254	4.971733	0.000709	7.093450	1.201663	-0.000142
1173	1.1661e+02	-3.3464	4.850619	0.000608	6.080100	1.029997	-0.000122
1174	1.1671e+02	-3.3650	4.753727	0.000486	4.864080	0.823998	-0.000097
1175	1.1681e+02	-3.3862	4.616465	0.000689	6.890780	1.167330	-0.000138
1176	1.1691e+02	-3.4058	4.543796	0.000365	3.648060	0.617998	-0.000073
1177	1.1701e+02	-3.4257	4.454979	0.000446	4.458740	0.755331	-0.000089
1178	1.1711e+02	-3.4451	4.350014	0.000527	5.269420	0.892664	-0.000105
1179	1.1721e+02	-3.4657	4.192565	0.000790	7.904130	1.338996	-0.000158
1180	1.1731e+02	-3.4844	4.051266	0.000709	7.093450	1.201663	-0.000142
1181	1.1741e+02	-3.5054	3.986672	0.000324	3.242720	0.549332	-0.000065
1182	1.1751e+02	-3.5257	3.849409	0.000689	6.890780	1.167330	-0.000138
1183	1.1761e+02	-3.5448	3.752518	0.000486	4.864080	0.823998	-0.000097
1184	1.1771e+02	-3.5648	3.627366	0.000628	6.282770	1.064330	-0.000126
1185	1.1781e+02	-3.5851	3.526438	0.000507	5.066750	0.858331	-0.000101
1186	1.1791e+02	-3.6047	3.413398	0.000567	5.674760	0.961330	-0.000114
1187	1.1801e+02	-3.6252	3.292284	0.000608	6.080100	1.029997	-0.000122
1188	1.1811e+02	-3.6450	3.223653	0.000345	3.445390	0.583665	-0.000069
1189	1.1821e+02	-3.6661	3.126762	0.000486	4.864080	0.823998	-0.000097
1190	1.1831e+02	-3.6841	2.957202	0.000851	8.512141	1.441996	-0.000170
1191	1.1841e+02	-3.7047	2.872422	0.000426	4.256070	0.720998	-0.000085
1192	1.1850e+02	-3.7251	2.743234	0.000649	6.485440	1.098663	-0.000130
1193	1.1860e+02	-3.7446	2.634231	0.000547	5.472090	0.926997	-0.000110
1194	1.1870e+02	-3.7650	2.521191	0.000567	5.674760	0.961330	-0.000114
1195	1.1880e+02	-3.7836	2.428337	0.000466	4.661410	0.789664	-0.000093
1196	1.1890e+02	-3.8029	2.323372	0.000527	5.269420	0.892664	-0.000105
1197	1.1900e+02	-3.8242	2.222443	0.000507	5.066750	0.858331	-0.000101
1198	1.1910e+02	-3.8431	2.081143	0.000709	7.093450	1.201663	-0.000142
1199	1.1920e+02	-3.8628	1.976178	0.000527	5.269420	0.892664	-0.000105
1200	1.1930e+02	-3.8829	1.871212	0.000527	5.269420	0.892664	-0.000105
1201	1.1940e+02	-3.9037	1.766247	0.000527	5.269420	0.892664	-0.000105
1202	1.1950e+02	-3.9230	1.701653	0.000324	3.242720	0.549332	-0.000065
1203	1.1960e+02	-3.9398	1.556316	0.000730	7.296120	1.235996	-0.000146
1204	1.1970e+02	-3.9630	1.451350	0.000527	5.269420	0.892664	-0.000105
1205	1.1980e+02	-3.9829	1.338310	0.000567	5.674760	0.961330	-0.000114
1206	1.1990e+02	-4.0031	1.229308	0.000547	5.472090	0.926997	-0.000110
1207	1.2000e+02	-4.0236	1.112231	0.000588	5.877430	0.995664	-0.000118
1208	1.2010e+02	-4.0431	0.991117	0.000608	6.080100	1.029997	-0.000122
1209	1.2020e+02	-4.0631	0.902300	0.000446	4.458740	0.755331	-0.000089
1210	1.2030e+02	-4.0832	0.777149	0.000628	6.282770	1.064330	-0.000126
1211	1.2039e+02	-4.1029	0.664109	0.000567	5.674760	0.961330	-0.000114
1212	1.2049e+02	-4.1225	0.579329	0.000426	4.256070	0.720998	-0.000085
1213	1.2059e+02	-4.1435	0.429955	0.000750	7.498790	1.270329	-0.000150
1214	1.2069e+02	-4.1632	0.333064	0.000486	4.864080	0.823998	-0.000097
1215	1.2079e+02	-4.1825	0.195801	0.000689	6.890780	1.167330	-0.000138
1216	1.2089e+02	-4.2029	0.098910	0.000486	4.864080	0.823998	-0.000097
1217	1.2099e+02	-4.2223	-0.006056	0.000527	5.269420	0.892664	-0.000105
1218	1.2109e+02	-4.2426	-0.111021	0.000527	5.269420	0.892664	-0.000105
1219	1.2119e+02	-4.2621	-0.236172	0.000628	6.282770	1.064330	-0.000126
1220	1.2129e+02	-4.2833	-0.357287	0.000608	6.080100	1.029997	-0.000122
1221	1.2139e+02	-4.3027	-0.442066	0.000426	4.256070	0.720998	-0.000085
1222	1.2149e+02	-4.3213	-0.571255	0.000649	6.485440	1.098663	-0.000130
1223	1.2159e+02	-4.3427	-0.668146	0.000486	4.864080	0.823998	-0.000097
1224	1.2169e+02	-4.3622	-0.781186	0.000567	5.674760	0.961330	-0.000114
1225	1.2179e+02	-4.3822	-0.914411	0.000669	6.688110	1.132997	-0.000134
1226	1.2189e+02	-4.4028	-1.035525	0.000608	6.080100	1.029997	-0.000122
1227	1.2199e+02	-4.4218	-1.120305	0.000426	4.256070	0.720998	-0.000085
1228	1.2209e+02	-4.4421	-1.233345	0.000567	5.674760	0.961330	-0.000114
1229	1.2219e+02	-4.4611	-1.346385	0.000567	5.674760	0.961330	-0.000114
1230	1.2229e+02	-4.4812	-1.463462	0.000588	5.877430	0.995664	-0.000118
1231	1.2239e+02	-4.5020	-1.600724	0.000689	6.890780	1.167330	-0.000138
1232	1.2248e+02	-4.5213	-1.701653	0.000507	5.066750	0.858331	-0.000101
1233	1.2258e+02	-4.5416	-1.770284	0.000345	3.445390	0.583665	-0.000069
1234	1.2268e+02	-4.5607	-1.927732	0.000790	7.904130	1.338996	-0.000158
1235	1.2278e+02	-4.5840	-2.008475	0.000405	4.053400	0.686665	-0.000081
1236	1.2288e+02	-4.6014	-2.121515	0.000567	5.674760	0.961330	-0.000114
1237	1.2298e+02	-4.6212	-2.234555	0.000567	5.674760	0.961330	-0.000114
1238	1.2308e+02	-4.6387	-2.347594	0.000567	5.674760	0.961330	-0.000114
1239	1.2318e+02	-4.6606	-2.456597	0.000547	5.472090	0.926997	-0.000110
1240	1.2328e+02	-4.6808	-2.553488	0.000486	4.864080	0.823998	-0.000097
1241	1.2338e+02	-4.7009	-2.686714	0.000669	6.688110	1.132997	-0.000134
1242	1.2348e+02	-4.7211	-2.747271	0.000304	3.040050	0.514998	-0.000061
1243	1.2358e+02	-4.7401	-2.908756	0.000811	8.106800	1.373329	-0.000162
1244	1.2368e+02	-4.7630	-3.009685	0.000507	5.066750	0.858331	-0.000101
1245	1.2378e+02	-4.7810	-3.122724	0.000567	5.674760	0.961330	-0.000114
1246	1.2388e+02	-4.8001	-3.211541	0.000446	4.458740	0.755331	-0.000089
1247	1.2398e+02	-4.8207	-3.364953	0.000770	7.701460	1.304663	-0.000154
1248	1.2408e+02	-4.8395	-3.445695	0.000405	4.053400	0.686665	-0.000081
1249	1.2418e+02	-4.8599	-3.578921	0.000669	6.688110	1.132997	-0.000134
1250	1.2428e+02	-4.8801	-3.667738	0.000446	4.458740	0.755331	-0.000089
1251	1.2438e+02	-4.9007	-3.813075	0.000730	7.296120	1.235996	-0.000146
1252	1.2447e+02	-4.9205	-3.877669	0.000324	3.242720	0.549332	-0.000065
1253	1.2457e+02	-4.9397	-4.023006	0.000730	7.296120	1.235996	-0.000146
1254	1.2467e+02	-4.9594	-4.119897	0.000486	4.864080	0.823998	-0.000097
1255	1.2477e+02	-4.9803	-4.232937	0.000567	5.674760	0.961330	-0.000114
1256	1.2487e+02	-4.9997	-4.345977	0.000567	5.674760	0.961330	-0.000114
1257	1.2497e+02	-5.0200	-4.426719	0.000405	4.053400	0.686665	-0.000081
1258	1.2507e+02	-5.0391	-4.555908	0.000649	6.485440	1.098663	-0.000130
1259	1.2517e+02	-5.0589	-4.672985	0.000588	5.877430	0.995664	-0.000118
1260	1.2527e+02	-5.0783	-4.806210	0.000669	6.688110	1.132997	-0.000134
1261	1.2537e+02	-5.0999	-4.927324	0.000608	6.080100	1.029997	-0.000122
1262	1.2547e+02	-5.1181	-5.032290	0.000527	5.269420	0.892664	-0.000105
1263	1.2557e+02	-5.1395	-5.121107	0.000446	4.458740	0.755331	-0.000089
1264	1.2567e+02	-5.1587	-5.298741	0.000892	8.917481	1.510662	-0.000179
1265	1.2577e+02	-5.1787	-5.387558	0.000446	4.458740	0.755331	-0.000089
1266	1.2587e+02	-5.1982	-5.504635	0.000588	5.877430	0.995664	-0.000118
1267	1.2597e+02	-5.2182	-5.605563	0.000507	5.066750	0.858331	-0.000101
1268	1.2607e+02	-5.2388	-5.694380	0.000446	4.458740	0.755331	-0.000089
1269	1.2617e+02	-5.2583	-5.831643	0.000689	6.890780	1.167330	-0.000138
1270	1.2627e+02	-5.2780	-5.972942	0.000709	7.093450	1.201663	-0.000142
1271	1.2636e+02	-5.2979	-6.069834	0.000486	4.864080	0.823998	-0.000097
1272	1.2646e+02	-5.3183	-6.178836	0.000547	5.472090	0.926997	-0.000110
1273	1.2656e+02	-5.3378	-6.308025	0.000649	6.485440	1.098663	-0.000130
1274	1.2666e+02	-5.3583	-6.449324	0.000709	7.093450	1.201663	-0.000142
1275	1.2676e+02	-5.3770	-6.530067	0.000405	4.053400	0.686665	-0.000081
1276	1.2686e+02	-5.3989	-6.643107	0.000567	5.674760	0.961330	-0.000114
1277	1.2696e+02	-5.4180	-6.788444	0.000730	7.296120	1.235996	-0.000146
1278	1.2706e+02	-5.4370	-6.901484	0.000567	5.674760	0.961330	-0.000114
1279	1.2716e+02	-5.4564	-7.014523	0.000567	5.674760	0.961330	-0.000114
1280	1.2726e+02	-5.4782	-7.147749	0.000669	6.688110	1.132997	-0.000134
1281	1.2736e+02	-5.4974	-7.272900	0.000628	6.282770	1.064330	-0.000126
1282	1.2746e+02	-5.5176	-7.377866	0.000527	5.269420	0.892664	-0.000105
1283	1.2756e+02	-5.5377	-7.494942	0.000588	5.877430	0.995664	-0.000118
1284	1.2766e+02	-5.5582	-7.632205	0.000689	6.890780	1.167330	-0.000138
1285	1.2776e+02	-5.5772	-7.712948	0.000405	4.053400	0.686665	-0.000081
1286	1.2786e+02	-5.5963	-7.894619	0.000912	9.120151	1.544995	-0.000183
1287	1.2796e+02	-5.6182	-7.934990	0.000203	2.026700	0.343332	-0.000041
1288	1.2806e+02	-5.6372	-8.080327	0.000730	7.296120	1.235996	-0.000146
1289	1.2816e+02	-5.6570	-8.217590	0.000689	6.890780	1.167330	-0.000138
1290	1.2826e+02	-5.6775	-8.362927	0.000730	7.296120	1.235996	-0.000146
1291	1.2835e+02	-5.6973	-8.508264	0.000730	7.296120	1.235996	-0.000146
1292	1.2845e+02	-5.7173	-8.641489	0.000669	6.688110	1.132997	-0.000134
1293	1.2855e+02	-5.7370	-8.718195	0.000385	3.850730	0.652331	-0.000077
1294	1.2865e+02	-5.7565	-8.859494	0.000709	7.093450	1.201663	-0.000142
1295	1.2875e+02	-5.7766	-9.004831	0.000730	7.296120	1.235996	-0.000146
1296	1.2885e+02	-5.7971	-9.057314	0.000263	2.634710	0.446332	-0.000053
1297	1.2895e+02	-5.8157	-9.194577	0.000689	6.890780	1.167330	-0.000138
1298	1.2905e+02	-5.8368	-9.327802	0.000669	6.688110	1.132997	-0.000134
1299	1.2915e+02	-5.8563	-9.469102	0.000709	7.093450	1.201663	-0.000142
1300	1.2925e+02	-5.8757	-9.590216	0.000608	6.080100	1.029997	-0.000122
1301	1.2935e+02	-5.8966	-9.743627	0.000770	7.701460	1.304663	-0.000154
1302	1.2945e+02	-5.9158	-9.832444	0.000446	4.458740	0.755331	-0.000089
1303	1.2955e+02	-5.9365	-10.010078	0.000892	8.917481	1.510662	-0.000179
1304	1.2965e+02	-5.9557	-10.119081	0.000547	5.472090	0.926997	-0.000110
1305	1.2975e+02	-5.9761	-10.215972	0.000486	4.864080	0.823998	-0.000097
1306	1.2985e+02	-5.9966	-10.353235	0.000689	6.890780	1.167330	-0.000138
1307	1.2995e+02	-6.0165	-10.514720	0.000811	8.106800	1.373329	-0.000162
1308	1.3005e+02	-6.0355	-10.643908	0.000649	6.485440	1.098663	-0.000130
1309	1.3015e+02	-6.0553	-10.785208	0.000709	7.093450	1.201663	-0.000142
1310	1.3025e+02	-6.0748	-10.914396	0.000649	6.485440	1.098663	-0.000130
1311	1.3034e+02	-6.0947	-11.011288	0.000486	4.864080	0.823998	-0.000097
1312	1.3044e+02	-6.1153	-11.164699	0.000770	7.701460	1.304663	-0.000154
1313	1.3054e+02	-6.1353	-11.310036	0.000730	7.296120	1.235996	-0.000146
1314	1.3064e+02	-6.1557	-11.419038	0.000547	5.472090	0.926997	-0.000110
1315	1.3074e+02	-6.1758	-11.600710	0.000912	9.120151	1.544995	-0.000183
1316	1.3084e+02	-6.1952	-11.677415	0.000385	3.850730	0.652331	-0.000077
1317	1.3094e+02	-6.2158	-11.814678	0.000689	6.890780	1.167330	-0.000138
1318	1.3104e+02	-6.2357	-11.964052	0.000750	7.498790	1.270329	-0.000150
1319	1.3114e+02	-6.2560	-12.097277	0.000669	6.688110	1.132997	-0.000134
1320	1.3124e+02	-6.2753	-12.238577	0.000709	7.093450	1.201663	-0.000142
1321	1.3134e+02	-6.2952	-12.428322	0.000953	9.525491	1.613662	-0.000191
1322	1.3144e+02	-6.3147	-12.513102	0.000426	4.256070	0.720998	-0.000085
1323	1.3154e+02	-6.3347	-12.634216	0.000608	6.080100	1.029997	-0.000122
1324	1.3164e+02	-6.3538	-12.815887	0.000912	9.120151	1.544995	-0.000183
1325	1.3174e+02	-6.3745	-12.953150	0.000689	6.890780	1.167330	-0.000138
1326	1.3184e+02	-6.3947	-13.086375	0.000669	6.688110	1.132997	-0.000134
1327	1.3194e+02	-6.4137	-13.219601	0.000669	6.688110	1.132997	-0.000134
1328	1.3204e+02	-6.4343	-13.393198	0.000871	8.714811	1.476329	-0.000174
1329	1.3214e+02	-6.4532	-13.586980	0.000973	9.728161	1.647995	-0.000195
1330	1.3224e+02	-6.4749	-13.659649	0.000365	3.648060	0.617998	-0.000073
1331	1.3234e+02	-6.4938	-13.821134	0.000811	8.106800	1.373329	-0.000162
1332	1.3243e+02	-6.5141	-13.954360	0.000669	6.688110	1.132997	-0.000134
1333	1.3253e+02	-6.5341	-14.144105	0.000953	9.525491	1.613662	-0.000191
1334	1.3263e+02	-6.5533	-14.297516	0.000770	7.701460	1.304663	-0.000154
1335	1.3273e+02	-6.5729	-14.450927	0.000770	7.701460	1.304663	-0.000154
1336	1.3283e+02	-6.5935	-14.559930	0.000547	5.472090	0.926997	-0.000110
1337	1.3293e+02	-6.6135	-14.701230	0.000709	7.093450	1.201663	-0.000142
1338	1.3303e+02	-6.6328	-14.862715	0.000811	8.106800	1.373329	-0.000162
1339	1.3313e+02	-6.6524	-15.024201	0.000811	8.106800	1.373329	-0.000162
1340	1.3323e+02	-6.6739	-15.189723	0.000831	8.309471	1.407662	-0.000166
1341	1.3333e+02	-6.6936	-15.290652	0.000507	5.066750	0.858331	-0.000101
1342	1.3343e+02	-6.7137	-15.484434	0.000973	9.728161	1.647995	-0.000195
1343	1.3353e+02	-6.7334	-15.637845	0.000770	7.701460	1.304663	-0.000154
1344	1.3363e+02	-6.7523	-15.827591	0.000953	9.525491	1.613662	-0.000191
1345	1.3373e+02	-6.7725	-15.940630	0.000567	5.674760	0.961330	-0.000114
1346	1.3383e+02	-6.7929	-16.110190	0.000851	8.512141	1.441996	-0.000170
1347	1.3393e+02	-6.8134	-16.295898	0.000932	9.322821	1.579329	-0.000187
1348	1.3403e+02	-6.8326	-16.425087	0.000649	6.485440	1.098663	-0.000130
1349	1.3413e+02	-6.8529	-16.586572	0.000811	8.106800	1.373329	-0.000162
1350	1.3423e+02	-6.8729	-16.764206	0.000892	8.917481	1.510662	-0.000179
1351	1.3432e+02	-6.8927	-16.921654	0.000790	7.904130	1.338996	-0.000158
1352	1.3442e+02	-6.9132	-17.062954	0.000709	7.093450	1.201663	-0.000142
1353	1.3452e+02	-6.9327	-17.228477	0.000831	8.309471	1.407662	-0.000166
1354	1.3462e+02	-6.9530	-17.381888	0.000770	7.701460	1.304663	-0.000154
1355	1.3472e+02	-6.9719	-17.555485	0.000871	8.714811	1.476329	-0.000174
1356	1.3482e+02	-6.9925	-17.765416	0.001054	10.538841	1.785328	-0.000211
1357	1.3492e+02	-7.0135	-17.882493	0.000588	5.877430	0.995664	-0.000118
1358	1.3502e+02	-7.0322	-18.092424	0.001054	10.538841	1.785328	-0.000211
1359	1.3512e+02	-7.0522	-18.261984	0.000851	8.512141	1.441996	-0.000170
1360	1.3522e+02	-7.0721	-18.407320	0.000730	7.296120	1.235996	-0.000146
1361	1.3532e+02	-7.0914	-18.572843	0.000831	8.309471	1.407662	-0.000166
1362	1.3542e+02	-7.1121	-18.786811	0.001074	10.741511	1.819661	-0.000215
1363	1.3552e+02	-7.1318	-18.948297	0.000811	8.106800	1.373329	-0.000162
1364	1.3562e+02	-7.1516	-19.097671	0.000750	7.498790	1.270329	-0.000150
1365	1.3572e+02	-7.1709	-19.295490	0.000993	9.930831	1.682328	-0.000199
1366	1.3582e+02	-7.1910	-19.444864	0.000750	7.498790	1.270329	-0.000150
1367	1.3592e+02	-7.2112	-19.626535	0.000912	9.120151	1.544995	-0.000183
1368	1.3602e+02	-7.2321	-19.808206	0.000912	9.120151	1.544995	-0.000183
1369	1.3612e+02	-7.2510	-19.933358	0.000628	6.282770	1.064330	-0.000126
1370	1.3622e+02	-7.2704	-20.159437	0.001135	11.349521	1.922661	-0.000227
1371	1.3631e+02	-7.2922	-20.328997	0.000851	8.512141	1.441996	-0.000170
1372	1.3641e+02	-7.3108	-20.506631	0.000892	8.917481	1.510662	-0.000179
1373	1.3651e+02	-7.3297	-20.712525	0.001034	10.336171	1.750995	-0.000207
1374	1.3661e+02	-7.3502	-20.865936	0.000770	7.701460	1.304663	-0.000154
1375	1.3671e+02	-7.3706	-21.079904	0.001074	10.741511	1.819661	-0.000215
1376	1.3681e+02	-7.3907	-21.249464	0.000851	8.512141	1.441996	-0.000170
1377	1.3691e+02	-7.4107	-21.467469	0.001094	10.944181	1.853994	-0.000219
1378	1.3701e+02	-7.4307	-21.653178	0.000932	9.322821	1.579329	-0.000187
1379	1.3711e+02	-7.4507	-21.798514	0.000730	7.296120	1.235996	-0.000146
1380	1.3721e+02	-7.4702	-22.028631	0.001155	11.552191	1.956994	-0.000231
1381	1.3731e+02	-7.4908	-22.218377	0.000953	9.525491	1.613662	-0.000191
1382	1.3741e+02	-7.5107	-22.391973	0.000871	8.714811	1.476329	-0.000174
1383	1.3751e+02	-7.5308	-22.589793	0.000993	9.930831	1.682328	-0.000199
1384	1.3761e+02	-7.5500	-22.807798	0.001094	10.944181	1.853994	-0.000219
1385	1.3771e+02	-7.5702	-23.009655	0.001013	10.133501	1.716661	-0.000203
1386	1.3781e+02	-7.5891	-23.187289	0.000892	8.917481	1.510662	-0.000179
1387	1.3791e+02	-7.6097	-23.381072	0.000973	9.728161	1.647995	-0.000195
1388	1.3801e+02	-7.6288	-23.607151	0.001135	11.349521	1.922661	-0.000227
1389	1.3811e+02	-7.6488	-23.792859	0.000932	9.322821	1.579329	-0.000187
1390	1.3821e+02	-7.6694	-24.031050	0.001196	11.957531	2.025661	-0.000239
1391	1.3831e+02	-7.6889	-24.196573	0.000831	8.309471	1.407662	-0.000166
1392	1.3840e+02	-7.7081	-24.430727	0.001175	11.754861	1.991327	-0.000235
1393	1.3850e+02	-7.7295	-24.600287	0.000851	8.512141	1.441996	-0.000170
1394	1.3860e+02	-7.7490	-24.785995	0.000932	9.322821	1.579329	-0.000187
1395	1.3870e+02	-7.7686	-25.016112	0.001155	11.552191	1.956994	-0.000231
1396	1.3880e+02	-7.7889	-25.246228	0.001155	11.552191	1.956994	-0.000231
1397	1.3890e+02	-7.8088	-25.411751	0.000831	8.309471	1.407662	-0.000166
1398	1.3900e+02	-7.8287	-25.653979	0.001216	12.160201	2.059994	-0.000243
1399	1.3910e+02	-7.8485	-25.896207	0.001216	12.160201	2.059994	-0.000243
1400	1.3920e+02	-7.8683	-26.077878	0.000912	9.120151	1.544995	-0.000183
1401	1.3930e+02	-7.8870	-26.251475	0.000871	8.714811	1.476329	-0.000174
1402	1.3940e+02	-7.9077	-26.501778	0.001257	12.565541	2.128660	-0.000252
1403	1.3950e+02	-7.9282	-26.760154	0.001297	12.970881	2.197327	-0.000260
1404	1.3960e+02	-7.9482	-26.925677	0.000831	8.309471	1.407662	-0.000166
1405	1.3970e+02	-7.9684	-27.143682	0.001094	10.944181	1.853994	-0.000219
1406	1.3980e+02	-7.9874	-27.418207	0.001378	13.781561	2.334660	-0.000276
1407	1.3990e+02	-8.0078	-27.624101	0.001034	10.336171	1.750995	-0.000207
1408	1.4000e+02	-8.0283	-27.858255	0.001175	11.754861	1.991327	-0.000235
1409	1.4010e+02	-8.0475	-28.092409	0.001175	11.754861	1.991327	-0.000235
1410	1.4020e+02	-8.0676	-28.298303	0.001034	10.336171	1.750995	-0.000207
1411	1.4029e+02	-8.0877	-28.536494	0.001196	11.957531	2.025661	-0.000239
1412	1.4039e+02	-8.1076	-28.798908	0.001317	13.173551	2.231660	-0.000264
1413	1.4049e+02	-8.1274	-28.984616	0.000932	9.322821	1.579329	-0.000187
1414	1.4059e+02	-8.1467	-29.267216	0.001419	14.186901	2.403326	-0.000284
1415	1.4069e+02	-8.1677	-29.493295	0.001135	11.349521	1.922661	-0.000227
1416	1.4079e+02	-8.1861	-29.695152	0.001013	10.133501	1.716661	-0.000203
1417	1.4089e+02	-8.2076	-29.937380	0.001216	12.160201	2.059994	-0.000243
1418	1.4099e+02	-8.2272	-30.175571	0.001196	11.957531	2.025661	-0.000239
1419	1.4109e+02	-8.2474	-30.417799	0.001216	12.160201	2.059994	-0.000243
1420	1.4119e+02	-8.2669	-30.635805	0.001094	10.944181	1.853994	-0.000219
1421	1.4129e+02	-8.2867	-30.906293	0.001358	13.578891	2.300326	-0.000272
1422	1.4139e+02	-8.3061	-31.160632	0.001277	12.768211	2.162993	-0.000256
1423	1.4149e+02	-8.3257	-31.410935	0.001257	12.565541	2.128660	-0.000252
1424	1.4159e+02	-8.3466	-31.665274	0.001277	12.768211	2.162993	-0.000256
1425	1.4169e+02	-8.3655	-31.907502	0.001216	12.160201	2.059994	-0.000243
1426	1.4179e+02	-8.3862	-32.173953	0.001338	13.376221	2.265993	-0.000268
1427	1.4189e+02	-8.4059	-32.395996	0.001115	11.146851	1.888328	-0.000223
1428	1.4199e+02	-8.4264	-32.638224	0.001216	12.160201	2.059994	-0.000243
1429	1.4209e+02	-8.4460	-32.904675	0.001338	13.376221	2.265993	-0.000268
1430	1.4219e+02	-8.4656	-33.183237	0.001398	13.984231	2.368993	-0.000280
1431	1.4228e+02	-8.4868	-33.437577	0.001277	12.768211	2.162993	-0.000256
1432	1.4238e+02	-8.5062	-33.699991	0.001317	13.173551	2.231660	-0.000264
1433	1.4248e+02	-8.5266	-33.986627	0.001439	14.389571	2.437659	-0.000288
1434	1.4258e+02	-8.5458	-34.216744	0.001155	11.552191	1.956994	-0.000231
1435	1.4268e+02	-8.5654	-34.487232	0.001358	13.578891	2.300326	-0.000272
1436	1.4278e+02	-8.5857	-34.814240	0.001642	16.416271	2.780992	-0.000329
1437	1.4288e+02	-8.6057	-35.088765	0.001378	13.781561	2.334660	-0.000276
1438	1.4298e+02	-8.6266	-35.355216	0.001338	13.376221	2.265993	-0.000268
1439	1.4308e+02	-8.6447	-35.605519	0.001257	12.565541	2.128660	-0.000252
1440	1.4318e+02	-8.6646	-35.888118	0.001419	14.186901	2.403326	-0.000284
1441	1.4328e+02	-8.6862	-36.182829	0.001479	14.794911	2.506326	-0.000296
1442	1.4338e+02	-8.7056	-36.497726	0.001581	15.808261	2.677992	-0.000316
1443	1.4348e+02	-8.7254	-36.768214	0.001358	13.578891	2.300326	-0.000272
1444	1.4358e+02	-8.7442	-37.034665	0.001338	13.376221	2.265993	-0.000268
1445	1.4368e+02	-8.7656	-37.341487	0.001540	15.402921	2.609325	-0.000308
1446	1.4378e+02	-8.7850	-37.628124	0.001439	14.389571	2.437659	-0.000288
1447	1.4388e+02	-8.8049	-37.902649	0.001378	13.781561	2.334660	-0.000276
1448	1.4398e+02	-8.8248	-38.241768	0.001702	17.024281	2.883991	-0.000341
1449	1.4408e+02	-8.8452	-38.536479	0.001479	14.794911	2.506326	-0.000296
1450	1.4418e+02	-8.8640	-38.831190	0.001479	14.794911	2.506326	-0.000296
1451	1.4428e+02	-8.8840	-39.125901	0.001479	14.794911	2.506326	-0.000296
1452	1.4437e+02	-8.9050	-39.420612	0.001479	14.794911	2.506326	-0.000296
1453	1.4447e+02	-8.9246	-39.739546	0.001601	16.010931	2.712325	-0.000321
1454	1.4457e+02	-8.9441	-40.066554	0.001642	16.416271	2.780992	-0.000329
1455	1.4467e+02	-8.9641	-40.365302	0.001500	14.997581	2.540659	-0.000300
1456	1.4477e+02	-8.9838	-40.712495	0.001743	17.429621	2.952658	-0.000349
1457	1.4487e+02	-9.0038	-41.007206	0.001479	14.794911	2.506326	-0.000296
1458	1.4497e+02	-9.0237	-41.318066	0.001561	15.605591	2.643659	-0.000312
1459	1.4507e+02	-9.0436	-41.661222	0.001723	17.226951	2.918325	-0.000345
1460	1.4517e+02	-9.0637	-41.976119	0.001581	15.808261	2.677992	-0.000316
1461	1.4527e+02	-9.0829	-42.282941	0.001540	15.402921	2.609325	-0.000308
1462	1.4537e+02	-9.1039	-42.613986	0.001662	16.618941	2.815325	-0.000333
1463	1.4547e+02	-9.1226	-42.981366	0.001844	18.442971	3.124324	-0.000369
1464	1.4557e+02	-9.1437	-43.251854	0.001358	13.578891	2.300326	-0.000272
1465	1.4567e+02	-9.1640	-43.599047	0.001743	17.429621	2.952658	-0.000349
1466	1.4577e+02	-9.1830	-44.018910	0.002108	21.077681	3.570656	-0.000422
1467	1.4587e+02	-9.2020	-44.285360	0.001338	13.376221	2.265993	-0.000268
1468	1.4597e+02	-9.2231	-44.636591	0.001763	17.632291	2.986991	-0.000353
1469	1.4607e+02	-9.2427	-44.975711	0.001702	17.024281	2.883991	-0.000341
1470	1.4617e+02	-9.2622	-45.330979	0.001783	17.834961	3.021324	-0.000357
1471	1.4626e+02	-9.2825	-45.722581	0.001966	19.658991	3.330323	-0.000394
1472	1.4636e+02	-9.3033	-46.025366	0.001520	15.200251	2.574992	-0.000304
1473	1.4646e+02	-9.3217	-46.416968	0.001966	19.658991	3.330323	-0.000394
1474	1.4656e+02	-9.3420	-46.772236	0.001783	17.834961	3.021324	-0.000357
1475	1.4666e+02	-9.3634	-47.155764	0.001925	19.253651	3.261657	-0.000385
1476	1.4676e+02	-9.3828	-47.478735	0.001621	16.213601	2.746658	-0.000325
1477	1.4686e+02	-9.4016	-47.874374	0.001986	19.861661	3.364656	-0.000398
1478	1.4696e+02	-9.4223	-48.233679	0.001804	18.037631	3.055657	-0.000361
1479	1.4706e+02	-9.4426	-48.625281	0.001966	19.658991	3.330323	-0.000394
1480	1.4716e+02	-9.4617	-49.000735	0.001885	18.848311	3.192990	-0.000377
1481	1.4726e+02	-9.4820	-49.372152	0.001865	18.645641	3.158657	-0.000373
1482	1.4736e+02	-9.5023	-49.719345	0.001743	17.429621	2.952658	-0.000349
1483	1.4746e+02	-9.5224	-50.147282	0.002148	21.483021	3.639322	-0.000430
1484	1.4756e+02	-9.5409	-50.530809	0.001925	19.253651	3.261657	-0.000385
1485	1.4766e+02	-9.5612	-50.906263	0.001885	18.848311	3.192990	-0.000377
1486	1.4776e+02	-9.5813	-51.334199	0.002148	21.483021	3.639322	-0.000430
1487	1.4786e+02	-9.6014	-51.745987	0.002067	20.672341	3.501989	-0.000414
1488	1.4796e+02	-9.6210	-52.129515	0.001925	19.253651	3.261657	-0.000385
1489	1.4806e+02	-9.6408	-52.549377	0.002108	21.077681	3.570656	-0.000422
1490	1.4816e+02	-9.6611	-52.945017	0.001986	19.861661	3.364656	-0.000398
1491	1.4825e+02	-9.6812	-53.360842	0.002088	20.875011	3.536323	-0.000418
1492	1.4835e+02	-9.7016	-53.764555	0.002027	20.267001	3.433323	-0.000406
1493	1.4845e+02	-9.7208	-54.216714	0.002270	22.699041	3.845322	-0.000454
1494	1.4855e+02	-9.7412	-54.656762	0.002209	22.091031	3.742322	-0.000442
1495	1.4865e+02	-9.7620	-55.076624	0.002108	21.077681	3.570656	-0.000422
1496	1.4875e+02	-9.7810	-55.504561	0.002148	21.483021	3.639322	-0.000430
1497	1.4885e+02	-9.8007	-55.928460	0.002128	21.280351	3.604989	-0.000426
1498	1.4895e+02	-9.8212	-56.384656	0.002290	22.901711	3.879655	-0.000458
1499	1.4905e+02	-9.8402	-56.848927	0.002331	23.307051	3.948321	-0.000467
1500	1.4915e+02	-9.8596	-57.293012	0.002229	22.293701	3.776655	-0.000446
1501	1.4925e+02	-9.8801	-57.724985	0.002169	21.685691	3.673656	-0.000434
1502	1.4935e+02	-9.8999	-58.156959	0.002169	21.685691	3.673656	-0.000434
1503	1.4945e+02	-9.9199	-58.641415	0.002432	24.320401	4.119988	-0.000487
1504	1.4955e+02	-9.9390	-59.073389	0.002169	21.685691	3.673656	-0.000434
1505	1.4965e+02	-9.9606	-59.569956	0.002493	24.928412	4.222987	-0.000499
1506	1.4975e+02	-9.9800	-60.022116	0.002270	22.699041	3.845322	-0.000454
1507	1.4985e+02	-10.0000	-60.478312	0.002290	22.901711	3.879655	-0.000458
1508	1.4995e+02	-9.9808	-60.805320	-0.001642	-16.416271	-2.780992	-0.000329
1509	1.5005e+02	-9.9602	-61.144439	-0.001702	-17.024281	-2.883991	-0.000341
1510	1.5015e+02	-9.9393	-61.410890	-0.001338	-13.376221	-2.265993	-0.000268
1511	1.5025e+02	-9.9197	-61.750010	-0.001702	-17.024281	-2.883991	-0.000341
1512	1.5034e+02	-9.9011	-61.972052	-0.001115	-11.146851	-1.888328	-0.000223
1513	1.5044e+02	-9.8808	-62.210243	-0.001196	-11.957531	-2.025661	-0.000239
1514	1.5054e+02	-9.8610	-62.488806	-0.001398	-13.984231	-2.368993	-0.000280
1515	1.5064e+02	-9.8410	-62.706811	-0.001094	-10.944181	-1.853994	-0.000219
1516	1.5074e+02	-9.8209	-62.940965	-0.001175	-11.754861	-1.991327	-0.000235
1517	1.5084e+02	-9.8012	-63.146859	-0.001034	-10.336171	-1.750995	-0.000207
1518	1.5094e+02	-9.7812	-63.376975	-0.001155	-11.552191	-1.956994	-0.000231
1519	1.5104e+02	-9.7607	-63.554609	-0.000892	-8.917481	-1.510662	-0.000179
1520	1.5114e+02	-9.7414	-63.744355	-0.000953	-9.525491	-1.613662	-0.000191
1521	1.5124e+02	-9.7205	-63.934100	-0.000953	-9.525491	-1.613662	-0.000191
1522	1.5134e+02	-9.7012	-64.087511	-0.000770	-7.701460	-1.304663	-0.000154
1523	1.5144e+02	-9.6800	-64.257071	-0.000851	-8.512141	-1.441996	-0.000170
1524	1.5154e+02	-9.6626	-64.430668	-0.000871	-8.714811	-1.476329	-0.000174
1525	1.5164e+02	-9.6417	-64.604265	-0.000871	-8.714811	-1.476329	-0.000174
1526	1.5174e+02	-9.6219	-64.773824	-0.000851	-8.512141	-1.441996	-0.000170
1527	1.5184e+02	-9.6017	-64.915124	-0.000709	-7.093450	-1.201663	-0.000142
1528	1.5194e+02	-9.5816	-65.056424	-0.000709	-7.093450	-1.201663	-0.000142
1529	1.5204e+02	-9.5615	-65.165427	-0.000547	-5.472090	-0.926997	-0.000110
1530	1.5214e+02	-9.5422	-65.306726	-0.000709	-7.093450	-1.201663	-0.000142
1531	1.5224e+02	-9.5221	-65.448026	-0.000709	-7.093450	-1.201663	-0.000142
1532	1.5233e+02	-9.5023	-65.573177	-0.000628	-6.282770	-1.064330	-0.000126
1533	1.5243e+02	-9.4824	-65.686217	-0.000567	-5.674760	-0.961330	-0.000114
1534	1.5253e+02	-9.4623	-65.839628	-0.000770	-7.701460	-1.304663	-0.000154
1535	1.5263e+02	-9.4424	-65.904222	-0.000324	-3.242720	-0.549332	-0.000065
1536	1.5273e+02	-9.4226	-66.013225	-0.000547	-5.472090	-0.926997	-0.000110
1537	1.5283e+02	-9.4016	-66.114153	-0.000507	-5.066750	-0.858331	-0.000101
1538	1.5293e+02	-9.3817	-66.194896	-0.000405	-4.053400	-0.686665	-0.000081
1539	1.5303e+02	-9.3626	-66.259490	-0.000324	-3.242720	-0.549332	-0.000065
1540	1.5313e+02	-9.3419	-66.376567	-0.000588	-5.877430	-0.995664	-0.000118
1541	1.5323e+02	-9.3228	-66.473458	-0.000486	-4.864080	-0.823998	-0.000097
1542	1.5333e+02	-9.3024	-66.566313	-0.000466	-4.661410	-0.789664	-0.000093
1543	1.5343e+02	-9.2828	-66.643018	-0.000385	-3.850730	-0.652331	-0.000077
1544	1.5353e+02	-9.2622	-66.715687	-0.000365	-3.648060	-0.617998	-0.000073
1545	1.5363e+02	-9.2432	-66.804504	-0.000446	-4.458740	-0.755331	-0.000089
1546	1.5373e+02	-9.2232	-66.852949	-0.000243	-2.432040	-0.411999	-0.000049
1547	1.5383e+02	-9.2030	-66.937729	-0.000426	-4.256070	-0.720998	-0.000085
1548	1.5393e+02	-9.1833	-66.986175	-0.000243	-2.432040	-0.411999	-0.000049
1549	1.5403e+02	-9.1628	-67.042695	-0.000284	-2.837380	-0.480665	-0.000057
1550	1.5413e+02	-9.1434	-67.111326	-0.000345	-3.445390	-0.583665	-0.000069
1551	1.5422e+02	-9.1238	-67.159772	-0.000243	-2.432040	-0.411999	-0.000049
1552	1.5432e+02	-9.1034	-67.204180	-0.000223	-2.229370	-0.377666	-0.000045
1553	1.5442e+02	-9.0844	-67.268774	-0.000324	-3.242720	-0.549332	-0.000065
1554	1.5452e+02	-9.0634	-67.341443	-0.000365	-3.648060	-0.617998	-0.000073
1555	1.5462e+02	-9.0442	-67.377777	-0.000182	-1.824030	-0.308999	-0.000037
1556	1.5472e+02	-9.0233	-67.426223	-0.000243	-2.432040	-0.411999	-0.000049
1557	1.5482e+02	-9.0041	-67.422185	0.000020	0.202670	0.034333	0.000004
1558	1.5492e+02	-8.9850	-67.478705	-0.000284	-2.837380	-0.480665	-0.000057
1559	1.5502e+02	-8.9636	-67.523114	-0.000223	-2.229370	-0.377666	-0.000045
1560	1.5512e+02	-8.9438	-67.567522	-0.000223	-2.229370	-0.377666	-0.000045
1561	1.5522e+02	-8.9236	-67.599819	-0.000162	-1.621360	-0.274666	-0.000032
1562	1.5532e+02	-8.9041	-67.620005	-0.000101	-1.013350	-0.171666	-0.000020
1563	1.5542e+02	-8.8829	-67.648265	-0.000142	-1.418690	-0.240333	-0.000028
1564	1.5552e+02	-8.8644	-67.648265	0.000000	0.000000	0.000000	0.000000
1565	1.5562e+02	-8.8464	-67.672488	-0.000122	-1.216020	-0.205999	-0.000024
1566	1.5572e+02	-8.8246	-67.672488	0.000000	0.000000	0.000000	0.000000
1567	1.5582e+02	-8.8049	-67.696711	-0.000122	-1.216020	-0.205999	-0.000024
1568	1.5592e+02	-8.7842	-67.720933	-0.000122	-1.216020	-0.205999	-0.000024
1569	1.5602e+02	-8.7656	-67.745156	-0.000122	-1.216020	-0.205999	-0.000024
1570	1.5612e+02	-8.7451	-67.745156	0.000000	0.000000	0.000000	0.000000
1571	1.5622e+02	-8.7253	-67.817825	-0.000365	-3.648060	-0.617998	-0.000073
1572	1.5631e+02	-8.7057	-67.753231	0.000324	3.242720	0.549332	0.000065
1573	1.5641e+02	-8.6861	-67.745156	0.000041	0.405340	0.068666	0.000008
1574	1.5651e+02	-8.6649	-67.729008	0.000081	0.810680	0.137333	0.000016
1575	1.5661e+02	-8.6459	-67.777453	-0.000243	-2.432040	-0.411999	-0.000049
1576	1.5671e+02	-8.6261	-67.789565	-0.000061	-0.608010	-0.103000	-0.000012
1577	1.5681e+02	-8.6060	-67.720933	0.000345	3.445390	0.583665	0.000069
1578	1.5691e+02	-8.5860	-67.757268	-0.000182	-1.824030	-0.308999	-0.000037
1579	1.5701e+02	-8.5660	-67.745156	0.000061	0.608010	0.103000	0.000012
1580	1.5711e+02	-8.5455	-67.749193	-0.000020	-0.202670	-0.034333	-0.000004
1581	1.5721e+02	-8.5258	-67.737082	0.000061	0.608010	0.103000	0.000012
1582	1.5731e+02	-8.5065	-67.676525	0.000304	3.040050	0.514998	0.000061
1583	1.5741e+02	-8.4859	-67.688636	-0.000061	-0.608010	-0.103000	-0.000012
1584	1.5751e+02	-8.4655	-67.664414	0.000122	1.216020	0.205999	0.000024
1585	1.5761e+02	-8.4467	-67.676525	-0.000061	-0.608010	-0.103000	-0.000012
1586	1.5771e+02	-8.4253	-67.704785	-0.000142	-1.418690	-0.240333	-0.000028
1587	1.5781e+02	-8.4070	-67.599819	0.000527	5.269420	0.892664	0.000105
1588	1.5791e+02	-8.3858	-67.632116	-0.000162	-1.621360	-0.274666	-0.000032
1589	1.5801e+02	-8.3661	-67.624042	0.000041	0.405340	0.068666	0.000008
1590	1.5811e+02	-8.3466	-67.599819	0.000122	1.216020	0.205999	0.000024
1591	1.5821e+02	-8.3258	-67.571559	0.000142	1.418690	0.240333	0.000028
1592	1.5830e+02	-8.3066	-67.515040	0.000284	2.837380	0.480665	0.000057
1593	1.5840e+02	-8.2864	-67.478705	0.000182	1.824030	0.308999	0.000037
1594	1.5850e+02	-8.2666	-67.551374	-0.000365	-3.648060	-0.617998	-0.000073
1595	1.5860e+02	-8.2468	-67.486780	0.000324	3.242720	0.549332	0.000065
1596	1.5870e+02	-8.2263	-67.426223	0.000304	3.040050	0.514998	0.000061
1597	1.5880e+02	-8.2062	-67.430260	-0.000020	-0.202670	-0.034333	-0.000004
1598	1.5890e+02	-8.1870	-67.377777	0.000263	2.634710	0.446332	0.000053
1599	1.5900e+02	-8.1670	-67.369703	0.000041	0.405340	0.068666	0.000008
1600	1.5910e+02	-8.1470	-67.329331	0.000203	2.026700	0.343332	0.000041
1601	1.5920e+02	-8.1268	-67.317220	0.000061	0.608010	0.103000	0.000012
1602	1.5930e+02	-8.1070	-67.260700	0.000284	2.837380	0.480665	0.000057
1603	1.5940e+02	-8.0881	-67.212254	0.000243	2.432040	0.411999	0.000049
1604	1.5950e+02	-8.0673	-67.200143	0.000061	0.608010	0.103000	0.000012
1605	1.5960e+02	-8.0479	-67.179957	0.000101	1.013350	0.171666	0.000020
1606	1.5970e+02	-8.0280	-67.083066	0.000486	4.864080	0.823998	0.000097
1607	1.5980e+02	-8.0078	-67.070955	0.000061	0.608010	0.103000	0.000012
1608	1.5990e+02	-7.9878	-67.062880	0.000041	0.405340	0.068666	0.000008
1609	1.6000e+02	-7.9674	-67.002323	0.000304	3.040050	0.514998	0.000061
1610	1.6010e+02	-7.9480	-66.970026	0.000162	1.621360	0.274666	0.000032
1611	1.6019e+02	-7.9276	-66.921581	0.000243	2.432040	0.411999	0.000049
1612	1.6029e+02	-7.9079	-66.881209	0.000203	2.026700	0.343332	0.000041
1613	1.6039e+02	-7.8886	-66.796429	0.000426	4.256070	0.720998	0.000085
1614	1.6049e+02	-7.8685	-66.836801	-0.000203	-2.026700	-0.343332	-0.000041
1615	1.6059e+02	-7.8490	-66.788355	0.000243	2.432040	0.411999	0.000049
1616	1.6069e+02	-7.8284	-66.703575	0.000426	4.256070	0.720998	0.000085
1617	1.6079e+02	-7.8082	-66.675315	0.000142	1.418690	0.240333	0.000028
1618	1.6089e+02	-7.7892	-66.638981	0.000182	1.824030	0.308999	0.000037
1619	1.6099e+02	-7.7682	-66.602647	0.000182	1.824030	0.308999	0.000037
1620	1.6109e+02	-7.7484	-66.550164	0.000263	2.634710	0.446332	0.000053
1621	1.6119e+02	-7.7286	-66.469421	0.000405	4.053400	0.686665	0.000081
1622	1.6129e+02	-7.7084	-66.449236	0.000101	1.013350	0.171666	0.000020
1623	1.6139e+02	-7.6886	-66.416939	0.000162	1.621360	0.274666	0.000032
1624	1.6149e+02	-7.6691	-66.360419	0.000284	2.837380	0.480665	0.000057
1625	1.6159e+02	-7.6494	-66.316010	0.000223	2.229370	0.377666	0.000045
1626	1.6169e+02	-7.6294	-66.243342	0.000365	3.648060	0.617998	0.000073
1627	1.6179e+02	-7.6089	-66.219119	0.000122	1.216020	0.205999	0.000024
1628	1.6189e+02	-7.5896	-66.150488	0.000345	3.445390	0.583665	0.000069
1629	1.6199e+02	-7.5684	-66.122228	0.000142	1.418690	0.240333	0.000028
1630	1.6209e+02	-7.5500	-66.061671	0.000304	3.040050	0.514998	0.000061
1631	1.6219e+02	-7.5299	-65.993039	0.000345	3.445390	0.583665	0.000069
1632	1.6228e+02	-7.5107	-65.989002	0.000020	0.202670	0.034333	0.000004
1633	1.6238e+02	-7.4902	-65.867888	0.000608	6.080100	1.029997	0.000122
1634	1.6248e+02	-7.4702	-65.875962	-0.000041	-0.405340	-0.068666	-0.000008
1635	1.6258e+02	-7.4500	-65.787145	0.000446	4.458740	0.755331	0.000089
1636	1.6268e+02	-7.4307	-65.742737	0.000223	2.229370	0.377666	0.000045
1637	1.6278e+02	-7.4109	-65.682180	0.000304	3.040050	0.514998	0.000061
1638	1.6288e+02	-7.3923	-65.581251	0.000507	5.066750	0.858331	0.000101
1639	1.6298e+02	-7.3708	-65.565103	0.000081	0.810680	0.137333	0.000016
1640	1.6308e+02	-7.3508	-65.540880	0.000122	1.216020	0.205999	0.000024
1641	1.6318e+02	-7.3314	-65.496472	0.000223	2.229370	0.377666	0.000045
1642	1.6328e+02	-7.3108	-65.407655	0.000446	4.458740	0.755331	0.000089
1643	1.6338e+02	-7.2906	-65.334986	0.000365	3.648060	0.617998	0.000073
1644	1.6348e+02	-7.2710	-65.270392	0.000324	3.242720	0.549332	0.000065
1645	1.6358e+02	-7.2507	-65.209835	0.000304	3.040050	0.514998	0.000061
1646	1.6368e+02	-7.2309	-65.185612	0.000122	1.216020	0.205999	0.000024
1647	1.6378e+02	-7.2112	-65.096795	0.000446	4.458740	0.755331	0.000089
1648	1.6388e+02	-7.1916	-65.020090	0.000385	3.850730	0.652331	0.000077
1649	1.6398e+02	-7.1710	-64.959533	0.000304	3.040050	0.514998	0.000061
1650	1.6408e+02	-7.1518	-64.951458	0.000041	0.405340	0.068666	0.000008
1651	1.6418e+02	-7.1317	-64.903013	0.000243	2.432040	0.411999	0.000049
1652	1.6427e+02	-7.1112	-64.798047	0.000527	5.269420	0.892664	0.000105
1653	1.6437e+02	-7.0922	-64.769787	0.000142	1.418690	0.240333	0.000028
1654	1.6447e+02	-7.0724	-64.644636	0.000628	6.282770	1.064330	0.000126
1655	1.6457e+02	-7.0520	-64.636562	0.000041	0.405340	0.068666	0.000008
1656	1.6467e+02	-7.0319	-64.596190	0.000203	2.026700	0.343332	0.000041
1657	1.6477e+02	-7.0113	-64.531596	0.000324	3.242720	0.549332	0.000065
1658	1.6487e+02	-6.9916	-64.458928	0.000365	3.648060	0.617998	0.000073
1659	1.6497e+02	-6.9724	-64.366074	0.000466	4.661410	0.789664	0.000093
1660	1.6507e+02	-6.9519	-64.349925	0.000081	0.810680	0.137333	0.000016
1661	1.6517e+02	-6.9321	-64.297442	0.000263	2.634710	0.446332	0.000053
1662	1.6527e+02	-6.9127	-64.220737	0.000385	3.850730	0.652331	0.000077
1663	1.6537e+02	-6.8927	-64.168254	0.000263	2.634710	0.446332	0.000053
1664	1.6547e+02	-6.8723	-64.107697	0.000304	3.040050	0.514998	0.000061
1665	1.6557e+02	-6.8524	-64.010806	0.000486	4.864080	0.823998	0.000097
1666	1.6567e+02	-6.8321	-63.946212	0.000324	3.242720	0.549332	0.000065
1667	1.6577e+02	-6.8134	-63.901803	0.000223	2.229370	0.377666	0.000045
1668	1.6587e+02	-6.7935	-63.825097	0.000385	3.850730	0.652331	0.000077
1669	1.6597e+02	-6.7734	-63.764540	0.000304	3.040050	0.514998	0.000061
1670	1.6607e+02	-6.7521	-63.716095	0.000243	2.432040	0.411999	0.000049
1671	1.6616e+02	-6.7329	-63.647463	0.000345	3.445390	0.583665	0.000069
1672	1.6626e+02	-6.7135	-63.594981	0.000263	2.634710	0.446332	0.000053
1673	1.6636e+02	-6.6936	-63.534424	0.000304	3.040050	0.514998	0.000061
1674	1.6646e+02	-6.6728	-63.425421	0.000547	5.472090	0.926997	0.000110
1675	1.6656e+02	-6.6516	-63.417347	0.000041	0.405340	0.068666	0.000008
1676	1.6666e+02	-6.6336	-63.336604	0.000405	4.053400	0.686665	0.000081
1677	1.6676e+02	-6.6136	-63.255861	0.000405	4.053400	0.686665	0.000081
1678	1.6686e+02	-6.5947	-63.215490	0.000203	2.026700	0.343332	0.000041
1679	1.6696e+02	-6.5735	-63.094376	0.000608	6.080100	1.029997	0.000122
1680	1.6706e+02	-6.5540	-63.054005	0.000203	2.026700	0.343332	0.000041
1681	1.6716e+02	-6.5341	-63.025745	0.000142	1.418690	0.240333	0.000028
1682	1.6726e+02	-6.5143	-62.965188	0.000304	3.040050	0.514998	0.000061
1683	1.6736e+02	-6.4940	-62.880408	0.000426	4.256070	0.720998	0.000085
1684	1.6746e+02	-6.4742	-62.819851	0.000304	3.040050	0.514998	0.000061
1685	1.6756e+02	-6.4548	-62.722959	0.000486	4.864080	0.823998	0.000097
1686	1.6766e+02	-6.4342	-62.686625	0.000182	1.824030	0.308999	0.000037
1687	1.6776e+02	-6.4148	-62.573585	0.000567	5.674760	0.961330	0.000114
1688	1.6786e+02	-6.3940	-62.557437	0.000081	0.810680	0.137333	0.000016
1689	1.6796e+02	-6.3739	-62.468620	0.000446	4.458740	0.755331	0.000089
1690	1.6806e+02	-6.3538	-62.359617	0.000547	5.472090	0.926997	0.000110
1691	1.6816e+02	-6.3345	-62.335394	0.000122	1.216020	0.205999	0.000024
1692	1.6825e+02	-6.3135	-62.274837	0.000304	3.040050	0.514998	0.000061
1693	1.6835e+02	-6.2958	-62.186020	0.000446	4.458740	0.755331	0.000089
1694	1.6845e+02	-6.2744	-62.125463	0.000304	3.040050	0.514998	0.000061
1695	1.6855e+02	-6.2555	-62.008386	0.000588	5.877430	0.995664	0.000118
1696	1.6865e+02	-6.2352	-61.963978	0.000223	2.229370	0.377666	0.000045
1697	1.6875e+02	-6.2103	-61.907458	0.000284	2.837380	0.480665	0.000057
1698	1.6885e+02	-6.1955	-61.830752	0.000385	3.850730	0.652331	0.000077
1699	1.6895e+02	-6.1743	-61.741935	0.000446	4.458740	0.755331	0.000089
1700	1.6905e+02	-6.1551	-61.705601	0.000182	1.824030	0.308999	0.000037
1701	1.6915e+02	-6.1356	-61.608710	0.000486	4.864080	0.823998	0.000097
1702	1.6925e+02	-6.1160	-61.532004	0.000385	3.850730	0.652331	0.000077
1703	1.6935e+02	-6.0944	-61.471447	0.000304	3.040050	0.514998	0.000061
1704	1.6945e+02	-6.0764	-61.406853	0.000324	3.242720	0.549332	0.000065
1705	1.6955e+02	-6.0558	-61.330148	0.000385	3.850730	0.652331	0.000077
1706	1.6965e+02	-6.0358	-61.285739	0.000223	2.229370	0.377666	0.000045
1707	1.6975e+02	-6.0156	-61.168662	0.000588	5.877430	0.995664	0.000118
1708	1.6985e+02	-5.9964	-61.079845	0.000446	4.458740	0.755331	0.000089
1709	1.6995e+02	-5.9756	-61.011214	0.000345	3.445390	0.583665	0.000069
1710	1.7005e+02	-5.9566	-60.946620	0.000324	3.242720	0.549332	0.000065
1711	1.7015e+02	-5.9357	-60.886063	0.000304	3.040050	0.514998	0.000061
1712	1.7024e+02	-5.9161	-60.801283	0.000426	4.256070	0.720998	0.000085
1713	1.7034e+02	-5.8960	-60.708429	0.000466	4.661410	0.789664	0.000093
1714	1.7044e+02	-5.8757	-60.655946	0.000263	2.634710	0.446332	0.000053
1715	1.7054e+02	-5.8568	-60.587315	0.000345	3.445390	0.583665	0.000069
1716	1.7064e+02	-5.8368	-60.522720	0.000324	3.242720	0.549332	0.000065
1717	1.7074e+02	-5.8177	-60.441978	0.000405	4.053400	0.686665	0.000081
1718	1.7084e+02	-5.7959	-60.365272	0.000385	3.850730	0.652331	0.000077
1719	1.7094e+02	-5.7773	-60.296641	0.000345	3.445390	0.583665	0.000069
1720	1.7104e+02	-5.7571	-60.179564	0.000588	5.877430	0.995664	0.000118
1721	1.7114e+02	-5.7372	-60.090747	0.000446	4.458740	0.755331	0.000089
1722	1.7124e+02	-5.7175	-60.042301	0.000243	2.432040	0.411999	0.000049
1723	1.7134e+02	-5.6973	-59.989818	0.000263	2.634710	0.446332	0.000053
1724	1.7144e+02	-5.6772	-59.925224	0.000324	3.242720	0.549332	0.000065
1725	1.7154e+02	-5.6570	-59.876779	0.000243	2.432040	0.411999	0.000049
1726	1.7164e+02	-5.6366	-59.747590	0.000649	6.485440	1.098663	0.000130
1727	1.7174e+02	-5.6180	-59.678959	0.000345	3.445390	0.583665	0.000069
1728	1.7184e+02	-5.5975	-59.602253	0.000385	3.850730	0.652331	0.000077
1729	1.7194e+02	-5.5768	-59.549771	0.000263	2.634710	0.446332	0.000053
1730	1.7204e+02	-5.5573	-59.456917	0.000466	4.661410	0.789664	0.000093
1731	1.7213e+02	-5.5383	-59.384248	0.000365	3.648060	0.617998	0.000073
1732	1.7223e+02	-5.5176	-59.331765	0.000263	2.634710	0.446332	0.000053
1733	1.7233e+02	-5.4968	-59.206614	0.000628	6.282770	1.064330	0.000126
1734	1.7243e+02	-5.4782	-59.113760	0.000466	4.661410	0.789664	0.000093
1735	1.7253e+02	-5.4570	-59.089537	0.000122	1.216020	0.205999	0.000024
1736	1.7263e+02	-5.4377	-58.940163	0.000750	7.498790	1.270329	0.000150
1737	1.7273e+02	-5.4184	-58.911903	0.000142	1.418690	0.240333	0.000028
1738	1.7283e+02	-5.3986	-58.810975	0.000507	5.066750	0.858331	0.000101
1739	1.7293e+02	-5.3786	-58.742344	0.000345	3.445390	0.583665	0.000069
1740	1.7303e+02	-5.3584	-58.681787	0.000304	3.040050	0.514998	0.000061
1741	1.7313e+02	-5.3386	-58.564710	0.000588	5.877430	0.995664	0.000118
1742	1.7323e+02	-5.3182	-58.492041	0.000365	3.648060	0.617998	0.000073
1743	1.7333e+02	-5.2972	-58.439558	0.000263	2.634710	0.446332	0.000053
1744	1.7343e+02	-5.2777	-58.318444	0.000608	6.080100	1.029997	0.000122
1745	1.7353e+02	-5.2583	-58.269999	0.000243	2.432040	0.411999	0.000049
1746	1.7363e+02	-5.2393	-58.160996	0.000547	5.472090	0.926997	0.000110
1747	1.7373e+02	-5.2190	-58.060068	0.000507	5.066750	0.858331	0.000101
1748	1.7383e+02	-5.1984	-58.011622	0.000243	2.432040	0.411999	0.000049
1749	1.7393e+02	-5.1793	-57.878397	0.000669	6.688110	1.132997	0.000134
1750	1.7403e+02	-5.1587	-57.809765	0.000345	3.445390	0.583665	0.000069
1751	1.7413e+02	-5.1384	-57.733060	0.000385	3.850730	0.652331	0.000077
1752	1.7422e+02	-5.1196	-57.640205	0.000466	4.661410	0.789664	0.000093
1753	1.7432e+02	-5.0995	-57.555426	0.000426	4.256070	0.720998	0.000085
1754	1.7442e+02	-5.0787	-57.462572	0.000466	4.661410	0.789664	0.000093
1755	1.7452e+02	-5.0597	-57.414126	0.000243	2.432040	0.411999	0.000049
1756	1.7462e+02	-5.0396	-57.268789	0.000730	7.296120	1.235996	0.000146
1757	1.7472e+02	-5.0204	-57.232455	0.000182	1.824030	0.308999	0.000037
1758	1.7482e+02	-5.0000	-57.123452	0.000547	5.472090	0.926997	0.000110
1759	1.7492e+02	-4.9802	-57.026561	0.000486	4.864080	0.823998	0.000097
1760	1.7502e+02	-4.9597	-56.974078	0.000263	2.634710	0.446332	0.000053
1761	1.7512e+02	-4.9406	-56.881224	0.000466	4.661410	0.789664	0.000093
1762	1.7522e+02	-4.9194	-56.764147	0.000588	5.877430	0.995664	0.000118
1763	1.7532e+02	-4.8997	-56.699553	0.000324	3.242720	0.549332	0.000065
1764	1.7542e+02	-4.8803	-56.659182	0.000203	2.026700	0.343332	0.000041
1765	1.7552e+02	-4.8608	-56.542105	0.000588	5.877430	0.995664	0.000118
1766	1.7562e+02	-4.8406	-56.408879	0.000669	6.688110	1.132997	0.000134
1767	1.7572e+02	-4.8205	-56.380619	0.000142	1.418690	0.240333	0.000028
1768	1.7582e+02	-4.8000	-56.311988	0.000345	3.445390	0.583665	0.000069
1769	1.7592e+02	-4.7807	-56.170688	0.000709	7.093450	1.201663	0.000142
1770	1.7602e+02	-4.7610	-56.073797	0.000486	4.864080	0.823998	0.000097
1771	1.7612e+02	-4.7403	-55.993054	0.000405	4.053400	0.686665	0.000081
1772	1.7621e+02	-4.7203	-55.920386	0.000365	3.648060	0.617998	0.000073
1773	1.7631e+02	-4.7002	-55.847717	0.000365	3.648060	0.617998	0.000073
1774	1.7641e+02	-4.6801	-55.734677	0.000567	5.674760	0.961330	0.000114
1775	1.7651e+02	-4.6612	-55.674120	0.000304	3.040050	0.514998	0.000061
1776	1.7661e+02	-4.6408	-55.561081	0.000567	5.674760	0.961330	0.000114
1777	1.7671e+02	-4.6204	-55.460152	0.000507	5.066750	0.858331	0.000101
1778	1.7681e+02	-4.6013	-55.391521	0.000345	3.445390	0.583665	0.000069
1779	1.7691e+02	-4.5815	-55.290593	0.000507	5.066750	0.858331	0.000101
1780	1.7701e+02	-4.5615	-55.221961	0.000345	3.445390	0.583665	0.000069
1781	1.7711e+02	-4.5413	-55.165441	0.000284	2.837380	0.480665	0.000057
1782	1.7721e+02	-4.5219	-55.080661	0.000426	4.256070	0.720998	0.000085
1783	1.7731e+02	-4.5013	-54.947436	0.000669	6.688110	1.132997	0.000134
1784	1.7741e+02	-4.4818	-54.882842	0.000324	3.242720	0.549332	0.000065
1785	1.7751e+02	-4.4612	-54.761728	0.000608	6.080100	1.029997	0.000122
1786	1.7761e+02	-4.4421	-54.660799	0.000507	5.066750	0.858331	0.000101
1787	1.7771e+02	-4.4213	-54.628502	0.000162	1.621360	0.274666	0.000032
1788	1.7781e+02	-4.4018	-54.515462	0.000567	5.674760	0.961330	0.000114
1789	1.7791e+02	-4.3816	-54.394348	0.000608	6.080100	1.029997	0.000122
1790	1.7801e+02	-4.3646	-54.329754	0.000324	3.242720	0.549332	0.000065
1791	1.7810e+02	-4.3425	-54.232863	0.000486	4.864080	0.823998	0.000097
1792	1.7820e+02	-4.3221	-54.204603	0.000142	1.418690	0.240333	0.000028
1793	1.7830e+02	-4.3018	-54.039080	0.000831	8.309471	1.407662	0.000166
1794	1.7840e+02	-4.2818	-53.966412	0.000365	3.648060	0.617998	0.000073
1795	1.7850e+02	-4.2623	-53.893744	0.000365	3.648060	0.617998	0.000073
1796	1.7860e+02	-4.2422	-53.792815	0.000507	5.066750	0.858331	0.000101
1797	1.7870e+02	-4.2226	-53.699961	0.000466	4.661410	0.789664	0.000093
1798	1.7880e+02	-4.2017	-53.619218	0.000405	4.053400	0.686665	0.000081
1799	1.7890e+02	-4.1824	-53.494067	0.000628	6.282770	1.064330	0.000126
1800	1.7900e+02	-4.1629	-53.393139	0.000507	5.066750	0.858331	0.000101
1801	1.7910e+02	-4.1431	-53.308359	0.000426	4.256070	0.720998	0.000085
1802	1.7920e+02	-4.1223	-53.195319	0.000567	5.674760	0.961330	0.000114
1803	1.7930e+02	-4.1026	-53.138799	0.000284	2.837380	0.480665	0.000057
1804	1.7940e+02	-4.0826	-53.074205	0.000324	3.242720	0.549332	0.000065
1805	1.7950e+02	-4.0625	-52.969239	0.000527	5.269420	0.892664	0.000105
1806	1.7960e+02	-4.0432	-52.880422	0.000446	4.458740	0.755331	0.000089
1807	1.7970e+02	-4.0228	-52.779494	0.000507	5.066750	0.858331	0.000101
1808	1.7980e+02	-4.0031	-52.662417	0.000588	5.877430	0.995664	0.000118
1809	1.7990e+02	-3.9828	-52.573600	0.000446	4.458740	0.755331	0.000089
1810	1.8000e+02	-3.9632	-52.484783	0.000446	4.458740	0.755331	0.000089
1811	1.8009e+02	-3.9432	-52.391929	0.000466	4.661410	0.789664	0.000093
1812	1.8019e+02	-3.9236	-52.278889	0.000567	5.674760	0.961330	0.000114
1813	1.8029e+02	-3.9040	-52.169887	0.000547	5.472090	0.926997	0.000110
1814	1.8039e+02	-3.8826	-52.093181	0.000385	3.850730	0.652331	0.000077
1815	1.8049e+02	-3.8626	-52.008401	0.000426	4.256070	0.720998	0.000085
1816	1.8059e+02	-3.8434	-51.867101	0.000709	7.093450	1.201663	0.000142
1817	1.8069e+02	-3.8232	-51.830767	0.000182	1.824030	0.308999	0.000037
1818	1.8079e+02	-3.8039	-51.737913	0.000466	4.661410	0.789664	0.000093
1819	1.8089e+02	-3.7841	-51.616799	0.000608	6.080100	1.029997	0.000122
1820	1.8099e+02	-3.7646	-51.540093	0.000385	3.850730	0.652331	0.000077
1821	1.8109e+02	-3.7436	-51.475499	0.000324	3.242720	0.549332	0.000065
1822	1.8119e+02	-3.7225	-51.382645	0.000466	4.661410	0.789664	0.000093
1823	1.8129e+02	-3.7047	-51.257494	0.000628	6.282770	1.064330	0.000126
1824	1.8139e+02	-3.6844	-51.172714	0.000426	4.256070	0.720998	0.000085
1825	1.8149e+02	-3.6646	-51.063711	0.000547	5.472090	0.926997	0.000110
1826	1.8159e+02	-3.6447	-50.982969	0.000405	4.053400	0.686665	0.000081
1827	1.8169e+02	-3.6254	-50.894152	0.000446	4.458740	0.755331	0.000089
1828	1.8179e+02	-3.6059	-50.793223	0.000507	5.066750	0.858331	0.000101
1829	1.8189e+02	-3.5852	-50.672109	0.000608	6.080100	1.029997	0.000122
1830	1.8199e+02	-3.5649	-50.579255	0.000466	4.661410	0.789664	0.000093
1831	1.8209e+02	-3.5446	-50.526772	0.000263	2.634710	0.446332	0.000053
1832	1.8218e+02	-3.5254	-50.425844	0.000507	5.066750	0.858331	0.000101
1833	1.8228e+02	-3.5050	-50.324916	0.000507	5.066750	0.858331	0.000101
1834	1.8238e+02	-3.4856	-50.223987	0.000507	5.066750	0.858331	0.000101
1835	1.8248e+02	-3.4655	-50.123059	0.000507	5.066750	0.858331	0.000101
1836	1.8258e+02	-3.4457	-50.066539	0.000284	2.837380	0.480665	0.000057
1837	1.8268e+02	-3.4265	-49.925239	0.000709	7.093450	1.201663	0.000142
1838	1.8278e+02	-3.4055	-49.840459	0.000426	4.256070	0.720998	0.000085
1839	1.8288e+02	-3.3862	-49.763754	0.000385	3.850730	0.652331	0.000077
1840	1.8298e+02	-3.3649	-49.670900	0.000466	4.661410	0.789664	0.000093
1841	1.8308e+02	-3.3464	-49.586120	0.000426	4.256070	0.720998	0.000085
1842	1.8318e+02	-3.3261	-49.493266	0.000466	4.661410	0.789664	0.000093
1843	1.8328e+02	-3.3061	-49.440783	0.000263	2.634710	0.446332	0.000053
1844	1.8338e+02	-3.2854	-49.247000	0.000973	9.728161	1.647995	0.000195
1845	1.8348e+02	-3.2657	-49.190480	0.000284	2.837380	0.480665	0.000057
1846	1.8358e+02	-3.2463	-49.109738	0.000405	4.053400	0.686665	0.000081
1847	1.8368e+02	-3.2262	-48.976512	0.000669	6.688110	1.132997	0.000134
1848	1.8378e+02	-3.2060	-48.932104	0.000223	2.229370	0.377666	0.000045
1849	1.8388e+02	-3.1857	-48.823101	0.000547	5.472090	0.926997	0.000110
1850	1.8398e+02	-3.1660	-48.701987	0.000608	6.080100	1.029997	0.000122
1851	1.8407e+02	-3.1464	-48.601059	0.000507	5.066750	0.858331	0.000101
1852	1.8417e+02	-3.1271	-48.536464	0.000324	3.242720	0.549332	0.000065
1853	1.8427e+02	-3.1066	-48.419387	0.000588	5.877430	0.995664	0.000118
1854	1.8437e+02	-3.0876	-48.302311	0.000588	5.877430	0.995664	0.000118
1855	1.8447e+02	-3.0672	-48.265976	0.000182	1.824030	0.308999	0.000037
1856	1.8457e+02	-3.0472	-48.096417	0.000851	8.512141	1.441996	0.000170
1857	1.8467e+02	-3.0269	-48.039897	0.000284	2.837380	0.480665	0.000057
1858	1.8477e+02	-3.0075	-47.922820	0.000588	5.877430	0.995664	0.000118
1859	1.8487e+02	-2.9868	-47.809780	0.000567	5.674760	0.961330	0.000114
1860	1.8497e+02	-2.9669	-47.688666	0.000608	6.080100	1.029997	0.000122
1861	1.8507e+02	-2.9464	-47.632146	0.000284	2.837380	0.480665	0.000057
1862	1.8517e+02	-2.9282	-47.519106	0.000567	5.674760	0.961330	0.000114
1863	1.8527e+02	-2.9079	-47.430289	0.000446	4.458740	0.755331	0.000089
1864	1.8537e+02	-2.8876	-47.313212	0.000588	5.877430	0.995664	0.000118
1865	1.8547e+02	-2.8670	-47.228432	0.000426	4.256070	0.720998	0.000085
1866	1.8557e+02	-2.8470	-47.123467	0.000527	5.269420	0.892664	0.000105
1867	1.8567e+02	-2.8276	-47.046761	0.000385	3.850730	0.652331	0.000077
1868	1.8577e+02	-2.8086	-46.929684	0.000588	5.877430	0.995664	0.000118
1869	1.8587e+02	-2.7873	-46.772236	0.000790	7.904130	1.338996	0.000158
1870	1.8597e+02	-2.7672	-46.715716	0.000284	2.837380	0.480665	0.000057
1871	1.8606e+02	-2.7481	-46.643048	0.000365	3.648060	0.617998	0.000073
1872	1.8616e+02	-2.7277	-46.501748	0.000709	7.093450	1.201663	0.000142
1873	1.8626e+02	-2.7074	-46.400820	0.000507	5.066750	0.858331	0.000101
1874	1.8636e+02	-2.6881	-46.303928	0.000486	4.864080	0.823998	0.000097
1875	1.8646e+02	-2.6685	-46.190889	0.000567	5.674760	0.961330	0.000114
1876	1.8656e+02	-2.6477	-46.118220	0.000365	3.648060	0.617998	0.000073
1877	1.8666e+02	-2.6288	-46.037477	0.000405	4.053400	0.686665	0.000081
1878	1.8676e+02	-2.6077	-45.904252	0.000669	6.688110	1.132997	0.000134
1879	1.8686e+02	-2.5887	-45.827546	0.000385	3.850730	0.652331	0.000077
1880	1.8696e+02	-2.5690	-45.698358	0.000649	6.485440	1.098663	0.000130
1881	1.8706e+02	-2.5488	-45.544947	0.000770	7.701460	1.304663	0.000154
1882	1.8716e+02	-2.5286	-45.512650	0.000162	1.621360	0.274666	0.000032
1883	1.8726e+02	-2.5098	-45.379424	0.000669	6.688110	1.132997	0.000134
1884	1.8736e+02	-2.4889	-45.282533	0.000486	4.864080	0.823998	0.000097
1885	1.8746e+02	-2.4688	-45.185642	0.000486	4.864080	0.823998	0.000097
1886	1.8756e+02	-2.4499	-45.084713	0.000507	5.066750	0.858331	0.000101
1887	1.8766e+02	-2.4300	-44.987822	0.000486	4.864080	0.823998	0.000097
1888	1.8776e+02	-2.4094	-44.907079	0.000405	4.053400	0.686665	0.000081
1889	1.8786e+02	-2.3887	-44.781928	0.000628	6.282770	1.064330	0.000126
1890	1.8796e+02	-2.3695	-44.648703	0.000669	6.688110	1.132997	0.000134
1891	1.8806e+02	-2.3495	-44.608331	0.000203	2.026700	0.343332	0.000041
1892	1.8815e+02	-2.3297	-44.483180	0.000628	6.282770	1.064330	0.000126
1893	1.8825e+02	-2.3098	-44.358029	0.000628	6.282770	1.064330	0.000126
1894	1.8835e+02	-2.2911	-44.289398	0.000345	3.445390	0.583665	0.000069
1895	1.8845e+02	-2.2698	-44.172321	0.000588	5.877430	0.995664	0.000118
1896	1.8855e+02	-2.2504	-44.111764	0.000304	3.040050	0.514998	0.000061
1897	1.8865e+02	-2.2301	-43.922018	0.000953	9.525491	1.613662	0.000191
1898	1.8875e+02	-2.2103	-43.853387	0.000345	3.445390	0.583665	0.000069
1899	1.8885e+02	-2.1902	-43.756496	0.000486	4.864080	0.823998	0.000097
1900	1.8895e+02	-2.1706	-43.659604	0.000486	4.864080	0.823998	0.000097
1901	1.8905e+02	-2.1504	-43.550602	0.000547	5.472090	0.926997	0.000110
1902	1.8915e+02	-2.1307	-43.409302	0.000709	7.093450	1.201663	0.000142
1903	1.8925e+02	-2.1112	-43.308374	0.000507	5.066750	0.858331	0.000101
1904	1.8935e+02	-2.0903	-43.231668	0.000385	3.850730	0.652331	0.000077
1905	1.8945e+02	-2.0705	-43.106517	0.000628	6.282770	1.064330	0.000126
1906	1.8955e+02	-2.0506	-43.001551	0.000527	5.269420	0.892664	0.000105
1907	1.8965e+02	-2.0309	-42.924846	0.000385	3.850730	0.652331	0.000077
1908	1.8975e+02	-2.0117	-42.787583	0.000689	6.890780	1.167330	0.000138
1909	1.8985e+02	-1.9907	-42.731063	0.000284	2.837380	0.480665	0.000057
1910	1.8995e+02	-1.9702	-42.569578	0.000811	8.106800	1.373329	0.000162
1911	1.9004e+02	-1.9511	-42.480761	0.000446	4.458740	0.755331	0.000089
1912	1.9014e+02	-1.9303	-42.363684	0.000588	5.877430	0.995664	0.000118
1913	1.9024e+02	-1.9106	-42.258718	0.000527	5.269420	0.892664	0.000105
1914	1.9034e+02	-1.8908	-42.153753	0.000527	5.269420	0.892664	0.000105
1915	1.9044e+02	-1.8715	-42.040713	0.000567	5.674760	0.961330	0.000114
1916	1.9054e+02	-1.8509	-41.907488	0.000669	6.688110	1.132997	0.000134
1917	1.9064e+02	-1.8314	-41.822708	0.000426	4.256070	0.720998	0.000085
1918	1.9074e+02	-1.8121	-41.677371	0.000730	7.296120	1.235996	0.000146
1919	1.9084e+02	-1.7920	-41.616814	0.000304	3.040050	0.514998	0.000061
1920	1.9094e+02	-1.7713	-41.491663	0.000628	6.282770	1.064330	0.000126
1921	1.9104e+02	-1.7517	-41.398808	0.000466	4.661410	0.789664	0.000093
1922	1.9114e+02	-1.7326	-41.281731	0.000588	5.877430	0.995664	0.000118
1923	1.9124e+02	-1.7130	-41.144469	0.000689	6.890780	1.167330	0.000138
1924	1.9134e+02	-1.6920	-41.043540	0.000507	5.066750	0.858331	0.000101
1925	1.9144e+02	-1.6714	-40.938575	0.000527	5.269420	0.892664	0.000105
1926	1.9154e+02	-1.6524	-40.841684	0.000486	4.864080	0.823998	0.000097
1927	1.9164e+02	-1.6316	-40.732681	0.000547	5.472090	0.926997	0.000110
1928	1.9174e+02	-1.6121	-40.587344	0.000730	7.296120	1.235996	0.000146
1929	1.9184e+02	-1.5926	-40.474304	0.000567	5.674760	0.961330	0.000114
1930	1.9194e+02	-1.5723	-40.337042	0.000689	6.890780	1.167330	0.000138
1931	1.9203e+02	-1.5518	-40.264373	0.000365	3.648060	0.617998	0.000073
1932	1.9213e+02	-1.5323	-40.131148	0.000669	6.688110	1.132997	0.000134
1933	1.9223e+02	-1.5129	-40.074628	0.000284	2.837380	0.480665	0.000057
1934	1.9233e+02	-1.4931	-39.913142	0.000811	8.106800	1.373329	0.000162
1935	1.9243e+02	-1.4730	-39.812214	0.000507	5.066750	0.858331	0.000101
1936	1.9253e+02	-1.4526	-39.687063	0.000628	6.282770	1.064330	0.000126
1937	1.9263e+02	-1.4340	-39.582097	0.000527	5.269420	0.892664	0.000105
1938	1.9273e+02	-1.4125	-39.465020	0.000588	5.877430	0.995664	0.000118
1939	1.9283e+02	-1.3925	-39.335832	0.000649	6.485440	1.098663	0.000130
1940	1.9293e+02	-1.3729	-39.287386	0.000243	2.432040	0.411999	0.000049
1941	1.9303e+02	-1.3531	-39.138012	0.000750	7.498790	1.270329	0.000150
1942	1.9313e+02	-1.3332	-39.073418	0.000324	3.242720	0.549332	0.000065
1943	1.9323e+02	-1.3124	-38.903859	0.000851	8.512141	1.441996	0.000170
1944	1.9333e+02	-1.2936	-38.863487	0.000203	2.026700	0.343332	0.000041
1945	1.9343e+02	-1.2732	-38.734299	0.000649	6.485440	1.098663	0.000130
1946	1.9353e+02	-1.2555	-38.613185	0.000608	6.080100	1.029997	0.000122
1947	1.9363e+02	-1.2341	-38.463811	0.000750	7.498790	1.270329	0.000150
1948	1.9373e+02	-1.2152	-38.407291	0.000284	2.837380	0.480665	0.000057
1949	1.9383e+02	-1.1939	-38.278103	0.000649	6.485440	1.098663	0.000130
1950	1.9393e+02	-1.1749	-38.169100	0.000547	5.472090	0.926997	0.000110
1951	1.9403e+02	-1.1547	-38.015689	0.000770	7.701460	1.304663	0.000154
1952	1.9412e+02	-1.1345	-37.943020	0.000365	3.648060	0.617998	0.000073
1953	1.9422e+02	-1.1142	-37.781535	0.000811	8.106800	1.373329	0.000162
1954	1.9432e+02	-1.0942	-37.688681	0.000466	4.661410	0.789664	0.000093
1955	1.9442e+02	-1.0738	-37.599864	0.000446	4.458740	0.755331	0.000089
1956	1.9452e+02	-1.0545	-37.490861	0.000547	5.472090	0.926997	0.000110
1957	1.9462e+02	-1.0343	-37.365710	0.000628	6.282770	1.064330	0.000126
1958	1.9472e+02	-1.0155	-37.264781	0.000507	5.066750	0.858331	0.000101
1959	1.9482e+02	-0.9943	-37.155779	0.000547	5.472090	0.926997	0.000110
1960	1.9492e+02	-0.9747	-37.050813	0.000527	5.269420	0.892664	0.000105
1961	1.9502e+02	-0.9543	-36.921625	0.000649	6.485440	1.098663	0.000130
1962	1.9512e+02	-0.9351	-36.844919	0.000385	3.850730	0.652331	0.000077
1963	1.9522e+02	-0.9154	-36.687471	0.000790	7.904130	1.338996	0.000158
1964	1.9532e+02	-0.8953	-36.606728	0.000405	4.053400	0.686665	0.000081
1965	1.9542e+02	-0.8752	-36.497726	0.000547	5.472090	0.926997	0.000110
1966	1.9552e+02	-0.8560	-36.376612	0.000608	6.080100	1.029997	0.000122
1967	1.9562e+02	-0.8358	-36.235312	0.000709	7.093450	1.201663	0.000142
1968	1.9572e+02	-0.8150	-36.122272	0.000567	5.674760	0.961330	0.000114
1969	1.9582e+02	-0.7948	-36.029418	0.000466	4.661410	0.789664	0.000093
1970	1.9592e+02	-0.7753	-35.888118	0.000709	7.093450	1.201663	0.000142
1971	1.9601e+02	-0.7562	-35.803338	0.000426	4.256070	0.720998	0.000085
1972	1.9611e+02	-0.7359	-35.662039	0.000709	7.093450	1.201663	0.000142
1973	1.9621e+02	-0.7152	-35.557073	0.000527	5.269420	0.892664	0.000105
1974	1.9631e+02	-0.6962	-35.480367	0.000385	3.850730	0.652331	0.000077
1975	1.9641e+02	-0.6762	-35.330993	0.000750	7.498790	1.270329	0.000150
1976	1.9651e+02	-0.6559	-35.226028	0.000527	5.269420	0.892664	0.000105
1977	1.9661e+02	-0.6364	-35.104914	0.000608	6.080100	1.029997	0.000122
1978	1.9671e+02	-0.6161	-34.999948	0.000527	5.269420	0.892664	0.000105
1979	1.9681e+02	-0.5962	-34.870760	0.000649	6.485440	1.098663	0.000130
1980	1.9691e+02	-0.5763	-34.761757	0.000547	5.472090	0.926997	0.000110
1981	1.9701e+02	-0.5565	-34.628532	0.000669	6.688110	1.132997	0.000134
1982	1.9711e+02	-0.5363	-34.551826	0.000385	3.850730	0.652331	0.000077
1983	1.9721e+02	-0.5159	-34.458972	0.000466	4.661410	0.789664	0.000093
1984	1.9731e+02	-0.4971	-34.317672	0.000709	7.093450	1.201663	0.000142
1985	1.9741e+02	-0.4761	-34.196558	0.000608	6.080100	1.029997	0.000122
1986	1.9751e+02	-0.4558	-34.099667	0.000486	4.864080	0.823998	0.000097
1987	1.9761e+02	-0.4367	-33.958367	0.000709	7.093450	1.201663	0.000142
1988	1.9771e+02	-0.4169	-33.889736	0.000345	3.445390	0.583665	0.000069
1989	1.9781e+02	-0.3967	-33.764585	0.000628	6.282770	1.064330	0.000126
1990	1.9791e+02	-0.3773	-33.635396	0.000649	6.485440	1.098663	0.000130
1991	1.9800e+02	-0.3574	-33.534468	0.000507	5.066750	0.858331	0.000101
1992	1.9810e+02	-0.3378	-33.413354	0.000608	6.080100	1.029997	0.000122
1993	1.9820e+02	-0.3175	-33.296277	0.000588	5.877430	0.995664	0.000118
1994	1.9830e+02	-0.2972	-33.179200	0.000588	5.877430	0.995664	0.000118
1995	1.9840e+02	-0.2772	-33.090383	0.000446	4.458740	0.755331	0.000089
1996	1.9850e+02	-0.2569	-32.961195	0.000649	6.485440	1.098663	0.000130
1997	1.9860e+02	-0.2374	-32.872378	0.000446	4.458740	0.755331	0.000089
1998	1.9870e+02	-0.2176	-32.735115	0.000689	6.890780	1.167330	0.000138
1999	1.9880e+02	-0.1974	-32.634187	0.000507	5.066750	0.858331	0.000101
2000	1.9890e+02	-0.1772	-32.529221	0.000527	5.269420	0.892664	0.000105
2001	1.9900e+02	-0.1574	-32.420219	0.000547	5.472090	0.926997	0.000110
2002	1.9910e+02	-0.1369	-32.299104	0.000608	6.080100	1.029997	0.000122
2003	1.9920e+02	-0.1180	-32.210287	0.000446	4.458740	0.755331	0.000089
2004	1.9930e+02	-0.0980	-32.077062	0.000669	6.688110	1.132997	0.000134
2005	1.9940e+02	-0.0775	-32.016505	0.000304	3.040050	0.514998	0.000061
2006	1.9950e+02	-0.0584	-31.859057	0.000790	7.904130	1.338996	0.000158
2007	1.9960e+02	-0.0381	-31.741980	0.000588	5.877430	0.995664	0.000118
2008	1.9970e+02	-0.0179	-31.657200	0.000426	4.256070	0.720998	0.000085
2009	1.9980e+02	-0.0005	-31.532049	0.000426	4.256070	0.720998	0.000126

PMax (uC/cm2):	4.71e+01
Pr (uC/cm2):	3.28e+00
-Pr (uC/cm2):	-5.23e+01
PLoss (uC/cm2):	-5.23e+01
-Vc:	-5.64e-01
C (Max-Eff) (nF):	4.71e-01
K (Eff):	7.97e+02
Vert. (+/-Pr) Shift (uC/cm2):	-2.45e+01
Offset (uC/cm2):	-2.08e+01

A (Loop Area - uC/cm2·Volts):	-3.06e-01



Hysteresis Version: 5.48.1 - Radiant Technologies, Inc., 1999 - 9/12/24

