»»»»»»»»»»»»»»»»»»»»»»»»»»»»»»»»»»»» Hysteresis ««««««««««««««««««««««««««««««««««««
»»»  Executed Version:	5.48.1
»»»  Vision Version:	5.48.4 (R)
»»»  Vision Compiled:	9/18/24
»»»  Driver Version:	5.47.0
»»»  Windows Version:	Windows 8 or 8.1
»»»  Processor Information:	x86 (AMD or Intel) - 32 Processors
»»»  Tester Name:	PMF21124-494 (100V)
»»»  Tester S/N:	PMF21124-494
»»»  Internal Amp Type:	100V RevK 270k
»»»  Internal Amp S/N:	iAB2-596/K     
»»»  Execution Count:	1
»»»»»»»»»»»»»»»»»»»»»»»»»»»»»»»»»»»»»»»»»»««««««««««««««««««««««««««««««««««««««««««

Stored:	7/7/2025 - 13:33:6
Configured:	07/07/25 01:27:50 PM
Executed:	07/07/25 01:32:35 PM

»»»»»»»»»»»»»»»»»»»»»»»»»»»»»»»»»»» Sample Info ««««««««««««««««««««««««««««««««««««
Sample Name:	
Lot Name:	
Wafer Name:	
Die Row/Column:	0/0
Capacitor Number:	0
Sample Area (cm2):	1.00e-04
Sample Thickness (microns):	1.50e-01

Amplifier:	Internal

»»»»»»»»»»»»»»»»»»»»»»»»»»»»»»»»»»» Tester Info «««««««««««««««««««««««««««««««««««
Tester Name:	PMF21124-494 (100V)
Tester Serial Number:	PMF21124-494
Return Signal Amp. Level:	0.19 [Index: 3]

»»»»»»»»»»»»»»»»»»»»»»»»»»»»»»»» Hysteresis Info ««««««««««««««««««««««««««««««««««
Task Name:	Hyst-528
Volts:	10.00
Field:	666.67 (kV/cm)
DCBias:	0.00
DCField:	0.00 (kV/cm)
Hysteresis Period (ms):	2.00e+02
Preset:	Enabled
Preset Delay (ms):	1.00e+03
Profile:	Standard Bipolar

»»»»»»»»»»»»»»»»»»»»»»»»»»»»»»»»»»»»»» Data «««««««««««««««««««««««««««««««««««««««
Points:	2009

Valid Data

Point	Time (ms)	Drive Voltage	Measured Polarization (uC/cm2)	Capacitance (uF)	Normalized Capacitance (uF/cm2)	Dielectric Constant	Instantaneous Current (mA)
   1	0.0000e+00	0.0023	-0.306822	0.000507	5.066760	0.858332	0.000101
   2	9.9500e-02	0.0220	-0.205894	0.000507	5.066760	0.858332	0.000101
   3	1.9900e-01	0.0409	-0.044408	0.000811	8.106816	1.373332	0.000162
   4	2.9850e-01	0.0612	0.048446	0.000466	4.661419	0.789666	0.000093
   5	3.9800e-01	0.0813	0.181671	0.000669	6.688123	1.132999	0.000134
   6	4.9750e-01	0.1009	0.306822	0.000628	6.282782	1.064332	0.000126
   7	5.9700e-01	0.1205	0.399676	0.000466	4.661419	0.789666	0.000093
   8	6.9650e-01	0.1413	0.524828	0.000628	6.282782	1.064332	0.000126
   9	7.9600e-01	0.1601	0.666127	0.000709	7.093464	1.201665	0.000142
  10	8.9550e-01	0.1812	0.827613	0.000811	8.106816	1.373332	0.000162
  11	9.9500e-01	0.2008	0.912393	0.000426	4.256078	0.720999	0.000085
  12	1.0945e+00	0.2193	1.017358	0.000527	5.269430	0.892666	0.000105
  13	1.1940e+00	0.2405	1.186918	0.000851	8.512157	1.441998	0.000170
  14	1.2935e+00	0.2602	1.303995	0.000588	5.877442	0.995666	0.000118
  15	1.3930e+00	0.2797	1.445295	0.000709	7.093464	1.201665	0.000142
  16	1.4925e+00	0.3004	1.546223	0.000507	5.066760	0.858332	0.000101
  17	1.5920e+00	0.3201	1.651189	0.000527	5.269430	0.892666	0.000105
  18	1.6915e+00	0.3397	1.796525	0.000730	7.296134	1.235999	0.000146
  19	1.7910e+00	0.3601	1.937825	0.000709	7.093464	1.201665	0.000142
  20	1.8905e+00	0.3799	2.042791	0.000527	5.269430	0.892666	0.000105
  21	1.9900e+00	0.3989	2.180053	0.000689	6.890794	1.167332	0.000138
  22	2.0895e+00	0.4186	2.297130	0.000588	5.877442	0.995666	0.000118
  23	2.1890e+00	0.4393	2.426319	0.000649	6.485453	1.098665	0.000130
  24	2.2885e+00	0.4601	2.579730	0.000770	7.701475	1.304665	0.000154
  25	2.3880e+00	0.4787	2.704881	0.000628	6.282782	1.064332	0.000126
  26	2.4875e+00	0.4999	2.842144	0.000689	6.890794	1.167332	0.000138
  27	2.5870e+00	0.5191	2.959220	0.000588	5.877442	0.995666	0.000118
  28	2.6865e+00	0.5394	3.100520	0.000709	7.093464	1.201665	0.000142
  29	2.7860e+00	0.5594	3.253931	0.000770	7.701475	1.304665	0.000154
  30	2.8855e+00	0.5790	3.318526	0.000324	3.242726	0.549333	0.000065
  31	2.9850e+00	0.5995	3.459825	0.000709	7.093464	1.201665	0.000142
  32	3.0845e+00	0.6188	3.584977	0.000628	6.282782	1.064332	0.000126
  33	3.1840e+00	0.6385	3.762611	0.000892	8.917498	1.510665	0.000179
  34	3.2835e+00	0.6590	3.875650	0.000567	5.674771	0.961332	0.000114
  35	3.3830e+00	0.6796	4.049247	0.000871	8.714827	1.476332	0.000174
  36	3.4825e+00	0.6994	4.162287	0.000567	5.674771	0.961332	0.000114
  37	3.5820e+00	0.7186	4.251104	0.000446	4.458749	0.755332	0.000089
  38	3.6815e+00	0.7381	4.436812	0.000932	9.322838	1.579332	0.000187
  39	3.7810e+00	0.7586	4.505443	0.000345	3.445397	0.583666	0.000069
  40	3.8805e+00	0.7787	4.670966	0.000831	8.309486	1.407665	0.000166
  41	3.9800e+00	0.7993	4.844563	0.000871	8.714827	1.476332	0.000174
  42	4.0795e+00	0.8183	4.953566	0.000547	5.472101	0.926999	0.000110
  43	4.1790e+00	0.8387	5.131200	0.000892	8.917498	1.510665	0.000179
  44	4.2785e+00	0.8588	5.203868	0.000365	3.648067	0.617999	0.000073
  45	4.3780e+00	0.8782	5.324982	0.000608	6.080112	1.029999	0.000122
  46	4.4775e+00	0.8974	5.490505	0.000831	8.309486	1.407665	0.000166
  47	4.5770e+00	0.9182	5.595470	0.000527	5.269430	0.892666	0.000105
  48	4.6765e+00	0.9385	5.728696	0.000669	6.688123	1.132999	0.000134
  49	4.7760e+00	0.9574	5.890181	0.000811	8.106816	1.373332	0.000162
  50	4.8755e+00	0.9771	6.019369	0.000649	6.485453	1.098665	0.000130
  51	4.9750e+00	0.9969	6.132409	0.000567	5.674771	0.961332	0.000114
  52	5.0745e+00	1.0179	6.301969	0.000851	8.512157	1.441998	0.000170
  53	5.1740e+00	1.0381	6.378674	0.000385	3.850738	0.652333	0.000077
  54	5.2735e+00	1.0579	6.552271	0.000871	8.714827	1.476332	0.000174
  55	5.3730e+00	1.0771	6.653200	0.000507	5.066760	0.858332	0.000101
  56	5.4725e+00	1.0977	6.766239	0.000567	5.674771	0.961332	0.000114
  57	5.5720e+00	1.1175	6.935799	0.000851	8.512157	1.441998	0.000170
  58	5.6715e+00	1.1373	7.097285	0.000811	8.106816	1.373332	0.000162
  59	5.7710e+00	1.1576	7.190139	0.000466	4.661419	0.789666	0.000093
  60	5.8705e+00	1.1768	7.327401	0.000689	6.890794	1.167332	0.000138
  61	5.9700e+00	1.1968	7.456590	0.000649	6.485453	1.098665	0.000130
  62	6.0695e+00	1.2174	7.605964	0.000750	7.498805	1.270332	0.000150
  63	6.1690e+00	1.2366	7.731115	0.000628	6.282782	1.064332	0.000126
  64	6.2685e+00	1.2566	7.856266	0.000628	6.282782	1.064332	0.000126
  65	6.3680e+00	1.2763	8.009677	0.000770	7.701475	1.304665	0.000154
  66	6.4675e+00	1.2965	8.150977	0.000709	7.093464	1.201665	0.000142
  67	6.5670e+00	1.3155	8.243831	0.000466	4.661419	0.789666	0.000093
  68	6.6665e+00	1.3356	8.429539	0.000932	9.322838	1.579332	0.000187
  69	6.7660e+00	1.3566	8.558728	0.000649	6.485453	1.098665	0.000130
  70	6.8655e+00	1.3760	8.691953	0.000669	6.688123	1.132999	0.000134
  71	6.9650e+00	1.3955	8.813067	0.000608	6.080112	1.029999	0.000122
  72	7.0645e+00	1.4152	8.958404	0.000730	7.296134	1.235999	0.000146
  73	7.1640e+00	1.4367	9.091630	0.000669	6.688123	1.132999	0.000134
  74	7.2635e+00	1.4555	9.228892	0.000689	6.890794	1.167332	0.000138
  75	7.3630e+00	1.4755	9.350006	0.000608	6.080112	1.029999	0.000122
  76	7.4625e+00	1.4949	9.531677	0.000912	9.120168	1.544998	0.000183
  77	7.5620e+00	1.5154	9.644717	0.000567	5.674771	0.961332	0.000114
  78	7.6615e+00	1.5359	9.769868	0.000628	6.282782	1.064332	0.000126
  79	7.7610e+00	1.5546	9.890983	0.000608	6.080112	1.029999	0.000122
  80	7.8605e+00	1.5756	10.072654	0.000912	9.120168	1.544998	0.000183
  81	7.9600e+00	1.5951	10.157434	0.000426	4.256078	0.720999	0.000085
  82	8.0595e+00	1.6143	10.331030	0.000871	8.714827	1.476332	0.000174
  83	8.1590e+00	1.6355	10.440033	0.000547	5.472101	0.926999	0.000110
  84	8.2585e+00	1.6544	10.553073	0.000567	5.674771	0.961332	0.000114
  85	8.3580e+00	1.6753	10.710521	0.000790	7.904146	1.338999	0.000158
  86	8.4575e+00	1.6946	10.827598	0.000588	5.877442	0.995666	0.000118
  87	8.5570e+00	1.7147	11.005232	0.000892	8.917498	1.510665	0.000179
  88	8.6565e+00	1.7348	11.106160	0.000507	5.066760	0.858332	0.000101
  89	8.7560e+00	1.7544	11.259572	0.000770	7.701475	1.304665	0.000154
  90	8.8555e+00	1.7751	11.376649	0.000588	5.877442	0.995666	0.000118
  91	8.9550e+00	1.7948	11.489688	0.000567	5.674771	0.961332	0.000114
  92	9.0545e+00	1.8139	11.647137	0.000790	7.904146	1.338999	0.000158
  93	9.1540e+00	1.8344	11.792473	0.000730	7.296134	1.235999	0.000146
  94	9.2535e+00	1.8542	11.921662	0.000649	6.485453	1.098665	0.000130
  95	9.3530e+00	1.8745	12.018553	0.000486	4.864090	0.823999	0.000097
  96	9.4525e+00	1.8941	12.200224	0.000912	9.120168	1.544998	0.000183
  97	9.5520e+00	1.9146	12.337487	0.000689	6.890794	1.167332	0.000138
  98	9.6515e+00	1.9326	12.442452	0.000527	5.269430	0.892666	0.000105
  99	9.7510e+00	1.9546	12.591826	0.000750	7.498805	1.270332	0.000150
 100	9.8505e+00	1.9738	12.704866	0.000567	5.674771	0.961332	0.000114
 101	9.9500e+00	1.9938	12.825980	0.000608	6.080112	1.029999	0.000122
 102	1.0050e+01	2.0129	12.983429	0.000790	7.904146	1.338999	0.000158
 103	1.0149e+01	2.0332	13.088394	0.000527	5.269430	0.892666	0.000105
 104	1.0248e+01	2.0539	13.253917	0.000831	8.309486	1.407665	0.000166
 105	1.0348e+01	2.0733	13.375031	0.000608	6.080112	1.029999	0.000122
 106	1.0447e+01	2.0931	13.492108	0.000588	5.877442	0.995666	0.000118
 107	1.0547e+01	2.1142	13.621296	0.000649	6.485453	1.098665	0.000130
 108	1.0646e+01	2.1340	13.754521	0.000669	6.688123	1.132999	0.000134
 109	1.0746e+01	2.1536	13.883710	0.000649	6.485453	1.098665	0.000130
 110	1.0845e+01	2.1740	14.025010	0.000709	7.093464	1.201665	0.000142
 111	1.0945e+01	2.1935	14.162272	0.000689	6.890794	1.167332	0.000138
 112	1.1044e+01	2.2123	14.275312	0.000567	5.674771	0.961332	0.000114
 113	1.1144e+01	2.2327	14.396426	0.000608	6.080112	1.029999	0.000122
 114	1.1243e+01	2.2533	14.537726	0.000709	7.093464	1.201665	0.000142
 115	1.1343e+01	2.2722	14.683063	0.000730	7.296134	1.235999	0.000146
 116	1.1443e+01	2.2927	14.812251	0.000649	6.485453	1.098665	0.000130
 117	1.1542e+01	2.3136	14.937402	0.000628	6.282782	1.064332	0.000126
 118	1.1642e+01	2.3322	15.050442	0.000567	5.674771	0.961332	0.000114
 119	1.1741e+01	2.3522	15.175593	0.000628	6.282782	1.064332	0.000126
 120	1.1841e+01	2.3724	15.308819	0.000669	6.688123	1.132999	0.000134
 121	1.1940e+01	2.3925	15.454156	0.000730	7.296134	1.235999	0.000146
 122	1.2040e+01	2.4125	15.599492	0.000730	7.296134	1.235999	0.000146
 123	1.2139e+01	2.4328	15.752904	0.000770	7.701475	1.304665	0.000154
 124	1.2239e+01	2.4526	15.817498	0.000324	3.242726	0.549333	0.000065
 125	1.2338e+01	2.4728	15.974946	0.000790	7.904146	1.338999	0.000158
 126	1.2438e+01	2.4923	16.087986	0.000567	5.674771	0.961332	0.000114
 127	1.2537e+01	2.5115	16.225249	0.000689	6.890794	1.167332	0.000138
 128	1.2636e+01	2.5317	16.402883	0.000892	8.917498	1.510665	0.000179
 129	1.2736e+01	2.5512	16.503811	0.000507	5.066760	0.858332	0.000101
 130	1.2835e+01	2.5707	16.624925	0.000608	6.080112	1.029999	0.000122
 131	1.2935e+01	2.5921	16.758150	0.000669	6.688123	1.132999	0.000134
 132	1.3034e+01	2.6113	16.931747	0.000871	8.714827	1.476332	0.000174
 133	1.3134e+01	2.6318	17.040750	0.000547	5.472101	0.926999	0.000110
 134	1.3233e+01	2.6519	17.137641	0.000486	4.864090	0.823999	0.000097
 135	1.3333e+01	2.6714	17.266830	0.000649	6.485453	1.098665	0.000130
 136	1.3432e+01	2.6917	17.391981	0.000628	6.282782	1.064332	0.000126
 137	1.3532e+01	2.7107	17.541355	0.000750	7.498805	1.270332	0.000150
 138	1.3632e+01	2.7311	17.670543	0.000649	6.485453	1.098665	0.000130
 139	1.3731e+01	2.7502	17.767434	0.000486	4.864090	0.823999	0.000097
 140	1.3831e+01	2.7709	17.957180	0.000953	9.525509	1.613665	0.000191
 141	1.3930e+01	2.7911	18.050034	0.000466	4.661419	0.789666	0.000093
 142	1.4030e+01	2.8109	18.187296	0.000689	6.890794	1.167332	0.000138
 143	1.4129e+01	2.8307	18.292262	0.000527	5.269430	0.892666	0.000105
 144	1.4229e+01	2.8505	18.453747	0.000811	8.106816	1.373332	0.000162
 145	1.4328e+01	2.8710	18.530453	0.000385	3.850738	0.652333	0.000077
 146	1.4428e+01	2.8901	18.728273	0.000993	9.930850	1.682331	0.000199
 147	1.4527e+01	2.9101	18.845350	0.000588	5.877442	0.995666	0.000118
 148	1.4627e+01	2.9302	18.998761	0.000770	7.701475	1.304665	0.000154
 149	1.4726e+01	2.9505	19.095652	0.000486	4.864090	0.823999	0.000097
 150	1.4825e+01	2.9710	19.220803	0.000628	6.282782	1.064332	0.000126
 151	1.4925e+01	2.9900	19.333843	0.000567	5.674771	0.961332	0.000114
 152	1.5024e+01	3.0099	19.479180	0.000730	7.296134	1.235999	0.000146
 153	1.5124e+01	3.0303	19.572034	0.000466	4.661419	0.789666	0.000093
 154	1.5223e+01	3.0499	19.717371	0.000730	7.296134	1.235999	0.000146
 155	1.5323e+01	3.0697	19.842522	0.000628	6.282782	1.064332	0.000126
 156	1.5422e+01	3.0901	20.004008	0.000811	8.106816	1.373332	0.000162
 157	1.5522e+01	3.1094	20.084750	0.000405	4.053408	0.686666	0.000081
 158	1.5621e+01	3.1300	20.242199	0.000790	7.904146	1.338999	0.000158
 159	1.5721e+01	3.1493	20.363313	0.000608	6.080112	1.029999	0.000122
 160	1.5820e+01	3.1695	20.488464	0.000628	6.282782	1.064332	0.000126
 161	1.5920e+01	3.1893	20.621689	0.000669	6.688123	1.132999	0.000134
 162	1.6020e+01	3.2095	20.718581	0.000486	4.864090	0.823999	0.000097
 163	1.6119e+01	3.2301	20.847769	0.000649	6.485453	1.098665	0.000130
 164	1.6218e+01	3.2500	21.005217	0.000790	7.904146	1.338999	0.000158
 165	1.6318e+01	3.2692	21.142480	0.000689	6.890794	1.167332	0.000138
 166	1.6418e+01	3.2902	21.263594	0.000608	6.080112	1.029999	0.000122
 167	1.6517e+01	3.3083	21.364522	0.000507	5.066760	0.858332	0.000101
 168	1.6616e+01	3.3291	21.489674	0.000628	6.282782	1.064332	0.000126
 169	1.6716e+01	3.3495	21.594639	0.000527	5.269430	0.892666	0.000105
 170	1.6816e+01	3.3688	21.752087	0.000790	7.904146	1.338999	0.000158
 171	1.6915e+01	3.3894	21.901461	0.000750	7.498805	1.270332	0.000150
 172	1.7015e+01	3.4081	22.010464	0.000547	5.472101	0.926999	0.000110
 173	1.7114e+01	3.4294	22.171949	0.000811	8.106816	1.373332	0.000162
 174	1.7213e+01	3.4499	22.293064	0.000608	6.080112	1.029999	0.000122
 175	1.7313e+01	3.4690	22.389955	0.000486	4.864090	0.823999	0.000097
 176	1.7413e+01	3.4887	22.551440	0.000811	8.106816	1.373332	0.000162
 177	1.7512e+01	3.5085	22.644294	0.000466	4.661419	0.789666	0.000093
 178	1.7611e+01	3.5282	22.793668	0.000750	7.498805	1.270332	0.000150
 179	1.7711e+01	3.5493	22.906708	0.000567	5.674771	0.961332	0.000114
 180	1.7811e+01	3.5677	23.039934	0.000669	6.688123	1.132999	0.000134
 181	1.7910e+01	3.5873	23.140862	0.000507	5.066760	0.858332	0.000101
 182	1.8009e+01	3.6076	23.253902	0.000567	5.674771	0.961332	0.000114
 183	1.8109e+01	3.6282	23.362905	0.000547	5.472101	0.926999	0.000110
 184	1.8209e+01	3.6471	23.556687	0.000973	9.728179	1.647998	0.000195
 185	1.8308e+01	3.6681	23.693950	0.000689	6.890794	1.167332	0.000138
 186	1.8407e+01	3.6876	23.798915	0.000527	5.269430	0.892666	0.000105
 187	1.8507e+01	3.7083	23.932141	0.000669	6.688123	1.132999	0.000134
 188	1.8607e+01	3.7278	24.037106	0.000527	5.269430	0.892666	0.000105
 189	1.8706e+01	3.7481	24.206666	0.000851	8.512157	1.441998	0.000170
 190	1.8805e+01	3.7682	24.295483	0.000446	4.458749	0.755332	0.000089
 191	1.8905e+01	3.7868	24.436783	0.000709	7.093464	1.201665	0.000142
 192	1.9005e+01	3.8070	24.586157	0.000750	7.498805	1.270332	0.000150
 193	1.9104e+01	3.8274	24.679011	0.000466	4.661419	0.789666	0.000093
 194	1.9203e+01	3.8467	24.804162	0.000628	6.282782	1.064332	0.000126
 195	1.9303e+01	3.8662	24.937387	0.000669	6.688123	1.132999	0.000134
 196	1.9402e+01	3.8873	25.078687	0.000709	7.093464	1.201665	0.000142
 197	1.9502e+01	3.9071	25.183653	0.000527	5.269430	0.892666	0.000105
 198	1.9602e+01	3.9266	25.312841	0.000649	6.485453	1.098665	0.000130
 199	1.9701e+01	3.9457	25.417807	0.000527	5.269430	0.892666	0.000105
 200	1.9800e+01	3.9672	25.575255	0.000790	7.904146	1.338999	0.000158
 201	1.9900e+01	3.9861	25.688295	0.000567	5.674771	0.961332	0.000114
 202	2.0000e+01	4.0067	25.861892	0.000871	8.714827	1.476332	0.000174
 203	2.0099e+01	4.0258	25.958783	0.000486	4.864090	0.823999	0.000097
 204	2.0198e+01	4.0472	26.047600	0.000446	4.458749	0.755332	0.000089
 205	2.0298e+01	4.0664	26.172751	0.000628	6.282782	1.064332	0.000126
 206	2.0398e+01	4.0856	26.281754	0.000547	5.472101	0.926999	0.000110
 207	2.0497e+01	4.1051	26.443239	0.000811	8.106816	1.373332	0.000162
 208	2.0596e+01	4.1253	26.572427	0.000649	6.485453	1.098665	0.000130
 209	2.0696e+01	4.1463	26.661244	0.000446	4.458749	0.755332	0.000089
 210	2.0796e+01	4.1656	26.826767	0.000831	8.309486	1.407665	0.000166
 211	2.0895e+01	4.1857	26.887324	0.000304	3.040056	0.514999	0.000061
 212	2.0994e+01	4.2056	27.044772	0.000790	7.904146	1.338999	0.000158
 213	2.1094e+01	4.2255	27.161849	0.000588	5.877442	0.995666	0.000118
 214	2.1194e+01	4.2458	27.299112	0.000689	6.890794	1.167332	0.000138
 215	2.1293e+01	4.2663	27.440412	0.000709	7.093464	1.201665	0.000142
 216	2.1392e+01	4.2849	27.533266	0.000466	4.661419	0.789666	0.000093
 217	2.1492e+01	4.3060	27.666491	0.000669	6.688123	1.132999	0.000134
 218	2.1591e+01	4.3252	27.787605	0.000608	6.080112	1.029999	0.000122
 219	2.1691e+01	4.3453	27.900645	0.000567	5.674771	0.961332	0.000114
 220	2.1791e+01	4.3652	28.033871	0.000669	6.688123	1.132999	0.000134
 221	2.1890e+01	4.3853	28.138836	0.000527	5.269430	0.892666	0.000105
 222	2.1989e+01	4.4042	28.259950	0.000608	6.080112	1.029999	0.000122
 223	2.2089e+01	4.4244	28.397213	0.000689	6.890794	1.167332	0.000138
 224	2.2189e+01	4.4450	28.494104	0.000486	4.864090	0.823999	0.000097
 225	2.2288e+01	4.4631	28.635404	0.000709	7.093464	1.201665	0.000142
 226	2.2387e+01	4.4845	28.740369	0.000527	5.269430	0.892666	0.000105
 227	2.2487e+01	4.5046	28.897818	0.000790	7.904146	1.338999	0.000158
 228	2.2587e+01	4.5252	29.035080	0.000689	6.890794	1.167332	0.000138
 229	2.2686e+01	4.5452	29.079489	0.000223	2.229374	0.377666	0.000045
 230	2.2785e+01	4.5647	29.204640	0.000628	6.282782	1.064332	0.000126
 231	2.2885e+01	4.5846	29.358051	0.000770	7.701475	1.304665	0.000154
 232	2.2985e+01	4.6050	29.467054	0.000547	5.472101	0.926999	0.000110
 233	2.3084e+01	4.6243	29.584131	0.000588	5.877442	0.995666	0.000118
 234	2.3183e+01	4.6435	29.701208	0.000588	5.877442	0.995666	0.000118
 235	2.3283e+01	4.6648	29.818285	0.000588	5.877442	0.995666	0.000118
 236	2.3383e+01	4.6844	29.951510	0.000669	6.688123	1.132999	0.000134
 237	2.3482e+01	4.7054	30.020141	0.000345	3.445397	0.583666	0.000069
 238	2.3581e+01	4.7240	30.181627	0.000811	8.106816	1.373332	0.000162
 239	2.3681e+01	4.7433	30.302741	0.000608	6.080112	1.029999	0.000122
 240	2.3780e+01	4.7634	30.395595	0.000466	4.661419	0.789666	0.000093
 241	2.3880e+01	4.7839	30.508635	0.000567	5.674771	0.961332	0.000114
 242	2.3980e+01	4.8043	30.641860	0.000669	6.688123	1.132999	0.000134
 243	2.4079e+01	4.8235	30.762974	0.000608	6.080112	1.029999	0.000122
 244	2.4178e+01	4.8434	30.892163	0.000649	6.485453	1.098665	0.000130
 245	2.4278e+01	4.8638	30.989054	0.000486	4.864090	0.823999	0.000097
 246	2.4378e+01	4.8846	31.114205	0.000628	6.282782	1.064332	0.000126
 247	2.4477e+01	4.9035	31.231282	0.000588	5.877442	0.995666	0.000118
 248	2.4576e+01	4.9236	31.388730	0.000790	7.904146	1.338999	0.000158
 249	2.4676e+01	4.9435	31.477547	0.000446	4.458749	0.755332	0.000089
 250	2.4776e+01	4.9630	31.639033	0.000811	8.106816	1.373332	0.000162
 251	2.4875e+01	4.9834	31.719775	0.000405	4.053408	0.686666	0.000081
 252	2.4974e+01	5.0036	31.844927	0.000628	6.282782	1.064332	0.000126
 253	2.5074e+01	5.0240	31.949892	0.000527	5.269430	0.892666	0.000105
 254	2.5174e+01	5.0433	32.050821	0.000507	5.066760	0.858332	0.000101
 255	2.5273e+01	5.0626	32.155786	0.000527	5.269430	0.892666	0.000105
 256	2.5372e+01	5.0826	32.260752	0.000527	5.269430	0.892666	0.000105
 257	2.5472e+01	5.1025	32.406089	0.000730	7.296134	1.235999	0.000146
 258	2.5572e+01	5.1223	32.547388	0.000709	7.093464	1.201665	0.000142
 259	2.5671e+01	5.1424	32.652354	0.000527	5.269430	0.892666	0.000105
 260	2.5770e+01	5.1620	32.720985	0.000345	3.445397	0.583666	0.000069
 261	2.5870e+01	5.1821	32.838062	0.000588	5.877442	0.995666	0.000118
 262	2.5970e+01	5.2013	32.959176	0.000608	6.080112	1.029999	0.000122
 263	2.6069e+01	5.2219	33.096439	0.000689	6.890794	1.167332	0.000138
 264	2.6169e+01	5.2413	33.217553	0.000608	6.080112	1.029999	0.000122
 265	2.6268e+01	5.2615	33.274073	0.000284	2.837386	0.480666	0.000057
 266	2.6367e+01	5.2818	33.431521	0.000790	7.904146	1.338999	0.000158
 267	2.6467e+01	5.3014	33.528412	0.000486	4.864090	0.823999	0.000097
 268	2.6567e+01	5.3228	33.637415	0.000547	5.472101	0.926999	0.000110
 269	2.6666e+01	5.3417	33.722195	0.000426	4.256078	0.720999	0.000085
 270	2.6765e+01	5.3616	33.835235	0.000567	5.674771	0.961332	0.000114
 271	2.6865e+01	5.3808	33.948274	0.000567	5.674771	0.961332	0.000114
 272	2.6965e+01	5.4014	34.053240	0.000527	5.269430	0.892666	0.000105
 273	2.7064e+01	5.4211	34.174354	0.000608	6.080112	1.029999	0.000122
 274	2.7163e+01	5.4418	34.287394	0.000567	5.674771	0.961332	0.000114
 275	2.7263e+01	5.4607	34.388322	0.000507	5.066760	0.858332	0.000101
 276	2.7363e+01	5.4812	34.497325	0.000547	5.472101	0.926999	0.000110
 277	2.7462e+01	5.5004	34.618439	0.000608	6.080112	1.029999	0.000122
 278	2.7561e+01	5.5212	34.719367	0.000507	5.066760	0.858332	0.000101
 279	2.7661e+01	5.5401	34.836444	0.000588	5.877442	0.995666	0.000118
 280	2.7761e+01	5.5599	34.941410	0.000527	5.269430	0.892666	0.000105
 281	2.7860e+01	5.5807	35.094821	0.000770	7.701475	1.304665	0.000154
 282	2.7959e+01	5.5999	35.163452	0.000345	3.445397	0.583666	0.000069
 283	2.8059e+01	5.6210	35.252269	0.000446	4.458749	0.755332	0.000089
 284	2.8159e+01	5.6400	35.337049	0.000426	4.256078	0.720999	0.000085
 285	2.8258e+01	5.6603	35.462200	0.000628	6.282782	1.064332	0.000126
 286	2.8358e+01	5.6799	35.546980	0.000426	4.256078	0.720999	0.000085
 287	2.8457e+01	5.7000	35.651946	0.000527	5.269430	0.892666	0.000105
 288	2.8556e+01	5.7207	35.793245	0.000709	7.093464	1.201665	0.000142
 289	2.8656e+01	5.7403	35.918397	0.000628	6.282782	1.064332	0.000126
 290	2.8756e+01	5.7592	36.019325	0.000507	5.066760	0.858332	0.000101
 291	2.8855e+01	5.7800	36.120253	0.000507	5.066760	0.858332	0.000101
 292	2.8954e+01	5.8007	36.221182	0.000507	5.066760	0.858332	0.000101
 293	2.9054e+01	5.8196	36.305962	0.000426	4.256078	0.720999	0.000085
 294	2.9154e+01	5.8398	36.419001	0.000567	5.674771	0.961332	0.000114
 295	2.9253e+01	5.8596	36.528004	0.000547	5.472101	0.926999	0.000110
 296	2.9352e+01	5.8804	36.620858	0.000466	4.661419	0.789666	0.000093
 297	2.9452e+01	5.8990	36.741972	0.000608	6.080112	1.029999	0.000122
 298	2.9552e+01	5.9197	36.859049	0.000588	5.877442	0.995666	0.000118
 299	2.9651e+01	5.9399	36.939792	0.000405	4.053408	0.686666	0.000081
 300	2.9750e+01	5.9594	37.105315	0.000831	8.309486	1.407665	0.000166
 301	2.9850e+01	5.9801	37.169909	0.000324	3.242726	0.549333	0.000065
 302	2.9950e+01	5.9994	37.307171	0.000689	6.890794	1.167332	0.000138
 303	3.0049e+01	6.0186	37.379840	0.000365	3.648067	0.617999	0.000073
 304	3.0148e+01	6.0387	37.488842	0.000547	5.472101	0.926999	0.000110
 305	3.0248e+01	6.0580	37.589771	0.000507	5.066760	0.858332	0.000101
 306	3.0348e+01	6.0787	37.727033	0.000689	6.890794	1.167332	0.000138
 307	3.0447e+01	6.0989	37.815850	0.000446	4.458749	0.755332	0.000089
 308	3.0547e+01	6.1181	37.904667	0.000446	4.458749	0.755332	0.000089
 309	3.0646e+01	6.1382	38.013670	0.000547	5.472101	0.926999	0.000110
 310	3.0745e+01	6.1581	38.150933	0.000689	6.890794	1.167332	0.000138
 311	3.0845e+01	6.1796	38.211490	0.000304	3.040056	0.514999	0.000061
 312	3.0945e+01	6.1993	38.344715	0.000669	6.688123	1.132999	0.000134
 313	3.1044e+01	6.2191	38.437569	0.000466	4.661419	0.789666	0.000093
 314	3.1143e+01	6.2395	38.530423	0.000466	4.661419	0.789666	0.000093
 315	3.1243e+01	6.2589	38.667686	0.000689	6.890794	1.167332	0.000138
 316	3.1343e+01	6.2780	38.768614	0.000507	5.066760	0.858332	0.000101
 317	3.1442e+01	6.2981	38.861469	0.000466	4.661419	0.789666	0.000093
 318	3.1541e+01	6.3174	38.917989	0.000284	2.837386	0.480666	0.000057
 319	3.1641e+01	6.3378	39.063325	0.000730	7.296134	1.235999	0.000146
 320	3.1741e+01	6.3577	39.152142	0.000446	4.458749	0.755332	0.000089
 321	3.1840e+01	6.3779	39.265182	0.000567	5.674771	0.961332	0.000114
 322	3.1939e+01	6.3970	39.366111	0.000507	5.066760	0.858332	0.000101
 323	3.2039e+01	6.4172	39.491262	0.000628	6.282782	1.064332	0.000126
 324	3.2139e+01	6.4379	39.588153	0.000486	4.864090	0.823999	0.000097
 325	3.2238e+01	6.4568	39.632562	0.000223	2.229374	0.377666	0.000045
 326	3.2337e+01	6.4764	39.769824	0.000689	6.890794	1.167332	0.000138
 327	3.2437e+01	6.4971	39.866715	0.000486	4.864090	0.823999	0.000097
 328	3.2536e+01	6.5170	39.955532	0.000446	4.458749	0.755332	0.000089
 329	3.2636e+01	6.5365	40.068572	0.000567	5.674771	0.961332	0.000114
 330	3.2736e+01	6.5563	40.181612	0.000567	5.674771	0.961332	0.000114
 331	3.2835e+01	6.5765	40.278503	0.000486	4.864090	0.823999	0.000097
 332	3.2934e+01	6.5960	40.379432	0.000507	5.066760	0.858332	0.000101
 333	3.3034e+01	6.6164	40.512657	0.000669	6.688123	1.132999	0.000134
 334	3.3133e+01	6.6372	40.609548	0.000486	4.864090	0.823999	0.000097
 335	3.3233e+01	6.6567	40.706440	0.000486	4.864090	0.823999	0.000097
 336	3.3333e+01	6.6758	40.795257	0.000446	4.458749	0.755332	0.000089
 337	3.3432e+01	6.6961	40.924445	0.000649	6.485453	1.098665	0.000130
 338	3.3532e+01	6.7158	41.005188	0.000405	4.053408	0.686666	0.000081
 339	3.3631e+01	6.7358	41.118227	0.000567	5.674771	0.961332	0.000114
 340	3.3730e+01	6.7570	41.190896	0.000365	3.648067	0.617999	0.000073
 341	3.3830e+01	6.7754	41.291824	0.000507	5.066760	0.858332	0.000101
 342	3.3929e+01	6.7956	41.421013	0.000649	6.485453	1.098665	0.000130
 343	3.4029e+01	6.8151	41.509830	0.000446	4.458749	0.755332	0.000089
 344	3.4129e+01	6.8359	41.586535	0.000385	3.850738	0.652333	0.000077
 345	3.4228e+01	6.8560	41.715724	0.000649	6.485453	1.098665	0.000130
 346	3.4328e+01	6.8752	41.816652	0.000507	5.066760	0.858332	0.000101
 347	3.4427e+01	6.8957	41.937766	0.000608	6.080112	1.029999	0.000122
 348	3.4526e+01	6.9155	42.046769	0.000547	5.472101	0.926999	0.000110
 349	3.4626e+01	6.9347	42.139623	0.000466	4.661419	0.789666	0.000093
 350	3.4725e+01	6.9552	42.232477	0.000466	4.661419	0.789666	0.000093
 351	3.4825e+01	6.9753	42.337442	0.000527	5.269430	0.892666	0.000105
 352	3.4925e+01	6.9939	42.426259	0.000446	4.458749	0.755332	0.000089
 353	3.5024e+01	7.0141	42.527188	0.000507	5.066760	0.858332	0.000101
 354	3.5123e+01	7.0348	42.628116	0.000507	5.066760	0.858332	0.000101
 355	3.5223e+01	7.0550	42.757305	0.000649	6.485453	1.098665	0.000130
 356	3.5322e+01	7.0748	42.829973	0.000365	3.648067	0.617999	0.000073
 357	3.5422e+01	7.0947	42.947050	0.000588	5.877442	0.995666	0.000118
 358	3.5522e+01	7.1145	43.052016	0.000527	5.269430	0.892666	0.000105
 359	3.5621e+01	7.1337	43.165055	0.000567	5.674771	0.961332	0.000114
 360	3.5721e+01	7.1551	43.261947	0.000486	4.864090	0.823999	0.000097
 361	3.5820e+01	7.1746	43.358838	0.000486	4.864090	0.823999	0.000097
 362	3.5919e+01	7.1947	43.467840	0.000547	5.472101	0.926999	0.000110
 363	3.6019e+01	7.2140	43.568769	0.000507	5.066760	0.858332	0.000101
 364	3.6118e+01	7.2338	43.665660	0.000486	4.864090	0.823999	0.000097
 365	3.6218e+01	7.2540	43.786774	0.000608	6.080112	1.029999	0.000122
 366	3.6318e+01	7.2744	43.891740	0.000527	5.269430	0.892666	0.000105
 367	3.6417e+01	7.2942	43.968445	0.000385	3.850738	0.652333	0.000077
 368	3.6517e+01	7.3135	44.073411	0.000527	5.269430	0.892666	0.000105
 369	3.6616e+01	7.3345	44.190488	0.000588	5.877442	0.995666	0.000118
 370	3.6715e+01	7.3534	44.283342	0.000466	4.661419	0.789666	0.000093
 371	3.6815e+01	7.3742	44.388307	0.000527	5.269430	0.892666	0.000105
 372	3.6914e+01	7.3937	44.485199	0.000486	4.864090	0.823999	0.000097
 373	3.7014e+01	7.4133	44.606313	0.000608	6.080112	1.029999	0.000122
 374	3.7114e+01	7.4340	44.691093	0.000426	4.256078	0.720999	0.000085
 375	3.7213e+01	7.4529	44.800095	0.000547	5.472101	0.926999	0.000110
 376	3.7313e+01	7.4728	44.860652	0.000304	3.040056	0.514999	0.000061
 377	3.7412e+01	7.4944	44.977729	0.000588	5.877442	0.995666	0.000118
 378	3.7511e+01	7.5127	45.078658	0.000507	5.066760	0.858332	0.000101
 379	3.7611e+01	7.5335	45.167475	0.000446	4.458749	0.755332	0.000089
 380	3.7711e+01	7.5521	45.268403	0.000507	5.066760	0.858332	0.000101
 381	3.7810e+01	7.5719	45.357220	0.000446	4.458749	0.755332	0.000089
 382	3.7910e+01	7.5927	45.498520	0.000709	7.093464	1.201665	0.000142
 383	3.8009e+01	7.6128	45.567151	0.000345	3.445397	0.583666	0.000069
 384	3.8108e+01	7.6330	45.615597	0.000243	2.432045	0.412000	0.000049
 385	3.8208e+01	7.6531	45.748822	0.000669	6.688123	1.132999	0.000134
 386	3.8307e+01	7.6727	45.857825	0.000547	5.472101	0.926999	0.000110
 387	3.8407e+01	7.6925	45.978939	0.000608	6.080112	1.029999	0.000122
 388	3.8507e+01	7.7120	46.063719	0.000426	4.256078	0.720999	0.000085
 389	3.8606e+01	7.7319	46.128313	0.000324	3.242726	0.549333	0.000065
 390	3.8706e+01	7.7520	46.237316	0.000547	5.472101	0.926999	0.000110
 391	3.8805e+01	7.7728	46.350355	0.000567	5.674771	0.961332	0.000114
 392	3.8904e+01	7.7926	46.451284	0.000507	5.066760	0.858332	0.000101
 393	3.9004e+01	7.8130	46.519915	0.000345	3.445397	0.583666	0.000069
 394	3.9103e+01	7.8326	46.657178	0.000689	6.890794	1.167332	0.000138
 395	3.9203e+01	7.8512	46.709660	0.000263	2.634715	0.446333	0.000053
 396	3.9303e+01	7.8716	46.826737	0.000588	5.877442	0.995666	0.000118
 397	3.9402e+01	7.8912	46.919592	0.000466	4.661419	0.789666	0.000093
 398	3.9502e+01	7.9116	47.028594	0.000547	5.472101	0.926999	0.000110
 399	3.9601e+01	7.9314	47.089151	0.000304	3.040056	0.514999	0.000061
 400	3.9700e+01	7.9522	47.242562	0.000770	7.701475	1.304665	0.000154
 401	3.9800e+01	7.9720	47.307157	0.000324	3.242726	0.549333	0.000065
 402	3.9900e+01	7.9900	47.420196	0.000567	5.674771	0.961332	0.000114
 403	3.9999e+01	8.0114	47.517088	0.000486	4.864090	0.823999	0.000097
 404	4.0099e+01	8.0303	47.601867	0.000426	4.256078	0.720999	0.000085
 405	4.0198e+01	8.0511	47.702796	0.000507	5.066760	0.858332	0.000101
 406	4.0297e+01	8.0706	47.807761	0.000527	5.269430	0.892666	0.000105
 407	4.0397e+01	8.0904	47.896578	0.000446	4.458749	0.755332	0.000089
 408	4.0496e+01	8.1112	47.985395	0.000446	4.458749	0.755332	0.000089
 409	4.0596e+01	8.1301	48.062101	0.000385	3.850738	0.652333	0.000077
 410	4.0696e+01	8.1493	48.175141	0.000567	5.674771	0.961332	0.000114
 411	4.0795e+01	8.1701	48.272032	0.000486	4.864090	0.823999	0.000097
 412	4.0895e+01	8.1902	48.364886	0.000466	4.661419	0.789666	0.000093
 413	4.0994e+01	8.2107	48.469852	0.000527	5.269430	0.892666	0.000105
 414	4.1093e+01	8.2305	48.582891	0.000567	5.674771	0.961332	0.000114
 415	4.1193e+01	8.2510	48.679783	0.000486	4.864090	0.823999	0.000097
 416	4.1292e+01	8.2702	48.764563	0.000426	4.256078	0.720999	0.000085
 417	4.1392e+01	8.2903	48.853380	0.000446	4.458749	0.755332	0.000089
 418	4.1492e+01	8.3086	48.954308	0.000507	5.066760	0.858332	0.000101
 419	4.1591e+01	8.3294	49.071385	0.000588	5.877442	0.995666	0.000118
 420	4.1691e+01	8.3492	49.148090	0.000385	3.850738	0.652333	0.000077
 421	4.1790e+01	8.3697	49.200573	0.000263	2.634715	0.446333	0.000053
 422	4.1889e+01	8.3895	49.325724	0.000628	6.282782	1.064332	0.000126
 423	4.1989e+01	8.4093	49.414541	0.000446	4.458749	0.755332	0.000089
 424	4.2089e+01	8.4301	49.487210	0.000365	3.648067	0.617999	0.000073
 425	4.2188e+01	8.4490	49.584101	0.000486	4.864090	0.823999	0.000097
 426	4.2288e+01	8.4686	49.689067	0.000527	5.269430	0.892666	0.000105
 427	4.2387e+01	8.4887	49.806144	0.000588	5.877442	0.995666	0.000118
 428	4.2486e+01	8.5088	49.870738	0.000324	3.242726	0.549333	0.000065
 429	4.2586e+01	8.5290	49.987815	0.000588	5.877442	0.995666	0.000118
 430	4.2685e+01	8.5494	50.044335	0.000284	2.837386	0.480666	0.000057
 431	4.2785e+01	8.5690	50.133152	0.000446	4.458749	0.755332	0.000089
 432	4.2885e+01	8.5888	50.217931	0.000426	4.256078	0.720999	0.000085
 433	4.2984e+01	8.6095	50.330971	0.000567	5.674771	0.961332	0.000114
 434	4.3084e+01	8.6291	50.448048	0.000588	5.877442	0.995666	0.000118
 435	4.3183e+01	8.6492	50.492457	0.000223	2.229374	0.377666	0.000045
 436	4.3282e+01	8.6687	50.589348	0.000486	4.864090	0.823999	0.000097
 437	4.3382e+01	8.6883	50.682202	0.000466	4.661419	0.789666	0.000093
 438	4.3481e+01	8.7078	50.766982	0.000426	4.256078	0.720999	0.000085
 439	4.3581e+01	8.7280	50.867910	0.000507	5.066760	0.858332	0.000101
 440	4.3681e+01	8.7493	50.960764	0.000466	4.661419	0.789666	0.000093
 441	4.3780e+01	8.7695	51.041507	0.000405	4.053408	0.686666	0.000081
 442	4.3880e+01	8.7878	51.162621	0.000608	6.080112	1.029999	0.000122
 443	4.3979e+01	8.8079	51.267587	0.000527	5.269430	0.892666	0.000105
 444	4.4078e+01	8.8280	51.324107	0.000284	2.837386	0.480666	0.000057
 445	4.4178e+01	8.8470	51.400812	0.000385	3.850738	0.652333	0.000077
 446	4.4278e+01	8.8674	51.489629	0.000446	4.458749	0.755332	0.000089
 447	4.4377e+01	8.8869	51.606706	0.000588	5.877442	0.995666	0.000118
 448	4.4477e+01	8.9071	51.671300	0.000324	3.242726	0.549333	0.000065
 449	4.4576e+01	8.9269	51.711672	0.000203	2.026704	0.343333	0.000041
 450	4.4675e+01	8.9468	51.852971	0.000709	7.093464	1.201665	0.000142
 451	4.4775e+01	8.9660	51.921603	0.000345	3.445397	0.583666	0.000069
 452	4.4874e+01	8.9858	51.990234	0.000345	3.445397	0.583666	0.000069
 453	4.4974e+01	9.0063	52.103274	0.000567	5.674771	0.961332	0.000114
 454	4.5074e+01	9.0258	52.167868	0.000324	3.242726	0.549333	0.000065
 455	4.5173e+01	9.0466	52.264759	0.000486	4.864090	0.823999	0.000097
 456	4.5273e+01	9.0667	52.361651	0.000486	4.864090	0.823999	0.000097
 457	4.5372e+01	9.0862	52.438356	0.000385	3.850738	0.652333	0.000077
 458	4.5471e+01	9.1058	52.539284	0.000507	5.066760	0.858332	0.000101
 459	4.5571e+01	9.1256	52.603879	0.000324	3.242726	0.549333	0.000065
 460	4.5670e+01	9.1454	52.720956	0.000588	5.877442	0.995666	0.000118
 461	4.5770e+01	9.1662	52.817847	0.000486	4.864090	0.823999	0.000097
 462	4.5870e+01	9.1851	52.866292	0.000243	2.432045	0.412000	0.000049
 463	4.5969e+01	9.2062	52.999518	0.000669	6.688123	1.132999	0.000134
 464	4.6069e+01	9.2254	53.088335	0.000446	4.458749	0.755332	0.000089
 465	4.6168e+01	9.2455	53.169078	0.000405	4.053408	0.686666	0.000081
 466	4.6267e+01	9.2654	53.249820	0.000405	4.053408	0.686666	0.000081
 467	4.6367e+01	9.2864	53.322489	0.000365	3.648067	0.617999	0.000073
 468	4.6467e+01	9.3053	53.439566	0.000588	5.877442	0.995666	0.000118
 469	4.6566e+01	9.3249	53.536457	0.000486	4.864090	0.823999	0.000097
 470	4.6666e+01	9.3450	53.584903	0.000243	2.432045	0.412000	0.000049
 471	4.6765e+01	9.3645	53.710054	0.000628	6.282782	1.064332	0.000126
 472	4.6864e+01	9.3847	53.794834	0.000426	4.256078	0.720999	0.000085
 473	4.6964e+01	9.4048	53.867502	0.000365	3.648067	0.617999	0.000073
 474	4.7063e+01	9.4250	53.952282	0.000426	4.256078	0.720999	0.000085
 475	4.7163e+01	9.4451	54.073396	0.000608	6.080112	1.029999	0.000122
 476	4.7263e+01	9.4640	54.142027	0.000345	3.445397	0.583666	0.000069
 477	4.7362e+01	9.4842	54.263141	0.000608	6.080112	1.029999	0.000122
 478	4.7462e+01	9.5043	54.327736	0.000324	3.242726	0.549333	0.000065
 479	4.7561e+01	9.5251	54.384256	0.000284	2.837386	0.480666	0.000057
 480	4.7660e+01	9.5434	54.489221	0.000527	5.269430	0.892666	0.000105
 481	4.7760e+01	9.5641	54.549778	0.000304	3.040056	0.514999	0.000061
 482	4.7859e+01	9.5849	54.687041	0.000689	6.890794	1.167332	0.000138
 483	4.7959e+01	9.6050	54.755672	0.000345	3.445397	0.583666	0.000069
 484	4.8059e+01	9.6239	54.828340	0.000365	3.648067	0.617999	0.000073
 485	4.8158e+01	9.6441	54.925232	0.000486	4.864090	0.823999	0.000097
 486	4.8258e+01	9.6642	55.010012	0.000426	4.256078	0.720999	0.000085
 487	4.8357e+01	9.6844	55.110940	0.000507	5.066760	0.858332	0.000101
 488	4.8456e+01	9.7039	55.207831	0.000486	4.864090	0.823999	0.000097
 489	4.8556e+01	9.7234	55.236091	0.000142	1.418693	0.240333	0.000028
 490	4.8656e+01	9.7430	55.369317	0.000669	6.688123	1.132999	0.000134
 491	4.8755e+01	9.7643	55.413725	0.000223	2.229374	0.377666	0.000045
 492	4.8855e+01	9.7832	55.506579	0.000466	4.661419	0.789666	0.000093
 493	4.8954e+01	9.8034	55.599433	0.000466	4.661419	0.789666	0.000093
 494	4.9053e+01	9.8235	55.692288	0.000466	4.661419	0.789666	0.000093
 495	4.9153e+01	9.8412	55.797253	0.000527	5.269430	0.892666	0.000105
 496	4.9252e+01	9.8632	55.877996	0.000405	4.053408	0.686666	0.000081
 497	4.9352e+01	9.8830	55.946627	0.000345	3.445397	0.583666	0.000069
 498	4.9452e+01	9.9029	56.023333	0.000385	3.850738	0.652333	0.000077
 499	4.9551e+01	9.9230	56.140410	0.000588	5.877442	0.995666	0.000118
 500	4.9651e+01	9.9432	56.184818	0.000223	2.229374	0.377666	0.000045
 501	4.9750e+01	9.9633	56.301895	0.000588	5.877442	0.995666	0.000118
 502	4.9849e+01	9.9822	56.386675	0.000426	4.256078	0.720999	0.000085
 503	4.9949e+01	9.9999	56.451269	0.000324	3.242726	0.549333	0.000065
 504	5.0048e+01	9.9822	56.418972	0.000162	1.621363	0.274666	-0.000032
 505	5.0148e+01	9.9633	56.334192	0.000426	4.256078	0.720999	-0.000085
 506	5.0248e+01	9.9426	56.293821	0.000203	2.026704	0.343333	-0.000041
 507	5.0347e+01	9.9230	56.196929	0.000486	4.864090	0.823999	-0.000097
 508	5.0447e+01	9.9026	56.168670	0.000142	1.418693	0.240333	-0.000028
 509	5.0546e+01	9.8821	56.083890	0.000426	4.256078	0.720999	-0.000085
 510	5.0645e+01	9.8626	56.031407	0.000263	2.634715	0.446333	-0.000053
 511	5.0745e+01	9.8437	55.991036	0.000203	2.026704	0.343333	-0.000041
 512	5.0844e+01	9.8229	55.918367	0.000365	3.648067	0.617999	-0.000073
 513	5.0944e+01	9.8034	55.841662	0.000385	3.850738	0.652333	-0.000077
 514	5.1044e+01	9.7832	55.756882	0.000426	4.256078	0.720999	-0.000085
 515	5.1143e+01	9.7646	55.704399	0.000263	2.634715	0.446333	-0.000053
 516	5.1242e+01	9.7436	55.611545	0.000466	4.661419	0.789666	-0.000093
 517	5.1342e+01	9.7228	55.563099	0.000243	2.432045	0.412000	-0.000049
 518	5.1441e+01	9.7033	55.502542	0.000304	3.040056	0.514999	-0.000061
 519	5.1541e+01	9.6838	55.405651	0.000486	4.864090	0.823999	-0.000097
 520	5.1641e+01	9.6648	55.361242	0.000223	2.229374	0.377666	-0.000045
 521	5.1740e+01	9.6435	55.272425	0.000446	4.458749	0.755332	-0.000089
 522	5.1840e+01	9.6246	55.232054	0.000203	2.026704	0.343333	-0.000041
 523	5.1939e+01	9.6044	55.175534	0.000284	2.837386	0.480666	-0.000057
 524	5.2038e+01	9.5837	55.098829	0.000385	3.850738	0.652333	-0.000077
 525	5.2138e+01	9.5635	55.042309	0.000284	2.837386	0.480666	-0.000057
 526	5.2237e+01	9.5446	54.957529	0.000426	4.256078	0.720999	-0.000085
 527	5.2337e+01	9.5238	54.884860	0.000365	3.648067	0.617999	-0.000073
 528	5.2437e+01	9.5043	54.824303	0.000304	3.040056	0.514999	-0.000061
 529	5.2536e+01	9.4842	54.739523	0.000426	4.256078	0.720999	-0.000085
 530	5.2636e+01	9.4646	54.683004	0.000284	2.837386	0.480666	-0.000057
 531	5.2735e+01	9.4445	54.634558	0.000243	2.432045	0.412000	-0.000049
 532	5.2834e+01	9.4256	54.521518	0.000567	5.674771	0.961332	-0.000114
 533	5.2934e+01	9.4036	54.473073	0.000243	2.432045	0.412000	-0.000049
 534	5.3033e+01	9.3847	54.424627	0.000243	2.432045	0.412000	-0.000049
 535	5.3133e+01	9.3645	54.368107	0.000284	2.837386	0.480666	-0.000057
 536	5.3233e+01	9.3450	54.259104	0.000547	5.472101	0.926999	-0.000110
 537	5.3332e+01	9.3249	54.206622	0.000263	2.634715	0.446333	-0.000053
 538	5.3431e+01	9.3053	54.113767	0.000466	4.661419	0.789666	-0.000093
 539	5.3531e+01	9.2852	54.073396	0.000203	2.026704	0.343333	-0.000041
 540	5.3630e+01	9.2651	53.996690	0.000385	3.850738	0.652333	-0.000077
 541	5.3730e+01	9.2458	53.907874	0.000446	4.458749	0.755332	-0.000089
 542	5.3830e+01	9.2248	53.835205	0.000365	3.648067	0.617999	-0.000073
 543	5.3929e+01	9.2059	53.734277	0.000507	5.066760	0.858332	-0.000101
 544	5.4029e+01	9.1854	53.673720	0.000304	3.040056	0.514999	-0.000061
 545	5.4128e+01	9.1665	53.661608	0.000061	0.608011	0.103000	-0.000012
 546	5.4227e+01	9.1473	53.536457	0.000628	6.282782	1.064332	-0.000126
 547	5.4327e+01	9.1265	53.500123	0.000182	1.824034	0.309000	-0.000037
 548	5.4426e+01	9.1058	53.387083	0.000567	5.674771	0.961332	-0.000114
 549	5.4526e+01	9.0856	53.318452	0.000345	3.445397	0.583666	-0.000069
 550	5.4626e+01	9.0661	53.229635	0.000446	4.458749	0.755332	-0.000089
 551	5.4725e+01	9.0472	53.161003	0.000345	3.445397	0.583666	-0.000069
 552	5.4825e+01	9.0264	53.080261	0.000405	4.053408	0.686666	-0.000081
 553	5.4924e+01	9.0063	53.003555	0.000385	3.850738	0.652333	-0.000077
 554	5.5023e+01	8.9864	52.922812	0.000405	4.053408	0.686666	-0.000081
 555	5.5123e+01	8.9660	52.894552	0.000142	1.418693	0.240333	-0.000028
 556	5.5222e+01	8.9462	52.813810	0.000405	4.053408	0.686666	-0.000081
 557	5.5322e+01	8.9275	52.745178	0.000345	3.445397	0.583666	-0.000069
 558	5.5422e+01	8.9068	52.636176	0.000547	5.472101	0.926999	-0.000110
 559	5.5521e+01	8.8873	52.563507	0.000365	3.648067	0.617999	-0.000073
 560	5.5620e+01	8.8671	52.498913	0.000324	3.242726	0.549333	-0.000065
 561	5.5720e+01	8.8474	52.410096	0.000446	4.458749	0.755332	-0.000089
 562	5.5819e+01	8.8287	52.337428	0.000365	3.648067	0.617999	-0.000073
 563	5.5919e+01	8.8085	52.280908	0.000284	2.837386	0.480666	-0.000057
 564	5.6019e+01	8.7887	52.167868	0.000567	5.674771	0.961332	-0.000114
 565	5.6118e+01	8.7679	52.091162	0.000385	3.850738	0.652333	-0.000077
 566	5.6218e+01	8.7472	52.018494	0.000365	3.648067	0.617999	-0.000073
 567	5.6317e+01	8.7273	51.945826	0.000365	3.648067	0.617999	-0.000073
 568	5.6416e+01	8.7081	51.897380	0.000243	2.432045	0.412000	-0.000049
 569	5.6516e+01	8.6877	51.824711	0.000365	3.648067	0.617999	-0.000073
 570	5.6615e+01	8.6681	51.723783	0.000507	5.066760	0.858332	-0.000101
 571	5.6715e+01	8.6449	51.687449	0.000182	1.824034	0.309000	-0.000037
 572	5.6815e+01	8.6297	51.590558	0.000486	4.864090	0.823999	-0.000097
 573	5.6914e+01	8.6077	51.517889	0.000365	3.648067	0.617999	-0.000073
 574	5.7014e+01	8.5876	51.416961	0.000507	5.066760	0.858332	-0.000101
 575	5.7113e+01	8.5699	51.344292	0.000365	3.648067	0.617999	-0.000073
 576	5.7212e+01	8.5497	51.287772	0.000284	2.837386	0.480666	-0.000057
 577	5.7312e+01	8.5296	51.198955	0.000446	4.458749	0.755332	-0.000089
 578	5.7411e+01	8.5088	51.110138	0.000446	4.458749	0.755332	-0.000089
 579	5.7511e+01	8.4887	51.045544	0.000324	3.242726	0.549333	-0.000065
 580	5.7611e+01	8.4701	50.984987	0.000304	3.040056	0.514999	-0.000061
 581	5.7710e+01	8.4496	50.920393	0.000324	3.242726	0.549333	-0.000065
 582	5.7809e+01	8.4304	50.803316	0.000588	5.877442	0.995666	-0.000118
 583	5.7909e+01	8.4097	50.726611	0.000385	3.850738	0.652333	-0.000077
 584	5.8008e+01	8.3904	50.674128	0.000263	2.634715	0.446333	-0.000053
 585	5.8108e+01	8.3697	50.589348	0.000426	4.256078	0.720999	-0.000085
 586	5.8208e+01	8.3498	50.508605	0.000405	4.053408	0.686666	-0.000081
 587	5.8307e+01	8.3291	50.395565	0.000567	5.674771	0.961332	-0.000114
 588	5.8407e+01	8.3105	50.339046	0.000284	2.837386	0.480666	-0.000057
 589	5.8506e+01	8.2909	50.246191	0.000466	4.661419	0.789666	-0.000093
 590	5.8605e+01	8.2699	50.177560	0.000345	3.445397	0.583666	-0.000069
 591	5.8705e+01	8.2500	50.072595	0.000527	5.269430	0.892666	-0.000105
 592	5.8804e+01	8.2305	49.995889	0.000385	3.850738	0.652333	-0.000077
 593	5.8904e+01	8.2098	49.919183	0.000385	3.850738	0.652333	-0.000077
 594	5.9004e+01	8.1902	49.854589	0.000324	3.242726	0.549333	-0.000065
 595	5.9103e+01	8.1701	49.757698	0.000486	4.864090	0.823999	-0.000097
 596	5.9203e+01	8.1499	49.672918	0.000426	4.256078	0.720999	-0.000085
 597	5.9302e+01	8.1304	49.584101	0.000446	4.458749	0.755332	-0.000089
 598	5.9401e+01	8.1103	49.551804	0.000162	1.621363	0.274666	-0.000032
 599	5.9501e+01	8.0914	49.438764	0.000567	5.674771	0.961332	-0.000114
 600	5.9600e+01	8.0706	49.341873	0.000486	4.864090	0.823999	-0.000097
 601	5.9700e+01	8.0517	49.228833	0.000567	5.674771	0.961332	-0.000114
 602	5.9800e+01	8.0303	49.196536	0.000162	1.621363	0.274666	-0.000032
 603	5.9899e+01	8.0120	49.075422	0.000608	6.080112	1.029999	-0.000122
 604	5.9998e+01	7.9900	49.047162	0.000142	1.418693	0.240333	-0.000028
 605	6.0098e+01	7.9711	48.922011	0.000628	6.282782	1.064332	-0.000126
 606	6.0197e+01	7.9510	48.865491	0.000284	2.837386	0.480666	-0.000057
 607	6.0297e+01	7.9321	48.716117	0.000750	7.498805	1.270332	-0.000150
 608	6.0397e+01	7.9113	48.659597	0.000284	2.837386	0.480666	-0.000057
 609	6.0496e+01	7.8912	48.590966	0.000345	3.445397	0.583666	-0.000069
 610	6.0596e+01	7.8713	48.510223	0.000405	4.053408	0.686666	-0.000081
 611	6.0695e+01	7.8515	48.397183	0.000567	5.674771	0.961332	-0.000114
 612	6.0794e+01	7.8320	48.328552	0.000345	3.445397	0.583666	-0.000069
 613	6.0894e+01	7.8118	48.231661	0.000486	4.864090	0.823999	-0.000097
 614	6.0993e+01	7.7905	48.114584	0.000588	5.877442	0.995666	-0.000118
 615	6.1093e+01	7.7721	48.054027	0.000304	3.040056	0.514999	-0.000061
 616	6.1193e+01	7.7520	47.985395	0.000345	3.445397	0.583666	-0.000069
 617	6.1292e+01	7.7319	47.896578	0.000446	4.458749	0.755332	-0.000089
 618	6.1392e+01	7.7111	47.803724	0.000466	4.661419	0.789666	-0.000093
 619	6.1491e+01	7.6925	47.727019	0.000385	3.850738	0.652333	-0.000077
 620	6.1590e+01	7.6720	47.585719	0.000709	7.093464	1.201665	-0.000142
 621	6.1690e+01	7.6525	47.525162	0.000304	3.040056	0.514999	-0.000061
 622	6.1789e+01	7.6330	47.412122	0.000567	5.674771	0.961332	-0.000114
 623	6.1889e+01	7.6134	47.355602	0.000284	2.837386	0.480666	-0.000057
 624	6.1989e+01	7.5927	47.246600	0.000547	5.472101	0.926999	-0.000110
 625	6.2088e+01	7.5729	47.182005	0.000324	3.242726	0.549333	-0.000065
 626	6.2188e+01	7.5530	47.077040	0.000527	5.269430	0.892666	-0.000105
 627	6.2287e+01	7.5338	47.000334	0.000385	3.850738	0.652333	-0.000077
 628	6.2386e+01	7.5134	46.911517	0.000446	4.458749	0.755332	-0.000089
 629	6.2486e+01	7.4926	46.818663	0.000466	4.661419	0.789666	-0.000093
 630	6.2586e+01	7.4682	46.754069	0.000324	3.242726	0.549333	-0.000065
 631	6.2685e+01	7.4529	46.612769	0.000709	7.093464	1.201665	-0.000142
 632	6.2785e+01	7.4334	46.560286	0.000263	2.634715	0.446333	-0.000053
 633	6.2884e+01	7.4145	46.507804	0.000263	2.634715	0.446333	-0.000053
 634	6.2983e+01	7.3937	46.382652	0.000628	6.282782	1.064332	-0.000126
 635	6.3083e+01	7.3736	46.293836	0.000446	4.458749	0.755332	-0.000089
 636	6.3182e+01	7.3528	46.209056	0.000426	4.256078	0.720999	-0.000085
 637	6.3282e+01	7.3342	46.100053	0.000547	5.472101	0.926999	-0.000110
 638	6.3382e+01	7.3138	46.059682	0.000203	2.026704	0.343333	-0.000041
 639	6.3481e+01	7.2930	45.987013	0.000365	3.648067	0.617999	-0.000073
 640	6.3581e+01	7.2729	45.894159	0.000466	4.661419	0.789666	-0.000093
 641	6.3680e+01	7.2540	45.769008	0.000628	6.282782	1.064332	-0.000126
 642	6.3779e+01	7.2332	45.708451	0.000304	3.040056	0.514999	-0.000061
 643	6.3879e+01	7.2143	45.587337	0.000608	6.080112	1.029999	-0.000122
 644	6.3978e+01	7.1947	45.514668	0.000365	3.648067	0.617999	-0.000073
 645	6.4078e+01	7.1743	45.405666	0.000547	5.472101	0.926999	-0.000110
 646	6.4177e+01	7.1535	45.365294	0.000203	2.026704	0.343333	-0.000041
 647	6.4277e+01	7.1346	45.232069	0.000669	6.688123	1.132999	-0.000134
 648	6.4376e+01	7.1142	45.143252	0.000446	4.458749	0.755332	-0.000089
 649	6.4476e+01	7.0947	45.074621	0.000345	3.445397	0.583666	-0.000069
 650	6.4576e+01	7.0757	44.993878	0.000405	4.053408	0.686666	-0.000081
 651	6.4675e+01	7.0550	44.921209	0.000365	3.648067	0.617999	-0.000073
 652	6.4775e+01	7.0347	44.763761	0.000790	7.904146	1.338999	-0.000158
 653	6.4874e+01	7.0156	44.715315	0.000243	2.432045	0.412000	-0.000049
 654	6.4974e+01	6.9949	44.598238	0.000588	5.877442	0.995666	-0.000118
 655	6.5073e+01	6.9753	44.533644	0.000324	3.242726	0.549333	-0.000065
 656	6.5172e+01	6.9549	44.428679	0.000527	5.269430	0.892666	-0.000105
 657	6.5272e+01	6.9353	44.319676	0.000547	5.472101	0.926999	-0.000110
 658	6.5371e+01	6.9146	44.255082	0.000324	3.242726	0.549333	-0.000065
 659	6.5471e+01	6.8948	44.174339	0.000405	4.053408	0.686666	-0.000081
 660	6.5570e+01	6.8755	44.073411	0.000507	5.066760	0.858332	-0.000101
 661	6.5670e+01	6.8554	43.984594	0.000446	4.458749	0.755332	-0.000089
 662	6.5769e+01	6.8356	43.875591	0.000547	5.472101	0.926999	-0.000110
 663	6.5869e+01	6.8156	43.810997	0.000324	3.242726	0.549333	-0.000065
 664	6.5969e+01	6.7950	43.697957	0.000567	5.674771	0.961332	-0.000114
 665	6.6068e+01	6.7760	43.609140	0.000446	4.458749	0.755332	-0.000089
 666	6.6168e+01	6.7564	43.500138	0.000547	5.472101	0.926999	-0.000110
 667	6.6267e+01	6.7370	43.443618	0.000284	2.837386	0.480666	-0.000057
 668	6.6367e+01	6.7168	43.314429	0.000649	6.485453	1.098665	-0.000130
 669	6.6466e+01	6.6955	43.245798	0.000345	3.445397	0.583666	-0.000069
 670	6.6566e+01	6.6766	43.152944	0.000466	4.661419	0.789666	-0.000093
 671	6.6665e+01	6.6564	43.060090	0.000466	4.661419	0.789666	-0.000093
 672	6.6764e+01	6.6366	42.959161	0.000507	5.066760	0.858332	-0.000101
 673	6.6864e+01	6.6155	42.866307	0.000466	4.661419	0.789666	-0.000093
 674	6.6963e+01	6.5960	42.797676	0.000345	3.445397	0.583666	-0.000069
 675	6.7063e+01	6.5765	42.704822	0.000466	4.661419	0.789666	-0.000093
 676	6.7162e+01	6.5572	42.611968	0.000466	4.661419	0.789666	-0.000093
 677	6.7262e+01	6.5362	42.507002	0.000527	5.269430	0.892666	-0.000105
 678	6.7362e+01	6.5179	42.426259	0.000405	4.053408	0.686666	-0.000081
 679	6.7461e+01	6.4965	42.341480	0.000426	4.256078	0.720999	-0.000085
 680	6.7561e+01	6.4776	42.248625	0.000466	4.661419	0.789666	-0.000093
 681	6.7660e+01	6.4581	42.155771	0.000466	4.661419	0.789666	-0.000093
 682	6.7760e+01	6.4373	42.026583	0.000649	6.485453	1.098665	-0.000130
 683	6.7859e+01	6.4172	41.949877	0.000385	3.850738	0.652333	-0.000077
 684	6.7959e+01	6.3970	41.857023	0.000466	4.661419	0.789666	-0.000093
 685	6.8058e+01	6.3775	41.780318	0.000385	3.850738	0.652333	-0.000077
 686	6.8157e+01	6.3564	41.655167	0.000628	6.282782	1.064332	-0.000126
 687	6.8257e+01	6.3372	41.550201	0.000527	5.269430	0.892666	-0.000105
 688	6.8356e+01	6.3171	41.469458	0.000405	4.053408	0.686666	-0.000081
 689	6.8456e+01	6.2978	41.437161	0.000162	1.621363	0.274666	-0.000032
 690	6.8555e+01	6.2774	41.320084	0.000588	5.877442	0.995666	-0.000118
 691	6.8655e+01	6.2591	41.211082	0.000547	5.472101	0.926999	-0.000110
 692	6.8754e+01	6.2395	41.130339	0.000405	4.053408	0.686666	-0.000081
 693	6.8854e+01	6.2182	41.029411	0.000507	5.066760	0.858332	-0.000101
 694	6.8954e+01	6.1980	40.952705	0.000385	3.850738	0.652333	-0.000077
 695	6.9053e+01	6.1788	40.827554	0.000628	6.282782	1.064332	-0.000126
 696	6.9153e+01	6.1584	40.750848	0.000385	3.850738	0.652333	-0.000077
 697	6.9252e+01	6.1382	40.662031	0.000446	4.458749	0.755332	-0.000089
 698	6.9352e+01	6.1181	40.565140	0.000486	4.864090	0.823999	-0.000097
 699	6.9451e+01	6.0998	40.496509	0.000345	3.445397	0.583666	-0.000069
 700	6.9550e+01	6.0796	40.403654	0.000466	4.661419	0.789666	-0.000093
 701	6.9650e+01	6.0586	40.306763	0.000486	4.864090	0.823999	-0.000097
 702	6.9749e+01	6.0384	40.209872	0.000486	4.864090	0.823999	-0.000097
 703	6.9849e+01	6.0198	40.137204	0.000365	3.648067	0.617999	-0.000073
 704	6.9948e+01	5.9991	40.056461	0.000405	4.053408	0.686666	-0.000081
 705	7.0048e+01	5.9792	39.955532	0.000507	5.066760	0.858332	-0.000101
 706	7.0147e+01	5.9588	39.882864	0.000365	3.648067	0.617999	-0.000073
 707	7.0247e+01	5.9399	39.765787	0.000588	5.877442	0.995666	-0.000118
 708	7.0347e+01	5.9191	39.652747	0.000567	5.674771	0.961332	-0.000114
 709	7.0446e+01	5.9005	39.584116	0.000345	3.445397	0.583666	-0.000069
 710	7.0546e+01	5.8791	39.458965	0.000628	6.282782	1.064332	-0.000126
 711	7.0645e+01	5.8599	39.362073	0.000486	4.864090	0.823999	-0.000097
 712	7.0745e+01	5.8398	39.269219	0.000466	4.661419	0.789666	-0.000093
 713	7.0844e+01	5.8196	39.176365	0.000466	4.661419	0.789666	-0.000093
 714	7.0944e+01	5.7998	39.095622	0.000405	4.053408	0.686666	-0.000081
 715	7.1043e+01	5.7806	38.970471	0.000628	6.282782	1.064332	-0.000126
 716	7.1142e+01	5.7598	38.873580	0.000486	4.864090	0.823999	-0.000097
 717	7.1242e+01	5.7403	38.768614	0.000527	5.269430	0.892666	-0.000105
 718	7.1341e+01	5.7201	38.732280	0.000182	1.824034	0.309000	-0.000037
 719	7.1441e+01	5.6997	38.590981	0.000709	7.093464	1.201665	-0.000142
 720	7.1540e+01	5.6811	38.514275	0.000385	3.850738	0.652333	-0.000077
 721	7.1640e+01	5.6600	38.397198	0.000588	5.877442	0.995666	-0.000118
 722	7.1740e+01	5.6414	38.308381	0.000446	4.458749	0.755332	-0.000089
 723	7.1839e+01	5.6210	38.211490	0.000486	4.864090	0.823999	-0.000097
 724	7.1939e+01	5.6005	38.138821	0.000365	3.648067	0.617999	-0.000073
 725	7.2038e+01	5.5813	38.009633	0.000649	6.485453	1.098665	-0.000130
 726	7.2138e+01	5.5614	37.916779	0.000466	4.661419	0.789666	-0.000093
 727	7.2237e+01	5.5416	37.827962	0.000446	4.458749	0.755332	-0.000089
 728	7.2337e+01	5.5212	37.747219	0.000405	4.053408	0.686666	-0.000081
 729	7.2436e+01	5.4998	37.609957	0.000689	6.890794	1.167332	-0.000138
 730	7.2535e+01	5.4807	37.488842	0.000608	6.080112	1.029999	-0.000122
 731	7.2635e+01	5.4601	37.404063	0.000426	4.256078	0.720999	-0.000085
 732	7.2734e+01	5.4406	37.319283	0.000426	4.256078	0.720999	-0.000085
 733	7.2834e+01	5.4205	37.214317	0.000527	5.269430	0.892666	-0.000105
 734	7.2933e+01	5.3997	37.125500	0.000446	4.458749	0.755332	-0.000089
 735	7.3033e+01	5.3823	37.048795	0.000385	3.850738	0.652333	-0.000077
 736	7.3132e+01	5.3619	36.895384	0.000770	7.701475	1.304665	-0.000154
 737	7.3232e+01	5.3414	36.818678	0.000385	3.850738	0.652333	-0.000077
 738	7.3332e+01	5.3216	36.729861	0.000446	4.458749	0.755332	-0.000089
 739	7.3431e+01	5.3017	36.628933	0.000507	5.066760	0.858332	-0.000101
 740	7.3531e+01	5.2814	36.528004	0.000507	5.066760	0.858332	-0.000101
 741	7.3630e+01	5.2618	36.443224	0.000426	4.256078	0.720999	-0.000085
 742	7.3730e+01	5.2421	36.342296	0.000507	5.066760	0.858332	-0.000101
 743	7.3829e+01	5.2218	36.249442	0.000466	4.661419	0.789666	-0.000093
 744	7.3928e+01	5.2023	36.104105	0.000730	7.296134	1.235999	-0.000146
 745	7.4028e+01	5.1817	36.051622	0.000263	2.634715	0.446333	-0.000053
 746	7.4127e+01	5.1617	35.930508	0.000608	6.080112	1.029999	-0.000122
 747	7.4227e+01	5.1427	35.817468	0.000567	5.674771	0.961332	-0.000114
 748	7.4326e+01	5.1226	35.720577	0.000486	4.864090	0.823999	-0.000097
 749	7.4426e+01	5.1025	35.603500	0.000588	5.877442	0.995666	-0.000118
 750	7.4525e+01	5.0823	35.530832	0.000365	3.648067	0.617999	-0.000073
 751	7.4625e+01	5.0626	35.421829	0.000547	5.472101	0.926999	-0.000110
 752	7.4725e+01	5.0433	35.337049	0.000426	4.256078	0.720999	-0.000085
 753	7.4824e+01	5.0225	35.224009	0.000567	5.674771	0.961332	-0.000114
 754	7.4924e+01	5.0030	35.123081	0.000507	5.066760	0.858332	-0.000101
 755	7.5023e+01	4.9828	34.985818	0.000689	6.890794	1.167332	-0.000138
 756	7.5123e+01	4.9633	34.925261	0.000304	3.040056	0.514999	-0.000061
 757	7.5222e+01	4.9454	34.836444	0.000446	4.458749	0.755332	-0.000089
 758	7.5322e+01	4.9229	34.666885	0.000851	8.512157	1.441998	-0.000170
 759	7.5421e+01	4.9029	34.610365	0.000284	2.837386	0.480666	-0.000057
 760	7.5520e+01	4.8840	34.485213	0.000628	6.282782	1.064332	-0.000126
 761	7.5620e+01	4.8635	34.400434	0.000426	4.256078	0.720999	-0.000085
 762	7.5719e+01	4.8440	34.275282	0.000628	6.282782	1.064332	-0.000126
 763	7.5819e+01	4.8235	34.162243	0.000567	5.674771	0.961332	-0.000114
 764	7.5918e+01	4.8040	34.089574	0.000365	3.648067	0.617999	-0.000073
 765	7.6018e+01	4.7832	33.952312	0.000689	6.890794	1.167332	-0.000138
 766	7.6118e+01	4.7646	33.875606	0.000385	3.850738	0.652333	-0.000077
 767	7.6217e+01	4.7451	33.746418	0.000649	6.485453	1.098665	-0.000130
 768	7.6317e+01	4.7240	33.661638	0.000426	4.256078	0.720999	-0.000085
 769	7.6416e+01	4.7035	33.552635	0.000547	5.472101	0.926999	-0.000110
 770	7.6516e+01	4.6838	33.395187	0.000790	7.904146	1.338999	-0.000158
 771	7.6615e+01	4.6636	33.330593	0.000324	3.242726	0.549333	-0.000065
 772	7.6715e+01	4.6444	33.229664	0.000507	5.066760	0.858332	-0.000101
 773	7.6814e+01	4.6246	33.096439	0.000669	6.688123	1.132999	-0.000134
 774	7.6913e+01	4.6038	33.007622	0.000446	4.458749	0.755332	-0.000089
 775	7.7013e+01	4.5843	32.866322	0.000709	7.093464	1.201665	-0.000142
 776	7.7112e+01	4.5650	32.781542	0.000426	4.256078	0.720999	-0.000085
 777	7.7212e+01	4.5446	32.668502	0.000567	5.674771	0.961332	-0.000114
 778	7.7311e+01	4.5245	32.559500	0.000547	5.472101	0.926999	-0.000110
 779	7.7411e+01	4.5046	32.450497	0.000547	5.472101	0.926999	-0.000110
 780	7.7510e+01	4.4839	32.341494	0.000547	5.472101	0.926999	-0.000110
 781	7.7610e+01	4.4652	32.208269	0.000669	6.688123	1.132999	-0.000134
 782	7.7710e+01	4.4448	32.095229	0.000567	5.674771	0.961332	-0.000114
 783	7.7809e+01	4.4256	31.998338	0.000486	4.864090	0.823999	-0.000097
 784	7.7909e+01	4.4061	31.917595	0.000405	4.053408	0.686666	-0.000081
 785	7.8008e+01	4.3859	31.808592	0.000547	5.472101	0.926999	-0.000110
 786	7.8108e+01	4.3649	31.675367	0.000669	6.688123	1.132999	-0.000134
 787	7.8207e+01	4.3462	31.554253	0.000608	6.080112	1.029999	-0.000122
 788	7.8306e+01	4.3246	31.425065	0.000649	6.485453	1.098665	-0.000130
 789	7.8406e+01	4.3056	31.324136	0.000507	5.066760	0.858332	-0.000101
 790	7.8505e+01	4.2858	31.235319	0.000446	4.458749	0.755332	-0.000089
 791	7.8605e+01	4.2651	31.110168	0.000628	6.282782	1.064332	-0.000126
 792	7.8704e+01	4.2455	31.013277	0.000486	4.864090	0.823999	-0.000097
 793	7.8804e+01	4.2251	30.876014	0.000689	6.890794	1.167332	-0.000138
 794	7.8903e+01	4.2059	30.758937	0.000588	5.877442	0.995666	-0.000118
 795	7.9003e+01	4.1848	30.686269	0.000365	3.648067	0.617999	-0.000073
 796	7.9103e+01	4.1663	30.581303	0.000527	5.269430	0.892666	-0.000105
 797	7.9202e+01	4.1457	30.476338	0.000527	5.269430	0.892666	-0.000105
 798	7.9302e+01	4.1270	30.351186	0.000628	6.282782	1.064332	-0.000126
 799	7.9401e+01	4.1064	30.258332	0.000466	4.661419	0.789666	-0.000093
 800	7.9501e+01	4.0862	30.121070	0.000689	6.890794	1.167332	-0.000138
 801	7.9600e+01	4.0664	29.983807	0.000689	6.890794	1.167332	-0.000138
 802	7.9700e+01	4.0459	29.894990	0.000446	4.458749	0.755332	-0.000089
 803	7.9799e+01	4.0261	29.753690	0.000709	7.093464	1.201665	-0.000142
 804	7.9898e+01	4.0075	29.693133	0.000304	3.040056	0.514999	-0.000061
 805	7.9998e+01	3.9861	29.584131	0.000547	5.472101	0.926999	-0.000110
 806	8.0097e+01	3.9663	29.434757	0.000750	7.498805	1.270332	-0.000150
 807	8.0197e+01	3.9467	29.325754	0.000547	5.472101	0.926999	-0.000110
 808	8.0296e+01	3.9251	29.228863	0.000486	4.864090	0.823999	-0.000097
 809	8.0396e+01	3.9077	29.103712	0.000628	6.282782	1.064332	-0.000126
 810	8.0496e+01	3.8866	29.010857	0.000466	4.661419	0.789666	-0.000093
 811	8.0595e+01	3.8671	28.885706	0.000628	6.282782	1.064332	-0.000126
 812	8.0695e+01	3.8467	28.740369	0.000730	7.296134	1.235999	-0.000146
 813	8.0794e+01	3.8262	28.655589	0.000426	4.256078	0.720999	-0.000085
 814	8.0894e+01	3.8067	28.538513	0.000588	5.877442	0.995666	-0.000118
 815	8.0993e+01	3.7862	28.421436	0.000588	5.877442	0.995666	-0.000118
 816	8.1093e+01	3.7679	28.344730	0.000385	3.850738	0.652333	-0.000077
 817	8.1192e+01	3.7472	28.219579	0.000628	6.282782	1.064332	-0.000126
 818	8.1291e+01	3.7273	28.106539	0.000567	5.674771	0.961332	-0.000114
 819	8.1391e+01	3.7072	27.985425	0.000608	6.080112	1.029999	-0.000122
 820	8.1490e+01	3.6883	27.848162	0.000689	6.890794	1.167332	-0.000138
 821	8.1590e+01	3.6681	27.743197	0.000527	5.269430	0.892666	-0.000105
 822	8.1689e+01	3.6480	27.666491	0.000385	3.850738	0.652333	-0.000077
 823	8.1789e+01	3.6285	27.496932	0.000851	8.512157	1.441998	-0.000170
 824	8.1888e+01	3.6080	27.412152	0.000426	4.256078	0.720999	-0.000085
 825	8.1988e+01	3.5882	27.299112	0.000567	5.674771	0.961332	-0.000114
 826	8.2088e+01	3.5680	27.177998	0.000608	6.080112	1.029999	-0.000122
 827	8.2187e+01	3.5479	27.093218	0.000426	4.256078	0.720999	-0.000085
 828	8.2287e+01	3.5286	26.955955	0.000689	6.890794	1.167332	-0.000138
 829	8.2386e+01	3.5088	26.818693	0.000689	6.890794	1.167332	-0.000138
 830	8.2486e+01	3.4879	26.693541	0.000628	6.282782	1.064332	-0.000126
 831	8.2585e+01	3.4686	26.556279	0.000689	6.890794	1.167332	-0.000138
 832	8.2684e+01	3.4496	26.459388	0.000486	4.864090	0.823999	-0.000097
 833	8.2784e+01	3.4289	26.374608	0.000426	4.256078	0.720999	-0.000085
 834	8.2883e+01	3.4092	26.261568	0.000567	5.674771	0.961332	-0.000114
 835	8.2983e+01	3.3884	26.104120	0.000790	7.904146	1.338999	-0.000158
 836	8.3082e+01	3.3692	25.991080	0.000567	5.674771	0.961332	-0.000114
 837	8.3182e+01	3.3477	25.874003	0.000588	5.877442	0.995666	-0.000118
 838	8.3281e+01	3.3277	25.805372	0.000345	3.445397	0.583666	-0.000069
 839	8.3381e+01	3.3099	25.684258	0.000608	6.080112	1.029999	-0.000122
 840	8.3481e+01	3.2888	25.534884	0.000750	7.498805	1.270332	-0.000150
 841	8.3580e+01	3.2687	25.421844	0.000567	5.674771	0.961332	-0.000114
 842	8.3680e+01	3.2488	25.320915	0.000507	5.066760	0.858332	-0.000101
 843	8.3779e+01	3.2299	25.183653	0.000689	6.890794	1.167332	-0.000138
 844	8.3879e+01	3.2085	25.066576	0.000588	5.877442	0.995666	-0.000118
 845	8.3978e+01	3.1893	24.969685	0.000486	4.864090	0.823999	-0.000097
 846	8.4078e+01	3.1692	24.836459	0.000669	6.688123	1.132999	-0.000134
 847	8.4177e+01	3.1499	24.743605	0.000466	4.661419	0.789666	-0.000093
 848	8.4276e+01	3.1290	24.626528	0.000588	5.877442	0.995666	-0.000118
 849	8.4376e+01	3.1094	24.485228	0.000709	7.093464	1.201665	-0.000142
 850	8.4475e+01	3.0897	24.404486	0.000405	4.053408	0.686666	-0.000081
 851	8.4575e+01	3.0705	24.295483	0.000547	5.472101	0.926999	-0.000110
 852	8.4674e+01	3.0499	24.133997	0.000811	8.106816	1.373332	-0.000162
 853	8.4774e+01	3.0294	24.016921	0.000588	5.877442	0.995666	-0.000118
 854	8.4874e+01	3.0106	23.924066	0.000466	4.661419	0.789666	-0.000093
 855	8.4973e+01	2.9897	23.770655	0.000770	7.701475	1.304665	-0.000154
 856	8.5073e+01	2.9708	23.689913	0.000405	4.053408	0.686666	-0.000081
 857	8.5172e+01	2.9504	23.532464	0.000790	7.904146	1.338999	-0.000158
 858	8.5272e+01	2.9305	23.455759	0.000385	3.850738	0.652333	-0.000077
 859	8.5371e+01	2.9100	23.318496	0.000689	6.890794	1.167332	-0.000138
 860	8.5471e+01	2.8902	23.245828	0.000365	3.648067	0.617999	-0.000073
 861	8.5570e+01	2.8716	23.116639	0.000649	6.485453	1.098665	-0.000130
 862	8.5669e+01	2.8512	23.011674	0.000527	5.269430	0.892666	-0.000105
 863	8.5769e+01	2.8295	22.878448	0.000669	6.688123	1.132999	-0.000134
 864	8.5868e+01	2.8112	22.753297	0.000628	6.282782	1.064332	-0.000126
 865	8.5968e+01	2.7911	22.620072	0.000669	6.688123	1.132999	-0.000134
 866	8.6067e+01	2.7708	22.531255	0.000446	4.458749	0.755332	-0.000089
 867	8.6167e+01	2.7507	22.418215	0.000567	5.674771	0.961332	-0.000114
 868	8.6266e+01	2.7309	22.301138	0.000588	5.877442	0.995666	-0.000118
 869	8.6366e+01	2.7105	22.180024	0.000608	6.080112	1.029999	-0.000122
 870	8.6466e+01	2.6911	22.099281	0.000405	4.053408	0.686666	-0.000081
 871	8.6565e+01	2.6719	21.962018	0.000689	6.890794	1.167332	-0.000138
 872	8.6665e+01	2.6513	21.857053	0.000527	5.269430	0.892666	-0.000105
 873	8.6764e+01	2.6316	21.691530	0.000831	8.309486	1.407665	-0.000166
 874	8.6864e+01	2.6107	21.590602	0.000507	5.066760	0.858332	-0.000101
 875	8.6963e+01	2.5912	21.465451	0.000628	6.282782	1.064332	-0.000126
 876	8.7063e+01	2.5713	21.360485	0.000527	5.269430	0.892666	-0.000105
 877	8.7162e+01	2.5517	21.243408	0.000588	5.877442	0.995666	-0.000118
 878	8.7261e+01	2.5307	21.130368	0.000567	5.674771	0.961332	-0.000114
 879	8.7361e+01	2.5103	20.972920	0.000790	7.904146	1.338999	-0.000158
 880	8.7460e+01	2.4920	20.859880	0.000567	5.674771	0.961332	-0.000114
 881	8.7560e+01	2.4720	20.775101	0.000426	4.256078	0.720999	-0.000085
 882	8.7659e+01	2.4523	20.621689	0.000770	7.701475	1.304665	-0.000154
 883	8.7759e+01	2.4326	20.504612	0.000588	5.877442	0.995666	-0.000118
 884	8.7859e+01	2.4123	20.431944	0.000365	3.648067	0.617999	-0.000073
 885	8.7958e+01	2.3930	20.278533	0.000770	7.701475	1.304665	-0.000154
 886	8.8058e+01	2.3718	20.145307	0.000669	6.688123	1.132999	-0.000134
 887	8.8157e+01	2.3525	19.999970	0.000730	7.296134	1.235999	-0.000146
 888	8.8257e+01	2.3321	19.931339	0.000345	3.445397	0.583666	-0.000069
 889	8.8356e+01	2.3125	19.802151	0.000649	6.485453	1.098665	-0.000130
 890	8.8456e+01	2.2927	19.640665	0.000811	8.106816	1.373332	-0.000162
 891	8.8555e+01	2.2727	19.555886	0.000426	4.256078	0.720999	-0.000085
 892	8.8654e+01	2.2535	19.438809	0.000588	5.877442	0.995666	-0.000118
 893	8.8754e+01	2.2324	19.289435	0.000750	7.498805	1.270332	-0.000150
 894	8.8853e+01	2.2134	19.204655	0.000426	4.256078	0.720999	-0.000085
 895	8.8953e+01	2.1935	19.047206	0.000790	7.904146	1.338999	-0.000158
 896	8.9052e+01	2.1722	18.958389	0.000446	4.458749	0.755332	-0.000089
 897	8.9152e+01	2.1529	18.821127	0.000689	6.890794	1.167332	-0.000138
 898	8.9251e+01	2.1328	18.691938	0.000649	6.485453	1.098665	-0.000130
 899	8.9351e+01	2.1133	18.582936	0.000547	5.472101	0.926999	-0.000110
 900	8.9451e+01	2.0928	18.417413	0.000831	8.309486	1.407665	-0.000166
 901	8.9550e+01	2.0732	18.352819	0.000324	3.242726	0.549333	-0.000065
 902	8.9650e+01	2.0538	18.195371	0.000790	7.904146	1.338999	-0.000158
 903	8.9749e+01	2.0332	18.050034	0.000730	7.296134	1.235999	-0.000146
 904	8.9849e+01	2.0126	17.961217	0.000446	4.458749	0.755332	-0.000089
 905	8.9948e+01	1.9926	17.844140	0.000588	5.877442	0.995666	-0.000118
 906	9.0047e+01	1.9747	17.698803	0.000730	7.296134	1.235999	-0.000146
 907	9.0147e+01	1.9546	17.630172	0.000345	3.445397	0.583666	-0.000069
 908	9.0246e+01	1.9332	17.460612	0.000851	8.512157	1.441998	-0.000170
 909	9.0346e+01	1.9139	17.355647	0.000527	5.269430	0.892666	-0.000105
 910	9.0445e+01	1.8935	17.206273	0.000750	7.498805	1.270332	-0.000150
 911	9.0545e+01	1.8749	17.101307	0.000527	5.269430	0.892666	-0.000105
 912	9.0644e+01	1.8537	16.955970	0.000730	7.296134	1.235999	-0.000146
 913	9.0744e+01	1.8340	16.855042	0.000507	5.066760	0.858332	-0.000101
 914	9.0844e+01	1.8145	16.737965	0.000588	5.877442	0.995666	-0.000118
 915	9.0943e+01	1.7947	16.600702	0.000689	6.890794	1.167332	-0.000138
 916	9.1043e+01	1.7745	16.471514	0.000649	6.485453	1.098665	-0.000130
 917	9.1142e+01	1.7556	16.346363	0.000628	6.282782	1.064332	-0.000126
 918	9.1242e+01	1.7345	16.257546	0.000446	4.458749	0.755332	-0.000089
 919	9.1341e+01	1.7149	16.104134	0.000770	7.701475	1.304665	-0.000154
 920	9.1441e+01	1.6948	15.942649	0.000811	8.106816	1.373332	-0.000162
 921	9.1540e+01	1.6755	15.869981	0.000365	3.648067	0.617999	-0.000073
 922	9.1639e+01	1.6558	15.744829	0.000628	6.282782	1.064332	-0.000126
 923	9.1739e+01	1.6354	15.615641	0.000649	6.485453	1.098665	-0.000130
 924	9.1838e+01	1.6152	15.494527	0.000608	6.080112	1.029999	-0.000122
 925	9.1938e+01	1.5958	15.337079	0.000790	7.904146	1.338999	-0.000158
 926	9.2037e+01	1.5756	15.228076	0.000547	5.472101	0.926999	-0.000110
 927	9.2137e+01	1.5549	15.110999	0.000588	5.877442	0.995666	-0.000118
 928	9.2237e+01	1.5354	14.957588	0.000770	7.701475	1.304665	-0.000154
 929	9.2336e+01	1.5154	14.840511	0.000588	5.877442	0.995666	-0.000118
 930	9.2436e+01	1.4955	14.715360	0.000628	6.282782	1.064332	-0.000126
 931	9.2535e+01	1.4760	14.586171	0.000649	6.485453	1.098665	-0.000130
 932	9.2635e+01	1.4561	14.489280	0.000486	4.864090	0.823999	-0.000097
 933	9.2734e+01	1.4362	14.343943	0.000730	7.296134	1.235999	-0.000146
 934	9.2834e+01	1.4155	14.202644	0.000709	7.093464	1.201665	-0.000142
 935	9.2933e+01	1.3956	14.101715	0.000507	5.066760	0.858332	-0.000101
 936	9.3032e+01	1.3760	13.948304	0.000770	7.701475	1.304665	-0.000154
 937	9.3132e+01	1.3559	13.831227	0.000588	5.877442	0.995666	-0.000118
 938	9.3231e+01	1.3354	13.665704	0.000831	8.309486	1.407665	-0.000166
 939	9.3331e+01	1.3152	13.556702	0.000547	5.472101	0.926999	-0.000110
 940	9.3430e+01	1.2968	13.447699	0.000547	5.472101	0.926999	-0.000110
 941	9.3530e+01	1.2757	13.253917	0.000973	9.728179	1.647998	-0.000195
 942	9.3629e+01	1.2566	13.209508	0.000223	2.229374	0.377666	-0.000045
 943	9.3729e+01	1.2371	13.031874	0.000892	8.917498	1.510665	-0.000179
 944	9.3829e+01	1.2176	12.902686	0.000649	6.485453	1.098665	-0.000130
 945	9.3928e+01	1.1967	12.797720	0.000527	5.269430	0.892666	-0.000105
 946	9.4028e+01	1.1767	12.640272	0.000790	7.904146	1.338999	-0.000158
 947	9.4127e+01	1.1581	12.498972	0.000709	7.093464	1.201665	-0.000142
 948	9.4227e+01	1.1372	12.385932	0.000567	5.674771	0.961332	-0.000114
 949	9.4326e+01	1.1171	12.252707	0.000669	6.688123	1.132999	-0.000134
 950	9.4425e+01	1.0970	12.111407	0.000709	7.093464	1.201665	-0.000142
 951	9.4525e+01	1.0769	12.002405	0.000547	5.472101	0.926999	-0.000110
 952	9.4624e+01	1.0571	11.865142	0.000689	6.890794	1.167332	-0.000138
 953	9.4724e+01	1.0378	11.744028	0.000608	6.080112	1.029999	-0.000122
 954	9.4823e+01	1.0185	11.554282	0.000953	9.525509	1.613665	-0.000191
 955	9.4923e+01	0.9969	11.453354	0.000507	5.066760	0.858332	-0.000101
 956	9.5022e+01	0.9788	11.316091	0.000689	6.890794	1.167332	-0.000138
 957	9.5122e+01	0.9576	11.190940	0.000628	6.282782	1.064332	-0.000126
 958	9.5222e+01	0.9370	11.057715	0.000669	6.688123	1.132999	-0.000134
 959	9.5321e+01	0.9173	10.916415	0.000709	7.093464	1.201665	-0.000142
 960	9.5421e+01	0.8974	10.771078	0.000730	7.296134	1.235999	-0.000146
 961	9.5520e+01	0.8777	10.718595	0.000263	2.634715	0.446333	-0.000053
 962	9.5620e+01	0.8578	10.561147	0.000790	7.904146	1.338999	-0.000158
 963	9.5719e+01	0.8379	10.399662	0.000811	8.106816	1.373332	-0.000162
 964	9.5819e+01	0.8181	10.274510	0.000628	6.282782	1.064332	-0.000126
 965	9.5918e+01	0.7983	10.125136	0.000750	7.498805	1.270332	-0.000150
 966	9.6017e+01	0.7779	10.024208	0.000507	5.066760	0.858332	-0.000101
 967	9.6117e+01	0.7585	9.903094	0.000608	6.080112	1.029999	-0.000122
 968	9.6216e+01	0.7388	9.721423	0.000912	9.120168	1.544998	-0.000183
 969	9.6316e+01	0.7174	9.592235	0.000649	6.485453	1.098665	-0.000130
 970	9.6415e+01	0.6992	9.499380	0.000466	4.661419	0.789666	-0.000093
 971	9.6515e+01	0.6785	9.350006	0.000750	7.498805	1.270332	-0.000150
 972	9.6615e+01	0.6581	9.192558	0.000790	7.904146	1.338999	-0.000158
 973	9.6714e+01	0.6393	9.079518	0.000567	5.674771	0.961332	-0.000114
 974	9.6814e+01	0.6189	8.942256	0.000689	6.890794	1.167332	-0.000138
 975	9.6913e+01	0.5994	8.809030	0.000669	6.688123	1.132999	-0.000134
 976	9.7013e+01	0.5798	8.716176	0.000466	4.661419	0.789666	-0.000093
 977	9.7112e+01	0.5591	8.554691	0.000811	8.106816	1.373332	-0.000162
 978	9.7212e+01	0.5390	8.465874	0.000446	4.458749	0.755332	-0.000089
 979	9.7311e+01	0.5190	8.272091	0.000973	9.728179	1.647998	-0.000195
 980	9.7410e+01	0.4998	8.167126	0.000527	5.269430	0.892666	-0.000105
 981	9.7510e+01	0.4797	8.021789	0.000730	7.296134	1.235999	-0.000146
 982	9.7609e+01	0.4591	7.884526	0.000689	6.890794	1.167332	-0.000138
 983	9.7709e+01	0.4389	7.751301	0.000669	6.688123	1.132999	-0.000134
 984	9.7808e+01	0.4191	7.634224	0.000588	5.877442	0.995666	-0.000118
 985	9.7908e+01	0.3997	7.464664	0.000851	8.512157	1.441998	-0.000170
 986	9.8007e+01	0.3796	7.363736	0.000507	5.066760	0.858332	-0.000101
 987	9.8107e+01	0.3591	7.238584	0.000628	6.282782	1.064332	-0.000126
 988	9.8207e+01	0.3392	7.081136	0.000790	7.904146	1.338999	-0.000158
 989	9.8306e+01	0.3202	6.955985	0.000628	6.282782	1.064332	-0.000126
 990	9.8406e+01	0.3002	6.818722	0.000689	6.890794	1.167332	-0.000138
 991	9.8505e+01	0.2798	6.677423	0.000709	7.093464	1.201665	-0.000142
 992	9.8605e+01	0.2600	6.552271	0.000628	6.282782	1.064332	-0.000126
 993	9.8704e+01	0.2390	6.423083	0.000649	6.485453	1.098665	-0.000130
 994	9.8803e+01	0.2201	6.281783	0.000709	7.093464	1.201665	-0.000142
 995	9.8903e+01	0.2007	6.172781	0.000547	5.472101	0.926999	-0.000110
 996	9.9002e+01	0.1804	6.035518	0.000689	6.890794	1.167332	-0.000138
 997	9.9102e+01	0.1615	5.886144	0.000750	7.498805	1.270332	-0.000150
 998	9.9201e+01	0.1405	5.765030	0.000608	6.080112	1.029999	-0.000122
 999	9.9301e+01	0.1208	5.631804	0.000669	6.688123	1.132999	-0.000134
1000	9.9400e+01	0.1005	5.486467	0.000730	7.296134	1.235999	-0.000146
1001	9.9500e+01	0.0814	5.377465	0.000547	5.472101	0.926999	-0.000110
1002	9.9600e+01	0.0610	5.191757	0.000932	9.322838	1.579332	-0.000187
1003	9.9699e+01	0.0406	5.062568	0.000649	6.485453	1.098665	-0.000130
1004	9.9799e+01	0.0212	4.953566	0.000547	5.472101	0.926999	-0.000110
1005	9.9898e+01	0.0014	4.840526	0.000567	5.674771	0.961332	-0.000114
1006	9.9998e+01	-0.0170	4.675003	0.000831	8.309486	1.407665	-0.000166
1007	1.0010e+02	-0.0366	4.545815	0.000649	6.485453	1.098665	-0.000130
1008	1.0020e+02	-0.0578	4.376255	0.000851	8.512157	1.441998	-0.000170
1009	1.0030e+02	-0.0772	4.287438	0.000446	4.458749	0.755332	-0.000089
1010	1.0040e+02	-0.0969	4.121916	0.000831	8.309486	1.407665	-0.000166
1011	1.0050e+02	-0.1167	4.008876	0.000567	5.674771	0.961332	-0.000114
1012	1.0059e+02	-0.1366	3.903910	0.000527	5.269430	0.892666	-0.000105
1013	1.0069e+02	-0.1575	3.746462	0.000790	7.904146	1.338999	-0.000158
1014	1.0079e+02	-0.1763	3.597088	0.000750	7.498805	1.270332	-0.000150
1015	1.0089e+02	-0.1965	3.455788	0.000709	7.093464	1.201665	-0.000142
1016	1.0099e+02	-0.2167	3.330637	0.000628	6.282782	1.064332	-0.000126
1017	1.0109e+02	-0.2357	3.257969	0.000365	3.648067	0.617999	-0.000073
1018	1.0119e+02	-0.2565	3.072260	0.000932	9.322838	1.579332	-0.000187
1019	1.0129e+02	-0.2761	2.951146	0.000608	6.080112	1.029999	-0.000122
1020	1.0139e+02	-0.2965	2.830032	0.000608	6.080112	1.029999	-0.000122
1021	1.0149e+02	-0.3172	2.680658	0.000750	7.498805	1.270332	-0.000150
1022	1.0159e+02	-0.3379	2.567618	0.000567	5.674771	0.961332	-0.000114
1023	1.0169e+02	-0.3555	2.402096	0.000831	8.309486	1.407665	-0.000166
1024	1.0179e+02	-0.3762	2.272907	0.000649	6.485453	1.098665	-0.000130
1025	1.0189e+02	-0.3962	2.155830	0.000588	5.877442	0.995666	-0.000118
1026	1.0199e+02	-0.4155	2.018568	0.000689	6.890794	1.167332	-0.000138
1027	1.0209e+02	-0.4361	1.865157	0.000770	7.701475	1.304665	-0.000154
1028	1.0219e+02	-0.4559	1.740006	0.000628	6.282782	1.064332	-0.000126
1029	1.0229e+02	-0.4762	1.618891	0.000608	6.080112	1.029999	-0.000122
1030	1.0239e+02	-0.4959	1.501814	0.000588	5.877442	0.995666	-0.000118
1031	1.0248e+02	-0.5154	1.368589	0.000669	6.688123	1.132999	-0.000134
1032	1.0258e+02	-0.5367	1.251512	0.000588	5.877442	0.995666	-0.000118
1033	1.0268e+02	-0.5552	1.122324	0.000649	6.485453	1.098665	-0.000130
1034	1.0278e+02	-0.5748	0.989098	0.000669	6.688123	1.132999	-0.000134
1035	1.0288e+02	-0.5951	0.831650	0.000790	7.904146	1.338999	-0.000158
1036	1.0298e+02	-0.6159	0.698424	0.000669	6.688123	1.132999	-0.000134
1037	1.0308e+02	-0.6348	0.577310	0.000608	6.080112	1.029999	-0.000122
1038	1.0318e+02	-0.6550	0.448122	0.000649	6.485453	1.098665	-0.000130
1039	1.0328e+02	-0.6749	0.310859	0.000689	6.890794	1.167332	-0.000138
1040	1.0338e+02	-0.6946	0.189745	0.000608	6.080112	1.029999	-0.000122
1041	1.0348e+02	-0.7149	0.056520	0.000669	6.688123	1.132999	-0.000134
1042	1.0358e+02	-0.7349	-0.096891	0.000770	7.701475	1.304665	-0.000154
1043	1.0368e+02	-0.7547	-0.218005	0.000608	6.080112	1.029999	-0.000122
1044	1.0378e+02	-0.7735	-0.347194	0.000649	6.485453	1.098665	-0.000130
1045	1.0388e+02	-0.7955	-0.472345	0.000628	6.282782	1.064332	-0.000126
1046	1.0398e+02	-0.8148	-0.609607	0.000689	6.890794	1.167332	-0.000138
1047	1.0408e+02	-0.8348	-0.763019	0.000770	7.701475	1.304665	-0.000154
1048	1.0418e+02	-0.8553	-0.872021	0.000547	5.472101	0.926999	-0.000110
1049	1.0428e+02	-0.8737	-0.993135	0.000608	6.080112	1.029999	-0.000122
1050	1.0438e+02	-0.8941	-1.122324	0.000649	6.485453	1.098665	-0.000130
1051	1.0447e+02	-0.9140	-1.251512	0.000649	6.485453	1.098665	-0.000130
1052	1.0457e+02	-0.9340	-1.453369	0.001013	10.133520	1.716665	-0.000203
1053	1.0467e+02	-0.9547	-1.574483	0.000608	6.080112	1.029999	-0.000122
1054	1.0477e+02	-0.9743	-1.667337	0.000466	4.661419	0.789666	-0.000093
1055	1.0487e+02	-0.9930	-1.812674	0.000730	7.296134	1.235999	-0.000146
1056	1.0497e+02	-1.0139	-1.966085	0.000770	7.701475	1.304665	-0.000154
1057	1.0507e+02	-1.0336	-2.067013	0.000507	5.066760	0.858332	-0.000101
1058	1.0517e+02	-1.0536	-2.200239	0.000669	6.688123	1.132999	-0.000134
1059	1.0527e+02	-1.0748	-2.349613	0.000750	7.498805	1.270332	-0.000150
1060	1.0537e+02	-1.0934	-2.478801	0.000649	6.485453	1.098665	-0.000130
1061	1.0547e+02	-1.1137	-2.620101	0.000709	7.093464	1.201665	-0.000142
1062	1.0557e+02	-1.1333	-2.741215	0.000608	6.080112	1.029999	-0.000122
1063	1.0567e+02	-1.1541	-2.874441	0.000669	6.688123	1.132999	-0.000134
1064	1.0577e+02	-1.1737	-3.011703	0.000689	6.890794	1.167332	-0.000138
1065	1.0587e+02	-1.1935	-3.173189	0.000811	8.106816	1.373332	-0.000162
1066	1.0597e+02	-1.2133	-3.249894	0.000385	3.850738	0.652333	-0.000077
1067	1.0607e+02	-1.2332	-3.415417	0.000831	8.309486	1.407665	-0.000166
1068	1.0617e+02	-1.2531	-3.540568	0.000628	6.282782	1.064332	-0.000126
1069	1.0627e+02	-1.2734	-3.673794	0.000669	6.688123	1.132999	-0.000134
1070	1.0637e+02	-1.2926	-3.835279	0.000811	8.106816	1.373332	-0.000162
1071	1.0647e+02	-1.3127	-3.956393	0.000608	6.080112	1.029999	-0.000122
1072	1.0656e+02	-1.3326	-4.085581	0.000649	6.485453	1.098665	-0.000130
1073	1.0666e+02	-1.3530	-4.182473	0.000486	4.864090	0.823999	-0.000097
1074	1.0676e+02	-1.3724	-4.368181	0.000932	9.322838	1.579332	-0.000187
1075	1.0686e+02	-1.3918	-4.517555	0.000750	7.498805	1.270332	-0.000150
1076	1.0696e+02	-1.4135	-4.626558	0.000547	5.472101	0.926999	-0.000110
1077	1.0706e+02	-1.4323	-4.763820	0.000689	6.890794	1.167332	-0.000138
1078	1.0716e+02	-1.4524	-4.888971	0.000628	6.282782	1.064332	-0.000126
1079	1.0726e+02	-1.4720	-5.050457	0.000811	8.106816	1.373332	-0.000162
1080	1.0736e+02	-1.4926	-5.151385	0.000507	5.066760	0.858332	-0.000101
1081	1.0746e+02	-1.5123	-5.292685	0.000709	7.093464	1.201665	-0.000142
1082	1.0756e+02	-1.5325	-5.429948	0.000689	6.890794	1.167332	-0.000138
1083	1.0766e+02	-1.5520	-5.538950	0.000547	5.472101	0.926999	-0.000110
1084	1.0776e+02	-1.5717	-5.688324	0.000750	7.498805	1.270332	-0.000150
1085	1.0786e+02	-1.5918	-5.793290	0.000527	5.269430	0.892666	-0.000105
1086	1.0796e+02	-1.6118	-5.930552	0.000689	6.890794	1.167332	-0.000138
1087	1.0806e+02	-1.6319	-6.067815	0.000689	6.890794	1.167332	-0.000138
1088	1.0816e+02	-1.6519	-6.176818	0.000547	5.472101	0.926999	-0.000110
1089	1.0826e+02	-1.6708	-6.354452	0.000892	8.917498	1.510665	-0.000179
1090	1.0836e+02	-1.6910	-6.479603	0.000628	6.282782	1.064332	-0.000126
1091	1.0845e+02	-1.7111	-6.568420	0.000446	4.458749	0.755332	-0.000089
1092	1.0855e+02	-1.7303	-6.737980	0.000851	8.512157	1.441998	-0.000170
1093	1.0865e+02	-1.7513	-6.891391	0.000770	7.701475	1.304665	-0.000154
1094	1.0875e+02	-1.7712	-7.020579	0.000649	6.485453	1.098665	-0.000130
1095	1.0885e+02	-1.7908	-7.165916	0.000730	7.296134	1.235999	-0.000146
1096	1.0895e+02	-1.8109	-7.270881	0.000527	5.269430	0.892666	-0.000105
1097	1.0905e+02	-1.8312	-7.448515	0.000892	8.917498	1.510665	-0.000179
1098	1.0915e+02	-1.8509	-7.545407	0.000486	4.864090	0.823999	-0.000097
1099	1.0925e+02	-1.8713	-7.710929	0.000831	8.309486	1.407665	-0.000166
1100	1.0935e+02	-1.8912	-7.856266	0.000730	7.296134	1.235999	-0.000146
1101	1.0945e+02	-1.9116	-7.989492	0.000669	6.688123	1.132999	-0.000134
1102	1.0955e+02	-1.9304	-8.122717	0.000669	6.688123	1.132999	-0.000134
1103	1.0965e+02	-1.9507	-8.255943	0.000669	6.688123	1.132999	-0.000134
1104	1.0975e+02	-1.9707	-8.405317	0.000750	7.498805	1.270332	-0.000150
1105	1.0985e+02	-1.9901	-8.510282	0.000527	5.269430	0.892666	-0.000105
1106	1.0995e+02	-2.0105	-8.635433	0.000628	6.282782	1.064332	-0.000126
1107	1.1005e+02	-2.0300	-8.788845	0.000770	7.701475	1.304665	-0.000154
1108	1.1015e+02	-2.0500	-8.938219	0.000750	7.498805	1.270332	-0.000150
1109	1.1025e+02	-2.0706	-9.059333	0.000608	6.080112	1.029999	-0.000122
1110	1.1035e+02	-2.0892	-9.212744	0.000770	7.701475	1.304665	-0.000154
1111	1.1044e+02	-2.1109	-9.317709	0.000527	5.269430	0.892666	-0.000105
1112	1.1054e+02	-2.1299	-9.459009	0.000709	7.093464	1.201665	-0.000142
1113	1.1064e+02	-2.1490	-9.580123	0.000608	6.080112	1.029999	-0.000122
1114	1.1074e+02	-2.1703	-9.705274	0.000628	6.282782	1.064332	-0.000126
1115	1.1084e+02	-2.1896	-9.878871	0.000871	8.714827	1.476332	-0.000174
1116	1.1094e+02	-2.2095	-10.008059	0.000649	6.485453	1.098665	-0.000130
1117	1.1104e+02	-2.2284	-10.141285	0.000669	6.688123	1.132999	-0.000134
1118	1.1114e+02	-2.2497	-10.274510	0.000669	6.688123	1.132999	-0.000134
1119	1.1124e+02	-2.2696	-10.427922	0.000770	7.701475	1.304665	-0.000154
1120	1.1134e+02	-2.2897	-10.553073	0.000628	6.282782	1.064332	-0.000126
1121	1.1144e+02	-2.3100	-10.694373	0.000709	7.093464	1.201665	-0.000142
1122	1.1154e+02	-2.3291	-10.827598	0.000669	6.688123	1.132999	-0.000134
1123	1.1164e+02	-2.3491	-10.928526	0.000507	5.066760	0.858332	-0.000101
1124	1.1174e+02	-2.3685	-11.085975	0.000790	7.904146	1.338999	-0.000158
1125	1.1184e+02	-2.3892	-11.219200	0.000669	6.688123	1.132999	-0.000134
1126	1.1194e+02	-2.4080	-11.356463	0.000689	6.890794	1.167332	-0.000138
1127	1.1204e+02	-2.4289	-11.513911	0.000790	7.904146	1.338999	-0.000158
1128	1.1214e+02	-2.4496	-11.663285	0.000750	7.498805	1.270332	-0.000150
1129	1.1224e+02	-2.4689	-11.764214	0.000507	5.066760	0.858332	-0.000101
1130	1.1234e+02	-2.4896	-11.953959	0.000953	9.525509	1.613665	-0.000191
1131	1.1244e+02	-2.5091	-12.034702	0.000405	4.053408	0.686666	-0.000081
1132	1.1253e+02	-2.5281	-12.155816	0.000608	6.080112	1.029999	-0.000122
1133	1.1263e+02	-2.5475	-12.272893	0.000588	5.877442	0.995666	-0.000118
1134	1.1273e+02	-2.5677	-12.430341	0.000790	7.904146	1.338999	-0.000158
1135	1.1283e+02	-2.5891	-12.547418	0.000588	5.877442	0.995666	-0.000118
1136	1.1293e+02	-2.6073	-12.696792	0.000750	7.498805	1.270332	-0.000150
1137	1.1303e+02	-2.6276	-12.821943	0.000628	6.282782	1.064332	-0.000126
1138	1.1313e+02	-2.6471	-12.947094	0.000628	6.282782	1.064332	-0.000126
1139	1.1323e+02	-2.6669	-13.088394	0.000709	7.093464	1.201665	-0.000142
1140	1.1333e+02	-2.6875	-13.205471	0.000588	5.877442	0.995666	-0.000118
1141	1.1343e+02	-2.7077	-13.310437	0.000527	5.269430	0.892666	-0.000105
1142	1.1353e+02	-2.7269	-13.467885	0.000790	7.904146	1.338999	-0.000158
1143	1.1363e+02	-2.7477	-13.605147	0.000689	6.890794	1.167332	-0.000138
1144	1.1373e+02	-2.7676	-13.730299	0.000628	6.282782	1.064332	-0.000126
1145	1.1383e+02	-2.7884	-13.815078	0.000426	4.256078	0.720999	-0.000085
1146	1.1393e+02	-2.8076	-13.984638	0.000851	8.512157	1.441998	-0.000170
1147	1.1403e+02	-2.8265	-14.105752	0.000608	6.080112	1.029999	-0.000122
1148	1.1413e+02	-2.8476	-14.271275	0.000831	8.309486	1.407665	-0.000166
1149	1.1423e+02	-2.8668	-14.376240	0.000527	5.269430	0.892666	-0.000105
1150	1.1433e+02	-2.8864	-14.541763	0.000831	8.309486	1.407665	-0.000166
1151	1.1442e+02	-2.9059	-14.654803	0.000567	5.674771	0.961332	-0.000114
1152	1.1452e+02	-2.9269	-14.792065	0.000689	6.890794	1.167332	-0.000138
1153	1.1462e+02	-2.9471	-14.897031	0.000527	5.269430	0.892666	-0.000105
1154	1.1472e+02	-2.9663	-15.030256	0.000669	6.688123	1.132999	-0.000134
1155	1.1482e+02	-2.9865	-15.207890	0.000892	8.917498	1.510665	-0.000179
1156	1.1492e+02	-3.0069	-15.300744	0.000466	4.661419	0.789666	-0.000093
1157	1.1502e+02	-3.0270	-15.417821	0.000588	5.877442	0.995666	-0.000118
1158	1.1512e+02	-3.0470	-15.551047	0.000669	6.688123	1.132999	-0.000134
1159	1.1522e+02	-3.0658	-15.692347	0.000709	7.093464	1.201665	-0.000142
1160	1.1532e+02	-3.0864	-15.825572	0.000669	6.688123	1.132999	-0.000134
1161	1.1542e+02	-3.1055	-15.946686	0.000608	6.080112	1.029999	-0.000122
1162	1.1552e+02	-3.1262	-16.079912	0.000669	6.688123	1.132999	-0.000134
1163	1.1562e+02	-3.1463	-16.192951	0.000567	5.674771	0.961332	-0.000114
1164	1.1572e+02	-3.1657	-16.326177	0.000669	6.688123	1.132999	-0.000134
1165	1.1582e+02	-3.1856	-16.455365	0.000649	6.485453	1.098665	-0.000130
1166	1.1592e+02	-3.2055	-16.588591	0.000669	6.688123	1.132999	-0.000134
1167	1.1602e+02	-3.2265	-16.717779	0.000649	6.485453	1.098665	-0.000130
1168	1.1612e+02	-3.2458	-16.842930	0.000628	6.282782	1.064332	-0.000126
1169	1.1622e+02	-3.2654	-16.960007	0.000588	5.877442	0.995666	-0.000118
1170	1.1632e+02	-3.2852	-17.117456	0.000790	7.904146	1.338999	-0.000158
1171	1.1642e+02	-3.3067	-17.246644	0.000649	6.485453	1.098665	-0.000130
1172	1.1651e+02	-3.3254	-17.319312	0.000365	3.648067	0.617999	-0.000073
1173	1.1661e+02	-3.3456	-17.476761	0.000790	7.904146	1.338999	-0.000158
1174	1.1671e+02	-3.3661	-17.626135	0.000750	7.498805	1.270332	-0.000150
1175	1.1681e+02	-3.3856	-17.747249	0.000608	6.080112	1.029999	-0.000122
1176	1.1691e+02	-3.4048	-17.860289	0.000567	5.674771	0.961332	-0.000114
1177	1.1701e+02	-3.4251	-17.981403	0.000608	6.080112	1.029999	-0.000122
1178	1.1711e+02	-3.4458	-18.086368	0.000527	5.269430	0.892666	-0.000105
1179	1.1721e+02	-3.4647	-18.235742	0.000750	7.498805	1.270332	-0.000150
1180	1.1731e+02	-3.4851	-18.352819	0.000588	5.877442	0.995666	-0.000118
1181	1.1741e+02	-3.5046	-18.494119	0.000709	7.093464	1.201665	-0.000142
1182	1.1751e+02	-3.5248	-18.582936	0.000446	4.458749	0.755332	-0.000089
1183	1.1761e+02	-3.5437	-18.732310	0.000750	7.498805	1.270332	-0.000150
1184	1.1771e+02	-3.5638	-18.865535	0.000669	6.688123	1.132999	-0.000134
1185	1.1781e+02	-3.5852	-18.946278	0.000405	4.053408	0.686666	-0.000081
1186	1.1791e+02	-3.6043	-19.051244	0.000527	5.269430	0.892666	-0.000105
1187	1.1801e+02	-3.6238	-19.212729	0.000811	8.106816	1.373332	-0.000162
1188	1.1811e+02	-3.6447	-19.313657	0.000507	5.066760	0.858332	-0.000101
1189	1.1821e+02	-3.6642	-19.487254	0.000871	8.714827	1.476332	-0.000174
1190	1.1831e+02	-3.6845	-19.596257	0.000547	5.472101	0.926999	-0.000110
1191	1.1841e+02	-3.7039	-19.681037	0.000426	4.256078	0.720999	-0.000085
1192	1.1850e+02	-3.7238	-19.810225	0.000649	6.485453	1.098665	-0.000130
1193	1.1860e+02	-3.7433	-19.939413	0.000649	6.485453	1.098665	-0.000130
1194	1.1870e+02	-3.7645	-20.064565	0.000628	6.282782	1.064332	-0.000126
1195	1.1880e+02	-3.7842	-20.153382	0.000446	4.458749	0.755332	-0.000089
1196	1.1890e+02	-3.8025	-20.278533	0.000628	6.282782	1.064332	-0.000126
1197	1.1900e+02	-3.8239	-20.391573	0.000567	5.674771	0.961332	-0.000114
1198	1.1910e+02	-3.8426	-20.557095	0.000831	8.309486	1.407665	-0.000166
1199	1.1920e+02	-3.8634	-20.702432	0.000730	7.296134	1.235999	-0.000146
1200	1.1930e+02	-3.8831	-20.734729	0.000162	1.621363	0.274666	-0.000032
1201	1.1940e+02	-3.9038	-20.855843	0.000608	6.080112	1.029999	-0.000122
1202	1.1950e+02	-3.9232	-21.017329	0.000811	8.106816	1.373332	-0.000162
1203	1.1960e+02	-3.9421	-21.106146	0.000446	4.458749	0.755332	-0.000089
1204	1.1970e+02	-3.9627	-21.263594	0.000790	7.904146	1.338999	-0.000158
1205	1.1980e+02	-3.9824	-21.344337	0.000405	4.053408	0.686666	-0.000081
1206	1.1990e+02	-4.0030	-21.441228	0.000486	4.864090	0.823999	-0.000097
1207	1.2000e+02	-4.0228	-21.606750	0.000831	8.309486	1.407665	-0.000166
1208	1.2010e+02	-4.0421	-21.723827	0.000588	5.877442	0.995666	-0.000118
1209	1.2020e+02	-4.0619	-21.828793	0.000527	5.269430	0.892666	-0.000105
1210	1.2030e+02	-4.0825	-21.929721	0.000507	5.066760	0.858332	-0.000101
1211	1.2039e+02	-4.1028	-22.058910	0.000649	6.485453	1.098665	-0.000130
1212	1.2049e+02	-4.1226	-22.155801	0.000486	4.864090	0.823999	-0.000097
1213	1.2059e+02	-4.1429	-22.284989	0.000649	6.485453	1.098665	-0.000130
1214	1.2069e+02	-4.1629	-22.393992	0.000547	5.472101	0.926999	-0.000110
1215	1.2079e+02	-4.1815	-22.531255	0.000689	6.890794	1.167332	-0.000138
1216	1.2089e+02	-4.2027	-22.652369	0.000608	6.080112	1.029999	-0.000122
1217	1.2099e+02	-4.2212	-22.729074	0.000385	3.850738	0.652333	-0.000077
1218	1.2109e+02	-4.2426	-22.882485	0.000770	7.701475	1.304665	-0.000154
1219	1.2119e+02	-4.2621	-22.987451	0.000527	5.269430	0.892666	-0.000105
1220	1.2129e+02	-4.2822	-23.120676	0.000669	6.688123	1.132999	-0.000134
1221	1.2139e+02	-4.3018	-23.237753	0.000588	5.877442	0.995666	-0.000118
1222	1.2149e+02	-4.3216	-23.354830	0.000588	5.877442	0.995666	-0.000118
1223	1.2159e+02	-4.3425	-23.443647	0.000446	4.458749	0.755332	-0.000089
1224	1.2169e+02	-4.3604	-23.609170	0.000831	8.309486	1.407665	-0.000166
1225	1.2179e+02	-4.3817	-23.673764	0.000324	3.242726	0.549333	-0.000065
1226	1.2189e+02	-4.4019	-23.811027	0.000689	6.890794	1.167332	-0.000138
1227	1.2199e+02	-4.4220	-23.915992	0.000527	5.269430	0.892666	-0.000105
1228	1.2209e+02	-4.4412	-24.053255	0.000689	6.890794	1.167332	-0.000138
1229	1.2219e+02	-4.4614	-24.154183	0.000507	5.066760	0.858332	-0.000101
1230	1.2229e+02	-4.4810	-24.283371	0.000649	6.485453	1.098665	-0.000130
1231	1.2239e+02	-4.5020	-24.392374	0.000547	5.472101	0.926999	-0.000110
1232	1.2248e+02	-4.5203	-24.513488	0.000608	6.080112	1.029999	-0.000122
1233	1.2258e+02	-4.5407	-24.622491	0.000547	5.472101	0.926999	-0.000110
1234	1.2268e+02	-4.5605	-24.747642	0.000628	6.282782	1.064332	-0.000126
1235	1.2278e+02	-4.5804	-24.860682	0.000567	5.674771	0.961332	-0.000114
1236	1.2288e+02	-4.6008	-24.989870	0.000649	6.485453	1.098665	-0.000130
1237	1.2298e+02	-4.6204	-25.090799	0.000507	5.066760	0.858332	-0.000101
1238	1.2308e+02	-4.6402	-25.191727	0.000507	5.066760	0.858332	-0.000101
1239	1.2318e+02	-4.6609	-25.280544	0.000446	4.458749	0.755332	-0.000089
1240	1.2328e+02	-4.6805	-25.413769	0.000669	6.688123	1.132999	-0.000134
1241	1.2338e+02	-4.6997	-25.522772	0.000547	5.472101	0.926999	-0.000110
1242	1.2348e+02	-4.7208	-25.623701	0.000507	5.066760	0.858332	-0.000101
1243	1.2358e+02	-4.7406	-25.752889	0.000649	6.485453	1.098665	-0.000130
1244	1.2368e+02	-4.7601	-25.861892	0.000547	5.472101	0.926999	-0.000110
1245	1.2378e+02	-4.7803	-25.991080	0.000649	6.485453	1.098665	-0.000130
1246	1.2388e+02	-4.8001	-26.063748	0.000365	3.648067	0.617999	-0.000073
1247	1.2398e+02	-4.8203	-26.196974	0.000669	6.688123	1.132999	-0.000134
1248	1.2408e+02	-4.8404	-26.289828	0.000466	4.661419	0.789666	-0.000093
1249	1.2418e+02	-4.8605	-26.410942	0.000608	6.080112	1.029999	-0.000122
1250	1.2428e+02	-4.8798	-26.544167	0.000669	6.688123	1.132999	-0.000134
1251	1.2438e+02	-4.8993	-26.637022	0.000466	4.661419	0.789666	-0.000093
1252	1.2447e+02	-4.9193	-26.733913	0.000486	4.864090	0.823999	-0.000097
1253	1.2457e+02	-4.9396	-26.842916	0.000547	5.472101	0.926999	-0.000110
1254	1.2467e+02	-4.9603	-26.992290	0.000750	7.498805	1.270332	-0.000150
1255	1.2477e+02	-4.9792	-27.093218	0.000507	5.066760	0.858332	-0.000101
1256	1.2487e+02	-5.0000	-27.186072	0.000466	4.661419	0.789666	-0.000093
1257	1.2497e+02	-5.0189	-27.331409	0.000730	7.296134	1.235999	-0.000146
1258	1.2507e+02	-5.0391	-27.396003	0.000324	3.242726	0.549333	-0.000065
1259	1.2517e+02	-5.0616	-27.521154	0.000628	6.282782	1.064332	-0.000126
1260	1.2527e+02	-5.0793	-27.670528	0.000750	7.498805	1.270332	-0.000150
1261	1.2537e+02	-5.0989	-27.751271	0.000405	4.053408	0.686666	-0.000081
1262	1.2547e+02	-5.1189	-27.852199	0.000507	5.066760	0.858332	-0.000101
1263	1.2557e+02	-5.1373	-27.945054	0.000466	4.661419	0.789666	-0.000093
1264	1.2567e+02	-5.1581	-28.050019	0.000527	5.269430	0.892666	-0.000105
1265	1.2577e+02	-5.1782	-28.167096	0.000588	5.877442	0.995666	-0.000118
1266	1.2587e+02	-5.1987	-28.304359	0.000689	6.890794	1.167332	-0.000138
1267	1.2597e+02	-5.2179	-28.372990	0.000345	3.445397	0.583666	-0.000069
1268	1.2607e+02	-5.2393	-28.481993	0.000547	5.472101	0.926999	-0.000110
1269	1.2617e+02	-5.2585	-28.635404	0.000770	7.701475	1.304665	-0.000154
1270	1.2627e+02	-5.2783	-28.748444	0.000567	5.674771	0.961332	-0.000114
1271	1.2636e+02	-5.2972	-28.869558	0.000608	6.080112	1.029999	-0.000122
1272	1.2646e+02	-5.3186	-28.966449	0.000486	4.864090	0.823999	-0.000097
1273	1.2656e+02	-5.3384	-29.091600	0.000628	6.282782	1.064332	-0.000126
1274	1.2666e+02	-5.3580	-29.164269	0.000365	3.648067	0.617999	-0.000073
1275	1.2676e+02	-5.3784	-29.269234	0.000527	5.269430	0.892666	-0.000105
1276	1.2686e+02	-5.3975	-29.442831	0.000871	8.714827	1.476332	-0.000174
1277	1.2696e+02	-5.4175	-29.527611	0.000426	4.256078	0.720999	-0.000085
1278	1.2706e+02	-5.4382	-29.628539	0.000507	5.066760	0.858332	-0.000101
1279	1.2716e+02	-5.4575	-29.757728	0.000649	6.485453	1.098665	-0.000130
1280	1.2726e+02	-5.4776	-29.878842	0.000608	6.080112	1.029999	-0.000122
1281	1.2736e+02	-5.4971	-30.012067	0.000669	6.688123	1.132999	-0.000134
1282	1.2746e+02	-5.5176	-30.092810	0.000405	4.053408	0.686666	-0.000081
1283	1.2756e+02	-5.5377	-30.165478	0.000365	3.648067	0.617999	-0.000073
1284	1.2766e+02	-5.5579	-30.286592	0.000608	6.080112	1.029999	-0.000122
1285	1.2776e+02	-5.5777	-30.395595	0.000547	5.472101	0.926999	-0.000110
1286	1.2786e+02	-5.5969	-30.544969	0.000750	7.498805	1.270332	-0.000150
1287	1.2796e+02	-5.6171	-30.645897	0.000507	5.066760	0.858332	-0.000101
1288	1.2806e+02	-5.6372	-30.750863	0.000527	5.269430	0.892666	-0.000105
1289	1.2816e+02	-5.6564	-30.827568	0.000385	3.850738	0.652333	-0.000077
1290	1.2826e+02	-5.6769	-30.964831	0.000689	6.890794	1.167332	-0.000138
1291	1.2835e+02	-5.6958	-31.094019	0.000649	6.485453	1.098665	-0.000130
1292	1.2845e+02	-5.7178	-31.186874	0.000466	4.661419	0.789666	-0.000093
1293	1.2855e+02	-5.7365	-31.267616	0.000405	4.053408	0.686666	-0.000081
1294	1.2865e+02	-5.7562	-31.416990	0.000750	7.498805	1.270332	-0.000150
1295	1.2875e+02	-5.7776	-31.562327	0.000730	7.296134	1.235999	-0.000146
1296	1.2885e+02	-5.7965	-31.618847	0.000284	2.837386	0.480666	-0.000057
1297	1.2895e+02	-5.8163	-31.735924	0.000588	5.877442	0.995666	-0.000118
1298	1.2905e+02	-5.8362	-31.820704	0.000426	4.256078	0.720999	-0.000085
1299	1.2915e+02	-5.8563	-31.885298	0.000324	3.242726	0.549333	-0.000065
1300	1.2925e+02	-5.8764	-32.042746	0.000790	7.904146	1.338999	-0.000158
1301	1.2935e+02	-5.8954	-32.159823	0.000588	5.877442	0.995666	-0.000118
1302	1.2945e+02	-5.9161	-32.260752	0.000507	5.066760	0.858332	-0.000101
1303	1.2955e+02	-5.9363	-32.369754	0.000547	5.472101	0.926999	-0.000110
1304	1.2965e+02	-5.9563	-32.486831	0.000588	5.877442	0.995666	-0.000118
1305	1.2975e+02	-5.9760	-32.571611	0.000426	4.256078	0.720999	-0.000085
1306	1.2985e+02	-5.9964	-32.712911	0.000709	7.093464	1.201665	-0.000142
1307	1.2995e+02	-6.0156	-32.789616	0.000385	3.850738	0.652333	-0.000077
1308	1.3005e+02	-6.0358	-32.898619	0.000547	5.472101	0.926999	-0.000110
1309	1.3015e+02	-6.0559	-32.971288	0.000365	3.648067	0.617999	-0.000073
1310	1.3025e+02	-6.0754	-33.104513	0.000669	6.688123	1.132999	-0.000134
1311	1.3034e+02	-6.0956	-33.221590	0.000588	5.877442	0.995666	-0.000118
1312	1.3044e+02	-6.1148	-33.326556	0.000527	5.269430	0.892666	-0.000105
1313	1.3054e+02	-6.1362	-33.415373	0.000446	4.458749	0.755332	-0.000089
1314	1.3064e+02	-6.1557	-33.524375	0.000547	5.472101	0.926999	-0.000110
1315	1.3074e+02	-6.1755	-33.613192	0.000446	4.458749	0.755332	-0.000089
1316	1.3084e+02	-6.1951	-33.750455	0.000689	6.890794	1.167332	-0.000138
1317	1.3094e+02	-6.2152	-33.831197	0.000405	4.053408	0.686666	-0.000081
1318	1.3104e+02	-6.2341	-33.944237	0.000567	5.674771	0.961332	-0.000114
1319	1.3114e+02	-6.2549	-34.081500	0.000689	6.890794	1.167332	-0.000138
1320	1.3124e+02	-6.2744	-34.154168	0.000365	3.648067	0.617999	-0.000073
1321	1.3134e+02	-6.2952	-34.255097	0.000507	5.066760	0.858332	-0.000101
1322	1.3144e+02	-6.3147	-34.360062	0.000527	5.269430	0.892666	-0.000105
1323	1.3154e+02	-6.3342	-34.509436	0.000750	7.498805	1.270332	-0.000150
1324	1.3164e+02	-6.3544	-34.614402	0.000527	5.269430	0.892666	-0.000105
1325	1.3174e+02	-6.3739	-34.658810	0.000223	2.229374	0.377666	-0.000045
1326	1.3184e+02	-6.3947	-34.808184	0.000750	7.498805	1.270332	-0.000150
1327	1.3194e+02	-6.4145	-34.892964	0.000426	4.256078	0.720999	-0.000085
1328	1.3204e+02	-6.4343	-34.965633	0.000365	3.648067	0.617999	-0.000073
1329	1.3214e+02	-6.4545	-35.106932	0.000709	7.093464	1.201665	-0.000142
1330	1.3224e+02	-6.4740	-35.199786	0.000466	4.661419	0.789666	-0.000093
1331	1.3234e+02	-6.4948	-35.333012	0.000669	6.688123	1.132999	-0.000134
1332	1.3243e+02	-6.5136	-35.389532	0.000284	2.837386	0.480666	-0.000057
1333	1.3253e+02	-6.5338	-35.563129	0.000871	8.714827	1.476332	-0.000174
1334	1.3263e+02	-6.5532	-35.664057	0.000507	5.066760	0.858332	-0.000101
1335	1.3273e+02	-6.5741	-35.773060	0.000547	5.472101	0.926999	-0.000110
1336	1.3283e+02	-6.5936	-35.845728	0.000365	3.648067	0.617999	-0.000073
1337	1.3293e+02	-6.6125	-35.922434	0.000385	3.850738	0.652333	-0.000077
1338	1.3303e+02	-6.6330	-36.015288	0.000466	4.661419	0.789666	-0.000093
1339	1.3313e+02	-6.6522	-36.168699	0.000770	7.701475	1.304665	-0.000154
1340	1.3323e+02	-6.6736	-36.265590	0.000486	4.864090	0.823999	-0.000097
1341	1.3333e+02	-6.6925	-36.354407	0.000446	4.458749	0.755332	-0.000089
1342	1.3343e+02	-6.7130	-36.467447	0.000567	5.674771	0.961332	-0.000114
1343	1.3353e+02	-6.7334	-36.596635	0.000649	6.485453	1.098665	-0.000130
1344	1.3363e+02	-6.7534	-36.665267	0.000345	3.445397	0.583666	-0.000069
1345	1.3373e+02	-6.7731	-36.766195	0.000507	5.066760	0.858332	-0.000101
1346	1.3383e+02	-6.7926	-36.871161	0.000527	5.269430	0.892666	-0.000105
1347	1.3393e+02	-6.8132	-36.943829	0.000365	3.648067	0.617999	-0.000073
1348	1.3403e+02	-6.8323	-37.048795	0.000527	5.269430	0.892666	-0.000105
1349	1.3413e+02	-6.8524	-37.165872	0.000588	5.877442	0.995666	-0.000118
1350	1.3423e+02	-6.8719	-37.278911	0.000567	5.674771	0.961332	-0.000114
1351	1.3432e+02	-6.8927	-37.400025	0.000608	6.080112	1.029999	-0.000122
1352	1.3442e+02	-6.9116	-37.468657	0.000345	3.445397	0.583666	-0.000069
1353	1.3452e+02	-6.9327	-37.605919	0.000689	6.890794	1.167332	-0.000138
1354	1.3462e+02	-6.9519	-37.702811	0.000486	4.864090	0.823999	-0.000097
1355	1.3472e+02	-6.9720	-37.799702	0.000486	4.864090	0.823999	-0.000097
1356	1.3482e+02	-6.9916	-37.888519	0.000446	4.458749	0.755332	-0.000089
1357	1.3492e+02	-7.0123	-37.985410	0.000486	4.864090	0.823999	-0.000097
1358	1.3502e+02	-7.0319	-38.078264	0.000466	4.661419	0.789666	-0.000093
1359	1.3512e+02	-7.0520	-38.179193	0.000507	5.066760	0.858332	-0.000101
1360	1.3522e+02	-7.0718	-38.304344	0.000628	6.282782	1.064332	-0.000126
1361	1.3532e+02	-7.0892	-38.393161	0.000446	4.458749	0.755332	-0.000089
1362	1.3542e+02	-7.1130	-38.473904	0.000405	4.053408	0.686666	-0.000081
1363	1.3552e+02	-7.1313	-38.623278	0.000750	7.498805	1.270332	-0.000150
1364	1.3562e+02	-7.1515	-38.695946	0.000365	3.648067	0.617999	-0.000073
1365	1.3572e+02	-7.1716	-38.800912	0.000527	5.269430	0.892666	-0.000105
1366	1.3582e+02	-7.1921	-38.881654	0.000405	4.053408	0.686666	-0.000081
1367	1.3592e+02	-7.2116	-38.982583	0.000507	5.066760	0.858332	-0.000101
1368	1.3602e+02	-7.2311	-39.111771	0.000649	6.485453	1.098665	-0.000130
1369	1.3612e+02	-7.2510	-39.176365	0.000324	3.242726	0.549333	-0.000065
1370	1.3622e+02	-7.2711	-39.309591	0.000669	6.688123	1.132999	-0.000134
1371	1.3631e+02	-7.2925	-39.406482	0.000486	4.864090	0.823999	-0.000097
1372	1.3641e+02	-7.3114	-39.523559	0.000588	5.877442	0.995666	-0.000118
1373	1.3651e+02	-7.3322	-39.559893	0.000182	1.824034	0.309000	-0.000037
1374	1.3661e+02	-7.3511	-39.729453	0.000851	8.512157	1.441998	-0.000170
1375	1.3671e+02	-7.3706	-39.814233	0.000426	4.256078	0.720999	-0.000085
1376	1.3681e+02	-7.3901	-39.927272	0.000567	5.674771	0.961332	-0.000114
1377	1.3691e+02	-7.4109	-39.975718	0.000243	2.432045	0.412000	-0.000049
1378	1.3701e+02	-7.4310	-40.137204	0.000811	8.106816	1.373332	-0.000162
1379	1.3711e+02	-7.4509	-40.213909	0.000385	3.850738	0.652333	-0.000077
1380	1.3721e+02	-7.4701	-40.302726	0.000446	4.458749	0.755332	-0.000089
1381	1.3731e+02	-7.4905	-40.439989	0.000689	6.890794	1.167332	-0.000138
1382	1.3741e+02	-7.5104	-40.520731	0.000405	4.053408	0.686666	-0.000081
1383	1.3751e+02	-7.5305	-40.625697	0.000527	5.269430	0.892666	-0.000105
1384	1.3761e+02	-7.5500	-40.722588	0.000486	4.864090	0.823999	-0.000097
1385	1.3771e+02	-7.5702	-40.839665	0.000588	5.877442	0.995666	-0.000118
1386	1.3781e+02	-7.5891	-40.928482	0.000446	4.458749	0.755332	-0.000089
1387	1.3791e+02	-7.6089	-41.029411	0.000507	5.066760	0.858332	-0.000101
1388	1.3801e+02	-7.6288	-41.154562	0.000628	6.282782	1.064332	-0.000126
1389	1.3811e+02	-7.6501	-41.247416	0.000466	4.661419	0.789666	-0.000093
1390	1.3821e+02	-7.6685	-41.344307	0.000486	4.864090	0.823999	-0.000097
1391	1.3831e+02	-7.6886	-41.441198	0.000486	4.864090	0.823999	-0.000097
1392	1.3840e+02	-7.7094	-41.558275	0.000588	5.877442	0.995666	-0.000118
1393	1.3850e+02	-7.7295	-41.651129	0.000466	4.661419	0.789666	-0.000093
1394	1.3860e+02	-7.7502	-41.784355	0.000669	6.688123	1.132999	-0.000134
1395	1.3870e+02	-7.7682	-41.869135	0.000426	4.256078	0.720999	-0.000085
1396	1.3880e+02	-7.7893	-41.986212	0.000588	5.877442	0.995666	-0.000118
1397	1.3890e+02	-7.8088	-42.070992	0.000426	4.256078	0.720999	-0.000085
1398	1.3900e+02	-7.8282	-42.188068	0.000588	5.877442	0.995666	-0.000118
1399	1.3910e+02	-7.8479	-42.329368	0.000709	7.093464	1.201665	-0.000142
1400	1.3920e+02	-7.8690	-42.398000	0.000345	3.445397	0.583666	-0.000069
1401	1.3930e+02	-7.8882	-42.498928	0.000507	5.066760	0.858332	-0.000101
1402	1.3940e+02	-7.9089	-42.632153	0.000669	6.688123	1.132999	-0.000134
1403	1.3950e+02	-7.9285	-42.745193	0.000567	5.674771	0.961332	-0.000114
1404	1.3960e+02	-7.9486	-42.842084	0.000486	4.864090	0.823999	-0.000097
1405	1.3970e+02	-7.9684	-42.951087	0.000547	5.472101	0.926999	-0.000110
1406	1.3980e+02	-7.9877	-43.060090	0.000547	5.472101	0.926999	-0.000110
1407	1.3990e+02	-8.0078	-43.161018	0.000507	5.066760	0.858332	-0.000101
1408	1.4000e+02	-8.0283	-43.225612	0.000324	3.242726	0.549333	-0.000065
1409	1.4010e+02	-8.0484	-43.358838	0.000669	6.688123	1.132999	-0.000134
1410	1.4020e+02	-8.0676	-43.496100	0.000689	6.890794	1.167332	-0.000138
1411	1.4029e+02	-8.0872	-43.637400	0.000709	7.093464	1.201665	-0.000142
1412	1.4039e+02	-8.1079	-43.730254	0.000466	4.661419	0.789666	-0.000093
1413	1.4049e+02	-8.1274	-43.798886	0.000345	3.445397	0.583666	-0.000069
1414	1.4059e+02	-8.1476	-43.903851	0.000527	5.269430	0.892666	-0.000105
1415	1.4069e+02	-8.1683	-44.000742	0.000486	4.864090	0.823999	-0.000097
1416	1.4079e+02	-8.1879	-44.150116	0.000750	7.498805	1.270332	-0.000150
1417	1.4089e+02	-8.2071	-44.230859	0.000405	4.053408	0.686666	-0.000081
1418	1.4099e+02	-8.2266	-44.327750	0.000486	4.864090	0.823999	-0.000097
1419	1.4109e+02	-8.2477	-44.469050	0.000709	7.093464	1.201665	-0.000142
1420	1.4119e+02	-8.2666	-44.582090	0.000567	5.674771	0.961332	-0.000114
1421	1.4129e+02	-8.2874	-44.658796	0.000385	3.850738	0.652333	-0.000077
1422	1.4139e+02	-8.3057	-44.832392	0.000871	8.714827	1.476332	-0.000174
1423	1.4149e+02	-8.3258	-44.917172	0.000426	4.256078	0.720999	-0.000085
1424	1.4159e+02	-8.3466	-45.018101	0.000507	5.066760	0.858332	-0.000101
1425	1.4169e+02	-8.3673	-45.119029	0.000507	5.066760	0.858332	-0.000101
1426	1.4179e+02	-8.3862	-45.248217	0.000649	6.485453	1.098665	-0.000130
1427	1.4189e+02	-8.4070	-45.337034	0.000446	4.458749	0.755332	-0.000089
1428	1.4199e+02	-8.4265	-45.498520	0.000811	8.106816	1.373332	-0.000162
1429	1.4209e+02	-8.4460	-45.623671	0.000628	6.282782	1.064332	-0.000126
1430	1.4219e+02	-8.4662	-45.728637	0.000527	5.269430	0.892666	-0.000105
1431	1.4228e+02	-8.4863	-45.873973	0.000730	7.296134	1.235999	-0.000146
1432	1.4238e+02	-8.5059	-45.934530	0.000304	3.040056	0.514999	-0.000061
1433	1.4248e+02	-8.5266	-46.096016	0.000811	8.106816	1.373332	-0.000162
1434	1.4258e+02	-8.5461	-46.156573	0.000304	3.040056	0.514999	-0.000061
1435	1.4268e+02	-8.5657	-46.301910	0.000730	7.296134	1.235999	-0.000146
1436	1.4278e+02	-8.5852	-46.443210	0.000709	7.093464	1.201665	-0.000142
1437	1.4288e+02	-8.6060	-46.544138	0.000507	5.066760	0.858332	-0.000101
1438	1.4298e+02	-8.6261	-46.653141	0.000547	5.472101	0.926999	-0.000110
1439	1.4308e+02	-8.6450	-46.822700	0.000851	8.512157	1.441998	-0.000170
1440	1.4318e+02	-8.6652	-46.903443	0.000405	4.053408	0.686666	-0.000081
1441	1.4328e+02	-8.6859	-47.028594	0.000628	6.282782	1.064332	-0.000126
1442	1.4338e+02	-8.7054	-47.161820	0.000669	6.688123	1.132999	-0.000134
1443	1.4348e+02	-8.7250	-47.274859	0.000567	5.674771	0.961332	-0.000114
1444	1.4358e+02	-8.7439	-47.416159	0.000709	7.093464	1.201665	-0.000142
1445	1.4368e+02	-8.7656	-47.537273	0.000608	6.080112	1.029999	-0.000122
1446	1.4378e+02	-8.7848	-47.634165	0.000486	4.864090	0.823999	-0.000097
1447	1.4388e+02	-8.8055	-47.767390	0.000669	6.688123	1.132999	-0.000134
1448	1.4398e+02	-8.8239	-47.912727	0.000730	7.296134	1.235999	-0.000146
1449	1.4408e+02	-8.8452	-48.033841	0.000608	6.080112	1.029999	-0.000122
1450	1.4418e+02	-8.8647	-48.142844	0.000547	5.472101	0.926999	-0.000110
1451	1.4428e+02	-8.8837	-48.272032	0.000649	6.485453	1.098665	-0.000130
1452	1.4437e+02	-8.9050	-48.409295	0.000689	6.890794	1.167332	-0.000138
1453	1.4447e+02	-8.9240	-48.554632	0.000730	7.296134	1.235999	-0.000146
1454	1.4457e+02	-8.9447	-48.671708	0.000588	5.877442	0.995666	-0.000118
1455	1.4467e+02	-8.9636	-48.788785	0.000588	5.877442	0.995666	-0.000118
1456	1.4477e+02	-8.9838	-48.926048	0.000689	6.890794	1.167332	-0.000138
1457	1.4487e+02	-9.0045	-49.035051	0.000547	5.472101	0.926999	-0.000110
1458	1.4497e+02	-9.0234	-49.188462	0.000770	7.701475	1.304665	-0.000154
1459	1.4507e+02	-9.0436	-49.325724	0.000689	6.890794	1.167332	-0.000138
1460	1.4517e+02	-9.0637	-49.446839	0.000608	6.080112	1.029999	-0.000122
1461	1.4527e+02	-9.0845	-49.604287	0.000790	7.904146	1.338999	-0.000158
1462	1.4537e+02	-9.1034	-49.697141	0.000466	4.661419	0.789666	-0.000093
1463	1.4547e+02	-9.1241	-49.842478	0.000730	7.296134	1.235999	-0.000146
1464	1.4557e+02	-9.1437	-49.999926	0.000790	7.904146	1.338999	-0.000158
1465	1.4567e+02	-9.1632	-50.108929	0.000547	5.472101	0.926999	-0.000110
1466	1.4577e+02	-9.1821	-50.226006	0.000588	5.877442	0.995666	-0.000118
1467	1.4587e+02	-9.2035	-50.379417	0.000770	7.701475	1.304665	-0.000154
1468	1.4597e+02	-9.2230	-50.500531	0.000608	6.080112	1.029999	-0.000122
1469	1.4607e+02	-9.2426	-50.641831	0.000709	7.093464	1.201665	-0.000142
1470	1.4617e+02	-9.2633	-50.738722	0.000486	4.864090	0.823999	-0.000097
1471	1.4626e+02	-9.2834	-50.916356	0.000892	8.917498	1.510665	-0.000179
1472	1.4636e+02	-9.3018	-51.053619	0.000689	6.890794	1.167332	-0.000138
1473	1.4646e+02	-9.3225	-51.190881	0.000689	6.890794	1.167332	-0.000138
1474	1.4656e+02	-9.3420	-51.340255	0.000750	7.498805	1.270332	-0.000150
1475	1.4666e+02	-9.3628	-51.473481	0.000669	6.688123	1.132999	-0.000134
1476	1.4676e+02	-9.3823	-51.622855	0.000750	7.498805	1.270332	-0.000150
1477	1.4686e+02	-9.4029	-51.723783	0.000507	5.066760	0.858332	-0.000101
1478	1.4696e+02	-9.4226	-51.881231	0.000790	7.904146	1.338999	-0.000158
1479	1.4706e+02	-9.4427	-52.026568	0.000730	7.296134	1.235999	-0.000146
1480	1.4716e+02	-9.4627	-52.192091	0.000831	8.309486	1.407665	-0.000166
1481	1.4726e+02	-9.4824	-52.288982	0.000486	4.864090	0.823999	-0.000097
1482	1.4736e+02	-9.5020	-52.434319	0.000730	7.296134	1.235999	-0.000146
1483	1.4746e+02	-9.5221	-52.620027	0.000932	9.322838	1.579332	-0.000187
1484	1.4756e+02	-9.5422	-52.741141	0.000608	6.080112	1.029999	-0.000122
1485	1.4766e+02	-9.5612	-52.866292	0.000628	6.282782	1.064332	-0.000126
1486	1.4776e+02	-9.5813	-53.031815	0.000831	8.309486	1.407665	-0.000166
1487	1.4786e+02	-9.6008	-53.197338	0.000831	8.309486	1.407665	-0.000166
1488	1.4796e+02	-9.6216	-53.362860	0.000831	8.309486	1.407665	-0.000166
1489	1.4806e+02	-9.6417	-53.492049	0.000649	6.485453	1.098665	-0.000130
1490	1.4816e+02	-9.6613	-53.625274	0.000669	6.688123	1.132999	-0.000134
1491	1.4825e+02	-9.6823	-53.819057	0.000973	9.728179	1.647998	-0.000195
1492	1.4835e+02	-9.7009	-53.964393	0.000730	7.296134	1.235999	-0.000146
1493	1.4845e+02	-9.7211	-54.109730	0.000730	7.296134	1.235999	-0.000146
1494	1.4855e+02	-9.7409	-54.251030	0.000709	7.093464	1.201665	-0.000142
1495	1.4865e+02	-9.7614	-54.392330	0.000709	7.093464	1.201665	-0.000142
1496	1.4875e+02	-9.7809	-54.533630	0.000709	7.093464	1.201665	-0.000142
1497	1.4885e+02	-9.8010	-54.719338	0.000932	9.322838	1.579332	-0.000187
1498	1.4895e+02	-9.8212	-54.832378	0.000567	5.674771	0.961332	-0.000114
1499	1.4905e+02	-9.8407	-55.005974	0.000871	8.714827	1.476332	-0.000174
1500	1.4915e+02	-9.8602	-55.191683	0.000932	9.322838	1.579332	-0.000187
1501	1.4925e+02	-9.8804	-55.357205	0.000831	8.309486	1.407665	-0.000166
1502	1.4935e+02	-9.9005	-55.518691	0.000811	8.106816	1.373332	-0.000162
1503	1.4945e+02	-9.9207	-55.680176	0.000811	8.106816	1.373332	-0.000162
1504	1.4955e+02	-9.9408	-55.837624	0.000790	7.904146	1.338999	-0.000158
1505	1.4965e+02	-9.9609	-56.015258	0.000892	8.917498	1.510665	-0.000179
1506	1.4975e+02	-9.9799	-56.164632	0.000750	7.498805	1.270332	-0.000150
1507	1.4985e+02	-10.0000	-56.318044	0.000770	7.701475	1.304665	-0.000154
1508	1.4995e+02	-9.9808	-56.350341	-0.000162	-1.621363	-0.274666	-0.000032
1509	1.5005e+02	-9.9609	-56.406861	-0.000284	-2.837386	-0.480666	-0.000057
1510	1.5015e+02	-9.9396	-56.402823	0.000020	0.202670	0.034333	0.000004
1511	1.5025e+02	-9.9194	-56.406861	-0.000020	-0.202670	-0.034333	-0.000004
1512	1.5034e+02	-9.9005	-56.451269	-0.000223	-2.229374	-0.377666	-0.000045
1513	1.5044e+02	-9.8807	-56.394749	0.000284	2.837386	0.480666	0.000057
1514	1.5054e+02	-9.8602	-56.374563	0.000101	1.013352	0.171666	0.000020
1515	1.5064e+02	-9.8401	-56.390712	-0.000081	-0.810682	-0.137333	-0.000016
1516	1.5074e+02	-9.8212	-56.402823	-0.000061	-0.608011	-0.103000	-0.000012
1517	1.5084e+02	-9.8016	-56.370526	0.000162	1.621363	0.274666	0.000032
1518	1.5094e+02	-9.7806	-56.374563	-0.000020	-0.202670	-0.034333	-0.000004
1519	1.5104e+02	-9.7607	-56.390712	-0.000081	-0.810682	-0.137333	-0.000016
1520	1.5114e+02	-9.7406	-56.386675	0.000020	0.202670	0.034333	0.000004
1521	1.5124e+02	-9.7211	-56.374563	0.000061	0.608011	0.103000	0.000012
1522	1.5134e+02	-9.7015	-56.362452	0.000061	0.608011	0.103000	0.000012
1523	1.5144e+02	-9.6814	-56.309969	0.000263	2.634715	0.446333	0.000053
1524	1.5154e+02	-9.6616	-56.326118	-0.000081	-0.810682	-0.137333	-0.000016
1525	1.5164e+02	-9.6417	-56.253449	0.000365	3.648067	0.617999	0.000073
1526	1.5174e+02	-9.6210	-56.253449	0.000000	0.000000	0.000000	0.000000
1527	1.5184e+02	-9.6021	-56.225189	0.000142	1.418693	0.240333	0.000028
1528	1.5194e+02	-9.5816	-56.217115	0.000041	0.405341	0.068667	0.000008
1529	1.5204e+02	-9.5618	-56.160595	0.000284	2.837386	0.480666	0.000057
1530	1.5214e+02	-9.5422	-56.124261	0.000182	1.824034	0.309000	0.000037
1531	1.5224e+02	-9.5221	-56.140410	-0.000081	-0.810682	-0.137333	-0.000016
1532	1.5233e+02	-9.5023	-56.091964	0.000243	2.432045	0.412000	0.000049
1533	1.5243e+02	-9.4824	-56.059667	0.000162	1.621363	0.274666	0.000032
1534	1.5253e+02	-9.4623	-56.031407	0.000142	1.418693	0.240333	0.000028
1535	1.5263e+02	-9.4421	-55.986998	0.000223	2.229374	0.377666	0.000045
1536	1.5273e+02	-9.4220	-55.950664	0.000182	1.824034	0.309000	0.000037
1537	1.5283e+02	-9.4025	-55.894144	0.000284	2.837386	0.480666	0.000057
1538	1.5293e+02	-9.3829	-55.865884	0.000142	1.418693	0.240333	0.000028
1539	1.5303e+02	-9.3631	-55.849736	0.000081	0.810682	0.137333	0.000016
1540	1.5313e+02	-9.3433	-55.793216	0.000284	2.837386	0.480666	0.000057
1541	1.5323e+02	-9.3219	-55.728622	0.000324	3.242726	0.549333	0.000065
1542	1.5333e+02	-9.3030	-55.680176	0.000243	2.432045	0.412000	0.000049
1543	1.5343e+02	-9.2828	-55.655953	0.000122	1.216022	0.206000	0.000024
1544	1.5353e+02	-9.2636	-55.635768	0.000101	1.013352	0.171666	0.000020
1545	1.5363e+02	-9.2432	-55.530802	0.000527	5.269430	0.892666	0.000105
1546	1.5373e+02	-9.2227	-55.555025	-0.000122	-1.216022	-0.206000	-0.000024
1547	1.5383e+02	-9.2029	-55.482356	0.000365	3.648067	0.617999	0.000073
1548	1.5393e+02	-9.1833	-55.450059	0.000162	1.621363	0.274666	0.000032
1549	1.5403e+02	-9.1638	-55.381428	0.000345	3.445397	0.583666	0.000069
1550	1.5413e+02	-9.1425	-55.369317	0.000061	0.608011	0.103000	0.000012
1551	1.5422e+02	-9.1235	-55.304722	0.000324	3.242726	0.549333	0.000065
1552	1.5432e+02	-9.1040	-55.260314	0.000223	2.229374	0.377666	0.000045
1553	1.5442e+02	-9.0839	-55.203794	0.000284	2.837386	0.480666	0.000057
1554	1.5452e+02	-9.0631	-55.135163	0.000345	3.445397	0.583666	0.000069
1555	1.5462e+02	-9.0436	-55.131126	0.000020	0.202670	0.034333	0.000004
1556	1.5472e+02	-9.0244	-55.062494	0.000345	3.445397	0.583666	0.000069
1557	1.5482e+02	-9.0042	-55.001937	0.000304	3.040056	0.514999	0.000061
1558	1.5492e+02	-8.9841	-54.937343	0.000324	3.242726	0.549333	0.000065
1559	1.5502e+02	-8.9648	-54.876786	0.000304	3.040056	0.514999	0.000061
1560	1.5512e+02	-8.9435	-54.872749	0.000020	0.202670	0.034333	0.000004
1561	1.5522e+02	-8.9249	-54.812192	0.000304	3.040056	0.514999	0.000061
1562	1.5532e+02	-8.9056	-54.787969	0.000122	1.216022	0.206000	0.000024
1563	1.5542e+02	-8.8831	-54.727412	0.000304	3.040056	0.514999	0.000061
1564	1.5552e+02	-8.8641	-54.646669	0.000405	4.053408	0.686666	0.000081
1565	1.5562e+02	-8.8446	-54.582075	0.000324	3.242726	0.549333	0.000065
1566	1.5572e+02	-8.8254	-54.553815	0.000142	1.418693	0.240333	0.000028
1567	1.5582e+02	-8.8055	-54.501332	0.000263	2.634715	0.446333	0.000053
1568	1.5592e+02	-8.7842	-54.424627	0.000385	3.850738	0.652333	0.000077
1569	1.5602e+02	-8.7646	-54.376181	0.000243	2.432045	0.412000	0.000049
1570	1.5612e+02	-8.7445	-54.327736	0.000243	2.432045	0.412000	0.000049
1571	1.5622e+02	-8.7260	-54.279290	0.000243	2.432045	0.412000	0.000049
1572	1.5631e+02	-8.7051	-54.242956	0.000182	1.824034	0.309000	0.000037
1573	1.5641e+02	-8.6859	-54.150102	0.000466	4.661419	0.789666	0.000093
1574	1.5651e+02	-8.6664	-54.117805	0.000162	1.621363	0.274666	0.000032
1575	1.5661e+02	-8.6456	-54.049173	0.000345	3.445397	0.583666	0.000069
1576	1.5671e+02	-8.6255	-53.960356	0.000446	4.458749	0.755332	0.000089
1577	1.5681e+02	-8.6060	-53.932096	0.000142	1.418693	0.240333	0.000028
1578	1.5691e+02	-8.5846	-53.819057	0.000567	5.674771	0.961332	0.000114
1579	1.5701e+02	-8.5657	-53.815019	0.000020	0.202670	0.034333	0.000004
1580	1.5711e+02	-8.5471	-53.718128	0.000486	4.864090	0.823999	0.000097
1581	1.5721e+02	-8.5266	-53.669683	0.000243	2.432045	0.412000	0.000049
1582	1.5731e+02	-8.5056	-53.605088	0.000324	3.242726	0.549333	0.000065
1583	1.5741e+02	-8.4857	-53.516271	0.000446	4.458749	0.755332	0.000089
1584	1.5751e+02	-8.4662	-53.479937	0.000182	1.824034	0.309000	0.000037
1585	1.5761e+02	-8.4436	-53.419380	0.000304	3.040056	0.514999	0.000061
1586	1.5771e+02	-8.4259	-53.346712	0.000365	3.648067	0.617999	0.000073
1587	1.5781e+02	-8.4076	-53.326526	0.000101	1.013352	0.171666	0.000020
1588	1.5791e+02	-8.3868	-53.217523	0.000547	5.472101	0.926999	0.000110
1589	1.5801e+02	-8.3661	-53.201375	0.000081	0.810682	0.137333	0.000016
1590	1.5811e+02	-8.3459	-53.144855	0.000284	2.837386	0.480666	0.000057
1591	1.5821e+02	-8.3270	-53.003555	0.000709	7.093464	1.201665	0.000142
1592	1.5830e+02	-8.3063	-52.983369	0.000101	1.013352	0.171666	0.000020
1593	1.5840e+02	-8.2867	-52.902627	0.000405	4.053408	0.686666	0.000081
1594	1.5850e+02	-8.2669	-52.870330	0.000162	1.621363	0.274666	0.000032
1595	1.5860e+02	-8.2465	-52.813810	0.000284	2.837386	0.480666	0.000057
1596	1.5870e+02	-8.2275	-52.741141	0.000365	3.648067	0.617999	0.000073
1597	1.5880e+02	-8.2068	-52.640213	0.000507	5.066760	0.858332	0.000101
1598	1.5890e+02	-8.1870	-52.567544	0.000365	3.648067	0.617999	0.000073
1599	1.5900e+02	-8.1677	-52.595804	-0.000142	-1.418693	-0.240333	-0.000028
1600	1.5910e+02	-8.1476	-52.502950	0.000466	4.661419	0.789666	0.000093
1601	1.5920e+02	-8.1274	-52.414133	0.000446	4.458749	0.755332	0.000089
1602	1.5930e+02	-8.1076	-52.361651	0.000263	2.634715	0.446333	0.000053
1603	1.5940e+02	-8.0872	-52.309168	0.000263	2.634715	0.446333	0.000053
1604	1.5950e+02	-8.0676	-52.208239	0.000507	5.066760	0.858332	0.000101
1605	1.5960e+02	-8.0478	-52.175942	0.000162	1.621363	0.274666	0.000032
1606	1.5970e+02	-8.0273	-52.042717	0.000669	6.688123	1.132999	0.000134
1607	1.5980e+02	-8.0084	-52.006383	0.000182	1.824034	0.309000	0.000037
1608	1.5990e+02	-7.9871	-51.957937	0.000243	2.432045	0.412000	0.000049
1609	1.6000e+02	-7.9669	-51.901417	0.000284	2.837386	0.480666	0.000057
1610	1.6010e+02	-7.9480	-51.828749	0.000365	3.648067	0.617999	0.000073
1611	1.6019e+02	-7.9279	-51.727820	0.000507	5.066760	0.858332	0.000101
1612	1.6029e+02	-7.9083	-51.715709	0.000061	0.608011	0.103000	0.000012
1613	1.6039e+02	-7.8879	-51.643040	0.000365	3.648067	0.617999	0.000073
1614	1.6049e+02	-7.8687	-51.590558	0.000263	2.634715	0.446333	0.000053
1615	1.6059e+02	-7.8479	-51.489629	0.000507	5.066760	0.858332	0.000101
1616	1.6069e+02	-7.8290	-51.449258	0.000203	2.026704	0.343333	0.000041
1617	1.6079e+02	-7.8104	-51.356404	0.000466	4.661419	0.789666	0.000093
1618	1.6089e+02	-7.7893	-51.320070	0.000182	1.824034	0.309000	0.000037
1619	1.6099e+02	-7.7689	-51.207030	0.000567	5.674771	0.961332	0.000114
1620	1.6109e+02	-7.7490	-51.194918	0.000061	0.608011	0.103000	0.000012
1621	1.6119e+02	-7.7295	-51.130324	0.000324	3.242726	0.549333	0.000065
1622	1.6129e+02	-7.7087	-51.065730	0.000324	3.242726	0.549333	0.000065
1623	1.6139e+02	-7.6889	-50.940579	0.000628	6.282782	1.064332	0.000126
1624	1.6149e+02	-7.6691	-50.904245	0.000182	1.824034	0.309000	0.000037
1625	1.6159e+02	-7.6489	-50.787168	0.000588	5.877442	0.995666	0.000118
1626	1.6169e+02	-7.6294	-50.779093	0.000041	0.405341	0.068667	0.000008
1627	1.6179e+02	-7.6086	-50.726611	0.000263	2.634715	0.446333	0.000053
1628	1.6189e+02	-7.5891	-50.609534	0.000588	5.877442	0.995666	0.000118
1629	1.6199e+02	-7.5702	-50.581274	0.000142	1.418693	0.240333	0.000028
1630	1.6209e+02	-7.5494	-50.452085	0.000649	6.485453	1.098665	0.000130
1631	1.6219e+02	-7.5305	-50.476308	-0.000122	-1.216022	-0.206000	-0.000024
1632	1.6228e+02	-7.5104	-50.355194	0.000608	6.080112	1.029999	0.000122
1633	1.6238e+02	-7.4915	-50.282526	0.000365	3.648067	0.617999	0.000073
1634	1.6248e+02	-7.4707	-50.205820	0.000385	3.850738	0.652333	0.000077
1635	1.6258e+02	-7.4500	-50.137189	0.000345	3.445397	0.583666	0.000069
1636	1.6268e+02	-7.4310	-50.068557	0.000345	3.445397	0.583666	0.000069
1637	1.6278e+02	-7.4103	-49.987815	0.000405	4.053408	0.686666	0.000081
1638	1.6288e+02	-7.3901	-49.935332	0.000263	2.634715	0.446333	0.000053
1639	1.6298e+02	-7.3706	-49.878812	0.000284	2.837386	0.480666	0.000057
1640	1.6308e+02	-7.3505	-49.769809	0.000547	5.472101	0.926999	0.000110
1641	1.6318e+02	-7.3309	-49.693104	0.000385	3.850738	0.652333	0.000077
1642	1.6328e+02	-7.3111	-49.612361	0.000405	4.053408	0.686666	0.000081
1643	1.6338e+02	-7.2910	-49.555841	0.000284	2.837386	0.480666	0.000057
1644	1.6348e+02	-7.2723	-49.471061	0.000426	4.256078	0.720999	0.000085
1645	1.6358e+02	-7.2504	-49.418579	0.000263	2.634715	0.446333	0.000053
1646	1.6368e+02	-7.2314	-49.325724	0.000466	4.661419	0.789666	0.000093
1647	1.6378e+02	-7.2119	-49.285353	0.000203	2.026704	0.343333	0.000041
1648	1.6388e+02	-7.1918	-49.176350	0.000547	5.472101	0.926999	0.000110
1649	1.6398e+02	-7.1713	-49.103682	0.000365	3.648067	0.617999	0.000073
1650	1.6408e+02	-7.1515	-49.051199	0.000263	2.634715	0.446333	0.000053
1651	1.6418e+02	-7.1310	-48.946234	0.000527	5.269430	0.892666	0.000105
1652	1.6427e+02	-7.1124	-48.865491	0.000405	4.053408	0.686666	0.000081
1653	1.6437e+02	-7.0923	-48.833194	0.000162	1.621363	0.274666	0.000032
1654	1.6447e+02	-7.0726	-48.712080	0.000608	6.080112	1.029999	0.000122
1655	1.6457e+02	-7.0514	-48.647486	0.000324	3.242726	0.549333	0.000065
1656	1.6467e+02	-7.0317	-48.542520	0.000527	5.269430	0.892666	0.000105
1657	1.6477e+02	-7.0120	-48.477926	0.000324	3.242726	0.549333	0.000065
1658	1.6487e+02	-6.9916	-48.445629	0.000162	1.621363	0.274666	0.000032
1659	1.6497e+02	-6.9720	-48.340663	0.000527	5.269430	0.892666	0.000105
1660	1.6507e+02	-6.9519	-48.292218	0.000243	2.432045	0.412000	0.000049
1661	1.6517e+02	-6.9324	-48.203401	0.000446	4.458749	0.755332	0.000089
1662	1.6527e+02	-6.9128	-48.090361	0.000567	5.674771	0.961332	0.000114
1663	1.6537e+02	-6.8932	-48.058064	0.000162	1.621363	0.274666	0.000032
1664	1.6547e+02	-6.8719	-47.989433	0.000345	3.445397	0.583666	0.000069
1665	1.6557e+02	-6.8524	-47.900616	0.000446	4.458749	0.755332	0.000089
1666	1.6567e+02	-6.8341	-47.791613	0.000547	5.472101	0.926999	0.000110
1667	1.6577e+02	-6.8130	-47.706833	0.000426	4.256078	0.720999	0.000085
1668	1.6587e+02	-6.7923	-47.666462	0.000203	2.026704	0.343333	0.000041
1669	1.6597e+02	-6.7731	-47.581682	0.000426	4.256078	0.720999	0.000085
1670	1.6607e+02	-6.7535	-47.504976	0.000385	3.850738	0.652333	0.000077
1671	1.6616e+02	-6.7340	-47.460568	0.000223	2.229374	0.377666	0.000045
1672	1.6626e+02	-6.7133	-47.395974	0.000324	3.242726	0.549333	0.000065
1673	1.6636e+02	-6.6931	-47.274859	0.000608	6.080112	1.029999	0.000122
1674	1.6646e+02	-6.6736	-47.169894	0.000527	5.269430	0.892666	0.000105
1675	1.6656e+02	-6.6534	-47.105300	0.000324	3.242726	0.549333	0.000065
1676	1.6666e+02	-6.6338	-47.004371	0.000507	5.066760	0.858332	0.000101
1677	1.6676e+02	-6.6132	-46.923629	0.000405	4.053408	0.686666	0.000081
1678	1.6686e+02	-6.5930	-46.867109	0.000284	2.837386	0.480666	0.000057
1679	1.6696e+02	-6.5735	-46.782329	0.000426	4.256078	0.720999	0.000085
1680	1.6706e+02	-6.5540	-46.721772	0.000304	3.040056	0.514999	0.000061
1681	1.6716e+02	-6.5335	-46.636992	0.000426	4.256078	0.720999	0.000085
1682	1.6726e+02	-6.5143	-46.536064	0.000507	5.066760	0.858332	0.000101
1683	1.6736e+02	-6.4938	-46.479544	0.000284	2.837386	0.480666	0.000057
1684	1.6746e+02	-6.4746	-46.370541	0.000547	5.472101	0.926999	0.000110
1685	1.6756e+02	-6.4539	-46.257501	0.000567	5.674771	0.961332	0.000114
1686	1.6766e+02	-6.4337	-46.184833	0.000365	3.648067	0.617999	0.000073
1687	1.6776e+02	-6.4140	-46.140424	0.000223	2.229374	0.377666	0.000045
1688	1.6786e+02	-6.3940	-46.063719	0.000385	3.850738	0.652333	0.000077
1689	1.6796e+02	-6.3745	-45.991050	0.000365	3.648067	0.617999	0.000073
1690	1.6806e+02	-6.3550	-45.841676	0.000750	7.498805	1.270332	0.000150
1691	1.6816e+02	-6.3348	-45.797268	0.000223	2.229374	0.377666	0.000045
1692	1.6825e+02	-6.3150	-45.708451	0.000446	4.458749	0.755332	0.000089
1693	1.6835e+02	-6.2946	-45.635782	0.000365	3.648067	0.617999	0.000073
1694	1.6845e+02	-6.2744	-45.534854	0.000507	5.066760	0.858332	0.000101
1695	1.6855e+02	-6.2546	-45.454111	0.000405	4.053408	0.686666	0.000081
1696	1.6865e+02	-6.2352	-45.397591	0.000284	2.837386	0.480666	0.000057
1697	1.6875e+02	-6.2155	-45.292626	0.000527	5.269430	0.892666	0.000105
1698	1.6885e+02	-6.1954	-45.215920	0.000385	3.850738	0.652333	0.000077
1699	1.6895e+02	-6.1749	-45.090769	0.000628	6.282782	1.064332	0.000126
1700	1.6905e+02	-6.1548	-45.018101	0.000365	3.648067	0.617999	0.000073
1701	1.6915e+02	-6.1353	-44.921209	0.000486	4.864090	0.823999	0.000097
1702	1.6925e+02	-6.1145	-44.836430	0.000426	4.256078	0.720999	0.000085
1703	1.6935e+02	-6.0950	-44.751650	0.000426	4.256078	0.720999	0.000085
1704	1.6945e+02	-6.0751	-44.683018	0.000345	3.445397	0.583666	0.000069
1705	1.6955e+02	-6.0556	-44.602276	0.000405	4.053408	0.686666	0.000081
1706	1.6965e+02	-6.0352	-44.452902	0.000750	7.498805	1.270332	0.000150
1707	1.6975e+02	-6.0156	-44.376196	0.000385	3.850738	0.652333	0.000077
1708	1.6985e+02	-5.9953	-44.291416	0.000426	4.256078	0.720999	0.000085
1709	1.6995e+02	-5.9760	-44.238933	0.000263	2.634715	0.446333	0.000053
1710	1.7005e+02	-5.9564	-44.129931	0.000547	5.472101	0.926999	0.000110
1711	1.7015e+02	-5.9375	-44.041114	0.000446	4.458749	0.755332	0.000089
1712	1.7024e+02	-5.9164	-43.948260	0.000466	4.661419	0.789666	0.000093
1713	1.7034e+02	-5.8960	-43.831183	0.000588	5.877442	0.995666	0.000118
1714	1.7044e+02	-5.8765	-43.750440	0.000405	4.053408	0.686666	0.000081
1715	1.7054e+02	-5.8569	-43.706031	0.000223	2.229374	0.377666	0.000045
1716	1.7064e+02	-5.8362	-43.572806	0.000669	6.688123	1.132999	0.000134
1717	1.7074e+02	-5.8173	-43.467840	0.000527	5.269430	0.892666	0.000105
1718	1.7084e+02	-5.7965	-43.403246	0.000324	3.242726	0.549333	0.000065
1719	1.7094e+02	-5.7770	-43.322504	0.000405	4.053408	0.686666	0.000081
1720	1.7104e+02	-5.7574	-43.221575	0.000507	5.066760	0.858332	0.000101
1721	1.7114e+02	-5.7367	-43.124684	0.000486	4.864090	0.823999	0.000097
1722	1.7124e+02	-5.7166	-43.064127	0.000304	3.040056	0.514999	0.000061
1723	1.7134e+02	-5.6969	-42.979347	0.000426	4.256078	0.720999	0.000085
1724	1.7144e+02	-5.6763	-42.894567	0.000426	4.256078	0.720999	0.000085
1725	1.7154e+02	-5.6561	-42.785565	0.000547	5.472101	0.926999	0.000110
1726	1.7164e+02	-5.6371	-42.676562	0.000547	5.472101	0.926999	0.000110
1727	1.7174e+02	-5.6177	-42.607931	0.000345	3.445397	0.583666	0.000069
1728	1.7184e+02	-5.5969	-42.502965	0.000527	5.269430	0.892666	0.000105
1729	1.7194e+02	-5.5791	-42.414148	0.000446	4.458749	0.755332	0.000089
1730	1.7204e+02	-5.5576	-42.349554	0.000324	3.242726	0.549333	0.000065
1731	1.7213e+02	-5.5376	-42.297071	0.000263	2.634715	0.446333	0.000053
1732	1.7223e+02	-5.5170	-42.143660	0.000770	7.701475	1.304665	0.000154
1733	1.7233e+02	-5.4980	-42.079066	0.000324	3.242726	0.549333	0.000065
1734	1.7243e+02	-5.4776	-42.006397	0.000365	3.648067	0.617999	0.000073
1735	1.7253e+02	-5.4584	-41.889320	0.000588	5.877442	0.995666	0.000118
1736	1.7263e+02	-5.4376	-41.788392	0.000507	5.066760	0.858332	0.000101
1737	1.7273e+02	-5.4181	-41.715724	0.000365	3.648067	0.617999	0.000073
1738	1.7283e+02	-5.3983	-41.570387	0.000730	7.296134	1.235999	0.000146
1739	1.7293e+02	-5.3778	-41.497718	0.000365	3.648067	0.617999	0.000073
1740	1.7303e+02	-5.3582	-41.372567	0.000628	6.282782	1.064332	0.000126
1741	1.7313e+02	-5.3386	-41.320084	0.000263	2.634715	0.446333	0.000053
1742	1.7323e+02	-5.3180	-41.215119	0.000527	5.269430	0.892666	0.000105
1743	1.7333e+02	-5.2985	-41.130339	0.000426	4.256078	0.720999	0.000085
1744	1.7343e+02	-5.2777	-41.049596	0.000405	4.053408	0.686666	0.000081
1745	1.7353e+02	-5.2594	-40.928482	0.000608	6.080112	1.029999	0.000122
1746	1.7363e+02	-5.2391	-40.823517	0.000527	5.269430	0.892666	0.000105
1747	1.7373e+02	-5.2185	-40.730662	0.000466	4.661419	0.789666	0.000093
1748	1.7383e+02	-5.1987	-40.625697	0.000527	5.269430	0.892666	0.000105
1749	1.7393e+02	-5.1788	-40.565140	0.000304	3.040056	0.514999	0.000061
1750	1.7403e+02	-5.1587	-40.480360	0.000426	4.256078	0.720999	0.000085
1751	1.7413e+02	-5.1379	-40.359246	0.000608	6.080112	1.029999	0.000122
1752	1.7422e+02	-5.1184	-40.246206	0.000567	5.674771	0.961332	0.000114
1753	1.7432e+02	-5.0993	-40.221983	0.000122	1.216022	0.206000	0.000024
1754	1.7442e+02	-5.0795	-40.052424	0.000851	8.512157	1.441998	0.000170
1755	1.7452e+02	-5.0586	-39.951495	0.000507	5.066760	0.858332	0.000101
1756	1.7462e+02	-5.0385	-39.890938	0.000304	3.040056	0.514999	0.000061
1757	1.7472e+02	-5.0195	-39.802121	0.000446	4.458749	0.755332	0.000089
1758	1.7482e+02	-4.9991	-39.681007	0.000608	6.080112	1.029999	0.000122
1759	1.7492e+02	-4.9792	-39.592190	0.000446	4.458749	0.755332	0.000089
1760	1.7502e+02	-4.9600	-39.535670	0.000284	2.837386	0.480666	0.000057
1761	1.7512e+02	-4.9396	-39.410519	0.000628	6.282782	1.064332	0.000126
1762	1.7522e+02	-4.9194	-39.301516	0.000547	5.472101	0.926999	0.000110
1763	1.7532e+02	-4.8999	-39.212699	0.000446	4.458749	0.755332	0.000089
1764	1.7542e+02	-4.8792	-39.135994	0.000385	3.850738	0.652333	0.000077
1765	1.7552e+02	-4.8593	-39.047177	0.000446	4.458749	0.755332	0.000089
1766	1.7562e+02	-4.8395	-38.962397	0.000426	4.256078	0.720999	0.000085
1767	1.7572e+02	-4.8199	-38.833209	0.000649	6.485453	1.098665	0.000130
1768	1.7582e+02	-4.8001	-38.724206	0.000547	5.472101	0.926999	0.000110
1769	1.7592e+02	-4.7797	-38.643463	0.000405	4.053408	0.686666	0.000081
1770	1.7602e+02	-4.7610	-38.554646	0.000446	4.458749	0.755332	0.000089
1771	1.7612e+02	-4.7406	-38.429495	0.000628	6.282782	1.064332	0.000126
1772	1.7621e+02	-4.7203	-38.348752	0.000405	4.053408	0.686666	0.000081
1773	1.7631e+02	-4.7006	-38.243787	0.000527	5.269430	0.892666	0.000105
1774	1.7641e+02	-4.6805	-38.130747	0.000567	5.674771	0.961332	0.000114
1775	1.7651e+02	-4.6613	-38.070190	0.000304	3.040056	0.514999	0.000061
1776	1.7661e+02	-4.6411	-37.945039	0.000628	6.282782	1.064332	0.000126
1777	1.7671e+02	-4.6207	-37.836036	0.000547	5.472101	0.926999	0.000110
1778	1.7681e+02	-4.6008	-37.771442	0.000324	3.242726	0.549333	0.000065
1779	1.7691e+02	-4.5813	-37.698774	0.000365	3.648067	0.617999	0.000073
1780	1.7701e+02	-4.5615	-37.569585	0.000649	6.485453	1.098665	0.000130
1781	1.7711e+02	-4.5416	-37.476731	0.000466	4.661419	0.789666	0.000093
1782	1.7721e+02	-4.5212	-37.387914	0.000446	4.458749	0.755332	0.000089
1783	1.7731e+02	-4.5007	-37.266800	0.000608	6.080112	1.029999	0.000122
1784	1.7741e+02	-4.4830	-37.161834	0.000527	5.269430	0.892666	0.000105
1785	1.7751e+02	-4.4618	-37.060906	0.000507	5.066760	0.858332	0.000101
1786	1.7761e+02	-4.4417	-37.000349	0.000304	3.040056	0.514999	0.000061
1787	1.7771e+02	-4.4214	-36.899421	0.000507	5.066760	0.858332	0.000101
1788	1.7781e+02	-4.4016	-36.798492	0.000507	5.066760	0.858332	0.000101
1789	1.7791e+02	-4.3808	-36.681415	0.000588	5.877442	0.995666	0.000118
1790	1.7801e+02	-4.3613	-36.564338	0.000588	5.877442	0.995666	0.000118
1791	1.7810e+02	-4.3414	-36.503781	0.000304	3.040056	0.514999	0.000061
1792	1.7820e+02	-4.3213	-36.414964	0.000446	4.458749	0.755332	0.000089
1793	1.7830e+02	-4.3018	-36.318073	0.000486	4.864090	0.823999	0.000097
1794	1.7840e+02	-4.2822	-36.172736	0.000730	7.296134	1.235999	0.000146
1795	1.7850e+02	-4.2621	-36.128328	0.000223	2.229374	0.377666	0.000045
1796	1.7860e+02	-4.2424	-35.995102	0.000669	6.688123	1.132999	0.000134
1797	1.7870e+02	-4.2218	-35.926471	0.000345	3.445397	0.583666	0.000069
1798	1.7880e+02	-4.2021	-35.789208	0.000689	6.890794	1.167332	0.000138
1799	1.7890e+02	-4.1815	-35.676169	0.000567	5.674771	0.961332	0.000114
1800	1.7900e+02	-4.1620	-35.575240	0.000507	5.066760	0.858332	0.000101
1801	1.7910e+02	-4.1425	-35.502572	0.000365	3.648067	0.617999	0.000073
1802	1.7920e+02	-4.1220	-35.397606	0.000527	5.269430	0.892666	0.000105
1803	1.7930e+02	-4.1023	-35.276492	0.000608	6.080112	1.029999	0.000122
1804	1.7940e+02	-4.0826	-35.187675	0.000446	4.458749	0.755332	0.000089
1805	1.7950e+02	-4.0619	-35.094821	0.000466	4.661419	0.789666	0.000093
1806	1.7960e+02	-4.0424	-34.905076	0.000953	9.525509	1.613665	0.000191
1807	1.7970e+02	-4.0228	-34.872779	0.000162	1.621363	0.274666	0.000032
1808	1.7980e+02	-4.0036	-34.747627	0.000628	6.282782	1.064332	0.000126
1809	1.7990e+02	-3.9832	-34.662847	0.000426	4.256078	0.720999	0.000085
1810	1.8000e+02	-3.9630	-34.537696	0.000628	6.282782	1.064332	0.000126
1811	1.8009e+02	-3.9429	-34.465028	0.000365	3.648067	0.617999	0.000073
1812	1.8019e+02	-3.9226	-34.339877	0.000628	6.282782	1.064332	0.000126
1813	1.8029e+02	-3.9035	-34.206651	0.000669	6.688123	1.132999	0.000134
1814	1.8039e+02	-3.8834	-34.146094	0.000304	3.040056	0.514999	0.000061
1815	1.8049e+02	-3.8631	-34.004794	0.000709	7.093464	1.201665	0.000142
1816	1.8059e+02	-3.8434	-33.903866	0.000507	5.066760	0.858332	0.000101
1817	1.8069e+02	-3.8226	-33.835235	0.000345	3.445397	0.583666	0.000069
1818	1.8079e+02	-3.8037	-33.702009	0.000669	6.688123	1.132999	0.000134
1819	1.8089e+02	-3.7834	-33.613192	0.000446	4.458749	0.755332	0.000089
1820	1.8099e+02	-3.7640	-33.500152	0.000567	5.674771	0.961332	0.000114
1821	1.8109e+02	-3.7444	-33.346741	0.000770	7.701475	1.304665	0.000154
1822	1.8119e+02	-3.7250	-33.265998	0.000405	4.053408	0.686666	0.000081
1823	1.8129e+02	-3.7032	-33.181219	0.000426	4.256078	0.720999	0.000085
1824	1.8139e+02	-3.6841	-33.068179	0.000567	5.674771	0.961332	0.000114
1825	1.8149e+02	-3.6642	-32.930916	0.000689	6.890794	1.167332	0.000138
1826	1.8159e+02	-3.6450	-32.834025	0.000486	4.864090	0.823999	0.000097
1827	1.8169e+02	-3.6237	-32.749245	0.000426	4.256078	0.720999	0.000085
1828	1.8179e+02	-3.6041	-32.652354	0.000486	4.864090	0.823999	0.000097
1829	1.8189e+02	-3.5838	-32.547388	0.000527	5.269430	0.892666	0.000105
1830	1.8199e+02	-3.5638	-32.430311	0.000588	5.877442	0.995666	0.000118
1831	1.8209e+02	-3.5449	-32.309197	0.000608	6.080112	1.029999	0.000122
1832	1.8218e+02	-3.5245	-32.175972	0.000669	6.688123	1.132999	0.000134
1833	1.8228e+02	-3.5040	-32.127526	0.000243	2.432045	0.412000	0.000049
1834	1.8238e+02	-3.4843	-31.990264	0.000689	6.890794	1.167332	0.000138
1835	1.8248e+02	-3.4643	-31.865112	0.000628	6.282782	1.064332	0.000126
1836	1.8258e+02	-3.4460	-31.812630	0.000263	2.634715	0.446333	0.000053
1837	1.8268e+02	-3.4253	-31.639033	0.000871	8.714827	1.476332	0.000174
1838	1.8278e+02	-3.4048	-31.530030	0.000547	5.472101	0.926999	0.000110
1839	1.8288e+02	-3.3861	-31.433139	0.000486	4.864090	0.823999	0.000097
1840	1.8298e+02	-3.3662	-31.316062	0.000588	5.877442	0.995666	0.000118
1841	1.8308e+02	-3.3456	-31.207059	0.000547	5.472101	0.926999	0.000110
1842	1.8318e+02	-3.3246	-31.106131	0.000507	5.066760	0.858332	0.000101
1843	1.8328e+02	-3.3054	-30.968868	0.000689	6.890794	1.167332	0.000138
1844	1.8338e+02	-3.2855	-30.839680	0.000649	6.485453	1.098665	0.000130
1845	1.8348e+02	-3.2651	-30.734714	0.000527	5.269430	0.892666	0.000105
1846	1.8358e+02	-3.2463	-30.625712	0.000547	5.472101	0.926999	0.000110
1847	1.8368e+02	-3.2263	-30.508635	0.000588	5.877442	0.995666	0.000118
1848	1.8378e+02	-3.2059	-30.407706	0.000507	5.066760	0.858332	0.000101
1849	1.8388e+02	-3.1854	-30.286592	0.000608	6.080112	1.029999	0.000122
1850	1.8398e+02	-3.1668	-30.173553	0.000567	5.674771	0.961332	0.000114
1851	1.8407e+02	-3.1463	-30.064550	0.000547	5.472101	0.926999	0.000110
1852	1.8417e+02	-3.1262	-29.943436	0.000608	6.080112	1.029999	0.000122
1853	1.8427e+02	-3.1061	-29.802136	0.000709	7.093464	1.201665	0.000142
1854	1.8437e+02	-3.0870	-29.701208	0.000507	5.066760	0.858332	0.000101
1855	1.8447e+02	-3.0658	-29.588168	0.000567	5.674771	0.961332	0.000114
1856	1.8457e+02	-3.0467	-29.458979	0.000649	6.485453	1.098665	0.000130
1857	1.8467e+02	-3.0267	-29.349977	0.000547	5.472101	0.926999	0.000110
1858	1.8477e+02	-3.0072	-29.261160	0.000446	4.458749	0.755332	0.000089
1859	1.8487e+02	-2.9857	-29.091600	0.000851	8.512157	1.441998	0.000170
1860	1.8497e+02	-2.9663	-29.010857	0.000405	4.053408	0.686666	0.000081
1861	1.8507e+02	-2.9462	-28.869558	0.000709	7.093464	1.201665	0.000142
1862	1.8517e+02	-2.9265	-28.792852	0.000385	3.850738	0.652333	0.000077
1863	1.8527e+02	-2.9070	-28.651552	0.000709	7.093464	1.201665	0.000142
1864	1.8537e+02	-2.8864	-28.522364	0.000649	6.485453	1.098665	0.000130
1865	1.8547e+02	-2.8668	-28.389139	0.000669	6.688123	1.132999	0.000134
1866	1.8557e+02	-2.8470	-28.300322	0.000446	4.458749	0.755332	0.000089
1867	1.8567e+02	-2.8276	-28.167096	0.000669	6.688123	1.132999	0.000134
1868	1.8577e+02	-2.8064	-28.041945	0.000628	6.282782	1.064332	0.000126
1869	1.8587e+02	-2.7872	-27.888534	0.000770	7.701475	1.304665	0.000154
1870	1.8597e+02	-2.7676	-27.840088	0.000243	2.432045	0.412000	0.000049
1871	1.8606e+02	-2.7475	-27.682640	0.000790	7.904146	1.338999	0.000158
1872	1.8616e+02	-2.7271	-27.561526	0.000608	6.080112	1.029999	0.000122
1873	1.8626e+02	-2.7075	-27.416189	0.000730	7.296134	1.235999	0.000146
1874	1.8636e+02	-2.6868	-27.331409	0.000426	4.256078	0.720999	0.000085
1875	1.8646e+02	-2.6663	-27.186072	0.000730	7.296134	1.235999	0.000146
1876	1.8656e+02	-2.6468	-27.064958	0.000608	6.080112	1.029999	0.000122
1877	1.8666e+02	-2.6270	-26.927695	0.000689	6.890794	1.167332	0.000138
1878	1.8676e+02	-2.6074	-26.794470	0.000669	6.688123	1.132999	0.000134
1879	1.8686e+02	-2.5887	-26.689504	0.000527	5.269430	0.892666	0.000105
1880	1.8696e+02	-2.5677	-26.552242	0.000689	6.890794	1.167332	0.000138
1881	1.8706e+02	-2.5482	-26.459388	0.000466	4.661419	0.789666	0.000093
1882	1.8716e+02	-2.5269	-26.314051	0.000730	7.296134	1.235999	0.000146
1883	1.8726e+02	-2.5095	-26.225234	0.000446	4.458749	0.755332	0.000089
1884	1.8736e+02	-2.4893	-26.075860	0.000750	7.498805	1.270332	0.000150
1885	1.8746e+02	-2.4693	-25.962820	0.000567	5.674771	0.961332	0.000114
1886	1.8756e+02	-2.4487	-25.821520	0.000709	7.093464	1.201665	0.000142
1887	1.8766e+02	-2.4295	-25.720592	0.000507	5.066760	0.858332	0.000101
1888	1.8776e+02	-2.4085	-25.603515	0.000588	5.877442	0.995666	0.000118
1889	1.8786e+02	-2.3895	-25.446067	0.000790	7.904146	1.338999	0.000158
1890	1.8796e+02	-2.3683	-25.337064	0.000547	5.472101	0.926999	0.000110
1891	1.8806e+02	-2.3495	-25.203838	0.000669	6.688123	1.132999	0.000134
1892	1.8815e+02	-2.3288	-25.094836	0.000547	5.472101	0.926999	0.000110
1893	1.8825e+02	-2.3099	-24.985833	0.000547	5.472101	0.926999	0.000110
1894	1.8835e+02	-2.2900	-24.852608	0.000669	6.688123	1.132999	0.000134
1895	1.8845e+02	-2.2697	-24.739568	0.000567	5.674771	0.961332	0.000114
1896	1.8855e+02	-2.2501	-24.582120	0.000790	7.904146	1.338999	0.000158
1897	1.8865e+02	-2.2294	-24.493303	0.000446	4.458749	0.755332	0.000089
1898	1.8875e+02	-2.2096	-24.343929	0.000750	7.498805	1.270332	0.000150
1899	1.8885e+02	-2.1904	-24.214740	0.000649	6.485453	1.098665	0.000130
1900	1.8895e+02	-2.1703	-24.101700	0.000567	5.674771	0.961332	0.000114
1901	1.8905e+02	-2.1495	-23.928104	0.000871	8.714827	1.476332	0.000174
1902	1.8915e+02	-2.1295	-23.831212	0.000486	4.864090	0.823999	0.000097
1903	1.8925e+02	-2.1100	-23.714135	0.000588	5.877442	0.995666	0.000118
1904	1.8935e+02	-2.0903	-23.617244	0.000486	4.864090	0.823999	0.000097
1905	1.8945e+02	-2.0705	-23.463833	0.000770	7.701475	1.304665	0.000154
1906	1.8955e+02	-2.0500	-23.338682	0.000628	6.282782	1.064332	0.000126
1907	1.8965e+02	-2.0296	-23.205456	0.000669	6.688123	1.132999	0.000134
1908	1.8975e+02	-2.0113	-23.064156	0.000709	7.093464	1.201665	0.000142
1909	1.8985e+02	-1.9910	-22.918820	0.000730	7.296134	1.235999	0.000146
1910	1.8995e+02	-1.9711	-22.825965	0.000466	4.661419	0.789666	0.000093
1911	1.9004e+02	-1.9508	-22.700814	0.000628	6.282782	1.064332	0.000126
1912	1.9014e+02	-1.9305	-22.531255	0.000851	8.512157	1.441998	0.000170
1913	1.9024e+02	-1.9107	-22.414178	0.000588	5.877442	0.995666	0.000118
1914	1.9034e+02	-1.8906	-22.297101	0.000588	5.877442	0.995666	0.000118
1915	1.9044e+02	-1.8716	-22.167912	0.000649	6.485453	1.098665	0.000130
1916	1.9054e+02	-1.8500	-22.034687	0.000669	6.688123	1.132999	0.000134
1917	1.9064e+02	-1.8311	-21.889350	0.000730	7.296134	1.235999	0.000146
1918	1.9074e+02	-1.8106	-21.764199	0.000628	6.282782	1.064332	0.000126
1919	1.9084e+02	-1.7898	-21.626936	0.000689	6.890794	1.167332	0.000138
1920	1.9094e+02	-1.7715	-21.493711	0.000669	6.688123	1.132999	0.000134
1921	1.9104e+02	-1.7503	-21.344337	0.000750	7.498805	1.270332	0.000150
1922	1.9114e+02	-1.7320	-21.239371	0.000527	5.269430	0.892666	0.000105
1923	1.9124e+02	-1.7120	-21.098071	0.000709	7.093464	1.201665	0.000142
1924	1.9134e+02	-1.6907	-20.993106	0.000527	5.269430	0.892666	0.000105
1925	1.9144e+02	-1.6711	-20.839695	0.000770	7.701475	1.304665	0.000154
1926	1.9154e+02	-1.6514	-20.722618	0.000588	5.877442	0.995666	0.000118
1927	1.9164e+02	-1.6315	-20.593429	0.000649	6.485453	1.098665	0.000130
1928	1.9174e+02	-1.6116	-20.427907	0.000831	8.309486	1.407665	0.000166
1929	1.9184e+02	-1.5920	-20.343127	0.000426	4.256078	0.720999	0.000085
1930	1.9194e+02	-1.5723	-20.242199	0.000507	5.066760	0.858332	0.000101
1931	1.9203e+02	-1.5514	-20.088787	0.000770	7.701475	1.304665	0.000154
1932	1.9213e+02	-1.5318	-19.931339	0.000790	7.904146	1.338999	0.000158
1933	1.9223e+02	-1.5115	-19.806188	0.000628	6.282782	1.064332	0.000126
1934	1.9233e+02	-1.4920	-19.660851	0.000730	7.296134	1.235999	0.000146
1935	1.9243e+02	-1.4716	-19.519551	0.000709	7.093464	1.201665	0.000142
1936	1.9253e+02	-1.4526	-19.438809	0.000405	4.053408	0.686666	0.000081
1937	1.9263e+02	-1.4326	-19.289435	0.000750	7.498805	1.270332	0.000150
1938	1.9273e+02	-1.4114	-19.131986	0.000790	7.904146	1.338999	0.000158
1939	1.9283e+02	-1.3922	-19.051244	0.000405	4.053408	0.686666	0.000081
1940	1.9293e+02	-1.3712	-18.901870	0.000750	7.498805	1.270332	0.000150
1941	1.9303e+02	-1.3526	-18.768644	0.000669	6.688123	1.132999	0.000134
1942	1.9313e+02	-1.3327	-18.635419	0.000669	6.688123	1.132999	0.000134
1943	1.9323e+02	-1.3123	-18.486045	0.000750	7.498805	1.270332	0.000150
1944	1.9333e+02	-1.2926	-18.332633	0.000770	7.701475	1.304665	0.000154
1945	1.9343e+02	-1.2718	-18.243816	0.000446	4.458749	0.755332	0.000089
1946	1.9353e+02	-1.2542	-18.102517	0.000709	7.093464	1.201665	0.000142
1947	1.9363e+02	-1.2336	-17.973328	0.000649	6.485453	1.098665	0.000130
1948	1.9373e+02	-1.2133	-17.840103	0.000669	6.688123	1.132999	0.000134
1949	1.9383e+02	-1.1932	-17.686692	0.000770	7.701475	1.304665	0.000154
1950	1.9393e+02	-1.1738	-17.597875	0.000446	4.458749	0.755332	0.000089
1951	1.9403e+02	-1.1536	-17.452538	0.000730	7.296134	1.235999	0.000146
1952	1.9412e+02	-1.1334	-17.323349	0.000649	6.485453	1.098665	0.000130
1953	1.9422e+02	-1.1138	-17.214347	0.000547	5.472101	0.926999	0.000110
1954	1.9432e+02	-1.0939	-17.052861	0.000811	8.106816	1.373332	0.000162
1955	1.9442e+02	-1.0754	-16.919636	0.000669	6.688123	1.132999	0.000134
1956	1.9452e+02	-1.0536	-16.802559	0.000588	5.877442	0.995666	0.000118
1957	1.9462e+02	-1.0339	-16.657222	0.000730	7.296134	1.235999	0.000146
1958	1.9472e+02	-1.0143	-16.532071	0.000628	6.282782	1.064332	0.000126
1959	1.9482e+02	-0.9940	-16.378660	0.000770	7.701475	1.304665	0.000154
1960	1.9492e+02	-0.9744	-16.269657	0.000547	5.472101	0.926999	0.000110
1961	1.9502e+02	-0.9544	-16.160654	0.000547	5.472101	0.926999	0.000110
1962	1.9512e+02	-0.9337	-15.995132	0.000831	8.309486	1.407665	0.000166
1963	1.9522e+02	-0.9151	-15.886129	0.000547	5.472101	0.926999	0.000110
1964	1.9532e+02	-0.8935	-15.728681	0.000790	7.904146	1.338999	0.000158
1965	1.9542e+02	-0.8743	-15.603530	0.000628	6.282782	1.064332	0.000126
1966	1.9552e+02	-0.8553	-15.474341	0.000649	6.485453	1.098665	0.000130
1967	1.9562e+02	-0.8344	-15.357264	0.000588	5.877442	0.995666	0.000118
1968	1.9572e+02	-0.8141	-15.228076	0.000649	6.485453	1.098665	0.000130
1969	1.9582e+02	-0.7947	-15.102925	0.000628	6.282782	1.064332	0.000126
1970	1.9592e+02	-0.7740	-14.913179	0.000953	9.525509	1.613665	0.000191
1971	1.9601e+02	-0.7552	-14.779954	0.000669	6.688123	1.132999	0.000134
1972	1.9611e+02	-0.7347	-14.638654	0.000709	7.093464	1.201665	0.000142
1973	1.9621e+02	-0.7147	-14.513503	0.000628	6.282782	1.064332	0.000126
1974	1.9631e+02	-0.6956	-14.364129	0.000750	7.498805	1.270332	0.000150
1975	1.9641e+02	-0.6753	-14.259163	0.000527	5.269430	0.892666	0.000105
1976	1.9651e+02	-0.6538	-14.093641	0.000831	8.309486	1.407665	0.000166
1977	1.9661e+02	-0.6353	-13.988675	0.000527	5.269430	0.892666	0.000105
1978	1.9671e+02	-0.6155	-13.827190	0.000811	8.106816	1.373332	0.000162
1979	1.9681e+02	-0.5949	-13.742410	0.000426	4.256078	0.720999	0.000085
1980	1.9691e+02	-0.5760	-13.597073	0.000730	7.296134	1.235999	0.000146
1981	1.9701e+02	-0.5560	-13.447699	0.000750	7.498805	1.270332	0.000150
1982	1.9711e+02	-0.5357	-13.302362	0.000730	7.296134	1.235999	0.000146
1983	1.9721e+02	-0.5151	-13.201434	0.000507	5.066760	0.858332	0.000101
1984	1.9731e+02	-0.4950	-12.983429	0.001094	10.944202	1.853998	0.000219
1985	1.9741e+02	-0.4758	-12.914797	0.000345	3.445397	0.583666	0.000069
1986	1.9751e+02	-0.4565	-12.733126	0.000912	9.120168	1.544998	0.000183
1987	1.9761e+02	-0.4352	-12.603938	0.000649	6.485453	1.098665	0.000130
1988	1.9771e+02	-0.4160	-12.474749	0.000649	6.485453	1.098665	0.000130
1989	1.9781e+02	-0.3960	-12.389970	0.000426	4.256078	0.720999	0.000085
1990	1.9791e+02	-0.3763	-12.212336	0.000892	8.917498	1.510665	0.000179
1991	1.9800e+02	-0.3563	-12.062962	0.000750	7.498805	1.270332	0.000150
1992	1.9810e+02	-0.3358	-11.962033	0.000507	5.066760	0.858332	0.000101
1993	1.9820e+02	-0.3162	-11.808622	0.000770	7.701475	1.304665	0.000154
1994	1.9830e+02	-0.2958	-11.663285	0.000730	7.296134	1.235999	0.000146
1995	1.9840e+02	-0.2757	-11.538134	0.000628	6.282782	1.064332	0.000126
1996	1.9850e+02	-0.2557	-11.400871	0.000689	6.890794	1.167332	0.000138
1997	1.9860e+02	-0.2367	-11.255534	0.000730	7.296134	1.235999	0.000146
1998	1.9870e+02	-0.2161	-11.094049	0.000811	8.106816	1.373332	0.000162
1999	1.9880e+02	-0.1965	-10.976972	0.000588	5.877442	0.995666	0.000118
2000	1.9890e+02	-0.1764	-10.843747	0.000669	6.688123	1.132999	0.000134
2001	1.9900e+02	-0.1575	-10.706484	0.000689	6.890794	1.167332	0.000138
2002	1.9910e+02	-0.1367	-10.565184	0.000709	7.093464	1.201665	0.000142
2003	1.9920e+02	-0.1164	-10.468293	0.000486	4.864090	0.823999	0.000097
2004	1.9930e+02	-0.0966	-10.266436	0.001013	10.133520	1.716665	0.000203
2005	1.9940e+02	-0.0773	-10.177619	0.000446	4.458749	0.755332	0.000089
2006	1.9950e+02	-0.0574	-10.020171	0.000790	7.904146	1.338999	0.000158
2007	1.9960e+02	-0.0364	-9.886945	0.000669	6.688123	1.132999	0.000134
2008	1.9970e+02	-0.0176	-9.737571	0.000750	7.498805	1.270332	0.000150
2009	1.9980e+02	0.0012	-9.648754	0.000750	7.498805	1.270332	0.000089

PMax (uC/cm2):	5.68e+01
Pr (uC/cm2):	5.13e+00
-Pr (uC/cm2):	-9.35e+00
PLoss (uC/cm2):	-9.34e+00
-Vc:	-7.67e-01
C (Max-Eff) (nF):	5.68e-01
K (Eff):	9.61e+02
Vert. (+/-Pr) Shift (uC/cm2):	-2.11e+00
Offset (uC/cm2):	3.03e-01

A (Loop Area - uC/cm2·Volts):	-2.09e-02



Hysteresis Version: 5.48.1 - Radiant Technologies, Inc., 1999 - 9/12/24

