»»»»»»»»»»»»»»»»»»»»»»»»»»»»»»»»»»»» Hysteresis ««««««««««««««««««««««««««««««««««««
»»»  Executed Version:	5.48.1
»»»  Vision Version:	5.48.4 (R)
»»»  Vision Compiled:	9/18/24
»»»  Driver Version:	5.47.0
»»»  Windows Version:	Windows 8 or 8.1
»»»  Processor Information:	x86 (AMD or Intel) - 32 Processors
»»»  Tester Name:	PMF21124-494 (100V)
»»»  Tester S/N:	PMF21124-494
»»»  Internal Amp Type:	100V RevK 270k
»»»  Internal Amp S/N:	iAB2-596/K     
»»»  Execution Count:	1
»»»»»»»»»»»»»»»»»»»»»»»»»»»»»»»»»»»»»»»»»»««««««««««««««««««««««««««««««««««««««««««

Stored:	7/7/2025 - 13:36:43
Configured:	07/07/25 01:27:50 PM
Executed:	07/07/25 01:36:08 PM

»»»»»»»»»»»»»»»»»»»»»»»»»»»»»»»»»»» Sample Info ««««««««««««««««««««««««««««««««««««
Sample Name:	
Lot Name:	
Wafer Name:	
Die Row/Column:	0/0
Capacitor Number:	0
Sample Area (cm2):	1.00e-04
Sample Thickness (microns):	1.50e-01

Amplifier:	Internal

»»»»»»»»»»»»»»»»»»»»»»»»»»»»»»»»»»» Tester Info «««««««««««««««««««««««««««««««««««
Tester Name:	PMF21124-494 (100V)
Tester Serial Number:	PMF21124-494
Return Signal Amp. Level:	0.19 [Index: 3]

»»»»»»»»»»»»»»»»»»»»»»»»»»»»»»»» Hysteresis Info ««««««««««««««««««««««««««««««««««
Task Name:	Hyst-528
Volts:	10.00
Field:	666.67 (kV/cm)
DCBias:	0.00
DCField:	0.00 (kV/cm)
Hysteresis Period (ms):	2.00e+02
Preset:	Enabled
Preset Delay (ms):	1.00e+03
Profile:	Standard Bipolar

»»»»»»»»»»»»»»»»»»»»»»»»»»»»»»»»»»»»»» Data «««««««««««««««««««««««««««««««««««««««
Points:	2009

Valid Data

Point	Time (ms)	Drive Voltage	Measured Polarization (uC/cm2)	Capacitance (uF)	Normalized Capacitance (uF/cm2)	Dielectric Constant	Instantaneous Current (mA)
   1	0.0000e+00	0.0018	1.132417	0.000324	3.242720	0.549332	0.000065
   2	9.9500e-02	0.0208	1.197011	0.000324	3.242720	0.549332	0.000065
   3	1.9900e-01	0.0402	1.374645	0.000892	8.917481	1.510662	0.000179
   4	2.9850e-01	0.0601	1.483647	0.000547	5.472090	0.926997	0.000110
   5	3.9800e-01	0.0794	1.604761	0.000608	6.080100	1.029997	0.000122
   6	4.9750e-01	0.0998	1.721838	0.000588	5.877430	0.995664	0.000118
   7	5.9700e-01	0.1175	1.834878	0.000567	5.674760	0.961330	0.000114
   8	6.9650e-01	0.1395	1.960029	0.000628	6.282770	1.064330	0.000126
   9	7.9600e-01	0.1602	2.117478	0.000790	7.904130	1.338996	0.000158
  10	8.9550e-01	0.1801	2.242629	0.000628	6.282770	1.064330	0.000126
  11	9.9500e-01	0.1997	2.396040	0.000770	7.701460	1.304663	0.000154
  12	1.0945e+00	0.2189	2.488894	0.000466	4.661410	0.789664	0.000093
  13	1.1940e+00	0.2394	2.597897	0.000547	5.472090	0.926997	0.000110
  14	1.2935e+00	0.2596	2.698825	0.000507	5.066750	0.858331	0.000101
  15	1.3930e+00	0.2785	2.848199	0.000750	7.498790	1.270329	0.000150
  16	1.4925e+00	0.2992	3.001610	0.000770	7.701460	1.304663	0.000154
  17	1.5920e+00	0.3187	3.142910	0.000709	7.093450	1.201663	0.000142
  18	1.6915e+00	0.3396	3.203467	0.000304	3.040050	0.514998	0.000061
  19	1.7910e+00	0.3593	3.332656	0.000649	6.485440	1.098663	0.000130
  20	1.8905e+00	0.3786	3.469918	0.000689	6.890780	1.167330	0.000138
  21	1.9900e+00	0.3996	3.619292	0.000750	7.498790	1.270329	0.000150
  22	2.0895e+00	0.4189	3.691961	0.000365	3.648060	0.617998	0.000073
  23	2.1890e+00	0.4395	3.873632	0.000912	9.120151	1.544995	0.000183
  24	2.2885e+00	0.4581	3.978597	0.000527	5.269420	0.892664	0.000105
  25	2.3880e+00	0.4787	4.111823	0.000669	6.688110	1.132997	0.000134
  26	2.4875e+00	0.4984	4.224863	0.000567	5.674760	0.961330	0.000114
  27	2.5870e+00	0.5189	4.317717	0.000466	4.661410	0.789664	0.000093
  28	2.6865e+00	0.5386	4.438831	0.000608	6.080100	1.029997	0.000122
  29	2.7860e+00	0.5585	4.592242	0.000770	7.701460	1.304663	0.000154
  30	2.8855e+00	0.5782	4.705282	0.000567	5.674760	0.961330	0.000114
  31	2.9850e+00	0.5983	4.870804	0.000831	8.309471	1.407662	0.000166
  32	3.0845e+00	0.6179	4.939436	0.000345	3.445390	0.583665	0.000069
  33	3.1840e+00	0.6384	5.084772	0.000730	7.296120	1.235996	0.000146
  34	3.2835e+00	0.6586	5.230109	0.000730	7.296120	1.235996	0.000146
  35	3.3830e+00	0.6780	5.351223	0.000608	6.080100	1.029997	0.000122
  36	3.4825e+00	0.6978	5.472337	0.000608	6.080100	1.029997	0.000122
  37	3.5820e+00	0.7186	5.621712	0.000750	7.498790	1.270329	0.000150
  38	3.6815e+00	0.7383	5.730714	0.000547	5.472090	0.926997	0.000110
  39	3.7810e+00	0.7589	5.872014	0.000709	7.093450	1.201663	0.000142
  40	3.8805e+00	0.7772	6.005239	0.000669	6.688110	1.132997	0.000134
  41	3.9800e+00	0.7982	6.142502	0.000689	6.890780	1.167330	0.000138
  42	4.0795e+00	0.8172	6.223245	0.000405	4.053400	0.686665	0.000081
  43	4.1790e+00	0.8385	6.384730	0.000811	8.106800	1.373329	0.000162
  44	4.2785e+00	0.8579	6.509881	0.000628	6.282770	1.064330	0.000126
  45	4.3780e+00	0.8778	6.671367	0.000811	8.106800	1.373329	0.000162
  46	4.4775e+00	0.8987	6.748072	0.000385	3.850730	0.652331	0.000077
  47	4.5770e+00	0.9185	6.861112	0.000567	5.674760	0.961330	0.000114
  48	4.6765e+00	0.9383	7.034709	0.000871	8.714811	1.476329	0.000174
  49	4.7760e+00	0.9576	7.184083	0.000750	7.498790	1.270329	0.000150
  50	4.8755e+00	0.9774	7.301160	0.000588	5.877430	0.995664	0.000118
  51	4.9750e+00	0.9978	7.442460	0.000709	7.093450	1.201663	0.000142
  52	5.0745e+00	1.0173	7.563574	0.000608	6.080100	1.029997	0.000122
  53	5.1740e+00	1.0374	7.680651	0.000588	5.877430	0.995664	0.000118
  54	5.2735e+00	1.0578	7.817913	0.000689	6.890780	1.167330	0.000138
  55	5.3730e+00	1.0767	7.983436	0.000831	8.309471	1.407662	0.000166
  56	5.4725e+00	1.0972	8.100513	0.000588	5.877430	0.995664	0.000118
  57	5.5720e+00	1.1171	8.237775	0.000689	6.890780	1.167330	0.000138
  58	5.6715e+00	1.1370	8.354852	0.000588	5.877430	0.995664	0.000118
  59	5.7710e+00	1.1575	8.520375	0.000831	8.309471	1.407662	0.000166
  60	5.8705e+00	1.1764	8.629378	0.000547	5.472090	0.926997	0.000110
  61	5.9700e+00	1.1970	8.782789	0.000770	7.701460	1.304663	0.000154
  62	6.0695e+00	1.2173	8.835272	0.000263	2.634710	0.446332	0.000053
  63	6.1690e+00	1.2370	9.029054	0.000973	9.728161	1.647995	0.000195
  64	6.2685e+00	1.2564	9.150168	0.000608	6.080100	1.029997	0.000122
  65	6.3680e+00	1.2757	9.303579	0.000770	7.701460	1.304663	0.000154
  66	6.4675e+00	1.2956	9.432768	0.000649	6.485440	1.098663	0.000130
  67	6.5670e+00	1.3161	9.574067	0.000709	7.093450	1.201663	0.000142
  68	6.6665e+00	1.3348	9.723441	0.000750	7.498790	1.270329	0.000150
  69	6.7660e+00	1.3563	9.884927	0.000811	8.106800	1.373329	0.000162
  70	6.8655e+00	1.3758	9.989892	0.000527	5.269420	0.892664	0.000105
  71	6.9650e+00	1.3958	10.119081	0.000649	6.485440	1.098663	0.000130
  72	7.0645e+00	1.4156	10.280566	0.000811	8.106800	1.373329	0.000162
  73	7.1640e+00	1.4359	10.385532	0.000527	5.269420	0.892664	0.000105
  74	7.2635e+00	1.4556	10.551054	0.000831	8.309471	1.407662	0.000166
  75	7.3630e+00	1.4750	10.660057	0.000547	5.472090	0.926997	0.000110
  76	7.4625e+00	1.4964	10.817505	0.000790	7.904130	1.338996	0.000158
  77	7.5620e+00	1.5148	10.958805	0.000709	7.093450	1.201663	0.000142
  78	7.6615e+00	1.5348	11.116253	0.000790	7.904130	1.338996	0.000158
  79	7.7610e+00	1.5554	11.180847	0.000324	3.242720	0.549332	0.000065
  80	7.8605e+00	1.5752	11.374630	0.000973	9.728161	1.647995	0.000195
  81	7.9600e+00	1.5954	11.491707	0.000588	5.877430	0.995664	0.000118
  82	8.0595e+00	1.6148	11.633007	0.000709	7.093450	1.201663	0.000142
  83	8.1590e+00	1.6348	11.782381	0.000750	7.498790	1.270329	0.000150
  84	8.2585e+00	1.6544	11.903495	0.000608	6.080100	1.029997	0.000122
  85	8.3580e+00	1.6750	12.016535	0.000567	5.674760	0.961330	0.000114
  86	8.4575e+00	1.6943	12.182057	0.000831	8.309471	1.407662	0.000166
  87	8.5570e+00	1.7150	12.315283	0.000669	6.688110	1.132997	0.000134
  88	8.6565e+00	1.7351	12.412174	0.000486	4.864080	0.823998	0.000097
  89	8.7560e+00	1.7545	12.549436	0.000689	6.890780	1.167330	0.000138
  90	8.8555e+00	1.7748	12.727070	0.000892	8.917481	1.510662	0.000179
  91	8.9550e+00	1.7941	12.840110	0.000567	5.674760	0.961330	0.000114
  92	9.0545e+00	1.8139	13.005633	0.000831	8.309471	1.407662	0.000166
  93	9.1540e+00	1.8337	13.126747	0.000608	6.080100	1.029997	0.000122
  94	9.2535e+00	1.8537	13.292269	0.000831	8.309471	1.407662	0.000166
  95	9.3530e+00	1.8747	13.429532	0.000689	6.890780	1.167330	0.000138
  96	9.4525e+00	1.8938	13.530460	0.000507	5.066750	0.858331	0.000101
  97	9.5520e+00	1.9140	13.687909	0.000790	7.904130	1.338996	0.000158
  98	9.6515e+00	1.9332	13.829208	0.000709	7.093450	1.201663	0.000142
  99	9.7510e+00	1.9535	13.934174	0.000527	5.269420	0.892664	0.000105
 100	9.8505e+00	1.9727	14.103734	0.000851	8.512141	1.441996	0.000170
 101	9.9500e+00	1.9939	14.240996	0.000689	6.890780	1.167330	0.000138
 102	1.0050e+01	2.0140	14.358073	0.000588	5.877430	0.995664	0.000118
 103	1.0149e+01	2.0336	14.531670	0.000871	8.714811	1.476329	0.000174
 104	1.0248e+01	2.0536	14.644710	0.000567	5.674760	0.961330	0.000114
 105	1.0348e+01	2.0733	14.773898	0.000649	6.485440	1.098663	0.000130
 106	1.0447e+01	2.0934	14.915198	0.000709	7.093450	1.201663	0.000142
 107	1.0547e+01	2.1136	15.052461	0.000689	6.890780	1.167330	0.000138
 108	1.0646e+01	2.1325	15.173575	0.000608	6.080100	1.029997	0.000122
 109	1.0746e+01	2.1532	15.326986	0.000770	7.701460	1.304663	0.000154
 110	1.0845e+01	2.1727	15.472323	0.000730	7.296120	1.235996	0.000146
 111	1.0945e+01	2.1926	15.617660	0.000730	7.296120	1.235996	0.000146
 112	1.1044e+01	2.2131	15.742811	0.000628	6.282770	1.064330	0.000126
 113	1.1144e+01	2.2314	15.880073	0.000689	6.890780	1.167330	0.000138
 114	1.1243e+01	2.2530	16.009262	0.000649	6.485440	1.098663	0.000130
 115	1.1343e+01	2.2729	16.174784	0.000831	8.309471	1.407662	0.000166
 116	1.1443e+01	2.2945	16.308010	0.000669	6.688110	1.132997	0.000134
 117	1.1542e+01	2.3122	16.457384	0.000750	7.498790	1.270329	0.000150
 118	1.1642e+01	2.3324	16.618869	0.000811	8.106800	1.373329	0.000162
 119	1.1741e+01	2.3525	16.687501	0.000345	3.445390	0.583665	0.000069
 120	1.1841e+01	2.3719	16.848986	0.000811	8.106800	1.373329	0.000162
 121	1.1940e+01	2.3928	16.957989	0.000547	5.472090	0.926997	0.000110
 122	1.2040e+01	2.4123	17.095251	0.000689	6.890780	1.167330	0.000138
 123	1.2139e+01	2.4322	17.268848	0.000871	8.714811	1.476329	0.000174
 124	1.2239e+01	2.4520	17.410148	0.000709	7.093450	1.201663	0.000142
 125	1.2338e+01	2.4725	17.539336	0.000649	6.485440	1.098663	0.000130
 126	1.2438e+01	2.4921	17.676599	0.000689	6.890780	1.167330	0.000138
 127	1.2537e+01	2.5115	17.785601	0.000547	5.472090	0.926997	0.000110
 128	1.2636e+01	2.5312	17.987458	0.001013	10.133501	1.716661	0.000203
 129	1.2736e+01	2.5512	18.084350	0.000486	4.864080	0.823998	0.000097
 130	1.2835e+01	2.5719	18.209501	0.000628	6.282770	1.064330	0.000126
 131	1.2935e+01	2.5913	18.330615	0.000608	6.080100	1.029997	0.000122
 132	1.3034e+01	2.6110	18.463840	0.000669	6.688110	1.132997	0.000134
 133	1.3134e+01	2.6308	18.617251	0.000770	7.701460	1.304663	0.000154
 134	1.3233e+01	2.6501	18.750477	0.000669	6.688110	1.132997	0.000134
 135	1.3333e+01	2.6713	18.867554	0.000588	5.877430	0.995664	0.000118
 136	1.3432e+01	2.6908	18.996742	0.000649	6.485440	1.098663	0.000130
 137	1.3532e+01	2.7111	19.158228	0.000811	8.106800	1.373329	0.000162
 138	1.3632e+01	2.7316	19.267230	0.000547	5.472090	0.926997	0.000110
 139	1.3731e+01	2.7496	19.412567	0.000730	7.296120	1.235996	0.000146
 140	1.3831e+01	2.7709	19.513496	0.000507	5.066750	0.858331	0.000101
 141	1.3930e+01	2.7916	19.646721	0.000669	6.688110	1.132997	0.000134
 142	1.4030e+01	2.8106	19.816281	0.000851	8.512141	1.441996	0.000170
 143	1.4129e+01	2.8309	19.945469	0.000649	6.485440	1.098663	0.000130
 144	1.4229e+01	2.8497	20.054472	0.000547	5.472090	0.926997	0.000110
 145	1.4328e+01	2.8701	20.211920	0.000790	7.904130	1.338996	0.000158
 146	1.4428e+01	2.8905	20.308811	0.000486	4.864080	0.823998	0.000097
 147	1.4527e+01	2.9098	20.458185	0.000750	7.498790	1.270329	0.000150
 148	1.4627e+01	2.9302	20.595448	0.000689	6.890780	1.167330	0.000138
 149	1.4726e+01	2.9498	20.696376	0.000507	5.066750	0.858331	0.000101
 150	1.4825e+01	2.9697	20.833639	0.000689	6.890780	1.167330	0.000138
 151	1.4925e+01	2.9893	20.991087	0.000790	7.904130	1.338996	0.000158
 152	1.5024e+01	3.0103	21.087979	0.000486	4.864080	0.823998	0.000097
 153	1.5124e+01	3.0303	21.221204	0.000669	6.688110	1.132997	0.000134
 154	1.5223e+01	3.0495	21.358467	0.000689	6.890780	1.167330	0.000138
 155	1.5323e+01	3.0700	21.479581	0.000608	6.080100	1.029997	0.000122
 156	1.5422e+01	3.0895	21.637029	0.000790	7.904130	1.338996	0.000158
 157	1.5522e+01	3.1100	21.725846	0.000446	4.458740	0.755331	0.000089
 158	1.5621e+01	3.1298	21.883294	0.000790	7.904130	1.338996	0.000158
 159	1.5721e+01	3.1495	22.032668	0.000750	7.498790	1.270329	0.000150
 160	1.5820e+01	3.1688	22.133597	0.000507	5.066750	0.858331	0.000101
 161	1.5920e+01	3.1900	22.234525	0.000507	5.066750	0.858331	0.000101
 162	1.6020e+01	3.2088	22.396011	0.000811	8.106800	1.373329	0.000162
 163	1.6119e+01	3.2296	22.513087	0.000588	5.877430	0.995664	0.000118
 164	1.6218e+01	3.2488	22.618053	0.000527	5.269420	0.892664	0.000105
 165	1.6318e+01	3.2688	22.747241	0.000649	6.485440	1.098663	0.000130
 166	1.6418e+01	3.2885	22.900652	0.000770	7.701460	1.304663	0.000154
 167	1.6517e+01	3.3092	23.005618	0.000527	5.269420	0.892664	0.000105
 168	1.6616e+01	3.3292	23.130769	0.000628	6.282770	1.064330	0.000126
 169	1.6716e+01	3.3487	23.268032	0.000689	6.890780	1.167330	0.000138
 170	1.6816e+01	3.3694	23.385109	0.000588	5.877430	0.995664	0.000118
 171	1.6915e+01	3.3887	23.490074	0.000527	5.269420	0.892664	0.000105
 172	1.7015e+01	3.4078	23.671745	0.000912	9.120151	1.544995	0.000183
 173	1.7114e+01	3.4286	23.809008	0.000689	6.890780	1.167330	0.000138
 174	1.7213e+01	3.4484	23.909936	0.000507	5.066750	0.858331	0.000101
 175	1.7313e+01	3.4686	24.063348	0.000770	7.701460	1.304663	0.000154
 176	1.7413e+01	3.4883	24.144090	0.000405	4.053400	0.686665	0.000081
 177	1.7512e+01	3.5082	24.321724	0.000892	8.917481	1.510662	0.000179
 178	1.7611e+01	3.5281	24.422653	0.000507	5.066750	0.858331	0.000101
 179	1.7711e+01	3.5477	24.539730	0.000588	5.877430	0.995664	0.000118
 180	1.7811e+01	3.5679	24.664881	0.000628	6.282770	1.064330	0.000126
 181	1.7910e+01	3.5882	24.798106	0.000669	6.688110	1.132997	0.000134
 182	1.8009e+01	3.6071	24.915183	0.000588	5.877430	0.995664	0.000118
 183	1.8109e+01	3.6278	25.004000	0.000446	4.458740	0.755331	0.000089
 184	1.8209e+01	3.6471	25.165486	0.000811	8.106800	1.373329	0.000162
 185	1.8308e+01	3.6678	25.290637	0.000628	6.282770	1.064330	0.000126
 186	1.8407e+01	3.6877	25.375417	0.000426	4.256070	0.720998	0.000085
 187	1.8507e+01	3.7083	25.520754	0.000730	7.296120	1.235996	0.000146
 188	1.8607e+01	3.7273	25.597459	0.000385	3.850730	0.652331	0.000077
 189	1.8706e+01	3.7481	25.742796	0.000730	7.296120	1.235996	0.000146
 190	1.8805e+01	3.7676	25.908319	0.000831	8.309471	1.407662	0.000166
 191	1.8905e+01	3.7861	26.061730	0.000770	7.701460	1.304663	0.000154
 192	1.9005e+01	3.8058	26.182844	0.000608	6.080100	1.029997	0.000122
 193	1.9104e+01	3.8268	26.275698	0.000466	4.661410	0.789664	0.000093
 194	1.9203e+01	3.8471	26.392775	0.000588	5.877430	0.995664	0.000118
 195	1.9303e+01	3.8671	26.485629	0.000466	4.661410	0.789664	0.000093
 196	1.9402e+01	3.8854	26.622892	0.000689	6.890780	1.167330	0.000138
 197	1.9502e+01	3.9068	26.723820	0.000507	5.066750	0.858331	0.000101
 198	1.9602e+01	3.9263	26.844934	0.000608	6.080100	1.029997	0.000122
 199	1.9701e+01	3.9462	26.978160	0.000669	6.688110	1.132997	0.000134
 200	1.9800e+01	3.9660	27.091199	0.000567	5.674760	0.961330	0.000114
 201	1.9900e+01	3.9864	27.216351	0.000628	6.282770	1.064330	0.000126
 202	2.0000e+01	4.0064	27.297093	0.000405	4.053400	0.686665	0.000081
 203	2.0099e+01	4.0263	27.466653	0.000851	8.512141	1.441996	0.000170
 204	2.0198e+01	4.0456	27.551433	0.000426	4.256070	0.720998	0.000085
 205	2.0298e+01	4.0661	27.704844	0.000770	7.701460	1.304663	0.000154
 206	2.0398e+01	4.0856	27.801735	0.000486	4.864080	0.823998	0.000097
 207	2.0497e+01	4.1058	27.947072	0.000730	7.296120	1.235996	0.000146
 208	2.0596e+01	4.1250	28.048001	0.000507	5.066750	0.858331	0.000101
 209	2.0696e+01	4.1454	28.173152	0.000628	6.282770	1.064330	0.000126
 210	2.0796e+01	4.1659	28.286192	0.000567	5.674760	0.961330	0.000114
 211	2.0895e+01	4.1851	28.431528	0.000730	7.296120	1.235996	0.000146
 212	2.0994e+01	4.2059	28.500160	0.000345	3.445390	0.583665	0.000069
 213	2.1094e+01	4.2254	28.657608	0.000790	7.904130	1.338996	0.000158
 214	2.1194e+01	4.2455	28.782759	0.000628	6.282770	1.064330	0.000126
 215	2.1293e+01	4.2651	28.915985	0.000669	6.688110	1.132997	0.000134
 216	2.1392e+01	4.2860	29.024987	0.000547	5.472090	0.926997	0.000110
 217	2.1492e+01	4.3066	29.113804	0.000446	4.458740	0.755331	0.000089
 218	2.1591e+01	4.3249	29.271253	0.000790	7.904130	1.338996	0.000158
 219	2.1691e+01	4.3455	29.376218	0.000527	5.269420	0.892664	0.000105
 220	2.1791e+01	4.3652	29.501369	0.000628	6.282770	1.064330	0.000126
 221	2.1890e+01	4.3847	29.606335	0.000527	5.269420	0.892664	0.000105
 222	2.1989e+01	4.4048	29.735523	0.000649	6.485440	1.098663	0.000130
 223	2.2089e+01	4.4254	29.888934	0.000770	7.701460	1.304663	0.000154
 224	2.2189e+01	4.4448	30.001974	0.000567	5.674760	0.961330	0.000114
 225	2.2288e+01	4.4640	30.106940	0.000527	5.269420	0.892664	0.000105
 226	2.2387e+01	4.4845	30.236128	0.000649	6.485440	1.098663	0.000130
 227	2.2487e+01	4.5049	30.316871	0.000405	4.053400	0.686665	0.000081
 228	2.2587e+01	4.5251	30.470282	0.000770	7.701460	1.304663	0.000154
 229	2.2686e+01	4.5443	30.587359	0.000588	5.877430	0.995664	0.000118
 230	2.2785e+01	4.5644	30.704436	0.000588	5.877430	0.995664	0.000118
 231	2.2885e+01	4.5843	30.833624	0.000649	6.485440	1.098663	0.000130
 232	2.2985e+01	4.6043	30.926478	0.000466	4.661410	0.789664	0.000093
 233	2.3084e+01	4.6243	31.047592	0.000608	6.080100	1.029997	0.000122
 234	2.3183e+01	4.6435	31.196966	0.000750	7.498790	1.270329	0.000150
 235	2.3283e+01	4.6639	31.318080	0.000608	6.080100	1.029997	0.000122
 236	2.3383e+01	4.6844	31.427083	0.000547	5.472090	0.926997	0.000110
 237	2.3482e+01	4.7031	31.532049	0.000527	5.269420	0.892664	0.000105
 238	2.3581e+01	4.7238	31.685460	0.000770	7.701460	1.304663	0.000154
 239	2.3681e+01	4.7430	31.782351	0.000486	4.864080	0.823998	0.000097
 240	2.3780e+01	4.7640	31.883279	0.000507	5.066750	0.858331	0.000101
 241	2.3880e+01	4.7826	32.020542	0.000689	6.890780	1.167330	0.000138
 242	2.3980e+01	4.8032	32.157805	0.000689	6.890780	1.167330	0.000138
 243	2.4079e+01	4.8235	32.258733	0.000507	5.066750	0.858331	0.000101
 244	2.4178e+01	4.8431	32.359662	0.000507	5.066750	0.858331	0.000101
 245	2.4278e+01	4.8626	32.476738	0.000588	5.877430	0.995664	0.000118
 246	2.4378e+01	4.8817	32.565555	0.000446	4.458740	0.755331	0.000089
 247	2.4477e+01	4.9032	32.702818	0.000689	6.890780	1.167330	0.000138
 248	2.4576e+01	4.9230	32.864303	0.000811	8.106800	1.373329	0.000162
 249	2.4676e+01	4.9426	32.973306	0.000547	5.472090	0.926997	0.000110
 250	2.4776e+01	4.9636	33.090383	0.000588	5.877430	0.995664	0.000118
 251	2.4875e+01	4.9822	33.183237	0.000466	4.661410	0.789664	0.000093
 252	2.4974e+01	5.0033	33.328574	0.000730	7.296120	1.235996	0.000146
 253	2.5074e+01	5.0237	33.449688	0.000608	6.080100	1.029997	0.000122
 254	2.5174e+01	5.0433	33.590988	0.000709	7.093450	1.201663	0.000142
 255	2.5273e+01	5.0622	33.671731	0.000405	4.053400	0.686665	0.000081
 256	2.5372e+01	5.0823	33.817068	0.000730	7.296120	1.235996	0.000146
 257	2.5472e+01	5.1025	33.897810	0.000405	4.053400	0.686665	0.000081
 258	2.5572e+01	5.1223	34.018924	0.000608	6.080100	1.029997	0.000122
 259	2.5671e+01	5.1415	34.131964	0.000567	5.674760	0.961330	0.000114
 260	2.5770e+01	5.1611	34.245004	0.000567	5.674760	0.961330	0.000114
 261	2.5870e+01	5.1818	34.374192	0.000649	6.485440	1.098663	0.000130
 262	2.5970e+01	5.2010	34.507418	0.000669	6.688110	1.132997	0.000134
 263	2.6069e+01	5.2221	34.624495	0.000588	5.877430	0.995664	0.000118
 264	2.6169e+01	5.2416	34.701200	0.000385	3.850730	0.652331	0.000077
 265	2.6268e+01	5.2612	34.838463	0.000689	6.890780	1.167330	0.000138
 266	2.6367e+01	5.2819	34.963614	0.000628	6.282770	1.064330	0.000126
 267	2.6467e+01	5.3014	35.072617	0.000547	5.472090	0.926997	0.000110
 268	2.6567e+01	5.3216	35.181619	0.000547	5.472090	0.926997	0.000110
 269	2.6666e+01	5.3408	35.339068	0.000790	7.904130	1.338996	0.000158
 270	2.6765e+01	5.3606	35.460182	0.000608	6.080100	1.029997	0.000122
 271	2.6865e+01	5.3802	35.581296	0.000608	6.080100	1.029997	0.000122
 272	2.6965e+01	5.4015	35.674150	0.000466	4.661410	0.789664	0.000093
 273	2.7064e+01	5.4205	35.746818	0.000365	3.648060	0.617998	0.000073
 274	2.7163e+01	5.4403	35.880044	0.000669	6.688110	1.132997	0.000134
 275	2.7263e+01	5.4613	36.001158	0.000608	6.080100	1.029997	0.000122
 276	2.7363e+01	5.4800	36.134383	0.000669	6.688110	1.132997	0.000134
 277	2.7462e+01	5.5006	36.267609	0.000669	6.688110	1.132997	0.000134
 278	2.7561e+01	5.5196	36.348352	0.000405	4.053400	0.686665	0.000081
 279	2.7661e+01	5.5413	36.493689	0.000730	7.296120	1.235996	0.000146
 280	2.7761e+01	5.5608	36.566357	0.000365	3.648060	0.617998	0.000073
 281	2.7860e+01	5.5804	36.723805	0.000790	7.904130	1.338996	0.000158
 282	2.7959e+01	5.5996	36.832808	0.000547	5.472090	0.926997	0.000110
 283	2.8059e+01	5.6213	36.933736	0.000507	5.066750	0.858331	0.000101
 284	2.8159e+01	5.6402	37.062925	0.000649	6.485440	1.098663	0.000130
 285	2.8258e+01	5.6597	37.175964	0.000567	5.674760	0.961330	0.000114
 286	2.8358e+01	5.6789	37.284967	0.000547	5.472090	0.926997	0.000110
 287	2.8457e+01	5.7000	37.385896	0.000507	5.066750	0.858331	0.000101
 288	2.8556e+01	5.7204	37.519121	0.000669	6.688110	1.132997	0.000134
 289	2.8656e+01	5.7403	37.656384	0.000689	6.890780	1.167330	0.000138
 290	2.8756e+01	5.7592	37.737126	0.000405	4.053400	0.686665	0.000081
 291	2.8855e+01	5.7796	37.874389	0.000689	6.890780	1.167330	0.000138
 292	2.8954e+01	5.7995	37.987429	0.000567	5.674760	0.961330	0.000114
 293	2.9054e+01	5.8184	38.064134	0.000385	3.850730	0.652331	0.000077
 294	2.9154e+01	5.8404	38.193323	0.000649	6.485440	1.098663	0.000130
 295	2.9253e+01	5.8593	38.270028	0.000385	3.850730	0.652331	0.000077
 296	2.9352e+01	5.8788	38.395179	0.000628	6.282770	1.064330	0.000126
 297	2.9452e+01	5.8984	38.528405	0.000669	6.688110	1.132997	0.000134
 298	2.9552e+01	5.9191	38.633370	0.000527	5.269420	0.892664	0.000105
 299	2.9651e+01	5.9405	38.742373	0.000547	5.472090	0.926997	0.000110
 300	2.9750e+01	5.9588	38.839264	0.000486	4.864080	0.823998	0.000097
 301	2.9850e+01	5.9786	38.952304	0.000567	5.674760	0.961330	0.000114
 302	2.9950e+01	5.9991	39.085530	0.000669	6.688110	1.132997	0.000134
 303	3.0049e+01	6.0186	39.202607	0.000588	5.877430	0.995664	0.000118
 304	3.0148e+01	6.0378	39.271238	0.000345	3.445390	0.583665	0.000069
 305	3.0248e+01	6.0583	39.444835	0.000871	8.714811	1.476329	0.000174
 306	3.0348e+01	6.0796	39.521540	0.000385	3.850730	0.652331	0.000077
 307	3.0447e+01	6.0986	39.598246	0.000385	3.850730	0.652331	0.000077
 308	3.0547e+01	6.1181	39.711286	0.000567	5.674760	0.961330	0.000114
 309	3.0646e+01	6.1376	39.832400	0.000608	6.080100	1.029997	0.000122
 310	3.0745e+01	6.1578	39.933328	0.000507	5.066750	0.858331	0.000101
 311	3.0845e+01	6.1773	40.074628	0.000709	7.093450	1.201663	0.000142
 312	3.0945e+01	6.1980	40.163445	0.000446	4.458740	0.755331	0.000089
 313	3.1044e+01	6.2182	40.240150	0.000385	3.850730	0.652331	0.000077
 314	3.1143e+01	6.2389	40.361265	0.000608	6.080100	1.029997	0.000122
 315	3.1243e+01	6.2572	40.458156	0.000486	4.864080	0.823998	0.000097
 316	3.1343e+01	6.2780	40.563121	0.000527	5.269420	0.892664	0.000105
 317	3.1442e+01	6.2978	40.664050	0.000507	5.066750	0.858331	0.000101
 318	3.1541e+01	6.3171	40.805349	0.000709	7.093450	1.201663	0.000142
 319	3.1641e+01	6.3372	40.861869	0.000284	2.837380	0.480665	0.000057
 320	3.1741e+01	6.3567	41.019318	0.000790	7.904130	1.338996	0.000158
 321	3.1840e+01	6.3769	41.104098	0.000426	4.256070	0.720998	0.000085
 322	3.1939e+01	6.3964	41.209063	0.000527	5.269420	0.892664	0.000105
 323	3.2039e+01	6.4165	41.318066	0.000547	5.472090	0.926997	0.000110
 324	3.2139e+01	6.4370	41.423031	0.000527	5.269420	0.892664	0.000105
 325	3.2238e+01	6.4565	41.540108	0.000588	5.877430	0.995664	0.000118
 326	3.2337e+01	6.4773	41.661222	0.000608	6.080100	1.029997	0.000122
 327	3.2437e+01	6.4959	41.705631	0.000223	2.229370	0.377666	0.000045
 328	3.2536e+01	6.5170	41.802522	0.000486	4.864080	0.823998	0.000097
 329	3.2636e+01	6.5362	41.919599	0.000588	5.877430	0.995664	0.000118
 330	3.2736e+01	6.5563	42.052824	0.000669	6.688110	1.132997	0.000134
 331	3.2835e+01	6.5752	42.137604	0.000426	4.256070	0.720998	0.000085
 332	3.2934e+01	6.5954	42.234496	0.000486	4.864080	0.823998	0.000097
 333	3.3034e+01	6.6158	42.327350	0.000466	4.661410	0.789664	0.000093
 334	3.3133e+01	6.6357	42.436352	0.000547	5.472090	0.926997	0.000110
 335	3.3233e+01	6.6552	42.529206	0.000466	4.661410	0.789664	0.000093
 336	3.3333e+01	6.6759	42.662432	0.000669	6.688110	1.132997	0.000134
 337	3.3432e+01	6.6955	42.743175	0.000405	4.053400	0.686665	0.000081
 338	3.3532e+01	6.7159	42.856214	0.000567	5.674760	0.961330	0.000114
 339	3.3631e+01	6.7352	42.936957	0.000405	4.053400	0.686665	0.000081
 340	3.3730e+01	6.7553	43.045960	0.000547	5.472090	0.926997	0.000110
 341	3.3830e+01	6.7767	43.159000	0.000567	5.674760	0.961330	0.000114
 342	3.3929e+01	6.7944	43.243779	0.000426	4.256070	0.720998	0.000085
 343	3.4029e+01	6.8151	43.372968	0.000649	6.485440	1.098663	0.000130
 344	3.4129e+01	6.8349	43.425451	0.000263	2.634710	0.446332	0.000053
 345	3.4228e+01	6.8560	43.570787	0.000730	7.296120	1.235996	0.000146
 346	3.4328e+01	6.8752	43.635382	0.000324	3.242720	0.549332	0.000065
 347	3.4427e+01	6.8954	43.760533	0.000628	6.282770	1.064330	0.000126
 348	3.4526e+01	6.9146	43.865498	0.000527	5.269420	0.892664	0.000105
 349	3.4626e+01	6.9347	43.954315	0.000446	4.458740	0.755331	0.000089
 350	3.4725e+01	6.9549	44.022947	0.000345	3.445390	0.583665	0.000069
 351	3.4825e+01	6.9747	44.152135	0.000649	6.485440	1.098663	0.000130
 352	3.4925e+01	6.9942	44.240952	0.000446	4.458740	0.755331	0.000089
 353	3.5024e+01	7.0138	44.341880	0.000507	5.066750	0.858331	0.000101
 354	3.5123e+01	7.0342	44.446846	0.000527	5.269420	0.892664	0.000105
 355	3.5223e+01	7.0544	44.539700	0.000466	4.661410	0.789664	0.000093
 356	3.5322e+01	7.0745	44.652740	0.000567	5.674760	0.961330	0.000114
 357	3.5422e+01	7.0953	44.729445	0.000385	3.850730	0.652331	0.000077
 358	3.5522e+01	7.1142	44.846522	0.000588	5.877430	0.995664	0.000118
 359	3.5621e+01	7.1343	44.915154	0.000345	3.445390	0.583665	0.000069
 360	3.5721e+01	7.1539	45.024156	0.000547	5.472090	0.926997	0.000110
 361	3.5820e+01	7.1734	45.137196	0.000567	5.674760	0.961330	0.000114
 362	3.5919e+01	7.1941	45.226013	0.000446	4.458740	0.755331	0.000089
 363	3.6019e+01	7.2137	45.318867	0.000466	4.661410	0.789664	0.000093
 364	3.6118e+01	7.2341	45.427870	0.000547	5.472090	0.926997	0.000110
 365	3.6218e+01	7.2533	45.480353	0.000263	2.634710	0.446332	0.000053
 366	3.6318e+01	7.2735	45.609541	0.000649	6.485440	1.098663	0.000130
 367	3.6417e+01	7.2936	45.690284	0.000405	4.053400	0.686665	0.000081
 368	3.6517e+01	7.3132	45.795249	0.000527	5.269420	0.892664	0.000105
 369	3.6616e+01	7.3330	45.871955	0.000385	3.850730	0.652331	0.000077
 370	3.6715e+01	7.3528	45.960772	0.000446	4.458740	0.755331	0.000089
 371	3.6815e+01	7.3730	46.085923	0.000628	6.282770	1.064330	0.000126
 372	3.6914e+01	7.3931	46.174740	0.000446	4.458740	0.755331	0.000089
 373	3.7014e+01	7.4123	46.275668	0.000507	5.066750	0.858331	0.000101
 374	3.7114e+01	7.4328	46.392745	0.000588	5.877430	0.995664	0.000118
 375	3.7213e+01	7.4520	46.465414	0.000365	3.648060	0.617998	0.000073
 376	3.7313e+01	7.4731	46.562305	0.000486	4.864080	0.823998	0.000097
 377	3.7412e+01	7.4932	46.667271	0.000527	5.269420	0.892664	0.000105
 378	3.7511e+01	7.5127	46.743976	0.000385	3.850730	0.652331	0.000077
 379	3.7611e+01	7.5329	46.832793	0.000446	4.458740	0.755331	0.000089
 380	3.7711e+01	7.5527	46.925647	0.000466	4.661410	0.789664	0.000093
 381	3.7810e+01	7.5726	47.050798	0.000628	6.282770	1.064330	0.000126
 382	3.7910e+01	7.5918	47.111355	0.000304	3.040050	0.514998	0.000061
 383	3.8009e+01	7.6125	47.252655	0.000709	7.093450	1.201663	0.000142
 384	3.8108e+01	7.6327	47.345509	0.000466	4.661410	0.789664	0.000093
 385	3.8208e+01	7.6525	47.422215	0.000385	3.850730	0.652331	0.000077
 386	3.8307e+01	7.6717	47.527180	0.000527	5.269420	0.892664	0.000105
 387	3.8407e+01	7.6916	47.628109	0.000507	5.066750	0.858331	0.000101
 388	3.8507e+01	7.7117	47.725000	0.000486	4.864080	0.823998	0.000097
 389	3.8606e+01	7.7312	47.793631	0.000345	3.445390	0.583665	0.000069
 390	3.8706e+01	7.7508	47.926857	0.000669	6.688110	1.132997	0.000134
 391	3.8805e+01	7.7715	48.043934	0.000588	5.877430	0.995664	0.000118
 392	3.8904e+01	7.7911	48.072194	0.000142	1.418690	0.240333	0.000028
 393	3.9004e+01	7.8118	48.185234	0.000567	5.674760	0.961330	0.000114
 394	3.9103e+01	7.8313	48.278088	0.000466	4.661410	0.789664	0.000093
 395	3.9203e+01	7.8509	48.395165	0.000588	5.877430	0.995664	0.000118
 396	3.9303e+01	7.8710	48.500130	0.000527	5.269420	0.892664	0.000105
 397	3.9402e+01	7.8905	48.605096	0.000527	5.269420	0.892664	0.000105
 398	3.9502e+01	7.9119	48.742358	0.000689	6.890780	1.167330	0.000138
 399	3.9601e+01	7.9314	48.806953	0.000324	3.242720	0.549332	0.000065
 400	3.9700e+01	7.9513	48.863472	0.000284	2.837380	0.480665	0.000057
 401	3.9800e+01	7.9711	48.968438	0.000527	5.269420	0.892664	0.000105
 402	3.9900e+01	7.9903	49.045144	0.000385	3.850730	0.652331	0.000077
 403	3.9999e+01	8.0108	49.194518	0.000750	7.498790	1.270329	0.000150
 404	4.0099e+01	8.0303	49.287372	0.000466	4.661410	0.789664	0.000093
 405	4.0198e+01	8.0499	49.331780	0.000223	2.229370	0.377666	0.000045
 406	4.0297e+01	8.0709	49.460968	0.000649	6.485440	1.098663	0.000130
 407	4.0397e+01	8.0901	49.553823	0.000466	4.661410	0.789664	0.000093
 408	4.0496e+01	8.1097	49.654751	0.000507	5.066750	0.858331	0.000101
 409	4.0596e+01	8.1304	49.755679	0.000507	5.066750	0.858331	0.000101
 410	4.0696e+01	8.1499	49.856608	0.000507	5.066750	0.858331	0.000101
 411	4.0795e+01	8.1695	49.941388	0.000426	4.256070	0.720998	0.000085
 412	4.0895e+01	8.1896	50.018093	0.000385	3.850730	0.652331	0.000077
 413	4.0994e+01	8.2104	50.114984	0.000486	4.864080	0.823998	0.000097
 414	4.1093e+01	8.2293	50.256284	0.000709	7.093450	1.201663	0.000142
 415	4.1193e+01	8.2494	50.353175	0.000486	4.864080	0.823998	0.000097
 416	4.1292e+01	8.2693	50.429881	0.000385	3.850730	0.652331	0.000077
 417	4.1392e+01	8.2891	50.518698	0.000446	4.458740	0.755331	0.000089
 418	4.1492e+01	8.3099	50.607515	0.000446	4.458740	0.755331	0.000089
 419	4.1591e+01	8.3300	50.736703	0.000649	6.485440	1.098663	0.000130
 420	4.1691e+01	8.3489	50.805335	0.000345	3.445390	0.583665	0.000069
 421	4.1790e+01	8.3691	50.914337	0.000547	5.472090	0.926997	0.000110
 422	4.1889e+01	8.3898	51.003154	0.000446	4.458740	0.755331	0.000089
 423	4.1989e+01	8.4093	51.108120	0.000527	5.269420	0.892664	0.000105
 424	4.2089e+01	8.4295	51.184825	0.000385	3.850730	0.652331	0.000077
 425	4.2188e+01	8.4490	51.261531	0.000385	3.850730	0.652331	0.000077
 426	4.2288e+01	8.4686	51.366497	0.000527	5.269420	0.892664	0.000105
 427	4.2387e+01	8.4887	51.483573	0.000588	5.877430	0.995664	0.000118
 428	4.2486e+01	8.5082	51.560279	0.000385	3.850730	0.652331	0.000077
 429	4.2586e+01	8.5284	51.673319	0.000567	5.674760	0.961330	0.000114
 430	4.2685e+01	8.5482	51.790396	0.000588	5.877430	0.995664	0.000118
 431	4.2785e+01	8.5680	51.887287	0.000486	4.864080	0.823998	0.000097
 432	4.2885e+01	8.5882	51.955918	0.000345	3.445390	0.583665	0.000069
 433	4.2984e+01	8.6089	52.028587	0.000365	3.648060	0.617998	0.000073
 434	4.3084e+01	8.6282	52.133552	0.000527	5.269420	0.892664	0.000105
 435	4.3183e+01	8.6480	52.242555	0.000547	5.472090	0.926997	0.000110
 436	4.3282e+01	8.6681	52.339446	0.000486	4.864080	0.823998	0.000097
 437	4.3382e+01	8.6877	52.424226	0.000426	4.256070	0.720998	0.000085
 438	4.3481e+01	8.7078	52.541303	0.000588	5.877430	0.995664	0.000118
 439	4.3581e+01	8.7286	52.613972	0.000365	3.648060	0.617998	0.000073
 440	4.3681e+01	8.7469	52.747197	0.000669	6.688110	1.132997	0.000134
 441	4.3780e+01	8.7685	52.827940	0.000405	4.053400	0.686665	0.000081
 442	4.3880e+01	8.7872	52.920794	0.000466	4.661410	0.789664	0.000093
 443	4.3979e+01	8.8067	53.017685	0.000486	4.864080	0.823998	0.000097
 444	4.4078e+01	8.8280	53.134762	0.000588	5.877430	0.995664	0.000118
 445	4.4178e+01	8.8464	53.211468	0.000385	3.850730	0.652331	0.000077
 446	4.4278e+01	8.8671	53.288173	0.000385	3.850730	0.652331	0.000077
 447	4.4377e+01	8.8873	53.385064	0.000486	4.864080	0.823998	0.000097
 448	4.4477e+01	8.9068	53.481956	0.000486	4.864080	0.823998	0.000097
 449	4.4576e+01	8.9263	53.586921	0.000527	5.269420	0.892664	0.000105
 450	4.4675e+01	8.9462	53.712072	0.000628	6.282770	1.064330	0.000126
 451	4.4775e+01	8.9651	53.788778	0.000385	3.850730	0.652331	0.000077
 452	4.4874e+01	8.9861	53.873558	0.000426	4.256070	0.720998	0.000085
 453	4.4974e+01	9.0044	53.970449	0.000486	4.864080	0.823998	0.000097
 454	4.5074e+01	9.0246	54.063303	0.000466	4.661410	0.789664	0.000093
 455	4.5173e+01	9.0459	54.176343	0.000567	5.674760	0.961330	0.000114
 456	4.5273e+01	9.0661	54.257086	0.000405	4.053400	0.686665	0.000081
 457	4.5372e+01	9.0862	54.341866	0.000426	4.256070	0.720998	0.000085
 458	4.5471e+01	9.1058	54.454905	0.000567	5.674760	0.961330	0.000114
 459	4.5571e+01	9.1271	54.535648	0.000405	4.053400	0.686665	0.000081
 460	4.5670e+01	9.1451	54.656762	0.000608	6.080100	1.029997	0.000122
 461	4.5770e+01	9.1656	54.725393	0.000345	3.445390	0.583665	0.000069
 462	4.5870e+01	9.1848	54.814210	0.000446	4.458740	0.755331	0.000089
 463	4.5969e+01	9.2052	54.886879	0.000365	3.648060	0.617998	0.000073
 464	4.6069e+01	9.2248	55.040290	0.000770	7.701460	1.304663	0.000154
 465	4.6168e+01	9.2458	55.129107	0.000446	4.458740	0.755331	0.000089
 466	4.6267e+01	9.2651	55.189664	0.000304	3.040050	0.514998	0.000061
 467	4.6367e+01	9.2852	55.290593	0.000507	5.066750	0.858331	0.000101
 468	4.6467e+01	9.3053	55.363261	0.000365	3.648060	0.617998	0.000073
 469	4.6566e+01	9.3249	55.476301	0.000567	5.674760	0.961330	0.000114
 470	4.6666e+01	9.3444	55.561081	0.000426	4.256070	0.720998	0.000085
 471	4.6765e+01	9.3645	55.678158	0.000588	5.877430	0.995664	0.000118
 472	4.6864e+01	9.3847	55.750826	0.000365	3.648060	0.617998	0.000073
 473	4.6964e+01	9.4048	55.835606	0.000426	4.256070	0.720998	0.000085
 474	4.7063e+01	9.4238	55.964794	0.000649	6.485440	1.098663	0.000130
 475	4.7163e+01	9.4451	56.025351	0.000304	3.040050	0.514998	0.000061
 476	4.7263e+01	9.4640	56.102057	0.000385	3.850730	0.652331	0.000077
 477	4.7362e+01	9.4842	56.202985	0.000507	5.066750	0.858331	0.000101
 478	4.7462e+01	9.5043	56.255468	0.000263	2.634710	0.446332	0.000053
 479	4.7561e+01	9.5238	56.380619	0.000628	6.282770	1.064330	0.000126
 480	4.7660e+01	9.5428	56.445213	0.000324	3.242720	0.549332	0.000065
 481	4.7760e+01	9.5629	56.558253	0.000567	5.674760	0.961330	0.000114
 482	4.7859e+01	9.5843	56.614773	0.000284	2.837380	0.480665	0.000057
 483	4.7959e+01	9.6038	56.727813	0.000567	5.674760	0.961330	0.000114
 484	4.8059e+01	9.6233	56.812593	0.000426	4.256070	0.720998	0.000085
 485	4.8158e+01	9.6453	56.869113	0.000284	2.837380	0.480665	0.000057
 486	4.8258e+01	9.6633	56.994264	0.000628	6.282770	1.064330	0.000126
 487	4.8357e+01	9.6836	57.079044	0.000426	4.256070	0.720998	0.000085
 488	4.8456e+01	9.7030	57.171898	0.000466	4.661410	0.789664	0.000093
 489	4.8556e+01	9.7234	57.264752	0.000466	4.661410	0.789664	0.000093
 490	4.8656e+01	9.7430	57.349532	0.000426	4.256070	0.720998	0.000085
 491	4.8755e+01	9.7637	57.442386	0.000466	4.661410	0.789664	0.000093
 492	4.8855e+01	9.7839	57.502943	0.000304	3.040050	0.514998	0.000061
 493	4.8954e+01	9.8022	57.575611	0.000365	3.648060	0.617998	0.000073
 494	4.9053e+01	9.8223	57.700763	0.000628	6.282770	1.064330	0.000126
 495	4.9153e+01	9.8418	57.789580	0.000446	4.458740	0.755331	0.000089
 496	4.9252e+01	9.8620	57.858211	0.000345	3.445390	0.583665	0.000069
 497	4.9352e+01	9.8833	57.926842	0.000345	3.445390	0.583665	0.000069
 498	4.9452e+01	9.9023	58.064105	0.000689	6.890780	1.167330	0.000138
 499	4.9551e+01	9.9218	58.108513	0.000223	2.229370	0.377666	0.000045
 500	4.9651e+01	9.9426	58.229627	0.000608	6.080100	1.029997	0.000122
 501	4.9750e+01	9.9621	58.290184	0.000304	3.040050	0.514998	0.000061
 502	4.9849e+01	9.9816	58.379001	0.000446	4.458740	0.755331	0.000089
 503	4.9949e+01	9.9999	58.443596	0.000324	3.242720	0.549332	0.000065
 504	5.0048e+01	9.9816	58.411298	0.000162	1.621360	0.274666	-0.000032
 505	5.0148e+01	9.9627	58.334593	0.000385	3.850730	0.652331	-0.000077
 506	5.0248e+01	9.9419	58.282110	0.000263	2.634710	0.446332	-0.000053
 507	5.0347e+01	9.9224	58.185219	0.000486	4.864080	0.823998	-0.000097
 508	5.0447e+01	9.9029	58.165033	0.000101	1.013350	0.171666	-0.000020
 509	5.0546e+01	9.8827	58.068142	0.000486	4.864080	0.823998	-0.000097
 510	5.0645e+01	9.8632	57.963176	0.000527	5.269420	0.892664	-0.000105
 511	5.0745e+01	9.8425	57.910694	0.000263	2.634710	0.446332	-0.000053
 512	5.0844e+01	9.8223	57.846099	0.000324	3.242720	0.549332	-0.000065
 513	5.0944e+01	9.8028	57.789580	0.000284	2.837380	0.480665	-0.000057
 514	5.1044e+01	9.7826	57.749208	0.000203	2.026700	0.343332	-0.000041
 515	5.1143e+01	9.7625	57.628094	0.000608	6.080100	1.029997	-0.000122
 516	5.1242e+01	9.7436	57.587723	0.000203	2.026700	0.343332	-0.000041
 517	5.1342e+01	9.7240	57.498906	0.000446	4.458740	0.755331	-0.000089
 518	5.1441e+01	9.7039	57.438349	0.000304	3.040050	0.514998	-0.000061
 519	5.1541e+01	9.6832	57.349532	0.000446	4.458740	0.755331	-0.000089
 520	5.1641e+01	9.6630	57.260715	0.000446	4.458740	0.755331	-0.000089
 521	5.1740e+01	9.6447	57.220343	0.000203	2.026700	0.343332	-0.000041
 522	5.1840e+01	9.6233	57.159786	0.000304	3.040050	0.514998	-0.000061
 523	5.1939e+01	9.6038	57.066932	0.000466	4.661410	0.789664	-0.000093
 524	5.2038e+01	9.5837	56.990227	0.000385	3.850730	0.652331	-0.000077
 525	5.2138e+01	9.5629	56.945818	0.000223	2.229370	0.377666	-0.000045
 526	5.2237e+01	9.5440	56.848927	0.000486	4.864080	0.823998	-0.000097
 527	5.2337e+01	9.5238	56.764147	0.000426	4.256070	0.720998	-0.000085
 528	5.2437e+01	9.5046	56.671293	0.000466	4.661410	0.789664	-0.000093
 529	5.2536e+01	9.4848	56.610736	0.000304	3.040050	0.514998	-0.000061
 530	5.2636e+01	9.4640	56.529993	0.000405	4.053400	0.686665	-0.000081
 531	5.2735e+01	9.4445	56.437139	0.000466	4.661410	0.789664	-0.000093
 532	5.2834e+01	9.4250	56.380619	0.000284	2.837380	0.480665	-0.000057
 533	5.2934e+01	9.4036	56.279691	0.000507	5.066750	0.858331	-0.000101
 534	5.3033e+01	9.3844	56.227208	0.000263	2.634710	0.446332	-0.000053
 535	5.3133e+01	9.3645	56.134354	0.000466	4.661410	0.789664	-0.000093
 536	5.3233e+01	9.3444	56.077834	0.000284	2.837380	0.480665	-0.000057
 537	5.3332e+01	9.3249	55.960757	0.000588	5.877430	0.995664	-0.000118
 538	5.3431e+01	9.3041	55.884051	0.000385	3.850730	0.652331	-0.000077
 539	5.3531e+01	9.2852	55.835606	0.000243	2.432040	0.411999	-0.000049
 540	5.3630e+01	9.2651	55.734677	0.000507	5.066750	0.858331	-0.000101
 541	5.3730e+01	9.2449	55.666046	0.000345	3.445390	0.583665	-0.000069
 542	5.3830e+01	9.2254	55.613563	0.000263	2.634710	0.446332	-0.000053
 543	5.3929e+01	9.2056	55.512635	0.000507	5.066750	0.858331	-0.000101
 544	5.4029e+01	9.1851	55.452078	0.000304	3.040050	0.514998	-0.000061
 545	5.4128e+01	9.1656	55.379409	0.000365	3.648060	0.617998	-0.000073
 546	5.4227e+01	9.1460	55.278481	0.000507	5.066750	0.858331	-0.000101
 547	5.4327e+01	9.1259	55.197738	0.000405	4.053400	0.686665	-0.000081
 548	5.4426e+01	9.1076	55.116996	0.000405	4.053400	0.686665	-0.000081
 549	5.4526e+01	9.0856	55.080661	0.000182	1.824030	0.308999	-0.000037
 550	5.4626e+01	9.0664	54.947436	0.000669	6.688110	1.132997	-0.000134
 551	5.4725e+01	9.0456	54.898990	0.000243	2.432040	0.411999	-0.000049
 552	5.4825e+01	9.0249	54.785951	0.000567	5.674760	0.961330	-0.000114
 553	5.4924e+01	9.0069	54.701171	0.000426	4.256070	0.720998	-0.000085
 554	5.5023e+01	8.9861	54.628502	0.000365	3.648060	0.617998	-0.000073
 555	5.5123e+01	8.9666	54.592168	0.000182	1.824030	0.308999	-0.000037
 556	5.5222e+01	8.9462	54.438757	0.000770	7.701460	1.304663	-0.000154
 557	5.5322e+01	8.9257	54.406460	0.000162	1.621360	0.274666	-0.000032
 558	5.5422e+01	8.9062	54.366088	0.000203	2.026700	0.343332	-0.000041
 559	5.5521e+01	8.8860	54.232863	0.000669	6.688110	1.132997	-0.000134
 560	5.5620e+01	8.8659	54.220752	0.000061	0.608010	0.103000	-0.000012
 561	5.5720e+01	8.8470	54.099637	0.000608	6.080100	1.029997	-0.000122
 562	5.5819e+01	8.8274	54.006783	0.000466	4.661410	0.789664	-0.000093
 563	5.5919e+01	8.8073	53.938152	0.000345	3.445390	0.583665	-0.000069
 564	5.6019e+01	8.7872	53.881632	0.000284	2.837380	0.480665	-0.000057
 565	5.6118e+01	8.7679	53.784741	0.000486	4.864080	0.823998	-0.000097
 566	5.6218e+01	8.7469	53.703998	0.000405	4.053400	0.686665	-0.000081
 567	5.6317e+01	8.7270	53.615181	0.000446	4.458740	0.755331	-0.000089
 568	5.6416e+01	8.7084	53.554624	0.000304	3.040050	0.514998	-0.000061
 569	5.6516e+01	8.6883	53.481956	0.000365	3.648060	0.617998	-0.000073
 570	5.6615e+01	8.6675	53.376990	0.000527	5.269420	0.892664	-0.000105
 571	5.6715e+01	8.6483	53.288173	0.000446	4.458740	0.755331	-0.000089
 572	5.6815e+01	8.6279	53.203393	0.000426	4.256070	0.720998	-0.000085
 573	5.6914e+01	8.6082	53.122651	0.000405	4.053400	0.686665	-0.000081
 574	5.7014e+01	8.5882	53.086316	0.000182	1.824030	0.308999	-0.000037
 575	5.7113e+01	8.5686	52.993462	0.000466	4.661410	0.789664	-0.000093
 576	5.7212e+01	8.5485	52.928868	0.000324	3.242720	0.549332	-0.000065
 577	5.7312e+01	8.5296	52.880422	0.000243	2.432040	0.411999	-0.000049
 578	5.7411e+01	8.5082	52.771420	0.000547	5.472090	0.926997	-0.000110
 579	5.7511e+01	8.4887	52.666454	0.000527	5.269420	0.892664	-0.000105
 580	5.7611e+01	8.4682	52.577637	0.000446	4.458740	0.755331	-0.000089
 581	5.7710e+01	8.4472	52.509006	0.000345	3.445390	0.583665	-0.000069
 582	5.7809e+01	8.4292	52.440375	0.000345	3.445390	0.583665	-0.000069
 583	5.7909e+01	8.4087	52.375780	0.000324	3.242720	0.549332	-0.000065
 584	5.8008e+01	8.3889	52.274852	0.000507	5.066750	0.858331	-0.000101
 585	5.8108e+01	8.3695	52.177961	0.000486	4.864080	0.823998	-0.000097
 586	5.8208e+01	8.3489	52.117404	0.000304	3.040050	0.514998	-0.000061
 587	5.8307e+01	8.3291	52.036661	0.000405	4.053400	0.686665	-0.000081
 588	5.8407e+01	8.3092	51.947844	0.000446	4.458740	0.755331	-0.000089
 589	5.8506e+01	8.2897	51.875176	0.000365	3.648060	0.617998	-0.000073
 590	5.8605e+01	8.2702	51.822693	0.000263	2.634710	0.446332	-0.000053
 591	5.8705e+01	8.2491	51.705616	0.000588	5.877430	0.995664	-0.000118
 592	5.8804e+01	8.2299	51.649096	0.000284	2.837380	0.480665	-0.000057
 593	5.8904e+01	8.2070	51.540093	0.000547	5.472090	0.926997	-0.000110
 594	5.9004e+01	8.1902	51.479536	0.000304	3.040050	0.514998	-0.000061
 595	5.9103e+01	8.1701	51.398794	0.000405	4.053400	0.686665	-0.000081
 596	5.9203e+01	8.1512	51.309977	0.000446	4.458740	0.755331	-0.000089
 597	5.9302e+01	8.1298	51.229234	0.000405	4.053400	0.686665	-0.000081
 598	5.9401e+01	8.1109	51.128306	0.000507	5.066750	0.858331	-0.000101
 599	5.9501e+01	8.0901	51.087934	0.000203	2.026700	0.343332	-0.000041
 600	5.9600e+01	8.0706	50.962783	0.000628	6.282770	1.064330	-0.000126
 601	5.9700e+01	8.0511	50.902226	0.000304	3.040050	0.514998	-0.000061
 602	5.9800e+01	8.0303	50.841669	0.000304	3.040050	0.514998	-0.000061
 603	5.9899e+01	8.0114	50.732666	0.000547	5.472090	0.926997	-0.000110
 604	5.9998e+01	7.9899	50.643849	0.000446	4.458740	0.755331	-0.000089
 605	6.0098e+01	7.9711	50.546958	0.000486	4.864080	0.823998	-0.000097
 606	6.0197e+01	7.9507	50.506587	0.000203	2.026700	0.343332	-0.000041
 607	6.0297e+01	7.9308	50.413733	0.000466	4.661410	0.789664	-0.000093
 608	6.0397e+01	7.9107	50.324916	0.000446	4.458740	0.755331	-0.000089
 609	6.0496e+01	7.8905	50.240136	0.000426	4.256070	0.720998	-0.000085
 610	6.0596e+01	7.8710	50.155356	0.000426	4.256070	0.720998	-0.000085
 611	6.0695e+01	7.8509	50.074613	0.000405	4.053400	0.686665	-0.000081
 612	6.0794e+01	7.8313	49.989833	0.000426	4.256070	0.720998	-0.000085
 613	6.0894e+01	7.8115	49.941388	0.000243	2.432040	0.411999	-0.000049
 614	6.0993e+01	7.7914	49.848534	0.000466	4.661410	0.789664	-0.000093
 615	6.1093e+01	7.7721	49.767791	0.000405	4.053400	0.686665	-0.000081
 616	6.1193e+01	7.7506	49.678974	0.000446	4.458740	0.755331	-0.000089
 617	6.1292e+01	7.7306	49.606305	0.000365	3.648060	0.617998	-0.000073
 618	6.1392e+01	7.7114	49.557860	0.000243	2.432040	0.411999	-0.000049
 619	6.1491e+01	7.6916	49.452894	0.000527	5.269420	0.892664	-0.000105
 620	6.1590e+01	7.6727	49.372152	0.000405	4.053400	0.686665	-0.000081
 621	6.1690e+01	7.6519	49.307557	0.000324	3.242720	0.549332	-0.000065
 622	6.1789e+01	7.6321	49.202592	0.000527	5.269420	0.892664	-0.000105
 623	6.1889e+01	7.6119	49.105701	0.000486	4.864080	0.823998	-0.000097
 624	6.1989e+01	7.5924	49.037069	0.000345	3.445390	0.583665	-0.000069
 625	6.2088e+01	7.5726	48.960364	0.000385	3.850730	0.652331	-0.000077
 626	6.2188e+01	7.5530	48.855398	0.000527	5.269420	0.892664	-0.000105
 627	6.2287e+01	7.5326	48.794841	0.000304	3.040050	0.514998	-0.000061
 628	6.2386e+01	7.5134	48.689876	0.000527	5.269420	0.892664	-0.000105
 629	6.2486e+01	7.4935	48.601059	0.000446	4.458740	0.755331	-0.000089
 630	6.2586e+01	7.4728	48.516279	0.000426	4.256070	0.720998	-0.000085
 631	6.2685e+01	7.4532	48.463796	0.000263	2.634710	0.446332	-0.000053
 632	6.2785e+01	7.4334	48.358830	0.000527	5.269420	0.892664	-0.000105
 633	6.2884e+01	7.4126	48.229642	0.000649	6.485440	1.098663	-0.000130
 634	6.2983e+01	7.3925	48.173122	0.000284	2.837380	0.480665	-0.000057
 635	6.3083e+01	7.3730	48.100454	0.000365	3.648060	0.617998	-0.000073
 636	6.3182e+01	7.3534	48.019711	0.000405	4.053400	0.686665	-0.000081
 637	6.3282e+01	7.3333	47.979340	0.000203	2.026700	0.343332	-0.000041
 638	6.3382e+01	7.3136	47.813817	0.000831	8.309471	1.407662	-0.000166
 639	6.3481e+01	7.2930	47.745186	0.000345	3.445390	0.583665	-0.000069
 640	6.3581e+01	7.2741	47.624072	0.000608	6.080100	1.029997	-0.000122
 641	6.3680e+01	7.2543	47.547366	0.000385	3.850730	0.652331	-0.000077
 642	6.3779e+01	7.2338	47.486809	0.000304	3.040050	0.514998	-0.000061
 643	6.3879e+01	7.2137	47.381844	0.000527	5.269420	0.892664	-0.000105
 644	6.3978e+01	7.1944	47.309175	0.000365	3.648060	0.617998	-0.000073
 645	6.4078e+01	7.1740	47.184024	0.000628	6.282770	1.064330	-0.000126
 646	6.4177e+01	7.1545	47.127504	0.000284	2.837380	0.480665	-0.000057
 647	6.4277e+01	7.1349	47.026576	0.000507	5.066750	0.858331	-0.000101
 648	6.4376e+01	7.1145	46.921610	0.000527	5.269420	0.892664	-0.000105
 649	6.4476e+01	7.0937	46.836830	0.000426	4.256070	0.720998	-0.000085
 650	6.4576e+01	7.0736	46.752050	0.000426	4.256070	0.720998	-0.000085
 651	6.4675e+01	7.0544	46.622862	0.000649	6.485440	1.098663	-0.000130
 652	6.4775e+01	7.0339	46.574416	0.000243	2.432040	0.411999	-0.000049
 653	6.4874e+01	7.0144	46.465414	0.000547	5.472090	0.926997	-0.000110
 654	6.4974e+01	6.9946	46.376597	0.000446	4.458740	0.755331	-0.000089
 655	6.5073e+01	6.9747	46.287780	0.000446	4.458740	0.755331	-0.000089
 656	6.5172e+01	6.9555	46.182814	0.000527	5.269420	0.892664	-0.000105
 657	6.5272e+01	6.9350	46.102072	0.000405	4.053400	0.686665	-0.000081
 658	6.5371e+01	6.9146	45.997106	0.000527	5.269420	0.892664	-0.000105
 659	6.5471e+01	6.8948	45.936549	0.000304	3.040050	0.514998	-0.000061
 660	6.5570e+01	6.8755	45.843695	0.000466	4.661410	0.789664	-0.000093
 661	6.5670e+01	6.8548	45.730655	0.000567	5.674760	0.961330	-0.000114
 662	6.5769e+01	6.8353	45.617615	0.000567	5.674760	0.961330	-0.000114
 663	6.5869e+01	6.8160	45.569170	0.000243	2.432040	0.411999	-0.000049
 664	6.5969e+01	6.7944	45.452093	0.000588	5.877430	0.995664	-0.000118
 665	6.6068e+01	6.7754	45.347127	0.000527	5.269420	0.892664	-0.000105
 666	6.6168e+01	6.7547	45.270422	0.000385	3.850730	0.652331	-0.000077
 667	6.6267e+01	6.7367	45.177567	0.000466	4.661410	0.789664	-0.000093
 668	6.6367e+01	6.7150	45.076639	0.000507	5.066750	0.858331	-0.000101
 669	6.6466e+01	6.6961	44.975711	0.000507	5.066750	0.858331	-0.000101
 670	6.6566e+01	6.6766	44.862671	0.000567	5.674760	0.961330	-0.000114
 671	6.6665e+01	6.6558	44.753668	0.000547	5.472090	0.926997	-0.000110
 672	6.6764e+01	6.6357	44.697148	0.000284	2.837380	0.480665	-0.000057
 673	6.6864e+01	6.6164	44.584109	0.000567	5.674760	0.961330	-0.000114
 674	6.6963e+01	6.5963	44.507403	0.000385	3.850730	0.652331	-0.000077
 675	6.7063e+01	6.5765	44.394363	0.000567	5.674760	0.961330	-0.000114
 676	6.7162e+01	6.5572	44.305546	0.000446	4.458740	0.755331	-0.000089
 677	6.7262e+01	6.5371	44.204618	0.000507	5.066750	0.858331	-0.000101
 678	6.7362e+01	6.5166	44.103689	0.000507	5.066750	0.858331	-0.000101
 679	6.7461e+01	6.4965	44.018910	0.000426	4.256070	0.720998	-0.000085
 680	6.7561e+01	6.4767	43.922018	0.000486	4.864080	0.823998	-0.000097
 681	6.7660e+01	6.4568	43.865498	0.000284	2.837380	0.480665	-0.000057
 682	6.7760e+01	6.4367	43.740347	0.000628	6.282770	1.064330	-0.000126
 683	6.7859e+01	6.4164	43.651530	0.000446	4.458740	0.755331	-0.000089
 684	6.7959e+01	6.3982	43.566750	0.000426	4.256070	0.720998	-0.000085
 685	6.8058e+01	6.3769	43.441599	0.000628	6.282770	1.064330	-0.000126
 686	6.8157e+01	6.3570	43.344708	0.000486	4.864080	0.823998	-0.000097
 687	6.8257e+01	6.3369	43.231668	0.000567	5.674760	0.961330	-0.000114
 688	6.8356e+01	6.3168	43.150925	0.000405	4.053400	0.686665	-0.000081
 689	6.8456e+01	6.2975	43.045960	0.000527	5.269420	0.892664	-0.000105
 690	6.8555e+01	6.2774	42.924846	0.000608	6.080100	1.029997	-0.000122
 691	6.8655e+01	6.2569	42.884474	0.000203	2.026700	0.343332	-0.000041
 692	6.8754e+01	6.2380	42.735100	0.000750	7.498790	1.270329	-0.000150
 693	6.8854e+01	6.2182	42.662432	0.000365	3.648060	0.617998	-0.000073
 694	6.8954e+01	6.1983	42.541318	0.000608	6.080100	1.029997	-0.000122
 695	6.9053e+01	6.1779	42.412129	0.000649	6.485440	1.098663	-0.000130
 696	6.9153e+01	6.1584	42.375795	0.000182	1.824030	0.308999	-0.000037
 697	6.9252e+01	6.1382	42.270830	0.000527	5.269420	0.892664	-0.000105
 698	6.9352e+01	6.1175	42.133567	0.000689	6.890780	1.167330	-0.000138
 699	6.9451e+01	6.0986	42.024564	0.000547	5.472090	0.926997	-0.000110
 700	6.9550e+01	6.0787	41.947859	0.000385	3.850730	0.652331	-0.000077
 701	6.9650e+01	6.0583	41.834819	0.000567	5.674760	0.961330	-0.000114
 702	6.9749e+01	6.0384	41.709668	0.000628	6.282770	1.064330	-0.000126
 703	6.9849e+01	6.0186	41.645074	0.000324	3.242720	0.549332	-0.000065
 704	6.9948e+01	5.9994	41.548182	0.000486	4.864080	0.823998	-0.000097
 705	7.0048e+01	5.9783	41.439180	0.000547	5.472090	0.926997	-0.000110
 706	7.0147e+01	5.9582	41.326140	0.000567	5.674760	0.961330	-0.000114
 707	7.0247e+01	5.9386	41.253472	0.000365	3.648060	0.617998	-0.000073
 708	7.0347e+01	5.9194	41.144469	0.000547	5.472090	0.926997	-0.000110
 709	7.0446e+01	5.8984	41.019318	0.000628	6.282770	1.064330	-0.000126
 710	7.0546e+01	5.8794	40.938575	0.000405	4.053400	0.686665	-0.000081
 711	7.0645e+01	5.8592	40.793238	0.000730	7.296120	1.235996	-0.000146
 712	7.0745e+01	5.8392	40.716532	0.000385	3.850730	0.652331	-0.000077
 713	7.0844e+01	5.8190	40.599456	0.000588	5.877430	0.995664	-0.000118
 714	7.0944e+01	5.7992	40.490453	0.000547	5.472090	0.926997	-0.000110
 715	7.1043e+01	5.7800	40.393562	0.000486	4.864080	0.823998	-0.000097
 716	7.1142e+01	5.7592	40.296670	0.000486	4.864080	0.823998	-0.000097
 717	7.1242e+01	5.7388	40.187668	0.000547	5.472090	0.926997	-0.000110
 718	7.1341e+01	5.7201	40.139222	0.000243	2.432040	0.411999	-0.000049
 719	7.1441e+01	5.6994	39.997922	0.000709	7.093450	1.201663	-0.000142
 720	7.1540e+01	5.6805	39.909105	0.000446	4.458740	0.755331	-0.000089
 721	7.1640e+01	5.6609	39.796066	0.000567	5.674760	0.961330	-0.000114
 722	7.1740e+01	5.6402	39.699174	0.000486	4.864080	0.823998	-0.000097
 723	7.1839e+01	5.6213	39.618432	0.000405	4.053400	0.686665	-0.000081
 724	7.1939e+01	5.5996	39.477132	0.000709	7.093450	1.201663	-0.000142
 725	7.2038e+01	5.5804	39.404463	0.000365	3.648060	0.617998	-0.000073
 726	7.2138e+01	5.5602	39.303535	0.000507	5.066750	0.858331	-0.000101
 727	7.2237e+01	5.5407	39.194532	0.000547	5.472090	0.926997	-0.000110
 728	7.2337e+01	5.5193	39.101678	0.000466	4.661410	0.789664	-0.000093
 729	7.2436e+01	5.4998	39.012861	0.000446	4.458740	0.755331	-0.000089
 730	7.2535e+01	5.4803	38.928081	0.000426	4.256070	0.720998	-0.000085
 731	7.2635e+01	5.4595	38.811004	0.000588	5.877430	0.995664	-0.000118
 732	7.2734e+01	5.4408	38.693927	0.000588	5.877430	0.995664	-0.000118
 733	7.2834e+01	5.4214	38.605110	0.000446	4.458740	0.755331	-0.000089
 734	7.2933e+01	5.4009	38.488034	0.000588	5.877430	0.995664	-0.000118
 735	7.3033e+01	5.3811	38.407291	0.000405	4.053400	0.686665	-0.000081
 736	7.3132e+01	5.3604	38.278103	0.000649	6.485440	1.098663	-0.000130
 737	7.3232e+01	5.3405	38.205434	0.000365	3.648060	0.617998	-0.000073
 738	7.3332e+01	5.3210	38.108543	0.000486	4.864080	0.823998	-0.000097
 739	7.3431e+01	5.3005	38.023763	0.000426	4.256070	0.720998	-0.000085
 740	7.3531e+01	5.2811	37.886500	0.000689	6.890780	1.167330	-0.000138
 741	7.3630e+01	5.2605	37.769423	0.000588	5.877430	0.995664	-0.000118
 742	7.3730e+01	5.2428	37.696755	0.000365	3.648060	0.617998	-0.000073
 743	7.3829e+01	5.2218	37.575641	0.000608	6.080100	1.029997	-0.000122
 744	7.3928e+01	5.2020	37.466638	0.000547	5.472090	0.926997	-0.000110
 745	7.4028e+01	5.1815	37.381858	0.000426	4.256070	0.720998	-0.000085
 746	7.4127e+01	5.1611	37.276893	0.000527	5.269420	0.892664	-0.000105
 747	7.4227e+01	5.1421	37.155779	0.000608	6.080100	1.029997	-0.000122
 748	7.4326e+01	5.1214	37.066962	0.000446	4.458740	0.755331	-0.000089
 749	7.4426e+01	5.1012	36.937773	0.000649	6.485440	1.098663	-0.000130
 750	7.4525e+01	5.0811	36.861068	0.000385	3.850730	0.652331	-0.000077
 751	7.4625e+01	5.0616	36.772251	0.000446	4.458740	0.755331	-0.000089
 752	7.4725e+01	5.0425	36.647100	0.000628	6.282770	1.064330	-0.000126
 753	7.4824e+01	5.0231	36.562320	0.000426	4.256070	0.720998	-0.000085
 754	7.4924e+01	5.0028	36.441206	0.000608	6.080100	1.029997	-0.000122
 755	7.5023e+01	4.9827	36.312017	0.000649	6.485440	1.098663	-0.000130
 756	7.5123e+01	4.9633	36.231275	0.000405	4.053400	0.686665	-0.000081
 757	7.5222e+01	4.9435	36.106123	0.000628	6.282770	1.064330	-0.000126
 758	7.5322e+01	4.9230	36.013269	0.000466	4.661410	0.789664	-0.000093
 759	7.5421e+01	4.9029	35.904267	0.000547	5.472090	0.926997	-0.000110
 760	7.5520e+01	4.8833	35.839673	0.000324	3.242720	0.549332	-0.000065
 761	7.5620e+01	4.8638	35.718558	0.000608	6.080100	1.029997	-0.000122
 762	7.5719e+01	4.8431	35.617630	0.000507	5.066750	0.858331	-0.000101
 763	7.5819e+01	4.8229	35.508627	0.000547	5.472090	0.926997	-0.000110
 764	7.5918e+01	4.8042	35.411736	0.000486	4.864080	0.823998	-0.000097
 765	7.6018e+01	4.7836	35.294659	0.000588	5.877430	0.995664	-0.000118
 766	7.6118e+01	4.7643	35.209879	0.000426	4.256070	0.720998	-0.000085
 767	7.6217e+01	4.7436	35.072617	0.000689	6.890780	1.167330	-0.000138
 768	7.6317e+01	4.7231	34.991874	0.000405	4.053400	0.686665	-0.000081
 769	7.6416e+01	4.7025	34.858649	0.000669	6.688110	1.132997	-0.000134
 770	7.6516e+01	4.6835	34.798091	0.000304	3.040050	0.514998	-0.000061
 771	7.6615e+01	4.6641	34.681015	0.000588	5.877430	0.995664	-0.000118
 772	7.6715e+01	4.6441	34.563938	0.000588	5.877430	0.995664	-0.000118
 773	7.6814e+01	4.6236	34.471083	0.000466	4.661410	0.789664	-0.000093
 774	7.6913e+01	4.6035	34.358044	0.000567	5.674760	0.961330	-0.000114
 775	7.7013e+01	4.5843	34.200595	0.000790	7.904130	1.338996	-0.000158
 776	7.7112e+01	4.5641	34.144076	0.000284	2.837380	0.480665	-0.000057
 777	7.7212e+01	4.5440	34.047184	0.000486	4.864080	0.823998	-0.000097
 778	7.7311e+01	4.5245	33.917996	0.000649	6.485440	1.098663	-0.000130
 779	7.7411e+01	4.5043	33.825142	0.000466	4.661410	0.789664	-0.000093
 780	7.7510e+01	4.4842	33.695953	0.000649	6.485440	1.098663	-0.000130
 781	7.7610e+01	4.4637	33.619248	0.000385	3.850730	0.652331	-0.000077
 782	7.7710e+01	4.4445	33.522357	0.000486	4.864080	0.823998	-0.000097
 783	7.7809e+01	4.4247	33.425465	0.000486	4.864080	0.823998	-0.000097
 784	7.7909e+01	4.4039	33.247831	0.000892	8.917481	1.510662	-0.000179
 785	7.8008e+01	4.3841	33.195349	0.000263	2.634710	0.446332	-0.000053
 786	7.8108e+01	4.3658	33.094420	0.000507	5.066750	0.858331	-0.000101
 787	7.8207e+01	4.3462	32.981380	0.000567	5.674760	0.961330	-0.000114
 788	7.8306e+01	4.3249	32.896601	0.000426	4.256070	0.720998	-0.000085
 789	7.8406e+01	4.3053	32.807784	0.000446	4.458740	0.755331	-0.000089
 790	7.8505e+01	4.2857	32.662447	0.000730	7.296120	1.235996	-0.000146
 791	7.8605e+01	4.2654	32.545370	0.000588	5.877430	0.995664	-0.000118
 792	7.8704e+01	4.2455	32.452516	0.000466	4.661410	0.789664	-0.000093
 793	7.8804e+01	4.2248	32.327364	0.000628	6.282770	1.064330	-0.000126
 794	7.8903e+01	4.2052	32.238547	0.000446	4.458740	0.755331	-0.000089
 795	7.9003e+01	4.1851	32.105322	0.000669	6.688110	1.132997	-0.000134
 796	7.9103e+01	4.1653	32.008431	0.000486	4.864080	0.823998	-0.000097
 797	7.9202e+01	4.1447	31.899428	0.000547	5.472090	0.926997	-0.000110
 798	7.9302e+01	4.1259	31.770240	0.000649	6.485440	1.098663	-0.000130
 799	7.9401e+01	4.1053	31.669311	0.000507	5.066750	0.858331	-0.000101
 800	7.9501e+01	4.0850	31.560309	0.000547	5.472090	0.926997	-0.000110
 801	7.9600e+01	4.0654	31.455343	0.000527	5.269420	0.892664	-0.000105
 802	7.9700e+01	4.0460	31.366526	0.000446	4.458740	0.755331	-0.000089
 803	7.9799e+01	4.0261	31.221189	0.000730	7.296120	1.235996	-0.000146
 804	7.9898e+01	4.0061	31.136409	0.000426	4.256070	0.720998	-0.000085
 805	7.9998e+01	3.9863	30.987035	0.000750	7.498790	1.270329	-0.000150
 806	8.0097e+01	3.9660	30.930515	0.000284	2.837380	0.480665	-0.000057
 807	8.0197e+01	3.9458	30.777104	0.000770	7.701460	1.304663	-0.000154
 808	8.0296e+01	3.9257	30.660027	0.000588	5.877430	0.995664	-0.000118
 809	8.0396e+01	3.9077	30.510653	0.000750	7.498790	1.270329	-0.000150
 810	8.0496e+01	3.8860	30.429911	0.000405	4.053400	0.686665	-0.000081
 811	8.0595e+01	3.8670	30.328982	0.000507	5.066750	0.858331	-0.000101
 812	8.0695e+01	3.8470	30.207868	0.000608	6.080100	1.029997	-0.000122
 813	8.0794e+01	3.8268	30.098865	0.000547	5.472090	0.926997	-0.000110
 814	8.0894e+01	3.8060	30.001974	0.000486	4.864080	0.823998	-0.000097
 815	8.0993e+01	3.7875	29.884897	0.000588	5.877430	0.995664	-0.000118
 816	8.1093e+01	3.7682	29.735523	0.000750	7.498790	1.270329	-0.000150
 817	8.1192e+01	3.7463	29.687078	0.000243	2.432040	0.411999	-0.000049
 818	8.1291e+01	3.7273	29.561926	0.000628	6.282770	1.064330	-0.000126
 819	8.1391e+01	3.7066	29.384292	0.000892	8.917481	1.510662	-0.000179
 820	8.1490e+01	3.6874	29.311624	0.000365	3.648060	0.617998	-0.000073
 821	8.1590e+01	3.6672	29.162250	0.000750	7.498790	1.270329	-0.000150
 822	8.1689e+01	3.6473	29.041136	0.000608	6.080100	1.029997	-0.000122
 823	8.1789e+01	3.6275	28.940208	0.000507	5.066750	0.858331	-0.000101
 824	8.1888e+01	3.6083	28.827168	0.000567	5.674760	0.961330	-0.000114
 825	8.1988e+01	3.5876	28.710091	0.000588	5.877430	0.995664	-0.000118
 826	8.2088e+01	3.5671	28.560717	0.000750	7.498790	1.270329	-0.000150
 827	8.2187e+01	3.5482	28.463826	0.000486	4.864080	0.823998	-0.000097
 828	8.2287e+01	3.5285	28.403268	0.000304	3.040050	0.514998	-0.000061
 829	8.2386e+01	3.5075	28.245820	0.000790	7.904130	1.338996	-0.000158
 830	8.2486e+01	3.4877	28.140855	0.000527	5.269420	0.892664	-0.000105
 831	8.2585e+01	3.4689	27.991481	0.000750	7.498790	1.270329	-0.000150
 832	8.2684e+01	3.4489	27.870367	0.000608	6.080100	1.029997	-0.000122
 833	8.2784e+01	3.4292	27.785587	0.000426	4.256070	0.720998	-0.000085
 834	8.2883e+01	3.4090	27.656398	0.000649	6.485440	1.098663	-0.000130
 835	8.2983e+01	3.3883	27.515099	0.000709	7.093450	1.201663	-0.000142
 836	8.3082e+01	3.3688	27.389947	0.000628	6.282770	1.064330	-0.000126
 837	8.3182e+01	3.3483	27.297093	0.000466	4.661410	0.789664	-0.000093
 838	8.3281e+01	3.3287	27.151756	0.000730	7.296120	1.235996	-0.000146
 839	8.3381e+01	3.3086	27.058902	0.000466	4.661410	0.789664	-0.000093
 840	8.3481e+01	3.2891	26.905491	0.000770	7.701460	1.304663	-0.000154
 841	8.3580e+01	3.2693	26.816674	0.000446	4.458740	0.755331	-0.000089
 842	8.3680e+01	3.2485	26.683449	0.000669	6.688110	1.132997	-0.000134
 843	8.3779e+01	3.2291	26.598669	0.000426	4.256070	0.720998	-0.000085
 844	8.3879e+01	3.2085	26.461406	0.000689	6.890780	1.167330	-0.000138
 845	8.3978e+01	3.1883	26.336255	0.000628	6.282770	1.064330	-0.000126
 846	8.4078e+01	3.1695	26.203030	0.000669	6.688110	1.132997	-0.000134
 847	8.4177e+01	3.1499	26.106138	0.000486	4.864080	0.823998	-0.000097
 848	8.4276e+01	3.1295	25.968876	0.000689	6.890780	1.167330	-0.000138
 849	8.4376e+01	3.1091	25.839687	0.000649	6.485440	1.098663	-0.000130
 850	8.4475e+01	3.0894	25.698388	0.000709	7.093450	1.201663	-0.000142
 851	8.4575e+01	3.0701	25.601496	0.000486	4.864080	0.823998	-0.000097
 852	8.4674e+01	3.0492	25.488456	0.000567	5.674760	0.961330	-0.000114
 853	8.4774e+01	3.0300	25.347157	0.000709	7.093450	1.201663	-0.000142
 854	8.4874e+01	3.0096	25.250265	0.000486	4.864080	0.823998	-0.000097
 855	8.4973e+01	2.9896	25.108966	0.000709	7.093450	1.201663	-0.000142
 856	8.5073e+01	2.9703	24.983815	0.000628	6.282770	1.064330	-0.000126
 857	8.5172e+01	2.9504	24.842515	0.000709	7.093450	1.201663	-0.000142
 858	8.5272e+01	2.9302	24.741586	0.000507	5.066750	0.858331	-0.000101
 859	8.5371e+01	2.9107	24.632584	0.000547	5.472090	0.926997	-0.000110
 860	8.5471e+01	2.8902	24.467061	0.000831	8.309471	1.407662	-0.000166
 861	8.5570e+01	2.8704	24.354021	0.000567	5.674760	0.961330	-0.000114
 862	8.5669e+01	2.8507	24.236944	0.000588	5.877430	0.995664	-0.000118
 863	8.5769e+01	2.8301	24.131979	0.000527	5.269420	0.892664	-0.000105
 864	8.5868e+01	2.8106	23.990679	0.000709	7.093450	1.201663	-0.000142
 865	8.5968e+01	2.7898	23.869565	0.000608	6.080100	1.029997	-0.000122
 866	8.6067e+01	2.7712	23.748451	0.000608	6.080100	1.029997	-0.000122
 867	8.6167e+01	2.7502	23.623300	0.000628	6.282770	1.064330	-0.000126
 868	8.6266e+01	2.7306	23.473926	0.000750	7.498790	1.270329	-0.000150
 869	8.6366e+01	2.7099	23.348775	0.000628	6.282770	1.064330	-0.000126
 870	8.6466e+01	2.6905	23.227660	0.000608	6.080100	1.029997	-0.000122
 871	8.6565e+01	2.6708	23.102509	0.000628	6.282770	1.064330	-0.000126
 872	8.6665e+01	2.6510	22.969284	0.000669	6.688110	1.132997	-0.000134
 873	8.6764e+01	2.6313	22.852207	0.000588	5.877430	0.995664	-0.000118
 874	8.6864e+01	2.6110	22.678610	0.000871	8.714811	1.476329	-0.000174
 875	8.6963e+01	2.5906	22.605942	0.000365	3.648060	0.617998	-0.000073
 876	8.7063e+01	2.5719	22.472716	0.000669	6.688110	1.132997	-0.000134
 877	8.7162e+01	2.5510	22.343528	0.000649	6.485440	1.098663	-0.000130
 878	8.7261e+01	2.5315	22.169931	0.000871	8.714811	1.476329	-0.000174
 879	8.7361e+01	2.5117	22.089188	0.000405	4.053400	0.686665	-0.000081
 880	8.7460e+01	2.4926	21.964037	0.000628	6.282770	1.064330	-0.000126
 881	8.7560e+01	2.4714	21.855034	0.000547	5.472090	0.926997	-0.000110
 882	8.7659e+01	2.4523	21.709697	0.000730	7.296120	1.235996	-0.000146
 883	8.7759e+01	2.4319	21.612806	0.000486	4.864080	0.823998	-0.000097
 884	8.7859e+01	2.4120	21.451321	0.000811	8.106800	1.373329	-0.000162
 885	8.7958e+01	2.3922	21.366541	0.000426	4.256070	0.720998	-0.000085
 886	8.8058e+01	2.3724	21.237353	0.000649	6.485440	1.098663	-0.000130
 887	8.8157e+01	2.3531	21.116238	0.000608	6.080100	1.029997	-0.000122
 888	8.8257e+01	2.3323	20.930530	0.000932	9.322821	1.579329	-0.000187
 889	8.8356e+01	2.3132	20.841713	0.000446	4.458740	0.755331	-0.000089
 890	8.8456e+01	2.2935	20.700413	0.000709	7.093450	1.201663	-0.000142
 891	8.8555e+01	2.2703	20.587374	0.000567	5.674760	0.961330	-0.000114
 892	8.8654e+01	2.2527	20.470297	0.000588	5.877430	0.995664	-0.000118
 893	8.8754e+01	2.2328	20.312848	0.000790	7.904130	1.338996	-0.000158
 894	8.8853e+01	2.2128	20.228069	0.000426	4.256070	0.720998	-0.000085
 895	8.8953e+01	2.1915	20.086769	0.000709	7.093450	1.201663	-0.000142
 896	8.9052e+01	2.1728	19.957581	0.000649	6.485440	1.098663	-0.000130
 897	8.9152e+01	2.1532	19.824355	0.000669	6.688110	1.132997	-0.000134
 898	8.9251e+01	2.1327	19.707278	0.000588	5.877430	0.995664	-0.000118
 899	8.9351e+01	2.1132	19.582127	0.000628	6.282770	1.064330	-0.000126
 900	8.9451e+01	2.0928	19.444864	0.000689	6.890780	1.167330	-0.000138
 901	8.9550e+01	2.0727	19.315676	0.000649	6.485440	1.098663	-0.000130
 902	8.9650e+01	2.0538	19.198599	0.000588	5.877430	0.995664	-0.000118
 903	8.9749e+01	2.0324	19.081522	0.000588	5.877430	0.995664	-0.000118
 904	8.9849e+01	2.0135	18.952334	0.000649	6.485440	1.098663	-0.000130
 905	8.9948e+01	1.9939	18.823145	0.000649	6.485440	1.098663	-0.000130
 906	9.0047e+01	1.9743	18.702031	0.000608	6.080100	1.029997	-0.000122
 907	9.0147e+01	1.9529	18.580917	0.000608	6.080100	1.029997	-0.000122
 908	9.0246e+01	1.9337	18.439617	0.000709	7.093450	1.201663	-0.000142
 909	9.0346e+01	1.9131	18.330615	0.000547	5.472090	0.926997	-0.000110
 910	9.0445e+01	1.8941	18.197389	0.000669	6.688110	1.132997	-0.000134
 911	9.0545e+01	1.8739	18.027830	0.000851	8.512141	1.441996	-0.000170
 912	9.0644e+01	1.8542	17.914790	0.000567	5.674760	0.961330	-0.000114
 913	9.0744e+01	1.8340	17.821936	0.000466	4.661410	0.789664	-0.000093
 914	9.0844e+01	1.8143	17.692747	0.000649	6.485440	1.098663	-0.000130
 915	9.0943e+01	1.7949	17.579708	0.000567	5.674760	0.961330	-0.000114
 916	9.1043e+01	1.7747	17.418222	0.000811	8.106800	1.373329	-0.000162
 917	9.1142e+01	1.7542	17.268848	0.000750	7.498790	1.270329	-0.000150
 918	9.1242e+01	1.7342	17.167920	0.000507	5.066750	0.858331	-0.000101
 919	9.1341e+01	1.7138	17.054880	0.000567	5.674760	0.961330	-0.000114
 920	9.1441e+01	1.6941	16.949914	0.000527	5.269420	0.892664	-0.000105
 921	9.1540e+01	1.6746	16.788429	0.000811	8.106800	1.373329	-0.000162
 922	9.1639e+01	1.6552	16.651166	0.000689	6.890780	1.167330	-0.000138
 923	9.1739e+01	1.6345	16.562349	0.000446	4.458740	0.755331	-0.000089
 924	9.1838e+01	1.6094	16.408938	0.000770	7.701460	1.304663	-0.000154
 925	9.1938e+01	1.5952	16.263601	0.000730	7.296120	1.235996	-0.000146
 926	9.2037e+01	1.5759	16.146524	0.000588	5.877430	0.995664	-0.000118
 927	9.2137e+01	1.5539	16.045596	0.000507	5.066750	0.858331	-0.000101
 928	9.2237e+01	1.5357	15.884111	0.000811	8.106800	1.373329	-0.000162
 929	9.2336e+01	1.5150	15.750885	0.000669	6.688110	1.132997	-0.000134
 930	9.2436e+01	1.4953	15.653994	0.000486	4.864080	0.823998	-0.000097
 931	9.2535e+01	1.4747	15.532880	0.000608	6.080100	1.029997	-0.000122
 932	9.2635e+01	1.4550	15.363320	0.000851	8.512141	1.441996	-0.000170
 933	9.2734e+01	1.4352	15.266429	0.000486	4.864080	0.823998	-0.000097
 934	9.2834e+01	1.4146	15.108980	0.000790	7.904130	1.338996	-0.000158
 935	9.2933e+01	1.3946	14.983829	0.000628	6.282770	1.064330	-0.000126
 936	9.3032e+01	1.3750	14.874827	0.000547	5.472090	0.926997	-0.000110
 937	9.3132e+01	1.3556	14.790047	0.000426	4.256070	0.720998	-0.000085
 938	9.3231e+01	1.3348	14.604339	0.000932	9.322821	1.579329	-0.000187
 939	9.3331e+01	1.3151	14.503410	0.000507	5.066750	0.858331	-0.000101
 940	9.3430e+01	1.2960	14.398445	0.000527	5.269420	0.892664	-0.000105
 941	9.3530e+01	1.2759	14.212736	0.000932	9.322821	1.579329	-0.000187
 942	9.3629e+01	1.2563	14.127957	0.000426	4.256070	0.720998	-0.000085
 943	9.3729e+01	1.2368	13.986657	0.000709	7.093450	1.201663	-0.000142
 944	9.3829e+01	1.2170	13.829208	0.000790	7.904130	1.338996	-0.000158
 945	9.3928e+01	1.1968	13.728280	0.000507	5.066750	0.858331	-0.000101
 946	9.4028e+01	1.1768	13.623315	0.000527	5.269420	0.892664	-0.000105
 947	9.4127e+01	1.1567	13.469903	0.000770	7.701460	1.304663	-0.000154
 948	9.4227e+01	1.1369	13.316492	0.000770	7.701460	1.304663	-0.000154
 949	9.4326e+01	1.1169	13.247861	0.000345	3.445390	0.583665	-0.000069
 950	9.4425e+01	1.0970	13.090413	0.000790	7.904130	1.338996	-0.000158
 951	9.4525e+01	1.0769	12.957187	0.000669	6.688110	1.132997	-0.000134
 952	9.4624e+01	1.0567	12.860296	0.000486	4.864080	0.823998	-0.000097
 953	9.4724e+01	1.0374	12.723033	0.000689	6.890780	1.167330	-0.000138
 954	9.4823e+01	1.0181	12.585771	0.000689	6.890780	1.167330	-0.000138
 955	9.4923e+01	0.9987	12.424285	0.000811	8.106800	1.373329	-0.000162
 956	9.5022e+01	0.9777	12.355654	0.000345	3.445390	0.583665	-0.000069
 957	9.5122e+01	0.9578	12.169946	0.000932	9.322821	1.579329	-0.000187
 958	9.5222e+01	0.9376	12.064980	0.000527	5.269420	0.892664	-0.000105
 959	9.5321e+01	0.9190	11.972126	0.000466	4.661410	0.789664	-0.000093
 960	9.5421e+01	0.8983	11.790455	0.000912	9.120151	1.544995	-0.000183
 961	9.5520e+01	0.8778	11.685489	0.000527	5.269420	0.892664	-0.000105
 962	9.5620e+01	0.8584	11.528041	0.000790	7.904130	1.338996	-0.000158
 963	9.5719e+01	0.8388	11.431150	0.000486	4.864080	0.823998	-0.000097
 964	9.5819e+01	0.8172	11.293887	0.000689	6.890780	1.167330	-0.000138
 965	9.5918e+01	0.7976	11.172773	0.000608	6.080100	1.029997	-0.000122
 966	9.6017e+01	0.7778	11.055696	0.000588	5.877430	0.995664	-0.000118
 967	9.6117e+01	0.7577	10.910359	0.000730	7.296120	1.235996	-0.000146
 968	9.6216e+01	0.7373	10.773097	0.000689	6.890780	1.167330	-0.000138
 969	9.6316e+01	0.7187	10.627760	0.000730	7.296120	1.235996	-0.000146
 970	9.6415e+01	0.6983	10.498571	0.000649	6.485440	1.098663	-0.000130
 971	9.6515e+01	0.6786	10.337086	0.000811	8.106800	1.373329	-0.000162
 972	9.6615e+01	0.6584	10.236158	0.000507	5.066750	0.858331	-0.000101
 973	9.6714e+01	0.6379	10.119081	0.000588	5.877430	0.995664	-0.000118
 974	9.6814e+01	0.6187	9.965670	0.000770	7.701460	1.304663	-0.000154
 975	9.6913e+01	0.5989	9.836481	0.000649	6.485440	1.098663	-0.000130
 976	9.7013e+01	0.5797	9.695181	0.000709	7.093450	1.201663	-0.000142
 977	9.7112e+01	0.5588	9.529659	0.000831	8.309471	1.407662	-0.000166
 978	9.7212e+01	0.5397	9.408545	0.000608	6.080100	1.029997	-0.000122
 979	9.7311e+01	0.5190	9.279356	0.000649	6.485440	1.098663	-0.000130
 980	9.7410e+01	0.4989	9.121908	0.000790	7.904130	1.338996	-0.000158
 981	9.7510e+01	0.4794	8.996757	0.000628	6.282770	1.064330	-0.000126
 982	9.7609e+01	0.4603	8.875643	0.000608	6.080100	1.029997	-0.000122
 983	9.7709e+01	0.4387	8.714157	0.000811	8.106800	1.373329	-0.000162
 984	9.7808e+01	0.4199	8.580932	0.000669	6.688110	1.132997	-0.000134
 985	9.7908e+01	0.3992	8.451744	0.000649	6.485440	1.098663	-0.000130
 986	9.8007e+01	0.3793	8.338704	0.000567	5.674760	0.961330	-0.000114
 987	9.8107e+01	0.3596	8.193367	0.000730	7.296120	1.235996	-0.000146
 988	9.8207e+01	0.3401	8.043993	0.000750	7.498790	1.270329	-0.000150
 989	9.8306e+01	0.3188	7.922879	0.000608	6.080100	1.029997	-0.000122
 990	9.8406e+01	0.3001	7.809839	0.000567	5.674760	0.961330	-0.000114
 991	9.8505e+01	0.2799	7.656428	0.000770	7.701460	1.304663	-0.000154
 992	9.8605e+01	0.2602	7.527240	0.000649	6.485440	1.098663	-0.000130
 993	9.8704e+01	0.2399	7.373828	0.000770	7.701460	1.304663	-0.000154
 994	9.8803e+01	0.2196	7.264826	0.000547	5.472090	0.926997	-0.000110
 995	9.8903e+01	0.1997	7.083155	0.000912	9.120151	1.544995	-0.000183
 996	9.9002e+01	0.1806	6.974152	0.000547	5.472090	0.926997	-0.000110
 997	9.9102e+01	0.1596	6.840927	0.000669	6.688110	1.132997	-0.000134
 998	9.9201e+01	0.1399	6.699627	0.000709	7.093450	1.201663	-0.000142
 999	9.9301e+01	0.1212	6.566401	0.000669	6.688110	1.132997	-0.000134
1000	9.9400e+01	0.0998	6.412990	0.000770	7.701460	1.304663	-0.000154
1001	9.9500e+01	0.0808	6.295913	0.000588	5.877430	0.995664	-0.000118
1002	9.9600e+01	0.0604	6.130391	0.000831	8.309471	1.407662	-0.000166
1003	9.9699e+01	0.0407	6.005239	0.000628	6.282770	1.064330	-0.000126
1004	9.9799e+01	0.0212	5.851828	0.000770	7.701460	1.304663	-0.000154
1005	9.9898e+01	0.0008	5.734751	0.000588	5.877430	0.995664	-0.000118
1006	9.9998e+01	-0.0169	5.585377	0.000750	7.498790	1.270329	-0.000150
1007	1.0010e+02	-0.0362	5.436003	0.000750	7.498790	1.270329	-0.000150
1008	1.0020e+02	-0.0565	5.298741	0.000689	6.890780	1.167330	-0.000138
1009	1.0030e+02	-0.0766	5.201849	0.000486	4.864080	0.823998	-0.000097
1010	1.0040e+02	-0.0975	5.068624	0.000669	6.688110	1.132997	-0.000134
1011	1.0050e+02	-0.1173	4.919250	0.000750	7.498790	1.270329	-0.000150
1012	1.0059e+02	-0.1363	4.786024	0.000669	6.688110	1.132997	-0.000134
1013	1.0069e+02	-0.1575	4.616465	0.000851	8.512141	1.441996	-0.000170
1014	1.0079e+02	-0.1764	4.471128	0.000730	7.296120	1.235996	-0.000146
1015	1.0089e+02	-0.1965	4.325791	0.000730	7.296120	1.235996	-0.000146
1016	1.0099e+02	-0.2168	4.212751	0.000567	5.674760	0.961330	-0.000114
1017	1.0109e+02	-0.2367	4.071451	0.000709	7.093450	1.201663	-0.000142
1018	1.0119e+02	-0.2567	3.901892	0.000851	8.512141	1.441996	-0.000170
1019	1.0129e+02	-0.2768	3.764629	0.000689	6.890780	1.167330	-0.000138
1020	1.0139e+02	-0.2962	3.639478	0.000628	6.282770	1.064330	-0.000126
1021	1.0149e+02	-0.3162	3.514327	0.000628	6.282770	1.064330	-0.000126
1022	1.0159e+02	-0.3366	3.336693	0.000892	8.917481	1.510662	-0.000179
1023	1.0169e+02	-0.3562	3.211541	0.000628	6.282770	1.064330	-0.000126
1024	1.0179e+02	-0.3765	3.102539	0.000547	5.472090	0.926997	-0.000110
1025	1.0189e+02	-0.3970	2.892608	0.001054	10.538841	1.785328	-0.000211
1026	1.0199e+02	-0.4167	2.832051	0.000304	3.040050	0.514998	-0.000061
1027	1.0209e+02	-0.4356	2.650380	0.000912	9.120151	1.544995	-0.000183
1028	1.0219e+02	-0.4552	2.488894	0.000811	8.106800	1.373329	-0.000162
1029	1.0229e+02	-0.4764	2.396040	0.000466	4.661410	0.789664	-0.000093
1030	1.0239e+02	-0.4958	2.238592	0.000790	7.904130	1.338996	-0.000158
1031	1.0248e+02	-0.5153	2.097292	0.000709	7.093450	1.201663	-0.000142
1032	1.0258e+02	-0.5352	1.927732	0.000851	8.512141	1.441996	-0.000170
1033	1.0268e+02	-0.5556	1.842952	0.000426	4.256070	0.720998	-0.000085
1034	1.0278e+02	-0.5760	1.645133	0.000993	9.930831	1.682328	-0.000199
1035	1.0288e+02	-0.5953	1.524019	0.000608	6.080100	1.029997	-0.000122
1036	1.0298e+02	-0.6153	1.382719	0.000709	7.093450	1.201663	-0.000142
1037	1.0308e+02	-0.6350	1.188936	0.000973	9.728161	1.647995	-0.000195
1038	1.0318e+02	-0.6551	1.083971	0.000527	5.269420	0.892664	-0.000105
1039	1.0328e+02	-0.6753	0.926523	0.000790	7.904130	1.338996	-0.000158
1040	1.0338e+02	-0.6953	0.801371	0.000628	6.282770	1.064330	-0.000126
1041	1.0348e+02	-0.7153	0.639886	0.000811	8.106800	1.373329	-0.000162
1042	1.0358e+02	-0.7348	0.547032	0.000466	4.661410	0.789664	-0.000093
1043	1.0368e+02	-0.7545	0.373435	0.000871	8.714811	1.476329	-0.000174
1044	1.0378e+02	-0.7749	0.244247	0.000649	6.485440	1.098663	-0.000130
1045	1.0388e+02	-0.7941	0.070650	0.000871	8.714811	1.476329	-0.000174
1046	1.0398e+02	-0.8147	-0.058538	0.000649	6.485440	1.098663	-0.000130
1047	1.0408e+02	-0.8344	-0.187727	0.000649	6.485440	1.098663	-0.000130
1048	1.0418e+02	-0.8540	-0.329027	0.000709	7.093450	1.201663	-0.000142
1049	1.0428e+02	-0.8746	-0.526846	0.000993	9.930831	1.682328	-0.000199
1050	1.0438e+02	-0.8945	-0.615663	0.000446	4.458740	0.755331	-0.000089
1051	1.0447e+02	-0.9149	-0.724666	0.000547	5.472090	0.926997	-0.000110
1052	1.0457e+02	-0.9348	-0.890188	0.000831	8.309471	1.407662	-0.000166
1053	1.0467e+02	-0.9545	-1.059748	0.000851	8.512141	1.441996	-0.000170
1054	1.0477e+02	-0.9749	-1.156639	0.000486	4.864080	0.823998	-0.000097
1055	1.0487e+02	-0.9943	-1.338310	0.000912	9.120151	1.544995	-0.000183
1056	1.0497e+02	-1.0138	-1.463462	0.000628	6.282770	1.064330	-0.000126
1057	1.0507e+02	-1.0345	-1.584576	0.000608	6.080100	1.029997	-0.000122
1058	1.0517e+02	-1.0546	-1.733950	0.000750	7.498790	1.270329	-0.000150
1059	1.0527e+02	-1.0738	-1.879287	0.000730	7.296120	1.235996	-0.000146
1060	1.0537e+02	-1.0934	-2.012512	0.000669	6.688110	1.132997	-0.000134
1061	1.0547e+02	-1.1136	-2.141701	0.000649	6.485440	1.098663	-0.000130
1062	1.0557e+02	-1.1343	-2.303186	0.000811	8.106800	1.373329	-0.000162
1063	1.0567e+02	-1.1536	-2.424300	0.000608	6.080100	1.029997	-0.000122
1064	1.0577e+02	-1.1741	-2.573674	0.000750	7.498790	1.270329	-0.000150
1065	1.0587e+02	-1.1935	-2.719011	0.000730	7.296120	1.235996	-0.000146
1066	1.0597e+02	-1.2125	-2.840125	0.000608	6.080100	1.029997	-0.000122
1067	1.0607e+02	-1.2329	-3.001610	0.000811	8.106800	1.373329	-0.000162
1068	1.0617e+02	-1.2532	-3.142910	0.000709	7.093450	1.201663	-0.000142
1069	1.0627e+02	-1.2723	-3.264024	0.000608	6.080100	1.029997	-0.000122
1070	1.0637e+02	-1.2927	-3.401287	0.000689	6.890780	1.167330	-0.000138
1071	1.0647e+02	-1.3129	-3.534512	0.000669	6.688110	1.132997	-0.000134
1072	1.0656e+02	-1.3324	-3.720221	0.000932	9.322821	1.579329	-0.000187
1073	1.0666e+02	-1.3525	-3.776740	0.000284	2.837380	0.480665	-0.000057
1074	1.0676e+02	-1.3721	-3.982634	0.001034	10.336171	1.750995	-0.000207
1075	1.0686e+02	-1.3931	-4.115860	0.000669	6.688110	1.132997	-0.000134
1076	1.0696e+02	-1.4120	-4.228900	0.000567	5.674760	0.961330	-0.000114
1077	1.0706e+02	-1.4325	-4.402497	0.000871	8.714811	1.476329	-0.000174
1078	1.0716e+02	-1.4514	-4.495351	0.000466	4.661410	0.789664	-0.000093
1079	1.0726e+02	-1.4726	-4.636650	0.000709	7.093450	1.201663	-0.000142
1080	1.0736e+02	-1.4919	-4.773913	0.000689	6.890780	1.167330	-0.000138
1081	1.0746e+02	-1.5124	-4.927324	0.000770	7.701460	1.304663	-0.000154
1082	1.0756e+02	-1.5319	-5.036327	0.000547	5.472090	0.926997	-0.000110
1083	1.0766e+02	-1.5509	-5.165515	0.000649	6.485440	1.098663	-0.000130
1084	1.0776e+02	-1.5713	-5.335075	0.000851	8.512141	1.441996	-0.000170
1085	1.0786e+02	-1.5916	-5.456189	0.000608	6.080100	1.029997	-0.000122
1086	1.0796e+02	-1.6121	-5.605563	0.000750	7.498790	1.270329	-0.000150
1087	1.0806e+02	-1.6312	-5.754937	0.000750	7.498790	1.270329	-0.000150
1088	1.0816e+02	-1.6510	-5.896237	0.000709	7.093450	1.201663	-0.000142
1089	1.0826e+02	-1.6724	-6.009277	0.000567	5.674760	0.961330	-0.000114
1090	1.0836e+02	-1.6914	-6.166725	0.000790	7.904130	1.338996	-0.000158
1091	1.0845e+02	-1.7117	-6.263616	0.000486	4.864080	0.823998	-0.000097
1092	1.0855e+02	-1.7314	-6.412990	0.000750	7.498790	1.270329	-0.000150
1093	1.0865e+02	-1.7508	-6.566401	0.000770	7.701460	1.304663	-0.000154
1094	1.0875e+02	-1.7706	-6.687515	0.000608	6.080100	1.029997	-0.000122
1095	1.0885e+02	-1.7914	-6.849001	0.000811	8.106800	1.373329	-0.000162
1096	1.0895e+02	-1.8114	-6.962041	0.000567	5.674760	0.961330	-0.000114
1097	1.0905e+02	-1.8314	-7.087192	0.000628	6.282770	1.064330	-0.000126
1098	1.0915e+02	-1.8500	-7.240603	0.000770	7.701460	1.304663	-0.000154
1099	1.0925e+02	-1.8713	-7.377866	0.000689	6.890780	1.167330	-0.000138
1100	1.0935e+02	-1.8906	-7.519165	0.000709	7.093450	1.201663	-0.000142
1101	1.0945e+02	-1.9106	-7.628168	0.000547	5.472090	0.926997	-0.000110
1102	1.0955e+02	-1.9305	-7.745245	0.000588	5.877430	0.995664	-0.000118
1103	1.0965e+02	-1.9507	-7.930953	0.000932	9.322821	1.579329	-0.000187
1104	1.0975e+02	-1.9707	-8.092439	0.000811	8.106800	1.373329	-0.000162
1105	1.0985e+02	-1.9885	-8.161070	0.000345	3.445390	0.583665	-0.000069
1106	1.0995e+02	-2.0110	-8.330630	0.000851	8.512141	1.441996	-0.000170
1107	1.1005e+02	-2.0297	-8.439632	0.000547	5.472090	0.926997	-0.000110
1108	1.1015e+02	-2.0498	-8.560746	0.000608	6.080100	1.029997	-0.000122
1109	1.1025e+02	-2.0695	-8.706083	0.000730	7.296120	1.235996	-0.000146
1110	1.1035e+02	-2.0886	-8.875643	0.000851	8.512141	1.441996	-0.000170
1111	1.1044e+02	-2.1100	-9.016943	0.000709	7.093450	1.201663	-0.000142
1112	1.1054e+02	-2.1297	-9.150168	0.000669	6.688110	1.132997	-0.000134
1113	1.1064e+02	-2.1500	-9.275319	0.000628	6.282770	1.064330	-0.000126
1114	1.1074e+02	-2.1696	-9.360099	0.000426	4.256070	0.720998	-0.000085
1115	1.1084e+02	-2.1902	-9.513510	0.000770	7.701460	1.304663	-0.000154
1116	1.1094e+02	-2.2094	-9.674996	0.000811	8.106800	1.373329	-0.000162
1117	1.1104e+02	-2.2296	-9.771887	0.000486	4.864080	0.823998	-0.000097
1118	1.1114e+02	-2.2497	-9.913187	0.000709	7.093450	1.201663	-0.000142
1119	1.1124e+02	-2.2693	-10.062561	0.000750	7.498790	1.270329	-0.000150
1120	1.1134e+02	-2.2900	-10.175601	0.000567	5.674760	0.961330	-0.000114
1121	1.1144e+02	-2.3095	-10.296715	0.000608	6.080100	1.029997	-0.000122
1122	1.1154e+02	-2.3294	-10.454163	0.000790	7.904130	1.338996	-0.000158
1123	1.1164e+02	-2.3492	-10.591426	0.000689	6.890780	1.167330	-0.000138
1124	1.1174e+02	-2.3685	-10.696391	0.000527	5.269420	0.892664	-0.000105
1125	1.1184e+02	-2.3888	-10.841728	0.000730	7.296120	1.235996	-0.000146
1126	1.1194e+02	-2.4097	-10.974954	0.000669	6.688110	1.132997	-0.000134
1127	1.1204e+02	-2.4284	-11.067808	0.000466	4.661410	0.789664	-0.000093
1128	1.1214e+02	-2.4484	-11.233330	0.000831	8.309471	1.407662	-0.000166
1129	1.1224e+02	-2.4696	-11.354444	0.000608	6.080100	1.029997	-0.000122
1130	1.1234e+02	-2.4881	-11.515930	0.000811	8.106800	1.373329	-0.000162
1131	1.1244e+02	-2.5079	-11.633007	0.000588	5.877430	0.995664	-0.000118
1132	1.1253e+02	-2.5280	-11.766232	0.000669	6.688110	1.132997	-0.000134
1133	1.1263e+02	-2.5479	-11.907532	0.000709	7.093450	1.201663	-0.000142
1134	1.1273e+02	-2.5677	-12.048832	0.000709	7.093450	1.201663	-0.000142
1135	1.1283e+02	-2.5883	-12.157834	0.000547	5.472090	0.926997	-0.000110
1136	1.1293e+02	-2.6080	-12.307208	0.000750	7.498790	1.270329	-0.000150
1137	1.1303e+02	-2.6280	-12.440434	0.000669	6.688110	1.132997	-0.000134
1138	1.1313e+02	-2.6483	-12.541362	0.000507	5.066750	0.858331	-0.000101
1139	1.1323e+02	-2.6672	-12.686699	0.000730	7.296120	1.235996	-0.000146
1140	1.1333e+02	-2.6871	-12.827999	0.000709	7.093450	1.201663	-0.000142
1141	1.1343e+02	-2.7086	-12.993521	0.000831	8.309471	1.407662	-0.000166
1142	1.1353e+02	-2.7271	-13.110598	0.000588	5.877430	0.995664	-0.000118
1143	1.1363e+02	-2.7472	-13.227675	0.000588	5.877430	0.995664	-0.000118
1144	1.1373e+02	-2.7673	-13.352826	0.000628	6.282770	1.064330	-0.000126
1145	1.1383e+02	-2.7875	-13.486052	0.000669	6.688110	1.132997	-0.000134
1146	1.1393e+02	-2.8069	-13.623315	0.000689	6.890780	1.167330	-0.000138
1147	1.1403e+02	-2.8271	-13.776726	0.000770	7.701460	1.304663	-0.000154
1148	1.1413e+02	-2.8476	-13.913988	0.000689	6.890780	1.167330	-0.000138
1149	1.1423e+02	-2.8674	-14.035102	0.000608	6.080100	1.029997	-0.000122
1150	1.1433e+02	-2.8870	-14.152179	0.000588	5.877430	0.995664	-0.000118
1151	1.1442e+02	-2.9068	-14.305590	0.000770	7.701460	1.304663	-0.000154
1152	1.1452e+02	-2.9266	-14.442853	0.000689	6.890780	1.167330	-0.000138
1153	1.1462e+02	-2.9473	-14.576079	0.000669	6.688110	1.132997	-0.000134
1154	1.1472e+02	-2.9675	-14.677007	0.000507	5.066750	0.858331	-0.000101
1155	1.1482e+02	-2.9857	-14.822344	0.000730	7.296120	1.235996	-0.000146
1156	1.1492e+02	-3.0063	-14.975755	0.000770	7.701460	1.304663	-0.000154
1157	1.1502e+02	-3.0264	-15.096869	0.000608	6.080100	1.029997	-0.000122
1158	1.1512e+02	-3.0455	-15.234132	0.000689	6.890780	1.167330	-0.000138
1159	1.1522e+02	-3.0670	-15.371394	0.000689	6.890780	1.167330	-0.000138
1160	1.1532e+02	-3.0869	-15.504620	0.000669	6.688110	1.132997	-0.000134
1161	1.1542e+02	-3.1070	-15.605548	0.000507	5.066750	0.858331	-0.000101
1162	1.1552e+02	-3.1262	-15.775108	0.000851	8.512141	1.441996	-0.000170
1163	1.1562e+02	-3.1464	-15.884111	0.000547	5.472090	0.926997	-0.000110
1164	1.1572e+02	-3.1662	-16.017336	0.000669	6.688110	1.132997	-0.000134
1165	1.1582e+02	-3.1860	-16.106153	0.000446	4.458740	0.755331	-0.000089
1166	1.1592e+02	-3.2059	-16.291861	0.000932	9.322821	1.579329	-0.000187
1167	1.1602e+02	-3.2251	-16.412975	0.000608	6.080100	1.029997	-0.000122
1168	1.1612e+02	-3.2458	-16.562349	0.000750	7.498790	1.270329	-0.000150
1169	1.1622e+02	-3.2666	-16.655203	0.000466	4.661410	0.789664	-0.000093
1170	1.1632e+02	-3.2858	-16.844949	0.000953	9.525491	1.613662	-0.000191
1171	1.1642e+02	-3.3061	-16.962026	0.000588	5.877430	0.995664	-0.000118
1172	1.1651e+02	-3.3250	-17.071028	0.000547	5.472090	0.926997	-0.000110
1173	1.1661e+02	-3.3450	-17.180031	0.000547	5.472090	0.926997	-0.000110
1174	1.1671e+02	-3.3659	-17.345554	0.000831	8.309471	1.407662	-0.000166
1175	1.1681e+02	-3.3850	-17.486853	0.000709	7.093450	1.201663	-0.000142
1176	1.1691e+02	-3.4061	-17.603930	0.000588	5.877430	0.995664	-0.000118
1177	1.1701e+02	-3.4254	-17.729082	0.000628	6.282770	1.064330	-0.000126
1178	1.1711e+02	-3.4451	-17.866344	0.000689	6.890780	1.167330	-0.000138
1179	1.1721e+02	-3.4656	-18.031867	0.000831	8.309471	1.407662	-0.000166
1180	1.1731e+02	-3.4851	-18.128758	0.000486	4.864080	0.823998	-0.000097
1181	1.1741e+02	-3.5043	-18.266021	0.000689	6.890780	1.167330	-0.000138
1182	1.1751e+02	-3.5246	-18.362912	0.000486	4.864080	0.823998	-0.000097
1183	1.1761e+02	-3.5449	-18.520360	0.000790	7.904130	1.338996	-0.000158
1184	1.1771e+02	-3.5648	-18.637437	0.000588	5.877430	0.995664	-0.000118
1185	1.1781e+02	-3.5840	-18.750477	0.000567	5.674760	0.961330	-0.000114
1186	1.1791e+02	-3.6047	-18.903888	0.000770	7.701460	1.304663	-0.000154
1187	1.1801e+02	-3.6249	-19.029039	0.000628	6.282770	1.064330	-0.000126
1188	1.1811e+02	-3.6444	-19.174376	0.000730	7.296120	1.235996	-0.000146
1189	1.1821e+02	-3.6639	-19.307602	0.000669	6.688110	1.132997	-0.000134
1190	1.1831e+02	-3.6847	-19.412567	0.000527	5.269420	0.892664	-0.000105
1191	1.1841e+02	-3.7036	-19.525607	0.000567	5.674760	0.961330	-0.000114
1192	1.1850e+02	-3.7244	-19.658832	0.000669	6.688110	1.132997	-0.000134
1193	1.1860e+02	-3.7444	-19.788021	0.000649	6.485440	1.098663	-0.000130
1194	1.1870e+02	-3.7640	-19.917209	0.000649	6.485440	1.098663	-0.000130
1195	1.1880e+02	-3.7836	-20.058509	0.000709	7.093450	1.201663	-0.000142
1196	1.1890e+02	-3.8031	-20.151363	0.000466	4.661410	0.789664	-0.000093
1197	1.1900e+02	-3.8235	-20.333034	0.000912	9.120151	1.544995	-0.000183
1198	1.1910e+02	-3.8431	-20.458185	0.000628	6.282770	1.064330	-0.000126
1199	1.1920e+02	-3.8629	-20.563151	0.000527	5.269420	0.892664	-0.000105
1200	1.1930e+02	-3.8824	-20.720599	0.000790	7.904130	1.338996	-0.000158
1201	1.1940e+02	-3.9038	-20.817490	0.000486	4.864080	0.823998	-0.000097
1202	1.1950e+02	-3.9230	-20.970902	0.000770	7.701460	1.304663	-0.000154
1203	1.1960e+02	-3.9423	-21.108164	0.000689	6.890780	1.167330	-0.000138
1204	1.1970e+02	-3.9630	-21.225241	0.000588	5.877430	0.995664	-0.000118
1205	1.1980e+02	-3.9838	-21.338281	0.000567	5.674760	0.961330	-0.000114
1206	1.1990e+02	-4.0026	-21.491692	0.000770	7.701460	1.304663	-0.000154
1207	1.2000e+02	-4.0228	-21.560323	0.000345	3.445390	0.583665	-0.000069
1208	1.2010e+02	-4.0424	-21.733920	0.000871	8.714811	1.476329	-0.000174
1209	1.2020e+02	-4.0625	-21.818700	0.000426	4.256070	0.720998	-0.000085
1210	1.2030e+02	-4.0823	-21.992297	0.000871	8.714811	1.476329	-0.000174
1211	1.2039e+02	-4.1028	-22.125522	0.000669	6.688110	1.132997	-0.000134
1212	1.2049e+02	-4.1229	-22.262785	0.000689	6.890780	1.167330	-0.000138
1213	1.2059e+02	-4.1425	-22.367751	0.000527	5.269420	0.892664	-0.000105
1214	1.2069e+02	-4.1622	-22.472716	0.000527	5.269420	0.892664	-0.000105
1215	1.2079e+02	-4.1811	-22.609979	0.000689	6.890780	1.167330	-0.000138
1216	1.2089e+02	-4.2017	-22.743204	0.000669	6.688110	1.132997	-0.000134
1217	1.2099e+02	-4.2224	-22.864318	0.000608	6.080100	1.029997	-0.000122
1218	1.2109e+02	-4.2422	-22.953135	0.000446	4.458740	0.755331	-0.000089
1219	1.2119e+02	-4.2624	-23.126732	0.000871	8.714811	1.476329	-0.000174
1220	1.2129e+02	-4.2815	-23.219586	0.000466	4.661410	0.789664	-0.000093
1221	1.2139e+02	-4.3019	-23.316477	0.000486	4.864080	0.823998	-0.000097
1222	1.2149e+02	-4.3219	-23.409332	0.000466	4.661410	0.789664	-0.000093
1223	1.2159e+02	-4.3430	-23.578891	0.000851	8.512141	1.441996	-0.000170
1224	1.2169e+02	-4.3620	-23.700005	0.000608	6.080100	1.029997	-0.000122
1225	1.2179e+02	-4.3816	-23.837268	0.000689	6.890780	1.167330	-0.000138
1226	1.2189e+02	-4.4018	-23.950308	0.000567	5.674760	0.961330	-0.000114
1227	1.2199e+02	-4.4208	-24.095645	0.000730	7.296120	1.235996	-0.000146
1228	1.2209e+02	-4.4415	-24.196573	0.000507	5.066750	0.858331	-0.000101
1229	1.2219e+02	-4.4608	-24.354021	0.000790	7.904130	1.338996	-0.000158
1230	1.2229e+02	-4.4818	-24.418616	0.000324	3.242720	0.549332	-0.000065
1231	1.2239e+02	-4.5020	-24.567990	0.000750	7.498790	1.270329	-0.000150
1232	1.2248e+02	-4.5212	-24.693141	0.000628	6.282770	1.064330	-0.000126
1233	1.2258e+02	-4.5404	-24.794069	0.000507	5.066750	0.858331	-0.000101
1234	1.2268e+02	-4.5605	-24.911146	0.000588	5.877430	0.995664	-0.000118
1235	1.2278e+02	-4.5819	-25.024186	0.000567	5.674760	0.961330	-0.000114
1236	1.2288e+02	-4.6008	-25.125114	0.000507	5.066750	0.858331	-0.000101
1237	1.2298e+02	-4.6219	-25.262377	0.000689	6.890780	1.167330	-0.000138
1238	1.2308e+02	-4.6404	-25.359268	0.000486	4.864080	0.823998	-0.000097
1239	1.2318e+02	-4.6606	-25.500568	0.000709	7.093450	1.201663	-0.000142
1240	1.2328e+02	-4.6814	-25.597459	0.000486	4.864080	0.823998	-0.000097
1241	1.2338e+02	-4.7000	-25.690313	0.000466	4.661410	0.789664	-0.000093
1242	1.2348e+02	-4.7205	-25.819502	0.000649	6.485440	1.098663	-0.000130
1243	1.2358e+02	-4.7406	-25.944653	0.000628	6.282770	1.064330	-0.000126
1244	1.2368e+02	-4.7601	-26.069804	0.000628	6.282770	1.064330	-0.000126
1245	1.2378e+02	-4.7803	-26.134398	0.000324	3.242720	0.549332	-0.000065
1246	1.2388e+02	-4.7998	-26.299921	0.000831	8.309471	1.407662	-0.000166
1247	1.2398e+02	-4.8204	-26.408923	0.000547	5.472090	0.926997	-0.000110
1248	1.2408e+02	-4.8395	-26.501778	0.000466	4.661410	0.789664	-0.000093
1249	1.2418e+02	-4.8608	-26.639040	0.000689	6.890780	1.167330	-0.000138
1250	1.2428e+02	-4.8794	-26.735931	0.000486	4.864080	0.823998	-0.000097
1251	1.2438e+02	-4.8993	-26.865120	0.000649	6.485440	1.098663	-0.000130
1252	1.2447e+02	-4.9194	-26.994308	0.000649	6.485440	1.098663	-0.000130
1253	1.2457e+02	-4.9402	-27.111385	0.000588	5.877430	0.995664	-0.000118
1254	1.2467e+02	-4.9591	-27.196165	0.000426	4.256070	0.720998	-0.000085
1255	1.2477e+02	-4.9799	-27.349576	0.000770	7.701460	1.304663	-0.000154
1256	1.2487e+02	-4.9994	-27.418207	0.000345	3.445390	0.583665	-0.000069
1257	1.2497e+02	-5.0183	-27.535284	0.000588	5.877430	0.995664	-0.000118
1258	1.2507e+02	-5.0391	-27.636213	0.000507	5.066750	0.858331	-0.000101
1259	1.2517e+02	-5.0589	-27.753290	0.000588	5.877430	0.995664	-0.000118
1260	1.2527e+02	-5.0793	-27.882478	0.000649	6.485440	1.098663	-0.000130
1261	1.2537e+02	-5.0995	-27.987444	0.000527	5.269420	0.892664	-0.000105
1262	1.2547e+02	-5.1181	-28.096446	0.000547	5.472090	0.926997	-0.000110
1263	1.2557e+02	-5.1389	-28.197375	0.000507	5.066750	0.858331	-0.000101
1264	1.2567e+02	-5.1579	-28.310414	0.000567	5.674760	0.961330	-0.000114
1265	1.2577e+02	-5.1782	-28.435566	0.000628	6.282770	1.064330	-0.000126
1266	1.2587e+02	-5.1984	-28.544568	0.000547	5.472090	0.926997	-0.000110
1267	1.2597e+02	-5.2173	-28.661645	0.000588	5.877430	0.995664	-0.000118
1268	1.2607e+02	-5.2380	-28.766611	0.000527	5.269420	0.892664	-0.000105
1269	1.2617e+02	-5.2582	-28.847353	0.000405	4.053400	0.686665	-0.000081
1270	1.2627e+02	-5.2783	-28.992690	0.000730	7.296120	1.235996	-0.000146
1271	1.2636e+02	-5.2988	-29.073433	0.000405	4.053400	0.686665	-0.000081
1272	1.2646e+02	-5.3180	-29.182436	0.000547	5.472090	0.926997	-0.000110
1273	1.2656e+02	-5.3378	-29.315661	0.000669	6.688110	1.132997	-0.000134
1274	1.2666e+02	-5.3577	-29.432738	0.000588	5.877430	0.995664	-0.000118
1275	1.2676e+02	-5.3772	-29.565964	0.000669	6.688110	1.132997	-0.000134
1276	1.2686e+02	-5.3984	-29.646706	0.000405	4.053400	0.686665	-0.000081
1277	1.2696e+02	-5.4175	-29.735523	0.000446	4.458740	0.755331	-0.000089
1278	1.2706e+02	-5.4376	-29.844526	0.000547	5.472090	0.926997	-0.000110
1279	1.2716e+02	-5.4572	-29.925269	0.000405	4.053400	0.686665	-0.000081
1280	1.2726e+02	-5.4779	-30.078680	0.000770	7.701460	1.304663	-0.000154
1281	1.2736e+02	-5.4980	-30.155385	0.000385	3.850730	0.652331	-0.000077
1282	1.2746e+02	-5.5167	-30.304759	0.000750	7.498790	1.270329	-0.000150
1283	1.2756e+02	-5.5380	-30.369354	0.000324	3.242720	0.549332	-0.000065
1284	1.2766e+02	-5.5566	-30.482393	0.000567	5.674760	0.961330	-0.000114
1285	1.2776e+02	-5.5780	-30.599470	0.000588	5.877430	0.995664	-0.000118
1286	1.2786e+02	-5.5974	-30.696362	0.000486	4.864080	0.823998	-0.000097
1287	1.2796e+02	-5.6171	-30.813439	0.000588	5.877430	0.995664	-0.000118
1288	1.2806e+02	-5.6369	-30.894181	0.000405	4.053400	0.686665	-0.000081
1289	1.2816e+02	-5.6567	-31.023370	0.000649	6.485440	1.098663	-0.000130
1290	1.2826e+02	-5.6769	-31.156595	0.000669	6.688110	1.132997	-0.000134
1291	1.2835e+02	-5.6970	-31.241375	0.000426	4.256070	0.720998	-0.000085
1292	1.2845e+02	-5.7172	-31.305969	0.000324	3.242720	0.549332	-0.000065
1293	1.2855e+02	-5.7367	-31.443232	0.000689	6.890780	1.167330	-0.000138
1294	1.2865e+02	-5.7562	-31.560309	0.000588	5.877430	0.995664	-0.000118
1295	1.2875e+02	-5.7767	-31.637014	0.000385	3.850730	0.652331	-0.000077
1296	1.2885e+02	-5.7965	-31.774277	0.000689	6.890780	1.167330	-0.000138
1297	1.2895e+02	-5.8160	-31.887317	0.000567	5.674760	0.961330	-0.000114
1298	1.2905e+02	-5.8368	-31.976134	0.000446	4.458740	0.755331	-0.000089
1299	1.2915e+02	-5.8569	-32.064951	0.000446	4.458740	0.755331	-0.000089
1300	1.2925e+02	-5.8768	-32.173953	0.000547	5.472090	0.926997	-0.000110
1301	1.2935e+02	-5.8978	-32.262770	0.000446	4.458740	0.755331	-0.000089
1302	1.2945e+02	-5.9167	-32.383884	0.000608	6.080100	1.029997	-0.000122
1303	1.2955e+02	-5.9363	-32.480776	0.000486	4.864080	0.823998	-0.000097
1304	1.2965e+02	-5.9558	-32.601890	0.000608	6.080100	1.029997	-0.000122
1305	1.2975e+02	-5.9760	-32.727041	0.000628	6.282770	1.064330	-0.000126
1306	1.2985e+02	-5.9955	-32.803746	0.000385	3.850730	0.652331	-0.000077
1307	1.2995e+02	-6.0144	-32.916786	0.000567	5.674760	0.961330	-0.000114
1308	1.3005e+02	-6.0361	-33.013677	0.000486	4.864080	0.823998	-0.000097
1309	1.3015e+02	-6.0544	-33.130754	0.000588	5.877430	0.995664	-0.000118
1310	1.3025e+02	-6.0754	-33.239757	0.000547	5.472090	0.926997	-0.000110
1311	1.3034e+02	-6.0950	-33.393168	0.000770	7.701460	1.304663	-0.000154
1312	1.3044e+02	-6.1151	-33.457762	0.000324	3.242720	0.549332	-0.000065
1313	1.3054e+02	-6.1353	-33.570802	0.000567	5.674760	0.961330	-0.000114
1314	1.3064e+02	-6.1548	-33.683842	0.000567	5.674760	0.961330	-0.000114
1315	1.3074e+02	-6.1749	-33.796882	0.000567	5.674760	0.961330	-0.000114
1316	1.3084e+02	-6.1957	-33.889736	0.000466	4.661410	0.789664	-0.000093
1317	1.3094e+02	-6.2152	-34.010850	0.000608	6.080100	1.029997	-0.000122
1318	1.3104e+02	-6.2341	-34.091593	0.000405	4.053400	0.686665	-0.000081
1319	1.3114e+02	-6.2543	-34.224818	0.000669	6.688110	1.132997	-0.000134
1320	1.3124e+02	-6.2741	-34.321709	0.000486	4.864080	0.823998	-0.000097
1321	1.3134e+02	-6.2946	-34.414564	0.000466	4.661410	0.789664	-0.000093
1322	1.3144e+02	-6.3147	-34.551826	0.000689	6.890780	1.167330	-0.000138
1323	1.3154e+02	-6.3342	-34.624495	0.000365	3.648060	0.617998	-0.000073
1324	1.3164e+02	-6.3538	-34.757720	0.000669	6.688110	1.132997	-0.000134
1325	1.3174e+02	-6.3745	-34.826351	0.000345	3.445390	0.583665	-0.000069
1326	1.3184e+02	-6.3940	-34.995911	0.000851	8.512141	1.441996	-0.000170
1327	1.3194e+02	-6.4142	-35.096840	0.000507	5.066750	0.858331	-0.000101
1328	1.3204e+02	-6.4336	-35.197768	0.000507	5.066750	0.858331	-0.000101
1329	1.3214e+02	-6.4544	-35.302733	0.000527	5.269420	0.892664	-0.000105
1330	1.3224e+02	-6.4740	-35.431922	0.000649	6.485440	1.098663	-0.000130
1331	1.3234e+02	-6.4934	-35.476330	0.000223	2.229370	0.377666	-0.000045
1332	1.3243e+02	-6.5131	-35.605519	0.000649	6.485440	1.098663	-0.000130
1333	1.3253e+02	-6.5338	-35.754893	0.000750	7.498790	1.270329	-0.000150
1334	1.3263e+02	-6.5533	-35.827561	0.000365	3.648060	0.617998	-0.000073
1335	1.3273e+02	-6.5738	-35.964824	0.000689	6.890780	1.167330	-0.000138
1336	1.3283e+02	-6.5930	-36.053641	0.000446	4.458740	0.755331	-0.000089
1337	1.3293e+02	-6.6125	-36.118235	0.000324	3.242720	0.549332	-0.000065
1338	1.3303e+02	-6.6339	-36.231275	0.000567	5.674760	0.961330	-0.000114
1339	1.3313e+02	-6.6528	-36.376612	0.000730	7.296120	1.235996	-0.000146
1340	1.3323e+02	-6.6736	-36.473503	0.000486	4.864080	0.823998	-0.000097
1341	1.3333e+02	-6.6931	-36.602691	0.000649	6.485440	1.098663	-0.000130
1342	1.3343e+02	-6.7139	-36.703620	0.000507	5.066750	0.858331	-0.000101
1343	1.3353e+02	-6.7331	-36.784362	0.000405	4.053400	0.686665	-0.000081
1344	1.3363e+02	-6.7535	-36.921625	0.000689	6.890780	1.167330	-0.000138
1345	1.3373e+02	-6.7731	-37.022553	0.000507	5.066750	0.858331	-0.000101
1346	1.3383e+02	-6.7923	-37.127519	0.000527	5.269420	0.892664	-0.000105
1347	1.3393e+02	-6.8134	-37.240559	0.000567	5.674760	0.961330	-0.000114
1348	1.3403e+02	-6.8323	-37.369747	0.000649	6.485440	1.098663	-0.000130
1349	1.3413e+02	-6.8527	-37.474712	0.000527	5.269420	0.892664	-0.000105
1350	1.3423e+02	-6.8726	-37.571604	0.000486	4.864080	0.823998	-0.000097
1351	1.3432e+02	-6.8933	-37.676569	0.000527	5.269420	0.892664	-0.000105
1352	1.3442e+02	-6.9131	-37.769423	0.000466	4.661410	0.789664	-0.000093
1353	1.3452e+02	-6.9318	-37.947057	0.000892	8.917481	1.510662	-0.000179
1354	1.3462e+02	-6.9522	-37.987429	0.000203	2.026700	0.343332	-0.000041
1355	1.3472e+02	-6.9714	-38.088357	0.000507	5.066750	0.858331	-0.000101
1356	1.3482e+02	-6.9922	-38.241768	0.000770	7.701460	1.304663	-0.000154
1357	1.3492e+02	-7.0120	-38.342697	0.000507	5.066750	0.858331	-0.000101
1358	1.3502e+02	-7.0313	-38.479959	0.000689	6.890780	1.167330	-0.000138
1359	1.3512e+02	-7.0520	-38.572813	0.000466	4.661410	0.789664	-0.000093
1360	1.3522e+02	-7.0715	-38.689890	0.000588	5.877430	0.995664	-0.000118
1361	1.3532e+02	-7.0923	-38.802930	0.000567	5.674760	0.961330	-0.000114
1362	1.3542e+02	-7.1118	-38.895784	0.000466	4.661410	0.789664	-0.000093
1363	1.3552e+02	-7.1313	-38.996713	0.000507	5.066750	0.858331	-0.000101
1364	1.3562e+02	-7.1521	-39.133975	0.000689	6.890780	1.167330	-0.000138
1365	1.3572e+02	-7.1707	-39.210681	0.000385	3.850730	0.652331	-0.000077
1366	1.3582e+02	-7.1924	-39.347943	0.000689	6.890780	1.167330	-0.000138
1367	1.3592e+02	-7.2116	-39.473095	0.000628	6.282770	1.064330	-0.000126
1368	1.3602e+02	-7.2318	-39.557875	0.000426	4.256070	0.720998	-0.000085
1369	1.3612e+02	-7.2510	-39.691100	0.000669	6.688110	1.132997	-0.000134
1370	1.3622e+02	-7.2705	-39.836437	0.000730	7.296120	1.235996	-0.000146
1371	1.3631e+02	-7.2919	-39.921217	0.000426	4.256070	0.720998	-0.000085
1372	1.3641e+02	-7.3114	-40.066554	0.000730	7.296120	1.235996	-0.000146
1373	1.3651e+02	-7.3318	-40.159408	0.000466	4.661410	0.789664	-0.000093
1374	1.3661e+02	-7.3511	-40.232076	0.000365	3.648060	0.617998	-0.000073
1375	1.3671e+02	-7.3706	-40.389524	0.000790	7.904130	1.338996	-0.000158
1376	1.3681e+02	-7.3923	-40.486416	0.000486	4.864080	0.823998	-0.000097
1377	1.3691e+02	-7.4112	-40.607530	0.000608	6.080100	1.029997	-0.000122
1378	1.3701e+02	-7.4313	-40.716532	0.000547	5.472090	0.926997	-0.000110
1379	1.3711e+02	-7.4506	-40.797275	0.000405	4.053400	0.686665	-0.000081
1380	1.3721e+02	-7.4701	-40.918389	0.000608	6.080100	1.029997	-0.000122
1381	1.3731e+02	-7.4902	-41.104098	0.000932	9.322821	1.579329	-0.000187
1382	1.3741e+02	-7.5113	-41.176766	0.000365	3.648060	0.617998	-0.000073
1383	1.3751e+02	-7.5302	-41.289806	0.000567	5.674760	0.961330	-0.000114
1384	1.3761e+02	-7.5497	-41.390734	0.000507	5.066750	0.858331	-0.000101
1385	1.3771e+02	-7.5699	-41.527997	0.000689	6.890780	1.167330	-0.000138
1386	1.3781e+02	-7.5896	-41.600665	0.000365	3.648060	0.617998	-0.000073
1387	1.3791e+02	-7.6099	-41.701594	0.000507	5.066750	0.858331	-0.000101
1388	1.3801e+02	-7.6300	-41.859042	0.000790	7.904130	1.338996	-0.000158
1389	1.3811e+02	-7.6495	-41.976119	0.000588	5.877430	0.995664	-0.000118
1390	1.3821e+02	-7.6697	-42.093196	0.000588	5.877430	0.995664	-0.000118
1391	1.3831e+02	-7.6892	-42.198161	0.000527	5.269420	0.892664	-0.000105
1392	1.3840e+02	-7.7087	-42.295053	0.000486	4.864080	0.823998	-0.000097
1393	1.3850e+02	-7.7295	-42.420204	0.000628	6.282770	1.064330	-0.000126
1394	1.3860e+02	-7.7495	-42.537281	0.000588	5.877430	0.995664	-0.000118
1395	1.3870e+02	-7.7692	-42.634172	0.000486	4.864080	0.823998	-0.000097
1396	1.3880e+02	-7.7890	-42.747212	0.000567	5.674760	0.961330	-0.000114
1397	1.3890e+02	-7.8085	-42.872363	0.000628	6.282770	1.064330	-0.000126
1398	1.3900e+02	-7.8290	-43.001551	0.000649	6.485440	1.098663	-0.000130
1399	1.3910e+02	-7.8479	-43.126703	0.000628	6.282770	1.064330	-0.000126
1400	1.3920e+02	-7.8680	-43.195334	0.000345	3.445390	0.583665	-0.000069
1401	1.3930e+02	-7.8888	-43.352782	0.000790	7.904130	1.338996	-0.000158
1402	1.3940e+02	-7.9083	-43.461785	0.000547	5.472090	0.926997	-0.000110
1403	1.3950e+02	-7.9279	-43.570787	0.000547	5.472090	0.926997	-0.000110
1404	1.3960e+02	-7.9483	-43.651530	0.000405	4.053400	0.686665	-0.000081
1405	1.3970e+02	-7.9681	-43.825127	0.000871	8.714811	1.476329	-0.000174
1406	1.3980e+02	-7.9868	-43.901833	0.000385	3.850730	0.652331	-0.000077
1407	1.3990e+02	-8.0083	-44.051207	0.000750	7.498790	1.270329	-0.000150
1408	1.4000e+02	-8.0280	-44.156172	0.000527	5.269420	0.892664	-0.000105
1409	1.4010e+02	-8.0481	-44.261138	0.000527	5.269420	0.892664	-0.000105
1410	1.4020e+02	-8.0670	-44.366103	0.000527	5.269420	0.892664	-0.000105
1411	1.4029e+02	-8.0884	-44.471069	0.000527	5.269420	0.892664	-0.000105
1412	1.4039e+02	-8.1073	-44.620443	0.000750	7.498790	1.270329	-0.000150
1413	1.4049e+02	-8.1274	-44.721371	0.000507	5.066750	0.858331	-0.000101
1414	1.4059e+02	-8.1476	-44.858634	0.000689	6.890780	1.167330	-0.000138
1415	1.4069e+02	-8.1674	-44.979748	0.000608	6.080100	1.029997	-0.000122
1416	1.4079e+02	-8.1873	-45.064528	0.000426	4.256070	0.720998	-0.000085
1417	1.4089e+02	-8.2065	-45.197753	0.000669	6.688110	1.132997	-0.000134
1418	1.4099e+02	-8.2263	-45.322904	0.000628	6.282770	1.064330	-0.000126
1419	1.4109e+02	-8.2458	-45.444018	0.000608	6.080100	1.029997	-0.000122
1420	1.4119e+02	-8.2666	-45.553021	0.000547	5.472090	0.926997	-0.000110
1421	1.4129e+02	-8.2866	-45.674135	0.000608	6.080100	1.029997	-0.000122
1422	1.4139e+02	-8.3069	-45.823509	0.000750	7.498790	1.270329	-0.000150
1423	1.4149e+02	-8.3246	-45.924438	0.000507	5.066750	0.858331	-0.000101
1424	1.4159e+02	-8.3469	-46.025366	0.000507	5.066750	0.858331	-0.000101
1425	1.4169e+02	-8.3655	-46.207037	0.000912	9.120151	1.544995	-0.000183
1426	1.4179e+02	-8.3875	-46.291817	0.000426	4.256070	0.720998	-0.000085
1427	1.4189e+02	-8.4070	-46.461377	0.000851	8.512141	1.441996	-0.000170
1428	1.4199e+02	-8.4271	-46.574416	0.000567	5.674760	0.961330	-0.000114
1429	1.4209e+02	-8.4460	-46.679382	0.000527	5.269420	0.892664	-0.000105
1430	1.4219e+02	-8.4650	-46.776273	0.000486	4.864080	0.823998	-0.000097
1431	1.4228e+02	-8.4863	-46.885276	0.000547	5.472090	0.926997	-0.000110
1432	1.4238e+02	-8.5052	-47.010427	0.000628	6.282770	1.064330	-0.000126
1433	1.4248e+02	-8.5263	-47.171913	0.000811	8.106800	1.373329	-0.000162
1434	1.4258e+02	-8.5449	-47.333398	0.000811	8.106800	1.373329	-0.000162
1435	1.4268e+02	-8.5654	-47.381844	0.000243	2.432040	0.411999	-0.000049
1436	1.4278e+02	-8.5852	-47.531218	0.000750	7.498790	1.270329	-0.000150
1437	1.4288e+02	-8.6063	-47.668480	0.000689	6.890780	1.167330	-0.000138
1438	1.4298e+02	-8.6255	-47.773446	0.000527	5.269420	0.892664	-0.000105
1439	1.4308e+02	-8.6450	-47.902634	0.000649	6.485440	1.098663	-0.000130
1440	1.4318e+02	-8.6652	-48.060082	0.000790	7.904130	1.338996	-0.000158
1441	1.4328e+02	-8.6853	-48.152937	0.000466	4.661410	0.789664	-0.000093
1442	1.4338e+02	-8.7048	-48.298273	0.000730	7.296120	1.235996	-0.000146
1443	1.4348e+02	-8.7262	-48.419387	0.000608	6.080100	1.029997	-0.000122
1444	1.4358e+02	-8.7457	-48.552613	0.000669	6.688110	1.132997	-0.000134
1445	1.4368e+02	-8.7659	-48.697950	0.000730	7.296120	1.235996	-0.000146
1446	1.4378e+02	-8.7836	-48.810990	0.000567	5.674760	0.961330	-0.000114
1447	1.4388e+02	-8.8049	-48.924029	0.000567	5.674760	0.961330	-0.000114
1448	1.4398e+02	-8.8251	-49.065329	0.000709	7.093450	1.201663	-0.000142
1449	1.4408e+02	-8.8446	-49.194518	0.000649	6.485440	1.098663	-0.000130
1450	1.4418e+02	-8.8647	-49.327743	0.000669	6.688110	1.132997	-0.000134
1451	1.4428e+02	-8.8849	-49.444820	0.000588	5.877430	0.995664	-0.000118
1452	1.4437e+02	-8.9056	-49.586120	0.000709	7.093450	1.201663	-0.000142
1453	1.4447e+02	-8.9243	-49.739531	0.000770	7.701460	1.304663	-0.000154
1454	1.4457e+02	-8.9441	-49.860645	0.000608	6.080100	1.029997	-0.000122
1455	1.4467e+02	-8.9642	-50.005982	0.000730	7.296120	1.235996	-0.000146
1456	1.4477e+02	-8.9850	-50.123059	0.000588	5.877430	0.995664	-0.000118
1457	1.4487e+02	-9.0045	-50.260321	0.000689	6.890780	1.167330	-0.000138
1458	1.4497e+02	-9.0228	-50.397584	0.000689	6.890780	1.167330	-0.000138
1459	1.4507e+02	-9.0442	-50.550995	0.000770	7.701460	1.304663	-0.000154
1460	1.4517e+02	-9.0637	-50.688258	0.000689	6.890780	1.167330	-0.000138
1461	1.4527e+02	-9.0836	-50.813409	0.000628	6.282770	1.064330	-0.000126
1462	1.4537e+02	-9.1040	-50.958746	0.000730	7.296120	1.235996	-0.000146
1463	1.4547e+02	-9.1248	-51.100046	0.000709	7.093450	1.201663	-0.000142
1464	1.4557e+02	-9.1437	-51.229234	0.000649	6.485440	1.098663	-0.000130
1465	1.4567e+02	-9.1632	-51.378608	0.000750	7.498790	1.270329	-0.000150
1466	1.4577e+02	-9.1814	-51.540093	0.000811	8.106800	1.373329	-0.000162
1467	1.4587e+02	-9.2029	-51.689467	0.000750	7.498790	1.270329	-0.000150
1468	1.4597e+02	-9.2224	-51.786359	0.000486	4.864080	0.823998	-0.000097
1469	1.4607e+02	-9.2432	-51.963993	0.000892	8.917481	1.510662	-0.000179
1470	1.4617e+02	-9.2621	-52.064921	0.000507	5.066750	0.858331	-0.000101
1471	1.4626e+02	-9.2828	-52.238518	0.000871	8.714811	1.476329	-0.000174
1472	1.4636e+02	-9.3030	-52.432300	0.000973	9.728161	1.647995	-0.000195
1473	1.4646e+02	-9.3222	-52.521117	0.000446	4.458740	0.755331	-0.000089
1474	1.4656e+02	-9.3433	-52.718937	0.000993	9.930831	1.682328	-0.000199
1475	1.4666e+02	-9.3626	-52.888497	0.000851	8.512141	1.441996	-0.000170
1476	1.4676e+02	-9.3823	-53.062094	0.000871	8.714811	1.476329	-0.000174
1477	1.4686e+02	-9.4022	-53.138799	0.000385	3.850730	0.652331	-0.000077
1478	1.4696e+02	-9.4223	-53.284136	0.000730	7.296120	1.235996	-0.000146
1479	1.4706e+02	-9.4434	-53.449659	0.000831	8.309471	1.407662	-0.000166
1480	1.4716e+02	-9.4623	-53.643441	0.000973	9.728161	1.647995	-0.000195
1481	1.4726e+02	-9.4824	-53.776667	0.000669	6.688110	1.132997	-0.000134
1482	1.4736e+02	-9.5013	-53.917966	0.000709	7.093450	1.201663	-0.000142
1483	1.4746e+02	-9.5215	-54.099637	0.000912	9.120151	1.544995	-0.000183
1484	1.4756e+02	-9.5416	-54.236900	0.000689	6.890780	1.167330	-0.000138
1485	1.4766e+02	-9.5618	-54.406460	0.000851	8.512141	1.441996	-0.000170
1486	1.4776e+02	-9.5819	-54.567945	0.000811	8.106800	1.373329	-0.000162
1487	1.4786e+02	-9.6011	-54.737505	0.000851	8.512141	1.441996	-0.000170
1488	1.4796e+02	-9.6210	-54.927250	0.000953	9.525491	1.613662	-0.000191
1489	1.4806e+02	-9.6411	-55.056439	0.000649	6.485440	1.098663	-0.000130
1490	1.4816e+02	-9.6613	-55.197738	0.000709	7.093450	1.201663	-0.000142
1491	1.4825e+02	-9.6817	-55.399595	0.001013	10.133501	1.716661	-0.000203
1492	1.4835e+02	-9.7012	-55.561081	0.000811	8.106800	1.373329	-0.000162
1493	1.4845e+02	-9.7223	-55.682195	0.000608	6.080100	1.029997	-0.000122
1494	1.4855e+02	-9.7412	-55.904237	0.001115	11.146851	1.888328	-0.000223
1495	1.4865e+02	-9.7607	-56.102057	0.000993	9.930831	1.682328	-0.000199
1496	1.4875e+02	-9.7803	-56.243357	0.000709	7.093450	1.201663	-0.000142
1497	1.4885e+02	-9.8004	-56.420991	0.000892	8.917481	1.510662	-0.000179
1498	1.4895e+02	-9.8212	-56.622847	0.001013	10.133501	1.716661	-0.000203
1499	1.4905e+02	-9.8407	-56.780296	0.000790	7.904130	1.338996	-0.000158
1500	1.4915e+02	-9.8608	-56.929670	0.000750	7.498790	1.270329	-0.000150
1501	1.4925e+02	-9.8804	-57.115378	0.000932	9.322821	1.579329	-0.000187
1502	1.4935e+02	-9.9008	-57.309160	0.000973	9.728161	1.647995	-0.000195
1503	1.4945e+02	-9.9207	-57.446423	0.000689	6.890780	1.167330	-0.000138
1504	1.4955e+02	-9.9408	-57.644243	0.000993	9.930831	1.682328	-0.000199
1505	1.4965e+02	-9.9609	-57.833988	0.000953	9.525491	1.613662	-0.000191
1506	1.4975e+02	-9.9811	-58.023733	0.000953	9.525491	1.613662	-0.000191
1507	1.4985e+02	-10.0000	-58.201367	0.000892	8.917481	1.510662	-0.000179
1508	1.4995e+02	-9.9811	-58.274036	-0.000365	-3.648060	-0.617998	-0.000073
1509	1.5005e+02	-9.9612	-58.286147	-0.000061	-0.608010	-0.103000	-0.000012
1510	1.5015e+02	-9.9384	-58.330556	-0.000223	-2.229370	-0.377666	-0.000045
1511	1.5025e+02	-9.9200	-58.334593	-0.000020	-0.202670	-0.034333	-0.000004
1512	1.5034e+02	-9.8999	-58.383038	-0.000243	-2.432040	-0.411999	-0.000049
1513	1.5044e+02	-9.8798	-58.366890	0.000081	0.810680	0.137333	0.000016
1514	1.5054e+02	-9.8621	-58.374964	-0.000041	-0.405340	-0.068666	-0.000008
1515	1.5064e+02	-9.8407	-58.387076	-0.000061	-0.608010	-0.103000	-0.000012
1516	1.5074e+02	-9.8209	-58.399187	-0.000061	-0.608010	-0.103000	-0.000012
1517	1.5084e+02	-9.8004	-58.379001	0.000101	1.013350	0.171666	0.000020
1518	1.5094e+02	-9.7809	-58.443596	-0.000324	-3.242720	-0.549332	-0.000065
1519	1.5104e+02	-9.7607	-58.411298	0.000162	1.621360	0.274666	0.000032
1520	1.5114e+02	-9.7406	-58.407261	0.000020	0.202670	0.034333	0.000004
1521	1.5124e+02	-9.7220	-58.411298	-0.000020	-0.202670	-0.034333	-0.000004
1522	1.5134e+02	-9.7009	-58.423410	-0.000061	-0.608010	-0.103000	-0.000012
1523	1.5144e+02	-9.6820	-58.391113	0.000162	1.621360	0.274666	0.000032
1524	1.5154e+02	-9.6613	-58.379001	0.000061	0.608010	0.103000	0.000012
1525	1.5164e+02	-9.6411	-58.358816	0.000101	1.013350	0.171666	0.000020
1526	1.5174e+02	-9.6210	-58.379001	-0.000101	-1.013350	-0.171666	-0.000020
1527	1.5184e+02	-9.6021	-58.334593	0.000223	2.229370	0.377666	0.000045
1528	1.5194e+02	-9.5819	-58.334593	0.000000	0.000000	0.000000	0.000000
1529	1.5204e+02	-9.5617	-58.314407	0.000101	1.013350	0.171666	0.000020
1530	1.5214e+02	-9.5419	-58.310370	0.000020	0.202670	0.034333	0.000004
1531	1.5224e+02	-9.5218	-58.269999	0.000203	2.026700	0.343332	0.000041
1532	1.5233e+02	-9.5026	-58.217516	0.000263	2.634710	0.446332	0.000053
1533	1.5243e+02	-9.4824	-58.245776	-0.000142	-1.418690	-0.240333	-0.000028
1534	1.5253e+02	-9.4617	-58.245776	0.000000	0.000000	0.000000	0.000000
1535	1.5263e+02	-9.4427	-58.201367	0.000223	2.229370	0.377666	0.000045
1536	1.5273e+02	-9.4226	-58.156959	0.000223	2.229370	0.377666	0.000045
1537	1.5283e+02	-9.4037	-58.124662	0.000162	1.621360	0.274666	0.000032
1538	1.5293e+02	-9.3823	-58.076216	0.000243	2.432040	0.411999	0.000049
1539	1.5303e+02	-9.3625	-58.072179	0.000020	0.202670	0.034333	0.000004
1540	1.5313e+02	-9.3420	-58.080253	-0.000041	-0.405340	-0.068666	-0.000008
1541	1.5323e+02	-9.3231	-57.999511	0.000405	4.053400	0.686665	0.000081
1542	1.5333e+02	-9.3036	-57.971251	0.000142	1.418690	0.240333	0.000028
1543	1.5343e+02	-9.2822	-57.951065	0.000101	1.013350	0.171666	0.000020
1544	1.5353e+02	-9.2630	-57.906656	0.000223	2.229370	0.377666	0.000045
1545	1.5363e+02	-9.2432	-57.870322	0.000182	1.824030	0.308999	0.000037
1546	1.5373e+02	-9.2236	-57.854174	0.000081	0.810680	0.137333	0.000016
1547	1.5383e+02	-9.2035	-57.793617	0.000304	3.040050	0.514998	0.000061
1548	1.5393e+02	-9.1840	-57.753245	0.000203	2.026700	0.343332	0.000041
1549	1.5403e+02	-9.1626	-57.716911	0.000182	1.824030	0.308999	0.000037
1550	1.5413e+02	-9.1437	-57.704800	0.000061	0.608010	0.103000	0.000012
1551	1.5422e+02	-9.1241	-57.624057	0.000405	4.053400	0.686665	0.000081
1552	1.5432e+02	-9.1034	-57.575611	0.000243	2.432040	0.411999	0.000049
1553	1.5442e+02	-9.0833	-57.543314	0.000162	1.621360	0.274666	0.000032
1554	1.5452e+02	-9.0628	-57.498906	0.000223	2.229370	0.377666	0.000045
1555	1.5462e+02	-9.0442	-57.446423	0.000263	2.634710	0.446332	0.000053
1556	1.5472e+02	-9.0240	-57.389903	0.000284	2.837380	0.480665	0.000057
1557	1.5482e+02	-9.0033	-57.353569	0.000182	1.824030	0.308999	0.000037
1558	1.5492e+02	-8.9844	-57.329346	0.000122	1.216020	0.205999	0.000024
1559	1.5502e+02	-8.9648	-57.301086	0.000142	1.418690	0.240333	0.000028
1560	1.5512e+02	-8.9441	-57.252640	0.000243	2.432040	0.411999	0.000049
1561	1.5522e+02	-8.9246	-57.139601	0.000567	5.674760	0.961330	0.000114
1562	1.5532e+02	-8.9038	-57.123452	0.000081	0.810680	0.137333	0.000016
1563	1.5542e+02	-8.8843	-57.062895	0.000304	3.040050	0.514998	0.000061
1564	1.5552e+02	-8.8635	-56.998301	0.000324	3.242720	0.549332	0.000065
1565	1.5562e+02	-8.8437	-56.966004	0.000162	1.621360	0.274666	0.000032
1566	1.5572e+02	-8.8251	-56.913521	0.000263	2.634710	0.446332	0.000053
1567	1.5582e+02	-8.8049	-56.840853	0.000365	3.648060	0.617998	0.000073
1568	1.5592e+02	-8.7848	-56.780296	0.000304	3.040050	0.514998	0.000061
1569	1.5602e+02	-8.7653	-56.776258	0.000020	0.202670	0.034333	0.000004
1570	1.5612e+02	-8.7451	-56.683404	0.000466	4.661410	0.789664	0.000093
1571	1.5622e+02	-8.7250	-56.610736	0.000365	3.648060	0.617998	0.000073
1572	1.5631e+02	-8.7048	-56.554216	0.000284	2.837380	0.480665	0.000057
1573	1.5641e+02	-8.6859	-56.538067	0.000081	0.810680	0.137333	0.000016
1574	1.5651e+02	-8.6658	-56.457325	0.000405	4.053400	0.686665	0.000081
1575	1.5661e+02	-8.6456	-56.437139	0.000101	1.013350	0.171666	0.000020
1576	1.5671e+02	-8.6255	-56.328136	0.000547	5.472090	0.926997	0.000110
1577	1.5681e+02	-8.6053	-56.287765	0.000203	2.026700	0.343332	0.000041
1578	1.5691e+02	-8.5852	-56.194911	0.000466	4.661410	0.789664	0.000093
1579	1.5701e+02	-8.5654	-56.158577	0.000182	1.824030	0.308999	0.000037
1580	1.5711e+02	-8.5461	-56.081871	0.000385	3.850730	0.652331	0.000077
1581	1.5721e+02	-8.5257	-56.025351	0.000284	2.837380	0.480665	0.000057
1582	1.5731e+02	-8.5052	-55.956720	0.000345	3.445390	0.583665	0.000069
1583	1.5741e+02	-8.4863	-55.940571	0.000081	0.810680	0.137333	0.000016
1584	1.5751e+02	-8.4662	-55.835606	0.000527	5.269420	0.892664	0.000105
1585	1.5761e+02	-8.4467	-55.746789	0.000446	4.458740	0.755331	0.000089
1586	1.5771e+02	-8.4268	-55.726603	0.000101	1.013350	0.171666	0.000020
1587	1.5781e+02	-8.4058	-55.662009	0.000324	3.242720	0.549332	0.000065
1588	1.5791e+02	-8.3868	-55.585303	0.000385	3.850730	0.652331	0.000077
1589	1.5801e+02	-8.3658	-55.528784	0.000284	2.837380	0.480665	0.000057
1590	1.5811e+02	-8.3472	-55.468226	0.000304	3.040050	0.514998	0.000061
1591	1.5821e+02	-8.3264	-55.363261	0.000527	5.269420	0.892664	0.000105
1592	1.5830e+02	-8.3075	-55.322890	0.000203	2.026700	0.343332	0.000041
1593	1.5840e+02	-8.2864	-55.254258	0.000345	3.445390	0.583665	0.000069
1594	1.5850e+02	-8.2672	-55.173516	0.000405	4.053400	0.686665	0.000081
1595	1.5860e+02	-8.2471	-55.129107	0.000223	2.229370	0.377666	0.000045
1596	1.5870e+02	-8.2272	-55.044327	0.000426	4.256070	0.720998	0.000085
1597	1.5880e+02	-8.2068	-54.967622	0.000385	3.850730	0.652331	0.000077
1598	1.5890e+02	-8.1866	-54.894953	0.000365	3.648060	0.617998	0.000073
1599	1.5900e+02	-8.1671	-54.810173	0.000426	4.256070	0.720998	0.000085
1600	1.5910e+02	-8.1479	-54.781913	0.000142	1.418690	0.240333	0.000028
1601	1.5920e+02	-8.1281	-54.737505	0.000223	2.229370	0.377666	0.000045
1602	1.5930e+02	-8.1073	-54.644651	0.000466	4.661410	0.789664	0.000093
1603	1.5940e+02	-8.0878	-54.563908	0.000405	4.053400	0.686665	0.000081
1604	1.5950e+02	-8.0682	-54.499314	0.000324	3.242720	0.549332	0.000065
1605	1.5960e+02	-8.0475	-54.454905	0.000223	2.229370	0.377666	0.000045
1606	1.5970e+02	-8.0273	-54.345903	0.000547	5.472090	0.926997	0.000110
1607	1.5980e+02	-8.0081	-54.265160	0.000405	4.053400	0.686665	0.000081
1608	1.5990e+02	-7.9877	-54.220752	0.000223	2.229370	0.377666	0.000045
1609	1.6000e+02	-7.9684	-54.127897	0.000466	4.661410	0.789664	0.000093
1610	1.6010e+02	-7.9480	-54.123860	0.000020	0.202670	0.034333	0.000004
1611	1.6019e+02	-7.9279	-53.986598	0.000689	6.890780	1.167330	0.000138
1612	1.6029e+02	-7.9083	-53.942189	0.000223	2.229370	0.377666	0.000045
1613	1.6039e+02	-7.8876	-53.857409	0.000426	4.256070	0.720998	0.000085
1614	1.6049e+02	-7.8680	-53.752444	0.000527	5.269420	0.892664	0.000105
1615	1.6059e+02	-7.8479	-53.687850	0.000324	3.242720	0.549332	0.000065
1616	1.6069e+02	-7.8284	-53.603070	0.000426	4.256070	0.720998	0.000085
1617	1.6079e+02	-7.8088	-53.526364	0.000385	3.850730	0.652331	0.000077
1618	1.6089e+02	-7.7890	-53.465807	0.000304	3.040050	0.514998	0.000061
1619	1.6099e+02	-7.7686	-53.421399	0.000223	2.229370	0.377666	0.000045
1620	1.6109e+02	-7.7484	-53.360842	0.000304	3.040050	0.514998	0.000061
1621	1.6119e+02	-7.7289	-53.239728	0.000608	6.080100	1.029997	0.000122
1622	1.6129e+02	-7.7087	-53.142836	0.000486	4.864080	0.823998	0.000097
1623	1.6139e+02	-7.6880	-53.070168	0.000365	3.648060	0.617998	0.000073
1624	1.6149e+02	-7.6691	-52.997499	0.000365	3.648060	0.617998	0.000073
1625	1.6159e+02	-7.6489	-52.957128	0.000203	2.026700	0.343332	0.000041
1626	1.6169e+02	-7.6294	-52.876385	0.000405	4.053400	0.686665	0.000081
1627	1.6179e+02	-7.6086	-52.755271	0.000608	6.080100	1.029997	0.000122
1628	1.6189e+02	-7.5897	-52.698751	0.000284	2.837380	0.480665	0.000057
1629	1.6199e+02	-7.5699	-52.630120	0.000345	3.445390	0.583665	0.000069
1630	1.6209e+02	-7.5500	-52.537266	0.000466	4.661410	0.789664	0.000093
1631	1.6219e+02	-7.5305	-52.456523	0.000405	4.053400	0.686665	0.000081
1632	1.6228e+02	-7.5098	-52.395966	0.000304	3.040050	0.514998	0.000061
1633	1.6238e+02	-7.4918	-52.311186	0.000426	4.256070	0.720998	0.000085
1634	1.6248e+02	-7.4701	-52.218332	0.000466	4.661410	0.789664	0.000093
1635	1.6258e+02	-7.4506	-52.145664	0.000365	3.648060	0.617998	0.000073
1636	1.6268e+02	-7.4310	-52.072995	0.000365	3.648060	0.617998	0.000073
1637	1.6278e+02	-7.4107	-52.028587	0.000223	2.229370	0.377666	0.000045
1638	1.6288e+02	-7.3892	-51.915547	0.000567	5.674760	0.961330	0.000114
1639	1.6298e+02	-7.3712	-51.838841	0.000385	3.850730	0.652331	0.000077
1640	1.6308e+02	-7.3520	-51.766173	0.000365	3.648060	0.617998	0.000073
1641	1.6318e+02	-7.3315	-51.685430	0.000405	4.053400	0.686665	0.000081
1642	1.6328e+02	-7.3120	-51.636985	0.000243	2.432040	0.411999	0.000049
1643	1.6338e+02	-7.2913	-51.532019	0.000527	5.269420	0.892664	0.000105
1644	1.6348e+02	-7.2711	-51.443202	0.000446	4.458740	0.755331	0.000089
1645	1.6358e+02	-7.2510	-51.370534	0.000365	3.648060	0.617998	0.000073
1646	1.6368e+02	-7.2313	-51.322088	0.000243	2.432040	0.411999	0.000049
1647	1.6378e+02	-7.2107	-51.213085	0.000547	5.472090	0.926997	0.000110
1648	1.6388e+02	-7.1918	-51.168677	0.000223	2.229370	0.377666	0.000045
1649	1.6398e+02	-7.1716	-51.091971	0.000385	3.850730	0.652331	0.000077
1650	1.6408e+02	-7.1515	-51.003154	0.000446	4.458740	0.755331	0.000089
1651	1.6418e+02	-7.1313	-50.902226	0.000507	5.066750	0.858331	0.000101
1652	1.6427e+02	-7.1129	-50.853780	0.000243	2.432040	0.411999	0.000049
1653	1.6437e+02	-7.0923	-50.764963	0.000446	4.458740	0.755331	0.000089
1654	1.6447e+02	-7.0724	-50.684221	0.000405	4.053400	0.686665	0.000081
1655	1.6457e+02	-7.0526	-50.623664	0.000304	3.040050	0.514998	0.000061
1656	1.6467e+02	-7.0322	-50.502550	0.000608	6.080100	1.029997	0.000122
1657	1.6477e+02	-7.0123	-50.437955	0.000324	3.242720	0.549332	0.000065
1658	1.6487e+02	-6.9928	-50.385473	0.000263	2.634710	0.446332	0.000053
1659	1.6497e+02	-6.9736	-50.272433	0.000567	5.674760	0.961330	0.000114
1660	1.6507e+02	-6.9525	-50.199764	0.000365	3.648060	0.617998	0.000073
1661	1.6517e+02	-6.9330	-50.127096	0.000365	3.648060	0.617998	0.000073
1662	1.6527e+02	-6.9125	-50.058465	0.000345	3.445390	0.583665	0.000069
1663	1.6537e+02	-6.8924	-49.977722	0.000405	4.053400	0.686665	0.000081
1664	1.6547e+02	-6.8723	-49.905053	0.000365	3.648060	0.617998	0.000073
1665	1.6557e+02	-6.8518	-49.808162	0.000486	4.864080	0.823998	0.000097
1666	1.6567e+02	-6.8323	-49.719345	0.000446	4.458740	0.755331	0.000089
1667	1.6577e+02	-6.8134	-49.618417	0.000507	5.066750	0.858331	0.000101
1668	1.6587e+02	-6.7926	-49.598231	0.000101	1.013350	0.171666	0.000020
1669	1.6597e+02	-6.7731	-49.481154	0.000588	5.877430	0.995664	0.000118
1670	1.6607e+02	-6.7529	-49.400411	0.000405	4.053400	0.686665	0.000081
1671	1.6616e+02	-6.7334	-49.339854	0.000304	3.040050	0.514998	0.000061
1672	1.6626e+02	-6.7136	-49.226815	0.000567	5.674760	0.961330	0.000114
1673	1.6636e+02	-6.6931	-49.162220	0.000324	3.242720	0.549332	0.000065
1674	1.6646e+02	-6.6739	-49.073403	0.000446	4.458740	0.755331	0.000089
1675	1.6656e+02	-6.6528	-48.992661	0.000405	4.053400	0.686665	0.000081
1676	1.6666e+02	-6.6333	-48.928067	0.000324	3.242720	0.549332	0.000065
1677	1.6676e+02	-6.6136	-48.827138	0.000507	5.066750	0.858331	0.000101
1678	1.6686e+02	-6.5942	-48.718136	0.000547	5.472090	0.926997	0.000110
1679	1.6696e+02	-6.5741	-48.673727	0.000223	2.229370	0.377666	0.000045
1680	1.6706e+02	-6.5540	-48.584910	0.000446	4.458740	0.755331	0.000089
1681	1.6716e+02	-6.5353	-48.504167	0.000405	4.053400	0.686665	0.000081
1682	1.6726e+02	-6.5131	-48.431499	0.000365	3.648060	0.617998	0.000073
1683	1.6736e+02	-6.4938	-48.330570	0.000507	5.066750	0.858331	0.000101
1684	1.6746e+02	-6.4745	-48.265976	0.000324	3.242720	0.549332	0.000065
1685	1.6756e+02	-6.4539	-48.193308	0.000365	3.648060	0.617998	0.000073
1686	1.6766e+02	-6.4337	-48.116602	0.000385	3.850730	0.652331	0.000077
1687	1.6776e+02	-6.4136	-48.015674	0.000507	5.066750	0.858331	0.000101
1688	1.6786e+02	-6.3940	-47.906671	0.000547	5.472090	0.926997	0.000110
1689	1.6796e+02	-6.3750	-47.878411	0.000142	1.418690	0.240333	0.000028
1690	1.6806e+02	-6.3538	-47.757297	0.000608	6.080100	1.029997	0.000122
1691	1.6816e+02	-6.3345	-47.700777	0.000284	2.837380	0.480665	0.000057
1692	1.6825e+02	-6.3139	-47.615997	0.000426	4.256070	0.720998	0.000085
1693	1.6835e+02	-6.2946	-47.523143	0.000466	4.661410	0.789664	0.000093
1694	1.6845e+02	-6.2744	-47.418178	0.000527	5.269420	0.892664	0.000105
1695	1.6855e+02	-6.2547	-47.353584	0.000324	3.242720	0.549332	0.000065
1696	1.6865e+02	-6.2347	-47.236507	0.000588	5.877430	0.995664	0.000118
1697	1.6875e+02	-6.2151	-47.175950	0.000304	3.040050	0.514998	0.000061
1698	1.6885e+02	-6.1951	-47.091170	0.000426	4.256070	0.720998	0.000085
1699	1.6895e+02	-6.1749	-46.961981	0.000649	6.485440	1.098663	0.000130
1700	1.6905e+02	-6.1560	-46.921610	0.000203	2.026700	0.343332	0.000041
1701	1.6915e+02	-6.1359	-46.844905	0.000385	3.850730	0.652331	0.000077
1702	1.6925e+02	-6.1150	-46.748013	0.000486	4.864080	0.823998	0.000097
1703	1.6935e+02	-6.0959	-46.655159	0.000466	4.661410	0.789664	0.000093
1704	1.6945e+02	-6.0754	-46.598639	0.000284	2.837380	0.480665	0.000057
1705	1.6955e+02	-6.0553	-46.505785	0.000466	4.661410	0.789664	0.000093
1706	1.6965e+02	-6.0355	-46.400820	0.000527	5.269420	0.892664	0.000105
1707	1.6975e+02	-6.0162	-46.340263	0.000304	3.040050	0.514998	0.000061
1708	1.6985e+02	-5.9967	-46.255483	0.000426	4.256070	0.720998	0.000085
1709	1.6995e+02	-5.9760	-46.178777	0.000385	3.850730	0.652331	0.000077
1710	1.7005e+02	-5.9558	-46.041515	0.000689	6.890780	1.167330	0.000138
1711	1.7015e+02	-5.9367	-46.009217	0.000162	1.621360	0.274666	0.000032
1712	1.7024e+02	-5.9161	-45.888103	0.000608	6.080100	1.029997	0.000122
1713	1.7034e+02	-5.8960	-45.803324	0.000426	4.256070	0.720998	0.000085
1714	1.7044e+02	-5.8765	-45.742766	0.000304	3.040050	0.514998	0.000061
1715	1.7054e+02	-5.8569	-45.605504	0.000689	6.890780	1.167330	0.000138
1716	1.7064e+02	-5.8362	-45.553021	0.000263	2.634710	0.446332	0.000053
1717	1.7074e+02	-5.8167	-45.512650	0.000203	2.026700	0.343332	0.000041
1718	1.7084e+02	-5.7968	-45.371350	0.000709	7.093450	1.201663	0.000142
1719	1.7094e+02	-5.7764	-45.270422	0.000507	5.066750	0.858331	0.000101
1720	1.7104e+02	-5.7565	-45.161419	0.000547	5.472090	0.926997	0.000110
1721	1.7114e+02	-5.7373	-45.129122	0.000162	1.621360	0.274666	0.000032
1722	1.7124e+02	-5.7169	-45.003971	0.000628	6.282770	1.064330	0.000126
1723	1.7134e+02	-5.6967	-44.943414	0.000304	3.040050	0.514998	0.000061
1724	1.7144e+02	-5.6787	-44.838448	0.000527	5.269420	0.892664	0.000105
1725	1.7154e+02	-5.6573	-44.725408	0.000567	5.674760	0.961330	0.000114
1726	1.7164e+02	-5.6378	-44.672926	0.000263	2.634710	0.446332	0.000053
1727	1.7174e+02	-5.6168	-44.547774	0.000628	6.282770	1.064330	0.000126
1728	1.7184e+02	-5.5966	-44.458957	0.000446	4.458740	0.755331	0.000089
1729	1.7194e+02	-5.5777	-44.353992	0.000527	5.269420	0.892664	0.000105
1730	1.7204e+02	-5.5573	-44.305546	0.000243	2.432040	0.411999	0.000049
1731	1.7213e+02	-5.5376	-44.192506	0.000567	5.674760	0.961330	0.000114
1732	1.7223e+02	-5.5176	-44.067355	0.000628	6.282770	1.064330	0.000126
1733	1.7233e+02	-5.4977	-43.998724	0.000345	3.445390	0.583665	0.000069
1734	1.7243e+02	-5.4788	-43.926055	0.000365	3.648060	0.617998	0.000073
1735	1.7253e+02	-5.4584	-43.800904	0.000628	6.282770	1.064330	0.000126
1736	1.7263e+02	-5.4382	-43.720161	0.000405	4.053400	0.686665	0.000081
1737	1.7273e+02	-5.4187	-43.639419	0.000405	4.053400	0.686665	0.000081
1738	1.7283e+02	-5.3979	-43.534453	0.000527	5.269420	0.892664	0.000105
1739	1.7293e+02	-5.3778	-43.421413	0.000567	5.674760	0.961330	0.000114
1740	1.7303e+02	-5.3583	-43.304336	0.000588	5.877430	0.995664	0.000118
1741	1.7313e+02	-5.3381	-43.247817	0.000284	2.837380	0.480665	0.000057
1742	1.7323e+02	-5.3180	-43.102480	0.000730	7.296120	1.235996	0.000146
1743	1.7333e+02	-5.2982	-43.029811	0.000365	3.648060	0.617998	0.000073
1744	1.7343e+02	-5.2780	-42.961180	0.000345	3.445390	0.583665	0.000069
1745	1.7353e+02	-5.2582	-42.856214	0.000527	5.269420	0.892664	0.000105
1746	1.7363e+02	-5.2380	-42.743175	0.000567	5.674760	0.961330	0.000114
1747	1.7373e+02	-5.2191	-42.638209	0.000527	5.269420	0.892664	0.000105
1748	1.7383e+02	-5.1984	-42.529206	0.000547	5.472090	0.926997	0.000110
1749	1.7393e+02	-5.1776	-42.448464	0.000405	4.053400	0.686665	0.000081
1750	1.7403e+02	-5.1585	-42.323313	0.000628	6.282770	1.064330	0.000126
1751	1.7413e+02	-5.1390	-42.250644	0.000365	3.648060	0.617998	0.000073
1752	1.7422e+02	-5.1193	-42.121456	0.000649	6.485440	1.098663	0.000130
1753	1.7432e+02	-5.0992	-42.056862	0.000324	3.242720	0.549332	0.000065
1754	1.7442e+02	-5.0784	-41.988230	0.000345	3.445390	0.583665	0.000069
1755	1.7452e+02	-5.0584	-41.834819	0.000770	7.701460	1.304663	0.000154
1756	1.7462e+02	-5.0391	-41.786373	0.000243	2.432040	0.411999	0.000049
1757	1.7472e+02	-5.0195	-41.657185	0.000649	6.485440	1.098663	0.000130
1758	1.7482e+02	-4.9992	-41.540108	0.000588	5.877430	0.995664	0.000118
1759	1.7492e+02	-4.9802	-41.418994	0.000608	6.080100	1.029997	0.000122
1760	1.7502e+02	-4.9597	-41.350363	0.000345	3.445390	0.583665	0.000069
1761	1.7512e+02	-4.9408	-41.261546	0.000446	4.458740	0.755331	0.000089
1762	1.7522e+02	-4.9200	-41.172729	0.000446	4.458740	0.755331	0.000089
1763	1.7532e+02	-4.8999	-41.039503	0.000669	6.688110	1.132997	0.000134
1764	1.7542e+02	-4.8802	-40.914352	0.000628	6.282770	1.064330	0.000126
1765	1.7552e+02	-4.8601	-40.853795	0.000304	3.040050	0.514998	0.000061
1766	1.7562e+02	-4.8395	-40.724607	0.000649	6.485440	1.098663	0.000130
1767	1.7572e+02	-4.8209	-40.643864	0.000405	4.053400	0.686665	0.000081
1768	1.7582e+02	-4.7998	-40.494490	0.000750	7.498790	1.270329	0.000150
1769	1.7592e+02	-4.7809	-40.409710	0.000426	4.256070	0.720998	0.000085
1770	1.7602e+02	-4.7604	-40.320893	0.000446	4.458740	0.755331	0.000089
1771	1.7612e+02	-4.7400	-40.252262	0.000345	3.445390	0.583665	0.000069
1772	1.7621e+02	-4.7217	-40.110962	0.000709	7.093450	1.201663	0.000142
1773	1.7631e+02	-4.7003	-40.005997	0.000527	5.269420	0.892664	0.000105
1774	1.7641e+02	-4.6805	-39.921217	0.000426	4.256070	0.720998	0.000085
1775	1.7651e+02	-4.6611	-39.796066	0.000628	6.282770	1.064330	0.000126
1776	1.7661e+02	-4.6408	-39.691100	0.000527	5.269420	0.892664	0.000105
1777	1.7671e+02	-4.6210	-39.578060	0.000567	5.674760	0.961330	0.000114
1778	1.7681e+02	-4.6002	-39.489243	0.000446	4.458740	0.755331	0.000089
1779	1.7691e+02	-4.5816	-39.372166	0.000588	5.877430	0.995664	0.000118
1780	1.7701e+02	-4.5612	-39.251052	0.000608	6.080100	1.029997	0.000122
1781	1.7711e+02	-4.5413	-39.146087	0.000527	5.269420	0.892664	0.000105
1782	1.7721e+02	-4.5209	-39.053233	0.000466	4.661410	0.789664	0.000093
1783	1.7731e+02	-4.5020	-38.956341	0.000486	4.864080	0.823998	0.000097
1784	1.7741e+02	-4.4812	-38.863487	0.000466	4.661410	0.789664	0.000093
1785	1.7751e+02	-4.4598	-38.710076	0.000770	7.701460	1.304663	0.000154
1786	1.7761e+02	-4.4415	-38.649519	0.000304	3.040050	0.514998	0.000061
1787	1.7771e+02	-4.4211	-38.492071	0.000790	7.904130	1.338996	0.000158
1788	1.7781e+02	-4.4019	-38.399217	0.000466	4.661410	0.789664	0.000093
1789	1.7791e+02	-4.3820	-38.294251	0.000527	5.269420	0.892664	0.000105
1790	1.7801e+02	-4.3610	-38.148914	0.000730	7.296120	1.235996	0.000146
1791	1.7810e+02	-4.3427	-38.072209	0.000385	3.850730	0.652331	0.000077
1792	1.7820e+02	-4.3219	-37.951095	0.000608	6.080100	1.029997	0.000122
1793	1.7830e+02	-4.3018	-37.850166	0.000507	5.066750	0.858331	0.000101
1794	1.7840e+02	-4.2822	-37.737126	0.000567	5.674760	0.961330	0.000114
1795	1.7850e+02	-4.2632	-37.660421	0.000385	3.850730	0.652331	0.000077
1796	1.7860e+02	-4.2422	-37.535270	0.000628	6.282770	1.064330	0.000126
1797	1.7870e+02	-4.2215	-37.418193	0.000588	5.877430	0.995664	0.000118
1798	1.7880e+02	-4.2035	-37.276893	0.000709	7.093450	1.201663	0.000142
1799	1.7890e+02	-4.1830	-37.200187	0.000385	3.850730	0.652331	0.000077
1800	1.7900e+02	-4.1626	-37.111370	0.000446	4.458740	0.755331	0.000089
1801	1.7910e+02	-4.1428	-36.970071	0.000709	7.093450	1.201663	0.000142
1802	1.7920e+02	-4.1229	-36.873179	0.000486	4.864080	0.823998	0.000097
1803	1.7930e+02	-4.1032	-36.776288	0.000486	4.864080	0.823998	0.000097
1804	1.7940e+02	-4.0826	-36.639025	0.000689	6.890780	1.167330	0.000138
1805	1.7950e+02	-4.0631	-36.534060	0.000527	5.269420	0.892664	0.000105
1806	1.7960e+02	-4.0433	-36.404872	0.000649	6.485440	1.098663	0.000130
1807	1.7970e+02	-4.0225	-36.275683	0.000649	6.485440	1.098663	0.000130
1808	1.7980e+02	-4.0027	-36.203015	0.000365	3.648060	0.617998	0.000073
1809	1.7990e+02	-3.9832	-36.053641	0.000750	7.498790	1.270329	0.000150
1810	1.8000e+02	-3.9642	-35.993084	0.000304	3.040050	0.514998	0.000061
1811	1.8009e+02	-3.9429	-35.892155	0.000507	5.066750	0.858331	0.000101
1812	1.8019e+02	-3.9230	-35.746818	0.000730	7.296120	1.235996	0.000146
1813	1.8029e+02	-3.9037	-35.637816	0.000547	5.472090	0.926997	0.000110
1814	1.8039e+02	-3.8837	-35.528813	0.000547	5.472090	0.926997	0.000110
1815	1.8049e+02	-3.8628	-35.439996	0.000446	4.458740	0.755331	0.000089
1816	1.8059e+02	-3.8427	-35.347142	0.000466	4.661410	0.789664	0.000093
1817	1.8069e+02	-3.8232	-35.201805	0.000730	7.296120	1.235996	0.000146
1818	1.8079e+02	-3.8037	-35.112988	0.000446	4.458740	0.755331	0.000089
1819	1.8089e+02	-3.7831	-34.975725	0.000689	6.890780	1.167330	0.000138
1820	1.8099e+02	-3.7640	-34.899020	0.000385	3.850730	0.652331	0.000077
1821	1.8109e+02	-3.7444	-34.757720	0.000709	7.093450	1.201663	0.000142
1822	1.8119e+02	-3.7247	-34.672940	0.000426	4.256070	0.720998	0.000085
1823	1.8129e+02	-3.7042	-34.531641	0.000709	7.093450	1.201663	0.000142
1824	1.8139e+02	-3.6845	-34.450898	0.000405	4.053400	0.686665	0.000081
1825	1.8149e+02	-3.6649	-34.313635	0.000689	6.890780	1.167330	0.000138
1826	1.8159e+02	-3.6444	-34.184447	0.000649	6.485440	1.098663	0.000130
1827	1.8169e+02	-3.6244	-34.099667	0.000426	4.256070	0.720998	0.000085
1828	1.8179e+02	-3.6053	-33.974516	0.000628	6.282770	1.064330	0.000126
1829	1.8189e+02	-3.5852	-33.857439	0.000588	5.877430	0.995664	0.000118
1830	1.8199e+02	-3.5643	-33.780733	0.000385	3.850730	0.652331	0.000077
1831	1.8209e+02	-3.5442	-33.627322	0.000770	7.701460	1.304663	0.000154
1832	1.8218e+02	-3.5246	-33.554654	0.000365	3.648060	0.617998	0.000073
1833	1.8228e+02	-3.5046	-33.397205	0.000790	7.904130	1.338996	0.000158
1834	1.8238e+02	-3.4845	-33.352797	0.000223	2.229370	0.377666	0.000045
1835	1.8248e+02	-3.4642	-33.227646	0.000628	6.282770	1.064330	0.000126
1836	1.8258e+02	-3.4460	-33.110569	0.000588	5.877430	0.995664	0.000118
1837	1.8268e+02	-3.4250	-32.973306	0.000689	6.890780	1.167330	0.000138
1838	1.8278e+02	-3.4048	-32.840081	0.000669	6.688110	1.132997	0.000134
1839	1.8288e+02	-3.3855	-32.751264	0.000446	4.458740	0.755331	0.000089
1840	1.8298e+02	-3.3658	-32.654372	0.000486	4.864080	0.823998	0.000097
1841	1.8308e+02	-3.3459	-32.513073	0.000709	7.093450	1.201663	0.000142
1842	1.8318e+02	-3.3249	-32.375810	0.000689	6.890780	1.167330	0.000138
1843	1.8328e+02	-3.3057	-32.295067	0.000405	4.053400	0.686665	0.000081
1844	1.8338e+02	-3.2852	-32.153768	0.000709	7.093450	1.201663	0.000142
1845	1.8348e+02	-3.2664	-32.056876	0.000486	4.864080	0.823998	0.000097
1846	1.8358e+02	-3.2455	-31.911539	0.000730	7.296120	1.235996	0.000146
1847	1.8368e+02	-3.2263	-31.859057	0.000263	2.634710	0.446332	0.000053
1848	1.8378e+02	-3.2066	-31.661237	0.000993	9.930831	1.682328	0.000199
1849	1.8388e+02	-3.1853	-31.572420	0.000446	4.458740	0.755331	0.000089
1850	1.8398e+02	-3.1665	-31.475529	0.000486	4.864080	0.823998	0.000097
1851	1.8407e+02	-3.1464	-31.386712	0.000446	4.458740	0.755331	0.000089
1852	1.8417e+02	-3.1262	-31.213115	0.000871	8.714811	1.476329	0.000174
1853	1.8427e+02	-3.1064	-31.108149	0.000527	5.269420	0.892664	0.000105
1854	1.8437e+02	-3.0858	-30.991072	0.000588	5.877430	0.995664	0.000118
1855	1.8447e+02	-3.0669	-30.841698	0.000750	7.498790	1.270329	0.000150
1856	1.8457e+02	-3.0457	-30.773067	0.000345	3.445390	0.583665	0.000069
1857	1.8467e+02	-3.0261	-30.631767	0.000709	7.093450	1.201663	0.000142
1858	1.8477e+02	-3.0061	-30.546988	0.000426	4.256070	0.720998	0.000085
1859	1.8487e+02	-2.9863	-30.446059	0.000507	5.066750	0.858331	0.000101
1860	1.8497e+02	-2.9663	-30.328982	0.000588	5.877430	0.995664	0.000118
1861	1.8507e+02	-2.9468	-30.187682	0.000709	7.093450	1.201663	0.000142
1862	1.8517e+02	-2.9277	-30.050420	0.000689	6.890780	1.167330	0.000138
1863	1.8527e+02	-2.9075	-29.949491	0.000507	5.066750	0.858331	0.000101
1864	1.8537e+02	-2.8864	-29.828377	0.000608	6.080100	1.029997	0.000122
1865	1.8547e+02	-2.8671	-29.703226	0.000628	6.282770	1.064330	0.000126
1866	1.8557e+02	-2.8473	-29.618446	0.000426	4.256070	0.720998	0.000085
1867	1.8567e+02	-2.8265	-29.505407	0.000567	5.674760	0.961330	0.000114
1868	1.8577e+02	-2.8085	-29.327773	0.000892	8.917481	1.510662	0.000179
1869	1.8587e+02	-2.7870	-29.218770	0.000547	5.472090	0.926997	0.000110
1870	1.8597e+02	-2.7673	-29.121879	0.000486	4.864080	0.823998	0.000097
1871	1.8606e+02	-2.7463	-29.000765	0.000608	6.080100	1.029997	0.000122
1872	1.8616e+02	-2.7271	-28.891762	0.000547	5.472090	0.926997	0.000110
1873	1.8626e+02	-2.7074	-28.730276	0.000811	8.106800	1.373329	0.000162
1874	1.8636e+02	-2.6885	-28.649534	0.000405	4.053400	0.686665	0.000081
1875	1.8646e+02	-2.6682	-28.544568	0.000527	5.269420	0.892664	0.000105
1876	1.8656e+02	-2.6495	-28.399231	0.000730	7.296120	1.235996	0.000146
1877	1.8666e+02	-2.6281	-28.266006	0.000669	6.688110	1.132997	0.000134
1878	1.8676e+02	-2.6073	-28.173152	0.000466	4.661410	0.789664	0.000093
1879	1.8686e+02	-2.5886	-28.027815	0.000730	7.296120	1.235996	0.000146
1880	1.8696e+02	-2.5684	-27.926886	0.000507	5.066750	0.858331	0.000101
1881	1.8706e+02	-2.5485	-27.801735	0.000628	6.282770	1.064330	0.000126
1882	1.8716e+02	-2.5278	-27.684658	0.000588	5.877430	0.995664	0.000118
1883	1.8726e+02	-2.5082	-27.551433	0.000669	6.688110	1.132997	0.000134
1884	1.8736e+02	-2.4889	-27.426282	0.000628	6.282770	1.064330	0.000126
1885	1.8746e+02	-2.4687	-27.276908	0.000750	7.498790	1.270329	0.000150
1886	1.8756e+02	-2.4490	-27.224425	0.000263	2.634710	0.446332	0.000053
1887	1.8766e+02	-2.4283	-27.046791	0.000892	8.917481	1.510662	0.000179
1888	1.8776e+02	-2.4094	-26.945862	0.000507	5.066750	0.858331	0.000101
1889	1.8786e+02	-2.3894	-26.848971	0.000486	4.864080	0.823998	0.000097
1890	1.8796e+02	-2.3694	-26.695560	0.000770	7.701460	1.304663	0.000154
1891	1.8806e+02	-2.3492	-26.562335	0.000669	6.688110	1.132997	0.000134
1892	1.8815e+02	-2.3289	-26.429109	0.000669	6.688110	1.132997	0.000134
1893	1.8825e+02	-2.3094	-26.320106	0.000547	5.472090	0.926997	0.000110
1894	1.8835e+02	-2.2893	-26.174770	0.000730	7.296120	1.235996	0.000146
1895	1.8845e+02	-2.2687	-26.041544	0.000669	6.688110	1.132997	0.000134
1896	1.8855e+02	-2.2507	-25.940616	0.000507	5.066750	0.858331	0.000101
1897	1.8865e+02	-2.2292	-25.807390	0.000669	6.688110	1.132997	0.000134
1898	1.8875e+02	-2.2095	-25.662053	0.000730	7.296120	1.235996	0.000146
1899	1.8885e+02	-2.1896	-25.524791	0.000689	6.890780	1.167330	0.000138
1900	1.8895e+02	-2.1697	-25.383491	0.000709	7.093450	1.201663	0.000142
1901	1.8905e+02	-2.1497	-25.270451	0.000567	5.674760	0.961330	0.000114
1902	1.8915e+02	-2.1288	-25.157411	0.000567	5.674760	0.961330	0.000114
1903	1.8925e+02	-2.1098	-25.024186	0.000669	6.688110	1.132997	0.000134
1904	1.8935e+02	-2.0900	-24.882886	0.000709	7.093450	1.201663	0.000142
1905	1.8945e+02	-2.0701	-24.753698	0.000649	6.485440	1.098663	0.000130
1906	1.8955e+02	-2.0501	-24.620472	0.000669	6.688110	1.132997	0.000134
1907	1.8965e+02	-2.0303	-24.491284	0.000649	6.485440	1.098663	0.000130
1908	1.8975e+02	-2.0111	-24.366133	0.000628	6.282770	1.064330	0.000126
1909	1.8985e+02	-1.9902	-24.224833	0.000709	7.093450	1.201663	0.000142
1910	1.8995e+02	-1.9705	-24.103719	0.000608	6.080100	1.029997	0.000122
1911	1.9004e+02	-1.9507	-23.974531	0.000649	6.485440	1.098663	0.000130
1912	1.9014e+02	-1.9305	-23.817082	0.000790	7.904130	1.338996	0.000158
1913	1.9024e+02	-1.9112	-23.736340	0.000405	4.053400	0.686665	0.000081
1914	1.9034e+02	-1.8903	-23.591003	0.000730	7.296120	1.235996	0.000146
1915	1.9044e+02	-1.8718	-23.437592	0.000770	7.701460	1.304663	0.000154
1916	1.9054e+02	-1.8506	-23.348775	0.000446	4.458740	0.755331	0.000089
1917	1.9064e+02	-1.8314	-23.179215	0.000851	8.512141	1.441996	0.000170
1918	1.9074e+02	-1.8111	-23.086361	0.000466	4.661410	0.789664	0.000093
1919	1.9084e+02	-1.7911	-22.896615	0.000953	9.525491	1.613662	0.000191
1920	1.9094e+02	-1.7712	-22.787613	0.000547	5.472090	0.926997	0.000110
1921	1.9104e+02	-1.7516	-22.682647	0.000527	5.269420	0.892664	0.000105
1922	1.9114e+02	-1.7321	-22.533273	0.000750	7.498790	1.270329	0.000150
1923	1.9124e+02	-1.7119	-22.396011	0.000689	6.890780	1.167330	0.000138
1924	1.9134e+02	-1.6911	-22.230488	0.000831	8.309471	1.407662	0.000166
1925	1.9144e+02	-1.6717	-22.105337	0.000628	6.282770	1.064330	0.000126
1926	1.9154e+02	-1.6521	-21.968074	0.000689	6.890780	1.167330	0.000138
1927	1.9164e+02	-1.6315	-21.806589	0.000811	8.106800	1.373329	0.000162
1928	1.9174e+02	-1.6106	-21.701623	0.000527	5.269420	0.892664	0.000105
1929	1.9184e+02	-1.5918	-21.540138	0.000811	8.106800	1.373329	0.000162
1930	1.9194e+02	-1.5723	-21.394801	0.000730	7.296120	1.235996	0.000146
1931	1.9203e+02	-1.5520	-21.269650	0.000628	6.282770	1.064330	0.000126
1932	1.9213e+02	-1.5318	-21.156610	0.000567	5.674760	0.961330	0.000114
1933	1.9223e+02	-1.5117	-21.003199	0.000770	7.701460	1.304663	0.000154
1934	1.9233e+02	-1.4923	-20.898233	0.000527	5.269420	0.892664	0.000105
1935	1.9243e+02	-1.4719	-20.785193	0.000567	5.674760	0.961330	0.000114
1936	1.9253e+02	-1.4523	-20.623708	0.000811	8.106800	1.373329	0.000162
1937	1.9263e+02	-1.4325	-20.494520	0.000649	6.485440	1.098663	0.000130
1938	1.9273e+02	-1.4130	-20.353220	0.000709	7.093450	1.201663	0.000142
1939	1.9283e+02	-1.3889	-20.228069	0.000628	6.282770	1.064330	0.000126
1940	1.9293e+02	-1.3724	-20.046398	0.000912	9.120151	1.544995	0.000183
1941	1.9303e+02	-1.3528	-19.921246	0.000628	6.282770	1.064330	0.000126
1942	1.9313e+02	-1.3318	-19.788021	0.000669	6.688110	1.132997	0.000134
1943	1.9323e+02	-1.3126	-19.646721	0.000709	7.093450	1.201663	0.000142
1944	1.9333e+02	-1.2929	-19.497347	0.000750	7.498790	1.270329	0.000150
1945	1.9343e+02	-1.2737	-19.339899	0.000790	7.904130	1.338996	0.000158
1946	1.9353e+02	-1.2527	-19.251082	0.000446	4.458740	0.755331	0.000089
1947	1.9363e+02	-1.2326	-19.077485	0.000871	8.714811	1.476329	0.000174
1948	1.9373e+02	-1.2135	-18.944259	0.000669	6.688110	1.132997	0.000134
1949	1.9383e+02	-1.1940	-18.798923	0.000730	7.296120	1.235996	0.000146
1950	1.9393e+02	-1.1735	-18.669734	0.000649	6.485440	1.098663	0.000130
1951	1.9403e+02	-1.1543	-18.536509	0.000669	6.688110	1.132997	0.000134
1952	1.9412e+02	-1.1334	-18.379060	0.000790	7.904130	1.338996	0.000158
1953	1.9422e+02	-1.1140	-18.282169	0.000486	4.864080	0.823998	0.000097
1954	1.9432e+02	-1.0941	-18.080312	0.001013	10.133501	1.716661	0.000203
1955	1.9442e+02	-1.0738	-17.979384	0.000507	5.066750	0.858331	0.000101
1956	1.9452e+02	-1.0541	-17.821936	0.000790	7.904130	1.338996	0.000158
1957	1.9462e+02	-1.0345	-17.656413	0.000831	8.309471	1.407662	0.000166
1958	1.9472e+02	-1.0146	-17.494928	0.000811	8.106800	1.373329	0.000162
1959	1.9482e+02	-0.9949	-17.381888	0.000567	5.674760	0.961330	0.000114
1960	1.9492e+02	-0.9746	-17.248662	0.000669	6.688110	1.132997	0.000134
1961	1.9502e+02	-0.9541	-17.111400	0.000689	6.890780	1.167330	0.000138
1962	1.9512e+02	-0.9341	-16.982211	0.000649	6.485440	1.098663	0.000130
1963	1.9522e+02	-0.9144	-16.836875	0.000730	7.296120	1.235996	0.000146
1964	1.9532e+02	-0.8945	-16.711723	0.000628	6.282770	1.064330	0.000126
1965	1.9542e+02	-0.8744	-16.509867	0.001013	10.133501	1.716661	0.000203
1966	1.9552e+02	-0.8550	-16.376641	0.000669	6.688110	1.132997	0.000134
1967	1.9562e+02	-0.8348	-16.271676	0.000527	5.269420	0.892664	0.000105
1968	1.9572e+02	-0.8162	-16.126339	0.000730	7.296120	1.235996	0.000146
1969	1.9582e+02	-0.7951	-15.924482	0.001013	10.133501	1.716661	0.000203
1970	1.9592e+02	-0.7750	-15.831628	0.000466	4.661410	0.789664	0.000093
1971	1.9601e+02	-0.7549	-15.714551	0.000588	5.877430	0.995664	0.000118
1972	1.9611e+02	-0.7349	-15.553065	0.000811	8.106800	1.373329	0.000162
1973	1.9621e+02	-0.7146	-15.399654	0.000770	7.701460	1.304663	0.000154
1974	1.9631e+02	-0.6952	-15.242206	0.000790	7.904130	1.338996	0.000158
1975	1.9641e+02	-0.6754	-15.096869	0.000730	7.296120	1.235996	0.000146
1976	1.9651e+02	-0.6561	-15.008052	0.000446	4.458740	0.755331	0.000089
1977	1.9661e+02	-0.6351	-14.826381	0.000912	9.120151	1.544995	0.000183
1978	1.9671e+02	-0.6159	-14.701230	0.000628	6.282770	1.064330	0.000126
1979	1.9681e+02	-0.5953	-14.539744	0.000811	8.106800	1.373329	0.000162
1980	1.9691e+02	-0.5755	-14.414593	0.000628	6.282770	1.064330	0.000126
1981	1.9701e+02	-0.5560	-14.249071	0.000831	8.309471	1.407662	0.000166
1982	1.9711e+02	-0.5357	-14.131994	0.000588	5.877430	0.995664	0.000118
1983	1.9721e+02	-0.5156	-13.994731	0.000689	6.890780	1.167330	0.000138
1984	1.9731e+02	-0.4955	-13.861506	0.000669	6.688110	1.132997	0.000134
1985	1.9741e+02	-0.4759	-13.695983	0.000831	8.309471	1.407662	0.000166
1986	1.9751e+02	-0.4559	-13.558720	0.000689	6.890780	1.167330	0.000138
1987	1.9761e+02	-0.4359	-13.453755	0.000527	5.269420	0.892664	0.000105
1988	1.9771e+02	-0.4160	-13.304381	0.000750	7.498790	1.270329	0.000150
1989	1.9781e+02	-0.3967	-13.159044	0.000730	7.296120	1.235996	0.000146
1990	1.9791e+02	-0.3771	-13.041967	0.000588	5.877430	0.995664	0.000118
1991	1.9800e+02	-0.3561	-12.884519	0.000790	7.904130	1.338996	0.000158
1992	1.9810e+02	-0.3356	-12.759368	0.000628	6.282770	1.064330	0.000126
1993	1.9820e+02	-0.3165	-12.601919	0.000790	7.904130	1.338996	0.000158
1994	1.9830e+02	-0.2966	-12.436397	0.000831	8.309471	1.407662	0.000166
1995	1.9840e+02	-0.2763	-12.315283	0.000608	6.080100	1.029997	0.000122
1996	1.9850e+02	-0.2570	-12.202243	0.000567	5.674760	0.961330	0.000114
1997	1.9860e+02	-0.2366	-12.056906	0.000730	7.296120	1.235996	0.000146
1998	1.9870e+02	-0.2165	-11.919643	0.000689	6.890780	1.167330	0.000138
1999	1.9880e+02	-0.1971	-11.774306	0.000730	7.296120	1.235996	0.000146
2000	1.9890e+02	-0.1766	-11.673378	0.000507	5.066750	0.858331	0.000101
2001	1.9900e+02	-0.1577	-11.463447	0.001054	10.538841	1.785328	0.000211
2002	1.9910e+02	-0.1372	-11.346370	0.000588	5.877430	0.995664	0.000118
2003	1.9920e+02	-0.1170	-11.192959	0.000770	7.701460	1.304663	0.000154
2004	1.9930e+02	-0.0975	-11.063770	0.000649	6.485440	1.098663	0.000130
2005	1.9940e+02	-0.0768	-10.934582	0.000649	6.485440	1.098663	0.000130
2006	1.9950e+02	-0.0574	-10.769060	0.000831	8.309471	1.407662	0.000166
2007	1.9960e+02	-0.0377	-10.647946	0.000608	6.080100	1.029997	0.000122
2008	1.9970e+02	-0.0177	-10.514720	0.000669	6.688110	1.132997	0.000134
2009	1.9980e+02	0.0008	-10.373420	0.000669	6.688110	1.132997	0.000142

PMax (uC/cm2):	5.73e+01
Pr (uC/cm2):	4.59e+00
-Pr (uC/cm2):	-1.15e+01
PLoss (uC/cm2):	-1.15e+01
-Vc:	-6.44e-01
C (Max-Eff) (nF):	5.73e-01
K (Eff):	9.71e+02
Vert. (+/-Pr) Shift (uC/cm2):	-3.46e+00
Offset (uC/cm2):	-1.14e+00

A (Loop Area - uC/cm2·Volts):	-1.38e-02



Hysteresis Version: 5.48.1 - Radiant Technologies, Inc., 1999 - 9/12/24

