»»»»»»»»»»»»»»»»»»»»»»»»»»»»»»»»»»»» Hysteresis ««««««««««««««««««««««««««««««««««««
»»»  Executed Version:	5.48.1
»»»  Vision Version:	5.48.4 (R)
»»»  Vision Compiled:	9/18/24
»»»  Driver Version:	5.47.0
»»»  Windows Version:	Windows 8 or 8.1
»»»  Processor Information:	x86 (AMD or Intel) - 32 Processors
»»»  Tester Name:	PMF21124-494 (100V)
»»»  Tester S/N:	PMF21124-494
»»»  Internal Amp Type:	100V RevK 270k
»»»  Internal Amp S/N:	iAB2-596/K     
»»»  Execution Count:	1
»»»»»»»»»»»»»»»»»»»»»»»»»»»»»»»»»»»»»»»»»»««««««««««««««««««««««««««««««««««««««««««

Stored:	7/7/2025 - 13:58:58
Configured:	07/07/25 01:27:50 PM
Executed:	07/07/25 01:58:27 PM

»»»»»»»»»»»»»»»»»»»»»»»»»»»»»»»»»»» Sample Info ««««««««««««««««««««««««««««««««««««
Sample Name:	
Lot Name:	
Wafer Name:	
Die Row/Column:	0/0
Capacitor Number:	0
Sample Area (cm2):	1.00e-04
Sample Thickness (microns):	1.50e-01

Amplifier:	Internal

»»»»»»»»»»»»»»»»»»»»»»»»»»»»»»»»»»» Tester Info «««««««««««««««««««««««««««««««««««
Tester Name:	PMF21124-494 (100V)
Tester Serial Number:	PMF21124-494
Return Signal Amp. Level:	0.19 [Index: 3]

»»»»»»»»»»»»»»»»»»»»»»»»»»»»»»»» Hysteresis Info ««««««««««««««««««««««««««««««««««
Task Name:	Hyst-528
Volts:	10.00
Field:	666.67 (kV/cm)
DCBias:	0.00
DCField:	0.00 (kV/cm)
Hysteresis Period (ms):	2.00e+02
Preset:	Enabled
Preset Delay (ms):	1.00e+03
Profile:	Standard Bipolar

»»»»»»»»»»»»»»»»»»»»»»»»»»»»»»»»»»»»»» Data «««««««««««««««««««««««««««««««««««««««
Points:	2009

Valid Data

Point	Time (ms)	Drive Voltage	Measured Polarization (uC/cm2)	Capacitance (uF)	Normalized Capacitance (uF/cm2)	Dielectric Constant	Instantaneous Current (mA)
   1	0.0000e+00	-0.0002	16.314066	0.000507	5.066605	0.858306	0.000101
   2	9.9500e-02	0.0198	16.414994	0.000507	5.066605	0.858306	0.000101
   3	1.9900e-01	0.0400	16.536108	0.000608	6.079926	1.029967	0.000122
   4	2.9850e-01	0.0593	16.624925	0.000446	4.458613	0.755309	0.000089
   5	3.9800e-01	0.0800	16.729890	0.000527	5.269270	0.892638	0.000105
   6	4.9750e-01	0.1006	16.855042	0.000628	6.282591	1.064300	0.000126
   7	5.9700e-01	0.1190	16.923673	0.000345	3.445292	0.583648	0.000069
   8	6.9650e-01	0.1394	17.056898	0.000669	6.687919	1.132964	0.000134
   9	7.9600e-01	0.1595	17.157827	0.000507	5.066605	0.858306	0.000101
  10	8.9550e-01	0.1782	17.274904	0.000588	5.877262	0.995635	0.000118
  11	9.9500e-01	0.1991	17.311238	0.000182	1.823978	0.308990	0.000037
  12	1.0945e+00	0.2182	17.464649	0.000770	7.701240	1.304625	0.000154
  13	1.1940e+00	0.2401	17.585763	0.000608	6.079926	1.029967	0.000122
  14	1.2935e+00	0.2586	17.686692	0.000507	5.066605	0.858306	0.000101
  15	1.3930e+00	0.2791	17.779546	0.000466	4.661277	0.789642	0.000093
  16	1.4925e+00	0.2992	17.892586	0.000567	5.674598	0.961303	0.000114
  17	1.5920e+00	0.3182	17.969291	0.000385	3.850620	0.652313	0.000077
  18	1.6915e+00	0.3387	18.110591	0.000709	7.093247	1.201629	0.000142
  19	1.7910e+00	0.3580	18.227668	0.000588	5.877262	0.995635	0.000118
  20	1.8905e+00	0.3783	18.368968	0.000709	7.093247	1.201629	0.000142
  21	1.9900e+00	0.3983	18.429525	0.000304	3.039963	0.514984	0.000061
  22	2.0895e+00	0.4180	18.530453	0.000507	5.066605	0.858306	0.000101
  23	2.1890e+00	0.4379	18.643493	0.000567	5.674598	0.961303	0.000114
  24	2.2885e+00	0.4581	18.792867	0.000750	7.498576	1.270293	0.000150
  25	2.3880e+00	0.4790	18.833238	0.000203	2.026642	0.343322	0.000041
  26	2.4875e+00	0.4979	18.994724	0.000811	8.106569	1.373290	0.000162
  27	2.5870e+00	0.5175	19.067392	0.000365	3.647956	0.617980	0.000073
  28	2.6865e+00	0.5383	19.188506	0.000608	6.079926	1.029967	0.000122
  29	2.7860e+00	0.5579	19.289435	0.000507	5.066605	0.858306	0.000101
  30	2.8855e+00	0.5781	19.422660	0.000669	6.687919	1.132964	0.000134
  31	2.9850e+00	0.5978	19.507440	0.000426	4.255948	0.720977	0.000085
  32	3.0845e+00	0.6167	19.656814	0.000750	7.498576	1.270293	0.000150
  33	3.1840e+00	0.6373	19.741594	0.000426	4.255948	0.720977	0.000085
  34	3.2835e+00	0.6577	19.846559	0.000527	5.269270	0.892638	0.000105
  35	3.3830e+00	0.6778	19.931339	0.000426	4.255948	0.720977	0.000085
  36	3.4825e+00	0.6963	20.064565	0.000669	6.687919	1.132964	0.000134
  37	3.5820e+00	0.7170	20.173567	0.000547	5.471934	0.926971	0.000110
  38	3.6815e+00	0.7365	20.286607	0.000567	5.674598	0.961303	0.000114
  39	3.7810e+00	0.7565	20.399647	0.000567	5.674598	0.961303	0.000114
  40	3.8805e+00	0.7774	20.496538	0.000486	4.863941	0.823974	0.000097
  41	3.9800e+00	0.7975	20.609578	0.000567	5.674598	0.961303	0.000114
  42	4.0795e+00	0.8183	20.730692	0.000608	6.079926	1.029967	0.000122
  43	4.1790e+00	0.8369	20.851806	0.000608	6.079926	1.029967	0.000122
  44	4.2785e+00	0.8566	20.940623	0.000446	4.458613	0.755309	0.000089
  45	4.3780e+00	0.8762	21.081923	0.000709	7.093247	1.201629	0.000142
  46	4.4775e+00	0.8962	21.178814	0.000486	4.863941	0.823974	0.000097
  47	4.5770e+00	0.9170	21.340300	0.000811	8.106569	1.373290	0.000162
  48	4.6765e+00	0.9361	21.421042	0.000405	4.053284	0.686645	0.000081
  49	4.7760e+00	0.9568	21.534082	0.000567	5.674598	0.961303	0.000114
  50	4.8755e+00	0.9766	21.626936	0.000466	4.661277	0.789642	0.000093
  51	4.9750e+00	0.9971	21.800533	0.000871	8.714561	1.476287	0.000174
  52	5.0745e+00	1.0173	21.857053	0.000284	2.837299	0.480651	0.000057
  53	5.1740e+00	1.0358	21.957981	0.000507	5.066605	0.858306	0.000101
  54	5.2735e+00	1.0561	22.107355	0.000750	7.498576	1.270293	0.000150
  55	5.3730e+00	1.0768	22.180024	0.000365	3.647956	0.617980	0.000073
  56	5.4725e+00	1.0961	22.321323	0.000709	7.093247	1.201629	0.000142
  57	5.5720e+00	1.1156	22.438400	0.000588	5.877262	0.995635	0.000118
  58	5.6715e+00	1.1361	22.583737	0.000730	7.295912	1.235961	0.000146
  59	5.7710e+00	1.1556	22.696777	0.000567	5.674598	0.961303	0.000114
  60	5.8705e+00	1.1756	22.781557	0.000426	4.255948	0.720977	0.000085
  61	5.9700e+00	1.1962	22.922857	0.000709	7.093247	1.201629	0.000142
  62	6.0695e+00	1.2157	23.023785	0.000507	5.066605	0.858306	0.000101
  63	6.1690e+00	1.2357	23.181233	0.000790	7.903904	1.338958	0.000158
  64	6.2685e+00	1.2546	23.270050	0.000446	4.458613	0.755309	0.000089
  65	6.3680e+00	1.2759	23.362905	0.000466	4.661277	0.789642	0.000093
  66	6.4675e+00	1.2948	23.532464	0.000851	8.511897	1.441954	0.000170
  67	6.5670e+00	1.3148	23.625318	0.000466	4.661277	0.789642	0.000093
  68	6.6665e+00	1.3339	23.710098	0.000426	4.255948	0.720977	0.000085
  69	6.7660e+00	1.3541	23.855435	0.000730	7.295912	1.235961	0.000146
  70	6.8655e+00	1.3734	23.960401	0.000527	5.269270	0.892638	0.000105
  71	6.9650e+00	1.3951	24.065366	0.000527	5.269270	0.892638	0.000105
  72	7.0645e+00	1.4130	24.186480	0.000608	6.079926	1.029967	0.000122
  73	7.1640e+00	1.4352	24.331817	0.000730	7.295912	1.235961	0.000146
  74	7.2635e+00	1.4544	24.432745	0.000507	5.066605	0.858306	0.000101
  75	7.3630e+00	1.4728	24.529637	0.000486	4.863941	0.823974	0.000097
  76	7.4625e+00	1.4940	24.674974	0.000730	7.295912	1.235961	0.000146
  77	7.5620e+00	1.5134	24.792051	0.000588	5.877262	0.995635	0.000118
  78	7.6615e+00	1.5336	24.901053	0.000547	5.471934	0.926971	0.000110
  79	7.7610e+00	1.5539	25.030242	0.000649	6.485255	1.098632	0.000130
  80	7.8605e+00	1.5736	25.119059	0.000446	4.458613	0.755309	0.000089
  81	7.9600e+00	1.5937	25.248247	0.000649	6.485255	1.098632	0.000130
  82	8.0595e+00	1.6121	25.337064	0.000446	4.458613	0.755309	0.000089
  83	8.1590e+00	1.6315	25.474327	0.000689	6.890583	1.167296	0.000138
  84	8.2585e+00	1.6540	25.595441	0.000608	6.079926	1.029967	0.000122
  85	8.3580e+00	1.6730	25.720592	0.000628	6.282591	1.064300	0.000126
  86	8.4575e+00	1.6927	25.837669	0.000588	5.877262	0.995635	0.000118
  87	8.5570e+00	1.7132	25.938597	0.000507	5.066605	0.858306	0.000101
  88	8.6565e+00	1.7331	26.027414	0.000446	4.458613	0.755309	0.000089
  89	8.7560e+00	1.7528	26.156602	0.000649	6.485255	1.098632	0.000130
  90	8.8555e+00	1.7724	26.249457	0.000466	4.661277	0.789642	0.000093
  91	8.9550e+00	1.7931	26.402868	0.000770	7.701240	1.304625	0.000154
  92	9.0545e+00	1.8131	26.507833	0.000527	5.269270	0.892638	0.000105
  93	9.1540e+00	1.8330	26.641059	0.000669	6.687919	1.132964	0.000134
  94	9.2535e+00	1.8523	26.778321	0.000689	6.890583	1.167296	0.000138
  95	9.3530e+00	1.8723	26.855027	0.000385	3.850620	0.652313	0.000077
  96	9.4525e+00	1.8917	26.955955	0.000507	5.066605	0.858306	0.000101
  97	9.5520e+00	1.9126	27.125515	0.000851	8.511897	1.441954	0.000170
  98	9.6515e+00	1.9326	27.186072	0.000304	3.039963	0.514984	0.000061
  99	9.7510e+00	1.9530	27.383892	0.000993	9.930546	1.682280	0.000199
 100	9.8505e+00	1.9718	27.432337	0.000243	2.431971	0.411987	0.000049
 101	9.9500e+00	1.9927	27.545377	0.000567	5.674598	0.961303	0.000114
 102	1.0050e+01	2.0123	27.662454	0.000588	5.877262	0.995635	0.000118
 103	1.0149e+01	2.0310	27.775494	0.000567	5.674598	0.961303	0.000114
 104	1.0248e+01	2.0525	27.888534	0.000567	5.674598	0.961303	0.000114
 105	1.0348e+01	2.0722	28.017722	0.000649	6.485255	1.098632	0.000130
 106	1.0447e+01	2.0922	28.138836	0.000608	6.079926	1.029967	0.000122
 107	1.0547e+01	2.1124	28.243802	0.000527	5.269270	0.892638	0.000105
 108	1.0646e+01	2.1313	28.364916	0.000608	6.079926	1.029967	0.000122
 109	1.0746e+01	2.1514	28.473918	0.000547	5.471934	0.926971	0.000110
 110	1.0845e+01	2.1719	28.595032	0.000608	6.079926	1.029967	0.000122
 111	1.0945e+01	2.1911	28.748444	0.000770	7.701240	1.304625	0.000154
 112	1.1044e+01	2.2111	28.869558	0.000608	6.079926	1.029967	0.000122
 113	1.1144e+01	2.2309	28.974523	0.000527	5.269270	0.892638	0.000105
 114	1.1243e+01	2.2509	29.071414	0.000486	4.863941	0.823974	0.000097
 115	1.1343e+01	2.2707	29.192529	0.000608	6.079926	1.029967	0.000122
 116	1.1443e+01	2.2915	29.345940	0.000770	7.701240	1.304625	0.000154
 117	1.1542e+01	2.3105	29.450905	0.000527	5.269270	0.892638	0.000105
 118	1.1642e+01	2.3307	29.531648	0.000405	4.053284	0.686645	0.000081
 119	1.1741e+01	2.3508	29.672948	0.000709	7.093247	1.201629	0.000142
 120	1.1841e+01	2.3710	29.769839	0.000486	4.863941	0.823974	0.000097
 121	1.1940e+01	2.3916	29.830396	0.000304	3.039963	0.514984	0.000061
 122	1.2040e+01	2.4110	30.032253	0.001013	10.133211	1.716612	0.000203
 123	1.2139e+01	2.4306	30.112995	0.000405	4.053284	0.686645	0.000081
 124	1.2239e+01	2.4500	30.193738	0.000405	4.053284	0.686645	0.000081
 125	1.2338e+01	2.4712	30.387521	0.000973	9.727882	1.647948	0.000195
 126	1.2438e+01	2.4915	30.448078	0.000304	3.039963	0.514984	0.000061
 127	1.2537e+01	2.5110	30.609563	0.000811	8.106569	1.373290	0.000162
 128	1.2636e+01	2.5291	30.698380	0.000446	4.458613	0.755309	0.000089
 129	1.2736e+01	2.5509	30.831606	0.000669	6.687919	1.132964	0.000134
 130	1.2835e+01	2.5698	30.884088	0.000263	2.634635	0.446319	0.000053
 131	1.2935e+01	2.5900	31.045574	0.000811	8.106569	1.373290	0.000162
 132	1.3034e+01	2.6087	31.146502	0.000507	5.066605	0.858306	0.000101
 133	1.3134e+01	2.6299	31.295876	0.000750	7.498576	1.270293	0.000150
 134	1.3233e+01	2.6503	31.392767	0.000486	4.863941	0.823974	0.000097
 135	1.3333e+01	2.6697	31.433139	0.000203	2.026642	0.343322	0.000041
 136	1.3432e+01	2.6896	31.558290	0.000628	6.282591	1.064300	0.000126
 137	1.3532e+01	2.7094	31.695553	0.000689	6.890583	1.167296	0.000138
 138	1.3632e+01	2.7291	31.804555	0.000547	5.471934	0.926971	0.000110
 139	1.3731e+01	2.7489	31.945855	0.000709	7.093247	1.201629	0.000142
 140	1.3831e+01	2.7685	32.014486	0.000345	3.445292	0.583648	0.000069
 141	1.3930e+01	2.7890	32.151749	0.000689	6.890583	1.167296	0.000138
 142	1.4030e+01	2.8086	32.260752	0.000547	5.471934	0.926971	0.000110
 143	1.4129e+01	2.8303	32.381866	0.000608	6.079926	1.029967	0.000122
 144	1.4229e+01	2.8484	32.494906	0.000567	5.674598	0.961303	0.000114
 145	1.4328e+01	2.8691	32.575648	0.000405	4.053284	0.686645	0.000081
 146	1.4428e+01	2.8893	32.680614	0.000527	5.269270	0.892638	0.000105
 147	1.4527e+01	2.9079	32.817876	0.000689	6.890583	1.167296	0.000138
 148	1.4627e+01	2.9288	32.922842	0.000527	5.269270	0.892638	0.000105
 149	1.4726e+01	2.9488	33.039919	0.000588	5.877262	0.995635	0.000118
 150	1.4825e+01	2.9696	33.144884	0.000527	5.269270	0.892638	0.000105
 151	1.4925e+01	2.9872	33.245813	0.000507	5.066605	0.858306	0.000101
 152	1.5024e+01	3.0086	33.346741	0.000507	5.066605	0.858306	0.000101
 153	1.5124e+01	3.0289	33.419410	0.000365	3.647956	0.617980	0.000073
 154	1.5223e+01	3.0485	33.568784	0.000750	7.498576	1.270293	0.000150
 155	1.5323e+01	3.0692	33.702009	0.000669	6.687919	1.132964	0.000134
 156	1.5422e+01	3.0877	33.786789	0.000426	4.255948	0.720977	0.000085
 157	1.5522e+01	3.1081	33.871569	0.000426	4.255948	0.720977	0.000085
 158	1.5621e+01	3.1274	34.008831	0.000689	6.890583	1.167296	0.000138
 159	1.5721e+01	3.1480	34.162243	0.000770	7.701240	1.304625	0.000154
 160	1.5820e+01	3.1684	34.222800	0.000304	3.039963	0.514984	0.000061
 161	1.5920e+01	3.1882	34.376211	0.000770	7.701240	1.304625	0.000154
 162	1.6020e+01	3.2071	34.469065	0.000466	4.661277	0.789642	0.000093
 163	1.6119e+01	3.2269	34.594216	0.000628	6.282591	1.064300	0.000126
 164	1.6218e+01	3.2468	34.670922	0.000385	3.850620	0.652313	0.000077
 165	1.6318e+01	3.2670	34.783962	0.000567	5.674598	0.961303	0.000114
 166	1.6418e+01	3.2867	34.892964	0.000547	5.471934	0.926971	0.000110
 167	1.6517e+01	3.3067	35.006004	0.000567	5.674598	0.961303	0.000114
 168	1.6616e+01	3.3273	35.127118	0.000608	6.079926	1.029967	0.000122
 169	1.6716e+01	3.3465	35.228046	0.000507	5.066605	0.858306	0.000101
 170	1.6816e+01	3.3665	35.300715	0.000365	3.647956	0.617980	0.000073
 171	1.6915e+01	3.3878	35.442015	0.000709	7.093247	1.201629	0.000142
 172	1.7015e+01	3.4063	35.555054	0.000567	5.674598	0.961303	0.000114
 173	1.7114e+01	3.4270	35.647909	0.000466	4.661277	0.789642	0.000093
 174	1.7213e+01	3.4467	35.781134	0.000669	6.687919	1.132964	0.000134
 175	1.7313e+01	3.4666	35.890137	0.000547	5.471934	0.926971	0.000110
 176	1.7413e+01	3.4872	36.003177	0.000567	5.674598	0.961303	0.000114
 177	1.7512e+01	3.5059	36.104105	0.000507	5.066605	0.858306	0.000101
 178	1.7611e+01	3.5264	36.213108	0.000547	5.471934	0.926971	0.000110
 179	1.7711e+01	3.5467	36.318073	0.000527	5.269270	0.892638	0.000105
 180	1.7811e+01	3.5665	36.423039	0.000527	5.269270	0.892638	0.000105
 181	1.7910e+01	3.5868	36.560301	0.000689	6.890583	1.167296	0.000138
 182	1.8009e+01	3.6063	36.628933	0.000345	3.445292	0.583648	0.000069
 183	1.8109e+01	3.6262	36.762158	0.000669	6.687919	1.132964	0.000134
 184	1.8209e+01	3.6460	36.875198	0.000567	5.674598	0.961303	0.000114
 185	1.8308e+01	3.6669	36.976126	0.000507	5.066605	0.858306	0.000101
 186	1.8407e+01	3.6866	37.093203	0.000588	5.877262	0.995635	0.000118
 187	1.8507e+01	3.7066	37.198169	0.000527	5.269270	0.892638	0.000105
 188	1.8607e+01	3.7254	37.339468	0.000709	7.093247	1.201629	0.000142
 189	1.8706e+01	3.7460	37.400025	0.000304	3.039963	0.514984	0.000061
 190	1.8805e+01	3.7663	37.488842	0.000446	4.458613	0.755309	0.000089
 191	1.8905e+01	3.7852	37.601882	0.000567	5.674598	0.961303	0.000114
 192	1.9005e+01	3.8036	37.747219	0.000730	7.295912	1.235961	0.000146
 193	1.9104e+01	3.8254	37.844110	0.000486	4.863941	0.823974	0.000097
 194	1.9203e+01	3.8445	37.965224	0.000608	6.079926	1.029967	0.000122
 195	1.9303e+01	3.8657	38.070190	0.000527	5.269270	0.892638	0.000105
 196	1.9402e+01	3.8845	38.142858	0.000365	3.647956	0.617980	0.000073
 197	1.9502e+01	3.9050	38.280121	0.000689	6.890583	1.167296	0.000138
 198	1.9602e+01	3.9248	38.340678	0.000304	3.039963	0.514984	0.000061
 199	1.9701e+01	3.9445	38.457755	0.000588	5.877262	0.995635	0.000118
 200	1.9800e+01	3.9651	38.582906	0.000628	6.282591	1.064300	0.000126
 201	1.9900e+01	3.9854	38.651538	0.000345	3.445292	0.583648	0.000069
 202	2.0000e+01	4.0041	38.792837	0.000709	7.093247	1.201629	0.000142
 203	2.0099e+01	4.0232	38.893766	0.000507	5.066605	0.858306	0.000101
 204	2.0198e+01	4.0441	39.006806	0.000567	5.674598	0.961303	0.000114
 205	2.0298e+01	4.0652	39.103697	0.000486	4.863941	0.823974	0.000097
 206	2.0398e+01	4.0838	39.220774	0.000588	5.877262	0.995635	0.000118
 207	2.0497e+01	4.1041	39.333813	0.000567	5.674598	0.961303	0.000114
 208	2.0596e+01	4.1250	39.442816	0.000547	5.471934	0.926971	0.000110
 209	2.0696e+01	4.1435	39.523559	0.000405	4.053284	0.686645	0.000081
 210	2.0796e+01	4.1639	39.652747	0.000649	6.485255	1.098632	0.000130
 211	2.0895e+01	4.1836	39.757713	0.000527	5.269270	0.892638	0.000105
 212	2.0994e+01	4.2042	39.854604	0.000486	4.863941	0.823974	0.000097
 213	2.1094e+01	4.2229	39.955532	0.000507	5.066605	0.858306	0.000101
 214	2.1194e+01	4.2426	40.064535	0.000547	5.471934	0.926971	0.000110
 215	2.1293e+01	4.2635	40.169501	0.000527	5.269270	0.892638	0.000105
 216	2.1392e+01	4.2838	40.286578	0.000588	5.877262	0.995635	0.000118
 217	2.1492e+01	4.3032	40.371357	0.000426	4.255948	0.720977	0.000085
 218	2.1591e+01	4.3230	40.456137	0.000426	4.255948	0.720977	0.000085
 219	2.1691e+01	4.3443	40.589363	0.000669	6.687919	1.132964	0.000134
 220	2.1791e+01	4.3639	40.718551	0.000649	6.485255	1.098632	0.000130
 221	2.1890e+01	4.3829	40.875999	0.000790	7.903904	1.338958	0.000158
 222	2.1989e+01	4.4032	40.948668	0.000365	3.647956	0.617980	0.000073
 223	2.2089e+01	4.4225	41.033448	0.000426	4.255948	0.720977	0.000085
 224	2.2189e+01	4.4433	41.150525	0.000588	5.877262	0.995635	0.000118
 225	2.2288e+01	4.4618	41.279713	0.000649	6.485255	1.098632	0.000130
 226	2.2387e+01	4.4828	41.380641	0.000507	5.066605	0.858306	0.000101
 227	2.2487e+01	4.5028	41.465421	0.000426	4.255948	0.720977	0.000085
 228	2.2587e+01	4.5220	41.598647	0.000669	6.687919	1.132964	0.000134
 229	2.2686e+01	4.5423	41.703612	0.000527	5.269270	0.892638	0.000105
 230	2.2785e+01	4.5623	41.800503	0.000486	4.863941	0.823974	0.000097
 231	2.2885e+01	4.5824	41.881246	0.000405	4.053284	0.686645	0.000081
 232	2.2985e+01	4.6018	42.030620	0.000750	7.498576	1.270293	0.000150
 233	2.3084e+01	4.6221	42.115400	0.000426	4.255948	0.720977	0.000085
 234	2.3183e+01	4.6418	42.208254	0.000466	4.661277	0.789642	0.000093
 235	2.3283e+01	4.6615	42.333405	0.000628	6.282591	1.064300	0.000126
 236	2.3383e+01	4.6819	42.393962	0.000304	3.039963	0.514984	0.000061
 237	2.3482e+01	4.7018	42.551411	0.000790	7.903904	1.338958	0.000158
 238	2.3581e+01	4.7228	42.644265	0.000466	4.661277	0.789642	0.000093
 239	2.3681e+01	4.7410	42.753267	0.000547	5.471934	0.926971	0.000110
 240	2.3780e+01	4.7613	42.906679	0.000770	7.701240	1.304625	0.000154
 241	2.3880e+01	4.7811	42.963199	0.000284	2.837299	0.480651	0.000057
 242	2.3980e+01	4.8013	43.043941	0.000405	4.053284	0.686645	0.000081
 243	2.4079e+01	4.8206	43.148907	0.000527	5.269270	0.892638	0.000105
 244	2.4178e+01	4.8418	43.253872	0.000527	5.269270	0.892638	0.000105
 245	2.4278e+01	4.8614	43.350764	0.000486	4.863941	0.823974	0.000097
 246	2.4378e+01	4.8815	43.475915	0.000628	6.282591	1.064300	0.000126
 247	2.4477e+01	4.9007	43.560695	0.000426	4.255948	0.720977	0.000085
 248	2.4576e+01	4.9215	43.697957	0.000689	6.890583	1.167296	0.000138
 249	2.4676e+01	4.9413	43.819071	0.000608	6.079926	1.029967	0.000122
 250	2.4776e+01	4.9609	43.911925	0.000466	4.661277	0.789642	0.000093
 251	2.4875e+01	4.9805	43.972482	0.000304	3.039963	0.514984	0.000061
 252	2.4974e+01	5.0007	44.113782	0.000709	7.093247	1.201629	0.000142
 253	2.5074e+01	5.0201	44.202599	0.000446	4.458613	0.755309	0.000089
 254	2.5174e+01	5.0404	44.311602	0.000547	5.471934	0.926971	0.000110
 255	2.5273e+01	5.0599	44.424642	0.000567	5.674598	0.961303	0.000114
 256	2.5372e+01	5.0799	44.489236	0.000324	3.242627	0.549316	0.000065
 257	2.5472e+01	5.1009	44.618424	0.000649	6.485255	1.098632	0.000130
 258	2.5572e+01	5.1198	44.683018	0.000324	3.242627	0.549316	0.000065
 259	2.5671e+01	5.1391	44.792021	0.000547	5.471934	0.926971	0.000110
 260	2.5770e+01	5.1594	44.880838	0.000446	4.458613	0.755309	0.000089
 261	2.5870e+01	5.1807	44.989841	0.000547	5.471934	0.926971	0.000110
 262	2.5970e+01	5.1994	45.139215	0.000750	7.498576	1.270293	0.000150
 263	2.6069e+01	5.2199	45.244180	0.000527	5.269270	0.892638	0.000105
 264	2.6169e+01	5.2402	45.332997	0.000446	4.458613	0.755309	0.000089
 265	2.6268e+01	5.2615	45.421814	0.000446	4.458613	0.755309	0.000089
 266	2.6367e+01	5.2798	45.522743	0.000507	5.066605	0.858306	0.000101
 267	2.6467e+01	5.2987	45.599448	0.000385	3.850620	0.652313	0.000077
 268	2.6567e+01	5.3185	45.684228	0.000426	4.255948	0.720977	0.000085
 269	2.6666e+01	5.3394	45.829565	0.000730	7.295912	1.235961	0.000146
 270	2.6765e+01	5.3579	45.906270	0.000385	3.850620	0.652313	0.000077
 271	2.6865e+01	5.3793	46.003162	0.000486	4.863941	0.823974	0.000097
 272	2.6965e+01	5.3988	46.128313	0.000628	6.282591	1.064300	0.000126
 273	2.7064e+01	5.4195	46.229241	0.000507	5.066605	0.858306	0.000101
 274	2.7163e+01	5.4385	46.326133	0.000486	4.863941	0.823974	0.000097
 275	2.7263e+01	5.4588	46.423024	0.000486	4.863941	0.823974	0.000097
 276	2.7363e+01	5.4786	46.515878	0.000466	4.661277	0.789642	0.000093
 277	2.7462e+01	5.4996	46.616806	0.000507	5.066605	0.858306	0.000101
 278	2.7561e+01	5.5181	46.705623	0.000446	4.458613	0.755309	0.000089
 279	2.7661e+01	5.5389	46.830775	0.000628	6.282591	1.064300	0.000126
 280	2.7761e+01	5.5575	46.911517	0.000405	4.053284	0.686645	0.000081
 281	2.7860e+01	5.5785	47.048780	0.000689	6.890583	1.167296	0.000138
 282	2.7959e+01	5.5984	47.141634	0.000466	4.661277	0.789642	0.000093
 283	2.8059e+01	5.6182	47.246600	0.000527	5.269270	0.892638	0.000105
 284	2.8159e+01	5.6387	47.323305	0.000385	3.850620	0.652313	0.000077
 285	2.8258e+01	5.6584	47.416159	0.000466	4.661277	0.789642	0.000093
 286	2.8358e+01	5.6786	47.492865	0.000385	3.850620	0.652313	0.000077
 287	2.8457e+01	5.6976	47.630127	0.000689	6.890583	1.167296	0.000138
 288	2.8556e+01	5.7184	47.722982	0.000466	4.661277	0.789642	0.000093
 289	2.8656e+01	5.7378	47.831984	0.000547	5.471934	0.926971	0.000110
 290	2.8756e+01	5.7574	47.936950	0.000527	5.269270	0.892638	0.000105
 291	2.8855e+01	5.7780	47.977321	0.000203	2.026642	0.343322	0.000041
 292	2.8954e+01	5.7970	48.142844	0.000831	8.309233	1.407622	0.000166
 293	2.9054e+01	5.8175	48.231661	0.000446	4.458613	0.755309	0.000089
 294	2.9154e+01	5.8379	48.348738	0.000588	5.877262	0.995635	0.000118
 295	2.9253e+01	5.8569	48.397183	0.000243	2.431971	0.411987	0.000049
 296	2.9352e+01	5.8778	48.506186	0.000547	5.471934	0.926971	0.000110
 297	2.9452e+01	5.8971	48.566743	0.000304	3.039963	0.514984	0.000061
 298	2.9552e+01	5.9171	48.683820	0.000588	5.877262	0.995635	0.000118
 299	2.9651e+01	5.9371	48.776674	0.000466	4.661277	0.789642	0.000093
 300	2.9750e+01	5.9570	48.873565	0.000486	4.863941	0.823974	0.000097
 301	2.9850e+01	5.9779	48.938159	0.000324	3.242627	0.549316	0.000065
 302	2.9950e+01	5.9966	49.047162	0.000547	5.471934	0.926971	0.000110
 303	3.0049e+01	6.0162	49.204610	0.000790	7.903904	1.338958	0.000158
 304	3.0148e+01	6.0366	49.253056	0.000243	2.431971	0.411987	0.000049
 305	3.0248e+01	6.0563	49.353984	0.000507	5.066605	0.858306	0.000101
 306	3.0348e+01	6.0772	49.450876	0.000486	4.863941	0.823974	0.000097
 307	3.0447e+01	6.0961	49.555841	0.000527	5.269270	0.892638	0.000105
 308	3.0547e+01	6.1160	49.620435	0.000324	3.242627	0.549316	0.000065
 309	3.0646e+01	6.1362	49.697141	0.000385	3.850620	0.652313	0.000077
 310	3.0745e+01	6.1559	49.798069	0.000507	5.066605	0.858306	0.000101
 311	3.0845e+01	6.1761	49.894961	0.000486	4.863941	0.823974	0.000097
 312	3.0945e+01	6.1964	49.975703	0.000405	4.053284	0.686645	0.000081
 313	3.1044e+01	6.2164	50.088743	0.000567	5.674598	0.961303	0.000114
 314	3.1143e+01	6.2354	50.145263	0.000284	2.837299	0.480651	0.000057
 315	3.1243e+01	6.2557	50.262340	0.000588	5.877262	0.995635	0.000118
 316	3.1343e+01	6.2749	50.359231	0.000486	4.863941	0.823974	0.000097
 317	3.1442e+01	6.2957	50.427863	0.000345	3.445292	0.583648	0.000069
 318	3.1541e+01	6.3135	50.500531	0.000365	3.647956	0.617980	0.000073
 319	3.1641e+01	6.3348	50.621645	0.000608	6.079926	1.029967	0.000122
 320	3.1741e+01	6.3541	50.722573	0.000507	5.066605	0.858306	0.000101
 321	3.1840e+01	6.3749	50.803316	0.000405	4.053284	0.686645	0.000081
 322	3.1939e+01	6.3955	50.904245	0.000507	5.066605	0.858306	0.000101
 323	3.2039e+01	6.4159	50.989024	0.000426	4.255948	0.720977	0.000085
 324	3.2139e+01	6.4342	51.053619	0.000324	3.242627	0.549316	0.000065
 325	3.2238e+01	6.4558	51.142436	0.000446	4.458613	0.755309	0.000089
 326	3.2337e+01	6.4746	51.287772	0.000730	7.295912	1.235961	0.000146
 327	3.2437e+01	6.4935	51.368515	0.000405	4.053284	0.686645	0.000081
 328	3.2536e+01	6.5147	51.465406	0.000486	4.863941	0.823974	0.000097
 329	3.2636e+01	6.5350	51.517889	0.000263	2.634635	0.446319	0.000053
 330	3.2736e+01	6.5545	51.634966	0.000588	5.877262	0.995635	0.000118
 331	3.2835e+01	6.5739	51.719746	0.000426	4.255948	0.720977	0.000085
 332	3.2934e+01	6.5945	51.784340	0.000324	3.242627	0.549316	0.000065
 333	3.3034e+01	6.6135	51.929677	0.000730	7.295912	1.235961	0.000146
 334	3.3133e+01	6.6337	52.038680	0.000547	5.471934	0.926971	0.000110
 335	3.3233e+01	6.6540	52.075014	0.000182	1.823978	0.308990	0.000037
 336	3.3333e+01	6.6740	52.155757	0.000405	4.053284	0.686645	0.000081
 337	3.3432e+01	6.6932	52.309168	0.000770	7.701240	1.304625	0.000154
 338	3.3532e+01	6.7139	52.353576	0.000223	2.229306	0.377655	0.000045
 339	3.3631e+01	6.7345	52.418170	0.000324	3.242627	0.549316	0.000065
 340	3.3730e+01	6.7522	52.547359	0.000649	6.485255	1.098632	0.000130
 341	3.3830e+01	6.7738	52.668473	0.000608	6.079926	1.029967	0.000122
 342	3.3929e+01	6.7937	52.724993	0.000284	2.837299	0.480651	0.000057
 343	3.4029e+01	6.8131	52.809773	0.000426	4.255948	0.720977	0.000085
 344	3.4129e+01	6.8334	52.914738	0.000527	5.269270	0.892638	0.000105
 345	3.4228e+01	6.8534	53.003555	0.000446	4.458613	0.755309	0.000089
 346	3.4328e+01	6.8732	53.060075	0.000284	2.837299	0.480651	0.000057
 347	3.4427e+01	6.8923	53.169078	0.000547	5.471934	0.926971	0.000110
 348	3.4526e+01	6.9124	53.249820	0.000405	4.053284	0.686645	0.000081
 349	3.4626e+01	6.9329	53.362860	0.000567	5.674598	0.961303	0.000114
 350	3.4725e+01	6.9532	53.439566	0.000385	3.850620	0.652313	0.000077
 351	3.4825e+01	6.9722	53.528383	0.000446	4.458613	0.755309	0.000089
 352	3.4925e+01	6.9920	53.629311	0.000507	5.066605	0.858306	0.000101
 353	3.5024e+01	7.0121	53.685831	0.000284	2.837299	0.480651	0.000057
 354	3.5123e+01	7.0328	53.802908	0.000588	5.877262	0.995635	0.000118
 355	3.5223e+01	7.0516	53.883651	0.000405	4.053284	0.686645	0.000081
 356	3.5322e+01	7.0718	53.980542	0.000486	4.863941	0.823974	0.000097
 357	3.5422e+01	7.0912	54.053210	0.000365	3.647956	0.617980	0.000073
 358	3.5522e+01	7.1127	54.105693	0.000263	2.634635	0.446319	0.000053
 359	3.5621e+01	7.1315	54.255067	0.000750	7.498576	1.270293	0.000150
 360	3.5721e+01	7.1510	54.327736	0.000365	3.647956	0.617980	0.000073
 361	3.5820e+01	7.1708	54.416553	0.000446	4.458613	0.755309	0.000089
 362	3.5919e+01	7.1917	54.477110	0.000304	3.039963	0.514984	0.000061
 363	3.6019e+01	7.2109	54.578038	0.000507	5.066605	0.858306	0.000101
 364	3.6118e+01	7.2318	54.715301	0.000689	6.890583	1.167296	0.000138
 365	3.6218e+01	7.2512	54.792006	0.000385	3.850620	0.652313	0.000077
 366	3.6318e+01	7.2709	54.872749	0.000405	4.053284	0.686645	0.000081
 367	3.6417e+01	7.2913	54.933306	0.000304	3.039963	0.514984	0.000061
 368	3.6517e+01	7.3113	55.001937	0.000345	3.445292	0.583648	0.000069
 369	3.6616e+01	7.3321	55.106903	0.000527	5.269270	0.892638	0.000105
 370	3.6715e+01	7.3507	55.179571	0.000365	3.647956	0.617980	0.000073
 371	3.6815e+01	7.3707	55.288574	0.000547	5.471934	0.926971	0.000110
 372	3.6914e+01	7.3914	55.405651	0.000588	5.877262	0.995635	0.000118
 373	3.7014e+01	7.4100	55.474282	0.000345	3.445292	0.583648	0.000069
 374	3.7114e+01	7.4316	55.546951	0.000365	3.647956	0.617980	0.000073
 375	3.7213e+01	7.4512	55.607508	0.000304	3.039963	0.514984	0.000061
 376	3.7313e+01	7.4708	55.716510	0.000547	5.471934	0.926971	0.000110
 377	3.7412e+01	7.4911	55.801290	0.000426	4.255948	0.720977	0.000085
 378	3.7511e+01	7.5105	55.902219	0.000507	5.066605	0.858306	0.000101
 379	3.7611e+01	7.5298	55.974887	0.000365	3.647956	0.617980	0.000073
 380	3.7711e+01	7.5503	56.063704	0.000446	4.458613	0.755309	0.000089
 381	3.7810e+01	7.5710	56.188855	0.000628	6.282591	1.064300	0.000126
 382	3.7910e+01	7.5900	56.249412	0.000304	3.039963	0.514984	0.000061
 383	3.8009e+01	7.6091	56.309969	0.000304	3.039963	0.514984	0.000061
 384	3.8108e+01	7.6293	56.443195	0.000669	6.687919	1.132964	0.000134
 385	3.8208e+01	7.6499	56.479529	0.000182	1.823978	0.308990	0.000037
 386	3.8307e+01	7.6693	56.596606	0.000588	5.877262	0.995635	0.000118
 387	3.8407e+01	7.6895	56.701571	0.000527	5.269270	0.892638	0.000105
 388	3.8507e+01	7.7093	56.786351	0.000426	4.255948	0.720977	0.000085
 389	3.8606e+01	7.7295	56.891317	0.000527	5.269270	0.892638	0.000105
 390	3.8706e+01	7.7490	56.955911	0.000324	3.242627	0.549316	0.000065
 391	3.8805e+01	7.7693	57.040691	0.000426	4.255948	0.720977	0.000085
 392	3.8904e+01	7.7895	57.153731	0.000567	5.674598	0.961303	0.000114
 393	3.9004e+01	7.8101	57.198139	0.000223	2.229306	0.377655	0.000045
 394	3.9103e+01	7.8293	57.315216	0.000588	5.877262	0.995635	0.000118
 395	3.9203e+01	7.8488	57.436330	0.000608	6.079926	1.029967	0.000122
 396	3.9303e+01	7.8680	57.521110	0.000426	4.255948	0.720977	0.000085
 397	3.9402e+01	7.8883	57.545333	0.000122	1.215985	0.205993	0.000024
 398	3.9502e+01	7.9078	57.658373	0.000567	5.674598	0.961303	0.000114
 399	3.9601e+01	7.9285	57.755264	0.000486	4.863941	0.823974	0.000097
 400	3.9700e+01	7.9487	57.811784	0.000284	2.837299	0.480651	0.000057
 401	3.9800e+01	7.9682	57.928861	0.000588	5.877262	0.995635	0.000118
 402	3.9900e+01	7.9887	58.029789	0.000507	5.066605	0.858306	0.000101
 403	3.9999e+01	8.0083	58.114569	0.000426	4.255948	0.720977	0.000085
 404	4.0099e+01	8.0280	58.183200	0.000345	3.445292	0.583648	0.000069
 405	4.0198e+01	8.0475	58.288166	0.000527	5.269270	0.892638	0.000105
 406	4.0297e+01	8.0679	58.385057	0.000486	4.863941	0.823974	0.000097
 407	4.0397e+01	8.0885	58.437540	0.000263	2.634635	0.446319	0.000053
 408	4.0496e+01	8.1084	58.542505	0.000527	5.269270	0.892638	0.000105
 409	4.0596e+01	8.1280	58.635359	0.000466	4.661277	0.789642	0.000093
 410	4.0696e+01	8.1470	58.732251	0.000486	4.863941	0.823974	0.000097
 411	4.0795e+01	8.1670	58.792808	0.000304	3.039963	0.514984	0.000061
 412	4.0895e+01	8.1870	58.885662	0.000466	4.661277	0.789642	0.000093
 413	4.0994e+01	8.2080	58.990627	0.000527	5.269270	0.892638	0.000105
 414	4.1093e+01	8.2272	59.055222	0.000324	3.242627	0.549316	0.000065
 415	4.1193e+01	8.2475	59.148076	0.000466	4.661277	0.789642	0.000093
 416	4.1292e+01	8.2668	59.269190	0.000608	6.079926	1.029967	0.000122
 417	4.1392e+01	8.2868	59.293413	0.000122	1.215985	0.205993	0.000024
 418	4.1492e+01	8.3070	59.398378	0.000527	5.269270	0.892638	0.000105
 419	4.1591e+01	8.3263	59.503344	0.000527	5.269270	0.892638	0.000105
 420	4.1691e+01	8.3469	59.604272	0.000507	5.066605	0.858306	0.000101
 421	4.1790e+01	8.3671	59.660792	0.000284	2.837299	0.480651	0.000057
 422	4.1889e+01	8.3863	59.729423	0.000345	3.445292	0.583648	0.000069
 423	4.1989e+01	8.4060	59.850537	0.000608	6.079926	1.029967	0.000122
 424	4.2089e+01	8.4267	59.931280	0.000405	4.053284	0.686645	0.000081
 425	4.2188e+01	8.4467	59.971651	0.000203	2.026642	0.343322	0.000041
 426	4.2288e+01	8.4663	60.072580	0.000507	5.066605	0.858306	0.000101
 427	4.2387e+01	8.4863	60.149285	0.000385	3.850620	0.652313	0.000077
 428	4.2486e+01	8.5059	60.242139	0.000466	4.661277	0.789642	0.000093
 429	4.2586e+01	8.5255	60.334994	0.000466	4.661277	0.789642	0.000093
 430	4.2685e+01	8.5462	60.403625	0.000345	3.445292	0.583648	0.000069
 431	4.2785e+01	8.5668	60.464182	0.000304	3.039963	0.514984	0.000061
 432	4.2885e+01	8.5855	60.589333	0.000628	6.282591	1.064300	0.000126
 433	4.2984e+01	8.6054	60.662002	0.000365	3.647956	0.617980	0.000073
 434	4.3084e+01	8.6266	60.762930	0.000507	5.066605	0.858306	0.000101
 435	4.3183e+01	8.6457	60.843673	0.000405	4.053284	0.686645	0.000081
 436	4.3282e+01	8.6666	60.912304	0.000345	3.445292	0.583648	0.000069
 437	4.3382e+01	8.6855	60.984972	0.000365	3.647956	0.617980	0.000073
 438	4.3481e+01	8.7052	61.081864	0.000486	4.863941	0.823974	0.000097
 439	4.3581e+01	8.7250	61.174718	0.000466	4.661277	0.789642	0.000093
 440	4.3681e+01	8.7444	61.223163	0.000243	2.431971	0.411987	0.000049
 441	4.3780e+01	8.7653	61.340240	0.000588	5.877262	0.995635	0.000118
 442	4.3880e+01	8.7855	61.392723	0.000263	2.634635	0.446319	0.000053
 443	4.3979e+01	8.8054	61.493652	0.000507	5.066605	0.858306	0.000101
 444	4.4078e+01	8.8255	61.618803	0.000628	6.282591	1.064300	0.000126
 445	4.4178e+01	8.8438	61.638988	0.000101	1.013321	0.171661	0.000020
 446	4.4278e+01	8.8648	61.731843	0.000466	4.661277	0.789642	0.000093
 447	4.4377e+01	8.8839	61.808548	0.000385	3.850620	0.652313	0.000077
 448	4.4477e+01	8.9045	61.913514	0.000527	5.269270	0.892638	0.000105
 449	4.4576e+01	8.9243	62.018479	0.000527	5.269270	0.892638	0.000105
 450	4.4675e+01	8.9442	62.074999	0.000284	2.837299	0.480651	0.000057
 451	4.4775e+01	8.9629	62.163816	0.000446	4.458613	0.755309	0.000089
 452	4.4874e+01	8.9844	62.232447	0.000345	3.445292	0.583648	0.000069
 453	4.4974e+01	9.0039	62.329339	0.000486	4.863941	0.823974	0.000097
 454	4.5074e+01	9.0237	62.414119	0.000426	4.255948	0.720977	0.000085
 455	4.5173e+01	9.0427	62.498898	0.000426	4.255948	0.720977	0.000085
 456	4.5273e+01	9.0638	62.575604	0.000385	3.850620	0.652313	0.000077
 457	4.5372e+01	9.0836	62.660384	0.000426	4.255948	0.720977	0.000085
 458	4.5471e+01	9.1028	62.745164	0.000426	4.255948	0.720977	0.000085
 459	4.5571e+01	9.1230	62.846092	0.000507	5.066605	0.858306	0.000101
 460	4.5670e+01	9.1430	62.874352	0.000142	1.418649	0.240326	0.000028
 461	4.5770e+01	9.1590	62.979318	0.000527	5.269270	0.892638	0.000105
 462	4.5870e+01	9.1824	63.056023	0.000385	3.850620	0.652313	0.000077
 463	4.5969e+01	9.2022	63.144840	0.000446	4.458613	0.755309	0.000089
 464	4.6069e+01	9.2225	63.237694	0.000466	4.661277	0.789642	0.000093
 465	4.6168e+01	9.2420	63.318437	0.000405	4.053284	0.686645	0.000081
 466	4.6267e+01	9.2620	63.399180	0.000405	4.053284	0.686645	0.000081
 467	4.6367e+01	9.2815	63.459737	0.000304	3.039963	0.514984	0.000061
 468	4.6467e+01	9.3027	63.524331	0.000324	3.242627	0.549316	0.000065
 469	4.6566e+01	9.3227	63.605074	0.000405	4.053284	0.686645	0.000081
 470	4.6666e+01	9.3422	63.710039	0.000527	5.269270	0.892638	0.000105
 471	4.6765e+01	9.3628	63.774633	0.000324	3.242627	0.549316	0.000065
 472	4.6864e+01	9.3826	63.847302	0.000365	3.647956	0.617980	0.000073
 473	4.6964e+01	9.4028	63.932082	0.000426	4.255948	0.720977	0.000085
 474	4.7063e+01	9.4222	64.000713	0.000345	3.445292	0.583648	0.000069
 475	4.7163e+01	9.4427	64.065307	0.000324	3.242627	0.549316	0.000065
 476	4.7263e+01	9.4613	64.178347	0.000567	5.674598	0.961303	0.000114
 477	4.7362e+01	9.4815	64.234867	0.000284	2.837299	0.480651	0.000057
 478	4.7462e+01	9.5020	64.323684	0.000446	4.458613	0.755309	0.000089
 479	4.7561e+01	9.5219	64.360018	0.000182	1.823978	0.308990	0.000037
 480	4.7660e+01	9.5415	64.456909	0.000486	4.863941	0.823974	0.000097
 481	4.7760e+01	9.5608	64.521503	0.000324	3.242627	0.549316	0.000065
 482	4.7859e+01	9.5812	64.610320	0.000446	4.458613	0.755309	0.000089
 483	4.7959e+01	9.6008	64.707212	0.000486	4.863941	0.823974	0.000097
 484	4.8059e+01	9.6212	64.767769	0.000304	3.039963	0.514984	0.000061
 485	4.8158e+01	9.6404	64.852548	0.000426	4.255948	0.720977	0.000085
 486	4.8258e+01	9.6614	64.917143	0.000324	3.242627	0.549316	0.000065
 487	4.8357e+01	9.6798	65.018071	0.000507	5.066605	0.858306	0.000101
 488	4.8456e+01	9.7002	65.062480	0.000223	2.229306	0.377655	0.000045
 489	4.8556e+01	9.7217	65.191668	0.000649	6.485255	1.098632	0.000130
 490	4.8656e+01	9.7396	65.276448	0.000426	4.255948	0.720977	0.000085
 491	4.8755e+01	9.7601	65.328931	0.000263	2.634635	0.446319	0.000053
 492	4.8855e+01	9.7803	65.365265	0.000182	1.823978	0.308990	0.000037
 493	4.8954e+01	9.8003	65.454082	0.000446	4.458613	0.755309	0.000089
 494	4.9053e+01	9.8197	65.506564	0.000263	2.634635	0.446319	0.000053
 495	4.9153e+01	9.8395	65.595381	0.000446	4.458613	0.755309	0.000089
 496	4.9252e+01	9.8597	65.716496	0.000608	6.079926	1.029967	0.000122
 497	4.9352e+01	9.8804	65.752830	0.000182	1.823978	0.308990	0.000037
 498	4.9452e+01	9.9001	65.841647	0.000446	4.458613	0.755309	0.000089
 499	4.9551e+01	9.9204	65.910278	0.000345	3.445292	0.583648	0.000069
 500	4.9651e+01	9.9389	66.011206	0.000507	5.066605	0.858306	0.000101
 501	4.9750e+01	9.9601	66.071763	0.000304	3.039963	0.514984	0.000061
 502	4.9849e+01	9.9796	66.156543	0.000426	4.255948	0.720977	0.000085
 503	4.9949e+01	9.9999	66.229212	0.000365	3.647956	0.617980	0.000073
 504	5.0048e+01	9.9789	66.156543	0.000365	3.647956	0.617980	-0.000073
 505	5.0148e+01	9.9593	66.087912	0.000345	3.445292	0.583648	-0.000069
 506	5.0248e+01	9.9393	66.075801	0.000061	0.607993	0.102997	-0.000012
 507	5.0347e+01	9.9195	65.995058	0.000405	4.053284	0.686645	-0.000081
 508	5.0447e+01	9.9004	65.938538	0.000284	2.837299	0.480651	-0.000057
 509	5.0546e+01	9.8800	65.873944	0.000324	3.242627	0.549316	-0.000065
 510	5.0645e+01	9.8597	65.805313	0.000345	3.445292	0.583648	-0.000069
 511	5.0745e+01	9.8402	65.732644	0.000365	3.647956	0.617980	-0.000073
 512	5.0844e+01	9.8212	65.680161	0.000263	2.634635	0.446319	-0.000053
 513	5.0944e+01	9.7999	65.643827	0.000182	1.823978	0.308990	-0.000037
 514	5.1044e+01	9.7803	65.546936	0.000486	4.863941	0.823974	-0.000097
 515	5.1143e+01	9.7607	65.502527	0.000223	2.229306	0.377655	-0.000045
 516	5.1242e+01	9.7405	65.401599	0.000507	5.066605	0.858306	-0.000101
 517	5.1342e+01	9.7217	65.369302	0.000162	1.621314	0.274658	-0.000032
 518	5.1441e+01	9.6999	65.296633	0.000365	3.647956	0.617980	-0.000073
 519	5.1541e+01	9.6806	65.252225	0.000223	2.229306	0.377655	-0.000045
 520	5.1641e+01	9.6613	65.171482	0.000405	4.053284	0.686645	-0.000081
 521	5.1740e+01	9.6404	65.118999	0.000263	2.634635	0.446319	-0.000053
 522	5.1840e+01	9.6203	65.082665	0.000182	1.823978	0.308990	-0.000037
 523	5.1939e+01	9.6014	64.997885	0.000426	4.255948	0.720977	-0.000085
 524	5.2038e+01	9.5812	64.941365	0.000284	2.837299	0.480651	-0.000057
 525	5.2138e+01	9.5614	64.820251	0.000608	6.079926	1.029967	-0.000122
 526	5.2237e+01	9.5406	64.787954	0.000162	1.621314	0.274658	-0.000032
 527	5.2337e+01	9.5219	64.703174	0.000426	4.255948	0.720977	-0.000085
 528	5.2437e+01	9.5005	64.654729	0.000243	2.431971	0.411987	-0.000049
 529	5.2536e+01	9.4827	64.557838	0.000486	4.863941	0.823974	-0.000097
 530	5.2636e+01	9.4613	64.509392	0.000243	2.431971	0.411987	-0.000049
 531	5.2735e+01	9.4415	64.436724	0.000365	3.647956	0.617980	-0.000073
 532	5.2834e+01	9.4221	64.392315	0.000223	2.229306	0.377655	-0.000045
 533	5.2934e+01	9.4022	64.307535	0.000426	4.255948	0.720977	-0.000085
 534	5.3033e+01	9.3825	64.206607	0.000507	5.066605	0.858306	-0.000101
 535	5.3133e+01	9.3629	64.166235	0.000203	2.026642	0.343322	-0.000041
 536	5.3233e+01	9.3431	64.085493	0.000405	4.053284	0.686645	-0.000081
 537	5.3332e+01	9.3221	64.020899	0.000324	3.242627	0.549316	-0.000065
 538	5.3431e+01	9.3018	63.976490	0.000223	2.229306	0.377655	-0.000045
 539	5.3531e+01	9.2829	63.891710	0.000426	4.255948	0.720977	-0.000085
 540	5.3630e+01	9.2622	63.819042	0.000365	3.647956	0.617980	-0.000073
 541	5.3730e+01	9.2422	63.786745	0.000162	1.621314	0.274658	-0.000032
 542	5.3830e+01	9.2223	63.685816	0.000507	5.066605	0.858306	-0.000101
 543	5.3929e+01	9.2035	63.657556	0.000142	1.418649	0.240326	-0.000028
 544	5.4029e+01	9.1819	63.588925	0.000345	3.445292	0.583648	-0.000069
 545	5.4128e+01	9.1637	63.492034	0.000486	4.863941	0.823974	-0.000097
 546	5.4227e+01	9.1422	63.423402	0.000345	3.445292	0.583648	-0.000069
 547	5.4327e+01	9.1235	63.342660	0.000405	4.053284	0.686645	-0.000081
 548	5.4426e+01	9.1031	63.282103	0.000304	3.039963	0.514984	-0.000061
 549	5.4526e+01	9.0841	63.229620	0.000263	2.634635	0.446319	-0.000053
 550	5.4626e+01	9.0631	63.144840	0.000426	4.255948	0.720977	-0.000085
 551	5.4725e+01	9.0437	63.100432	0.000223	2.229306	0.377655	-0.000045
 552	5.4825e+01	9.0243	63.043912	0.000284	2.837299	0.480651	-0.000057
 553	5.4924e+01	9.0031	62.942983	0.000507	5.066605	0.858306	-0.000101
 554	5.5023e+01	8.9832	62.878389	0.000324	3.242627	0.549316	-0.000065
 555	5.5123e+01	8.9639	62.793609	0.000426	4.255948	0.720977	-0.000085
 556	5.5222e+01	8.9431	62.753238	0.000203	2.026642	0.343322	-0.000041
 557	5.5322e+01	8.9239	62.672495	0.000405	4.053284	0.686645	-0.000081
 558	5.5422e+01	8.9038	62.620012	0.000263	2.634635	0.446319	-0.000053
 559	5.5521e+01	8.8836	62.583678	0.000182	1.823978	0.308990	-0.000037
 560	5.5620e+01	8.8634	62.511010	0.000365	3.647956	0.617980	-0.000073
 561	5.5720e+01	8.8447	62.438341	0.000365	3.647956	0.617980	-0.000073
 562	5.5819e+01	8.8248	62.361636	0.000385	3.850620	0.652313	-0.000077
 563	5.5919e+01	8.8050	62.297042	0.000324	3.242627	0.549316	-0.000065
 564	5.6019e+01	8.7853	62.232447	0.000324	3.242627	0.549316	-0.000065
 565	5.6118e+01	8.7653	62.147668	0.000426	4.255948	0.720977	-0.000085
 566	5.6218e+01	8.7446	62.083073	0.000324	3.242627	0.549316	-0.000065
 567	5.6317e+01	8.7257	61.978108	0.000527	5.269270	0.892638	-0.000105
 568	5.6416e+01	8.7052	61.937736	0.000203	2.026642	0.343322	-0.000041
 569	5.6516e+01	8.6858	61.865068	0.000365	3.647956	0.617980	-0.000073
 570	5.6615e+01	8.6655	61.800474	0.000324	3.242627	0.549316	-0.000065
 571	5.6715e+01	8.6446	61.735880	0.000324	3.242627	0.549316	-0.000065
 572	5.6815e+01	8.6250	61.659174	0.000385	3.850620	0.652313	-0.000077
 573	5.6914e+01	8.6065	61.598617	0.000304	3.039963	0.514984	-0.000061
 574	5.7014e+01	8.5863	61.525949	0.000365	3.647956	0.617980	-0.000073
 575	5.7113e+01	8.5664	61.457317	0.000345	3.445292	0.583648	-0.000069
 576	5.7212e+01	8.5458	61.360426	0.000486	4.863941	0.823974	-0.000097
 577	5.7312e+01	8.5271	61.324092	0.000182	1.823978	0.308990	-0.000037
 578	5.7411e+01	8.5052	61.247386	0.000385	3.850620	0.652313	-0.000077
 579	5.7511e+01	8.4859	61.223163	0.000122	1.215985	0.205993	-0.000024
 580	5.7611e+01	8.4669	61.102049	0.000608	6.079926	1.029967	-0.000122
 581	5.7710e+01	8.4461	61.029381	0.000365	3.647956	0.617980	-0.000073
 582	5.7809e+01	8.4269	60.940564	0.000446	4.458613	0.755309	-0.000089
 583	5.7909e+01	8.4072	60.884044	0.000284	2.837299	0.480651	-0.000057
 584	5.8008e+01	8.3863	60.811376	0.000365	3.647956	0.617980	-0.000073
 585	5.8108e+01	8.3669	60.750819	0.000304	3.039963	0.514984	-0.000061
 586	5.8208e+01	8.3474	60.666039	0.000426	4.255948	0.720977	-0.000085
 587	5.8307e+01	8.3265	60.581259	0.000426	4.255948	0.720977	-0.000085
 588	5.8407e+01	8.3071	60.512628	0.000345	3.445292	0.583648	-0.000069
 589	5.8506e+01	8.2874	60.435922	0.000385	3.850620	0.652313	-0.000077
 590	5.8605e+01	8.2671	60.407662	0.000142	1.418649	0.240326	-0.000028
 591	5.8705e+01	8.2476	60.326919	0.000405	4.053284	0.686645	-0.000081
 592	5.8804e+01	8.2272	60.221954	0.000527	5.269270	0.892638	-0.000105
 593	5.8904e+01	8.2066	60.197731	0.000122	1.215985	0.205993	-0.000024
 594	5.9004e+01	8.1878	60.108914	0.000446	4.458613	0.755309	-0.000089
 595	5.9103e+01	8.1672	60.003948	0.000527	5.269270	0.892638	-0.000105
 596	5.9203e+01	8.1481	59.939354	0.000324	3.242627	0.549316	-0.000065
 597	5.9302e+01	8.1275	59.870723	0.000345	3.445292	0.583648	-0.000069
 598	5.9401e+01	8.1083	59.830352	0.000203	2.026642	0.343322	-0.000041
 599	5.9501e+01	8.0882	59.713275	0.000588	5.877262	0.995635	-0.000118
 600	5.9600e+01	8.0672	59.628495	0.000426	4.255948	0.720977	-0.000085
 601	5.9700e+01	8.0486	59.596198	0.000162	1.621314	0.274658	-0.000032
 602	5.9800e+01	8.0285	59.535641	0.000304	3.039963	0.514984	-0.000061
 603	5.9899e+01	8.0079	59.458935	0.000385	3.850620	0.652313	-0.000077
 604	5.9998e+01	7.9883	59.370118	0.000446	4.458613	0.755309	-0.000089
 605	6.0098e+01	7.9688	59.273227	0.000486	4.863941	0.823974	-0.000097
 606	6.0197e+01	7.9482	59.188447	0.000426	4.255948	0.720977	-0.000085
 607	6.0297e+01	7.9287	59.135964	0.000263	2.634635	0.446319	-0.000053
 608	6.0397e+01	7.9093	59.063296	0.000365	3.647956	0.617980	-0.000073
 609	6.0496e+01	7.8887	58.998702	0.000324	3.242627	0.549316	-0.000065
 610	6.0596e+01	7.8692	58.913922	0.000426	4.255948	0.720977	-0.000085
 611	6.0695e+01	7.8480	58.845291	0.000345	3.445292	0.583648	-0.000069
 612	6.0794e+01	7.8280	58.760511	0.000426	4.255948	0.720977	-0.000085
 613	6.0894e+01	7.8095	58.663619	0.000486	4.863941	0.823974	-0.000097
 614	6.0993e+01	7.7895	58.594988	0.000345	3.445292	0.583648	-0.000069
 615	6.1093e+01	7.7699	58.518283	0.000385	3.850620	0.652313	-0.000077
 616	6.1193e+01	7.7491	58.477911	0.000203	2.026642	0.343322	-0.000041
 617	6.1292e+01	7.7290	58.385057	0.000466	4.661277	0.789642	-0.000093
 618	6.1392e+01	7.7090	58.324500	0.000304	3.039963	0.514984	-0.000061
 619	6.1491e+01	7.6894	58.267980	0.000284	2.837299	0.480651	-0.000057
 620	6.1590e+01	7.6690	58.142829	0.000628	6.282591	1.064300	-0.000126
 621	6.1690e+01	7.6507	58.082272	0.000304	3.039963	0.514984	-0.000061
 622	6.1789e+01	7.6307	58.021715	0.000304	3.039963	0.514984	-0.000061
 623	6.1889e+01	7.6087	57.953084	0.000345	3.445292	0.583648	-0.000069
 624	6.1989e+01	7.5894	57.856192	0.000486	4.863941	0.823974	-0.000097
 625	6.2088e+01	7.5715	57.787561	0.000345	3.445292	0.583648	-0.000069
 626	6.2188e+01	7.5491	57.682595	0.000527	5.269270	0.892638	-0.000105
 627	6.2287e+01	7.5298	57.605890	0.000385	3.850620	0.652313	-0.000077
 628	6.2386e+01	7.5089	57.565518	0.000203	2.026642	0.343322	-0.000041
 629	6.2486e+01	7.4912	57.472664	0.000466	4.661277	0.789642	-0.000093
 630	6.2586e+01	7.4709	57.416144	0.000284	2.837299	0.480651	-0.000057
 631	6.2685e+01	7.4548	57.359625	0.000284	2.837299	0.480651	-0.000057
 632	6.2785e+01	7.4303	57.206213	0.000770	7.701240	1.304625	-0.000154
 633	6.2884e+01	7.4104	57.141619	0.000324	3.242627	0.549316	-0.000065
 634	6.2983e+01	7.3907	57.064914	0.000385	3.850620	0.652313	-0.000077
 635	6.3083e+01	7.3709	56.988208	0.000385	3.850620	0.652313	-0.000077
 636	6.3182e+01	7.3516	56.891317	0.000486	4.863941	0.823974	-0.000097
 637	6.3282e+01	7.3302	56.818648	0.000365	3.647956	0.617980	-0.000073
 638	6.3382e+01	7.3112	56.713683	0.000527	5.269270	0.892638	-0.000105
 639	6.3481e+01	7.2907	56.725794	-0.000061	-0.607993	-0.102997	0.000012
 640	6.3581e+01	7.2710	56.608717	0.000588	5.877262	0.995635	-0.000118
 641	6.3680e+01	7.2515	56.495678	0.000567	5.674598	0.961303	-0.000114
 642	6.3779e+01	7.2308	56.431083	0.000324	3.242627	0.549316	-0.000065
 643	6.3879e+01	7.2109	56.386675	0.000223	2.229306	0.377655	-0.000045
 644	6.3978e+01	7.1917	56.289784	0.000486	4.863941	0.823974	-0.000097
 645	6.4078e+01	7.1715	56.180781	0.000547	5.471934	0.926971	-0.000110
 646	6.4177e+01	7.1514	56.108112	0.000365	3.647956	0.617980	-0.000073
 647	6.4277e+01	7.1313	56.043518	0.000324	3.242627	0.549316	-0.000065
 648	6.4376e+01	7.1120	55.974887	0.000345	3.445292	0.583648	-0.000069
 649	6.4476e+01	7.0916	55.873959	0.000507	5.066605	0.858306	-0.000101
 650	6.4576e+01	7.0727	55.777067	0.000486	4.863941	0.823974	-0.000097
 651	6.4675e+01	7.0525	55.684213	0.000466	4.661277	0.789642	-0.000093
 652	6.4775e+01	7.0322	55.623656	0.000304	3.039963	0.514984	-0.000061
 653	6.4874e+01	7.0119	55.514654	0.000547	5.471934	0.926971	-0.000110
 654	6.4974e+01	6.9923	55.441985	0.000365	3.647956	0.617980	-0.000073
 655	6.5073e+01	6.9729	55.365280	0.000385	3.850620	0.652313	-0.000077
 656	6.5172e+01	6.9526	55.272425	0.000466	4.661277	0.789642	-0.000093
 657	6.5272e+01	6.9329	55.215905	0.000284	2.837299	0.480651	-0.000057
 658	6.5371e+01	6.9125	55.147274	0.000345	3.445292	0.583648	-0.000069
 659	6.5471e+01	6.8927	55.054420	0.000466	4.661277	0.789642	-0.000093
 660	6.5570e+01	6.8734	54.965603	0.000446	4.458613	0.755309	-0.000089
 661	6.5670e+01	6.8533	54.880823	0.000426	4.255948	0.720977	-0.000085
 662	6.5769e+01	6.8330	54.808155	0.000365	3.647956	0.617980	-0.000073
 663	6.5869e+01	6.8127	54.703189	0.000527	5.269270	0.892638	-0.000105
 664	6.5969e+01	6.7935	54.642632	0.000304	3.039963	0.514984	-0.000061
 665	6.6068e+01	6.7741	54.537667	0.000527	5.269270	0.892638	-0.000105
 666	6.6168e+01	6.7538	54.481147	0.000284	2.837299	0.480651	-0.000057
 667	6.6267e+01	6.7334	54.368107	0.000567	5.674598	0.961303	-0.000114
 668	6.6367e+01	6.7129	54.327736	0.000203	2.026642	0.343322	-0.000041
 669	6.6466e+01	6.6929	54.210659	0.000588	5.877262	0.995635	-0.000118
 670	6.6566e+01	6.6749	54.113767	0.000486	4.863941	0.823974	-0.000097
 671	6.6665e+01	6.6528	54.057248	0.000284	2.837299	0.480651	-0.000057
 672	6.6764e+01	6.6343	53.964393	0.000466	4.661277	0.789642	-0.000093
 673	6.6864e+01	6.6141	53.903836	0.000304	3.039963	0.514984	-0.000061
 674	6.6963e+01	6.5944	53.815019	0.000446	4.458613	0.755309	-0.000089
 675	6.7063e+01	6.5742	53.710054	0.000527	5.269270	0.892638	-0.000105
 676	6.7162e+01	6.5539	53.609125	0.000507	5.066605	0.858306	-0.000101
 677	6.7262e+01	6.5340	53.548568	0.000304	3.039963	0.514984	-0.000061
 678	6.7362e+01	6.5130	53.451677	0.000486	4.863941	0.823974	-0.000097
 679	6.7461e+01	6.4935	53.391120	0.000304	3.039963	0.514984	-0.000061
 680	6.7561e+01	6.4746	53.278080	0.000567	5.674598	0.961303	-0.000114
 681	6.7660e+01	6.4547	53.205412	0.000365	3.647956	0.617980	-0.000073
 682	6.7760e+01	6.4346	53.136781	0.000345	3.445292	0.583648	-0.000069
 683	6.7859e+01	6.4143	53.060075	0.000385	3.850620	0.652313	-0.000077
 684	6.7959e+01	6.3942	52.971258	0.000446	4.458613	0.755309	-0.000089
 685	6.8058e+01	6.3744	52.894552	0.000385	3.850620	0.652313	-0.000077
 686	6.8157e+01	6.3551	52.793624	0.000507	5.066605	0.858306	-0.000101
 687	6.8257e+01	6.3345	52.700770	0.000466	4.661277	0.789642	-0.000093
 688	6.8356e+01	6.3152	52.648287	0.000263	2.634635	0.446319	-0.000053
 689	6.8456e+01	6.2966	52.527173	0.000608	6.079926	1.029967	-0.000122
 690	6.8555e+01	6.2763	52.454505	0.000365	3.647956	0.617980	-0.000073
 691	6.8655e+01	6.2557	52.337428	0.000588	5.877262	0.995635	-0.000118
 692	6.8754e+01	6.2359	52.276871	0.000304	3.039963	0.514984	-0.000061
 693	6.8854e+01	6.2163	52.159794	0.000588	5.877262	0.995635	-0.000118
 694	6.8954e+01	6.1956	52.099237	0.000304	3.039963	0.514984	-0.000061
 695	6.9053e+01	6.1755	52.026568	0.000365	3.647956	0.617980	-0.000073
 696	6.9153e+01	6.1565	51.909491	0.000588	5.877262	0.995635	-0.000118
 697	6.9252e+01	6.1361	51.836823	0.000365	3.647956	0.617980	-0.000073
 698	6.9352e+01	6.1160	51.768192	0.000345	3.445292	0.583648	-0.000069
 699	6.9451e+01	6.0964	51.679375	0.000446	4.458613	0.755309	-0.000089
 700	6.9550e+01	6.0766	51.598632	0.000405	4.053284	0.686645	-0.000081
 701	6.9650e+01	6.0564	51.485592	0.000567	5.674598	0.961303	-0.000114
 702	6.9749e+01	6.0357	51.408886	0.000385	3.850620	0.652313	-0.000077
 703	6.9849e+01	6.0162	51.340255	0.000345	3.445292	0.583648	-0.000069
 704	6.9948e+01	5.9966	51.251438	0.000446	4.458613	0.755309	-0.000089
 705	7.0048e+01	5.9766	51.146473	0.000527	5.269270	0.892638	-0.000105
 706	7.0147e+01	5.9571	51.053619	0.000466	4.661277	0.789642	-0.000093
 707	7.0247e+01	5.9368	50.964802	0.000446	4.458613	0.755309	-0.000089
 708	7.0347e+01	5.9170	50.871947	0.000466	4.661277	0.789642	-0.000093
 709	7.0446e+01	5.8965	50.807353	0.000324	3.242627	0.549316	-0.000065
 710	7.0546e+01	5.8775	50.726611	0.000405	4.053284	0.686645	-0.000081
 711	7.0645e+01	5.8576	50.633756	0.000466	4.661277	0.789642	-0.000093
 712	7.0745e+01	5.8372	50.565125	0.000345	3.445292	0.583648	-0.000069
 713	7.0844e+01	5.8178	50.476308	0.000446	4.458613	0.755309	-0.000089
 714	7.0944e+01	5.7972	50.375380	0.000507	5.066605	0.858306	-0.000101
 715	7.1043e+01	5.7774	50.290600	0.000426	4.255948	0.720977	-0.000085
 716	7.1142e+01	5.7579	50.217931	0.000365	3.647956	0.617980	-0.000073
 717	7.1242e+01	5.7384	50.076632	0.000709	7.093247	1.201629	-0.000142
 718	7.1341e+01	5.7177	50.012038	0.000324	3.242627	0.549316	-0.000065
 719	7.1441e+01	5.6966	49.911109	0.000507	5.066605	0.858306	-0.000101
 720	7.1540e+01	5.6771	49.830366	0.000405	4.053284	0.686645	-0.000081
 721	7.1640e+01	5.6580	49.773847	0.000284	2.837299	0.480651	-0.000057
 722	7.1740e+01	5.6380	49.628510	0.000730	7.295912	1.235961	-0.000146
 723	7.1839e+01	5.6182	49.596213	0.000162	1.621314	0.274658	-0.000032
 724	7.1939e+01	5.5987	49.519507	0.000385	3.850620	0.652313	-0.000077
 725	7.2038e+01	5.5787	49.414541	0.000527	5.269270	0.892638	-0.000105
 726	7.2138e+01	5.5581	49.337836	0.000385	3.850620	0.652313	-0.000077
 727	7.2237e+01	5.5383	49.257093	0.000405	4.053284	0.686645	-0.000081
 728	7.2337e+01	5.5187	49.172313	0.000426	4.255948	0.720977	-0.000085
 729	7.2436e+01	5.4986	49.091571	0.000405	4.053284	0.686645	-0.000081
 730	7.2535e+01	5.4790	48.986605	0.000527	5.269270	0.892638	-0.000105
 731	7.2635e+01	5.4583	48.861454	0.000628	6.282591	1.064300	-0.000126
 732	7.2734e+01	5.4392	48.845305	0.000081	0.810657	0.137329	-0.000016
 733	7.2834e+01	5.4192	48.740340	0.000527	5.269270	0.892638	-0.000105
 734	7.2933e+01	5.3982	48.631337	0.000547	5.471934	0.926971	-0.000110
 735	7.3033e+01	5.3796	48.550594	0.000405	4.053284	0.686645	-0.000081
 736	7.3132e+01	5.3603	48.477926	0.000365	3.647956	0.617980	-0.000073
 737	7.3232e+01	5.3399	48.397183	0.000405	4.053284	0.686645	-0.000081
 738	7.3332e+01	5.3191	48.304329	0.000466	4.661277	0.789642	-0.000093
 739	7.3431e+01	5.2990	48.199364	0.000527	5.269270	0.892638	-0.000105
 740	7.3531e+01	5.2787	48.102472	0.000486	4.863941	0.823974	-0.000097
 741	7.3630e+01	5.2593	48.029804	0.000365	3.647956	0.617980	-0.000073
 742	7.3730e+01	5.2398	47.940987	0.000446	4.458613	0.755309	-0.000089
 743	7.3829e+01	5.2197	47.836021	0.000527	5.269270	0.892638	-0.000105
 744	7.3928e+01	5.1994	47.722982	0.000567	5.674598	0.961303	-0.000114
 745	7.4028e+01	5.1791	47.666462	0.000284	2.837299	0.480651	-0.000057
 746	7.4127e+01	5.1589	47.573608	0.000466	4.661277	0.789642	-0.000093
 747	7.4227e+01	5.1403	47.496902	0.000385	3.850620	0.652313	-0.000077
 748	7.4326e+01	5.1196	47.436345	0.000304	3.039963	0.514984	-0.000061
 749	7.4426e+01	5.1003	47.327342	0.000547	5.471934	0.926971	-0.000110
 750	7.4525e+01	5.0797	47.242562	0.000426	4.255948	0.720977	-0.000085
 751	7.4625e+01	5.0608	47.109337	0.000669	6.687919	1.132964	-0.000134
 752	7.4725e+01	5.0404	47.060891	0.000243	2.431971	0.411987	-0.000049
 753	7.4824e+01	5.0207	46.972074	0.000446	4.458613	0.755309	-0.000089
 754	7.4924e+01	5.0008	46.887294	0.000426	4.255948	0.720977	-0.000085
 755	7.5023e+01	4.9810	46.774255	0.000567	5.674598	0.961303	-0.000114
 756	7.5123e+01	4.9612	46.685438	0.000446	4.458613	0.755309	-0.000089
 757	7.5222e+01	4.9407	46.600658	0.000426	4.255948	0.720977	-0.000085
 758	7.5322e+01	4.9220	46.519915	0.000405	4.053284	0.686645	-0.000081
 759	7.5421e+01	4.9010	46.402838	0.000588	5.877262	0.995635	-0.000118
 760	7.5520e+01	4.8804	46.309984	0.000466	4.661277	0.789642	-0.000093
 761	7.5620e+01	4.8620	46.209056	0.000507	5.066605	0.858306	-0.000101
 762	7.5719e+01	4.8412	46.172721	0.000182	1.823978	0.308990	-0.000037
 763	7.5819e+01	4.8215	46.031422	0.000709	7.093247	1.201629	-0.000142
 764	7.5918e+01	4.8014	45.962790	0.000345	3.445292	0.583648	-0.000069
 765	7.6018e+01	4.7819	45.849751	0.000567	5.674598	0.961303	-0.000114
 766	7.6118e+01	4.7616	45.744785	0.000527	5.269270	0.892638	-0.000105
 767	7.6217e+01	4.7422	45.668079	0.000385	3.850620	0.652313	-0.000077
 768	7.6317e+01	4.7227	45.551003	0.000588	5.877262	0.995635	-0.000118
 769	7.6416e+01	4.7012	45.502557	0.000243	2.431971	0.411987	-0.000049
 770	7.6516e+01	4.6815	45.393554	0.000547	5.471934	0.926971	-0.000110
 771	7.6615e+01	4.6616	45.300700	0.000466	4.661277	0.789642	-0.000093
 772	7.6715e+01	4.6416	45.203809	0.000486	4.863941	0.823974	-0.000097
 773	7.6814e+01	4.6224	45.114992	0.000446	4.458613	0.755309	-0.000089
 774	7.6913e+01	4.6014	45.018101	0.000486	4.863941	0.823974	-0.000097
 775	7.7013e+01	4.5826	44.941395	0.000385	3.850620	0.652313	-0.000077
 776	7.7112e+01	4.5625	44.848541	0.000466	4.661277	0.789642	-0.000093
 777	7.7212e+01	4.5420	44.723390	0.000628	6.282591	1.064300	-0.000126
 778	7.7311e+01	4.5228	44.650721	0.000365	3.647956	0.617980	-0.000073
 779	7.7411e+01	4.5026	44.561904	0.000446	4.458613	0.755309	-0.000089
 780	7.7510e+01	4.4825	44.448864	0.000567	5.674598	0.961303	-0.000114
 781	7.7610e+01	4.4625	44.343899	0.000527	5.269270	0.892638	-0.000105
 782	7.7710e+01	4.4426	44.242971	0.000507	5.066605	0.858306	-0.000101
 783	7.7809e+01	4.4228	44.166265	0.000385	3.850620	0.652313	-0.000077
 784	7.7909e+01	4.4030	44.101671	0.000324	3.242627	0.549316	-0.000065
 785	7.8008e+01	4.3840	43.968445	0.000669	6.687919	1.132964	-0.000134
 786	7.8108e+01	4.3618	43.903851	0.000324	3.242627	0.549316	-0.000065
 787	7.8207e+01	4.3429	43.810997	0.000466	4.661277	0.789642	-0.000093
 788	7.8306e+01	4.3230	43.697957	0.000567	5.674598	0.961303	-0.000114
 789	7.8406e+01	4.3035	43.617215	0.000405	4.053284	0.686645	-0.000081
 790	7.8505e+01	4.2838	43.524360	0.000466	4.661277	0.789642	-0.000093
 791	7.8605e+01	4.2638	43.431506	0.000466	4.661277	0.789642	-0.000093
 792	7.8704e+01	4.2437	43.338652	0.000466	4.661277	0.789642	-0.000093
 793	7.8804e+01	4.2239	43.241761	0.000486	4.863941	0.823974	-0.000097
 794	7.8903e+01	4.2042	43.148907	0.000466	4.661277	0.789642	-0.000093
 795	7.9003e+01	4.1837	43.031830	0.000588	5.877262	0.995635	-0.000118
 796	7.9103e+01	4.1636	43.007607	0.000122	1.215985	0.205993	-0.000024
 797	7.9202e+01	4.1427	42.817862	0.000953	9.525218	1.613616	-0.000191
 798	7.9302e+01	4.1242	42.745193	0.000365	3.647956	0.617980	-0.000073
 799	7.9401e+01	4.1038	42.628116	0.000588	5.877262	0.995635	-0.000118
 800	7.9501e+01	4.0838	42.547374	0.000405	4.053284	0.686645	-0.000081
 801	7.9600e+01	4.0652	42.426259	0.000608	6.079926	1.029967	-0.000122
 802	7.9700e+01	4.0441	42.349554	0.000385	3.850620	0.652313	-0.000077
 803	7.9799e+01	4.0244	42.232477	0.000588	5.877262	0.995635	-0.000118
 804	7.9898e+01	4.0046	42.159809	0.000365	3.647956	0.617980	-0.000073
 805	7.9998e+01	3.9837	42.054843	0.000527	5.269270	0.892638	-0.000105
 806	8.0097e+01	3.9641	41.978137	0.000385	3.850620	0.652313	-0.000077
 807	8.0197e+01	3.9446	41.812615	0.000831	8.309233	1.407622	-0.000166
 808	8.0296e+01	3.9242	41.760132	0.000263	2.634635	0.446319	-0.000053
 809	8.0396e+01	3.9056	41.659204	0.000507	5.066605	0.858306	-0.000101
 810	8.0496e+01	3.8846	41.521941	0.000689	6.890583	1.167296	-0.000138
 811	8.0595e+01	3.8651	41.429087	0.000466	4.661277	0.789642	-0.000093
 812	8.0695e+01	3.8448	41.328159	0.000507	5.066605	0.858306	-0.000101
 813	8.0794e+01	3.8258	41.211082	0.000588	5.877262	0.995635	-0.000118
 814	8.0894e+01	3.8049	41.134376	0.000385	3.850620	0.652313	-0.000077
 815	8.0993e+01	3.7853	41.001151	0.000669	6.687919	1.132964	-0.000134
 816	8.1093e+01	3.7650	40.940594	0.000304	3.039963	0.514984	-0.000061
 817	8.1192e+01	3.7463	40.815442	0.000628	6.282591	1.064300	-0.000126
 818	8.1291e+01	3.7260	40.706440	0.000547	5.471934	0.926971	-0.000110
 819	8.1391e+01	3.7054	40.637808	0.000345	3.445292	0.583648	-0.000069
 820	8.1490e+01	3.6861	40.512657	0.000628	6.282591	1.064300	-0.000126
 821	8.1590e+01	3.6666	40.456137	0.000284	2.837299	0.480651	-0.000057
 822	8.1689e+01	3.6467	40.302726	0.000770	7.701240	1.304625	-0.000154
 823	8.1789e+01	3.6263	40.217946	0.000426	4.255948	0.720977	-0.000085
 824	8.1888e+01	3.6058	40.088758	0.000649	6.485255	1.098632	-0.000130
 825	8.1988e+01	3.5863	40.008015	0.000405	4.053284	0.686645	-0.000081
 826	8.2088e+01	3.5658	39.870753	0.000689	6.890583	1.167296	-0.000138
 827	8.2187e+01	3.5467	39.781936	0.000446	4.458613	0.755309	-0.000089
 828	8.2287e+01	3.5266	39.713304	0.000345	3.445292	0.583648	-0.000069
 829	8.2386e+01	3.5072	39.604302	0.000547	5.471934	0.926971	-0.000110
 830	8.2486e+01	3.4856	39.515485	0.000446	4.458613	0.755309	-0.000089
 831	8.2585e+01	3.4666	39.394371	0.000608	6.079926	1.029967	-0.000122
 832	8.2684e+01	3.4470	39.289405	0.000527	5.269270	0.892638	-0.000105
 833	8.2784e+01	3.4267	39.188477	0.000507	5.066605	0.858306	-0.000101
 834	8.2883e+01	3.4068	39.075437	0.000567	5.674598	0.961303	-0.000114
 835	8.2983e+01	3.3866	38.986620	0.000446	4.458613	0.755309	-0.000089
 836	8.3082e+01	3.3669	38.857431	0.000649	6.485255	1.098632	-0.000130
 837	8.3182e+01	3.3473	38.748429	0.000547	5.471934	0.926971	-0.000110
 838	8.3281e+01	3.3263	38.627315	0.000608	6.079926	1.029967	-0.000122
 839	8.3381e+01	3.3068	38.570795	0.000284	2.837299	0.480651	-0.000057
 840	8.3481e+01	3.2870	38.425458	0.000730	7.295912	1.235961	-0.000146
 841	8.3580e+01	3.2676	38.340678	0.000426	4.255948	0.720977	-0.000085
 842	8.3680e+01	3.2475	38.255898	0.000426	4.255948	0.720977	-0.000085
 843	8.3779e+01	3.2274	38.138821	0.000588	5.877262	0.995635	-0.000118
 844	8.3879e+01	3.2073	38.041930	0.000486	4.863941	0.823974	-0.000097
 845	8.3978e+01	3.1879	37.941002	0.000507	5.066605	0.858306	-0.000101
 846	8.4078e+01	3.1672	37.848148	0.000466	4.661277	0.789642	-0.000093
 847	8.4177e+01	3.1478	37.727033	0.000608	6.079926	1.029967	-0.000122
 848	8.4276e+01	3.1274	37.601882	0.000628	6.282591	1.064300	-0.000126
 849	8.4376e+01	3.1083	37.529214	0.000365	3.647956	0.617980	-0.000073
 850	8.4475e+01	3.0887	37.460583	0.000345	3.445292	0.583648	-0.000069
 851	8.4575e+01	3.0680	37.319283	0.000709	7.093247	1.201629	-0.000142
 852	8.4674e+01	3.0484	37.222392	0.000486	4.863941	0.823974	-0.000097
 853	8.4774e+01	3.0282	37.101277	0.000608	6.079926	1.029967	-0.000122
 854	8.4874e+01	3.0081	36.976126	0.000628	6.282591	1.064300	-0.000126
 855	8.4973e+01	2.9884	36.875198	0.000507	5.066605	0.858306	-0.000101
 856	8.5073e+01	2.9694	36.758121	0.000588	5.877262	0.995635	-0.000118
 857	8.5172e+01	2.9485	36.669304	0.000446	4.458613	0.755309	-0.000089
 858	8.5272e+01	2.9295	36.568376	0.000507	5.066605	0.858306	-0.000101
 859	8.5371e+01	2.9075	36.475521	0.000466	4.661277	0.789642	-0.000093
 860	8.5471e+01	2.8883	36.374593	0.000507	5.066605	0.858306	-0.000101
 861	8.5570e+01	2.8686	36.261553	0.000567	5.674598	0.961303	-0.000114
 862	8.5669e+01	2.8486	36.132365	0.000649	6.485255	1.098632	-0.000130
 863	8.5769e+01	2.8292	36.043548	0.000446	4.458613	0.755309	-0.000089
 864	8.5868e+01	2.8103	35.906285	0.000689	6.890583	1.167296	-0.000138
 865	8.5968e+01	2.7889	35.829580	0.000385	3.850620	0.652313	-0.000077
 866	8.6067e+01	2.7686	35.716540	0.000567	5.674598	0.961303	-0.000114
 867	8.6167e+01	2.7486	35.615611	0.000507	5.066605	0.858306	-0.000101
 868	8.6266e+01	2.7290	35.506609	0.000547	5.471934	0.926971	-0.000110
 869	8.6366e+01	2.7087	35.381458	0.000628	6.282591	1.064300	-0.000126
 870	8.6466e+01	2.6892	35.292641	0.000446	4.458613	0.755309	-0.000089
 871	8.6565e+01	2.6696	35.183638	0.000547	5.471934	0.926971	-0.000110
 872	8.6665e+01	2.6495	35.090784	0.000466	4.661277	0.789642	-0.000093
 873	8.6764e+01	2.6299	34.941410	0.000750	7.498576	1.270293	-0.000150
 874	8.6864e+01	2.6089	34.844519	0.000486	4.863941	0.823974	-0.000097
 875	8.6963e+01	2.5895	34.727442	0.000588	5.877262	0.995635	-0.000118
 876	8.7063e+01	2.5701	34.646699	0.000405	4.053284	0.686645	-0.000081
 877	8.7162e+01	2.5503	34.497325	0.000750	7.498576	1.270293	-0.000150
 878	8.7261e+01	2.5298	34.408508	0.000446	4.458613	0.755309	-0.000089
 879	8.7361e+01	2.5101	34.319691	0.000446	4.458613	0.755309	-0.000089
 880	8.7460e+01	2.4904	34.214725	0.000527	5.269270	0.892638	-0.000105
 881	8.7560e+01	2.4700	34.105723	0.000547	5.471934	0.926971	-0.000110
 882	8.7659e+01	2.4497	33.976534	0.000649	6.485255	1.098632	-0.000130
 883	8.7759e+01	2.4308	33.823123	0.000770	7.701240	1.304625	-0.000154
 884	8.7859e+01	2.4108	33.798900	0.000122	1.215985	0.205993	-0.000024
 885	8.7958e+01	2.3907	33.673749	0.000628	6.282591	1.064300	-0.000126
 886	8.8058e+01	2.3720	33.564747	0.000547	5.471934	0.926971	-0.000110
 887	8.8157e+01	2.3505	33.447670	0.000588	5.877262	0.995635	-0.000118
 888	8.8257e+01	2.3309	33.358853	0.000446	4.458613	0.755309	-0.000089
 889	8.8356e+01	2.3116	33.229664	0.000649	6.485255	1.098632	-0.000130
 890	8.8456e+01	2.2912	33.156996	0.000365	3.647956	0.617980	-0.000073
 891	8.8555e+01	2.2709	33.019733	0.000689	6.890583	1.167296	-0.000138
 892	8.8654e+01	2.2511	32.914768	0.000527	5.269270	0.892638	-0.000105
 893	8.8754e+01	2.2305	32.817876	0.000486	4.863941	0.823974	-0.000097
 894	8.8853e+01	2.2115	32.676577	0.000709	7.093247	1.201629	-0.000142
 895	8.8953e+01	2.1944	32.599871	0.000385	3.850620	0.652313	-0.000077
 896	8.9052e+01	2.1722	32.502980	0.000486	4.863941	0.823974	-0.000097
 897	8.9152e+01	2.1532	32.422237	0.000405	4.053284	0.686645	-0.000081
 898	8.9251e+01	2.1319	32.301123	0.000608	6.079926	1.029967	-0.000122
 899	8.9351e+01	2.1130	32.192120	0.000547	5.471934	0.926971	-0.000110
 900	8.9451e+01	2.0915	32.054858	0.000689	6.890583	1.167296	-0.000138
 901	8.9550e+01	2.0716	31.945855	0.000547	5.471934	0.926971	-0.000110
 902	8.9650e+01	2.0524	31.857038	0.000446	4.458613	0.755309	-0.000089
 903	8.9749e+01	2.0326	31.772258	0.000426	4.255948	0.720977	-0.000085
 904	8.9849e+01	2.0123	31.639033	0.000669	6.687919	1.132964	-0.000134
 905	8.9948e+01	1.9918	31.501770	0.000689	6.890583	1.167296	-0.000138
 906	9.0047e+01	1.9719	31.404879	0.000486	4.863941	0.823974	-0.000097
 907	9.0147e+01	1.9518	31.356433	0.000243	2.431971	0.411987	-0.000049
 908	9.0246e+01	1.9321	31.198985	0.000790	7.903904	1.338958	-0.000158
 909	9.0346e+01	1.9128	31.102094	0.000486	4.863941	0.823974	-0.000097
 910	9.0445e+01	1.8932	31.001165	0.000507	5.066605	0.858306	-0.000101
 911	9.0545e+01	1.8729	30.871977	0.000649	6.485255	1.098632	-0.000130
 912	9.0644e+01	1.8523	30.762974	0.000547	5.471934	0.926971	-0.000110
 913	9.0744e+01	1.8327	30.653972	0.000547	5.471934	0.926971	-0.000110
 914	9.0844e+01	1.8127	30.536895	0.000588	5.877262	0.995635	-0.000118
 915	9.0943e+01	1.7929	30.444041	0.000466	4.661277	0.789642	-0.000093
 916	9.1043e+01	1.7731	30.318889	0.000628	6.282591	1.064300	-0.000126
 917	9.1142e+01	1.7539	30.189701	0.000649	6.485255	1.098632	-0.000130
 918	9.1242e+01	1.7332	30.092810	0.000486	4.863941	0.823974	-0.000097
 919	9.1341e+01	1.7133	29.979770	0.000567	5.674598	0.961303	-0.000114
 920	9.1441e+01	1.6924	29.858656	0.000608	6.079926	1.029967	-0.000122
 921	9.1540e+01	1.6741	29.790025	0.000345	3.445292	0.583648	-0.000069
 922	9.1639e+01	1.6537	29.672948	0.000588	5.877262	0.995635	-0.000118
 923	9.1739e+01	1.6334	29.527611	0.000730	7.295912	1.235961	-0.000146
 924	9.1838e+01	1.6128	29.446868	0.000405	4.053284	0.686645	-0.000081
 925	9.1938e+01	1.5940	29.341903	0.000527	5.269270	0.892638	-0.000105
 926	9.2037e+01	1.5734	29.204640	0.000689	6.890583	1.167296	-0.000138
 927	9.2137e+01	1.5535	29.115823	0.000446	4.458613	0.755309	-0.000089
 928	9.2237e+01	1.5334	28.986635	0.000649	6.485255	1.098632	-0.000130
 929	9.2336e+01	1.5137	28.881669	0.000527	5.269270	0.892638	-0.000105
 930	9.2436e+01	1.4938	28.764592	0.000588	5.877262	0.995635	-0.000118
 931	9.2535e+01	1.4745	28.647515	0.000588	5.877262	0.995635	-0.000118
 932	9.2635e+01	1.4547	28.546587	0.000507	5.066605	0.858306	-0.000101
 933	9.2734e+01	1.4341	28.421436	0.000628	6.282591	1.064300	-0.000126
 934	9.2834e+01	1.4135	28.284173	0.000689	6.890583	1.167296	-0.000138
 935	9.2933e+01	1.3949	28.195356	0.000446	4.458613	0.755309	-0.000089
 936	9.3032e+01	1.3744	28.082316	0.000567	5.674598	0.961303	-0.000114
 937	9.3132e+01	1.3554	27.981388	0.000507	5.066605	0.858306	-0.000101
 938	9.3231e+01	1.3342	27.848162	0.000669	6.687919	1.132964	-0.000134
 939	9.3331e+01	1.3148	27.739160	0.000547	5.471934	0.926971	-0.000110
 940	9.3430e+01	1.2946	27.634194	0.000527	5.269270	0.892638	-0.000105
 941	9.3530e+01	1.2745	27.541340	0.000466	4.661277	0.789642	-0.000093
 942	9.3629e+01	1.2553	27.351595	0.000953	9.525218	1.613616	-0.000191
 943	9.3729e+01	1.2355	27.307186	0.000223	2.229306	0.377655	-0.000045
 944	9.3829e+01	1.2158	27.186072	0.000608	6.079926	1.029967	-0.000122
 945	9.3928e+01	1.1956	27.052847	0.000669	6.687919	1.132964	-0.000134
 946	9.4028e+01	1.1746	26.959992	0.000466	4.661277	0.789642	-0.000093
 947	9.4127e+01	1.1560	26.846953	0.000567	5.674598	0.961303	-0.000114
 948	9.4227e+01	1.1356	26.733913	0.000567	5.674598	0.961303	-0.000114
 949	9.4326e+01	1.1166	26.604725	0.000649	6.485255	1.098632	-0.000130
 950	9.4425e+01	1.0962	26.503796	0.000507	5.066605	0.858306	-0.000101
 951	9.4525e+01	1.0762	26.423053	0.000405	4.053284	0.686645	-0.000081
 952	9.4624e+01	1.0567	26.245419	0.000892	8.917225	1.510619	-0.000179
 953	9.4724e+01	1.0365	26.184862	0.000304	3.039963	0.514984	-0.000061
 954	9.4823e+01	1.0141	26.087971	0.000486	4.863941	0.823974	-0.000097
 955	9.4923e+01	0.9964	25.906300	0.000912	9.119890	1.544951	-0.000183
 956	9.5022e+01	0.9779	25.829594	0.000385	3.850620	0.652313	-0.000077
 957	9.5122e+01	0.9564	25.700406	0.000649	6.485255	1.098632	-0.000130
 958	9.5222e+01	0.9361	25.575255	0.000628	6.282591	1.064300	-0.000126
 959	9.5321e+01	0.9159	25.462215	0.000567	5.674598	0.961303	-0.000114
 960	9.5421e+01	0.8965	25.385510	0.000385	3.850620	0.652313	-0.000077
 961	9.5520e+01	0.8771	25.264395	0.000608	6.079926	1.029967	-0.000122
 962	9.5620e+01	0.8566	25.147319	0.000588	5.877262	0.995635	-0.000118
 963	9.5719e+01	0.8374	25.001982	0.000730	7.295912	1.235961	-0.000146
 964	9.5819e+01	0.8169	24.913165	0.000446	4.458613	0.755309	-0.000089
 965	9.5918e+01	0.7972	24.767828	0.000730	7.295912	1.235961	-0.000146
 966	9.6017e+01	0.7777	24.662862	0.000527	5.269270	0.892638	-0.000105
 967	9.6117e+01	0.7568	24.570008	0.000466	4.661277	0.789642	-0.000093
 968	9.6216e+01	0.7375	24.440820	0.000649	6.485255	1.098632	-0.000130
 969	9.6316e+01	0.7169	24.311631	0.000649	6.485255	1.098632	-0.000130
 970	9.6415e+01	0.6976	24.186480	0.000628	6.282591	1.064300	-0.000126
 971	9.6515e+01	0.6781	24.077478	0.000547	5.471934	0.926971	-0.000110
 972	9.6615e+01	0.6571	23.915992	0.000811	8.106569	1.373290	-0.000162
 973	9.6714e+01	0.6377	23.835249	0.000405	4.053284	0.686645	-0.000081
 974	9.6814e+01	0.6180	23.726247	0.000547	5.471934	0.926971	-0.000110
 975	9.6913e+01	0.5981	23.576873	0.000750	7.498576	1.270293	-0.000150
 976	9.7013e+01	0.5777	23.471907	0.000527	5.269270	0.892638	-0.000105
 977	9.7112e+01	0.5582	23.391164	0.000405	4.053284	0.686645	-0.000081
 978	9.7212e+01	0.5383	23.213530	0.000892	8.917225	1.510619	-0.000179
 979	9.7311e+01	0.5181	23.104528	0.000547	5.471934	0.926971	-0.000110
 980	9.7410e+01	0.4977	22.971302	0.000669	6.687919	1.132964	-0.000134
 981	9.7510e+01	0.4791	22.842114	0.000649	6.485255	1.098632	-0.000130
 982	9.7609e+01	0.4585	22.745223	0.000486	4.863941	0.823974	-0.000097
 983	9.7709e+01	0.4385	22.616034	0.000649	6.485255	1.098632	-0.000130
 984	9.7808e+01	0.4175	22.498957	0.000588	5.877262	0.995635	-0.000118
 985	9.7908e+01	0.3992	22.353621	0.000730	7.295912	1.235961	-0.000146
 986	9.8007e+01	0.3786	22.248655	0.000527	5.269270	0.892638	-0.000105
 987	9.8107e+01	0.3581	22.151764	0.000486	4.863941	0.823974	-0.000097
 988	9.8207e+01	0.3384	22.030650	0.000608	6.079926	1.029967	-0.000122
 989	9.8306e+01	0.3189	21.857053	0.000871	8.714561	1.476287	-0.000174
 990	9.8406e+01	0.2988	21.796496	0.000304	3.039963	0.514984	-0.000061
 991	9.8505e+01	0.2776	21.635010	0.000811	8.106569	1.373290	-0.000162
 992	9.8605e+01	0.2583	21.534082	0.000507	5.066605	0.858306	-0.000101
 993	9.8704e+01	0.2392	21.404894	0.000649	6.485255	1.098632	-0.000130
 994	9.8803e+01	0.2193	21.291854	0.000567	5.674598	0.961303	-0.000114
 995	9.8903e+01	0.1991	21.170740	0.000608	6.079926	1.029967	-0.000122
 996	9.9002e+01	0.1786	21.001180	0.000851	8.511897	1.441954	-0.000170
 997	9.9102e+01	0.1597	20.920437	0.000405	4.053284	0.686645	-0.000081
 998	9.9201e+01	0.1392	20.771063	0.000750	7.498576	1.270293	-0.000150
 999	9.9301e+01	0.1194	20.666098	0.000527	5.269270	0.892638	-0.000105
1000	9.9400e+01	0.0990	20.573244	0.000466	4.661277	0.789642	-0.000093
1001	9.9500e+01	0.0790	20.460204	0.000567	5.674598	0.961303	-0.000114
1002	9.9600e+01	0.0596	20.310830	0.000750	7.498576	1.270293	-0.000150
1003	9.9699e+01	0.0394	20.177604	0.000669	6.687919	1.132964	-0.000134
1004	9.9799e+01	0.0201	20.056490	0.000608	6.079926	1.029967	-0.000122
1005	9.9898e+01	-0.0006	19.951525	0.000527	5.269270	0.892638	-0.000105
1006	9.9998e+01	-0.0185	19.846559	0.000527	5.269270	0.892638	-0.000105
1007	1.0010e+02	-0.0385	19.721408	0.000628	6.282591	1.064300	-0.000126
1008	1.0020e+02	-0.0581	19.584145	0.000689	6.890583	1.167296	-0.000138
1009	1.0030e+02	-0.0785	19.491291	0.000466	4.661277	0.789642	-0.000093
1010	1.0040e+02	-0.0977	19.370177	0.000608	6.079926	1.029967	-0.000122
1011	1.0050e+02	-0.1183	19.240989	0.000649	6.485255	1.098632	-0.000130
1012	1.0059e+02	-0.1377	19.136023	0.000527	5.269270	0.892638	-0.000105
1013	1.0069e+02	-0.1586	18.970501	0.000831	8.309233	1.407622	-0.000166
1014	1.0079e+02	-0.1773	18.857461	0.000567	5.674598	0.961303	-0.000114
1015	1.0089e+02	-0.1978	18.764607	0.000466	4.661277	0.789642	-0.000093
1016	1.0099e+02	-0.2180	18.627344	0.000689	6.890583	1.167296	-0.000138
1017	1.0109e+02	-0.2382	18.498156	0.000649	6.485255	1.098632	-0.000130
1018	1.0119e+02	-0.2570	18.397228	0.000507	5.066605	0.858306	-0.000101
1019	1.0129e+02	-0.2765	18.300336	0.000486	4.863941	0.823974	-0.000097
1020	1.0139e+02	-0.2972	18.154999	0.000730	7.295912	1.235961	-0.000146
1021	1.0149e+02	-0.3182	18.029848	0.000628	6.282591	1.064300	-0.000126
1022	1.0159e+02	-0.3378	17.876437	0.000770	7.701240	1.304625	-0.000154
1023	1.0169e+02	-0.3577	17.771472	0.000527	5.269270	0.892638	-0.000105
1024	1.0179e+02	-0.3758	17.662469	0.000547	5.471934	0.926971	-0.000110
1025	1.0189e+02	-0.3966	17.500983	0.000811	8.106569	1.373290	-0.000162
1026	1.0199e+02	-0.4169	17.420241	0.000405	4.053284	0.686645	-0.000081
1027	1.0209e+02	-0.4363	17.270867	0.000750	7.498576	1.270293	-0.000150
1028	1.0219e+02	-0.4564	17.145715	0.000628	6.282591	1.064300	-0.000126
1029	1.0229e+02	-0.4778	17.032676	0.000567	5.674598	0.961303	-0.000114
1030	1.0239e+02	-0.4971	16.911562	0.000608	6.079926	1.029967	-0.000122
1031	1.0248e+02	-0.5160	16.786410	0.000628	6.282591	1.064300	-0.000126
1032	1.0258e+02	-0.5374	16.653185	0.000669	6.687919	1.132964	-0.000134
1033	1.0268e+02	-0.5563	16.544182	0.000547	5.471934	0.926971	-0.000110
1034	1.0278e+02	-0.5767	16.419031	0.000628	6.282591	1.064300	-0.000126
1035	1.0288e+02	-0.5962	16.297917	0.000608	6.079926	1.029967	-0.000122
1036	1.0298e+02	-0.6161	16.156617	0.000709	7.093247	1.201629	-0.000142
1037	1.0308e+02	-0.6365	16.035503	0.000608	6.079926	1.029967	-0.000122
1038	1.0318e+02	-0.6554	15.906315	0.000649	6.485255	1.098632	-0.000130
1039	1.0328e+02	-0.6768	15.809424	0.000486	4.863941	0.823974	-0.000097
1040	1.0338e+02	-0.6961	15.672161	0.000689	6.890583	1.167296	-0.000138
1041	1.0348e+02	-0.7159	15.571233	0.000507	5.066605	0.858306	-0.000101
1042	1.0358e+02	-0.7352	15.433970	0.000689	6.890583	1.167296	-0.000138
1043	1.0368e+02	-0.7561	15.320930	0.000567	5.674598	0.961303	-0.000114
1044	1.0378e+02	-0.7748	15.175593	0.000730	7.295912	1.235961	-0.000146
1045	1.0388e+02	-0.7954	15.062553	0.000567	5.674598	0.961303	-0.000114
1046	1.0398e+02	-0.8160	14.973736	0.000446	4.458613	0.755309	-0.000089
1047	1.0408e+02	-0.8351	14.820325	0.000770	7.701240	1.304625	-0.000154
1048	1.0418e+02	-0.8553	14.670951	0.000750	7.498576	1.270293	-0.000150
1049	1.0428e+02	-0.8750	14.553874	0.000588	5.877262	0.995635	-0.000118
1050	1.0438e+02	-0.8963	14.469094	0.000426	4.255948	0.720977	-0.000085
1051	1.0447e+02	-0.9148	14.331832	0.000689	6.890583	1.167296	-0.000138
1052	1.0457e+02	-0.9357	14.210718	0.000608	6.079926	1.029967	-0.000122
1053	1.0467e+02	-0.9547	14.097678	0.000567	5.674598	0.961303	-0.000114
1054	1.0477e+02	-0.9749	13.996750	0.000507	5.066605	0.858306	-0.000101
1055	1.0487e+02	-0.9956	13.831227	0.000831	8.309233	1.407622	-0.000166
1056	1.0497e+02	-1.0153	13.734336	0.000486	4.863941	0.823974	-0.000097
1057	1.0507e+02	-1.0341	13.617259	0.000588	5.877262	0.995635	-0.000118
1058	1.0517e+02	-1.0540	13.479996	0.000689	6.890583	1.167296	-0.000138
1059	1.0527e+02	-1.0759	13.375031	0.000527	5.269270	0.892638	-0.000105
1060	1.0537e+02	-1.0948	13.233731	0.000709	7.093247	1.201629	-0.000142
1061	1.0547e+02	-1.1139	13.108580	0.000628	6.282591	1.064300	-0.000126
1062	1.0557e+02	-1.1340	13.015726	0.000466	4.661277	0.789642	-0.000093
1063	1.0567e+02	-1.1565	12.862314	0.000770	7.701240	1.304625	-0.000154
1064	1.0577e+02	-1.1743	12.769460	0.000466	4.661277	0.789642	-0.000093
1065	1.0587e+02	-1.1945	12.668532	0.000507	5.066605	0.858306	-0.000101
1066	1.0597e+02	-1.2147	12.519158	0.000750	7.498576	1.270293	-0.000150
1067	1.0607e+02	-1.2350	12.381895	0.000689	6.890583	1.167296	-0.000138
1068	1.0617e+02	-1.2543	12.268856	0.000567	5.674598	0.961303	-0.000114
1069	1.0627e+02	-1.2734	12.139667	0.000649	6.485255	1.098632	-0.000130
1070	1.0637e+02	-1.2933	12.046813	0.000466	4.661277	0.789642	-0.000093
1071	1.0647e+02	-1.3136	11.933773	0.000567	5.674598	0.961303	-0.000114
1072	1.0656e+02	-1.3339	11.776325	0.000790	7.903904	1.338958	-0.000158
1073	1.0666e+02	-1.3538	11.723842	0.000263	2.634635	0.446319	-0.000053
1074	1.0676e+02	-1.3731	11.566394	0.000790	7.903904	1.338958	-0.000158
1075	1.0686e+02	-1.3939	11.469503	0.000486	4.863941	0.823974	-0.000097
1076	1.0696e+02	-1.4129	11.332240	0.000689	6.890583	1.167296	-0.000138
1077	1.0706e+02	-1.4323	11.207089	0.000628	6.282591	1.064300	-0.000126
1078	1.0716e+02	-1.4526	11.094049	0.000567	5.674598	0.961303	-0.000114
1079	1.0726e+02	-1.4736	10.948712	0.000730	7.295912	1.235961	-0.000146
1080	1.0736e+02	-1.4934	10.855858	0.000466	4.661277	0.789642	-0.000093
1081	1.0746e+02	-1.5123	10.690335	0.000831	8.309233	1.407622	-0.000166
1082	1.0756e+02	-1.5322	10.613630	0.000385	3.850620	0.652313	-0.000077
1083	1.0766e+02	-1.5523	10.480404	0.000669	6.687919	1.132964	-0.000134
1084	1.0776e+02	-1.5726	10.351216	0.000649	6.485255	1.098632	-0.000130
1085	1.0786e+02	-1.5920	10.226065	0.000628	6.282591	1.064300	-0.000126
1086	1.0796e+02	-1.6125	10.100914	0.000628	6.282591	1.064300	-0.000126
1087	1.0806e+02	-1.6327	9.995948	0.000527	5.269270	0.892638	-0.000105
1088	1.0816e+02	-1.6524	9.858685	0.000689	6.890583	1.167296	-0.000138
1089	1.0826e+02	-1.6718	9.737571	0.000608	6.079926	1.029967	-0.000122
1090	1.0836e+02	-1.6928	9.644717	0.000466	4.661277	0.789642	-0.000093
1091	1.0845e+02	-1.7121	9.487269	0.000790	7.903904	1.338958	-0.000158
1092	1.0855e+02	-1.7320	9.390378	0.000486	4.863941	0.823974	-0.000097
1093	1.0865e+02	-1.7523	9.216781	0.000871	8.714561	1.476287	-0.000174
1094	1.0875e+02	-1.7703	9.111815	0.000527	5.269270	0.892638	-0.000105
1095	1.0885e+02	-1.7918	8.998776	0.000567	5.674598	0.961303	-0.000114
1096	1.0895e+02	-1.8124	8.881699	0.000588	5.877262	0.995635	-0.000118
1097	1.0905e+02	-1.8317	8.776733	0.000527	5.269270	0.892638	-0.000105
1098	1.0915e+02	-1.8515	8.655619	0.000608	6.079926	1.029967	-0.000122
1099	1.0925e+02	-1.8726	8.514319	0.000709	7.093247	1.201629	-0.000142
1100	1.0935e+02	-1.8909	8.397242	0.000588	5.877262	0.995635	-0.000118
1101	1.0945e+02	-1.9114	8.292277	0.000527	5.269270	0.892638	-0.000105
1102	1.0955e+02	-1.9312	8.138866	0.000770	7.701240	1.304625	-0.000154
1103	1.0965e+02	-1.9505	8.041974	0.000486	4.863941	0.823974	-0.000097
1104	1.0975e+02	-1.9721	7.880489	0.000811	8.106569	1.373290	-0.000162
1105	1.0985e+02	-1.9897	7.739189	0.000709	7.093247	1.201629	-0.000142
1106	1.0995e+02	-2.0117	7.674595	0.000324	3.242627	0.549316	-0.000065
1107	1.1005e+02	-2.0313	7.553481	0.000608	6.079926	1.029967	-0.000122
1108	1.1015e+02	-2.0508	7.408144	0.000730	7.295912	1.235961	-0.000146
1109	1.1025e+02	-2.0703	7.311253	0.000486	4.863941	0.823974	-0.000097
1110	1.1035e+02	-2.0903	7.165916	0.000730	7.295912	1.235961	-0.000146
1111	1.1044e+02	-2.1114	7.073062	0.000466	4.661277	0.789642	-0.000093
1112	1.1054e+02	-2.1302	6.943873	0.000649	6.485255	1.098632	-0.000130
1113	1.1064e+02	-2.1502	6.830834	0.000567	5.674598	0.961303	-0.000114
1114	1.1074e+02	-2.1701	6.713757	0.000588	5.877262	0.995635	-0.000118
1115	1.1084e+02	-2.1912	6.564383	0.000750	7.498576	1.270293	-0.000150
1116	1.1094e+02	-2.2099	6.451343	0.000567	5.674598	0.961303	-0.000114
1117	1.1104e+02	-2.2298	6.334266	0.000588	5.877262	0.995635	-0.000118
1118	1.1114e+02	-2.2511	6.209115	0.000628	6.282591	1.064300	-0.000126
1119	1.1124e+02	-2.2687	6.075889	0.000669	6.687919	1.132964	-0.000134
1120	1.1134e+02	-2.2900	5.987072	0.000446	4.458613	0.755309	-0.000089
1121	1.1144e+02	-2.3097	5.845773	0.000709	7.093247	1.201629	-0.000142
1122	1.1154e+02	-2.3302	5.760993	0.000426	4.255948	0.720977	-0.000085
1123	1.1164e+02	-2.3496	5.583359	0.000892	8.917225	1.510619	-0.000179
1124	1.1174e+02	-2.3698	5.470319	0.000567	5.674598	0.961303	-0.000114
1125	1.1184e+02	-2.3895	5.353242	0.000588	5.877262	0.995635	-0.000118
1126	1.1194e+02	-2.4097	5.268462	0.000426	4.255948	0.720977	-0.000085
1127	1.1204e+02	-2.4300	5.106977	0.000811	8.106569	1.373290	-0.000162
1128	1.1214e+02	-2.4494	5.026234	0.000405	4.053284	0.686645	-0.000081
1129	1.1224e+02	-2.4701	4.893009	0.000669	6.687919	1.132964	-0.000134
1130	1.1234e+02	-2.4893	4.755746	0.000689	6.890583	1.167296	-0.000138
1131	1.1244e+02	-2.5094	4.642706	0.000567	5.674598	0.961303	-0.000114
1132	1.1253e+02	-2.5293	4.465072	0.000892	8.917225	1.510619	-0.000179
1133	1.1263e+02	-2.5489	4.384329	0.000405	4.053284	0.686645	-0.000081
1134	1.1273e+02	-2.5690	4.307624	0.000385	3.850620	0.652313	-0.000077
1135	1.1283e+02	-2.5884	4.158250	0.000750	7.498576	1.270293	-0.000150
1136	1.1293e+02	-2.6080	4.053284	0.000527	5.269270	0.892638	-0.000105
1137	1.1303e+02	-2.6292	3.899873	0.000770	7.701240	1.304625	-0.000154
1138	1.1313e+02	-2.6482	3.807019	0.000466	4.661277	0.789642	-0.000093
1139	1.1323e+02	-2.6694	3.677831	0.000649	6.485255	1.098632	-0.000130
1140	1.1333e+02	-2.6877	3.516345	0.000811	8.106569	1.373290	-0.000162
1141	1.1343e+02	-2.7081	3.467900	0.000243	2.431971	0.411987	-0.000049
1142	1.1353e+02	-2.7280	3.298340	0.000851	8.511897	1.441954	-0.000170
1143	1.1363e+02	-2.7472	3.189337	0.000547	5.471934	0.926971	-0.000110
1144	1.1373e+02	-2.7675	3.076297	0.000567	5.674598	0.961303	-0.000114
1145	1.1383e+02	-2.7870	2.930961	0.000730	7.295912	1.235961	-0.000146
1146	1.1393e+02	-2.8073	2.789661	0.000709	7.093247	1.201629	-0.000142
1147	1.1403e+02	-2.8276	2.688732	0.000507	5.066605	0.858306	-0.000101
1148	1.1413e+02	-2.8479	2.547433	0.000709	7.093247	1.201629	-0.000142
1149	1.1423e+02	-2.8674	2.458616	0.000446	4.458613	0.755309	-0.000089
1150	1.1433e+02	-2.8880	2.317316	0.000709	7.093247	1.201629	-0.000142
1151	1.1442e+02	-2.9073	2.232536	0.000426	4.255948	0.720977	-0.000085
1152	1.1452e+02	-2.9269	2.062976	0.000851	8.511897	1.441954	-0.000170
1153	1.1462e+02	-2.9463	1.990308	0.000365	3.647956	0.617980	-0.000073
1154	1.1472e+02	-2.9665	1.808637	0.000912	9.119890	1.544951	-0.000183
1155	1.1482e+02	-2.9863	1.707708	0.000507	5.066605	0.858306	-0.000101
1156	1.1492e+02	-3.0075	1.631003	0.000385	3.850620	0.652313	-0.000077
1157	1.1502e+02	-3.0270	1.469517	0.000811	8.106569	1.373290	-0.000162
1158	1.1512e+02	-3.0475	1.332255	0.000689	6.890583	1.167296	-0.000138
1159	1.1522e+02	-3.0669	1.239401	0.000466	4.661277	0.789642	-0.000093
1160	1.1532e+02	-3.0858	1.077915	0.000811	8.106569	1.373290	-0.000162
1161	1.1542e+02	-3.1070	0.985061	0.000466	4.661277	0.789642	-0.000093
1162	1.1552e+02	-3.1265	0.892207	0.000466	4.661277	0.789642	-0.000093
1163	1.1562e+02	-3.1467	0.706499	0.000932	9.322554	1.579283	-0.000187
1164	1.1572e+02	-3.1665	0.621719	0.000426	4.255948	0.720977	-0.000085
1165	1.1582e+02	-3.1863	0.504642	0.000588	5.877262	0.995635	-0.000118
1166	1.1592e+02	-3.2055	0.371416	0.000669	6.687919	1.132964	-0.000134
1167	1.1602e+02	-3.2266	0.262414	0.000547	5.471934	0.926971	-0.000110
1168	1.1612e+02	-3.2463	0.149374	0.000567	5.674598	0.961303	-0.000114
1169	1.1622e+02	-3.2661	0.036334	0.000567	5.674598	0.961303	-0.000114
1170	1.1632e+02	-3.2858	-0.084780	0.000608	6.079926	1.029967	-0.000122
1171	1.1642e+02	-3.3060	-0.205894	0.000608	6.079926	1.029967	-0.000122
1172	1.1651e+02	-3.3255	-0.391602	0.000932	9.322554	1.579283	-0.000187
1173	1.1661e+02	-3.3463	-0.460233	0.000345	3.445292	0.583648	-0.000069
1174	1.1671e+02	-3.3661	-0.569236	0.000547	5.471934	0.926971	-0.000110
1175	1.1681e+02	-3.3865	-0.706499	0.000689	6.890583	1.167296	-0.000138
1176	1.1691e+02	-3.4061	-0.791279	0.000426	4.255948	0.720977	-0.000085
1177	1.1701e+02	-3.4258	-0.932578	0.000709	7.093247	1.201629	-0.000142
1178	1.1711e+02	-3.4470	-1.025432	0.000466	4.661277	0.789642	-0.000093
1179	1.1721e+02	-3.4650	-1.170769	0.000730	7.295912	1.235961	-0.000146
1180	1.1731e+02	-3.4853	-1.275735	0.000527	5.269270	0.892638	-0.000105
1181	1.1741e+02	-3.5046	-1.388775	0.000567	5.674598	0.961303	-0.000114
1182	1.1751e+02	-3.5253	-1.526037	0.000689	6.890583	1.167296	-0.000138
1183	1.1761e+02	-3.5446	-1.667337	0.000709	7.093247	1.201629	-0.000142
1184	1.1771e+02	-3.5648	-1.756154	0.000446	4.458613	0.755309	-0.000089
1185	1.1781e+02	-3.5843	-1.857082	0.000507	5.066605	0.858306	-0.000101
1186	1.1791e+02	-3.6043	-1.994345	0.000689	6.890583	1.167296	-0.000138
1187	1.1801e+02	-3.6249	-2.087199	0.000466	4.661277	0.789642	-0.000093
1188	1.1811e+02	-3.6446	-2.236573	0.000750	7.498576	1.270293	-0.000150
1189	1.1821e+02	-3.6647	-2.337502	0.000507	5.066605	0.858306	-0.000101
1190	1.1831e+02	-3.6853	-2.450541	0.000567	5.674598	0.961303	-0.000114
1191	1.1841e+02	-3.7042	-2.551470	0.000507	5.066605	0.858306	-0.000101
1192	1.1850e+02	-3.7256	-2.652398	0.000507	5.066605	0.858306	-0.000101
1193	1.1860e+02	-3.7440	-2.805809	0.000770	7.701240	1.304625	-0.000154
1194	1.1870e+02	-3.7653	-2.918849	0.000567	5.674598	0.961303	-0.000114
1195	1.1880e+02	-3.7838	-3.060149	0.000709	7.093247	1.201629	-0.000142
1196	1.1890e+02	-3.8032	-3.165114	0.000527	5.269270	0.892638	-0.000105
1197	1.1900e+02	-3.8242	-3.302377	0.000689	6.890583	1.167296	-0.000138
1198	1.1910e+02	-3.8435	-3.387157	0.000426	4.255948	0.720977	-0.000085
1199	1.1920e+02	-3.8646	-3.508271	0.000608	6.079926	1.029967	-0.000122
1200	1.1930e+02	-3.8831	-3.633422	0.000628	6.282591	1.064300	-0.000126
1201	1.1940e+02	-3.9036	-3.714165	0.000405	4.053284	0.686645	-0.000081
1202	1.1950e+02	-3.9236	-3.851427	0.000689	6.890583	1.167296	-0.000138
1203	1.1960e+02	-3.9429	-4.012913	0.000811	8.106569	1.373290	-0.000162
1204	1.1970e+02	-3.9636	-4.085581	0.000365	3.647956	0.617980	-0.000073
1205	1.1980e+02	-3.9829	-4.218807	0.000669	6.687919	1.132964	-0.000134
1206	1.1990e+02	-4.0039	-4.335884	0.000588	5.877262	0.995635	-0.000118
1207	1.2000e+02	-4.0244	-4.412589	0.000385	3.850620	0.652313	-0.000077
1208	1.2010e+02	-4.0440	-4.570038	0.000790	7.903904	1.338958	-0.000158
1209	1.2020e+02	-4.0633	-4.666929	0.000486	4.863941	0.823974	-0.000097
1210	1.2030e+02	-4.0835	-4.784006	0.000588	5.877262	0.995635	-0.000118
1211	1.2039e+02	-4.1025	-4.917231	0.000669	6.687919	1.132964	-0.000134
1212	1.2049e+02	-4.1232	-5.050457	0.000669	6.687919	1.132964	-0.000134
1213	1.2059e+02	-4.1431	-5.163497	0.000567	5.674598	0.961303	-0.000114
1214	1.2069e+02	-4.1620	-5.256351	0.000466	4.661277	0.789642	-0.000093
1215	1.2079e+02	-4.1820	-5.401688	0.000730	7.295912	1.235961	-0.000146
1216	1.2089e+02	-4.2020	-5.502616	0.000507	5.066605	0.858306	-0.000101
1217	1.2099e+02	-4.2216	-5.631804	0.000649	6.485255	1.098632	-0.000130
1218	1.2109e+02	-4.2419	-5.716584	0.000426	4.255948	0.720977	-0.000085
1219	1.2119e+02	-4.2627	-5.849810	0.000669	6.687919	1.132964	-0.000134
1220	1.2129e+02	-4.2828	-5.954775	0.000527	5.269270	0.892638	-0.000105
1221	1.2139e+02	-4.3015	-6.059741	0.000527	5.269270	0.892638	-0.000105
1222	1.2149e+02	-4.3224	-6.152595	0.000466	4.661277	0.789642	-0.000093
1223	1.2159e+02	-4.3430	-6.273709	0.000608	6.079926	1.029967	-0.000122
1224	1.2169e+02	-4.3626	-6.378674	0.000527	5.269270	0.892638	-0.000105
1225	1.2179e+02	-4.3822	-6.544197	0.000831	8.309233	1.407622	-0.000166
1226	1.2189e+02	-4.4016	-6.657237	0.000567	5.674598	0.961303	-0.000114
1227	1.2199e+02	-4.4210	-6.737980	0.000405	4.053284	0.686645	-0.000081
1228	1.2209e+02	-4.4418	-6.842945	0.000527	5.269270	0.892638	-0.000105
1229	1.2219e+02	-4.4604	-6.976171	0.000669	6.687919	1.132964	-0.000134
1230	1.2229e+02	-4.4809	-7.048839	0.000365	3.647956	0.617980	-0.000073
1231	1.2239e+02	-4.5020	-7.182064	0.000669	6.687919	1.132964	-0.000134
1232	1.2248e+02	-4.5221	-7.303179	0.000608	6.079926	1.029967	-0.000122
1233	1.2258e+02	-4.5401	-7.428330	0.000628	6.282591	1.064300	-0.000126
1234	1.2268e+02	-4.5609	-7.565592	0.000689	6.890583	1.167296	-0.000138
1235	1.2278e+02	-4.5812	-7.646335	0.000405	4.053284	0.686645	-0.000081
1236	1.2288e+02	-4.6013	-7.763412	0.000588	5.877262	0.995635	-0.000118
1237	1.2298e+02	-4.6220	-7.856266	0.000466	4.661277	0.789642	-0.000093
1238	1.2308e+02	-4.6413	-8.005640	0.000750	7.498576	1.270293	-0.000150
1239	1.2318e+02	-4.6616	-8.086383	0.000405	4.053284	0.686645	-0.000081
1240	1.2328e+02	-4.6800	-8.199423	0.000567	5.674598	0.961303	-0.000114
1241	1.2338e+02	-4.7000	-8.312462	0.000567	5.674598	0.961303	-0.000114
1242	1.2348e+02	-4.7202	-8.445688	0.000669	6.687919	1.132964	-0.000134
1243	1.2358e+02	-4.7407	-8.570839	0.000628	6.282591	1.064300	-0.000126
1244	1.2368e+02	-4.7615	-8.643508	0.000365	3.647956	0.617980	-0.000073
1245	1.2378e+02	-4.7806	-8.792882	0.000750	7.498576	1.270293	-0.000150
1246	1.2388e+02	-4.8001	-8.905921	0.000567	5.674598	0.961303	-0.000114
1247	1.2398e+02	-4.8198	-8.998776	0.000466	4.661277	0.789642	-0.000093
1248	1.2408e+02	-4.8398	-9.132001	0.000669	6.687919	1.132964	-0.000134
1249	1.2418e+02	-4.8602	-9.265227	0.000669	6.687919	1.132964	-0.000134
1250	1.2428e+02	-4.8807	-9.354044	0.000446	4.458613	0.755309	-0.000089
1251	1.2438e+02	-4.9002	-9.454972	0.000507	5.066605	0.858306	-0.000101
1252	1.2447e+02	-4.9193	-9.596272	0.000709	7.093247	1.201629	-0.000142
1253	1.2457e+02	-4.9400	-9.709311	0.000567	5.674598	0.961303	-0.000114
1254	1.2467e+02	-4.9596	-9.850611	0.000709	7.093247	1.201629	-0.000142
1255	1.2477e+02	-4.9797	-9.947502	0.000486	4.863941	0.823974	-0.000097
1256	1.2487e+02	-5.0003	-10.028245	0.000405	4.053284	0.686645	-0.000081
1257	1.2497e+02	-5.0204	-10.185693	0.000790	7.903904	1.338958	-0.000158
1258	1.2507e+02	-5.0391	-10.314882	0.000649	6.485255	1.098632	-0.000130
1259	1.2517e+02	-5.0592	-10.444070	0.000649	6.485255	1.098632	-0.000130
1260	1.2527e+02	-5.0793	-10.565184	0.000608	6.079926	1.029967	-0.000122
1261	1.2537e+02	-5.0998	-10.670150	0.000527	5.269270	0.892638	-0.000105
1262	1.2547e+02	-5.1183	-10.775115	0.000527	5.269270	0.892638	-0.000105
1263	1.2557e+02	-5.1389	-10.928526	0.000770	7.701240	1.304625	-0.000154
1264	1.2567e+02	-5.1582	-11.021381	0.000466	4.661277	0.789642	-0.000093
1265	1.2577e+02	-5.1788	-11.158643	0.000689	6.890583	1.167296	-0.000138
1266	1.2587e+02	-5.1994	-11.275720	0.000588	5.877262	0.995635	-0.000118
1267	1.2597e+02	-5.2191	-11.408946	0.000669	6.687919	1.132964	-0.000134
1268	1.2607e+02	-5.2390	-11.526023	0.000588	5.877262	0.995635	-0.000118
1269	1.2617e+02	-5.2588	-11.659248	0.000669	6.687919	1.132964	-0.000134
1270	1.2627e+02	-5.2789	-11.788436	0.000649	6.485255	1.098632	-0.000130
1271	1.2636e+02	-5.2974	-11.881290	0.000466	4.661277	0.789642	-0.000093
1272	1.2646e+02	-5.3203	-11.986256	0.000527	5.269270	0.892638	-0.000105
1273	1.2656e+02	-5.3386	-12.095259	0.000547	5.471934	0.926971	-0.000110
1274	1.2666e+02	-5.3583	-12.236558	0.000709	7.093247	1.201629	-0.000142
1275	1.2676e+02	-5.3783	-12.337487	0.000507	5.066605	0.858306	-0.000101
1276	1.2686e+02	-5.3983	-12.490898	0.000770	7.701240	1.304625	-0.000154
1277	1.2696e+02	-5.4175	-12.607975	0.000588	5.877262	0.995635	-0.000118
1278	1.2706e+02	-5.4375	-12.680643	0.000365	3.647956	0.617980	-0.000073
1279	1.2716e+02	-5.4584	-12.817906	0.000689	6.890583	1.167296	-0.000138
1280	1.2726e+02	-5.4773	-12.959206	0.000709	7.093247	1.201629	-0.000142
1281	1.2736e+02	-5.4970	-13.112617	0.000770	7.701240	1.304625	-0.000154
1282	1.2746e+02	-5.5174	-13.205471	0.000466	4.661277	0.789642	-0.000093
1283	1.2756e+02	-5.5392	-13.302362	0.000486	4.863941	0.823974	-0.000097
1284	1.2766e+02	-5.5579	-13.500182	0.000993	9.930546	1.682280	-0.000199
1285	1.2776e+02	-5.5777	-13.617259	0.000588	5.877262	0.995635	-0.000118
1286	1.2786e+02	-5.5981	-13.689927	0.000365	3.647956	0.617980	-0.000073
1287	1.2796e+02	-5.6169	-13.815078	0.000628	6.282591	1.064300	-0.000126
1288	1.2806e+02	-5.6364	-13.968490	0.000770	7.701240	1.304625	-0.000154
1289	1.2816e+02	-5.6567	-14.101715	0.000669	6.687919	1.132964	-0.000134
1290	1.2826e+02	-5.6779	-14.202644	0.000507	5.066605	0.858306	-0.000101
1291	1.2835e+02	-5.6973	-14.343943	0.000709	7.093247	1.201629	-0.000142
1292	1.2845e+02	-5.7178	-14.461020	0.000588	5.877262	0.995635	-0.000118
1293	1.2855e+02	-5.7368	-14.549837	0.000446	4.458613	0.755309	-0.000089
1294	1.2865e+02	-5.7565	-14.735545	0.000932	9.322554	1.579283	-0.000187
1295	1.2875e+02	-5.7762	-14.832437	0.000486	4.863941	0.823974	-0.000097
1296	1.2885e+02	-5.7964	-14.977774	0.000730	7.295912	1.235961	-0.000146
1297	1.2895e+02	-5.8167	-15.082739	0.000527	5.269270	0.892638	-0.000105
1298	1.2905e+02	-5.8365	-15.244225	0.000811	8.106569	1.373290	-0.000162
1299	1.2915e+02	-5.8559	-15.365339	0.000608	6.079926	1.029967	-0.000122
1300	1.2925e+02	-5.8763	-15.478378	0.000567	5.674598	0.961303	-0.000114
1301	1.2935e+02	-5.8960	-15.603530	0.000628	6.282591	1.064300	-0.000126
1302	1.2945e+02	-5.9169	-15.744829	0.000709	7.093247	1.201629	-0.000142
1303	1.2955e+02	-5.9360	-15.902278	0.000790	7.903904	1.338958	-0.000158
1304	1.2965e+02	-5.9558	-15.995132	0.000466	4.661277	0.789642	-0.000093
1305	1.2975e+02	-5.9756	-16.160654	0.000831	8.309233	1.407622	-0.000166
1306	1.2985e+02	-5.9959	-16.293880	0.000669	6.687919	1.132964	-0.000134
1307	1.2995e+02	-6.0156	-16.427105	0.000669	6.687919	1.132964	-0.000134
1308	1.3005e+02	-6.0350	-16.560331	0.000669	6.687919	1.132964	-0.000134
1309	1.3015e+02	-6.0555	-16.665296	0.000527	5.269270	0.892638	-0.000105
1310	1.3025e+02	-6.0751	-16.806596	0.000709	7.093247	1.201629	-0.000142
1311	1.3034e+02	-6.0950	-16.919636	0.000567	5.674598	0.961303	-0.000114
1312	1.3044e+02	-6.1154	-17.064973	0.000730	7.295912	1.235961	-0.000146
1313	1.3054e+02	-6.1349	-17.210310	0.000730	7.295912	1.235961	-0.000146
1314	1.3064e+02	-6.1560	-17.339498	0.000649	6.485255	1.098632	-0.000130
1315	1.3074e+02	-6.1755	-17.529243	0.000953	9.525218	1.613616	-0.000191
1316	1.3084e+02	-6.1963	-17.678617	0.000750	7.498576	1.270293	-0.000150
1317	1.3094e+02	-6.2155	-17.791657	0.000567	5.674598	0.961303	-0.000114
1318	1.3104e+02	-6.2344	-17.912771	0.000608	6.079926	1.029967	-0.000122
1319	1.3114e+02	-6.2558	-18.021774	0.000547	5.471934	0.926971	-0.000110
1320	1.3124e+02	-6.2740	-18.195371	0.000871	8.714561	1.476287	-0.000174
1321	1.3134e+02	-6.2944	-18.340708	0.000730	7.295912	1.235961	-0.000146
1322	1.3144e+02	-6.3141	-18.482007	0.000709	7.093247	1.201629	-0.000142
1323	1.3154e+02	-6.3366	-18.611196	0.000649	6.485255	1.098632	-0.000130
1324	1.3164e+02	-6.3544	-18.764607	0.000770	7.701240	1.304625	-0.000154
1325	1.3174e+02	-6.3737	-18.889758	0.000628	6.282591	1.064300	-0.000126
1326	1.3184e+02	-6.3940	-19.018946	0.000649	6.485255	1.098632	-0.000130
1327	1.3194e+02	-6.4146	-19.192543	0.000871	8.714561	1.476287	-0.000174
1328	1.3204e+02	-6.4349	-19.313657	0.000608	6.079926	1.029967	-0.000122
1329	1.3214e+02	-6.4545	-19.458994	0.000730	7.295912	1.235961	-0.000146
1330	1.3224e+02	-6.4737	-19.563960	0.000527	5.269270	0.892638	-0.000105
1331	1.3234e+02	-6.4944	-19.753705	0.000953	9.525218	1.613616	-0.000191
1332	1.3243e+02	-6.5141	-19.890968	0.000689	6.890583	1.167296	-0.000138
1333	1.3253e+02	-6.5336	-20.072639	0.000912	9.119890	1.544951	-0.000183
1334	1.3263e+02	-6.5529	-20.193753	0.000608	6.079926	1.029967	-0.000122
1335	1.3273e+02	-6.5736	-20.339090	0.000730	7.295912	1.235961	-0.000146
1336	1.3283e+02	-6.5933	-20.472315	0.000669	6.687919	1.132964	-0.000134
1337	1.3293e+02	-6.6144	-20.666098	0.000973	9.727882	1.647948	-0.000195
1338	1.3303e+02	-6.6330	-20.791249	0.000628	6.282591	1.064300	-0.000126
1339	1.3313e+02	-6.6536	-20.924475	0.000669	6.687919	1.132964	-0.000134
1340	1.3323e+02	-6.6736	-21.053663	0.000649	6.485255	1.098632	-0.000130
1341	1.3333e+02	-6.6927	-21.255520	0.001013	10.133211	1.716612	-0.000203
1342	1.3343e+02	-6.7136	-21.368559	0.000567	5.674598	0.961303	-0.000114
1343	1.3353e+02	-6.7337	-21.538119	0.000851	8.511897	1.441954	-0.000170
1344	1.3363e+02	-6.7534	-21.671345	0.000669	6.687919	1.132964	-0.000134
1345	1.3373e+02	-6.7723	-21.832830	0.000811	8.106569	1.373290	-0.000162
1346	1.3383e+02	-6.7920	-21.986241	0.000770	7.701240	1.304625	-0.000154
1347	1.3393e+02	-6.8127	-22.139652	0.000770	7.701240	1.304625	-0.000154
1348	1.3403e+02	-6.8337	-22.313249	0.000871	8.714561	1.476287	-0.000174
1349	1.3413e+02	-6.8524	-22.442438	0.000649	6.485255	1.098632	-0.000130
1350	1.3423e+02	-6.8726	-22.579700	0.000689	6.890583	1.167296	-0.000138
1351	1.3432e+02	-6.8936	-22.749260	0.000851	8.511897	1.441954	-0.000170
1352	1.3442e+02	-6.9122	-22.878448	0.000649	6.485255	1.098632	-0.000130
1353	1.3452e+02	-6.9316	-23.048008	0.000851	8.511897	1.441954	-0.000170
1354	1.3462e+02	-6.9522	-23.213530	0.000831	8.309233	1.407622	-0.000166
1355	1.3472e+02	-6.9725	-23.383090	0.000851	8.511897	1.441954	-0.000170
1356	1.3482e+02	-6.9913	-23.548613	0.000831	8.309233	1.407622	-0.000166
1357	1.3492e+02	-7.0117	-23.726247	0.000892	8.917225	1.510619	-0.000179
1358	1.3502e+02	-7.0320	-23.851398	0.000628	6.282591	1.064300	-0.000126
1359	1.3512e+02	-7.0514	-24.041143	0.000953	9.525218	1.613616	-0.000191
1360	1.3522e+02	-7.0709	-24.182443	0.000709	7.093247	1.201629	-0.000142
1361	1.3532e+02	-7.0918	-24.372188	0.000953	9.525218	1.613616	-0.000191
1362	1.3542e+02	-7.1121	-24.513488	0.000709	7.093247	1.201629	-0.000142
1363	1.3552e+02	-7.1318	-24.666899	0.000770	7.701240	1.304625	-0.000154
1364	1.3562e+02	-7.1515	-24.872793	0.001034	10.335875	1.750945	-0.000207
1365	1.3572e+02	-7.1706	-25.030242	0.000790	7.903904	1.338958	-0.000158
1366	1.3582e+02	-7.1915	-25.203838	0.000871	8.714561	1.476287	-0.000174
1367	1.3592e+02	-7.2115	-25.341101	0.000689	6.890583	1.167296	-0.000138
1368	1.3602e+02	-7.2305	-25.542958	0.001013	10.133211	1.716612	-0.000203
1369	1.3612e+02	-7.2522	-25.704443	0.000811	8.106569	1.373290	-0.000162
1370	1.3622e+02	-7.2711	-25.861892	0.000790	7.903904	1.338958	-0.000158
1371	1.3631e+02	-7.2900	-26.047600	0.000932	9.322554	1.579283	-0.000187
1372	1.3641e+02	-7.3103	-26.213122	0.000831	8.309233	1.407622	-0.000166
1373	1.3651e+02	-7.3312	-26.374608	0.000811	8.106569	1.373290	-0.000162
1374	1.3661e+02	-7.3509	-26.544167	0.000851	8.511897	1.441954	-0.000170
1375	1.3671e+02	-7.3708	-26.754099	0.001054	10.538539	1.785277	-0.000211
1376	1.3681e+02	-7.3904	-26.947881	0.000973	9.727882	1.647948	-0.000195
1377	1.3691e+02	-7.4103	-27.093218	0.000730	7.295912	1.235961	-0.000146
1378	1.3701e+02	-7.4301	-27.315260	0.001115	11.146532	1.888274	-0.000223
1379	1.3711e+02	-7.4504	-27.420226	0.000527	5.269270	0.892638	-0.000105
1380	1.3721e+02	-7.4702	-27.642268	0.001115	11.146532	1.888274	-0.000223
1381	1.3731e+02	-7.4905	-27.799717	0.000790	7.903904	1.338958	-0.000158
1382	1.3741e+02	-7.5109	-27.989462	0.000953	9.525218	1.613616	-0.000191
1383	1.3751e+02	-7.5302	-28.183245	0.000973	9.727882	1.647948	-0.000195
1384	1.3761e+02	-7.5504	-28.324544	0.000709	7.093247	1.201629	-0.000142
1385	1.3771e+02	-7.5693	-28.522364	0.000993	9.930546	1.682280	-0.000199
1386	1.3781e+02	-7.5891	-28.675775	0.000770	7.701240	1.304625	-0.000154
1387	1.3791e+02	-7.6086	-28.922040	0.001236	12.362517	2.094267	-0.000248
1388	1.3801e+02	-7.6293	-29.039117	0.000588	5.877262	0.995635	-0.000118
1389	1.3811e+02	-7.6486	-29.240974	0.001013	10.133211	1.716612	-0.000203
1390	1.3821e+02	-7.6693	-29.422645	0.000912	9.119890	1.544951	-0.000183
1391	1.3831e+02	-7.6895	-29.612391	0.000953	9.525218	1.613616	-0.000191
1392	1.3840e+02	-7.7087	-29.802136	0.000953	9.525218	1.613616	-0.000191
1393	1.3850e+02	-7.7301	-30.020141	0.001094	10.943868	1.853941	-0.000219
1394	1.3860e+02	-7.7487	-30.185664	0.000831	8.309233	1.407622	-0.000166
1395	1.3870e+02	-7.7695	-30.379446	0.000973	9.727882	1.647948	-0.000195
1396	1.3880e+02	-7.7885	-30.605526	0.001135	11.349196	1.922606	-0.000227
1397	1.3890e+02	-7.8076	-30.779123	0.000871	8.714561	1.476287	-0.000174
1398	1.3900e+02	-7.8278	-30.997128	0.001094	10.943868	1.853941	-0.000219
1399	1.3910e+02	-7.8476	-31.190911	0.000973	9.727882	1.647948	-0.000195
1400	1.3920e+02	-7.8683	-31.332210	0.000709	7.093247	1.201629	-0.000142
1401	1.3930e+02	-7.8879	-31.525993	0.000973	9.727882	1.647948	-0.000195
1402	1.3940e+02	-7.9080	-31.735924	0.001054	10.538539	1.785277	-0.000211
1403	1.3950e+02	-7.9276	-31.901447	0.000831	8.309233	1.407622	-0.000166
1404	1.3960e+02	-7.9480	-32.196158	0.001479	14.794488	2.506254	-0.000296
1405	1.3970e+02	-7.9678	-32.345532	0.000750	7.498576	1.270293	-0.000150
1406	1.3980e+02	-7.9880	-32.547388	0.001013	10.133211	1.716612	-0.000203
1407	1.3990e+02	-8.0081	-32.761357	0.001074	10.741203	1.819609	-0.000215
1408	1.4000e+02	-8.0270	-32.967250	0.001034	10.335875	1.750945	-0.000207
1409	1.4010e+02	-8.0470	-33.144884	0.000892	8.917225	1.510619	-0.000179
1410	1.4020e+02	-8.0673	-33.383075	0.001196	11.957189	2.025603	-0.000239
1411	1.4029e+02	-8.0880	-33.568784	0.000932	9.322554	1.579283	-0.000187
1412	1.4039e+02	-8.1071	-33.754492	0.000932	9.322554	1.579283	-0.000187
1413	1.4049e+02	-8.1268	-33.984609	0.001155	11.551860	1.956938	-0.000231
1414	1.4059e+02	-8.1471	-34.222800	0.001196	11.957189	2.025603	-0.000239
1415	1.4069e+02	-8.1671	-34.424656	0.001013	10.133211	1.716612	-0.000203
1416	1.4079e+02	-8.1871	-34.622476	0.000993	9.930546	1.682280	-0.000199
1417	1.4089e+02	-8.2068	-34.824333	0.001013	10.133211	1.716612	-0.000203
1418	1.4099e+02	-8.2265	-35.058487	0.001175	11.754524	1.991270	-0.000235
1419	1.4109e+02	-8.2465	-35.316863	0.001297	12.970510	2.197264	-0.000260
1420	1.4119e+02	-8.2669	-35.510646	0.000973	9.727882	1.647948	-0.000195
1421	1.4129e+02	-8.2877	-35.704428	0.000973	9.727882	1.647948	-0.000195
1422	1.4139e+02	-8.3066	-35.962805	0.001297	12.970510	2.197264	-0.000260
1423	1.4149e+02	-8.3267	-36.205033	0.001216	12.159853	2.059935	-0.000243
1424	1.4159e+02	-8.3459	-36.394779	0.000953	9.525218	1.613616	-0.000191
1425	1.4169e+02	-8.3659	-36.645081	0.001257	12.565181	2.128599	-0.000252
1426	1.4179e+02	-8.3856	-36.871161	0.001135	11.349196	1.922606	-0.000227
1427	1.4189e+02	-8.4058	-37.109352	0.001196	11.957189	2.025603	-0.000239
1428	1.4199e+02	-8.4253	-37.335431	0.001135	11.349196	1.922606	-0.000227
1429	1.4209e+02	-8.4454	-37.593808	0.001297	12.970510	2.197264	-0.000260
1430	1.4219e+02	-8.4663	-37.791628	0.000993	9.930546	1.682280	-0.000199
1431	1.4228e+02	-8.4866	-38.050004	0.001297	12.970510	2.197264	-0.000260
1432	1.4238e+02	-8.5056	-38.268010	0.001094	10.943868	1.853941	-0.000219
1433	1.4248e+02	-8.5255	-38.542535	0.001378	13.781167	2.334593	-0.000276
1434	1.4258e+02	-8.5458	-38.760540	0.001094	10.943868	1.853941	-0.000219
1435	1.4268e+02	-8.5666	-39.006806	0.001236	12.362517	2.094267	-0.000248
1436	1.4278e+02	-8.5846	-39.261145	0.001277	12.767845	2.162932	-0.000256
1437	1.4288e+02	-8.6059	-39.483188	0.001115	11.146532	1.888274	-0.000223
1438	1.4298e+02	-8.6252	-39.757713	0.001378	13.781167	2.334593	-0.000276
1439	1.4308e+02	-8.6459	-39.987829	0.001155	11.551860	1.956938	-0.000231
1440	1.4318e+02	-8.6651	-40.242169	0.001277	12.767845	2.162932	-0.000256
1441	1.4328e+02	-8.6850	-40.532843	0.001459	14.591823	2.471922	-0.000292
1442	1.4338e+02	-8.7055	-40.775071	0.001216	12.159853	2.059935	-0.000243
1443	1.4348e+02	-8.7247	-40.989039	0.001074	10.741203	1.819609	-0.000215
1444	1.4358e+02	-8.7439	-41.215119	0.001135	11.349196	1.922606	-0.000227
1445	1.4368e+02	-8.7642	-41.513867	0.001500	14.997152	2.540586	-0.000300
1446	1.4378e+02	-8.7842	-41.752058	0.001196	11.957189	2.025603	-0.000239
1447	1.4388e+02	-8.8049	-42.034657	0.001419	14.186495	2.403257	-0.000284
1448	1.4398e+02	-8.8248	-42.280923	0.001236	12.362517	2.094267	-0.000248
1449	1.4408e+02	-8.8440	-42.583708	0.001520	15.199816	2.574919	-0.000304
1450	1.4418e+02	-8.8644	-42.825936	0.001216	12.159853	2.059935	-0.000243
1451	1.4428e+02	-8.8837	-43.100461	0.001378	13.781167	2.334593	-0.000276
1452	1.4437e+02	-8.9038	-43.370949	0.001358	13.578502	2.300261	-0.000272
1453	1.4447e+02	-8.9240	-43.653549	0.001419	14.186495	2.403257	-0.000284
1454	1.4457e+02	-8.9430	-43.928074	0.001378	13.781167	2.334593	-0.000276
1455	1.4467e+02	-8.9633	-44.154154	0.001135	11.349196	1.922606	-0.000227
1456	1.4477e+02	-8.9844	-44.481162	0.001642	16.415801	2.780912	-0.000329
1457	1.4487e+02	-9.0039	-44.751650	0.001358	13.578502	2.300261	-0.000272
1458	1.4497e+02	-9.0231	-45.001952	0.001257	12.565181	2.128599	-0.000252
1459	1.4507e+02	-9.0431	-45.308774	0.001540	15.402480	2.609251	-0.000308
1460	1.4517e+02	-9.0637	-45.611560	0.001520	15.199816	2.574919	-0.000304
1461	1.4527e+02	-9.0841	-45.882048	0.001358	13.578502	2.300261	-0.000272
1462	1.4537e+02	-9.1034	-46.188870	0.001540	15.402480	2.609251	-0.000308
1463	1.4547e+02	-9.1229	-46.459358	0.001358	13.578502	2.300261	-0.000272
1464	1.4557e+02	-9.1431	-46.762143	0.001520	15.199816	2.574919	-0.000304
1465	1.4567e+02	-9.1629	-47.060891	0.001500	14.997152	2.540586	-0.000300
1466	1.4577e+02	-9.1833	-47.347528	0.001439	14.389159	2.437590	-0.000288
1467	1.4587e+02	-9.2033	-47.670499	0.001621	16.213137	2.746580	-0.000325
1468	1.4597e+02	-9.2224	-47.969247	0.001500	14.997152	2.540586	-0.000300
1469	1.4607e+02	-9.2430	-48.247809	0.001398	13.983831	2.368925	-0.000280
1470	1.4617e+02	-9.2628	-48.538483	0.001459	14.591823	2.471922	-0.000292
1471	1.4626e+02	-9.2825	-48.853380	0.001581	15.807809	2.677915	-0.000316
1472	1.4636e+02	-9.3028	-49.148090	0.001479	14.794488	2.506254	-0.000296
1473	1.4646e+02	-9.3219	-49.458950	0.001561	15.605144	2.643583	-0.000312
1474	1.4656e+02	-9.3431	-49.789995	0.001662	16.618466	2.815244	-0.000333
1475	1.4666e+02	-9.3616	-50.088743	0.001500	14.997152	2.540586	-0.000300
1476	1.4676e+02	-9.3819	-50.444011	0.001783	17.834451	3.021238	-0.000357
1477	1.4686e+02	-9.4012	-50.775056	0.001662	16.618466	2.815244	-0.000333
1478	1.4696e+02	-9.4223	-51.110138	0.001682	16.821130	2.849577	-0.000337
1479	1.4706e+02	-9.4421	-51.412924	0.001520	15.199816	2.574919	-0.000304
1480	1.4716e+02	-9.4615	-51.727820	0.001581	15.807809	2.677915	-0.000316
1481	1.4726e+02	-9.4819	-52.091162	0.001824	18.239779	3.089902	-0.000365
1482	1.4736e+02	-9.5020	-52.385873	0.001479	14.794488	2.506254	-0.000296
1483	1.4746e+02	-9.5215	-52.769401	0.001925	19.253100	3.261563	-0.000385
1484	1.4756e+02	-9.5410	-53.080261	0.001561	15.605144	2.643583	-0.000312
1485	1.4766e+02	-9.5618	-53.447640	0.001844	18.442443	3.124235	-0.000369
1486	1.4776e+02	-9.5819	-53.758499	0.001561	15.605144	2.643583	-0.000312
1487	1.4786e+02	-9.6002	-54.125879	0.001844	18.442443	3.124235	-0.000369
1488	1.4796e+02	-9.6216	-54.460961	0.001682	16.821130	2.849577	-0.000337
1489	1.4806e+02	-9.6405	-54.820266	0.001804	18.037115	3.055570	-0.000361
1490	1.4816e+02	-9.6605	-55.151311	0.001662	16.618466	2.815244	-0.000333
1491	1.4825e+02	-9.6811	-55.534839	0.001925	19.253100	3.261563	-0.000385
1492	1.4835e+02	-9.7006	-55.873959	0.001702	17.023794	2.883909	-0.000341
1493	1.4845e+02	-9.7205	-56.257487	0.001925	19.253100	3.261563	-0.000385
1494	1.4855e+02	-9.7409	-56.600643	0.001723	17.226458	2.918241	-0.000345
1495	1.4865e+02	-9.7614	-56.943800	0.001723	17.226458	2.918241	-0.000345
1496	1.4875e+02	-9.7795	-57.303105	0.001804	18.037115	3.055570	-0.000361
1497	1.4885e+02	-9.8007	-57.710855	0.002047	20.469086	3.467557	-0.000410
1498	1.4895e+02	-9.8209	-58.058049	0.001743	17.429122	2.952573	-0.000349
1499	1.4905e+02	-9.8397	-58.449651	0.001966	19.658429	3.330228	-0.000394
1500	1.4915e+02	-9.8605	-58.829142	0.001905	19.050436	3.227231	-0.000381
1501	1.4925e+02	-9.8802	-59.224781	0.001986	19.861093	3.364560	-0.000398
1502	1.4935e+02	-9.8999	-59.588123	0.001824	18.239779	3.089902	-0.000365
1503	1.4945e+02	-9.9205	-59.983763	0.001986	19.861093	3.364560	-0.000398
1504	1.4955e+02	-9.9405	-60.367291	0.001925	19.253100	3.261563	-0.000385
1505	1.4965e+02	-9.9605	-60.779079	0.002067	20.671750	3.501889	-0.000414
1506	1.4975e+02	-9.9800	-61.182792	0.002027	20.266421	3.433225	-0.000406
1507	1.4985e+02	-10.0000	-61.574394	0.001966	19.658429	3.330228	-0.000394
1508	1.4995e+02	-9.9796	-61.808548	-0.001175	-11.754524	-1.991270	-0.000235
1509	1.5005e+02	-9.9588	-62.010405	-0.001013	-10.133211	-1.716612	-0.000203
1510	1.5015e+02	-9.9400	-62.260707	-0.001257	-12.565181	-2.128599	-0.000252
1511	1.5025e+02	-9.9199	-62.498898	-0.001196	-11.957189	-2.025603	-0.000239
1512	1.5034e+02	-9.9004	-62.644235	-0.000730	-7.295912	-1.235961	-0.000146
1513	1.5044e+02	-9.8807	-62.854166	-0.001054	-10.538539	-1.785277	-0.000211
1514	1.5054e+02	-9.8604	-63.035837	-0.000912	-9.119890	-1.544951	-0.000183
1515	1.5064e+02	-9.8396	-63.193286	-0.000790	-7.903904	-1.338958	-0.000158
1516	1.5074e+02	-9.8209	-63.346697	-0.000770	-7.701240	-1.304625	-0.000154
1517	1.5084e+02	-9.8010	-63.516257	-0.000851	-8.511897	-1.441954	-0.000170
1518	1.5094e+02	-9.7807	-63.697928	-0.000912	-9.119890	-1.544951	-0.000183
1519	1.5104e+02	-9.7614	-63.806930	-0.000547	-5.471934	-0.926971	-0.000110
1520	1.5114e+02	-9.7408	-63.928044	-0.000608	-6.079926	-1.029967	-0.000122
1521	1.5124e+02	-9.7205	-64.041084	-0.000567	-5.674598	-0.961303	-0.000114
1522	1.5134e+02	-9.7011	-64.178347	-0.000689	-6.890583	-1.167296	-0.000138
1523	1.5144e+02	-9.6814	-64.327721	-0.000750	-7.498576	-1.270293	-0.000150
1524	1.5154e+02	-9.6616	-64.416538	-0.000446	-4.458613	-0.755309	-0.000089
1525	1.5164e+02	-9.6404	-64.521503	-0.000527	-5.269270	-0.892638	-0.000105
1526	1.5174e+02	-9.6208	-64.626469	-0.000527	-5.269270	-0.892638	-0.000105
1527	1.5184e+02	-9.6013	-64.751620	-0.000628	-6.282591	-1.064300	-0.000126
1528	1.5194e+02	-9.5816	-64.852548	-0.000507	-5.066605	-0.858306	-0.000101
1529	1.5204e+02	-9.5612	-64.929254	-0.000385	-3.850620	-0.652313	-0.000077
1530	1.5214e+02	-9.5424	-65.030182	-0.000507	-5.066605	-0.858306	-0.000101
1531	1.5224e+02	-9.5212	-65.106888	-0.000385	-3.850620	-0.652313	-0.000077
1532	1.5233e+02	-9.5024	-65.183594	-0.000385	-3.850620	-0.652313	-0.000077
1533	1.5243e+02	-9.4815	-65.252225	-0.000345	-3.445292	-0.583648	-0.000069
1534	1.5253e+02	-9.4621	-65.345079	-0.000466	-4.661277	-0.789642	-0.000093
1535	1.5263e+02	-9.4421	-65.393525	-0.000243	-2.431971	-0.411987	-0.000049
1536	1.5273e+02	-9.4217	-65.454082	-0.000304	-3.039963	-0.514984	-0.000061
1537	1.5283e+02	-9.4022	-65.514639	-0.000304	-3.039963	-0.514984	-0.000061
1538	1.5293e+02	-9.3820	-65.542899	-0.000142	-1.418649	-0.240326	-0.000028
1539	1.5303e+02	-9.3614	-65.643827	-0.000507	-5.066605	-0.858306	-0.000101
1540	1.5313e+02	-9.3420	-65.692273	-0.000243	-2.431971	-0.411987	-0.000049
1541	1.5323e+02	-9.3219	-65.736681	-0.000223	-2.229306	-0.377655	-0.000045
1542	1.5333e+02	-9.3027	-65.793201	-0.000284	-2.837299	-0.480651	-0.000057
1543	1.5343e+02	-9.2822	-65.825498	-0.000162	-1.621314	-0.274658	-0.000032
1544	1.5353e+02	-9.2619	-65.882018	-0.000284	-2.837299	-0.480651	-0.000057
1545	1.5363e+02	-9.2432	-65.894130	-0.000061	-0.607993	-0.102997	-0.000012
1546	1.5373e+02	-9.2232	-65.942575	-0.000243	-2.431971	-0.411987	-0.000049
1547	1.5383e+02	-9.2029	-65.978909	-0.000182	-1.823978	-0.308990	-0.000037
1548	1.5393e+02	-9.1833	-66.003132	-0.000122	-1.215985	-0.205993	-0.000024
1549	1.5403e+02	-9.1623	-66.027355	-0.000122	-1.215985	-0.205993	-0.000024
1550	1.5413e+02	-9.1425	-66.051578	-0.000122	-1.215985	-0.205993	-0.000024
1551	1.5422e+02	-9.1223	-66.063689	-0.000061	-0.607993	-0.102997	-0.000012
1552	1.5432e+02	-9.1032	-66.108098	-0.000223	-2.229306	-0.377655	-0.000045
1553	1.5442e+02	-9.0832	-66.095986	0.000061	0.607993	0.102997	0.000012
1554	1.5452e+02	-9.0634	-66.160580	-0.000324	-3.242627	-0.549316	-0.000065
1555	1.5462e+02	-9.0430	-66.148469	0.000061	0.607993	0.102997	0.000012
1556	1.5472e+02	-9.0227	-66.132321	0.000081	0.810657	0.137329	0.000016
1557	1.5482e+02	-9.0034	-66.160580	-0.000142	-1.418649	-0.240326	-0.000028
1558	1.5492e+02	-8.9830	-66.144432	0.000081	0.810657	0.137329	0.000016
1559	1.5502e+02	-8.9630	-66.168655	-0.000122	-1.215985	-0.205993	-0.000024
1560	1.5512e+02	-8.9422	-66.196915	-0.000142	-1.418649	-0.240326	-0.000028
1561	1.5522e+02	-8.9240	-66.204989	-0.000041	-0.405328	-0.068664	-0.000008
1562	1.5532e+02	-8.9056	-66.229212	-0.000122	-1.215985	-0.205993	-0.000024
1563	1.5542e+02	-8.8834	-66.164618	0.000324	3.242627	0.549316	0.000065
1564	1.5552e+02	-8.8635	-66.164618	0.000000	0.000000	0.000000	0.000000
1565	1.5562e+02	-8.8443	-66.140395	0.000122	1.215985	0.205993	0.000024
1566	1.5572e+02	-8.8246	-66.164618	-0.000122	-1.215985	-0.205993	-0.000024
1567	1.5582e+02	-8.8036	-66.140395	0.000122	1.215985	0.205993	0.000024
1568	1.5592e+02	-8.7845	-66.144432	-0.000020	-0.202664	-0.034332	-0.000004
1569	1.5602e+02	-8.7646	-66.112135	0.000162	1.621314	0.274658	0.000032
1570	1.5612e+02	-8.7439	-66.116172	-0.000020	-0.202664	-0.034332	-0.000004
1571	1.5622e+02	-8.7251	-66.104061	0.000061	0.607993	0.102997	0.000012
1572	1.5631e+02	-8.7051	-66.051578	0.000263	2.634635	0.446319	0.000053
1573	1.5641e+02	-8.6850	-66.055615	-0.000020	-0.202664	-0.034332	-0.000004
1574	1.5651e+02	-8.6638	-66.059652	-0.000020	-0.202664	-0.034332	-0.000004
1575	1.5661e+02	-8.6450	-66.031392	0.000142	1.418649	0.240326	0.000028
1576	1.5671e+02	-8.6258	-65.978909	0.000263	2.634635	0.446319	0.000053
1577	1.5681e+02	-8.6060	-65.974872	0.000020	0.202664	0.034332	0.000004
1578	1.5691e+02	-8.5861	-65.934501	0.000203	2.026642	0.343322	0.000041
1579	1.5701e+02	-8.5660	-65.882018	0.000263	2.634635	0.446319	0.000053
1580	1.5711e+02	-8.5457	-65.890092	-0.000041	-0.405328	-0.068664	-0.000008
1581	1.5721e+02	-8.5257	-65.890092	0.000000	0.000000	0.000000	0.000000
1582	1.5731e+02	-8.5056	-65.837610	0.000263	2.634635	0.446319	0.000053
1583	1.5741e+02	-8.4851	-65.829535	0.000041	0.405328	0.068664	0.000008
1584	1.5751e+02	-8.4662	-65.809350	0.000101	1.013321	0.171661	0.000020
1585	1.5761e+02	-8.4448	-65.740718	0.000345	3.445292	0.583648	0.000069
1586	1.5771e+02	-8.4258	-65.744755	-0.000020	-0.202664	-0.034332	-0.000004
1587	1.5781e+02	-8.4068	-65.700347	0.000223	2.229306	0.377655	0.000045
1588	1.5791e+02	-8.3867	-65.639790	0.000304	3.039963	0.514984	0.000061
1589	1.5801e+02	-8.3661	-65.643827	-0.000020	-0.202664	-0.034332	-0.000004
1590	1.5811e+02	-8.3472	-65.579233	0.000324	3.242627	0.549316	0.000065
1591	1.5821e+02	-8.3266	-65.583270	-0.000020	-0.202664	-0.034332	-0.000004
1592	1.5830e+02	-8.3066	-65.530787	0.000263	2.634635	0.446319	0.000053
1593	1.5840e+02	-8.2872	-65.502527	0.000142	1.418649	0.240326	0.000028
1594	1.5850e+02	-8.2671	-65.429859	0.000365	3.647956	0.617980	0.000073
1595	1.5860e+02	-8.2466	-65.441970	-0.000061	-0.607993	-0.102997	-0.000012
1596	1.5870e+02	-8.2271	-65.341042	0.000507	5.066605	0.858306	0.000101
1597	1.5880e+02	-8.2083	-65.316819	0.000122	1.215985	0.205993	0.000024
1598	1.5890e+02	-8.1866	-65.284522	0.000162	1.621314	0.274658	0.000032
1599	1.5900e+02	-8.1674	-65.228002	0.000284	2.837299	0.480651	0.000057
1600	1.5910e+02	-8.1468	-65.195705	0.000162	1.621314	0.274658	0.000032
1601	1.5920e+02	-8.1274	-65.159371	0.000182	1.823978	0.308990	0.000037
1602	1.5930e+02	-8.1075	-65.139185	0.000101	1.013321	0.171661	0.000020
1603	1.5940e+02	-8.0879	-65.062480	0.000385	3.850620	0.652313	0.000077
1604	1.5950e+02	-8.0672	-65.001923	0.000304	3.039963	0.514984	0.000061
1605	1.5960e+02	-8.0463	-64.993848	0.000041	0.405328	0.068664	0.000008
1606	1.5970e+02	-8.0270	-64.921180	0.000365	3.647956	0.617980	0.000073
1607	1.5980e+02	-8.0077	-64.864660	0.000284	2.837299	0.480651	0.000057
1608	1.5990e+02	-7.9875	-64.836400	0.000142	1.418649	0.240326	0.000028
1609	1.6000e+02	-7.9675	-64.796029	0.000203	2.026642	0.343322	0.000041
1610	1.6010e+02	-7.9467	-64.735472	0.000304	3.039963	0.514984	0.000061
1611	1.6019e+02	-7.9288	-64.703174	0.000162	1.621314	0.274658	0.000032
1612	1.6029e+02	-7.9097	-64.622432	0.000405	4.053284	0.686645	0.000081
1613	1.6039e+02	-7.8880	-64.578023	0.000223	2.229306	0.377655	0.000045
1614	1.6049e+02	-7.8685	-64.541689	0.000182	1.823978	0.308990	0.000037
1615	1.6059e+02	-7.8487	-64.485169	0.000284	2.837299	0.480651	0.000057
1616	1.6069e+02	-7.8279	-64.432686	0.000263	2.634635	0.446319	0.000053
1617	1.6079e+02	-7.8079	-64.376166	0.000284	2.837299	0.480651	0.000057
1618	1.6089e+02	-7.7883	-64.299461	0.000385	3.850620	0.652313	0.000077
1619	1.6099e+02	-7.7684	-64.242941	0.000284	2.837299	0.480651	0.000057
1620	1.6109e+02	-7.7490	-64.186421	0.000284	2.837299	0.480651	0.000057
1621	1.6119e+02	-7.7290	-64.142013	0.000223	2.229306	0.377655	0.000045
1622	1.6129e+02	-7.7100	-64.065307	0.000385	3.850620	0.652313	0.000077
1623	1.6139e+02	-7.6894	-64.037047	0.000142	1.418649	0.240326	0.000028
1624	1.6149e+02	-7.6684	-63.940156	0.000486	4.863941	0.823974	0.000097
1625	1.6159e+02	-7.6474	-63.891710	0.000243	2.431971	0.411987	0.000049
1626	1.6169e+02	-7.6300	-63.855376	0.000182	1.823978	0.308990	0.000037
1627	1.6179e+02	-7.6083	-63.806930	0.000243	2.431971	0.411987	0.000049
1628	1.6189e+02	-7.5894	-63.738299	0.000345	3.445292	0.583648	0.000069
1629	1.6199e+02	-7.5690	-63.710039	0.000142	1.418649	0.240326	0.000028
1630	1.6209e+02	-7.5486	-63.641408	0.000345	3.445292	0.583648	0.000069
1631	1.6219e+02	-7.5299	-63.532405	0.000547	5.471934	0.926971	0.000110
1632	1.6228e+02	-7.5101	-63.487997	0.000223	2.229306	0.377655	0.000045
1633	1.6238e+02	-7.4908	-63.447625	0.000203	2.026642	0.343322	0.000041
1634	1.6248e+02	-7.4704	-63.374957	0.000365	3.647956	0.617980	0.000073
1635	1.6258e+02	-7.4500	-63.318437	0.000284	2.837299	0.480651	0.000057
1636	1.6268e+02	-7.4301	-63.237694	0.000405	4.053284	0.686645	0.000081
1637	1.6278e+02	-7.4095	-63.173100	0.000324	3.242627	0.549316	0.000065
1638	1.6288e+02	-7.3901	-63.156951	0.000081	0.810657	0.137329	0.000016
1639	1.6298e+02	-7.3705	-63.080246	0.000385	3.850620	0.652313	0.000077
1640	1.6308e+02	-7.3508	-63.023726	0.000284	2.837299	0.480651	0.000057
1641	1.6318e+02	-7.3307	-62.947020	0.000385	3.850620	0.652313	0.000077
1642	1.6328e+02	-7.3106	-62.890501	0.000284	2.837299	0.480651	0.000057
1643	1.6338e+02	-7.2906	-62.850129	0.000203	2.026642	0.343322	0.000041
1644	1.6348e+02	-7.2708	-62.761312	0.000446	4.458613	0.755309	0.000089
1645	1.6358e+02	-7.2516	-62.716904	0.000223	2.229306	0.377655	0.000045
1646	1.6368e+02	-7.2314	-62.636161	0.000405	4.053284	0.686645	0.000081
1647	1.6378e+02	-7.2110	-62.579641	0.000284	2.837299	0.480651	0.000057
1648	1.6388e+02	-7.1919	-62.535233	0.000223	2.229306	0.377655	0.000045
1649	1.6398e+02	-7.1710	-62.478713	0.000284	2.837299	0.480651	0.000057
1650	1.6408e+02	-7.1515	-62.402007	0.000385	3.850620	0.652313	0.000077
1651	1.6418e+02	-7.1326	-62.309153	0.000466	4.661277	0.789642	0.000093
1652	1.6427e+02	-7.1117	-62.317227	-0.000041	-0.405328	-0.068664	-0.000008
1653	1.6437e+02	-7.0914	-62.220336	0.000486	4.863941	0.823974	0.000097
1654	1.6447e+02	-7.0715	-62.103259	0.000588	5.877262	0.995635	0.000118
1655	1.6457e+02	-7.0512	-62.079036	0.000122	1.215985	0.205993	0.000024
1656	1.6467e+02	-7.0325	-62.002331	0.000385	3.850620	0.652313	0.000077
1657	1.6477e+02	-7.0120	-61.953885	0.000243	2.431971	0.411987	0.000049
1658	1.6487e+02	-6.9919	-61.929662	0.000122	1.215985	0.205993	0.000024
1659	1.6497e+02	-6.9720	-61.780288	0.000750	7.498576	1.270293	0.000150
1660	1.6507e+02	-6.9510	-61.739917	0.000203	2.026642	0.343322	0.000041
1661	1.6517e+02	-6.9318	-61.691471	0.000243	2.431971	0.411987	0.000049
1662	1.6527e+02	-6.9127	-61.643026	0.000243	2.431971	0.411987	0.000049
1663	1.6537e+02	-6.8915	-61.546134	0.000486	4.863941	0.823974	0.000097
1664	1.6547e+02	-6.8719	-61.497689	0.000243	2.431971	0.411987	0.000049
1665	1.6557e+02	-6.8518	-61.465392	0.000162	1.621314	0.274658	0.000032
1666	1.6567e+02	-6.8333	-61.352352	0.000567	5.674598	0.961303	0.000114
1667	1.6577e+02	-6.8134	-61.295832	0.000284	2.837299	0.480651	0.000057
1668	1.6587e+02	-6.7931	-61.219126	0.000385	3.850620	0.652313	0.000077
1669	1.6597e+02	-6.7728	-61.126272	0.000466	4.661277	0.789642	0.000093
1670	1.6607e+02	-6.7528	-61.025344	0.000507	5.066605	0.858306	0.000101
1671	1.6616e+02	-6.7331	-60.993047	0.000162	1.621314	0.274658	0.000032
1672	1.6626e+02	-6.7123	-60.936527	0.000284	2.837299	0.480651	0.000057
1673	1.6636e+02	-6.6930	-60.839636	0.000486	4.863941	0.823974	0.000097
1674	1.6646e+02	-6.6739	-60.815413	0.000122	1.215985	0.205993	0.000024
1675	1.6656e+02	-6.6527	-60.645853	0.000851	8.511897	1.441954	0.000170
1676	1.6666e+02	-6.6330	-60.629705	0.000081	0.810657	0.137329	0.000016
1677	1.6676e+02	-6.6127	-60.577222	0.000263	2.634635	0.446319	0.000053
1678	1.6686e+02	-6.5933	-60.492442	0.000426	4.255948	0.720977	0.000085
1679	1.6696e+02	-6.5735	-60.399588	0.000466	4.661277	0.789642	0.000093
1680	1.6706e+02	-6.5549	-60.302697	0.000486	4.863941	0.823974	0.000097
1681	1.6716e+02	-6.5337	-60.266362	0.000182	1.823978	0.308990	0.000037
1682	1.6726e+02	-6.5137	-60.169471	0.000486	4.863941	0.823974	0.000097
1683	1.6736e+02	-6.4938	-60.112951	0.000284	2.837299	0.480651	0.000057
1684	1.6746e+02	-6.4737	-60.003948	0.000547	5.471934	0.926971	0.000110
1685	1.6756e+02	-6.4536	-59.947429	0.000284	2.837299	0.480651	0.000057
1686	1.6766e+02	-6.4337	-59.911094	0.000182	1.823978	0.308990	0.000037
1687	1.6776e+02	-6.4139	-59.810166	0.000507	5.066605	0.858306	0.000101
1688	1.6786e+02	-6.3939	-59.757683	0.000263	2.634635	0.446319	0.000053
1689	1.6796e+02	-6.3736	-59.660792	0.000486	4.863941	0.823974	0.000097
1690	1.6806e+02	-6.3537	-59.576012	0.000426	4.255948	0.720977	0.000085
1691	1.6816e+02	-6.3347	-59.495269	0.000405	4.053284	0.686645	0.000081
1692	1.6825e+02	-6.3142	-59.446824	0.000243	2.431971	0.411987	0.000049
1693	1.6835e+02	-6.2952	-59.345895	0.000507	5.066605	0.858306	0.000101
1694	1.6845e+02	-6.2756	-59.277264	0.000345	3.445292	0.583648	0.000069
1695	1.6855e+02	-6.2543	-59.212670	0.000324	3.242627	0.549316	0.000065
1696	1.6865e+02	-6.2357	-59.144039	0.000345	3.445292	0.583648	0.000069
1697	1.6875e+02	-6.2149	-59.075407	0.000345	3.445292	0.583648	0.000069
1698	1.6885e+02	-6.1938	-58.966405	0.000547	5.471934	0.926971	0.000110
1699	1.6895e+02	-6.1749	-58.893736	0.000365	3.647956	0.617980	0.000073
1700	1.6905e+02	-6.1560	-58.817031	0.000385	3.850620	0.652313	0.000077
1701	1.6915e+02	-6.1356	-58.732251	0.000426	4.255948	0.720977	0.000085
1702	1.6925e+02	-6.1148	-58.699954	0.000162	1.621314	0.274658	0.000032
1703	1.6935e+02	-6.0954	-58.611137	0.000446	4.458613	0.755309	0.000089
1704	1.6945e+02	-6.0748	-58.530394	0.000405	4.053284	0.686645	0.000081
1705	1.6955e+02	-6.0550	-58.421391	0.000547	5.471934	0.926971	0.000110
1706	1.6965e+02	-6.0361	-58.340649	0.000405	4.053284	0.686645	0.000081
1707	1.6975e+02	-6.0168	-58.288166	0.000263	2.634635	0.446319	0.000053
1708	1.6985e+02	-5.9966	-58.211460	0.000385	3.850620	0.652313	0.000077
1709	1.6995e+02	-5.9758	-58.146866	0.000324	3.242627	0.549316	0.000065
1710	1.7005e+02	-5.9552	-58.041901	0.000527	5.269270	0.892638	0.000105
1711	1.7015e+02	-5.9355	-57.928861	0.000567	5.674598	0.961303	0.000114
1712	1.7024e+02	-5.9170	-57.888489	0.000203	2.026642	0.343322	0.000041
1713	1.7034e+02	-5.8957	-57.803709	0.000426	4.255948	0.720977	0.000085
1714	1.7044e+02	-5.8765	-57.718930	0.000426	4.255948	0.720977	0.000085
1715	1.7054e+02	-5.8559	-57.650298	0.000345	3.445292	0.583648	0.000069
1716	1.7064e+02	-5.8365	-57.537259	0.000567	5.674598	0.961303	0.000114
1717	1.7074e+02	-5.8163	-57.504961	0.000162	1.621314	0.274658	0.000032
1718	1.7084e+02	-5.7959	-57.404033	0.000507	5.066605	0.858306	0.000101
1719	1.7094e+02	-5.7758	-57.295030	0.000547	5.471934	0.926971	0.000110
1720	1.7104e+02	-5.7561	-57.214288	0.000405	4.053284	0.686645	0.000081
1721	1.7114e+02	-5.7367	-57.173916	0.000203	2.026642	0.343322	0.000041
1722	1.7124e+02	-5.7172	-57.060877	0.000567	5.674598	0.961303	0.000114
1723	1.7134e+02	-5.6973	-56.939762	0.000608	6.079926	1.029967	0.000122
1724	1.7144e+02	-5.6774	-56.891317	0.000243	2.431971	0.411987	0.000049
1725	1.7154e+02	-5.6570	-56.822686	0.000345	3.445292	0.583648	0.000069
1726	1.7164e+02	-5.6375	-56.725794	0.000486	4.863941	0.823974	0.000097
1727	1.7174e+02	-5.6181	-56.636977	0.000446	4.458613	0.755309	0.000089
1728	1.7184e+02	-5.5974	-56.548160	0.000446	4.458613	0.755309	0.000089
1729	1.7194e+02	-5.5768	-56.451269	0.000486	4.863941	0.823974	0.000097
1730	1.7204e+02	-5.5576	-56.378601	0.000365	3.647956	0.617980	0.000073
1731	1.7213e+02	-5.5370	-56.314006	0.000324	3.242627	0.549316	0.000065
1732	1.7223e+02	-5.5183	-56.209041	0.000527	5.269270	0.892638	0.000105
1733	1.7233e+02	-5.4975	-56.104075	0.000527	5.269270	0.892638	0.000105
1734	1.7243e+02	-5.4791	-56.035444	0.000345	3.445292	0.583648	0.000069
1735	1.7253e+02	-5.4564	-55.950664	0.000426	4.255948	0.720977	0.000085
1736	1.7263e+02	-5.4376	-55.821476	0.000649	6.485255	1.098632	0.000130
1737	1.7273e+02	-5.4175	-55.764956	0.000284	2.837299	0.480651	0.000057
1738	1.7283e+02	-5.3979	-55.692288	0.000365	3.647956	0.617980	0.000073
1739	1.7293e+02	-5.3787	-55.599433	0.000466	4.661277	0.789642	0.000093
1740	1.7303e+02	-5.3575	-55.486394	0.000567	5.674598	0.961303	0.000114
1741	1.7313e+02	-5.3383	-55.389502	0.000486	4.863941	0.823974	0.000097
1742	1.7323e+02	-5.3174	-55.373354	0.000081	0.810657	0.137329	0.000016
1743	1.7333e+02	-5.2982	-55.244165	0.000649	6.485255	1.098632	0.000130
1744	1.7343e+02	-5.2779	-55.119014	0.000628	6.282591	1.064300	0.000126
1745	1.7353e+02	-5.2579	-55.030197	0.000446	4.458613	0.755309	0.000089
1746	1.7363e+02	-5.2390	-54.949455	0.000405	4.053284	0.686645	0.000081
1747	1.7373e+02	-5.2182	-54.876786	0.000365	3.647956	0.617980	0.000073
1748	1.7383e+02	-5.1984	-54.751635	0.000628	6.282591	1.064300	0.000126
1749	1.7393e+02	-5.1788	-54.699152	0.000263	2.634635	0.446319	0.000053
1750	1.7403e+02	-5.1577	-54.614372	0.000426	4.255948	0.720977	0.000085
1751	1.7413e+02	-5.1394	-54.497295	0.000588	5.877262	0.995635	0.000118
1752	1.7422e+02	-5.1196	-54.416553	0.000405	4.053284	0.686645	0.000081
1753	1.7432e+02	-5.0989	-54.311587	0.000527	5.269270	0.892638	0.000105
1754	1.7442e+02	-5.0786	-54.226807	0.000426	4.255948	0.720977	0.000085
1755	1.7452e+02	-5.0595	-54.142027	0.000426	4.255948	0.720977	0.000085
1756	1.7462e+02	-5.0407	-54.045136	0.000486	4.863941	0.823974	0.000097
1757	1.7472e+02	-5.0200	-53.988616	0.000284	2.837299	0.480651	0.000057
1758	1.7482e+02	-4.9998	-53.915948	0.000365	3.647956	0.617980	0.000073
1759	1.7492e+02	-4.9792	-53.782722	0.000669	6.687919	1.132964	0.000134
1760	1.7502e+02	-4.9596	-53.718128	0.000324	3.242627	0.549316	0.000065
1761	1.7512e+02	-4.9397	-53.601051	0.000588	5.877262	0.995635	0.000118
1762	1.7522e+02	-4.9200	-53.496086	0.000527	5.269270	0.892638	0.000105
1763	1.7532e+02	-4.8998	-53.451677	0.000223	2.229306	0.377655	0.000045
1764	1.7542e+02	-4.8807	-53.322489	0.000649	6.485255	1.098632	0.000130
1765	1.7552e+02	-4.8608	-53.221560	0.000507	5.066605	0.858306	0.000101
1766	1.7562e+02	-4.8402	-53.128706	0.000466	4.661277	0.789642	0.000093
1767	1.7572e+02	-4.8206	-53.064112	0.000324	3.242627	0.549316	0.000065
1768	1.7582e+02	-4.7998	-52.983369	0.000405	4.053284	0.686645	0.000081
1769	1.7592e+02	-4.7806	-52.894552	0.000446	4.458613	0.755309	0.000089
1770	1.7602e+02	-4.7603	-52.797661	0.000486	4.863941	0.823974	0.000097
1771	1.7612e+02	-4.7403	-52.644250	0.000770	7.701240	1.304625	0.000154
1772	1.7621e+02	-4.7208	-52.632139	0.000061	0.607993	0.102997	0.000012
1773	1.7631e+02	-4.7009	-52.498913	0.000669	6.687919	1.132964	0.000134
1774	1.7641e+02	-4.6806	-52.438356	0.000304	3.039963	0.514984	0.000061
1775	1.7651e+02	-4.6613	-52.313205	0.000628	6.282591	1.064300	0.000126
1776	1.7661e+02	-4.6414	-52.228425	0.000426	4.255948	0.720977	0.000085
1777	1.7671e+02	-4.6207	-52.147682	0.000405	4.053284	0.686645	0.000081
1778	1.7681e+02	-4.6010	-52.054828	0.000466	4.661277	0.789642	0.000093
1779	1.7691e+02	-4.5815	-51.966011	0.000446	4.458613	0.755309	0.000089
1780	1.7701e+02	-4.5610	-51.828749	0.000689	6.890583	1.167296	0.000138
1781	1.7711e+02	-4.5410	-51.772229	0.000284	2.837299	0.480651	0.000057
1782	1.7721e+02	-4.5213	-51.667263	0.000527	5.269270	0.892638	0.000105
1783	1.7731e+02	-4.5016	-51.590558	0.000385	3.850620	0.652313	0.000077
1784	1.7741e+02	-4.4821	-51.469444	0.000608	6.079926	1.029967	0.000122
1785	1.7751e+02	-4.4615	-51.384664	0.000426	4.255948	0.720977	0.000085
1786	1.7761e+02	-4.4412	-51.267587	0.000588	5.877262	0.995635	0.000118
1787	1.7771e+02	-4.4220	-51.170695	0.000486	4.863941	0.823974	0.000097
1788	1.7781e+02	-4.4008	-51.077841	0.000466	4.661277	0.789642	0.000093
1789	1.7791e+02	-4.3826	-50.984987	0.000466	4.661277	0.789642	0.000093
1790	1.7801e+02	-4.3616	-50.900207	0.000426	4.255948	0.720977	0.000085
1791	1.7810e+02	-4.3427	-50.787168	0.000567	5.674598	0.961303	0.000114
1792	1.7820e+02	-4.3213	-50.686239	0.000507	5.066605	0.858306	0.000101
1793	1.7830e+02	-4.3022	-50.597422	0.000446	4.458613	0.755309	0.000089
1794	1.7840e+02	-4.2824	-50.516679	0.000405	4.053284	0.686645	0.000081
1795	1.7850e+02	-4.2624	-50.391528	0.000628	6.282591	1.064300	0.000126
1796	1.7860e+02	-4.2431	-50.302711	0.000446	4.458613	0.755309	0.000089
1797	1.7870e+02	-4.2220	-50.189671	0.000567	5.674598	0.961303	0.000114
1798	1.7880e+02	-4.2023	-50.112966	0.000385	3.850620	0.652313	0.000077
1799	1.7890e+02	-4.1820	-50.003963	0.000547	5.471934	0.926971	0.000110
1800	1.7900e+02	-4.1628	-49.907072	0.000486	4.863941	0.823974	0.000097
1801	1.7910e+02	-4.1430	-49.802106	0.000527	5.269270	0.892638	0.000105
1802	1.7920e+02	-4.1231	-49.725401	0.000385	3.850620	0.652313	0.000077
1803	1.7930e+02	-4.1022	-49.612361	0.000567	5.674598	0.961303	0.000114
1804	1.7940e+02	-4.0836	-49.547767	0.000324	3.242627	0.549316	0.000065
1805	1.7950e+02	-4.0628	-49.394356	0.000770	7.701240	1.304625	0.000154
1806	1.7960e+02	-4.0427	-49.317650	0.000385	3.850620	0.652313	0.000077
1807	1.7970e+02	-4.0234	-49.220759	0.000486	4.863941	0.823974	0.000097
1808	1.7980e+02	-4.0041	-49.131942	0.000446	4.458613	0.755309	0.000089
1809	1.7990e+02	-3.9821	-49.022939	0.000547	5.471934	0.926971	0.000110
1810	1.8000e+02	-3.9642	-48.958345	0.000324	3.242627	0.549316	0.000065
1811	1.8009e+02	-3.9434	-48.873565	0.000426	4.255948	0.720977	0.000085
1812	1.8019e+02	-3.9203	-48.740340	0.000669	6.687919	1.132964	0.000134
1813	1.8029e+02	-3.9041	-48.631337	0.000547	5.471934	0.926971	0.000110
1814	1.8039e+02	-3.8835	-48.578854	0.000263	2.634635	0.446319	0.000053
1815	1.8049e+02	-3.8634	-48.461777	0.000588	5.877262	0.995635	0.000118
1816	1.8059e+02	-3.8439	-48.364886	0.000486	4.863941	0.823974	0.000097
1817	1.8069e+02	-3.8238	-48.239735	0.000628	6.282591	1.064300	0.000126
1818	1.8079e+02	-3.8037	-48.154955	0.000426	4.255948	0.720977	0.000085
1819	1.8089e+02	-3.7844	-48.037878	0.000588	5.877262	0.995635	0.000118
1820	1.8099e+02	-3.7652	-48.025767	0.000061	0.607993	0.102997	0.000012
1821	1.8109e+02	-3.7441	-47.860244	0.000831	8.309233	1.407622	0.000166
1822	1.8119e+02	-3.7247	-47.775464	0.000426	4.255948	0.720977	0.000085
1823	1.8129e+02	-3.7051	-47.674536	0.000507	5.066605	0.858306	0.000101
1824	1.8139e+02	-3.6844	-47.581682	0.000466	4.661277	0.789642	0.000093
1825	1.8149e+02	-3.6646	-47.480753	0.000507	5.066605	0.858306	0.000101
1826	1.8159e+02	-3.6453	-47.375788	0.000527	5.269270	0.892638	0.000105
1827	1.8169e+02	-3.6249	-47.282934	0.000466	4.661277	0.789642	0.000093
1828	1.8179e+02	-3.6056	-47.210265	0.000365	3.647956	0.617980	0.000073
1829	1.8189e+02	-3.5846	-47.125485	0.000426	4.255948	0.720977	0.000085
1830	1.8199e+02	-3.5654	-46.980149	0.000730	7.295912	1.235961	0.000146
1831	1.8209e+02	-3.5457	-46.895369	0.000426	4.255948	0.720977	0.000085
1832	1.8218e+02	-3.5251	-46.794440	0.000507	5.066605	0.858306	0.000101
1833	1.8228e+02	-3.5049	-46.673326	0.000608	6.079926	1.029967	0.000122
1834	1.8238e+02	-3.4857	-46.608732	0.000324	3.242627	0.549316	0.000065
1835	1.8248e+02	-3.4654	-46.519915	0.000446	4.458613	0.755309	0.000089
1836	1.8258e+02	-3.4457	-46.362467	0.000790	7.903904	1.338958	0.000158
1837	1.8268e+02	-3.4253	-46.293836	0.000345	3.445292	0.583648	0.000069
1838	1.8278e+02	-3.4052	-46.205019	0.000446	4.458613	0.755309	0.000089
1839	1.8288e+02	-3.3853	-46.087942	0.000588	5.877262	0.995635	0.000118
1840	1.8298e+02	-3.3661	-45.970865	0.000588	5.877262	0.995635	0.000118
1841	1.8308e+02	-3.3462	-45.873973	0.000486	4.863941	0.823974	0.000097
1842	1.8318e+02	-3.3264	-45.760934	0.000567	5.674598	0.961303	0.000114
1843	1.8328e+02	-3.3057	-45.688265	0.000365	3.647956	0.617980	0.000073
1844	1.8338e+02	-3.2866	-45.575225	0.000567	5.674598	0.961303	0.000114
1845	1.8348e+02	-3.2655	-45.450074	0.000628	6.282591	1.064300	0.000126
1846	1.8358e+02	-3.2465	-45.328960	0.000608	6.079926	1.029967	0.000122
1847	1.8368e+02	-3.2259	-45.268403	0.000304	3.039963	0.514984	0.000061
1848	1.8378e+02	-3.2057	-45.155363	0.000567	5.674598	0.961303	0.000114
1849	1.8388e+02	-3.1854	-45.046361	0.000547	5.471934	0.926971	0.000110
1850	1.8398e+02	-3.1660	-44.929284	0.000588	5.877262	0.995635	0.000118
1851	1.8407e+02	-3.1478	-44.824318	0.000527	5.269270	0.892638	0.000105
1852	1.8417e+02	-3.1265	-44.727427	0.000486	4.863941	0.823974	0.000097
1853	1.8427e+02	-3.1059	-44.618424	0.000547	5.471934	0.926971	0.000110
1854	1.8437e+02	-3.0863	-44.549793	0.000345	3.445292	0.583648	0.000069
1855	1.8447e+02	-3.0678	-44.424642	0.000628	6.282591	1.064300	0.000126
1856	1.8457e+02	-3.0475	-44.311602	0.000567	5.674598	0.961303	0.000114
1857	1.8467e+02	-3.0255	-44.186451	0.000628	6.282591	1.064300	0.000126
1858	1.8477e+02	-3.0074	-44.093597	0.000466	4.661277	0.789642	0.000093
1859	1.8487e+02	-2.9878	-44.004780	0.000446	4.458613	0.755309	0.000089
1860	1.8497e+02	-2.9672	-43.911925	0.000466	4.661277	0.789642	0.000093
1861	1.8507e+02	-2.9465	-43.798886	0.000567	5.674598	0.961303	0.000114
1862	1.8517e+02	-2.9274	-43.657586	0.000709	7.093247	1.201629	0.000142
1863	1.8527e+02	-2.9073	-43.597029	0.000304	3.039963	0.514984	0.000061
1864	1.8537e+02	-2.8879	-43.475915	0.000608	6.079926	1.029967	0.000122
1865	1.8547e+02	-2.8672	-43.334615	0.000709	7.093247	1.201629	0.000142
1866	1.8557e+02	-2.8485	-43.245798	0.000446	4.458613	0.755309	0.000089
1867	1.8567e+02	-2.8281	-43.173130	0.000365	3.647956	0.617980	0.000073
1868	1.8577e+02	-2.8082	-43.035867	0.000689	6.890583	1.167296	0.000138
1869	1.8587e+02	-2.7873	-42.902641	0.000669	6.687919	1.132964	0.000134
1870	1.8597e+02	-2.7682	-42.846122	0.000284	2.837299	0.480651	0.000057
1871	1.8606e+02	-2.7484	-42.757305	0.000446	4.458613	0.755309	0.000089
1872	1.8616e+02	-2.7287	-42.603893	0.000770	7.701240	1.304625	0.000154
1873	1.8626e+02	-2.7087	-42.519114	0.000426	4.255948	0.720977	0.000085
1874	1.8636e+02	-2.6879	-42.438371	0.000405	4.053284	0.686645	0.000081
1875	1.8646e+02	-2.6685	-42.288997	0.000750	7.498576	1.270293	0.000150
1876	1.8656e+02	-2.6492	-42.196143	0.000466	4.661277	0.789642	0.000093
1877	1.8666e+02	-2.6279	-42.127511	0.000345	3.445292	0.583648	0.000069
1878	1.8676e+02	-2.6087	-41.957952	0.000851	8.511897	1.441954	0.000170
1879	1.8686e+02	-2.5883	-41.869135	0.000446	4.458613	0.755309	0.000089
1880	1.8696e+02	-2.5690	-41.764169	0.000527	5.269270	0.892638	0.000105
1881	1.8706e+02	-2.5492	-41.618832	0.000730	7.295912	1.235961	0.000146
1882	1.8716e+02	-2.5289	-41.546164	0.000365	3.647956	0.617980	0.000073
1883	1.8726e+02	-2.5085	-41.416976	0.000649	6.485255	1.098632	0.000130
1884	1.8736e+02	-2.4896	-41.324121	0.000466	4.661277	0.789642	0.000093
1885	1.8746e+02	-2.4690	-41.215119	0.000547	5.471934	0.926971	0.000110
1886	1.8756e+02	-2.4492	-41.110153	0.000527	5.269270	0.892638	0.000105
1887	1.8766e+02	-2.4298	-41.005188	0.000527	5.269270	0.892638	0.000105
1888	1.8776e+02	-2.4090	-40.863888	0.000709	7.093247	1.201629	0.000142
1889	1.8786e+02	-2.3895	-40.730662	0.000669	6.687919	1.132964	0.000134
1890	1.8796e+02	-2.3702	-40.641845	0.000446	4.458613	0.755309	0.000089
1891	1.8806e+02	-2.3494	-40.569177	0.000365	3.647956	0.617980	0.000073
1892	1.8815e+02	-2.3296	-40.411729	0.000790	7.903904	1.338958	0.000158
1893	1.8825e+02	-2.3101	-40.318875	0.000466	4.661277	0.789642	0.000093
1894	1.8835e+02	-2.2904	-40.185649	0.000669	6.687919	1.132964	0.000134
1895	1.8845e+02	-2.2701	-40.108944	0.000385	3.850620	0.652313	0.000077
1896	1.8855e+02	-2.2498	-39.987829	0.000608	6.079926	1.029967	0.000122
1897	1.8865e+02	-2.2301	-39.878827	0.000547	5.471934	0.926971	0.000110
1898	1.8875e+02	-2.2104	-39.753676	0.000628	6.282591	1.064300	0.000126
1899	1.8885e+02	-2.1914	-39.636599	0.000588	5.877262	0.995635	0.000118
1900	1.8895e+02	-2.1704	-39.535670	0.000507	5.066605	0.858306	0.000101
1901	1.8905e+02	-2.1512	-39.422630	0.000567	5.674598	0.961303	0.000114
1902	1.8915e+02	-2.1315	-39.269219	0.000770	7.701240	1.304625	0.000154
1903	1.8925e+02	-2.1104	-39.172328	0.000486	4.863941	0.823974	0.000097
1904	1.8935e+02	-2.0925	-39.059288	0.000567	5.674598	0.961303	0.000114
1905	1.8945e+02	-2.0705	-38.938174	0.000608	6.079926	1.029967	0.000122
1906	1.8955e+02	-2.0501	-38.792837	0.000730	7.295912	1.235961	0.000146
1907	1.8965e+02	-2.0307	-38.720169	0.000365	3.647956	0.617980	0.000073
1908	1.8975e+02	-2.0103	-38.595018	0.000628	6.282591	1.064300	0.000126
1909	1.8985e+02	-1.9908	-38.486015	0.000547	5.471934	0.926971	0.000110
1910	1.8995e+02	-1.9711	-38.401235	0.000426	4.255948	0.720977	0.000085
1911	1.9004e+02	-1.9507	-38.263973	0.000689	6.890583	1.167296	0.000138
1912	1.9014e+02	-1.9312	-38.146896	0.000588	5.877262	0.995635	0.000118
1913	1.9024e+02	-1.9107	-38.025782	0.000608	6.079926	1.029967	0.000122
1914	1.9034e+02	-1.8911	-37.884482	0.000709	7.093247	1.201629	0.000142
1915	1.9044e+02	-1.8716	-37.819888	0.000324	3.242627	0.549316	0.000065
1916	1.9054e+02	-1.8517	-37.682625	0.000689	6.890583	1.167296	0.000138
1917	1.9064e+02	-1.8314	-37.533251	0.000750	7.498576	1.270293	0.000150
1918	1.9074e+02	-1.8124	-37.444434	0.000446	4.458613	0.755309	0.000089
1919	1.9084e+02	-1.7917	-37.303134	0.000709	7.093247	1.201629	0.000142
1920	1.9094e+02	-1.7727	-37.182020	0.000608	6.079926	1.029967	0.000122
1921	1.9104e+02	-1.7518	-37.125500	0.000284	2.837299	0.480651	0.000057
1922	1.9114e+02	-1.7319	-37.008423	0.000588	5.877262	0.995635	0.000118
1923	1.9124e+02	-1.7110	-36.887309	0.000608	6.079926	1.029967	0.000122
1924	1.9134e+02	-1.6921	-36.750047	0.000689	6.890583	1.167296	0.000138
1925	1.9144e+02	-1.6724	-36.604710	0.000730	7.295912	1.235961	0.000146
1926	1.9154e+02	-1.6530	-36.523967	0.000405	4.053284	0.686645	0.000081
1927	1.9164e+02	-1.6321	-36.402853	0.000608	6.079926	1.029967	0.000122
1928	1.9174e+02	-1.6125	-36.285776	0.000588	5.877262	0.995635	0.000118
1929	1.9184e+02	-1.5928	-36.172736	0.000567	5.674598	0.961303	0.000114
1930	1.9194e+02	-1.5730	-36.055659	0.000588	5.877262	0.995635	0.000118
1931	1.9203e+02	-1.5521	-35.918397	0.000689	6.890583	1.167296	0.000138
1932	1.9213e+02	-1.5329	-35.809394	0.000547	5.471934	0.926971	0.000110
1933	1.9223e+02	-1.5132	-35.736726	0.000365	3.647956	0.617980	0.000073
1934	1.9233e+02	-1.4927	-35.559092	0.000892	8.917225	1.510619	0.000179
1935	1.9243e+02	-1.4738	-35.482386	0.000385	3.850620	0.652313	0.000077
1936	1.9253e+02	-1.4539	-35.341086	0.000709	7.093247	1.201629	0.000142
1937	1.9263e+02	-1.4337	-35.211898	0.000649	6.485255	1.098632	0.000130
1938	1.9273e+02	-1.4127	-35.094821	0.000588	5.877262	0.995635	0.000118
1939	1.9283e+02	-1.3934	-35.006004	0.000446	4.458613	0.755309	0.000089
1940	1.9293e+02	-1.3734	-34.880853	0.000628	6.282591	1.064300	0.000126
1941	1.9303e+02	-1.3535	-34.751664	0.000649	6.485255	1.098632	0.000130
1942	1.9313e+02	-1.3336	-34.642662	0.000547	5.471934	0.926971	0.000110
1943	1.9323e+02	-1.3141	-34.517511	0.000628	6.282591	1.064300	0.000126
1944	1.9333e+02	-1.2930	-34.432731	0.000426	4.255948	0.720977	0.000085
1945	1.9343e+02	-1.2735	-34.303542	0.000649	6.485255	1.098632	0.000130
1946	1.9353e+02	-1.2542	-34.182428	0.000608	6.079926	1.029967	0.000122
1947	1.9363e+02	-1.2344	-34.029017	0.000770	7.701240	1.304625	0.000154
1948	1.9373e+02	-1.2141	-33.944237	0.000426	4.255948	0.720977	0.000085
1949	1.9383e+02	-1.1943	-33.823123	0.000608	6.079926	1.029967	0.000122
1950	1.9393e+02	-1.1742	-33.681823	0.000709	7.093247	1.201629	0.000142
1951	1.9403e+02	-1.1550	-33.601081	0.000405	4.053284	0.686645	0.000081
1952	1.9412e+02	-1.1341	-33.488041	0.000567	5.674598	0.961303	0.000114
1953	1.9422e+02	-1.1149	-33.342704	0.000730	7.295912	1.235961	0.000146
1954	1.9432e+02	-1.0944	-33.245813	0.000486	4.863941	0.823974	0.000097
1955	1.9442e+02	-1.0738	-33.124699	0.000608	6.079926	1.029967	0.000122
1956	1.9452e+02	-1.0548	-32.991473	0.000669	6.687919	1.132964	0.000134
1957	1.9462e+02	-1.0348	-32.894582	0.000486	4.863941	0.823974	0.000097
1958	1.9472e+02	-1.0160	-32.725022	0.000851	8.511897	1.441954	0.000170
1959	1.9482e+02	-0.9952	-32.656391	0.000345	3.445292	0.583648	0.000069
1960	1.9492e+02	-0.9749	-32.502980	0.000770	7.701240	1.304625	0.000154
1961	1.9502e+02	-0.9541	-32.365717	0.000689	6.890583	1.167296	0.000138
1962	1.9512e+02	-0.9351	-32.280937	0.000426	4.255948	0.720977	0.000085
1963	1.9522e+02	-0.9154	-32.159823	0.000608	6.079926	1.029967	0.000122
1964	1.9532e+02	-0.8958	-32.058895	0.000507	5.066605	0.858306	0.000101
1965	1.9542e+02	-0.8746	-31.905484	0.000770	7.701240	1.304625	0.000154
1966	1.9552e+02	-0.8551	-31.840890	0.000324	3.242627	0.549316	0.000065
1967	1.9562e+02	-0.8356	-31.675367	0.000831	8.309233	1.407622	0.000166
1968	1.9572e+02	-0.8151	-31.546179	0.000649	6.485255	1.098632	0.000130
1969	1.9582e+02	-0.7951	-31.457362	0.000446	4.458613	0.755309	0.000089
1970	1.9592e+02	-0.7763	-31.316062	0.000709	7.093247	1.201629	0.000142
1971	1.9601e+02	-0.7556	-31.190911	0.000628	6.282591	1.064300	0.000126
1972	1.9611e+02	-0.7353	-31.065760	0.000628	6.282591	1.064300	0.000126
1973	1.9621e+02	-0.7159	-30.960794	0.000527	5.269270	0.892638	0.000105
1974	1.9631e+02	-0.6963	-30.811420	0.000750	7.498576	1.270293	0.000150
1975	1.9641e+02	-0.6767	-30.726640	0.000426	4.255948	0.720977	0.000085
1976	1.9651e+02	-0.6566	-30.609563	0.000588	5.877262	0.995635	0.000118
1977	1.9661e+02	-0.6364	-30.492486	0.000588	5.877262	0.995635	0.000118
1978	1.9671e+02	-0.6168	-30.391558	0.000507	5.066605	0.858306	0.000101
1979	1.9681e+02	-0.5957	-30.254295	0.000689	6.890583	1.167296	0.000138
1980	1.9691e+02	-0.5768	-30.153367	0.000507	5.066605	0.858306	0.000101
1981	1.9701e+02	-0.5567	-30.024178	0.000649	6.485255	1.098632	0.000130
1982	1.9711e+02	-0.5373	-29.943436	0.000405	4.053284	0.686645	0.000081
1983	1.9721e+02	-0.5161	-29.785987	0.000790	7.903904	1.338958	0.000158
1984	1.9731e+02	-0.4964	-29.676985	0.000547	5.471934	0.926971	0.000110
1985	1.9741e+02	-0.4762	-29.559908	0.000588	5.877262	0.995635	0.000118
1986	1.9751e+02	-0.4566	-29.426682	0.000669	6.687919	1.132964	0.000134
1987	1.9761e+02	-0.4378	-29.281346	0.000730	7.295912	1.235961	0.000146
1988	1.9771e+02	-0.4169	-29.200603	0.000405	4.053284	0.686645	0.000081
1989	1.9781e+02	-0.3974	-29.079489	0.000608	6.079926	1.029967	0.000122
1990	1.9791e+02	-0.3776	-28.958375	0.000608	6.079926	1.029967	0.000122
1991	1.9800e+02	-0.3571	-28.845335	0.000567	5.674598	0.961303	0.000114
1992	1.9810e+02	-0.3373	-28.720184	0.000628	6.282591	1.064300	0.000126
1993	1.9820e+02	-0.3165	-28.651552	0.000345	3.445292	0.583648	0.000069
1994	1.9830e+02	-0.2977	-28.510253	0.000709	7.093247	1.201629	0.000142
1995	1.9840e+02	-0.2773	-28.377027	0.000669	6.687919	1.132964	0.000134
1996	1.9850e+02	-0.2572	-28.288210	0.000446	4.458613	0.755309	0.000089
1997	1.9860e+02	-0.2383	-28.159022	0.000649	6.485255	1.098632	0.000130
1998	1.9870e+02	-0.2176	-28.037908	0.000608	6.079926	1.029967	0.000122
1999	1.9880e+02	-0.1980	-27.928905	0.000547	5.471934	0.926971	0.000110
2000	1.9890e+02	-0.1780	-27.811828	0.000588	5.877262	0.995635	0.000118
2001	1.9900e+02	-0.1585	-27.662454	0.000750	7.498576	1.270293	0.000150
2002	1.9910e+02	-0.1369	-27.585748	0.000385	3.850620	0.652313	0.000077
2003	1.9920e+02	-0.1176	-27.444449	0.000709	7.093247	1.201629	0.000142
2004	1.9930e+02	-0.0980	-27.359669	0.000426	4.255948	0.720977	0.000085
2005	1.9940e+02	-0.0784	-27.234518	0.000628	6.282591	1.064300	0.000126
2006	1.9950e+02	-0.0580	-27.133589	0.000507	5.066605	0.858306	0.000101
2007	1.9960e+02	-0.0381	-26.976141	0.000790	7.903904	1.338958	0.000158
2008	1.9970e+02	-0.0177	-26.842916	0.000669	6.687919	1.132964	0.000134
2009	1.9980e+02	-0.0001	-26.770247	0.000669	6.687919	1.132964	0.000073

PMax (uC/cm2):	4.99e+01
Pr (uC/cm2):	3.64e+00
-Pr (uC/cm2):	-4.31e+01
PLoss (uC/cm2):	-4.31e+01
-Vc:	-5.93e-01
C (Max-Eff) (nF):	4.99e-01
K (Eff):	8.46e+02
Vert. (+/-Pr) Shift (uC/cm2):	-1.97e+01
Offset (uC/cm2):	-1.63e+01

A (Loop Area - uC/cm2·Volts):	-1.91e-01



Hysteresis Version: 5.48.1 - Radiant Technologies, Inc., 1999 - 9/12/24

