»»»»»»»»»»»»»»»»»»»»»»»»»»»»»»»»»»»» Hysteresis ««««««««««««««««««««««««««««««««««««
»»»  Executed Version:	5.48.1
»»»  Vision Version:	5.48.4 (R)
»»»  Vision Compiled:	9/18/24
»»»  Driver Version:	5.47.0
»»»  Windows Version:	Windows 8 or 8.1
»»»  Processor Information:	x86 (AMD or Intel) - 32 Processors
»»»  Tester Name:	PMF21124-494 (100V)
»»»  Tester S/N:	PMF21124-494
»»»  Internal Amp Type:	100V RevK 270k
»»»  Internal Amp S/N:	iAB2-596/K     
»»»  Execution Count:	1
»»»»»»»»»»»»»»»»»»»»»»»»»»»»»»»»»»»»»»»»»»««««««««««««««««««««««««««««««««««««««««««

Stored:	7/7/2025 - 14:2:39
Configured:	07/07/25 01:27:50 PM
Executed:	07/07/25 02:02:11 PM

»»»»»»»»»»»»»»»»»»»»»»»»»»»»»»»»»»» Sample Info ««««««««««««««««««««««««««««««««««««
Sample Name:	
Lot Name:	
Wafer Name:	
Die Row/Column:	0/0
Capacitor Number:	0
Sample Area (cm2):	1.00e-04
Sample Thickness (microns):	1.50e-01

Amplifier:	Internal

»»»»»»»»»»»»»»»»»»»»»»»»»»»»»»»»»»» Tester Info «««««««««««««««««««««««««««««««««««
Tester Name:	PMF21124-494 (100V)
Tester Serial Number:	PMF21124-494
Return Signal Amp. Level:	0.19 [Index: 3]

»»»»»»»»»»»»»»»»»»»»»»»»»»»»»»»» Hysteresis Info ««««««««««««««««««««««««««««««««««
Task Name:	Hyst-528
Volts:	10.00
Field:	666.67 (kV/cm)
DCBias:	0.00
DCField:	0.00 (kV/cm)
Hysteresis Period (ms):	2.00e+02
Preset:	Enabled
Preset Delay (ms):	1.00e+03
Profile:	Standard Bipolar

»»»»»»»»»»»»»»»»»»»»»»»»»»»»»»»»»»»»»» Data «««««««««««««««««««««««««««««««««««««««
Points:	2009

Valid Data

Point	Time (ms)	Drive Voltage	Measured Polarization (uC/cm2)	Capacitance (uF)	Normalized Capacitance (uF/cm2)	Dielectric Constant	Instantaneous Current (mA)
   1	0.0000e+00	0.0003	0.377472	0.000831	8.310025	1.407756	0.000166
   2	9.9500e-02	0.0193	0.542995	0.000831	8.310025	1.407756	0.000166
   3	1.9900e-01	0.0391	0.664109	0.000608	6.080506	1.030066	0.000122
   4	2.9850e-01	0.0630	0.813483	0.000750	7.499291	1.270414	0.000150
   5	3.9800e-01	0.0797	0.954783	0.000709	7.093924	1.201743	0.000142
   6	4.9750e-01	0.1001	1.071860	0.000588	5.877823	0.995730	0.000118
   7	5.9700e-01	0.1193	1.184899	0.000568	5.675139	0.961395	0.000114
   8	6.9650e-01	0.1382	1.334273	0.000750	7.499291	1.270414	0.000150
   9	7.9600e-01	0.1596	1.423090	0.000446	4.459038	0.755381	0.000089
  10	8.9550e-01	0.1781	1.580539	0.000790	7.904658	1.339085	0.000158
  11	9.9500e-01	0.1984	1.721838	0.000709	7.093924	1.201743	0.000142
  12	1.0945e+00	0.2187	1.798544	0.000385	3.850987	0.652375	0.000077
  13	1.1940e+00	0.2397	1.960029	0.000811	8.107342	1.373421	0.000162
  14	1.2935e+00	0.2586	2.121515	0.000811	8.107342	1.373421	0.000162
  15	1.3930e+00	0.2775	2.262815	0.000709	7.093924	1.201743	0.000142
  16	1.4925e+00	0.2979	2.351632	0.000446	4.459038	0.755381	0.000089
  17	1.5920e+00	0.3185	2.517154	0.000831	8.310025	1.407756	0.000166
  18	1.6915e+00	0.3383	2.654417	0.000689	6.891240	1.167408	0.000138
  19	1.7910e+00	0.3577	2.828014	0.000872	8.715392	1.476427	0.000174
  20	1.8905e+00	0.3786	2.937016	0.000547	5.472456	0.927059	0.000110
  21	1.9900e+00	0.3980	3.054093	0.000588	5.877823	0.995730	0.000118
  22	2.0895e+00	0.4179	3.203467	0.000750	7.499291	1.270414	0.000150
  23	2.1890e+00	0.4382	3.296321	0.000466	4.661721	0.789717	0.000093
  24	2.2885e+00	0.4582	3.449732	0.000770	7.701975	1.304750	0.000154
  25	2.3880e+00	0.4781	3.591032	0.000709	7.093924	1.201743	0.000142
  26	2.4875e+00	0.4983	3.764629	0.000872	8.715392	1.476427	0.000174
  27	2.5870e+00	0.5180	3.845372	0.000405	4.053671	0.686710	0.000081
  28	2.6865e+00	0.5382	4.010894	0.000831	8.310025	1.407756	0.000166
  29	2.7860e+00	0.5584	4.144120	0.000669	6.688557	1.133072	0.000134
  30	2.8855e+00	0.5776	4.337902	0.000973	9.728810	1.648105	0.000195
  31	2.9850e+00	0.5977	4.442868	0.000527	5.269772	0.892724	0.000105
  32	3.0845e+00	0.6175	4.568019	0.000628	6.283190	1.064401	0.000126
  33	3.1840e+00	0.6383	4.741616	0.000872	8.715392	1.476427	0.000174
  34	3.2835e+00	0.6570	4.846581	0.000527	5.269772	0.892724	0.000105
  35	3.3830e+00	0.6769	5.012104	0.000831	8.310025	1.407756	0.000166
  36	3.4825e+00	0.6960	5.141292	0.000649	6.485873	1.098737	0.000130
  37	3.5820e+00	0.7167	5.302778	0.000811	8.107342	1.373421	0.000162
  38	3.6815e+00	0.7372	5.403706	0.000507	5.067089	0.858388	0.000101
  39	3.7810e+00	0.7573	5.577303	0.000872	8.715392	1.476427	0.000174
  40	3.8805e+00	0.7765	5.686306	0.000547	5.472456	0.927059	0.000110
  41	3.9800e+00	0.7966	5.835680	0.000750	7.499291	1.270414	0.000150
  42	4.0795e+00	0.8169	6.013314	0.000892	8.918076	1.510763	0.000179
  43	4.1790e+00	0.8357	6.114242	0.000507	5.067089	0.858388	0.000101
  44	4.2785e+00	0.8566	6.271690	0.000790	7.904658	1.339085	0.000158
  45	4.3780e+00	0.8768	6.396842	0.000628	6.283190	1.064401	0.000126
  46	4.4775e+00	0.8965	6.513919	0.000588	5.877823	0.995730	0.000118
  47	4.5770e+00	0.9173	6.663293	0.000750	7.499291	1.270414	0.000150
  48	4.6765e+00	0.9366	6.828815	0.000831	8.310025	1.407756	0.000166
  49	4.7760e+00	0.9563	6.966078	0.000689	6.891240	1.167408	0.000138
  50	4.8755e+00	0.9763	7.123526	0.000790	7.904658	1.339085	0.000158
  51	4.9750e+00	0.9962	7.248677	0.000628	6.283190	1.064401	0.000126
  52	5.0745e+00	1.0156	7.373828	0.000628	6.283190	1.064401	0.000126
  53	5.1740e+00	1.0361	7.547425	0.000872	8.715392	1.476427	0.000174
  54	5.2735e+00	1.0565	7.688725	0.000709	7.093924	1.201743	0.000142
  55	5.3730e+00	1.0751	7.777542	0.000446	4.459038	0.755381	0.000089
  56	5.4725e+00	1.0965	7.959213	0.000912	9.120759	1.545098	0.000183
  57	5.5720e+00	1.1152	8.096476	0.000689	6.891240	1.167408	0.000138
  58	5.6715e+00	1.1354	8.209516	0.000568	5.675139	0.961395	0.000114
  59	5.7710e+00	1.1559	8.391187	0.000912	9.120759	1.545098	0.000183
  60	5.8705e+00	1.1758	8.540561	0.000750	7.499291	1.270414	0.000150
  61	5.9700e+00	1.1958	8.641489	0.000507	5.067089	0.858388	0.000101
  62	6.0695e+00	1.2156	8.802974	0.000811	8.107342	1.373421	0.000162
  63	6.1690e+00	1.2345	8.928126	0.000628	6.283190	1.064401	0.000126
  64	6.2685e+00	1.2550	9.089611	0.000811	8.107342	1.373421	0.000162
  65	6.3680e+00	1.2749	9.251097	0.000811	8.107342	1.373421	0.000162
  66	6.4675e+00	1.2946	9.380285	0.000649	6.485873	1.098737	0.000130
  67	6.5670e+00	1.3146	9.513510	0.000669	6.688557	1.133072	0.000134
  68	6.6665e+00	1.3342	9.691144	0.000892	8.918076	1.510763	0.000179
  69	6.7660e+00	1.3549	9.796110	0.000527	5.269772	0.892724	0.000105
  70	6.8655e+00	1.3741	9.925298	0.000649	6.485873	1.098737	0.000130
  71	6.9650e+00	1.3945	10.090821	0.000831	8.310025	1.407756	0.000166
  72	7.0645e+00	1.4141	10.248269	0.000790	7.904658	1.339085	0.000158
  73	7.1640e+00	1.4352	10.409755	0.000811	8.107342	1.373421	0.000162
  74	7.2635e+00	1.4543	10.522794	0.000568	5.675139	0.961395	0.000114
  75	7.3630e+00	1.4741	10.647946	0.000628	6.283190	1.064401	0.000126
  76	7.4625e+00	1.4938	10.825579	0.000892	8.918076	1.510763	0.000179
  77	7.5620e+00	1.5144	10.938619	0.000568	5.675139	0.961395	0.000114
  78	7.6615e+00	1.5337	11.144513	0.001034	10.336861	1.751112	0.000207
  79	7.7610e+00	1.5543	11.257553	0.000568	5.675139	0.961395	0.000114
  80	7.8605e+00	1.5735	11.354444	0.000486	4.864405	0.824053	0.000097
  81	7.9600e+00	1.5935	11.507855	0.000770	7.701975	1.304750	0.000154
  82	8.0595e+00	1.6129	11.689527	0.000912	9.120759	1.545098	0.000183
  83	8.1590e+00	1.6329	11.814678	0.000628	6.283190	1.064401	0.000126
  84	8.2585e+00	1.6531	11.955977	0.000709	7.093924	1.201743	0.000142
  85	8.3580e+00	1.6734	12.085166	0.000649	6.485873	1.098737	0.000130
  86	8.4575e+00	1.6929	12.250688	0.000831	8.310025	1.407756	0.000166
  87	8.5570e+00	1.7137	12.412174	0.000811	8.107342	1.373421	0.000162
  88	8.6565e+00	1.7327	12.500991	0.000446	4.459038	0.755381	0.000089
  89	8.7560e+00	1.7522	12.658439	0.000790	7.904658	1.339085	0.000158
  90	8.8555e+00	1.7733	12.815887	0.000790	7.904658	1.339085	0.000158
  91	8.9550e+00	1.7931	12.941039	0.000628	6.283190	1.064401	0.000126
  92	9.0545e+00	1.8130	13.102524	0.000811	8.107342	1.373421	0.000162
  93	9.1540e+00	1.8335	13.231712	0.000649	6.485873	1.098737	0.000130
  94	9.2535e+00	1.8524	13.393198	0.000811	8.107342	1.373421	0.000162
  95	9.3530e+00	1.8732	13.502200	0.000547	5.472456	0.927059	0.000110
  96	9.4525e+00	1.8922	13.679834	0.000892	8.918076	1.510763	0.000179
  97	9.5520e+00	1.9124	13.780763	0.000507	5.067089	0.858388	0.000101
  98	9.6515e+00	1.9319	13.942248	0.000811	8.107342	1.373421	0.000162
  99	9.7510e+00	1.9534	14.075474	0.000669	6.688557	1.133072	0.000134
 100	9.8505e+00	1.9713	14.212736	0.000689	6.891240	1.167408	0.000138
 101	9.9500e+00	1.9918	14.345962	0.000669	6.688557	1.133072	0.000134
 102	1.0050e+01	2.0113	14.503410	0.000790	7.904658	1.339085	0.000158
 103	1.0149e+01	2.0331	14.632598	0.000649	6.485873	1.098737	0.000130
 104	1.0248e+01	2.0525	14.786010	0.000770	7.701975	1.304750	0.000154
 105	1.0348e+01	2.0720	14.911161	0.000628	6.283190	1.064401	0.000126
 106	1.0447e+01	2.0917	15.052461	0.000709	7.093924	1.201743	0.000142
 107	1.0547e+01	2.1117	15.222020	0.000851	8.512709	1.442092	0.000170
 108	1.0646e+01	2.1317	15.298726	0.000385	3.850987	0.652375	0.000077
 109	1.0746e+01	2.1526	15.468286	0.000851	8.512709	1.442092	0.000170
 110	1.0845e+01	2.1722	15.613622	0.000730	7.296608	1.236079	0.000146
 111	1.0945e+01	2.1918	15.767034	0.000770	7.701975	1.304750	0.000154
 112	1.1044e+01	2.2106	15.920445	0.000770	7.701975	1.304750	0.000154
 113	1.1144e+01	2.2318	16.033485	0.000568	5.675139	0.961395	0.000114
 114	1.1243e+01	2.2519	16.150562	0.000588	5.877823	0.995730	0.000118
 115	1.1343e+01	2.2710	16.263601	0.000568	5.675139	0.961395	0.000114
 116	1.1443e+01	2.2906	16.445272	0.000912	9.120759	1.545098	0.000183
 117	1.1542e+01	2.3106	16.570424	0.000628	6.283190	1.064401	0.000126
 118	1.1642e+01	2.3301	16.715761	0.000730	7.296608	1.236079	0.000146
 119	1.1741e+01	2.3495	16.869172	0.000770	7.701975	1.304750	0.000154
 120	1.1841e+01	2.3719	16.978174	0.000547	5.472456	0.927059	0.000110
 121	1.1940e+01	2.3910	17.147734	0.000851	8.512709	1.442092	0.000170
 122	1.2040e+01	2.4114	17.272885	0.000628	6.283190	1.064401	0.000126
 123	1.2139e+01	2.4309	17.406111	0.000669	6.688557	1.133072	0.000134
 124	1.2239e+01	2.4503	17.571633	0.000831	8.310025	1.407756	0.000166
 125	1.2338e+01	2.4706	17.656413	0.000426	4.256354	0.721046	0.000085
 126	1.2438e+01	2.4899	17.834047	0.000892	8.918076	1.510763	0.000179
 127	1.2537e+01	2.5100	17.967273	0.000669	6.688557	1.133072	0.000134
 128	1.2636e+01	2.5295	18.128758	0.000811	8.107342	1.373421	0.000162
 129	1.2736e+01	2.5497	18.249872	0.000608	6.080506	1.030066	0.000122
 130	1.2835e+01	2.5693	18.383098	0.000669	6.688557	1.133072	0.000134
 131	1.2935e+01	2.5895	18.540546	0.000790	7.904658	1.339085	0.000158
 132	1.3034e+01	2.6092	18.673771	0.000669	6.688557	1.133072	0.000134
 133	1.3134e+01	2.6295	18.802960	0.000649	6.485873	1.098737	0.000130
 134	1.3233e+01	2.6494	18.948297	0.000730	7.296608	1.236079	0.000146
 135	1.3333e+01	2.6695	19.117856	0.000851	8.512709	1.442092	0.000170
 136	1.3432e+01	2.6890	19.186488	0.000345	3.445620	0.583704	0.000069
 137	1.3532e+01	2.7094	19.339899	0.000770	7.701975	1.304750	0.000154
 138	1.3632e+01	2.7290	19.509458	0.000851	8.512709	1.442092	0.000170
 139	1.3731e+01	2.7483	19.598275	0.000446	4.459038	0.755381	0.000089
 140	1.3831e+01	2.7695	19.804169	0.001034	10.336861	1.751112	0.000207
 141	1.3930e+01	2.7889	19.892986	0.000446	4.459038	0.755381	0.000089
 142	1.4030e+01	2.8088	20.070620	0.000892	8.918076	1.510763	0.000179
 143	1.4129e+01	2.8291	20.199809	0.000649	6.485873	1.098737	0.000130
 144	1.4229e+01	2.8483	20.300737	0.000507	5.067089	0.858388	0.000101
 145	1.4328e+01	2.8687	20.458185	0.000790	7.904658	1.339085	0.000158
 146	1.4428e+01	2.8883	20.575262	0.000588	5.877823	0.995730	0.000118
 147	1.4527e+01	2.9093	20.712525	0.000689	6.891240	1.167408	0.000138
 148	1.4627e+01	2.9288	20.898233	0.000932	9.323443	1.579434	0.000187
 149	1.4726e+01	2.9491	21.007236	0.000547	5.472456	0.927059	0.000110
 150	1.4825e+01	2.9684	21.124313	0.000588	5.877823	0.995730	0.000118
 151	1.4925e+01	2.9876	21.281761	0.000790	7.904658	1.339085	0.000158
 152	1.5024e+01	3.0087	21.398838	0.000588	5.877823	0.995730	0.000118
 153	1.5124e+01	3.0285	21.536101	0.000689	6.891240	1.167408	0.000138
 154	1.5223e+01	3.0482	21.653178	0.000588	5.877823	0.995730	0.000118
 155	1.5323e+01	3.0682	21.802552	0.000750	7.499291	1.270414	0.000150
 156	1.5422e+01	3.0877	21.968074	0.000831	8.310025	1.407756	0.000166
 157	1.5522e+01	3.1081	22.060928	0.000466	4.661721	0.789717	0.000093
 158	1.5621e+01	3.1271	22.226451	0.000831	8.310025	1.407756	0.000166
 159	1.5721e+01	3.1470	22.351602	0.000628	6.283190	1.064401	0.000126
 160	1.5820e+01	3.1674	22.509050	0.000790	7.904658	1.339085	0.000158
 161	1.5920e+01	3.1879	22.609979	0.000507	5.067089	0.858388	0.000101
 162	1.6020e+01	3.2073	22.743204	0.000669	6.688557	1.133072	0.000134
 163	1.6119e+01	3.2269	22.880467	0.000689	6.891240	1.167408	0.000138
 164	1.6218e+01	3.2478	23.037915	0.000790	7.904658	1.339085	0.000158
 165	1.6318e+01	3.2678	23.167103	0.000649	6.485873	1.098737	0.000130
 166	1.6418e+01	3.2872	23.284180	0.000588	5.877823	0.995730	0.000118
 167	1.6517e+01	3.3077	23.425480	0.000709	7.093924	1.201743	0.000142
 168	1.6616e+01	3.3266	23.607151	0.000912	9.120759	1.545098	0.000183
 169	1.6716e+01	3.3463	23.687894	0.000405	4.053671	0.686710	0.000081
 170	1.6816e+01	3.3665	23.813045	0.000628	6.283190	1.064401	0.000126
 171	1.6915e+01	3.3868	23.938196	0.000628	6.283190	1.064401	0.000126
 172	1.7015e+01	3.4068	24.091608	0.000770	7.701975	1.304750	0.000154
 173	1.7114e+01	3.4261	24.228870	0.000689	6.891240	1.167408	0.000138
 174	1.7213e+01	3.4463	24.394393	0.000831	8.310025	1.407756	0.000166
 175	1.7313e+01	3.4668	24.503395	0.000547	5.472456	0.927059	0.000110
 176	1.7413e+01	3.4866	24.660844	0.000790	7.904658	1.339085	0.000158
 177	1.7512e+01	3.5058	24.798106	0.000689	6.891240	1.167408	0.000138
 178	1.7611e+01	3.5265	24.927295	0.000649	6.485873	1.098737	0.000130
 179	1.7711e+01	3.5467	25.044372	0.000588	5.877823	0.995730	0.000118
 180	1.7811e+01	3.5659	25.185671	0.000709	7.093924	1.201743	0.000142
 181	1.7910e+01	3.5856	25.306785	0.000608	6.080506	1.030066	0.000122
 182	1.8009e+01	3.6056	25.448085	0.000709	7.093924	1.201743	0.000142
 183	1.8109e+01	3.6263	25.553051	0.000527	5.269772	0.892724	0.000105
 184	1.8209e+01	3.6458	25.738759	0.000932	9.323443	1.579434	0.000187
 185	1.8308e+01	3.6671	25.835650	0.000486	4.864405	0.824053	0.000097
 186	1.8407e+01	3.6865	26.025396	0.000953	9.526127	1.613770	0.000191
 187	1.8507e+01	3.7064	26.126324	0.000507	5.067089	0.858388	0.000101
 188	1.8607e+01	3.7257	26.271661	0.000730	7.296608	1.236079	0.000146
 189	1.8706e+01	3.7457	26.404886	0.000669	6.688557	1.133072	0.000134
 190	1.8805e+01	3.7655	26.554260	0.000750	7.499291	1.270414	0.000150
 191	1.8905e+01	3.7857	26.679412	0.000628	6.283190	1.064401	0.000126
 192	1.9005e+01	3.8049	26.840897	0.000811	8.107342	1.373421	0.000162
 193	1.9104e+01	3.8265	26.937788	0.000486	4.864405	0.824053	0.000097
 194	1.9203e+01	3.8447	27.083125	0.000730	7.296608	1.236079	0.000146
 195	1.9303e+01	3.8638	27.208276	0.000628	6.283190	1.064401	0.000126
 196	1.9402e+01	3.8842	27.365725	0.000790	7.904658	1.339085	0.000158
 197	1.9502e+01	3.9040	27.474727	0.000547	5.472456	0.927059	0.000110
 198	1.9602e+01	3.9251	27.616027	0.000709	7.093924	1.201743	0.000142
 199	1.9701e+01	3.9443	27.729067	0.000568	5.675139	0.961395	0.000114
 200	1.9800e+01	3.9648	27.886515	0.000790	7.904658	1.339085	0.000158
 201	1.9900e+01	3.9842	28.023778	0.000689	6.891240	1.167408	0.000138
 202	2.0000e+01	4.0046	28.140855	0.000588	5.877823	0.995730	0.000118
 203	2.0099e+01	4.0235	28.266006	0.000628	6.283190	1.064401	0.000126
 204	2.0198e+01	4.0441	28.435566	0.000851	8.512709	1.442092	0.000170
 205	2.0298e+01	4.0643	28.564754	0.000649	6.485873	1.098737	0.000130
 206	2.0398e+01	4.0835	28.641459	0.000385	3.850987	0.652375	0.000077
 207	2.0497e+01	4.1039	28.798908	0.000790	7.904658	1.339085	0.000158
 208	2.0596e+01	4.1236	28.960393	0.000811	8.107342	1.373421	0.000162
 209	2.0696e+01	4.1444	29.085544	0.000628	6.283190	1.064401	0.000126
 210	2.0796e+01	4.1634	29.206658	0.000608	6.080506	1.030066	0.000122
 211	2.0895e+01	4.1833	29.323735	0.000588	5.877823	0.995730	0.000118
 212	2.0994e+01	4.2027	29.444850	0.000608	6.080506	1.030066	0.000122
 213	2.1094e+01	4.2237	29.606335	0.000811	8.107342	1.373421	0.000162
 214	2.1194e+01	4.2426	29.711300	0.000527	5.269772	0.892724	0.000105
 215	2.1293e+01	4.2635	29.828377	0.000588	5.877823	0.995730	0.000118
 216	2.1392e+01	4.2839	29.965640	0.000689	6.891240	1.167408	0.000138
 217	2.1492e+01	4.3029	30.106940	0.000709	7.093924	1.201743	0.000142
 218	2.1591e+01	4.3229	30.179608	0.000365	3.648304	0.618039	0.000073
 219	2.1691e+01	4.3424	30.377428	0.000993	9.931494	1.682441	0.000199
 220	2.1791e+01	4.3637	30.490468	0.000568	5.675139	0.961395	0.000114
 221	2.1890e+01	4.3829	30.591396	0.000507	5.067089	0.858388	0.000101
 222	2.1989e+01	4.4025	30.769030	0.000892	8.918076	1.510763	0.000179
 223	2.2089e+01	4.4218	30.869958	0.000507	5.067089	0.858388	0.000101
 224	2.2189e+01	4.4415	31.015295	0.000730	7.296608	1.236079	0.000146
 225	2.2288e+01	4.4623	31.116224	0.000507	5.067089	0.858388	0.000101
 226	2.2387e+01	4.4833	31.249449	0.000669	6.688557	1.133072	0.000134
 227	2.2487e+01	4.5019	31.390749	0.000709	7.093924	1.201743	0.000142
 228	2.2587e+01	4.5223	31.479566	0.000446	4.459038	0.755381	0.000089
 229	2.2686e+01	4.5421	31.661237	0.000912	9.120759	1.545098	0.000183
 230	2.2785e+01	4.5618	31.758128	0.000486	4.864405	0.824053	0.000097
 231	2.2885e+01	4.5808	31.903465	0.000730	7.296608	1.236079	0.000146
 232	2.2985e+01	4.6014	32.016505	0.000568	5.675139	0.961395	0.000114
 233	2.3084e+01	4.6212	32.173953	0.000790	7.904658	1.339085	0.000158
 234	2.3183e+01	4.6416	32.299104	0.000628	6.283190	1.064401	0.000126
 235	2.3283e+01	4.6612	32.379847	0.000405	4.053671	0.686710	0.000081
 236	2.3383e+01	4.6816	32.545370	0.000831	8.310025	1.407756	0.000166
 237	2.3482e+01	4.7015	32.646298	0.000507	5.067089	0.858388	0.000101
 238	2.3581e+01	4.7228	32.795672	0.000750	7.499291	1.270414	0.000150
 239	2.3681e+01	4.7414	32.912749	0.000588	5.877823	0.995730	0.000118
 240	2.3780e+01	4.7615	33.017715	0.000527	5.269772	0.892724	0.000105
 241	2.3880e+01	4.7823	33.154977	0.000689	6.891240	1.167408	0.000138
 242	2.3980e+01	4.8011	33.272054	0.000588	5.877823	0.995730	0.000118
 243	2.4079e+01	4.8212	33.393168	0.000608	6.080506	1.030066	0.000122
 244	2.4178e+01	4.8403	33.538505	0.000730	7.296608	1.236079	0.000146
 245	2.4278e+01	4.8614	33.691916	0.000770	7.701975	1.304750	0.000154
 246	2.4378e+01	4.8806	33.808993	0.000588	5.877823	0.995730	0.000118
 247	2.4477e+01	4.9000	33.926070	0.000588	5.877823	0.995730	0.000118
 248	2.4576e+01	4.9212	34.071407	0.000730	7.296608	1.236079	0.000146
 249	2.4676e+01	4.9406	34.131964	0.000304	3.040253	0.515033	0.000061
 250	2.4776e+01	4.9598	34.289412	0.000790	7.904658	1.339085	0.000158
 251	2.4875e+01	4.9810	34.374192	0.000426	4.256354	0.721046	0.000085
 252	2.4974e+01	5.0007	34.531641	0.000790	7.904658	1.339085	0.000158
 253	2.5074e+01	5.0208	34.701200	0.000851	8.512709	1.442092	0.000170
 254	2.5174e+01	5.0406	34.773869	0.000365	3.648304	0.618039	0.000073
 255	2.5273e+01	5.0602	34.903057	0.000649	6.485873	1.098737	0.000130
 256	2.5372e+01	5.0793	35.008023	0.000527	5.269772	0.892724	0.000105
 257	2.5472e+01	5.1005	35.108951	0.000507	5.067089	0.858388	0.000101
 258	2.5572e+01	5.1189	35.250251	0.000709	7.093924	1.201743	0.000142
 259	2.5671e+01	5.1402	35.359253	0.000547	5.472456	0.927059	0.000110
 260	2.5770e+01	5.1600	35.508627	0.000750	7.499291	1.270414	0.000150
 261	2.5870e+01	5.1797	35.629741	0.000608	6.080506	1.030066	0.000122
 262	2.5970e+01	5.1994	35.746818	0.000588	5.877823	0.995730	0.000118
 263	2.6069e+01	5.2193	35.847747	0.000507	5.067089	0.858388	0.000101
 264	2.6169e+01	5.2386	35.972898	0.000628	6.283190	1.064401	0.000126
 265	2.6268e+01	5.2601	36.126309	0.000770	7.701975	1.304750	0.000154
 266	2.6367e+01	5.2784	36.239349	0.000568	5.675139	0.961395	0.000114
 267	2.6467e+01	5.2990	36.316055	0.000385	3.850987	0.652375	0.000077
 268	2.6567e+01	5.3191	36.481577	0.000831	8.310025	1.407756	0.000166
 269	2.6666e+01	5.3389	36.582505	0.000507	5.067089	0.858388	0.000101
 270	2.6765e+01	5.3591	36.695545	0.000568	5.675139	0.961395	0.000114
 271	2.6865e+01	5.3787	36.812622	0.000588	5.877823	0.995730	0.000118
 272	2.6965e+01	5.4007	36.961996	0.000750	7.499291	1.270414	0.000150
 273	2.7064e+01	5.4195	37.050813	0.000446	4.459038	0.755381	0.000089
 274	2.7163e+01	5.4394	37.167890	0.000588	5.877823	0.995730	0.000118
 275	2.7263e+01	5.4589	37.289004	0.000608	6.080506	1.030066	0.000122
 276	2.7363e+01	5.4791	37.410118	0.000608	6.080506	1.030066	0.000122
 277	2.7462e+01	5.4986	37.523158	0.000568	5.675139	0.961395	0.000114
 278	2.7561e+01	5.5173	37.640235	0.000588	5.877823	0.995730	0.000118
 279	2.7661e+01	5.5390	37.757312	0.000588	5.877823	0.995730	0.000118
 280	2.7761e+01	5.5583	37.846129	0.000446	4.459038	0.755381	0.000089
 281	2.7860e+01	5.5776	37.963206	0.000588	5.877823	0.995730	0.000118
 282	2.7959e+01	5.5978	38.047986	0.000426	4.256354	0.721046	0.000085
 283	2.8059e+01	5.6176	38.193323	0.000730	7.296608	1.236079	0.000146
 284	2.8159e+01	5.6382	38.346734	0.000770	7.701975	1.304750	0.000154
 285	2.8258e+01	5.6578	38.427477	0.000405	4.053671	0.686710	0.000081
 286	2.8358e+01	5.6777	38.560702	0.000669	6.688557	1.133072	0.000134
 287	2.8457e+01	5.6983	38.669705	0.000547	5.472456	0.927059	0.000110
 288	2.8556e+01	5.7178	38.774670	0.000527	5.269772	0.892724	0.000105
 289	2.8656e+01	5.7375	38.863487	0.000446	4.459038	0.755381	0.000089
 290	2.8756e+01	5.7577	38.972490	0.000547	5.472456	0.927059	0.000110
 291	2.8855e+01	5.7765	39.109752	0.000689	6.891240	1.167408	0.000138
 292	2.8954e+01	5.7963	39.226829	0.000588	5.877823	0.995730	0.000118
 293	2.9054e+01	5.8164	39.347943	0.000608	6.080506	1.030066	0.000122
 294	2.9154e+01	5.8369	39.428686	0.000405	4.053671	0.686710	0.000081
 295	2.9253e+01	5.8578	39.561912	0.000669	6.688557	1.133072	0.000134
 296	2.9352e+01	5.8770	39.683026	0.000608	6.080506	1.030066	0.000122
 297	2.9452e+01	5.8961	39.808177	0.000628	6.283190	1.064401	0.000126
 298	2.9552e+01	5.9172	39.925254	0.000588	5.877823	0.995730	0.000118
 299	2.9651e+01	5.9368	40.038294	0.000568	5.675139	0.961395	0.000114
 300	2.9750e+01	5.9566	40.139222	0.000507	5.067089	0.858388	0.000101
 301	2.9850e+01	5.9762	40.256299	0.000588	5.877823	0.995730	0.000118
 302	2.9950e+01	5.9972	40.357227	0.000507	5.067089	0.858388	0.000101
 303	3.0049e+01	6.0165	40.482379	0.000628	6.283190	1.064401	0.000126
 304	3.0148e+01	6.0358	40.575233	0.000466	4.661721	0.789717	0.000093
 305	3.0248e+01	6.0564	40.684235	0.000547	5.472456	0.927059	0.000110
 306	3.0348e+01	6.0754	40.817461	0.000669	6.688557	1.133072	0.000134
 307	3.0447e+01	6.0961	40.946649	0.000649	6.485873	1.098737	0.000130
 308	3.0547e+01	6.1150	41.051615	0.000527	5.269772	0.892724	0.000105
 309	3.0646e+01	6.1346	41.160617	0.000547	5.472456	0.927059	0.000110
 310	3.0745e+01	6.1565	41.257509	0.000486	4.864405	0.824053	0.000097
 311	3.0845e+01	6.1758	41.382660	0.000628	6.283190	1.064401	0.000126
 312	3.0945e+01	6.1959	41.495700	0.000568	5.675139	0.961395	0.000114
 313	3.1044e+01	6.2153	41.628925	0.000669	6.688557	1.133072	0.000134
 314	3.1143e+01	6.2347	41.705631	0.000385	3.850987	0.652375	0.000077
 315	3.1243e+01	6.2560	41.826745	0.000608	6.080506	1.030066	0.000122
 316	3.1343e+01	6.2754	41.951896	0.000628	6.283190	1.064401	0.000126
 317	3.1442e+01	6.2957	42.056862	0.000527	5.269772	0.892724	0.000105
 318	3.1541e+01	6.3155	42.186050	0.000649	6.485873	1.098737	0.000130
 319	3.1641e+01	6.3347	42.262755	0.000385	3.850987	0.652375	0.000077
 320	3.1741e+01	6.3538	42.379832	0.000588	5.877823	0.995730	0.000118
 321	3.1840e+01	6.3744	42.476724	0.000486	4.864405	0.824053	0.000097
 322	3.1939e+01	6.3950	42.589763	0.000568	5.675139	0.961395	0.000114
 323	3.2039e+01	6.4141	42.714915	0.000628	6.283190	1.064401	0.000126
 324	3.2139e+01	6.4346	42.848140	0.000669	6.688557	1.133072	0.000134
 325	3.2238e+01	6.4541	42.949069	0.000507	5.067089	0.858388	0.000101
 326	3.2337e+01	6.4747	43.062108	0.000568	5.675139	0.961395	0.000114
 327	3.2437e+01	6.4935	43.138814	0.000385	3.850987	0.652375	0.000077
 328	3.2536e+01	6.5142	43.227631	0.000446	4.459038	0.755381	0.000089
 329	3.2636e+01	6.5342	43.385079	0.000790	7.904658	1.339085	0.000158
 330	3.2736e+01	6.5533	43.461785	0.000385	3.850987	0.652375	0.000077
 331	3.2835e+01	6.5740	43.570787	0.000547	5.472456	0.927059	0.000110
 332	3.2934e+01	6.5943	43.675753	0.000527	5.269772	0.892724	0.000105
 333	3.3034e+01	6.6132	43.772644	0.000486	4.864405	0.824053	0.000097
 334	3.3133e+01	6.6338	43.873573	0.000507	5.067089	0.858388	0.000101
 335	3.3233e+01	6.6530	44.006798	0.000669	6.688557	1.133072	0.000134
 336	3.3333e+01	6.6742	44.131949	0.000628	6.283190	1.064401	0.000126
 337	3.3432e+01	6.6943	44.224803	0.000466	4.661721	0.789717	0.000093
 338	3.3532e+01	6.7136	44.329769	0.000527	5.269772	0.892724	0.000105
 339	3.3631e+01	6.7342	44.487217	0.000790	7.904658	1.339085	0.000158
 340	3.3730e+01	6.7532	44.535663	0.000243	2.432203	0.412026	0.000049
 341	3.3830e+01	6.7731	44.685037	0.000750	7.499291	1.270414	0.000150
 342	3.3929e+01	6.7925	44.757705	0.000365	3.648304	0.618039	0.000073
 343	3.4029e+01	6.8138	44.890931	0.000669	6.688557	1.133072	0.000134
 344	3.4129e+01	6.8334	44.979748	0.000446	4.459038	0.755381	0.000089
 345	3.4228e+01	6.8530	45.117010	0.000689	6.891240	1.167408	0.000138
 346	3.4328e+01	6.8713	45.205827	0.000446	4.459038	0.755381	0.000089
 347	3.4427e+01	6.8929	45.343090	0.000689	6.891240	1.167408	0.000138
 348	3.4526e+01	6.9134	45.415758	0.000365	3.648304	0.618039	0.000073
 349	3.4626e+01	6.9328	45.540910	0.000628	6.283190	1.064401	0.000126
 350	3.4725e+01	6.9518	45.649912	0.000547	5.472456	0.927059	0.000110
 351	3.4825e+01	6.9728	45.754878	0.000527	5.269772	0.892724	0.000105
 352	3.4925e+01	6.9920	45.847732	0.000466	4.661721	0.789717	0.000093
 353	3.5024e+01	7.0123	45.989032	0.000709	7.093924	1.201743	0.000142
 354	3.5123e+01	7.0319	46.081886	0.000466	4.661721	0.789717	0.000093
 355	3.5223e+01	7.0519	46.207037	0.000628	6.283190	1.064401	0.000126
 356	3.5322e+01	7.0714	46.316040	0.000547	5.472456	0.927059	0.000110
 357	3.5422e+01	7.0921	46.404857	0.000446	4.459038	0.755381	0.000089
 358	3.5522e+01	7.1116	46.485599	0.000405	4.053671	0.686710	0.000081
 359	3.5621e+01	7.1315	46.630936	0.000730	7.296608	1.236079	0.000146
 360	3.5721e+01	7.1517	46.739939	0.000547	5.472456	0.927059	0.000110
 361	3.5820e+01	7.1708	46.824719	0.000426	4.256354	0.721046	0.000085
 362	3.5919e+01	7.1920	46.961981	0.000689	6.891240	1.167408	0.000138
 363	3.6019e+01	7.2119	47.123467	0.000811	8.107342	1.373421	0.000162
 364	3.6118e+01	7.2306	47.208247	0.000426	4.256354	0.721046	0.000085
 365	3.6218e+01	7.2506	47.313212	0.000527	5.269772	0.892724	0.000105
 366	3.6318e+01	7.2710	47.426252	0.000568	5.675139	0.961395	0.000114
 367	3.6417e+01	7.2912	47.527180	0.000507	5.067089	0.858388	0.000101
 368	3.6517e+01	7.3122	47.636183	0.000547	5.472456	0.927059	0.000110
 369	3.6616e+01	7.3313	47.741149	0.000527	5.269772	0.892724	0.000105
 370	3.6715e+01	7.3508	47.850151	0.000547	5.472456	0.927059	0.000110
 371	3.6815e+01	7.3703	47.991451	0.000709	7.093924	1.201743	0.000142
 372	3.6914e+01	7.3907	48.088342	0.000486	4.864405	0.824053	0.000097
 373	3.7014e+01	7.4110	48.189271	0.000507	5.067089	0.858388	0.000101
 374	3.7114e+01	7.4305	48.274051	0.000426	4.256354	0.721046	0.000085
 375	3.7213e+01	7.4512	48.379016	0.000527	5.269772	0.892724	0.000105
 376	3.7313e+01	7.4712	48.528390	0.000750	7.499291	1.270414	0.000150
 377	3.7412e+01	7.4902	48.572799	0.000223	2.229519	0.377691	0.000045
 378	3.7511e+01	7.5100	48.697950	0.000628	6.283190	1.064401	0.000126
 379	3.7611e+01	7.5302	48.819064	0.000608	6.080506	1.030066	0.000122
 380	3.7711e+01	7.5494	48.936141	0.000588	5.877823	0.995730	0.000118
 381	3.7810e+01	7.5696	49.012846	0.000385	3.850987	0.652375	0.000077
 382	3.7910e+01	7.5898	49.142035	0.000649	6.485873	1.098737	0.000130
 383	3.8009e+01	7.6084	49.251037	0.000547	5.472456	0.927059	0.000110
 384	3.8108e+01	7.6293	49.351966	0.000507	5.067089	0.858388	0.000101
 385	3.8208e+01	7.6498	49.424634	0.000365	3.648304	0.618039	0.000073
 386	3.8307e+01	7.6699	49.525563	0.000507	5.067089	0.858388	0.000101
 387	3.8407e+01	7.6904	49.662825	0.000689	6.891240	1.167408	0.000138
 388	3.8507e+01	7.7096	49.751642	0.000446	4.459038	0.755381	0.000089
 389	3.8606e+01	7.7309	49.836422	0.000426	4.256354	0.721046	0.000085
 390	3.8706e+01	7.7495	49.977722	0.000709	7.093924	1.201743	0.000142
 391	3.8805e+01	7.7688	50.058465	0.000405	4.053671	0.686710	0.000081
 392	3.8904e+01	7.7888	50.195727	0.000689	6.891240	1.167408	0.000138
 393	3.9004e+01	7.8094	50.276470	0.000405	4.053671	0.686710	0.000081
 394	3.9103e+01	7.8283	50.377398	0.000507	5.067089	0.858388	0.000101
 395	3.9203e+01	7.8497	50.470252	0.000466	4.661721	0.789717	0.000093
 396	3.9303e+01	7.8690	50.555032	0.000426	4.256354	0.721046	0.000085
 397	3.9402e+01	7.8889	50.680183	0.000628	6.283190	1.064401	0.000126
 398	3.9502e+01	7.9089	50.797260	0.000588	5.877823	0.995730	0.000118
 399	3.9601e+01	7.9293	50.898189	0.000507	5.067089	0.858388	0.000101
 400	3.9700e+01	7.9479	51.019303	0.000608	6.080506	1.030066	0.000122
 401	3.9800e+01	7.9690	51.136380	0.000588	5.877823	0.995730	0.000118
 402	3.9900e+01	7.9877	51.188863	0.000263	2.634886	0.446362	0.000053
 403	3.9999e+01	8.0078	51.334199	0.000730	7.296608	1.236079	0.000146
 404	4.0099e+01	8.0282	51.374571	0.000203	2.026835	0.343355	0.000041
 405	4.0198e+01	8.0488	51.519908	0.000730	7.296608	1.236079	0.000146
 406	4.0297e+01	8.0682	51.624873	0.000527	5.269772	0.892724	0.000105
 407	4.0397e+01	8.0875	51.693505	0.000345	3.445620	0.583704	0.000069
 408	4.0496e+01	8.1082	51.834804	0.000709	7.093924	1.201743	0.000142
 409	4.0596e+01	8.1272	51.895361	0.000304	3.040253	0.515033	0.000061
 410	4.0696e+01	8.1499	52.028587	0.000669	6.688557	1.133072	0.000134
 411	4.0795e+01	8.1676	52.097218	0.000345	3.445620	0.583704	0.000069
 412	4.0895e+01	8.1870	52.214295	0.000588	5.877823	0.995730	0.000118
 413	4.0994e+01	8.2069	52.343483	0.000649	6.485873	1.098737	0.000130
 414	4.1093e+01	8.2262	52.468635	0.000628	6.283190	1.064401	0.000126
 415	4.1193e+01	8.2474	52.541303	0.000365	3.648304	0.618039	0.000073
 416	4.1292e+01	8.2667	52.634157	0.000466	4.661721	0.789717	0.000093
 417	4.1392e+01	8.2865	52.714900	0.000405	4.053671	0.686710	0.000081
 418	4.1492e+01	8.3074	52.848125	0.000669	6.688557	1.133072	0.000134
 419	4.1591e+01	8.3271	52.969239	0.000608	6.080506	1.030066	0.000122
 420	4.1691e+01	8.3468	53.045945	0.000385	3.850987	0.652375	0.000077
 421	4.1790e+01	8.3666	53.134762	0.000446	4.459038	0.755381	0.000089
 422	4.1889e+01	8.3868	53.272025	0.000689	6.891240	1.167408	0.000138
 423	4.1989e+01	8.4068	53.348730	0.000385	3.850987	0.652375	0.000077
 424	4.2089e+01	8.4255	53.461770	0.000568	5.675139	0.961395	0.000114
 425	4.2188e+01	8.4466	53.562698	0.000507	5.067089	0.858388	0.000101
 426	4.2288e+01	8.4659	53.675738	0.000568	5.675139	0.961395	0.000114
 427	4.2387e+01	8.4863	53.740332	0.000324	3.242937	0.549368	0.000065
 428	4.2486e+01	8.5059	53.849335	0.000547	5.472456	0.927059	0.000110
 429	4.2586e+01	8.5261	53.966412	0.000588	5.877823	0.995730	0.000118
 430	4.2685e+01	8.5458	54.083489	0.000588	5.877823	0.995730	0.000118
 431	4.2785e+01	8.5656	54.180380	0.000486	4.864405	0.824053	0.000097
 432	4.2885e+01	8.5865	54.257086	0.000385	3.850987	0.652375	0.000077
 433	4.2984e+01	8.6063	54.366088	0.000547	5.472456	0.927059	0.000110
 434	4.3084e+01	8.6256	54.454905	0.000446	4.459038	0.755381	0.000089
 435	4.3183e+01	8.6453	54.539685	0.000426	4.256354	0.721046	0.000085
 436	4.3282e+01	8.6658	54.656762	0.000588	5.877823	0.995730	0.000118
 437	4.3382e+01	8.6855	54.705208	0.000243	2.432203	0.412026	0.000049
 438	4.3481e+01	8.7057	54.882842	0.000892	8.918076	1.510763	0.000179
 439	4.3581e+01	8.7246	54.907065	0.000122	1.216101	0.206013	0.000024
 440	4.3681e+01	8.7451	55.044327	0.000689	6.891240	1.167408	0.000138
 441	4.3780e+01	8.7655	55.137181	0.000466	4.661721	0.789717	0.000093
 442	4.3880e+01	8.7850	55.217924	0.000405	4.053671	0.686710	0.000081
 443	4.3979e+01	8.8053	55.294630	0.000385	3.850987	0.652375	0.000077
 444	4.4078e+01	8.8245	55.419781	0.000628	6.283190	1.064401	0.000126
 445	4.4178e+01	8.8440	55.524746	0.000527	5.269772	0.892724	0.000105
 446	4.4278e+01	8.8644	55.609526	0.000426	4.256354	0.721046	0.000085
 447	4.4377e+01	8.8839	55.694306	0.000426	4.256354	0.721046	0.000085
 448	4.4477e+01	8.9048	55.807346	0.000568	5.675139	0.961395	0.000114
 449	4.4576e+01	8.9239	55.875977	0.000345	3.445620	0.583704	0.000069
 450	4.4675e+01	8.9429	55.976906	0.000507	5.067089	0.858388	0.000101
 451	4.4775e+01	8.9635	56.081871	0.000527	5.269772	0.892724	0.000105
 452	4.4874e+01	8.9829	56.166651	0.000426	4.256354	0.721046	0.000085
 453	4.4974e+01	9.0031	56.275654	0.000547	5.472456	0.927059	0.000110
 454	4.5074e+01	9.0226	56.356396	0.000405	4.053671	0.686710	0.000081
 455	4.5173e+01	9.0431	56.449250	0.000466	4.661721	0.789717	0.000093
 456	4.5273e+01	9.0631	56.570365	0.000608	6.080506	1.030066	0.000122
 457	4.5372e+01	9.0835	56.634959	0.000324	3.242937	0.549368	0.000065
 458	4.5471e+01	9.1030	56.752036	0.000588	5.877823	0.995730	0.000118
 459	4.5571e+01	9.1232	56.828741	0.000385	3.850987	0.652375	0.000077
 460	4.5670e+01	9.1426	56.945818	0.000588	5.877823	0.995730	0.000118
 461	4.5770e+01	9.1627	57.018487	0.000365	3.648304	0.618039	0.000073
 462	4.5870e+01	9.1827	57.119415	0.000507	5.067089	0.858388	0.000101
 463	4.5969e+01	9.2023	57.228418	0.000547	5.472456	0.927059	0.000110
 464	4.6069e+01	9.2223	57.313198	0.000426	4.256354	0.721046	0.000085
 465	4.6168e+01	9.2428	57.410089	0.000486	4.864405	0.824053	0.000097
 466	4.6267e+01	9.2621	57.490831	0.000405	4.053671	0.686710	0.000081
 467	4.6367e+01	9.2823	57.587723	0.000486	4.864405	0.824053	0.000097
 468	4.6467e+01	9.3020	57.692688	0.000527	5.269772	0.892724	0.000105
 469	4.6566e+01	9.3221	57.777468	0.000426	4.256354	0.721046	0.000085
 470	4.6666e+01	9.3425	57.918768	0.000709	7.093924	1.201743	0.000142
 471	4.6765e+01	9.3615	58.007585	0.000446	4.459038	0.755381	0.000089
 472	4.6864e+01	9.3823	58.039882	0.000162	1.621468	0.274684	0.000032
 473	4.6964e+01	9.4019	58.181182	0.000709	7.093924	1.201743	0.000142
 474	4.7063e+01	9.4216	58.298259	0.000588	5.877823	0.995730	0.000118
 475	4.7163e+01	9.4421	58.350741	0.000263	2.634886	0.446362	0.000053
 476	4.7263e+01	9.4624	58.463781	0.000568	5.675139	0.961395	0.000114
 477	4.7362e+01	9.4809	58.588932	0.000628	6.283190	1.064401	0.000126
 478	4.7462e+01	9.5004	58.649489	0.000304	3.040253	0.515033	0.000061
 479	4.7561e+01	9.5217	58.790789	0.000709	7.093924	1.201743	0.000142
 480	4.7660e+01	9.5410	58.823086	0.000162	1.621468	0.274684	0.000032
 481	4.7760e+01	9.5603	58.911903	0.000446	4.459038	0.755381	0.000089
 482	4.7859e+01	9.5809	59.024943	0.000568	5.675139	0.961395	0.000114
 483	4.7959e+01	9.6001	59.105686	0.000405	4.053671	0.686710	0.000081
 484	4.8059e+01	9.6211	59.218726	0.000568	5.675139	0.961395	0.000114
 485	4.8158e+01	9.6403	59.323691	0.000527	5.269772	0.892724	0.000105
 486	4.8258e+01	9.6600	59.396360	0.000365	3.648304	0.618039	0.000073
 487	4.8357e+01	9.6806	59.501325	0.000527	5.269772	0.892724	0.000105
 488	4.8456e+01	9.7005	59.573994	0.000365	3.648304	0.618039	0.000073
 489	4.8556e+01	9.7201	59.670885	0.000486	4.864405	0.824053	0.000097
 490	4.8656e+01	9.7412	59.771813	0.000507	5.067089	0.858388	0.000101
 491	4.8755e+01	9.7607	59.828333	0.000284	2.837570	0.480697	0.000057
 492	4.8855e+01	9.7791	59.969633	0.000709	7.093924	1.201743	0.000142
 493	4.8954e+01	9.8003	60.054413	0.000426	4.256354	0.721046	0.000085
 494	4.9053e+01	9.8197	60.147267	0.000466	4.661721	0.789717	0.000093
 495	4.9153e+01	9.8402	60.236084	0.000446	4.459038	0.755381	0.000089
 496	4.9252e+01	9.8592	60.341049	0.000527	5.269772	0.892724	0.000105
 497	4.9352e+01	9.8797	60.425829	0.000426	4.256354	0.721046	0.000085
 498	4.9452e+01	9.9004	60.498498	0.000365	3.648304	0.618039	0.000073
 499	4.9551e+01	9.9189	60.623649	0.000628	6.283190	1.064401	0.000126
 500	4.9651e+01	9.9390	60.700354	0.000385	3.850987	0.652375	0.000077
 501	4.9750e+01	9.9598	60.756874	0.000284	2.837570	0.480697	0.000057
 502	4.9849e+01	9.9799	60.890100	0.000669	6.688557	1.133072	0.000134
 503	4.9949e+01	9.9992	60.958731	0.000345	3.445620	0.583704	0.000069
 504	5.0048e+01	9.9793	60.873951	0.000426	4.256354	0.721046	-0.000085
 505	5.0148e+01	9.9603	60.837617	0.000182	1.824152	0.309020	-0.000037
 506	5.0248e+01	9.9389	60.797246	0.000203	2.026835	0.343355	-0.000041
 507	5.0347e+01	9.9197	60.724577	0.000365	3.648304	0.618039	-0.000073
 508	5.0447e+01	9.8992	60.615575	0.000547	5.472456	0.927059	-0.000110
 509	5.0546e+01	9.8800	60.571166	0.000223	2.229519	0.377691	-0.000045
 510	5.0645e+01	9.8595	60.510609	0.000304	3.040253	0.515033	-0.000061
 511	5.0745e+01	9.8402	60.421792	0.000446	4.459038	0.755381	-0.000089
 512	5.0844e+01	9.8206	60.369309	0.000263	2.634886	0.446362	-0.000053
 513	5.0944e+01	9.8011	60.304715	0.000324	3.242937	0.549368	-0.000065
 514	5.1044e+01	9.7810	60.228010	0.000385	3.850987	0.652375	-0.000077
 515	5.1143e+01	9.7607	60.171490	0.000284	2.837570	0.480697	-0.000057
 516	5.1242e+01	9.7412	60.082673	0.000446	4.459038	0.755381	-0.000089
 517	5.1342e+01	9.7217	60.022116	0.000304	3.040253	0.515033	-0.000061
 518	5.1441e+01	9.7005	59.917150	0.000527	5.269772	0.892724	-0.000105
 519	5.1541e+01	9.6810	59.872742	0.000223	2.229519	0.377691	-0.000045
 520	5.1641e+01	9.6607	59.832370	0.000203	2.026835	0.343355	-0.000041
 521	5.1740e+01	9.6403	59.755665	0.000385	3.850987	0.652375	-0.000077
 522	5.1840e+01	9.6206	59.678959	0.000385	3.850987	0.652375	-0.000077
 523	5.1939e+01	9.6008	59.594179	0.000426	4.256354	0.721046	-0.000085
 524	5.2038e+01	9.5820	59.521511	0.000365	3.648304	0.618039	-0.000073
 525	5.2138e+01	9.5612	59.464991	0.000284	2.837570	0.480697	-0.000057
 526	5.2237e+01	9.5410	59.384248	0.000405	4.053671	0.686710	-0.000081
 527	5.2337e+01	9.5217	59.331765	0.000263	2.634886	0.446362	-0.000053
 528	5.2437e+01	9.5020	59.246986	0.000426	4.256354	0.721046	-0.000085
 529	5.2536e+01	9.4821	59.178354	0.000345	3.445620	0.583704	-0.000069
 530	5.2636e+01	9.4613	59.117797	0.000304	3.040253	0.515033	-0.000061
 531	5.2735e+01	9.4424	59.045129	0.000365	3.648304	0.618039	-0.000073
 532	5.2834e+01	9.4210	58.944200	0.000507	5.067089	0.858388	-0.000101
 533	5.2934e+01	9.4022	58.891718	0.000263	2.634886	0.446362	-0.000053
 534	5.3033e+01	9.3818	58.778678	0.000568	5.675139	0.961395	-0.000114
 535	5.3133e+01	9.3621	58.742344	0.000182	1.824152	0.309020	-0.000037
 536	5.3233e+01	9.3409	58.621229	0.000608	6.080506	1.030066	-0.000122
 537	5.3332e+01	9.3224	58.592970	0.000142	1.418785	0.240349	-0.000028
 538	5.3431e+01	9.3018	58.496078	0.000486	4.864405	0.824053	-0.000097
 539	5.3531e+01	9.2827	58.435521	0.000304	3.040253	0.515033	-0.000061
 540	5.3630e+01	9.2621	58.338630	0.000486	4.864405	0.824053	-0.000097
 541	5.3730e+01	9.2439	58.278073	0.000304	3.040253	0.515033	-0.000061
 542	5.3830e+01	9.2236	58.225590	0.000263	2.634886	0.446362	-0.000053
 543	5.3929e+01	9.2022	58.116588	0.000547	5.472456	0.927059	-0.000110
 544	5.4029e+01	9.1821	58.035845	0.000405	4.053671	0.686710	-0.000081
 545	5.4128e+01	9.1650	57.971251	0.000324	3.242937	0.549368	-0.000065
 546	5.4227e+01	9.1426	57.870322	0.000507	5.067089	0.858388	-0.000101
 547	5.4327e+01	9.1233	57.838025	0.000162	1.621468	0.274684	-0.000032
 548	5.4426e+01	9.1026	57.737097	0.000507	5.067089	0.858388	-0.000101
 549	5.4526e+01	9.0829	57.672503	0.000324	3.242937	0.549368	-0.000065
 550	5.4626e+01	9.0632	57.567537	0.000527	5.269772	0.892724	-0.000105
 551	5.4725e+01	9.0432	57.511017	0.000284	2.837570	0.480697	-0.000057
 552	5.4825e+01	9.0235	57.430274	0.000405	4.053671	0.686710	-0.000081
 553	5.4924e+01	9.0043	57.357606	0.000365	3.648304	0.618039	-0.000073
 554	5.5023e+01	8.9831	57.252640	0.000527	5.269772	0.892724	-0.000105
 555	5.5123e+01	8.9636	57.171898	0.000405	4.053671	0.686710	-0.000081
 556	5.5222e+01	8.9425	57.103266	0.000345	3.445620	0.583704	-0.000069
 557	5.5322e+01	8.9228	57.002338	0.000507	5.067089	0.858388	-0.000101
 558	5.5422e+01	8.9036	56.925632	0.000385	3.850987	0.652375	-0.000077
 559	5.5521e+01	8.8842	56.877187	0.000243	2.432203	0.412026	-0.000049
 560	5.5620e+01	8.8641	56.780296	0.000486	4.864405	0.824053	-0.000097
 561	5.5720e+01	8.8441	56.711664	0.000345	3.445620	0.583704	-0.000069
 562	5.5819e+01	8.8254	56.651107	0.000304	3.040253	0.515033	-0.000061
 563	5.5919e+01	8.8046	56.546142	0.000527	5.269772	0.892724	-0.000105
 564	5.6019e+01	8.7863	56.441176	0.000527	5.269772	0.892724	-0.000105
 565	5.6118e+01	8.7653	56.348322	0.000466	4.661721	0.789717	-0.000093
 566	5.6218e+01	8.7451	56.303914	0.000223	2.229519	0.377691	-0.000045
 567	5.6317e+01	8.7261	56.227208	0.000385	3.850987	0.652375	-0.000077
 568	5.6416e+01	8.7057	56.138391	0.000446	4.459038	0.755381	-0.000089
 569	5.6516e+01	8.6861	56.045537	0.000466	4.661721	0.789717	-0.000093
 570	5.6615e+01	8.6646	55.989017	0.000284	2.837570	0.480697	-0.000057
 571	5.6715e+01	8.6446	55.916349	0.000365	3.648304	0.618039	-0.000073
 572	5.6815e+01	8.6257	55.799272	0.000588	5.877823	0.995730	-0.000118
 573	5.6914e+01	8.6053	55.771012	0.000142	1.418785	0.240349	-0.000028
 574	5.7014e+01	8.5849	55.686232	0.000426	4.256354	0.721046	-0.000085
 575	5.7113e+01	8.5664	55.565118	0.000608	6.080506	1.030066	-0.000122
 576	5.7212e+01	8.5453	55.508598	0.000284	2.837570	0.480697	-0.000057
 577	5.7312e+01	8.5262	55.395558	0.000568	5.675139	0.961395	-0.000114
 578	5.7411e+01	8.5062	55.318852	0.000385	3.850987	0.652375	-0.000077
 579	5.7511e+01	8.4866	55.234073	0.000426	4.256354	0.721046	-0.000085
 580	5.7611e+01	8.4660	55.161404	0.000365	3.648304	0.618039	-0.000073
 581	5.7710e+01	8.4461	55.084699	0.000385	3.850987	0.652375	-0.000077
 582	5.7809e+01	8.4272	54.979733	0.000527	5.269772	0.892724	-0.000105
 583	5.7909e+01	8.4077	54.862656	0.000588	5.877823	0.995730	-0.000118
 584	5.8008e+01	8.3874	54.822285	0.000203	2.026835	0.343355	-0.000041
 585	5.8108e+01	8.3677	54.737505	0.000426	4.256354	0.721046	-0.000085
 586	5.8208e+01	8.3460	54.648688	0.000446	4.459038	0.755381	-0.000089
 587	5.8307e+01	8.3271	54.555834	0.000466	4.661721	0.789717	-0.000093
 588	5.8407e+01	8.3069	54.479128	0.000385	3.850987	0.652375	-0.000077
 589	5.8506e+01	8.2865	54.353977	0.000628	6.283190	1.064401	-0.000126
 590	5.8605e+01	8.2671	54.313606	0.000203	2.026835	0.343355	-0.000041
 591	5.8705e+01	8.2475	54.204603	0.000547	5.472456	0.927059	-0.000110
 592	5.8804e+01	8.2271	54.127897	0.000385	3.850987	0.652375	-0.000077
 593	5.8904e+01	8.2072	54.059266	0.000345	3.445620	0.583704	-0.000069
 594	5.9004e+01	8.1878	53.934115	0.000628	6.283190	1.064401	-0.000126
 595	5.9103e+01	8.1680	53.857409	0.000385	3.850987	0.652375	-0.000077
 596	5.9203e+01	8.1480	53.804927	0.000263	2.634886	0.446362	-0.000053
 597	5.9302e+01	8.1287	53.679775	0.000628	6.283190	1.064401	-0.000126
 598	5.9401e+01	8.1071	53.615181	0.000324	3.242937	0.549368	-0.000065
 599	5.9501e+01	8.0878	53.538476	0.000385	3.850987	0.652375	-0.000077
 600	5.9600e+01	8.0673	53.425436	0.000568	5.675139	0.961395	-0.000114
 601	5.9700e+01	8.0486	53.401213	0.000122	1.216101	0.206013	-0.000024
 602	5.9800e+01	8.0279	53.263950	0.000689	6.891240	1.167408	-0.000138
 603	5.9899e+01	8.0083	53.179171	0.000426	4.256354	0.721046	-0.000085
 604	5.9998e+01	7.9884	53.054019	0.000628	6.283190	1.064401	-0.000126
 605	6.0098e+01	7.9675	52.961165	0.000466	4.661721	0.789717	-0.000093
 606	6.0197e+01	7.9482	52.936942	0.000122	1.216101	0.206013	-0.000024
 607	6.0297e+01	7.9273	52.823903	0.000568	5.675139	0.961395	-0.000114
 608	6.0397e+01	7.9078	52.718937	0.000527	5.269772	0.892724	-0.000105
 609	6.0496e+01	7.8886	52.626083	0.000466	4.661721	0.789717	-0.000093
 610	6.0596e+01	7.8685	52.549377	0.000385	3.850987	0.652375	-0.000077
 611	6.0695e+01	7.8482	52.432300	0.000588	5.877823	0.995730	-0.000118
 612	6.0794e+01	7.8289	52.331372	0.000507	5.067089	0.858388	-0.000101
 613	6.0894e+01	7.8103	52.258704	0.000365	3.648304	0.618039	-0.000073
 614	6.0993e+01	7.7885	52.173924	0.000426	4.256354	0.721046	-0.000085
 615	6.1093e+01	7.7691	52.072995	0.000507	5.067089	0.858388	-0.000101
 616	6.1193e+01	7.7490	51.992253	0.000405	4.053671	0.686710	-0.000081
 617	6.1292e+01	7.7296	51.879213	0.000568	5.675139	0.961395	-0.000114
 618	6.1392e+01	7.7091	51.822693	0.000284	2.837570	0.480697	-0.000057
 619	6.1491e+01	7.6889	51.681393	0.000709	7.093924	1.201743	-0.000142
 620	6.1590e+01	7.6700	51.612762	0.000345	3.445620	0.583704	-0.000069
 621	6.1690e+01	7.6496	51.503759	0.000547	5.472456	0.927059	-0.000110
 622	6.1789e+01	7.6294	51.418979	0.000426	4.256354	0.721046	-0.000085
 623	6.1889e+01	7.6091	51.326125	0.000466	4.661721	0.789717	-0.000093
 624	6.1989e+01	7.5887	51.245382	0.000405	4.053671	0.686710	-0.000081
 625	6.2088e+01	7.5698	51.136380	0.000547	5.472456	0.927059	-0.000110
 626	6.2188e+01	7.5501	51.039489	0.000486	4.864405	0.824053	-0.000097
 627	6.2287e+01	7.5307	50.934523	0.000527	5.269772	0.892724	-0.000105
 628	6.2386e+01	7.5102	50.869929	0.000324	3.242937	0.549368	-0.000065
 629	6.2486e+01	7.4906	50.785149	0.000426	4.256354	0.721046	-0.000085
 630	6.2586e+01	7.4693	50.627701	0.000790	7.904658	1.339085	-0.000158
 631	6.2685e+01	7.4511	50.591367	0.000182	1.824152	0.309020	-0.000037
 632	6.2785e+01	7.4311	50.490438	0.000507	5.067089	0.858388	-0.000101
 633	6.2884e+01	7.4109	50.413733	0.000385	3.850987	0.652375	-0.000077
 634	6.2983e+01	7.3913	50.316841	0.000486	4.864405	0.824053	-0.000097
 635	6.3083e+01	7.3709	50.223987	0.000466	4.661721	0.789717	-0.000093
 636	6.3182e+01	7.3512	50.114984	0.000547	5.472456	0.927059	-0.000110
 637	6.3282e+01	7.3312	50.030205	0.000426	4.256354	0.721046	-0.000085
 638	6.3382e+01	7.3107	49.953499	0.000385	3.850987	0.652375	-0.000077
 639	6.3481e+01	7.2920	49.856608	0.000486	4.864405	0.824053	-0.000097
 640	6.3581e+01	7.2710	49.751642	0.000527	5.269772	0.892724	-0.000105
 641	6.3680e+01	7.2521	49.662825	0.000446	4.459038	0.755381	-0.000089
 642	6.3779e+01	7.2312	49.569971	0.000466	4.661721	0.789717	-0.000093
 643	6.3879e+01	7.2109	49.469043	0.000507	5.067089	0.858388	-0.000101
 644	6.3978e+01	7.1916	49.364077	0.000527	5.269772	0.892724	-0.000105
 645	6.4078e+01	7.1709	49.267186	0.000486	4.864405	0.824053	-0.000097
 646	6.4177e+01	7.1517	49.150109	0.000588	5.877823	0.995730	-0.000118
 647	6.4277e+01	7.1314	49.121849	0.000142	1.418785	0.240349	-0.000028
 648	6.4376e+01	7.1117	49.000735	0.000608	6.080506	1.030066	-0.000122
 649	6.4476e+01	7.0915	48.867510	0.000669	6.688557	1.133072	-0.000134
 650	6.4576e+01	7.0719	48.835212	0.000162	1.621468	0.274684	-0.000032
 651	6.4675e+01	7.0518	48.693913	0.000709	7.093924	1.201743	-0.000142
 652	6.4775e+01	7.0322	48.597021	0.000486	4.864405	0.824053	-0.000097
 653	6.4874e+01	7.0124	48.496093	0.000507	5.067089	0.858388	-0.000101
 654	6.4974e+01	6.9922	48.391128	0.000527	5.269772	0.892724	-0.000105
 655	6.5073e+01	6.9725	48.358830	0.000162	1.621468	0.274684	-0.000032
 656	6.5172e+01	6.9522	48.245791	0.000568	5.675139	0.961395	-0.000114
 657	6.5272e+01	6.9334	48.100454	0.000730	7.296608	1.236079	-0.000146
 658	6.5371e+01	6.9118	48.027785	0.000365	3.648304	0.618039	-0.000073
 659	6.5471e+01	6.8916	47.934931	0.000466	4.661721	0.789717	-0.000093
 660	6.5570e+01	6.8726	47.842077	0.000466	4.661721	0.789717	-0.000093
 661	6.5670e+01	6.8529	47.741149	0.000507	5.067089	0.858388	-0.000101
 662	6.5769e+01	6.8328	47.652332	0.000446	4.459038	0.755381	-0.000089
 663	6.5869e+01	6.8133	47.547366	0.000527	5.269772	0.892724	-0.000105
 664	6.5969e+01	6.7924	47.450475	0.000486	4.864405	0.824053	-0.000097
 665	6.6068e+01	6.7730	47.345509	0.000527	5.269772	0.892724	-0.000105
 666	6.6168e+01	6.7512	47.260730	0.000426	4.256354	0.721046	-0.000085
 667	6.6267e+01	6.7339	47.119430	0.000709	7.093924	1.201743	-0.000142
 668	6.6367e+01	6.7141	47.070984	0.000243	2.432203	0.412026	-0.000049
 669	6.6466e+01	6.6941	46.961981	0.000547	5.472456	0.927059	-0.000110
 670	6.6566e+01	6.6727	46.873164	0.000446	4.459038	0.755381	-0.000089
 671	6.6665e+01	6.6525	46.752050	0.000608	6.080506	1.030066	-0.000122
 672	6.6764e+01	6.6333	46.639011	0.000568	5.675139	0.961395	-0.000114
 673	6.6864e+01	6.6143	46.570379	0.000345	3.445620	0.583704	-0.000069
 674	6.6963e+01	6.5943	46.481562	0.000446	4.459038	0.755381	-0.000089
 675	6.7063e+01	6.5739	46.376597	0.000527	5.269772	0.892724	-0.000105
 676	6.7162e+01	6.5549	46.291817	0.000426	4.256354	0.721046	-0.000085
 677	6.7262e+01	6.5347	46.150517	0.000709	7.093924	1.201743	-0.000142
 678	6.7362e+01	6.5139	46.098034	0.000263	2.634886	0.446362	-0.000053
 679	6.7461e+01	6.4941	45.968846	0.000649	6.485873	1.098737	-0.000130
 680	6.7561e+01	6.4738	45.867918	0.000507	5.067089	0.858388	-0.000101
 681	6.7660e+01	6.4539	45.771026	0.000486	4.864405	0.824053	-0.000097
 682	6.7760e+01	6.4342	45.670098	0.000507	5.067089	0.858388	-0.000101
 683	6.7859e+01	6.4143	45.585318	0.000426	4.256354	0.721046	-0.000085
 684	6.7959e+01	6.3942	45.468241	0.000588	5.877823	0.995730	-0.000118
 685	6.8058e+01	6.3750	45.351164	0.000588	5.877823	0.995730	-0.000118
 686	6.8157e+01	6.3540	45.262347	0.000446	4.459038	0.755381	-0.000089
 687	6.8257e+01	6.3351	45.193716	0.000345	3.445620	0.583704	-0.000069
 688	6.8356e+01	6.3146	45.084713	0.000547	5.472456	0.927059	-0.000110
 689	6.8456e+01	6.2962	45.008008	0.000385	3.850987	0.652375	-0.000077
 690	6.8555e+01	6.2746	44.903042	0.000527	5.269772	0.892724	-0.000105
 691	6.8655e+01	6.2550	44.810188	0.000466	4.661721	0.789717	-0.000093
 692	6.8754e+01	6.2350	44.713297	0.000486	4.864405	0.824053	-0.000097
 693	6.8854e+01	6.2159	44.592183	0.000608	6.080506	1.030066	-0.000122
 694	6.8954e+01	6.1961	44.499329	0.000466	4.661721	0.789717	-0.000093
 695	6.9053e+01	6.1759	44.418586	0.000405	4.053671	0.686710	-0.000081
 696	6.9153e+01	6.1565	44.305546	0.000568	5.675139	0.961395	-0.000114
 697	6.9252e+01	6.1355	44.212692	0.000466	4.661721	0.789717	-0.000093
 698	6.9352e+01	6.1153	44.087541	0.000628	6.283190	1.064401	-0.000126
 699	6.9451e+01	6.0958	44.002761	0.000426	4.256354	0.721046	-0.000085
 700	6.9550e+01	6.0761	43.926055	0.000385	3.850987	0.652375	-0.000077
 701	6.9650e+01	6.0552	43.817053	0.000547	5.472456	0.927059	-0.000110
 702	6.9749e+01	6.0363	43.712087	0.000527	5.269772	0.892724	-0.000105
 703	6.9849e+01	6.0162	43.611159	0.000507	5.067089	0.858388	-0.000101
 704	6.9948e+01	5.9962	43.542528	0.000345	3.445620	0.583704	-0.000069
 705	7.0048e+01	5.9774	43.425451	0.000588	5.877823	0.995730	-0.000118
 706	7.0147e+01	5.9576	43.328559	0.000486	4.864405	0.824053	-0.000097
 707	7.0247e+01	5.9376	43.231668	0.000486	4.864405	0.824053	-0.000097
 708	7.0347e+01	5.9167	43.126703	0.000527	5.269772	0.892724	-0.000105
 709	7.0446e+01	5.8978	43.013663	0.000568	5.675139	0.961395	-0.000114
 710	7.0546e+01	5.8776	42.904660	0.000547	5.472456	0.927059	-0.000110
 711	7.0645e+01	5.8575	42.799695	0.000527	5.269772	0.892724	-0.000105
 712	7.0745e+01	5.8376	42.718952	0.000405	4.053671	0.686710	-0.000081
 713	7.0844e+01	5.8175	42.642246	0.000385	3.850987	0.652375	-0.000077
 714	7.0944e+01	5.7973	42.513058	0.000649	6.485873	1.098737	-0.000130
 715	7.1043e+01	5.7772	42.424241	0.000446	4.459038	0.755381	-0.000089
 716	7.1142e+01	5.7560	42.286978	0.000689	6.891240	1.167408	-0.000138
 717	7.1242e+01	5.7372	42.182013	0.000527	5.269772	0.892724	-0.000105
 718	7.1341e+01	5.7178	42.105307	0.000385	3.850987	0.652375	-0.000077
 719	7.1441e+01	5.6977	42.000342	0.000527	5.269772	0.892724	-0.000105
 720	7.1540e+01	5.6777	41.907488	0.000466	4.661721	0.789717	-0.000093
 721	7.1640e+01	5.6577	41.750039	0.000790	7.904658	1.339085	-0.000158
 722	7.1740e+01	5.6380	41.669297	0.000405	4.053671	0.686710	-0.000081
 723	7.1839e+01	5.6179	41.588554	0.000405	4.053671	0.686710	-0.000081
 724	7.1939e+01	5.5981	41.487625	0.000507	5.067089	0.858388	-0.000101
 725	7.2038e+01	5.5782	41.378623	0.000547	5.472456	0.927059	-0.000110
 726	7.2138e+01	5.5578	41.257509	0.000608	6.080506	1.030066	-0.000122
 727	7.2237e+01	5.5384	41.144469	0.000568	5.675139	0.961395	-0.000114
 728	7.2337e+01	5.5184	41.051615	0.000466	4.661721	0.789717	-0.000093
 729	7.2436e+01	5.4992	40.954723	0.000486	4.864405	0.824053	-0.000097
 730	7.2535e+01	5.4777	40.861869	0.000466	4.661721	0.789717	-0.000093
 731	7.2635e+01	5.4585	40.756904	0.000527	5.269772	0.892724	-0.000105
 732	7.2734e+01	5.4394	40.664050	0.000466	4.661721	0.789717	-0.000093
 733	7.2834e+01	5.4179	40.534861	0.000649	6.485873	1.098737	-0.000130
 734	7.2933e+01	5.3988	40.429896	0.000527	5.269772	0.892724	-0.000105
 735	7.3033e+01	5.3790	40.304745	0.000628	6.283190	1.064401	-0.000126
 736	7.3132e+01	5.3588	40.203816	0.000507	5.067089	0.858388	-0.000101
 737	7.3232e+01	5.3393	40.090776	0.000568	5.675139	0.961395	-0.000114
 738	7.3332e+01	5.3188	39.993885	0.000486	4.864405	0.824053	-0.000097
 739	7.3431e+01	5.2990	39.913142	0.000405	4.053671	0.686710	-0.000081
 740	7.3531e+01	5.2795	39.796066	0.000588	5.877823	0.995730	-0.000118
 741	7.3630e+01	5.2594	39.691100	0.000527	5.269772	0.892724	-0.000105
 742	7.3730e+01	5.2390	39.606320	0.000426	4.256354	0.721046	-0.000085
 743	7.3829e+01	5.2190	39.477132	0.000649	6.485873	1.098737	-0.000130
 744	7.3928e+01	5.2003	39.372166	0.000527	5.269772	0.892724	-0.000105
 745	7.4028e+01	5.1806	39.251052	0.000608	6.080506	1.030066	-0.000122
 746	7.4127e+01	5.1589	39.146087	0.000527	5.269772	0.892724	-0.000105
 747	7.4227e+01	5.1397	39.053233	0.000466	4.661721	0.789717	-0.000093
 748	7.4326e+01	5.1189	38.907896	0.000730	7.296608	1.236079	-0.000146
 749	7.4426e+01	5.0996	38.855413	0.000263	2.634886	0.446362	-0.000053
 750	7.4525e+01	5.0796	38.710076	0.000730	7.296608	1.236079	-0.000146
 751	7.4625e+01	5.0594	38.601073	0.000547	5.472456	0.927059	-0.000110
 752	7.4725e+01	5.0402	38.508219	0.000466	4.661721	0.789717	-0.000093
 753	7.4824e+01	5.0208	38.379031	0.000649	6.485873	1.098737	-0.000130
 754	7.4924e+01	5.0001	38.306362	0.000365	3.648304	0.618039	-0.000073
 755	7.5023e+01	4.9809	38.193323	0.000568	5.675139	0.961395	-0.000114
 756	7.5123e+01	4.9608	38.043949	0.000750	7.499291	1.270414	-0.000150
 757	7.5222e+01	4.9401	37.959169	0.000426	4.256354	0.721046	-0.000085
 758	7.5322e+01	4.9210	37.829980	0.000649	6.485873	1.098737	-0.000130
 759	7.5421e+01	4.9008	37.741163	0.000446	4.459038	0.755381	-0.000089
 760	7.5520e+01	4.8804	37.636198	0.000527	5.269772	0.892724	-0.000105
 761	7.5620e+01	4.8607	37.551418	0.000426	4.256354	0.721046	-0.000085
 762	7.5719e+01	4.8415	37.381858	0.000851	8.512709	1.442092	-0.000170
 763	7.5819e+01	4.8208	37.252670	0.000649	6.485873	1.098737	-0.000130
 764	7.5918e+01	4.8009	37.163853	0.000446	4.459038	0.755381	-0.000089
 765	7.6018e+01	4.7817	37.038702	0.000628	6.283190	1.064401	-0.000126
 766	7.6118e+01	4.7617	36.970071	0.000345	3.445620	0.583704	-0.000069
 767	7.6217e+01	4.7410	36.812622	0.000790	7.904658	1.339085	-0.000158
 768	7.6317e+01	4.7219	36.719768	0.000466	4.661721	0.789717	-0.000093
 769	7.6416e+01	4.7024	36.634988	0.000426	4.256354	0.721046	-0.000085
 770	7.6516e+01	4.6813	36.530023	0.000527	5.269772	0.892724	-0.000105
 771	7.6615e+01	4.6613	36.392760	0.000689	6.891240	1.167408	-0.000138
 772	7.6715e+01	4.6418	36.283757	0.000547	5.472456	0.927059	-0.000110
 773	7.6814e+01	4.6220	36.186866	0.000486	4.864405	0.824053	-0.000097
 774	7.6913e+01	4.6020	36.049604	0.000689	6.891240	1.167408	-0.000138
 775	7.7013e+01	4.5818	35.924452	0.000628	6.283190	1.064401	-0.000126
 776	7.7112e+01	4.5620	35.803338	0.000608	6.080506	1.030066	-0.000122
 777	7.7212e+01	4.5415	35.698373	0.000527	5.269772	0.892724	-0.000105
 778	7.7311e+01	4.5227	35.597444	0.000507	5.067089	0.858388	-0.000101
 779	7.7411e+01	4.5025	35.452107	0.000730	7.296608	1.236079	-0.000146
 780	7.7510e+01	4.4825	35.339068	0.000568	5.675139	0.961395	-0.000114
 781	7.7610e+01	4.4624	35.230065	0.000547	5.472456	0.927059	-0.000110
 782	7.7710e+01	4.4428	35.133174	0.000486	4.864405	0.824053	-0.000097
 783	7.7809e+01	4.4225	34.979763	0.000770	7.701975	1.304750	-0.000154
 784	7.7909e+01	4.4024	34.886908	0.000466	4.661721	0.789717	-0.000093
 785	7.8008e+01	4.3834	34.765794	0.000608	6.080506	1.030066	-0.000122
 786	7.8108e+01	4.3624	34.644680	0.000608	6.080506	1.030066	-0.000122
 787	7.8207e+01	4.3433	34.531641	0.000568	5.675139	0.961395	-0.000114
 788	7.8306e+01	4.3224	34.390341	0.000709	7.093924	1.201743	-0.000142
 789	7.8406e+01	4.3038	34.277301	0.000568	5.675139	0.961395	-0.000114
 790	7.8505e+01	4.2828	34.156187	0.000608	6.080506	1.030066	-0.000122
 791	7.8605e+01	4.2629	34.043147	0.000568	5.675139	0.961395	-0.000114
 792	7.8704e+01	4.2436	33.905884	0.000689	6.891240	1.167408	-0.000138
 793	7.8804e+01	4.2236	33.792845	0.000568	5.675139	0.961395	-0.000114
 794	7.8903e+01	4.2038	33.704028	0.000446	4.459038	0.755381	-0.000089
 795	7.9003e+01	4.1829	33.562728	0.000709	7.093924	1.201743	-0.000142
 796	7.9103e+01	4.1631	33.429502	0.000669	6.688557	1.133072	-0.000134
 797	7.9202e+01	4.1442	33.312426	0.000588	5.877823	0.995730	-0.000118
 798	7.9302e+01	4.1245	33.211497	0.000507	5.067089	0.858388	-0.000101
 799	7.9401e+01	4.1036	33.102494	0.000547	5.472456	0.927059	-0.000110
 800	7.9501e+01	4.0830	32.969269	0.000669	6.688557	1.133072	-0.000134
 801	7.9600e+01	4.0646	32.856229	0.000568	5.675139	0.961395	-0.000114
 802	7.9700e+01	4.0446	32.767412	0.000446	4.459038	0.755381	-0.000089
 803	7.9799e+01	4.0242	32.597853	0.000851	8.512709	1.442092	-0.000170
 804	7.9898e+01	4.0038	32.496924	0.000507	5.067089	0.858388	-0.000101
 805	7.9998e+01	3.9845	32.371773	0.000628	6.283190	1.064401	-0.000126
 806	8.0097e+01	3.9651	32.274882	0.000486	4.864405	0.824053	-0.000097
 807	8.0197e+01	3.9442	32.117433	0.000790	7.904658	1.339085	-0.000158
 808	8.0296e+01	3.9245	32.032654	0.000426	4.256354	0.721046	-0.000085
 809	8.0396e+01	3.9051	31.935762	0.000486	4.864405	0.824053	-0.000097
 810	8.0496e+01	3.8837	31.778314	0.000790	7.904658	1.339085	-0.000158
 811	8.0595e+01	3.8646	31.653163	0.000628	6.283190	1.064401	-0.000126
 812	8.0695e+01	3.8453	31.532049	0.000608	6.080506	1.030066	-0.000122
 813	8.0794e+01	3.8247	31.427083	0.000527	5.269772	0.892724	-0.000105
 814	8.0894e+01	3.8035	31.285783	0.000709	7.093924	1.201743	-0.000142
 815	8.0993e+01	3.7832	31.172744	0.000568	5.675139	0.961395	-0.000114
 816	8.1093e+01	3.7655	31.047592	0.000628	6.283190	1.064401	-0.000126
 817	8.1192e+01	3.7463	30.938590	0.000547	5.472456	0.927059	-0.000110
 818	8.1291e+01	3.7254	30.825550	0.000568	5.675139	0.961395	-0.000114
 819	8.1391e+01	3.7053	30.688287	0.000689	6.891240	1.167408	-0.000138
 820	8.1490e+01	3.6856	30.555062	0.000669	6.688557	1.133072	-0.000134
 821	8.1590e+01	3.6661	30.470282	0.000426	4.256354	0.721046	-0.000085
 822	8.1689e+01	3.6453	30.312834	0.000790	7.904658	1.339085	-0.000158
 823	8.1789e+01	3.6265	30.199794	0.000568	5.675139	0.961395	-0.000114
 824	8.1888e+01	3.6069	30.070606	0.000649	6.485873	1.098737	-0.000130
 825	8.1988e+01	3.5870	29.957566	0.000568	5.675139	0.961395	-0.000114
 826	8.2088e+01	3.5661	29.844526	0.000568	5.675139	0.961395	-0.000114
 827	8.2187e+01	3.5464	29.747635	0.000486	4.864405	0.824053	-0.000097
 828	8.2287e+01	3.5262	29.598261	0.000750	7.499291	1.270414	-0.000150
 829	8.2386e+01	3.5059	29.452924	0.000730	7.296608	1.236079	-0.000146
 830	8.2486e+01	3.4867	29.364107	0.000446	4.459038	0.755381	-0.000089
 831	8.2585e+01	3.4667	29.222807	0.000709	7.093924	1.201743	-0.000142
 832	8.2684e+01	3.4470	29.053247	0.000851	8.512709	1.442092	-0.000170
 833	8.2784e+01	3.4277	28.996727	0.000284	2.837570	0.480697	-0.000057
 834	8.2883e+01	3.4073	28.867539	0.000649	6.485873	1.098737	-0.000130
 835	8.2983e+01	3.3868	28.734314	0.000669	6.688557	1.133072	-0.000134
 836	8.3082e+01	3.3663	28.584940	0.000750	7.499291	1.270414	-0.000150
 837	8.3182e+01	3.3475	28.467863	0.000588	5.877823	0.995730	-0.000118
 838	8.3281e+01	3.3270	28.334637	0.000669	6.688557	1.133072	-0.000134
 839	8.3381e+01	3.3073	28.229672	0.000527	5.269772	0.892724	-0.000105
 840	8.3481e+01	3.2874	28.116632	0.000568	5.675139	0.961395	-0.000114
 841	8.3580e+01	3.2667	27.999555	0.000588	5.877823	0.995730	-0.000118
 842	8.3680e+01	3.2470	27.854218	0.000730	7.296608	1.236079	-0.000146
 843	8.3779e+01	3.2276	27.733104	0.000608	6.080506	1.030066	-0.000122
 844	8.3879e+01	3.2073	27.603916	0.000649	6.485873	1.098737	-0.000130
 845	8.3978e+01	3.1882	27.531247	0.000365	3.648304	0.618039	-0.000073
 846	8.4078e+01	3.1676	27.393985	0.000689	6.891240	1.167408	-0.000138
 847	8.4177e+01	3.1489	27.252685	0.000709	7.093924	1.201743	-0.000142
 848	8.4276e+01	3.1280	27.083125	0.000851	8.512709	1.442092	-0.000170
 849	8.4376e+01	3.1084	27.026605	0.000284	2.837570	0.480697	-0.000057
 850	8.4475e+01	3.0876	26.873194	0.000770	7.701975	1.304750	-0.000154
 851	8.4575e+01	3.0684	26.780340	0.000466	4.661721	0.789717	-0.000093
 852	8.4674e+01	3.0480	26.635003	0.000730	7.296608	1.236079	-0.000146
 853	8.4774e+01	3.0279	26.501778	0.000669	6.688557	1.133072	-0.000134
 854	8.4874e+01	3.0085	26.380663	0.000608	6.080506	1.030066	-0.000122
 855	8.4973e+01	2.9885	26.279735	0.000507	5.067089	0.858388	-0.000101
 856	8.5073e+01	2.9685	26.150547	0.000649	6.485873	1.098737	-0.000130
 857	8.5172e+01	2.9481	25.997136	0.000770	7.701975	1.304750	-0.000154
 858	8.5272e+01	2.9277	25.900244	0.000486	4.864405	0.824053	-0.000097
 859	8.5371e+01	2.9079	25.795279	0.000527	5.269772	0.892724	-0.000105
 860	8.5471e+01	2.8890	25.662053	0.000669	6.688557	1.133072	-0.000134
 861	8.5570e+01	2.8684	25.532865	0.000649	6.485873	1.098737	-0.000130
 862	8.5669e+01	2.8487	25.431937	0.000507	5.067089	0.858388	-0.000101
 863	8.5769e+01	2.8289	25.246228	0.000932	9.323443	1.579434	-0.000187
 864	8.5868e+01	2.8093	25.141263	0.000527	5.269772	0.892724	-0.000105
 865	8.5968e+01	2.7899	25.028223	0.000568	5.675139	0.961395	-0.000114
 866	8.6067e+01	2.7688	24.907109	0.000608	6.080506	1.030066	-0.000122
 867	8.6167e+01	2.7492	24.790032	0.000588	5.877823	0.995730	-0.000118
 868	8.6266e+01	2.7285	24.636621	0.000770	7.701975	1.304750	-0.000154
 869	8.6366e+01	2.7093	24.535692	0.000507	5.067089	0.858388	-0.000101
 870	8.6466e+01	2.6894	24.402467	0.000669	6.688557	1.133072	-0.000134
 871	8.6565e+01	2.6699	24.293464	0.000547	5.472456	0.927059	-0.000110
 872	8.6665e+01	2.6490	24.156202	0.000689	6.891240	1.167408	-0.000138
 873	8.6764e+01	2.6292	24.031050	0.000628	6.283190	1.064401	-0.000126
 874	8.6864e+01	2.6097	23.889751	0.000709	7.093924	1.201743	-0.000142
 875	8.6963e+01	2.5895	23.768637	0.000608	6.080506	1.030066	-0.000122
 876	8.7063e+01	2.5706	23.679820	0.000446	4.459038	0.755381	-0.000089
 877	8.7162e+01	2.5495	23.534483	0.000730	7.296608	1.236079	-0.000146
 878	8.7261e+01	2.5300	23.393183	0.000709	7.093924	1.201743	-0.000142
 879	8.7361e+01	2.5089	23.280143	0.000568	5.675139	0.961395	-0.000114
 880	8.7460e+01	2.4911	23.159029	0.000608	6.080506	1.030066	-0.000122
 881	8.7560e+01	2.4702	23.033878	0.000628	6.283190	1.064401	-0.000126
 882	8.7659e+01	2.4509	22.904690	0.000649	6.485873	1.098737	-0.000130
 883	8.7759e+01	2.4306	22.787613	0.000588	5.877823	0.995730	-0.000118
 884	8.7859e+01	2.4113	22.674573	0.000568	5.675139	0.961395	-0.000114
 885	8.7958e+01	2.3905	22.496939	0.000892	8.918076	1.510763	-0.000179
 886	8.8058e+01	2.3710	22.391973	0.000527	5.269772	0.892724	-0.000105
 887	8.8157e+01	2.3512	22.291045	0.000507	5.067089	0.858388	-0.000101
 888	8.8257e+01	2.3309	22.105337	0.000932	9.323443	1.579434	-0.000187
 889	8.8356e+01	2.3106	22.000371	0.000527	5.269772	0.892724	-0.000105
 890	8.8456e+01	2.2919	21.842923	0.000790	7.904658	1.339085	-0.000158
 891	8.8555e+01	2.2715	21.758143	0.000426	4.256354	0.721046	-0.000085
 892	8.8654e+01	2.2513	21.616843	0.000709	7.093924	1.201743	-0.000142
 893	8.8754e+01	2.2308	21.479581	0.000689	6.891240	1.167408	-0.000138
 894	8.8853e+01	2.2112	21.378652	0.000507	5.067089	0.858388	-0.000101
 895	8.8953e+01	2.1912	21.237353	0.000709	7.093924	1.201743	-0.000142
 896	8.9052e+01	2.1716	21.079904	0.000790	7.904658	1.339085	-0.000158
 897	8.9152e+01	2.1514	21.007236	0.000365	3.648304	0.618039	-0.000073
 898	8.9251e+01	2.1314	20.817490	0.000953	9.526127	1.613770	-0.000191
 899	8.9351e+01	2.1117	20.716562	0.000507	5.067089	0.858388	-0.000101
 900	8.9451e+01	2.0907	20.563151	0.000770	7.701975	1.304750	-0.000154
 901	8.9550e+01	2.0708	20.417814	0.000730	7.296608	1.236079	-0.000146
 902	8.9650e+01	2.0524	20.264403	0.000770	7.701975	1.304750	-0.000154
 903	8.9749e+01	2.0330	20.175586	0.000446	4.459038	0.755381	-0.000089
 904	8.9849e+01	2.0123	20.046398	0.000649	6.485873	1.098737	-0.000130
 905	8.9948e+01	1.9918	19.945469	0.000507	5.067089	0.858388	-0.000101
 906	9.0047e+01	1.9716	19.759761	0.000932	9.323443	1.579434	-0.000187
 907	9.0147e+01	1.9522	19.683055	0.000385	3.850987	0.652375	-0.000077
 908	9.0246e+01	1.9313	19.549830	0.000669	6.688557	1.133072	-0.000134
 909	9.0346e+01	1.9126	19.404493	0.000730	7.296608	1.236079	-0.000146
 910	9.0445e+01	1.8916	19.267230	0.000689	6.891240	1.167408	-0.000138
 911	9.0545e+01	1.8726	19.117856	0.000750	7.499291	1.270414	-0.000150
 912	9.0644e+01	1.8520	18.992705	0.000628	6.283190	1.064401	-0.000126
 913	9.0744e+01	1.8332	18.843331	0.000750	7.499291	1.270414	-0.000150
 914	9.0844e+01	1.8130	18.726254	0.000588	5.877823	0.995730	-0.000118
 915	9.0943e+01	1.7921	18.593029	0.000669	6.688557	1.133072	-0.000134
 916	9.1043e+01	1.7731	18.488063	0.000527	5.269772	0.892724	-0.000105
 917	9.1142e+01	1.7525	18.334652	0.000770	7.701975	1.304750	-0.000154
 918	9.1242e+01	1.7330	18.189315	0.000730	7.296608	1.236079	-0.000146
 919	9.1341e+01	1.7132	18.112609	0.000385	3.850987	0.652375	-0.000077
 920	9.1441e+01	1.6928	17.934976	0.000892	8.918076	1.510763	-0.000179
 921	9.1540e+01	1.6737	17.825973	0.000547	5.472456	0.927059	-0.000110
 922	9.1639e+01	1.6529	17.688710	0.000689	6.891240	1.167408	-0.000138
 923	9.1739e+01	1.6333	17.527225	0.000811	8.107342	1.373421	-0.000162
 924	9.1838e+01	1.6132	17.385925	0.000709	7.093924	1.201743	-0.000142
 925	9.1938e+01	1.5936	17.280960	0.000527	5.269772	0.892724	-0.000105
 926	9.2037e+01	1.5728	17.167920	0.000568	5.675139	0.961395	-0.000114
 927	9.2137e+01	1.5537	17.030657	0.000689	6.891240	1.167408	-0.000138
 928	9.2237e+01	1.5327	16.881283	0.000750	7.499291	1.270414	-0.000150
 929	9.2336e+01	1.5143	16.756132	0.000628	6.283190	1.064401	-0.000126
 930	9.2436e+01	1.4931	16.610795	0.000730	7.296608	1.236079	-0.000146
 931	9.2535e+01	1.4736	16.501792	0.000547	5.472456	0.927059	-0.000110
 932	9.2635e+01	1.4548	16.344344	0.000790	7.904658	1.339085	-0.000158
 933	9.2734e+01	1.4344	16.211119	0.000669	6.688557	1.133072	-0.000134
 934	9.2834e+01	1.4146	16.069819	0.000709	7.093924	1.201743	-0.000142
 935	9.2933e+01	1.3945	15.920445	0.000750	7.499291	1.270414	-0.000150
 936	9.3032e+01	1.3739	15.767034	0.000770	7.701975	1.304750	-0.000154
 937	9.3132e+01	1.3553	15.653994	0.000568	5.675139	0.961395	-0.000114
 938	9.3231e+01	1.3346	15.544991	0.000547	5.472456	0.927059	-0.000110
 939	9.3331e+01	1.3146	15.395617	0.000750	7.499291	1.270414	-0.000150
 940	9.3430e+01	1.2944	15.250280	0.000730	7.296608	1.236079	-0.000146
 941	9.3530e+01	1.2749	15.104943	0.000730	7.296608	1.236079	-0.000146
 942	9.3629e+01	1.2558	14.939421	0.000831	8.310025	1.407756	-0.000166
 943	9.3729e+01	1.2353	14.838492	0.000507	5.067089	0.858388	-0.000101
 944	9.3829e+01	1.2159	14.689118	0.000750	7.499291	1.270414	-0.000150
 945	9.3928e+01	1.1952	14.547819	0.000709	7.093924	1.201743	-0.000142
 946	9.4028e+01	1.1758	14.378259	0.000851	8.512709	1.442092	-0.000170
 947	9.4127e+01	1.1557	14.301553	0.000385	3.850987	0.652375	-0.000077
 948	9.4227e+01	1.1356	14.168328	0.000669	6.688557	1.133072	-0.000134
 949	9.4326e+01	1.1151	13.990694	0.000892	8.918076	1.510763	-0.000179
 950	9.4425e+01	1.0963	13.825171	0.000831	8.310025	1.407756	-0.000166
 951	9.4525e+01	1.0760	13.683872	0.000709	7.093924	1.201743	-0.000142
 952	9.4624e+01	1.0566	13.538535	0.000730	7.296608	1.236079	-0.000146
 953	9.4724e+01	1.0356	13.445681	0.000466	4.661721	0.789717	-0.000093
 954	9.4823e+01	1.0167	13.292269	0.000770	7.701975	1.304750	-0.000154
 955	9.4923e+01	0.9959	13.150970	0.000709	7.093924	1.201743	-0.000142
 956	9.5022e+01	0.9760	12.993521	0.000790	7.904658	1.339085	-0.000158
 957	9.5122e+01	0.9562	12.872407	0.000608	6.080506	1.030066	-0.000122
 958	9.5222e+01	0.9365	12.731108	0.000709	7.093924	1.201743	-0.000142
 959	9.5321e+01	0.9163	12.585771	0.000730	7.296608	1.236079	-0.000146
 960	9.5421e+01	0.8968	12.484842	0.000507	5.067089	0.858388	-0.000101
 961	9.5520e+01	0.8773	12.282985	0.001013	10.134177	1.716776	-0.000203
 962	9.5620e+01	0.8566	12.157834	0.000628	6.283190	1.064401	-0.000126
 963	9.5719e+01	0.8367	12.028646	0.000649	6.485873	1.098737	-0.000130
 964	9.5819e+01	0.8168	11.871198	0.000790	7.904658	1.339085	-0.000158
 965	9.5918e+01	0.7970	11.758158	0.000568	5.675139	0.961395	-0.000114
 966	9.6017e+01	0.7767	11.616858	0.000709	7.093924	1.201743	-0.000142
 967	9.6117e+01	0.7568	11.451336	0.000831	8.310025	1.407756	-0.000166
 968	9.6216e+01	0.7371	11.346370	0.000527	5.269772	0.892724	-0.000105
 969	9.6316e+01	0.7169	11.217182	0.000649	6.485873	1.098737	-0.000130
 970	9.6415e+01	0.6971	11.059733	0.000790	7.904658	1.339085	-0.000158
 971	9.6515e+01	0.6771	10.926508	0.000669	6.688557	1.133072	-0.000134
 972	9.6615e+01	0.6573	10.777134	0.000750	7.499291	1.270414	-0.000150
 973	9.6714e+01	0.6376	10.660057	0.000588	5.877823	0.995730	-0.000118
 974	9.6814e+01	0.6176	10.490497	0.000851	8.512709	1.442092	-0.000170
 975	9.6913e+01	0.5974	10.361309	0.000649	6.485873	1.098737	-0.000130
 976	9.7013e+01	0.5779	10.228083	0.000669	6.688557	1.133072	-0.000134
 977	9.7112e+01	0.5576	10.102932	0.000628	6.283190	1.064401	-0.000126
 978	9.7212e+01	0.5382	9.949521	0.000770	7.701975	1.304750	-0.000154
 979	9.7311e+01	0.5179	9.808221	0.000709	7.093924	1.201743	-0.000142
 980	9.7410e+01	0.4977	9.662884	0.000730	7.296608	1.236079	-0.000146
 981	9.7510e+01	0.4787	9.517548	0.000730	7.296608	1.236079	-0.000146
 982	9.7609e+01	0.4580	9.368173	0.000750	7.499291	1.270414	-0.000150
 983	9.7709e+01	0.4385	9.238985	0.000649	6.485873	1.098737	-0.000130
 984	9.7808e+01	0.4173	9.085574	0.000770	7.701975	1.304750	-0.000154
 985	9.7908e+01	0.3997	8.924089	0.000811	8.107342	1.373421	-0.000162
 986	9.8007e+01	0.3784	8.843346	0.000405	4.053671	0.686710	-0.000081
 987	9.8107e+01	0.3580	8.685898	0.000790	7.904658	1.339085	-0.000158
 988	9.8207e+01	0.3389	8.528449	0.000790	7.904658	1.339085	-0.000158
 989	9.8306e+01	0.3190	8.411372	0.000588	5.877823	0.995730	-0.000118
 990	9.8406e+01	0.2992	8.233738	0.000892	8.918076	1.510763	-0.000179
 991	9.8505e+01	0.2783	8.120699	0.000568	5.675139	0.961395	-0.000114
 992	9.8605e+01	0.2589	7.943065	0.000892	8.918076	1.510763	-0.000179
 993	9.8704e+01	0.2394	7.830025	0.000568	5.675139	0.961395	-0.000114
 994	9.8803e+01	0.2178	7.672576	0.000790	7.904658	1.339085	-0.000158
 995	9.8903e+01	0.1985	7.575685	0.000486	4.864405	0.824053	-0.000097
 996	9.9002e+01	0.1786	7.394014	0.000912	9.120759	1.545098	-0.000183
 997	9.9102e+01	0.1598	7.256751	0.000689	6.891240	1.167408	-0.000138
 998	9.9201e+01	0.1382	7.095266	0.000811	8.107342	1.373421	-0.000162
 999	9.9301e+01	0.1197	6.966078	0.000649	6.485873	1.098737	-0.000130
1000	9.9400e+01	0.0996	6.873224	0.000466	4.661721	0.789717	-0.000093
1001	9.9500e+01	0.0787	6.679441	0.000973	9.728810	1.648105	-0.000195
1002	9.9600e+01	0.0591	6.562364	0.000588	5.877823	0.995730	-0.000118
1003	9.9699e+01	0.0383	6.348396	0.001074	10.742228	1.819783	-0.000215
1004	9.9799e+01	0.0204	6.263616	0.000426	4.256354	0.721046	-0.000085
1005	9.9898e+01	-0.0003	6.118279	0.000730	7.296608	1.236079	-0.000146
1006	9.9998e+01	-0.0190	5.981017	0.000689	6.891240	1.167408	-0.000138
1007	1.0010e+02	-0.0386	5.859903	0.000608	6.080506	1.030066	-0.000122
1008	1.0020e+02	-0.0586	5.658046	0.001013	10.134177	1.716776	-0.000203
1009	1.0030e+02	-0.0781	5.569229	0.000446	4.459038	0.755381	-0.000089
1010	1.0040e+02	-0.0986	5.444078	0.000628	6.283190	1.064401	-0.000126
1011	1.0050e+02	-0.1178	5.294704	0.000750	7.499291	1.270414	-0.000150
1012	1.0059e+02	-0.1373	5.153404	0.000709	7.093924	1.201743	-0.000142
1013	1.0069e+02	-0.1578	4.967696	0.000932	9.323443	1.579434	-0.000187
1014	1.0079e+02	-0.1770	4.850619	0.000588	5.877823	0.995730	-0.000118
1015	1.0089e+02	-0.1981	4.737579	0.000568	5.675139	0.961395	-0.000114
1016	1.0099e+02	-0.2184	4.584168	0.000770	7.701975	1.304750	-0.000154
1017	1.0109e+02	-0.2375	4.454979	0.000649	6.485873	1.098737	-0.000130
1018	1.0119e+02	-0.2581	4.277345	0.000892	8.918076	1.510763	-0.000179
1019	1.0129e+02	-0.2773	4.152194	0.000628	6.283190	1.064401	-0.000126
1020	1.0139e+02	-0.2977	4.010894	0.000709	7.093924	1.201743	-0.000142
1021	1.0149e+02	-0.3170	3.922077	0.000446	4.459038	0.755381	-0.000089
1022	1.0159e+02	-0.3379	3.724258	0.000993	9.931494	1.682441	-0.000199
1023	1.0169e+02	-0.3565	3.582958	0.000709	7.093924	1.201743	-0.000142
1024	1.0179e+02	-0.3771	3.449732	0.000669	6.688557	1.133072	-0.000134
1025	1.0189e+02	-0.3967	3.308433	0.000709	7.093924	1.201743	-0.000142
1026	1.0199e+02	-0.4175	3.171170	0.000689	6.891240	1.167408	-0.000138
1027	1.0209e+02	-0.4374	3.041982	0.000649	6.485873	1.098737	-0.000130
1028	1.0219e+02	-0.4579	2.884533	0.000790	7.904658	1.339085	-0.000158
1029	1.0229e+02	-0.4775	2.747271	0.000689	6.891240	1.167408	-0.000138
1030	1.0239e+02	-0.4971	2.618083	0.000649	6.485873	1.098737	-0.000130
1031	1.0248e+02	-0.5164	2.496968	0.000608	6.080506	1.030066	-0.000122
1032	1.0258e+02	-0.5370	2.351632	0.000730	7.296608	1.236079	-0.000146
1033	1.0268e+02	-0.5567	2.222443	0.000649	6.485873	1.098737	-0.000130
1034	1.0278e+02	-0.5765	2.069032	0.000770	7.701975	1.304750	-0.000154
1035	1.0288e+02	-0.5964	1.891398	0.000892	8.918076	1.510763	-0.000179
1036	1.0298e+02	-0.6161	1.778358	0.000568	5.675139	0.961395	-0.000114
1037	1.0308e+02	-0.6367	1.653207	0.000628	6.283190	1.064401	-0.000126
1038	1.0318e+02	-0.6560	1.511907	0.000709	7.093924	1.201743	-0.000142
1039	1.0328e+02	-0.6760	1.342348	0.000851	8.512709	1.442092	-0.000170
1040	1.0338e+02	-0.6966	1.241419	0.000507	5.067089	0.858388	-0.000101
1041	1.0348e+02	-0.7158	1.067822	0.000872	8.715392	1.476427	-0.000174
1042	1.0358e+02	-0.7358	0.926523	0.000709	7.093924	1.201743	-0.000142
1043	1.0368e+02	-0.7555	0.825594	0.000507	5.067089	0.858388	-0.000101
1044	1.0378e+02	-0.7760	0.676220	0.000750	7.499291	1.270414	-0.000150
1045	1.0388e+02	-0.7964	0.502623	0.000872	8.715392	1.476427	-0.000174
1046	1.0398e+02	-0.8161	0.349212	0.000770	7.701975	1.304750	-0.000154
1047	1.0408e+02	-0.8359	0.240210	0.000547	5.472456	0.927059	-0.000110
1048	1.0418e+02	-0.8553	0.106984	0.000669	6.688557	1.133072	-0.000134
1049	1.0428e+02	-0.8744	-0.022204	0.000649	6.485873	1.098737	-0.000130
1050	1.0438e+02	-0.8945	-0.199838	0.000892	8.918076	1.510763	-0.000179
1051	1.0447e+02	-0.9151	-0.312878	0.000568	5.675139	0.961395	-0.000114
1052	1.0457e+02	-0.9349	-0.462252	0.000750	7.499291	1.270414	-0.000150
1053	1.0467e+02	-0.9555	-0.615663	0.000770	7.701975	1.304750	-0.000154
1054	1.0477e+02	-0.9749	-0.752926	0.000689	6.891240	1.167408	-0.000138
1055	1.0487e+02	-0.9948	-0.922486	0.000851	8.512709	1.442092	-0.000170
1056	1.0497e+02	-1.0152	-1.035525	0.000568	5.675139	0.961395	-0.000114
1057	1.0507e+02	-1.0305	-1.188936	0.000770	7.701975	1.304750	-0.000154
1058	1.0517e+02	-1.0557	-1.310051	0.000608	6.080506	1.030066	-0.000122
1059	1.0527e+02	-1.0748	-1.495759	0.000932	9.323443	1.579434	-0.000187
1060	1.0537e+02	-1.0950	-1.600724	0.000527	5.269772	0.892724	-0.000105
1061	1.0547e+02	-1.1142	-1.746061	0.000730	7.296608	1.236079	-0.000146
1062	1.0557e+02	-1.1349	-1.895435	0.000750	7.499291	1.270414	-0.000150
1063	1.0567e+02	-1.1546	-2.024624	0.000649	6.485873	1.098737	-0.000130
1064	1.0577e+02	-1.1746	-2.149775	0.000628	6.283190	1.064401	-0.000126
1065	1.0587e+02	-1.1945	-2.307223	0.000790	7.904658	1.339085	-0.000158
1066	1.0597e+02	-1.2153	-2.472746	0.000831	8.310025	1.407756	-0.000166
1067	1.0607e+02	-1.2343	-2.622120	0.000750	7.499291	1.270414	-0.000150
1068	1.0617e+02	-1.2547	-2.735159	0.000568	5.675139	0.961395	-0.000114
1069	1.0627e+02	-1.2730	-2.860311	0.000628	6.283190	1.064401	-0.000126
1070	1.0637e+02	-1.2938	-3.025833	0.000831	8.310025	1.407756	-0.000166
1071	1.0647e+02	-1.3138	-3.155022	0.000649	6.485873	1.098737	-0.000130
1072	1.0656e+02	-1.3329	-3.284210	0.000649	6.485873	1.098737	-0.000130
1073	1.0666e+02	-1.3531	-3.457807	0.000872	8.715392	1.476427	-0.000174
1074	1.0676e+02	-1.3739	-3.574884	0.000588	5.877823	0.995730	-0.000118
1075	1.0686e+02	-1.3932	-3.736369	0.000811	8.107342	1.373421	-0.000162
1076	1.0696e+02	-1.4125	-3.857483	0.000608	6.080506	1.030066	-0.000122
1077	1.0706e+02	-1.4329	-4.027043	0.000851	8.512709	1.442092	-0.000170
1078	1.0716e+02	-1.4531	-4.119897	0.000466	4.661721	0.789717	-0.000093
1079	1.0726e+02	-1.4721	-4.285420	0.000831	8.310025	1.407756	-0.000166
1080	1.0736e+02	-1.4929	-4.450942	0.000831	8.310025	1.407756	-0.000166
1081	1.0746e+02	-1.5121	-4.588205	0.000689	6.891240	1.167408	-0.000138
1082	1.0756e+02	-1.5326	-4.717393	0.000649	6.485873	1.098737	-0.000130
1083	1.0766e+02	-1.5527	-4.826396	0.000547	5.472456	0.927059	-0.000110
1084	1.0776e+02	-1.5726	-4.995955	0.000851	8.512709	1.442092	-0.000170
1085	1.0786e+02	-1.5923	-5.129181	0.000669	6.688557	1.133072	-0.000134
1086	1.0796e+02	-1.6122	-5.282592	0.000770	7.701975	1.304750	-0.000154
1087	1.0806e+02	-1.6315	-5.387558	0.000527	5.269772	0.892724	-0.000105
1088	1.0816e+02	-1.6531	-5.573266	0.000932	9.323443	1.579434	-0.000187
1089	1.0826e+02	-1.6718	-5.694380	0.000608	6.080506	1.030066	-0.000122
1090	1.0836e+02	-1.6924	-5.851828	0.000790	7.904658	1.339085	-0.000158
1091	1.0845e+02	-1.7127	-6.005239	0.000770	7.701975	1.304750	-0.000154
1092	1.0855e+02	-1.7324	-6.142502	0.000689	6.891240	1.167408	-0.000138
1093	1.0865e+02	-1.7516	-6.235356	0.000466	4.661721	0.789717	-0.000093
1094	1.0875e+02	-1.7718	-6.408953	0.000872	8.715392	1.476427	-0.000174
1095	1.0885e+02	-1.7918	-6.594661	0.000932	9.323443	1.579434	-0.000187
1096	1.0895e+02	-1.8127	-6.719812	0.000628	6.283190	1.064401	-0.000126
1097	1.0905e+02	-1.8313	-6.816704	0.000486	4.864405	0.824053	-0.000097
1098	1.0915e+02	-1.8520	-6.921669	0.000527	5.269772	0.892724	-0.000105
1099	1.0925e+02	-1.8719	-7.123526	0.001013	10.134177	1.716776	-0.000203
1100	1.0935e+02	-1.8915	-7.285011	0.000811	8.107342	1.373421	-0.000162
1101	1.0945e+02	-1.9111	-7.373828	0.000446	4.459038	0.755381	-0.000089
1102	1.0955e+02	-1.9304	-7.551462	0.000892	8.918076	1.510763	-0.000179
1103	1.0965e+02	-1.9524	-7.672576	0.000608	6.080506	1.030066	-0.000122
1104	1.0975e+02	-1.9726	-7.805802	0.000669	6.688557	1.133072	-0.000134
1105	1.0985e+02	-1.9919	-7.963250	0.000790	7.904658	1.339085	-0.000158
1106	1.0995e+02	-2.0107	-8.100513	0.000689	6.891240	1.167408	-0.000138
1107	1.1005e+02	-2.0306	-8.257961	0.000790	7.904658	1.339085	-0.000158
1108	1.1015e+02	-2.0506	-8.387149	0.000649	6.485873	1.098737	-0.000130
1109	1.1025e+02	-2.0709	-8.544598	0.000790	7.904658	1.339085	-0.000158
1110	1.1035e+02	-2.0912	-8.677823	0.000669	6.688557	1.133072	-0.000134
1111	1.1044e+02	-2.1114	-8.859494	0.000912	9.120759	1.545098	-0.000183
1112	1.1054e+02	-2.1307	-8.992720	0.000669	6.688557	1.133072	-0.000134
1113	1.1064e+02	-2.1510	-9.182465	0.000953	9.526127	1.613770	-0.000191
1114	1.1074e+02	-2.1707	-9.222837	0.000203	2.026835	0.343355	-0.000041
1115	1.1084e+02	-2.1903	-9.424693	0.001013	10.134177	1.716776	-0.000203
1116	1.1094e+02	-2.2104	-9.582142	0.000790	7.904658	1.339085	-0.000158
1117	1.1104e+02	-2.2298	-9.711330	0.000649	6.485873	1.098737	-0.000130
1118	1.1114e+02	-2.2509	-9.880890	0.000851	8.512709	1.442092	-0.000170
1119	1.1124e+02	-2.2701	-9.973744	0.000466	4.661721	0.789717	-0.000093
1120	1.1134e+02	-2.2900	-10.127155	0.000770	7.701975	1.304750	-0.000154
1121	1.1144e+02	-2.3094	-10.292678	0.000831	8.310025	1.407756	-0.000166
1122	1.1154e+02	-2.3301	-10.409755	0.000588	5.877823	0.995730	-0.000118
1123	1.1164e+02	-2.3499	-10.567203	0.000790	7.904658	1.339085	-0.000158
1124	1.1174e+02	-2.3705	-10.684280	0.000588	5.877823	0.995730	-0.000118
1125	1.1184e+02	-2.3897	-10.853839	0.000851	8.512709	1.442092	-0.000170
1126	1.1194e+02	-2.4102	-11.031473	0.000892	8.918076	1.510763	-0.000179
1127	1.1204e+02	-2.4304	-11.108179	0.000385	3.850987	0.652375	-0.000077
1128	1.1214e+02	-2.4495	-11.253516	0.000730	7.296608	1.236079	-0.000146
1129	1.1224e+02	-2.4693	-11.427113	0.000872	8.715392	1.476427	-0.000174
1130	1.1234e+02	-2.4905	-11.552264	0.000628	6.283190	1.064401	-0.000126
1131	1.1244e+02	-2.5093	-11.689527	0.000689	6.891240	1.167408	-0.000138
1132	1.1253e+02	-2.5288	-11.842938	0.000770	7.701975	1.304750	-0.000154
1133	1.1263e+02	-2.5495	-11.951940	0.000547	5.472456	0.927059	-0.000110
1134	1.1273e+02	-2.5698	-12.145723	0.000973	9.728810	1.648105	-0.000195
1135	1.1283e+02	-2.5887	-12.226466	0.000405	4.053671	0.686710	-0.000081
1136	1.1293e+02	-2.6089	-12.387951	0.000811	8.107342	1.373421	-0.000162
1137	1.1303e+02	-2.6294	-12.557511	0.000851	8.512709	1.442092	-0.000170
1138	1.1313e+02	-2.6480	-12.658439	0.000507	5.067089	0.858388	-0.000101
1139	1.1323e+02	-2.6689	-12.779553	0.000608	6.080506	1.030066	-0.000122
1140	1.1333e+02	-2.6890	-12.937001	0.000790	7.904658	1.339085	-0.000158
1141	1.1343e+02	-2.7089	-13.074264	0.000689	6.891240	1.167408	-0.000138
1142	1.1353e+02	-2.7281	-13.231712	0.000790	7.904658	1.339085	-0.000158
1143	1.1363e+02	-2.7480	-13.348789	0.000588	5.877823	0.995730	-0.000118
1144	1.1373e+02	-2.7678	-13.486052	0.000689	6.891240	1.167408	-0.000138
1145	1.1383e+02	-2.7881	-13.635426	0.000750	7.499291	1.270414	-0.000150
1146	1.1393e+02	-2.8075	-13.764614	0.000649	6.485873	1.098737	-0.000130
1147	1.1403e+02	-2.8284	-13.942248	0.000892	8.918076	1.510763	-0.000179
1148	1.1413e+02	-2.8477	-14.087585	0.000730	7.296608	1.236079	-0.000146
1149	1.1423e+02	-2.8677	-14.180439	0.000466	4.661721	0.789717	-0.000093
1150	1.1433e+02	-2.8870	-14.362110	0.000912	9.120759	1.545098	-0.000183
1151	1.1442e+02	-2.9076	-14.475150	0.000568	5.675139	0.961395	-0.000114
1152	1.1452e+02	-2.9282	-14.592227	0.000588	5.877823	0.995730	-0.000118
1153	1.1462e+02	-2.9467	-14.753713	0.000811	8.107342	1.373421	-0.000162
1154	1.1472e+02	-2.9675	-14.878864	0.000628	6.283190	1.064401	-0.000126
1155	1.1482e+02	-2.9871	-15.012089	0.000669	6.688557	1.133072	-0.000134
1156	1.1492e+02	-3.0070	-15.157426	0.000730	7.296608	1.236079	-0.000146
1157	1.1502e+02	-3.0260	-15.310837	0.000770	7.701975	1.304750	-0.000154
1158	1.1512e+02	-3.0469	-15.403691	0.000466	4.661721	0.789717	-0.000093
1159	1.1522e+02	-3.0665	-15.597474	0.000973	9.728810	1.648105	-0.000195
1160	1.1532e+02	-3.0873	-15.746848	0.000750	7.499291	1.270414	-0.000150
1161	1.1542e+02	-3.1067	-15.859888	0.000568	5.675139	0.961395	-0.000114
1162	1.1552e+02	-3.1267	-15.956779	0.000486	4.864405	0.824053	-0.000097
1163	1.1562e+02	-3.1474	-16.126339	0.000851	8.512709	1.442092	-0.000170
1164	1.1572e+02	-3.1664	-16.255527	0.000649	6.485873	1.098737	-0.000130
1165	1.1582e+02	-3.1860	-16.412975	0.000790	7.904658	1.339085	-0.000158
1166	1.1592e+02	-3.2059	-16.530052	0.000588	5.877823	0.995730	-0.000118
1167	1.1602e+02	-3.2268	-16.659241	0.000649	6.485873	1.098737	-0.000130
1168	1.1612e+02	-3.2466	-16.804578	0.000730	7.296608	1.236079	-0.000146
1169	1.1622e+02	-3.2664	-16.945877	0.000709	7.093924	1.201743	-0.000142
1170	1.1632e+02	-3.2865	-17.087177	0.000709	7.093924	1.201743	-0.000142
1171	1.1642e+02	-3.3056	-17.228477	0.000709	7.093924	1.201743	-0.000142
1172	1.1651e+02	-3.3260	-17.373814	0.000730	7.296608	1.236079	-0.000146
1173	1.1661e+02	-3.3459	-17.490891	0.000588	5.877823	0.995730	-0.000118
1174	1.1671e+02	-3.3655	-17.632190	0.000709	7.093924	1.201743	-0.000142
1175	1.1681e+02	-3.3854	-17.749267	0.000588	5.877823	0.995730	-0.000118
1176	1.1691e+02	-3.4061	-17.858270	0.000547	5.472456	0.927059	-0.000110
1177	1.1701e+02	-3.4253	-18.048015	0.000953	9.526127	1.613770	-0.000191
1178	1.1711e+02	-3.4460	-18.177204	0.000649	6.485873	1.098737	-0.000130
1179	1.1721e+02	-3.4661	-18.314466	0.000689	6.891240	1.167408	-0.000138
1180	1.1731e+02	-3.4858	-18.427506	0.000568	5.675139	0.961395	-0.000114
1181	1.1741e+02	-3.5049	-18.560732	0.000669	6.688557	1.133072	-0.000134
1182	1.1751e+02	-3.5253	-18.693957	0.000669	6.688557	1.133072	-0.000134
1183	1.1761e+02	-3.5452	-18.798923	0.000527	5.269772	0.892724	-0.000105
1184	1.1771e+02	-3.5652	-18.956371	0.000790	7.904658	1.339085	-0.000158
1185	1.1781e+02	-3.5842	-19.077485	0.000608	6.080506	1.030066	-0.000122
1186	1.1791e+02	-3.6050	-19.198599	0.000608	6.080506	1.030066	-0.000122
1187	1.1801e+02	-3.6245	-19.327787	0.000649	6.485873	1.098737	-0.000130
1188	1.1811e+02	-3.6451	-19.485236	0.000790	7.904658	1.339085	-0.000158
1189	1.1821e+02	-3.6658	-19.586164	0.000507	5.067089	0.858388	-0.000101
1190	1.1831e+02	-3.6847	-19.727464	0.000709	7.093924	1.201743	-0.000142
1191	1.1841e+02	-3.7047	-19.880875	0.000770	7.701975	1.304750	-0.000154
1192	1.1850e+02	-3.7260	-20.014100	0.000669	6.688557	1.133072	-0.000134
1193	1.1860e+02	-3.7451	-20.115029	0.000507	5.067089	0.858388	-0.000101
1194	1.1870e+02	-3.7645	-20.252291	0.000689	6.891240	1.167408	-0.000138
1195	1.1880e+02	-3.7842	-20.357257	0.000527	5.269772	0.892724	-0.000105
1196	1.1890e+02	-3.8036	-20.514705	0.000790	7.904658	1.339085	-0.000158
1197	1.1900e+02	-3.8244	-20.603522	0.000446	4.459038	0.755381	-0.000089
1198	1.1910e+02	-3.8433	-20.744822	0.000709	7.093924	1.201743	-0.000142
1199	1.1920e+02	-3.8643	-20.890159	0.000730	7.296608	1.236079	-0.000146
1200	1.1930e+02	-3.8837	-20.991087	0.000507	5.067089	0.858388	-0.000101
1201	1.1940e+02	-3.9041	-21.108164	0.000588	5.877823	0.995730	-0.000118
1202	1.1950e+02	-3.9240	-21.245427	0.000689	6.891240	1.167408	-0.000138
1203	1.1960e+02	-3.9424	-21.378652	0.000669	6.688557	1.133072	-0.000134
1204	1.1970e+02	-3.9633	-21.519952	0.000709	7.093924	1.201743	-0.000142
1205	1.1980e+02	-3.9833	-21.592620	0.000365	3.648304	0.618039	-0.000073
1206	1.1990e+02	-4.0031	-21.709697	0.000588	5.877823	0.995730	-0.000118
1207	1.2000e+02	-4.0225	-21.867146	0.000790	7.904658	1.339085	-0.000158
1208	1.2010e+02	-4.0439	-22.000371	0.000669	6.688557	1.133072	-0.000134
1209	1.2020e+02	-4.0644	-22.117448	0.000588	5.877823	0.995730	-0.000118
1210	1.2030e+02	-4.0831	-22.258748	0.000709	7.093924	1.201743	-0.000142
1211	1.2039e+02	-4.1025	-22.404085	0.000730	7.296608	1.236079	-0.000146
1212	1.2049e+02	-4.1226	-22.525199	0.000608	6.080506	1.030066	-0.000122
1213	1.2059e+02	-4.1431	-22.614016	0.000446	4.459038	0.755381	-0.000089
1214	1.2069e+02	-4.1629	-22.751278	0.000689	6.891240	1.167408	-0.000138
1215	1.2079e+02	-4.1818	-22.892578	0.000709	7.093924	1.201743	-0.000142
1216	1.2089e+02	-4.2020	-23.005618	0.000568	5.675139	0.961395	-0.000114
1217	1.2099e+02	-4.2224	-23.146918	0.000709	7.093924	1.201743	-0.000142
1218	1.2109e+02	-4.2428	-23.243809	0.000486	4.864405	0.824053	-0.000097
1219	1.2119e+02	-4.2630	-23.372997	0.000649	6.485873	1.098737	-0.000130
1220	1.2129e+02	-4.2825	-23.538520	0.000831	8.310025	1.407756	-0.000166
1221	1.2139e+02	-4.3027	-23.683857	0.000730	7.296608	1.236079	-0.000146
1222	1.2149e+02	-4.3224	-23.736340	0.000263	2.634886	0.446362	-0.000053
1223	1.2159e+02	-4.3425	-23.913974	0.000892	8.918076	1.510763	-0.000179
1224	1.2169e+02	-4.3634	-23.998753	0.000426	4.256354	0.721046	-0.000085
1225	1.2179e+02	-4.3819	-24.115830	0.000588	5.877823	0.995730	-0.000118
1226	1.2189e+02	-4.4014	-24.236944	0.000608	6.080506	1.030066	-0.000122
1227	1.2199e+02	-4.4209	-24.366133	0.000649	6.485873	1.098737	-0.000130
1228	1.2209e+02	-4.4405	-24.495321	0.000649	6.485873	1.098737	-0.000130
1229	1.2219e+02	-4.4618	-24.624509	0.000649	6.485873	1.098737	-0.000130
1230	1.2229e+02	-4.4806	-24.769846	0.000730	7.296608	1.236079	-0.000146
1231	1.2239e+02	-4.5014	-24.846552	0.000385	3.850987	0.652375	-0.000077
1232	1.2248e+02	-4.5218	-24.979777	0.000669	6.688557	1.133072	-0.000134
1233	1.2258e+02	-4.5404	-25.092817	0.000568	5.675139	0.961395	-0.000114
1234	1.2268e+02	-4.5611	-25.258340	0.000831	8.310025	1.407756	-0.000166
1235	1.2278e+02	-4.5812	-25.355231	0.000486	4.864405	0.824053	-0.000097
1236	1.2288e+02	-4.6017	-25.504605	0.000750	7.499291	1.270414	-0.000150
1237	1.2298e+02	-4.6205	-25.609571	0.000527	5.269772	0.892724	-0.000105
1238	1.2308e+02	-4.6410	-25.738759	0.000649	6.485873	1.098737	-0.000130
1239	1.2318e+02	-4.6604	-25.811427	0.000365	3.648304	0.618039	-0.000073
1240	1.2328e+02	-4.6812	-25.976950	0.000831	8.310025	1.407756	-0.000166
1241	1.2338e+02	-4.6999	-26.114213	0.000689	6.891240	1.167408	-0.000138
1242	1.2348e+02	-4.7208	-26.182844	0.000345	3.445620	0.583704	-0.000069
1243	1.2358e+02	-4.7403	-26.324144	0.000709	7.093924	1.201743	-0.000142
1244	1.2368e+02	-4.7615	-26.441221	0.000588	5.877823	0.995730	-0.000118
1245	1.2378e+02	-4.7803	-26.582520	0.000709	7.093924	1.201743	-0.000142
1246	1.2388e+02	-4.8003	-26.663263	0.000405	4.053671	0.686710	-0.000081
1247	1.2398e+02	-4.8199	-26.848971	0.000932	9.323443	1.579434	-0.000187
1248	1.2408e+02	-4.8399	-26.937788	0.000446	4.459038	0.755381	-0.000089
1249	1.2418e+02	-4.8607	-27.046791	0.000547	5.472456	0.927059	-0.000110
1250	1.2428e+02	-4.8795	-27.135608	0.000446	4.459038	0.755381	-0.000089
1251	1.2438e+02	-4.9001	-27.284982	0.000750	7.499291	1.270414	-0.000150
1252	1.2447e+02	-4.9203	-27.389947	0.000527	5.269772	0.892724	-0.000105
1253	1.2457e+02	-4.9396	-27.527210	0.000689	6.891240	1.167408	-0.000138
1254	1.2467e+02	-4.9605	-27.656398	0.000649	6.485873	1.098737	-0.000130
1255	1.2477e+02	-4.9792	-27.749252	0.000466	4.661721	0.789717	-0.000093
1256	1.2487e+02	-5.0002	-27.898627	0.000750	7.499291	1.270414	-0.000150
1257	1.2497e+02	-5.0192	-28.007629	0.000547	5.472456	0.927059	-0.000110
1258	1.2507e+02	-5.0397	-28.108558	0.000507	5.067089	0.858388	-0.000101
1259	1.2517e+02	-5.0595	-28.205449	0.000486	4.864405	0.824053	-0.000097
1260	1.2527e+02	-5.0791	-28.342711	0.000689	6.891240	1.167408	-0.000138
1261	1.2537e+02	-5.1001	-28.479974	0.000689	6.891240	1.167408	-0.000138
1262	1.2547e+02	-5.1189	-28.568791	0.000446	4.459038	0.755381	-0.000089
1263	1.2557e+02	-5.1395	-28.726239	0.000790	7.904658	1.339085	-0.000158
1264	1.2567e+02	-5.1587	-28.815056	0.000446	4.459038	0.755381	-0.000089
1265	1.2577e+02	-5.1787	-28.972505	0.000790	7.904658	1.339085	-0.000158
1266	1.2587e+02	-5.1982	-29.057284	0.000426	4.256354	0.721046	-0.000085
1267	1.2597e+02	-5.2177	-29.202621	0.000730	7.296608	1.236079	-0.000146
1268	1.2607e+02	-5.2383	-29.283364	0.000405	4.053671	0.686710	-0.000081
1269	1.2617e+02	-5.2589	-29.428701	0.000730	7.296608	1.236079	-0.000146
1270	1.2627e+02	-5.2782	-29.541741	0.000568	5.675139	0.961395	-0.000114
1271	1.2636e+02	-5.2979	-29.670929	0.000649	6.485873	1.098737	-0.000130
1272	1.2646e+02	-5.3188	-29.783969	0.000568	5.675139	0.961395	-0.000114
1273	1.2656e+02	-5.3387	-29.888934	0.000527	5.269772	0.892724	-0.000105
1274	1.2666e+02	-5.3583	-30.062531	0.000872	8.715392	1.476427	-0.000174
1275	1.2676e+02	-5.3781	-30.147311	0.000426	4.256354	0.721046	-0.000085
1276	1.2686e+02	-5.3986	-30.300722	0.000770	7.701975	1.304750	-0.000154
1277	1.2696e+02	-5.4178	-30.353205	0.000263	2.634886	0.446362	-0.000053
1278	1.2706e+02	-5.4378	-30.470282	0.000588	5.877823	0.995730	-0.000118
1279	1.2716e+02	-5.4572	-30.627730	0.000790	7.904658	1.339085	-0.000158
1280	1.2726e+02	-5.4778	-30.744807	0.000588	5.877823	0.995730	-0.000118
1281	1.2736e+02	-5.4973	-30.882070	0.000689	6.891240	1.167408	-0.000138
1282	1.2746e+02	-5.5175	-31.003184	0.000608	6.080506	1.030066	-0.000122
1283	1.2756e+02	-5.5380	-31.092001	0.000446	4.459038	0.755381	-0.000089
1284	1.2766e+02	-5.5577	-31.229264	0.000689	6.891240	1.167408	-0.000138
1285	1.2776e+02	-5.5782	-31.338266	0.000547	5.472456	0.927059	-0.000110
1286	1.2786e+02	-5.5970	-31.487640	0.000750	7.499291	1.270414	-0.000150
1287	1.2796e+02	-5.6177	-31.568383	0.000405	4.053671	0.686710	-0.000081
1288	1.2806e+02	-5.6364	-31.697571	0.000649	6.485873	1.098737	-0.000130
1289	1.2816e+02	-5.6570	-31.794463	0.000486	4.864405	0.824053	-0.000097
1290	1.2826e+02	-5.6771	-31.915577	0.000608	6.080506	1.030066	-0.000122
1291	1.2835e+02	-5.6967	-32.052839	0.000689	6.891240	1.167408	-0.000138
1292	1.2845e+02	-5.7172	-32.133582	0.000405	4.053671	0.686710	-0.000081
1293	1.2855e+02	-5.7372	-32.266807	0.000669	6.688557	1.133072	-0.000134
1294	1.2865e+02	-5.7568	-32.424256	0.000790	7.904658	1.339085	-0.000158
1295	1.2875e+02	-5.7764	-32.529221	0.000527	5.269772	0.892724	-0.000105
1296	1.2885e+02	-5.7965	-32.670521	0.000709	7.093924	1.201743	-0.000142
1297	1.2895e+02	-5.8160	-32.767412	0.000486	4.864405	0.824053	-0.000097
1298	1.2905e+02	-5.8360	-32.868341	0.000507	5.067089	0.858388	-0.000101
1299	1.2915e+02	-5.8563	-33.001566	0.000669	6.688557	1.133072	-0.000134
1300	1.2925e+02	-5.8762	-33.066160	0.000324	3.242937	0.549368	-0.000065
1301	1.2935e+02	-5.8965	-33.231683	0.000831	8.310025	1.407756	-0.000166
1302	1.2945e+02	-5.9189	-33.320500	0.000446	4.459038	0.755381	-0.000089
1303	1.2955e+02	-5.9366	-33.449688	0.000649	6.485873	1.098737	-0.000130
1304	1.2965e+02	-5.9566	-33.574839	0.000628	6.283190	1.064401	-0.000126
1305	1.2975e+02	-5.9755	-33.675768	0.000507	5.067089	0.858388	-0.000101
1306	1.2985e+02	-5.9958	-33.796882	0.000608	6.080506	1.030066	-0.000122
1307	1.2995e+02	-6.0156	-33.897810	0.000507	5.067089	0.858388	-0.000101
1308	1.3005e+02	-6.0359	-34.010850	0.000568	5.675139	0.961395	-0.000114
1309	1.3015e+02	-6.0559	-34.127927	0.000588	5.877823	0.995730	-0.000118
1310	1.3025e+02	-6.0753	-34.224818	0.000486	4.864405	0.824053	-0.000097
1311	1.3034e+02	-6.0959	-34.325747	0.000507	5.067089	0.858388	-0.000101
1312	1.3044e+02	-6.1150	-34.467046	0.000709	7.093924	1.201743	-0.000142
1313	1.3054e+02	-6.1346	-34.555863	0.000446	4.459038	0.755381	-0.000089
1314	1.3064e+02	-6.1554	-34.685052	0.000649	6.485873	1.098737	-0.000130
1315	1.3074e+02	-6.1755	-34.798091	0.000568	5.675139	0.961395	-0.000114
1316	1.3084e+02	-6.1955	-34.927280	0.000649	6.485873	1.098737	-0.000130
1317	1.3094e+02	-6.2155	-35.036283	0.000547	5.472456	0.927059	-0.000110
1318	1.3104e+02	-6.2354	-35.121062	0.000426	4.256354	0.721046	-0.000085
1319	1.3114e+02	-6.2549	-35.274474	0.000770	7.701975	1.304750	-0.000154
1320	1.3124e+02	-6.2747	-35.363290	0.000446	4.459038	0.755381	-0.000089
1321	1.3134e+02	-6.2945	-35.484405	0.000608	6.080506	1.030066	-0.000122
1322	1.3144e+02	-6.3135	-35.633779	0.000750	7.499291	1.270414	-0.000150
1323	1.3154e+02	-6.3350	-35.726633	0.000466	4.661721	0.789717	-0.000093
1324	1.3164e+02	-6.3541	-35.847747	0.000608	6.080506	1.030066	-0.000122
1325	1.3174e+02	-6.3748	-35.993084	0.000730	7.296608	1.236079	-0.000146
1326	1.3184e+02	-6.3947	-36.073826	0.000405	4.053671	0.686710	-0.000081
1327	1.3194e+02	-6.4148	-36.170718	0.000486	4.864405	0.824053	-0.000097
1328	1.3204e+02	-6.4343	-36.295869	0.000628	6.283190	1.064401	-0.000126
1329	1.3214e+02	-6.4539	-36.433131	0.000689	6.891240	1.167408	-0.000138
1330	1.3224e+02	-6.4751	-36.546171	0.000568	5.675139	0.961395	-0.000114
1331	1.3234e+02	-6.4932	-36.630951	0.000426	4.256354	0.721046	-0.000085
1332	1.3243e+02	-6.5143	-36.739954	0.000547	5.472456	0.927059	-0.000110
1333	1.3253e+02	-6.5338	-36.865105	0.000628	6.283190	1.064401	-0.000126
1334	1.3263e+02	-6.5540	-36.986219	0.000608	6.080506	1.030066	-0.000122
1335	1.3273e+02	-6.5732	-37.079073	0.000466	4.661721	0.789717	-0.000093
1336	1.3283e+02	-6.5930	-37.216336	0.000689	6.891240	1.167408	-0.000138
1337	1.3293e+02	-6.6135	-37.301116	0.000426	4.256354	0.721046	-0.000085
1338	1.3303e+02	-6.6339	-37.458564	0.000790	7.904658	1.339085	-0.000158
1339	1.3313e+02	-6.6531	-37.531232	0.000365	3.648304	0.618039	-0.000073
1340	1.3323e+02	-6.6733	-37.644272	0.000568	5.675139	0.961395	-0.000114
1341	1.3333e+02	-6.6921	-37.757312	0.000568	5.675139	0.961395	-0.000114
1342	1.3343e+02	-6.7139	-37.829980	0.000365	3.648304	0.618039	-0.000073
1343	1.3353e+02	-6.7331	-38.011652	0.000912	9.120759	1.545098	-0.000183
1344	1.3363e+02	-6.7529	-38.116617	0.000527	5.269772	0.892724	-0.000105
1345	1.3373e+02	-6.7729	-38.241768	0.000628	6.283190	1.064401	-0.000126
1346	1.3383e+02	-6.7923	-38.338660	0.000486	4.864405	0.824053	-0.000097
1347	1.3393e+02	-6.8121	-38.439588	0.000507	5.067089	0.858388	-0.000101
1348	1.3403e+02	-6.8323	-38.576851	0.000689	6.891240	1.167408	-0.000138
1349	1.3413e+02	-6.8527	-38.714113	0.000689	6.891240	1.167408	-0.000138
1350	1.3423e+02	-6.8724	-38.798893	0.000426	4.256354	0.721046	-0.000085
1351	1.3432e+02	-6.8930	-38.907896	0.000547	5.472456	0.927059	-0.000110
1352	1.3442e+02	-6.9125	-39.024973	0.000588	5.877823	0.995730	-0.000118
1353	1.3452e+02	-6.9318	-39.121864	0.000486	4.864405	0.824053	-0.000097
1354	1.3462e+02	-6.9513	-39.259126	0.000689	6.891240	1.167408	-0.000138
1355	1.3472e+02	-6.9713	-39.351981	0.000466	4.661721	0.789717	-0.000093
1356	1.3482e+02	-6.9920	-39.477132	0.000628	6.283190	1.064401	-0.000126
1357	1.3492e+02	-7.0117	-39.590172	0.000568	5.675139	0.961395	-0.000114
1358	1.3502e+02	-7.0316	-39.662840	0.000365	3.648304	0.618039	-0.000073
1359	1.3512e+02	-7.0520	-39.787991	0.000628	6.283190	1.064401	-0.000126
1360	1.3522e+02	-7.0712	-39.921217	0.000669	6.688557	1.133072	-0.000134
1361	1.3532e+02	-7.0917	-39.997922	0.000385	3.850987	0.652375	-0.000077
1362	1.3542e+02	-7.1109	-40.114999	0.000588	5.877823	0.995730	-0.000118
1363	1.3552e+02	-7.1317	-40.224002	0.000547	5.472456	0.927059	-0.000110
1364	1.3562e+02	-7.1513	-40.324930	0.000507	5.067089	0.858388	-0.000101
1365	1.3572e+02	-7.1713	-40.466230	0.000709	7.093924	1.201743	-0.000142
1366	1.3582e+02	-7.1916	-40.611567	0.000730	7.296608	1.236079	-0.000146
1367	1.3592e+02	-7.2114	-40.704421	0.000466	4.661721	0.789717	-0.000093
1368	1.3602e+02	-7.2304	-40.821498	0.000588	5.877823	0.995730	-0.000118
1369	1.3612e+02	-7.2500	-40.894166	0.000365	3.648304	0.618039	-0.000073
1370	1.3622e+02	-7.2708	-41.003169	0.000547	5.472456	0.927059	-0.000110
1371	1.3631e+02	-7.2910	-41.140432	0.000689	6.891240	1.167408	-0.000138
1372	1.3641e+02	-7.3105	-41.269620	0.000649	6.485873	1.098737	-0.000130
1373	1.3651e+02	-7.3315	-41.326140	0.000284	2.837570	0.480697	-0.000057
1374	1.3661e+02	-7.3517	-41.451291	0.000628	6.283190	1.064401	-0.000126
1375	1.3671e+02	-7.3702	-41.556257	0.000527	5.269772	0.892724	-0.000105
1376	1.3681e+02	-7.3901	-41.697556	0.000709	7.093924	1.201743	-0.000142
1377	1.3691e+02	-7.4120	-41.818671	0.000608	6.080506	1.030066	-0.000122
1378	1.3701e+02	-7.4303	-41.919599	0.000507	5.067089	0.858388	-0.000101
1379	1.3711e+02	-7.4510	-42.028602	0.000547	5.472456	0.927059	-0.000110
1380	1.3721e+02	-7.4699	-42.153753	0.000628	6.283190	1.064401	-0.000126
1381	1.3731e+02	-7.4899	-42.242570	0.000446	4.459038	0.755381	-0.000089
1382	1.3741e+02	-7.5113	-42.391944	0.000750	7.499291	1.270414	-0.000150
1383	1.3751e+02	-7.5305	-42.476724	0.000426	4.256354	0.721046	-0.000085
1384	1.3761e+02	-7.5497	-42.605912	0.000649	6.485873	1.098737	-0.000130
1385	1.3771e+02	-7.5689	-42.735100	0.000649	6.485873	1.098737	-0.000130
1386	1.3781e+02	-7.5891	-42.860252	0.000628	6.283190	1.064401	-0.000126
1387	1.3791e+02	-7.6089	-42.957143	0.000486	4.864405	0.824053	-0.000097
1388	1.3801e+02	-7.6291	-43.037886	0.000405	4.053671	0.686710	-0.000081
1389	1.3811e+02	-7.6489	-43.219557	0.000912	9.120759	1.545098	-0.000183
1390	1.3821e+02	-7.6686	-43.316448	0.000486	4.864405	0.824053	-0.000097
1391	1.3831e+02	-7.6895	-43.453711	0.000689	6.891240	1.167408	-0.000138
1392	1.3840e+02	-7.7099	-43.538490	0.000426	4.256354	0.721046	-0.000085
1393	1.3850e+02	-7.7290	-43.643456	0.000527	5.269772	0.892724	-0.000105
1394	1.3860e+02	-7.7493	-43.780719	0.000689	6.891240	1.167408	-0.000138
1395	1.3870e+02	-7.7687	-43.901833	0.000608	6.080506	1.030066	-0.000122
1396	1.3880e+02	-7.7887	-44.043132	0.000709	7.093924	1.201743	-0.000142
1397	1.3890e+02	-7.8088	-44.127912	0.000426	4.256354	0.721046	-0.000085
1398	1.3900e+02	-7.8284	-44.244989	0.000588	5.877823	0.995730	-0.000118
1399	1.3910e+02	-7.8479	-44.382252	0.000689	6.891240	1.167408	-0.000138
1400	1.3920e+02	-7.8668	-44.467032	0.000426	4.256354	0.721046	-0.000085
1401	1.3930e+02	-7.8879	-44.604294	0.000689	6.891240	1.167408	-0.000138
1402	1.3940e+02	-7.9079	-44.741557	0.000689	6.891240	1.167408	-0.000138
1403	1.3950e+02	-7.9283	-44.814225	0.000365	3.648304	0.618039	-0.000073
1404	1.3960e+02	-7.9480	-44.999934	0.000932	9.323443	1.579434	-0.000187
1405	1.3970e+02	-7.9680	-45.104899	0.000527	5.269772	0.892724	-0.000105
1406	1.3980e+02	-7.9868	-45.213902	0.000547	5.472456	0.927059	-0.000110
1407	1.3990e+02	-8.0077	-45.322904	0.000547	5.472456	0.927059	-0.000110
1408	1.4000e+02	-8.0279	-45.472278	0.000750	7.499291	1.270414	-0.000150
1409	1.4010e+02	-8.0469	-45.597430	0.000628	6.283190	1.064401	-0.000126
1410	1.4020e+02	-8.0679	-45.706432	0.000547	5.472456	0.927059	-0.000110
1411	1.4029e+02	-8.0874	-45.827546	0.000608	6.080506	1.030066	-0.000122
1412	1.4039e+02	-8.1067	-45.976920	0.000750	7.499291	1.270414	-0.000150
1413	1.4049e+02	-8.1273	-46.093997	0.000588	5.877823	0.995730	-0.000118
1414	1.4059e+02	-8.1470	-46.239334	0.000730	7.296608	1.236079	-0.000146
1415	1.4069e+02	-8.1674	-46.332188	0.000466	4.661721	0.789717	-0.000093
1416	1.4079e+02	-8.1873	-46.485599	0.000770	7.701975	1.304750	-0.000154
1417	1.4089e+02	-8.2056	-46.602676	0.000588	5.877823	0.995730	-0.000118
1418	1.4099e+02	-8.2263	-46.719753	0.000588	5.877823	0.995730	-0.000118
1419	1.4109e+02	-8.2462	-46.808570	0.000446	4.459038	0.755381	-0.000089
1420	1.4119e+02	-8.2675	-46.933722	0.000628	6.283190	1.064401	-0.000126
1421	1.4129e+02	-8.2864	-47.103281	0.000851	8.512709	1.442092	-0.000170
1422	1.4139e+02	-8.3072	-47.220358	0.000588	5.877823	0.995730	-0.000118
1423	1.4149e+02	-8.3261	-47.337435	0.000588	5.877823	0.995730	-0.000118
1424	1.4159e+02	-8.3452	-47.486809	0.000750	7.499291	1.270414	-0.000150
1425	1.4169e+02	-8.3662	-47.603886	0.000588	5.877823	0.995730	-0.000118
1426	1.4179e+02	-8.3860	-47.745186	0.000709	7.093924	1.201743	-0.000142
1427	1.4189e+02	-8.4058	-47.842077	0.000486	4.864405	0.824053	-0.000097
1428	1.4199e+02	-8.4264	-47.987414	0.000730	7.296608	1.236079	-0.000146
1429	1.4209e+02	-8.4453	-48.152937	0.000831	8.310025	1.407756	-0.000166
1430	1.4219e+02	-8.4662	-48.229642	0.000385	3.850987	0.652375	-0.000077
1431	1.4228e+02	-8.4872	-48.395165	0.000831	8.310025	1.407756	-0.000166
1432	1.4238e+02	-8.5065	-48.536464	0.000709	7.093924	1.201743	-0.000142
1433	1.4248e+02	-8.5260	-48.673727	0.000689	6.891240	1.167408	-0.000138
1434	1.4258e+02	-8.5452	-48.819064	0.000730	7.296608	1.236079	-0.000146
1435	1.4268e+02	-8.5651	-48.919992	0.000507	5.067089	0.858388	-0.000101
1436	1.4278e+02	-8.5852	-49.069366	0.000750	7.499291	1.270414	-0.000150
1437	1.4288e+02	-8.6052	-49.202592	0.000669	6.688557	1.133072	-0.000134
1438	1.4298e+02	-8.6253	-49.319669	0.000588	5.877823	0.995730	-0.000118
1439	1.4308e+02	-8.6444	-49.473080	0.000770	7.701975	1.304750	-0.000154
1440	1.4318e+02	-8.6646	-49.598231	0.000628	6.283190	1.064401	-0.000126
1441	1.4328e+02	-8.6853	-49.755679	0.000790	7.904658	1.339085	-0.000158
1442	1.4338e+02	-8.7045	-49.901016	0.000730	7.296608	1.236079	-0.000146
1443	1.4348e+02	-8.7251	-50.034242	0.000669	6.688557	1.133072	-0.000134
1444	1.4358e+02	-8.7445	-50.187653	0.000770	7.701975	1.304750	-0.000154
1445	1.4368e+02	-8.7651	-50.337027	0.000750	7.499291	1.270414	-0.000150
1446	1.4378e+02	-8.7849	-50.454104	0.000588	5.877823	0.995730	-0.000118
1447	1.4388e+02	-8.8051	-50.563107	0.000547	5.472456	0.927059	-0.000110
1448	1.4398e+02	-8.8256	-50.777075	0.001074	10.742228	1.819783	-0.000215
1449	1.4408e+02	-8.8448	-50.938560	0.000811	8.107342	1.373421	-0.000162
1450	1.4418e+02	-8.8651	-51.091971	0.000770	7.701975	1.304750	-0.000154
1451	1.4428e+02	-8.8835	-51.217123	0.000628	6.283190	1.064401	-0.000126
1452	1.4437e+02	-8.9043	-51.318051	0.000507	5.067089	0.858388	-0.000101
1453	1.4447e+02	-8.9240	-51.491648	0.000872	8.715392	1.476427	-0.000174
1454	1.4457e+02	-8.9432	-51.641022	0.000750	7.499291	1.270414	-0.000150
1455	1.4467e+02	-8.9636	-51.774247	0.000669	6.688557	1.133072	-0.000134
1456	1.4477e+02	-8.9837	-51.959956	0.000932	9.323443	1.579434	-0.000187
1457	1.4487e+02	-9.0038	-52.101255	0.000709	7.093924	1.201743	-0.000142
1458	1.4497e+02	-9.0230	-52.266778	0.000831	8.310025	1.407756	-0.000166
1459	1.4507e+02	-9.0434	-52.395966	0.000649	6.485873	1.098737	-0.000130
1460	1.4517e+02	-9.0636	-52.557452	0.000811	8.107342	1.373421	-0.000162
1461	1.4527e+02	-9.0829	-52.690677	0.000669	6.688557	1.133072	-0.000134
1462	1.4537e+02	-9.1039	-52.872348	0.000912	9.120759	1.545098	-0.000183
1463	1.4547e+02	-9.1237	-53.045945	0.000872	8.715392	1.476427	-0.000174
1464	1.4557e+02	-9.1443	-53.199356	0.000770	7.701975	1.304750	-0.000154
1465	1.4567e+02	-9.1629	-53.324507	0.000628	6.283190	1.064401	-0.000126
1466	1.4577e+02	-9.1818	-53.490030	0.000831	8.310025	1.407756	-0.000166
1467	1.4587e+02	-9.2036	-53.647478	0.000790	7.904658	1.339085	-0.000158
1468	1.4597e+02	-9.2231	-53.813001	0.000831	8.310025	1.407756	-0.000166
1469	1.4607e+02	-9.2427	-53.970449	0.000790	7.904658	1.339085	-0.000158
1470	1.4617e+02	-9.2622	-54.131935	0.000811	8.107342	1.373421	-0.000162
1471	1.4626e+02	-9.2825	-54.244974	0.000568	5.675139	0.961395	-0.000114
1472	1.4636e+02	-9.3030	-54.402423	0.000790	7.904658	1.339085	-0.000158
1473	1.4646e+02	-9.3222	-54.636577	0.001176	11.755646	1.991460	-0.000235
1474	1.4656e+02	-9.3420	-54.769802	0.000669	6.688557	1.133072	-0.000134
1475	1.4666e+02	-9.3625	-54.935325	0.000831	8.310025	1.407756	-0.000166
1476	1.4676e+02	-9.3823	-55.108921	0.000872	8.715392	1.476427	-0.000174
1477	1.4686e+02	-9.4016	-55.274444	0.000831	8.310025	1.407756	-0.000166
1478	1.4696e+02	-9.4223	-55.415744	0.000709	7.093924	1.201743	-0.000142
1479	1.4706e+02	-9.4415	-55.597415	0.000912	9.120759	1.545098	-0.000183
1480	1.4716e+02	-9.4624	-55.779086	0.000912	9.120759	1.545098	-0.000183
1481	1.4726e+02	-9.4824	-55.896163	0.000588	5.877823	0.995730	-0.000118
1482	1.4736e+02	-9.5020	-56.093983	0.000993	9.931494	1.682441	-0.000199
1483	1.4746e+02	-9.5221	-56.283728	0.000953	9.526127	1.613770	-0.000191
1484	1.4756e+02	-9.5415	-56.416953	0.000669	6.688557	1.133072	-0.000134
1485	1.4766e+02	-9.5610	-56.634959	0.001094	10.944911	1.854118	-0.000219
1486	1.4776e+02	-9.5810	-56.788370	0.000770	7.701975	1.304750	-0.000154
1487	1.4786e+02	-9.6005	-56.957930	0.000851	8.512709	1.442092	-0.000170
1488	1.4796e+02	-9.6213	-57.127489	0.000851	8.512709	1.442092	-0.000170
1489	1.4806e+02	-9.6410	-57.317235	0.000953	9.526127	1.613770	-0.000191
1490	1.4816e+02	-9.6613	-57.498906	0.000912	9.120759	1.545098	-0.000183
1491	1.4825e+02	-9.6808	-57.700763	0.001013	10.134177	1.716776	-0.000203
1492	1.4835e+02	-9.7005	-57.862248	0.000811	8.107342	1.373421	-0.000162
1493	1.4845e+02	-9.7212	-58.039882	0.000892	8.918076	1.510763	-0.000179
1494	1.4855e+02	-9.7411	-58.181182	0.000709	7.093924	1.201743	-0.000142
1495	1.4865e+02	-9.7620	-58.387076	0.001034	10.336861	1.751112	-0.000207
1496	1.4875e+02	-9.7803	-58.592970	0.001034	10.336861	1.751112	-0.000207
1497	1.4885e+02	-9.8008	-58.790789	0.000993	9.931494	1.682441	-0.000199
1498	1.4895e+02	-9.8203	-58.972460	0.000912	9.120759	1.545098	-0.000183
1499	1.4905e+02	-9.8406	-59.154131	0.000912	9.120759	1.545098	-0.000183
1500	1.4915e+02	-9.8596	-59.315617	0.000811	8.107342	1.373421	-0.000162
1501	1.4925e+02	-9.8796	-59.505362	0.000953	9.526127	1.613770	-0.000191
1502	1.4935e+02	-9.9005	-59.755665	0.001257	12.566380	2.128802	-0.000252
1503	1.4945e+02	-9.9194	-59.905039	0.000750	7.499291	1.270414	-0.000150
1504	1.4955e+02	-9.9395	-60.119007	0.001074	10.742228	1.819783	-0.000215
1505	1.4965e+02	-9.9608	-60.304715	0.000932	9.323443	1.579434	-0.000187
1506	1.4975e+02	-9.9789	-60.490423	0.000932	9.323443	1.579434	-0.000187
1507	1.4985e+02	-9.9991	-60.696317	0.001034	10.336861	1.751112	-0.000207
1508	1.4995e+02	-9.9797	-60.712466	-0.000081	-0.810734	-0.137342	-0.000016
1509	1.5005e+02	-9.9604	-60.785134	-0.000365	-3.648304	-0.618039	-0.000073
1510	1.5015e+02	-9.9391	-60.849728	-0.000324	-3.242937	-0.549368	-0.000065
1511	1.5025e+02	-9.9196	-60.853766	-0.000020	-0.202684	-0.034336	-0.000004
1512	1.5034e+02	-9.9004	-60.873951	-0.000101	-1.013418	-0.171678	-0.000020
1513	1.5044e+02	-9.8810	-60.886063	-0.000061	-0.608051	-0.103007	-0.000012
1514	1.5054e+02	-9.8607	-60.910285	-0.000122	-1.216101	-0.206013	-0.000024
1515	1.5064e+02	-9.8399	-60.946620	-0.000182	-1.824152	-0.309020	-0.000037
1516	1.5074e+02	-9.8209	-60.950657	-0.000020	-0.202684	-0.034336	-0.000004
1517	1.5084e+02	-9.7995	-60.954694	-0.000020	-0.202684	-0.034336	-0.000004
1518	1.5094e+02	-9.7800	-60.938545	0.000081	0.810734	0.137342	0.000016
1519	1.5104e+02	-9.7612	-60.950657	-0.000061	-0.608051	-0.103007	-0.000012
1520	1.5114e+02	-9.7408	-60.938545	0.000061	0.608051	0.103007	0.000012
1521	1.5124e+02	-9.7205	-60.950657	-0.000061	-0.608051	-0.103007	-0.000012
1522	1.5134e+02	-9.7005	-60.958731	-0.000041	-0.405367	-0.068671	-0.000008
1523	1.5144e+02	-9.6807	-60.922397	0.000182	1.824152	0.309020	0.000037
1524	1.5154e+02	-9.6613	-60.926434	-0.000020	-0.202684	-0.034336	-0.000004
1525	1.5164e+02	-9.6407	-60.934508	-0.000041	-0.405367	-0.068671	-0.000008
1526	1.5174e+02	-9.6222	-60.902211	0.000162	1.621468	0.274684	0.000032
1527	1.5184e+02	-9.6010	-60.873951	0.000142	1.418785	0.240349	0.000028
1528	1.5194e+02	-9.5813	-60.873951	0.000000	0.000000	0.000000	0.000000
1529	1.5204e+02	-9.5600	-60.869914	0.000020	0.202684	0.034336	0.000004
1530	1.5214e+02	-9.5413	-60.813394	0.000284	2.837570	0.480697	0.000057
1531	1.5224e+02	-9.5213	-60.777060	0.000182	1.824152	0.309020	0.000037
1532	1.5233e+02	-9.5016	-60.756874	0.000101	1.013418	0.171678	0.000020
1533	1.5243e+02	-9.4810	-60.740726	0.000081	0.810734	0.137342	0.000016
1534	1.5253e+02	-9.4611	-60.700354	0.000203	2.026835	0.343355	0.000041
1535	1.5263e+02	-9.4412	-60.680169	0.000101	1.013418	0.171678	0.000020
1536	1.5273e+02	-9.4218	-60.668057	0.000061	0.608051	0.103007	0.000012
1537	1.5283e+02	-9.4014	-60.611537	0.000284	2.837570	0.480697	0.000057
1538	1.5293e+02	-9.3820	-60.579240	0.000162	1.621468	0.274684	0.000032
1539	1.5303e+02	-9.3619	-60.522720	0.000284	2.837570	0.480697	0.000057
1540	1.5313e+02	-9.3422	-60.510609	0.000061	0.608051	0.103007	0.000012
1541	1.5323e+02	-9.3227	-60.510609	0.000000	0.000000	0.000000	0.000000
1542	1.5333e+02	-9.3033	-60.454089	0.000284	2.837570	0.480697	0.000057
1543	1.5343e+02	-9.2832	-60.425829	0.000142	1.418785	0.240349	0.000028
1544	1.5353e+02	-9.2624	-60.385458	0.000203	2.026835	0.343355	0.000041
1545	1.5363e+02	-9.2426	-60.337012	0.000243	2.432203	0.412026	0.000049
1546	1.5373e+02	-9.2221	-60.312789	0.000122	1.216101	0.206013	0.000024
1547	1.5383e+02	-9.2030	-60.248195	0.000324	3.242937	0.549368	0.000065
1548	1.5393e+02	-9.1824	-60.195712	0.000263	2.634886	0.446362	0.000053
1549	1.5403e+02	-9.1632	-60.175527	0.000101	1.013418	0.171678	0.000020
1550	1.5413e+02	-9.1440	-60.131118	0.000223	2.229519	0.377691	0.000045
1551	1.5422e+02	-9.1231	-60.086710	0.000223	2.229519	0.377691	0.000045
1552	1.5432e+02	-9.1029	-60.062487	0.000122	1.216101	0.206013	0.000024
1553	1.5442e+02	-9.0829	-59.993856	0.000345	3.445620	0.583704	0.000069
1554	1.5452e+02	-9.0636	-59.941373	0.000263	2.634886	0.446362	0.000053
1555	1.5462e+02	-9.0442	-59.892927	0.000243	2.432203	0.412026	0.000049
1556	1.5472e+02	-9.0233	-59.872742	0.000101	1.013418	0.171678	0.000020
1557	1.5482e+02	-9.0043	-59.852556	0.000101	1.013418	0.171678	0.000020
1558	1.5492e+02	-8.9833	-59.771813	0.000405	4.053671	0.686710	0.000081
1559	1.5502e+02	-8.9641	-59.699145	0.000365	3.648304	0.618039	0.000073
1560	1.5512e+02	-8.9438	-59.638588	0.000304	3.040253	0.515033	0.000061
1561	1.5522e+02	-8.9229	-59.614365	0.000122	1.216101	0.206013	0.000024
1562	1.5532e+02	-8.9032	-59.569956	0.000223	2.229519	0.377691	0.000045
1563	1.5542e+02	-8.8841	-59.505362	0.000324	3.242937	0.549368	0.000065
1564	1.5552e+02	-8.8632	-59.424619	0.000405	4.053671	0.686710	0.000081
1565	1.5562e+02	-8.8440	-59.408471	0.000081	0.810734	0.137342	0.000016
1566	1.5572e+02	-8.8256	-59.372137	0.000182	1.824152	0.309020	0.000037
1567	1.5582e+02	-8.8043	-59.299468	0.000365	3.648304	0.618039	0.000073
1568	1.5592e+02	-8.7846	-59.230837	0.000345	3.445620	0.583704	0.000069
1569	1.5602e+02	-8.7656	-59.186428	0.000223	2.229519	0.377691	0.000045
1570	1.5612e+02	-8.7451	-59.117797	0.000345	3.445620	0.583704	0.000069
1571	1.5622e+02	-8.7253	-59.061277	0.000284	2.837570	0.480697	0.000057
1572	1.5631e+02	-8.7042	-59.008795	0.000263	2.634886	0.446362	0.000053
1573	1.5641e+02	-8.6847	-58.924015	0.000426	4.256354	0.721046	0.000085
1574	1.5651e+02	-8.6644	-58.859420	0.000324	3.242937	0.549368	0.000065
1575	1.5661e+02	-8.6452	-58.867495	-0.000041	-0.405367	-0.068671	-0.000008
1576	1.5671e+02	-8.6249	-58.794826	0.000365	3.648304	0.618039	0.000073
1577	1.5681e+02	-8.6050	-58.726195	0.000345	3.445620	0.583704	0.000069
1578	1.5691e+02	-8.5846	-58.629304	0.000486	4.864405	0.824053	0.000097
1579	1.5701e+02	-8.5648	-58.625267	0.000020	0.202684	0.034336	0.000004
1580	1.5711e+02	-8.5449	-58.544524	0.000405	4.053671	0.686710	0.000081
1581	1.5721e+02	-8.5266	-58.459744	0.000426	4.256354	0.721046	0.000085
1582	1.5731e+02	-8.5059	-58.435521	0.000122	1.216101	0.206013	0.000024
1583	1.5741e+02	-8.4859	-58.342667	0.000466	4.661721	0.789717	0.000093
1584	1.5751e+02	-8.4656	-58.278073	0.000324	3.242937	0.549368	0.000065
1585	1.5761e+02	-8.4457	-58.229627	0.000243	2.432203	0.412026	0.000049
1586	1.5771e+02	-8.4256	-58.169070	0.000304	3.040253	0.515033	0.000061
1587	1.5781e+02	-8.4068	-58.080253	0.000446	4.459038	0.755381	0.000089
1588	1.5791e+02	-8.3862	-58.031808	0.000243	2.432203	0.412026	0.000049
1589	1.5801e+02	-8.3664	-57.955102	0.000385	3.850987	0.652375	0.000077
1590	1.5811e+02	-8.3466	-57.906656	0.000243	2.432203	0.412026	0.000049
1591	1.5821e+02	-8.3252	-57.833988	0.000365	3.648304	0.618039	0.000073
1592	1.5830e+02	-8.3073	-57.773431	0.000304	3.040253	0.515033	0.000061
1593	1.5840e+02	-8.2856	-57.749208	0.000122	1.216101	0.206013	0.000024
1594	1.5850e+02	-8.2664	-57.615983	0.000669	6.688557	1.133072	0.000134
1595	1.5860e+02	-8.2457	-57.579648	0.000182	1.824152	0.309020	0.000037
1596	1.5870e+02	-8.2271	-57.527166	0.000263	2.634886	0.446362	0.000053
1597	1.5880e+02	-8.2065	-57.450460	0.000385	3.850987	0.652375	0.000077
1598	1.5890e+02	-8.1876	-57.410089	0.000203	2.026835	0.343355	0.000041
1599	1.5900e+02	-8.1671	-57.317235	0.000466	4.661721	0.789717	0.000093
1600	1.5910e+02	-8.1470	-57.248603	0.000345	3.445620	0.583704	0.000069
1601	1.5920e+02	-8.1268	-57.196121	0.000263	2.634886	0.446362	0.000053
1602	1.5930e+02	-8.1079	-57.143638	0.000263	2.634886	0.446362	0.000053
1603	1.5940e+02	-8.0875	-57.062895	0.000405	4.053671	0.686710	0.000081
1604	1.5950e+02	-8.0675	-56.986190	0.000385	3.850987	0.652375	0.000077
1605	1.5960e+02	-8.0479	-56.925632	0.000304	3.040253	0.515033	0.000061
1606	1.5970e+02	-8.0271	-56.844890	0.000405	4.053671	0.686710	0.000081
1607	1.5980e+02	-8.0084	-56.776258	0.000345	3.445620	0.583704	0.000069
1608	1.5990e+02	-7.9877	-56.739924	0.000182	1.824152	0.309020	0.000037
1609	1.6000e+02	-7.9672	-56.643033	0.000486	4.864405	0.824053	0.000097
1610	1.6010e+02	-7.9474	-56.594587	0.000243	2.432203	0.412026	0.000049
1611	1.6019e+02	-7.9282	-56.501733	0.000466	4.661721	0.789717	0.000093
1612	1.6029e+02	-7.9082	-56.433102	0.000345	3.445620	0.583704	0.000069
1613	1.6039e+02	-7.8882	-56.344285	0.000446	4.459038	0.755381	0.000089
1614	1.6049e+02	-7.8688	-56.287765	0.000284	2.837570	0.480697	0.000057
1615	1.6059e+02	-7.8485	-56.255468	0.000162	1.621468	0.274684	0.000032
1616	1.6069e+02	-7.8288	-56.178762	0.000385	3.850987	0.652375	0.000077
1617	1.6079e+02	-7.8082	-56.089945	0.000446	4.459038	0.755381	0.000089
1618	1.6089e+02	-7.7891	-55.993054	0.000486	4.864405	0.824053	0.000097
1619	1.6099e+02	-7.7682	-55.989017	0.000020	0.202684	0.034336	0.000004
1620	1.6109e+02	-7.7487	-55.859829	0.000649	6.485873	1.098737	0.000130
1621	1.6119e+02	-7.7286	-55.779086	0.000405	4.053671	0.686710	0.000081
1622	1.6129e+02	-7.7090	-55.726603	0.000263	2.634886	0.446362	0.000053
1623	1.6139e+02	-7.6886	-55.674120	0.000263	2.634886	0.446362	0.000053
1624	1.6149e+02	-7.6689	-55.601452	0.000365	3.648304	0.618039	0.000073
1625	1.6159e+02	-7.6480	-55.532821	0.000345	3.445620	0.583704	0.000069
1626	1.6169e+02	-7.6299	-55.480338	0.000263	2.634886	0.446362	0.000053
1627	1.6179e+02	-7.6092	-55.395558	0.000426	4.256354	0.721046	0.000085
1628	1.6189e+02	-7.5885	-55.274444	0.000608	6.080506	1.030066	0.000122
1629	1.6199e+02	-7.5702	-55.286555	-0.000061	-0.608051	-0.103007	-0.000012
1630	1.6209e+02	-7.5505	-55.185627	0.000507	5.067089	0.858388	0.000101
1631	1.6219e+02	-7.5304	-55.104884	0.000405	4.053671	0.686710	0.000081
1632	1.6228e+02	-7.5113	-55.007993	0.000486	4.864405	0.824053	0.000097
1633	1.6238e+02	-7.4907	-54.967622	0.000203	2.026835	0.343355	0.000041
1634	1.6248e+02	-7.4695	-54.870730	0.000486	4.864405	0.824053	0.000097
1635	1.6258e+02	-7.4509	-54.798062	0.000365	3.648304	0.618039	0.000073
1636	1.6268e+02	-7.4304	-54.717319	0.000405	4.053671	0.686710	0.000081
1637	1.6278e+02	-7.4103	-54.648688	0.000345	3.445620	0.583704	0.000069
1638	1.6288e+02	-7.3901	-54.571982	0.000385	3.850987	0.652375	0.000077
1639	1.6298e+02	-7.3705	-54.438757	0.000669	6.688557	1.133072	0.000134
1640	1.6308e+02	-7.3521	-54.414534	0.000122	1.216101	0.206013	0.000024
1641	1.6318e+02	-7.3315	-54.341866	0.000365	3.648304	0.618039	0.000073
1642	1.6328e+02	-7.3105	-54.277271	0.000324	3.242937	0.549368	0.000065
1643	1.6338e+02	-7.2906	-54.188454	0.000446	4.459038	0.755381	0.000089
1644	1.6348e+02	-7.2710	-54.127897	0.000304	3.040253	0.515033	0.000061
1645	1.6358e+02	-7.2513	-54.035043	0.000466	4.661721	0.789717	0.000093
1646	1.6368e+02	-7.2305	-53.942189	0.000466	4.661721	0.789717	0.000093
1647	1.6378e+02	-7.2104	-53.901818	0.000203	2.026835	0.343355	0.000041
1648	1.6388e+02	-7.1921	-53.796852	0.000527	5.269772	0.892724	0.000105
1649	1.6398e+02	-7.1716	-53.752444	0.000223	2.229519	0.377691	0.000045
1650	1.6408e+02	-7.1516	-53.643441	0.000547	5.472456	0.927059	0.000110
1651	1.6418e+02	-7.1313	-53.562698	0.000405	4.053671	0.686710	0.000081
1652	1.6427e+02	-7.1118	-53.494067	0.000345	3.445620	0.583704	0.000069
1653	1.6437e+02	-7.0908	-53.397176	0.000486	4.864405	0.824053	0.000097
1654	1.6447e+02	-7.0721	-53.340656	0.000284	2.837570	0.480697	0.000057
1655	1.6457e+02	-7.0511	-53.259913	0.000405	4.053671	0.686710	0.000081
1656	1.6467e+02	-7.0316	-53.154948	0.000527	5.269772	0.892724	0.000105
1657	1.6477e+02	-7.0117	-53.074205	0.000405	4.053671	0.686710	0.000081
1658	1.6487e+02	-6.9920	-53.021722	0.000263	2.634886	0.446362	0.000053
1659	1.6497e+02	-6.9737	-52.908682	0.000568	5.675139	0.961395	0.000114
1660	1.6507e+02	-6.9526	-52.840051	0.000345	3.445620	0.583704	0.000069
1661	1.6517e+02	-6.9313	-52.759308	0.000405	4.053671	0.686710	0.000081
1662	1.6527e+02	-6.9127	-52.722974	0.000182	1.824152	0.309020	0.000037
1663	1.6537e+02	-6.8932	-52.581674	0.000709	7.093924	1.201743	0.000142
1664	1.6547e+02	-6.8724	-52.557452	0.000122	1.216101	0.206013	0.000024
1665	1.6557e+02	-6.8524	-52.428263	0.000649	6.485873	1.098737	0.000130
1666	1.6567e+02	-6.8323	-52.363669	0.000324	3.242937	0.549368	0.000065
1667	1.6577e+02	-6.8129	-52.274852	0.000446	4.459038	0.755381	0.000089
1668	1.6587e+02	-6.7923	-52.181998	0.000466	4.661721	0.789717	0.000093
1669	1.6597e+02	-6.7731	-52.145664	0.000182	1.824152	0.309020	0.000037
1670	1.6607e+02	-6.7535	-52.036661	0.000547	5.472456	0.927059	0.000110
1671	1.6616e+02	-6.7332	-51.959956	0.000385	3.850987	0.652375	0.000077
1672	1.6626e+02	-6.7136	-51.875176	0.000426	4.256354	0.721046	0.000085
1673	1.6636e+02	-6.6928	-51.806544	0.000345	3.445620	0.583704	0.000069
1674	1.6646e+02	-6.6739	-51.657170	0.000750	7.499291	1.270414	0.000150
1675	1.6656e+02	-6.6534	-51.628910	0.000142	1.418785	0.240349	0.000028
1676	1.6666e+02	-6.6324	-51.511833	0.000588	5.877823	0.995730	0.000118
1677	1.6676e+02	-6.6142	-51.439165	0.000365	3.648304	0.618039	0.000073
1678	1.6686e+02	-6.5933	-51.382645	0.000284	2.837570	0.480697	0.000057
1679	1.6696e+02	-6.5744	-51.289791	0.000466	4.661721	0.789717	0.000093
1680	1.6706e+02	-6.5561	-51.188863	0.000507	5.067089	0.858388	0.000101
1681	1.6716e+02	-6.5332	-51.116194	0.000365	3.648304	0.618039	0.000073
1682	1.6726e+02	-6.5137	-51.055637	0.000304	3.040253	0.515033	0.000061
1683	1.6736e+02	-6.4944	-50.930486	0.000628	6.283190	1.064401	0.000126
1684	1.6746e+02	-6.4751	-50.821483	0.000547	5.472456	0.927059	0.000110
1685	1.6756e+02	-6.4543	-50.789186	0.000162	1.621468	0.274684	0.000032
1686	1.6766e+02	-6.4342	-50.680183	0.000547	5.472456	0.927059	0.000110
1687	1.6776e+02	-6.4145	-50.587329	0.000466	4.661721	0.789717	0.000093
1688	1.6786e+02	-6.3947	-50.450067	0.000689	6.891240	1.167408	0.000138
1689	1.6796e+02	-6.3739	-50.393547	0.000284	2.837570	0.480697	0.000057
1690	1.6806e+02	-6.3543	-50.296656	0.000486	4.864405	0.824053	0.000097
1691	1.6816e+02	-6.3348	-50.248210	0.000243	2.432203	0.412026	0.000049
1692	1.6825e+02	-6.3150	-50.110947	0.000689	6.891240	1.167408	0.000138
1693	1.6835e+02	-6.2949	-50.030205	0.000405	4.053671	0.686710	0.000081
1694	1.6845e+02	-6.2750	-49.989833	0.000203	2.026835	0.343355	0.000041
1695	1.6855e+02	-6.2543	-49.824311	0.000831	8.310025	1.407756	0.000166
1696	1.6865e+02	-6.2350	-49.763754	0.000304	3.040253	0.515033	0.000061
1697	1.6875e+02	-6.2154	-49.654751	0.000547	5.472456	0.927059	0.000110
1698	1.6885e+02	-6.1959	-49.586120	0.000345	3.445620	0.583704	0.000069
1699	1.6895e+02	-6.1758	-49.521526	0.000324	3.242937	0.549368	0.000065
1700	1.6905e+02	-6.1552	-49.388300	0.000669	6.688557	1.133072	0.000134
1701	1.6915e+02	-6.1349	-49.315632	0.000365	3.648304	0.618039	0.000073
1702	1.6925e+02	-6.1151	-49.198555	0.000588	5.877823	0.995730	0.000118
1703	1.6935e+02	-6.0953	-49.133960	0.000324	3.242937	0.549368	0.000065
1704	1.6945e+02	-6.0754	-49.053218	0.000405	4.053671	0.686710	0.000081
1705	1.6955e+02	-6.0558	-48.940178	0.000568	5.675139	0.961395	0.000114
1706	1.6965e+02	-6.0355	-48.863472	0.000385	3.850987	0.652375	0.000077
1707	1.6975e+02	-6.0156	-48.714098	0.000750	7.499291	1.270414	0.000150
1708	1.6985e+02	-5.9972	-48.661616	0.000263	2.634886	0.446362	0.000053
1709	1.6995e+02	-5.9761	-48.536464	0.000628	6.283190	1.064401	0.000126
1710	1.7005e+02	-5.9573	-48.455722	0.000405	4.053671	0.686710	0.000081
1711	1.7015e+02	-5.9363	-48.346719	0.000547	5.472456	0.927059	0.000110
1712	1.7024e+02	-5.9160	-48.278088	0.000345	3.445620	0.583704	0.000069
1713	1.7034e+02	-5.8965	-48.169085	0.000547	5.472456	0.927059	0.000110
1714	1.7044e+02	-5.8759	-48.092379	0.000385	3.850987	0.652375	0.000077
1715	1.7054e+02	-5.8565	-47.983377	0.000547	5.472456	0.927059	0.000110
1716	1.7064e+02	-5.8369	-47.862263	0.000608	6.080506	1.030066	0.000122
1717	1.7074e+02	-5.8163	-47.797669	0.000324	3.242937	0.549368	0.000065
1718	1.7084e+02	-5.7962	-47.696740	0.000507	5.067089	0.858388	0.000101
1719	1.7094e+02	-5.7775	-47.603886	0.000466	4.661721	0.789717	0.000093
1720	1.7104e+02	-5.7574	-47.519106	0.000426	4.256354	0.721046	0.000085
1721	1.7114e+02	-5.7369	-47.397992	0.000608	6.080506	1.030066	0.000122
1722	1.7124e+02	-5.7169	-47.333398	0.000324	3.242937	0.549368	0.000065
1723	1.7134e+02	-5.6975	-47.256692	0.000385	3.850987	0.652375	0.000077
1724	1.7144e+02	-5.6772	-47.159801	0.000486	4.864405	0.824053	0.000097
1725	1.7154e+02	-5.6569	-47.014464	0.000730	7.296608	1.236079	0.000146
1726	1.7164e+02	-5.6374	-46.945833	0.000345	3.445620	0.583704	0.000069
1727	1.7174e+02	-5.6172	-46.848942	0.000486	4.864405	0.824053	0.000097
1728	1.7184e+02	-5.5981	-46.748013	0.000507	5.067089	0.858388	0.000101
1729	1.7194e+02	-5.5780	-46.655159	0.000466	4.661721	0.789717	0.000093
1730	1.7204e+02	-5.5579	-46.554231	0.000507	5.067089	0.858388	0.000101
1731	1.7213e+02	-5.5386	-46.473488	0.000405	4.053671	0.686710	0.000081
1732	1.7223e+02	-5.5168	-46.392745	0.000405	4.053671	0.686710	0.000081
1733	1.7233e+02	-5.4977	-46.251446	0.000709	7.093924	1.201743	0.000142
1734	1.7243e+02	-5.4776	-46.178777	0.000365	3.648304	0.618039	0.000073
1735	1.7253e+02	-5.4563	-46.098034	0.000405	4.053671	0.686710	0.000081
1736	1.7263e+02	-5.4381	-45.989032	0.000547	5.472456	0.927059	0.000110
1737	1.7273e+02	-5.4175	-45.867918	0.000608	6.080506	1.030066	0.000122
1738	1.7283e+02	-5.3980	-45.771026	0.000486	4.864405	0.824053	0.000097
1739	1.7293e+02	-5.3780	-45.702395	0.000345	3.445620	0.583704	0.000069
1740	1.7303e+02	-5.3581	-45.565133	0.000689	6.891240	1.167408	0.000138
1741	1.7313e+02	-5.3387	-45.484390	0.000405	4.053671	0.686710	0.000081
1742	1.7323e+02	-5.3186	-45.391536	0.000466	4.661721	0.789717	0.000093
1743	1.7333e+02	-5.2985	-45.242162	0.000750	7.499291	1.270414	0.000150
1744	1.7343e+02	-5.2779	-45.157382	0.000426	4.256354	0.721046	0.000085
1745	1.7353e+02	-5.2585	-45.096825	0.000304	3.040253	0.515033	0.000061
1746	1.7363e+02	-5.2390	-44.951488	0.000730	7.296608	1.236079	0.000146
1747	1.7373e+02	-5.2187	-44.890931	0.000304	3.040253	0.515033	0.000061
1748	1.7383e+02	-5.1990	-44.741557	0.000750	7.499291	1.270414	0.000150
1749	1.7393e+02	-5.1775	-44.676963	0.000324	3.242937	0.549368	0.000065
1750	1.7403e+02	-5.1585	-44.555849	0.000608	6.080506	1.030066	0.000122
1751	1.7413e+02	-5.1385	-44.434735	0.000608	6.080506	1.030066	0.000122
1752	1.7422e+02	-5.1187	-44.390326	0.000223	2.229519	0.377691	0.000045
1753	1.7432e+02	-5.0988	-44.277286	0.000568	5.675139	0.961395	0.000114
1754	1.7442e+02	-5.0787	-44.152135	0.000628	6.283190	1.064401	0.000126
1755	1.7452e+02	-5.0582	-44.067355	0.000426	4.256354	0.721046	0.000085
1756	1.7462e+02	-5.0394	-43.954315	0.000568	5.675139	0.961395	0.000114
1757	1.7472e+02	-5.0188	-43.833201	0.000608	6.080506	1.030066	0.000122
1758	1.7482e+02	-5.0000	-43.744384	0.000446	4.459038	0.755381	0.000089
1759	1.7492e+02	-4.9805	-43.631344	0.000568	5.675139	0.961395	0.000114
1760	1.7502e+02	-4.9596	-43.554639	0.000385	3.850987	0.652375	0.000077
1761	1.7512e+02	-4.9406	-43.433525	0.000608	6.080506	1.030066	0.000122
1762	1.7522e+02	-4.9216	-43.356819	0.000385	3.850987	0.652375	0.000077
1763	1.7532e+02	-4.8996	-43.223594	0.000669	6.688557	1.133072	0.000134
1764	1.7542e+02	-4.8798	-43.142851	0.000405	4.053671	0.686710	0.000081
1765	1.7552e+02	-4.8602	-43.045960	0.000486	4.864405	0.824053	0.000097
1766	1.7562e+02	-4.8401	-42.916771	0.000649	6.485873	1.098737	0.000130
1767	1.7572e+02	-4.8203	-42.872363	0.000223	2.229519	0.377691	0.000045
1768	1.7582e+02	-4.8063	-42.727026	0.000730	7.296608	1.236079	0.000146
1769	1.7592e+02	-4.7807	-42.613986	0.000568	5.675139	0.961395	0.000114
1770	1.7602e+02	-4.7595	-42.504984	0.000547	5.472456	0.927059	0.000110
1771	1.7612e+02	-4.7415	-42.436352	0.000345	3.445620	0.583704	0.000069
1772	1.7621e+02	-4.7194	-42.274867	0.000811	8.107342	1.373421	0.000162
1773	1.7631e+02	-4.7002	-42.190087	0.000426	4.256354	0.721046	0.000085
1774	1.7641e+02	-4.6816	-42.109344	0.000405	4.053671	0.686710	0.000081
1775	1.7651e+02	-4.6610	-42.020527	0.000446	4.459038	0.755381	0.000089
1776	1.7661e+02	-4.6412	-41.895376	0.000628	6.283190	1.064401	0.000126
1777	1.7671e+02	-4.6205	-41.782336	0.000568	5.675139	0.961395	0.000114
1778	1.7681e+02	-4.6014	-41.705631	0.000385	3.850987	0.652375	0.000077
1779	1.7691e+02	-4.5816	-41.584517	0.000608	6.080506	1.030066	0.000122
1780	1.7701e+02	-4.5618	-41.487625	0.000486	4.864405	0.824053	0.000097
1781	1.7711e+02	-4.5416	-41.378623	0.000547	5.472456	0.927059	0.000110
1782	1.7721e+02	-4.5215	-41.281731	0.000486	4.864405	0.824053	0.000097
1783	1.7731e+02	-4.5020	-41.176766	0.000527	5.269772	0.892724	0.000105
1784	1.7741e+02	-4.4821	-41.087949	0.000446	4.459038	0.755381	0.000089
1785	1.7751e+02	-4.4615	-40.950686	0.000689	6.891240	1.167408	0.000138
1786	1.7761e+02	-4.4424	-40.857832	0.000466	4.661721	0.789717	0.000093
1787	1.7771e+02	-4.4220	-40.777090	0.000405	4.053671	0.686710	0.000081
1788	1.7781e+02	-4.4012	-40.639827	0.000689	6.891240	1.167408	0.000138
1789	1.7791e+02	-4.3814	-40.522750	0.000588	5.877823	0.995730	0.000118
1790	1.7801e+02	-4.3628	-40.429896	0.000466	4.661721	0.789717	0.000093
1791	1.7810e+02	-4.3420	-40.361265	0.000345	3.445620	0.583704	0.000069
1792	1.7820e+02	-4.3216	-40.244188	0.000588	5.877823	0.995730	0.000118
1793	1.7830e+02	-4.3007	-40.143259	0.000507	5.067089	0.858388	0.000101
1794	1.7840e+02	-4.2821	-40.010034	0.000669	6.688557	1.133072	0.000134
1795	1.7850e+02	-4.2621	-39.929291	0.000405	4.053671	0.686710	0.000081
1796	1.7860e+02	-4.2424	-39.775880	0.000770	7.701975	1.304750	0.000154
1797	1.7870e+02	-4.2224	-39.719360	0.000284	2.837570	0.480697	0.000057
1798	1.7880e+02	-4.2019	-39.586134	0.000669	6.688557	1.133072	0.000134
1799	1.7890e+02	-4.1817	-39.493280	0.000466	4.661721	0.789717	0.000093
1800	1.7900e+02	-4.1628	-39.380241	0.000568	5.675139	0.961395	0.000114
1801	1.7910e+02	-4.1425	-39.259126	0.000608	6.080506	1.030066	0.000122
1802	1.7920e+02	-4.1229	-39.158198	0.000507	5.067089	0.858388	0.000101
1803	1.7930e+02	-4.1028	-39.037084	0.000608	6.080506	1.030066	0.000122
1804	1.7940e+02	-4.0834	-38.928081	0.000547	5.472456	0.927059	0.000110
1805	1.7950e+02	-4.0634	-38.827153	0.000507	5.067089	0.858388	0.000101
1806	1.7960e+02	-4.0442	-38.754485	0.000365	3.648304	0.618039	0.000073
1807	1.7970e+02	-4.0229	-38.588962	0.000831	8.310025	1.407756	0.000166
1808	1.7980e+02	-4.0031	-38.463811	0.000628	6.283190	1.064401	0.000126
1809	1.7990e+02	-3.9833	-38.415365	0.000243	2.432203	0.412026	0.000049
1810	1.8000e+02	-3.9632	-38.270028	0.000730	7.296608	1.236079	0.000146
1811	1.8009e+02	-3.9430	-38.148914	0.000608	6.080506	1.030066	0.000122
1812	1.8019e+02	-3.9238	-38.027800	0.000608	6.080506	1.030066	0.000122
1813	1.8029e+02	-3.9030	-37.943020	0.000426	4.256354	0.721046	0.000085
1814	1.8039e+02	-3.8831	-37.813832	0.000649	6.485873	1.098737	0.000130
1815	1.8049e+02	-3.8639	-37.700792	0.000568	5.675139	0.961395	0.000114
1816	1.8059e+02	-3.8425	-37.595827	0.000527	5.269772	0.892724	0.000105
1817	1.8069e+02	-3.8232	-37.486824	0.000547	5.472456	0.927059	0.000110
1818	1.8079e+02	-3.8031	-37.377821	0.000547	5.472456	0.927059	0.000110
1819	1.8089e+02	-3.7842	-37.260744	0.000588	5.877823	0.995730	0.000118
1820	1.8099e+02	-3.7640	-37.180002	0.000405	4.053671	0.686710	0.000081
1821	1.8109e+02	-3.7440	-36.998330	0.000912	9.120759	1.545098	0.000183
1822	1.8119e+02	-3.7282	-36.901439	0.000486	4.864405	0.824053	0.000097
1823	1.8129e+02	-3.7044	-36.760139	0.000709	7.093924	1.201743	0.000142
1824	1.8139e+02	-3.6852	-36.655174	0.000527	5.269772	0.892724	0.000105
1825	1.8149e+02	-3.6655	-36.550208	0.000527	5.269772	0.892724	0.000105
1826	1.8159e+02	-3.6446	-36.469466	0.000405	4.053671	0.686710	0.000081
1827	1.8169e+02	-3.6247	-36.356426	0.000568	5.675139	0.961395	0.000114
1828	1.8179e+02	-3.6053	-36.219163	0.000689	6.891240	1.167408	0.000138
1829	1.8189e+02	-3.5852	-36.114198	0.000527	5.269772	0.892724	0.000105
1830	1.8199e+02	-3.5652	-35.989047	0.000628	6.283190	1.064401	0.000126
1831	1.8209e+02	-3.5452	-35.904267	0.000426	4.256354	0.721046	0.000085
1832	1.8218e+02	-3.5259	-35.758930	0.000730	7.296608	1.236079	0.000146
1833	1.8228e+02	-3.5049	-35.625704	0.000669	6.688557	1.133072	0.000134
1834	1.8238e+02	-3.4851	-35.512665	0.000568	5.675139	0.961395	0.000114
1835	1.8248e+02	-3.4643	-35.419810	0.000466	4.661721	0.789717	0.000093
1836	1.8258e+02	-3.4452	-35.298696	0.000608	6.080506	1.030066	0.000122
1837	1.8268e+02	-3.4262	-35.165471	0.000669	6.688557	1.133072	0.000134
1838	1.8278e+02	-3.4052	-35.084728	0.000405	4.053671	0.686710	0.000081
1839	1.8288e+02	-3.3865	-34.951503	0.000669	6.688557	1.133072	0.000134
1840	1.8298e+02	-3.3653	-34.850574	0.000507	5.067089	0.858388	0.000101
1841	1.8308e+02	-3.3459	-34.689089	0.000811	8.107342	1.373421	0.000162
1842	1.8318e+02	-3.3252	-34.604309	0.000426	4.256354	0.721046	0.000085
1843	1.8328e+02	-3.3066	-34.471083	0.000669	6.688557	1.133072	0.000134
1844	1.8338e+02	-3.2864	-34.374192	0.000486	4.864405	0.824053	0.000097
1845	1.8348e+02	-3.2662	-34.232892	0.000709	7.093924	1.201743	0.000142
1846	1.8358e+02	-3.2468	-34.115816	0.000588	5.877823	0.995730	0.000118
1847	1.8368e+02	-3.2259	-33.986627	0.000649	6.485873	1.098737	0.000130
1848	1.8378e+02	-3.2066	-33.881662	0.000527	5.269772	0.892724	0.000105
1849	1.8388e+02	-3.1863	-33.788808	0.000466	4.661721	0.789717	0.000093
1850	1.8398e+02	-3.1660	-33.599062	0.000953	9.526127	1.613770	0.000191
1851	1.8407e+02	-3.1469	-33.481985	0.000588	5.877823	0.995730	0.000118
1852	1.8417e+02	-3.1268	-33.372983	0.000547	5.472456	0.927059	0.000110
1853	1.8427e+02	-3.1071	-33.276091	0.000486	4.864405	0.824053	0.000097
1854	1.8437e+02	-3.0867	-33.134792	0.000709	7.093924	1.201743	0.000142
1855	1.8447e+02	-3.0672	-32.985418	0.000750	7.499291	1.270414	0.000150
1856	1.8457e+02	-3.0468	-32.900638	0.000426	4.256354	0.721046	0.000085
1857	1.8467e+02	-3.0265	-32.755301	0.000730	7.296608	1.236079	0.000146
1858	1.8477e+02	-3.0074	-32.605927	0.000750	7.499291	1.270414	0.000150
1859	1.8487e+02	-2.9871	-32.480776	0.000628	6.283190	1.064401	0.000126
1860	1.8497e+02	-2.9669	-32.387921	0.000466	4.661721	0.789717	0.000093
1861	1.8507e+02	-2.9465	-32.250659	0.000689	6.891240	1.167408	0.000138
1862	1.8517e+02	-2.9271	-32.145693	0.000527	5.269772	0.892724	0.000105
1863	1.8527e+02	-2.9074	-31.988245	0.000790	7.904658	1.339085	0.000158
1864	1.8537e+02	-2.8870	-31.907502	0.000405	4.053671	0.686710	0.000081
1865	1.8547e+02	-2.8674	-31.741980	0.000831	8.310025	1.407756	0.000166
1866	1.8557e+02	-2.8474	-31.653163	0.000446	4.459038	0.755381	0.000089
1867	1.8567e+02	-2.8278	-31.483603	0.000851	8.512709	1.442092	0.000170
1868	1.8577e+02	-2.8081	-31.358452	0.000628	6.283190	1.064401	0.000126
1869	1.8587e+02	-2.7881	-31.217152	0.000709	7.093924	1.201743	0.000142
1870	1.8597e+02	-2.7684	-31.140447	0.000385	3.850987	0.652375	0.000077
1871	1.8606e+02	-2.7478	-31.011258	0.000649	6.485873	1.098737	0.000130
1872	1.8616e+02	-2.7283	-30.849773	0.000811	8.107342	1.373421	0.000162
1873	1.8626e+02	-2.7073	-30.692324	0.000790	7.904658	1.339085	0.000158
1874	1.8636e+02	-2.6872	-30.591396	0.000507	5.067089	0.858388	0.000101
1875	1.8646e+02	-2.6678	-30.442022	0.000750	7.499291	1.270414	0.000150
1876	1.8656e+02	-2.6479	-30.324945	0.000588	5.877823	0.995730	0.000118
1877	1.8666e+02	-2.6280	-30.171534	0.000770	7.701975	1.304750	0.000154
1878	1.8676e+02	-2.6085	-30.054457	0.000588	5.877823	0.995730	0.000118
1879	1.8686e+02	-2.5878	-29.901046	0.000770	7.701975	1.304750	0.000154
1880	1.8696e+02	-2.5693	-29.840489	0.000304	3.040253	0.515033	0.000061
1881	1.8706e+02	-2.5488	-29.654781	0.000932	9.323443	1.579434	0.000187
1882	1.8716e+02	-2.5287	-29.529629	0.000628	6.283190	1.064401	0.000126
1883	1.8726e+02	-2.5089	-29.351995	0.000892	8.918076	1.510763	0.000179
1884	1.8736e+02	-2.4896	-29.299513	0.000263	2.634886	0.446362	0.000053
1885	1.8746e+02	-2.4693	-29.121879	0.000892	8.918076	1.510763	0.000179
1886	1.8756e+02	-2.4500	-29.008839	0.000568	5.675139	0.961395	0.000114
1887	1.8766e+02	-2.4290	-28.899836	0.000547	5.472456	0.927059	0.000110
1888	1.8776e+02	-2.4103	-28.734314	0.000831	8.310025	1.407756	0.000166
1889	1.8786e+02	-2.3906	-28.576865	0.000790	7.904658	1.339085	0.000158
1890	1.8796e+02	-2.3694	-28.488048	0.000446	4.459038	0.755381	0.000089
1891	1.8806e+02	-2.3496	-28.391157	0.000486	4.864405	0.824053	0.000097
1892	1.8815e+02	-2.3299	-28.278117	0.000568	5.675139	0.961395	0.000114
1893	1.8825e+02	-2.3095	-28.048001	0.001155	11.552962	1.957125	0.000231
1894	1.8835e+02	-2.2906	-27.934961	0.000568	5.675139	0.961395	0.000114
1895	1.8845e+02	-2.2693	-27.874404	0.000304	3.040253	0.515033	0.000061
1896	1.8855e+02	-2.2542	-27.725030	0.000750	7.499291	1.270414	0.000150
1897	1.8865e+02	-2.2296	-27.567581	0.000790	7.904658	1.339085	0.000158
1898	1.8875e+02	-2.2098	-27.418207	0.000750	7.499291	1.270414	0.000150
1899	1.8885e+02	-2.1908	-27.276908	0.000709	7.093924	1.201743	0.000142
1900	1.8895e+02	-2.1704	-27.188091	0.000446	4.459038	0.755381	0.000089
1901	1.8905e+02	-2.1510	-27.014494	0.000872	8.715392	1.476427	0.000174
1902	1.8915e+02	-2.1297	-26.889343	0.000628	6.283190	1.064401	0.000126
1903	1.8925e+02	-2.1107	-26.764191	0.000628	6.283190	1.064401	0.000126
1904	1.8935e+02	-2.0900	-26.602706	0.000811	8.107342	1.373421	0.000162
1905	1.8945e+02	-2.0706	-26.517926	0.000426	4.256354	0.721046	0.000085
1906	1.8955e+02	-2.0505	-26.372589	0.000730	7.296608	1.236079	0.000146
1907	1.8965e+02	-2.0303	-26.231289	0.000709	7.093924	1.201743	0.000142
1908	1.8975e+02	-2.0114	-26.085953	0.000730	7.296608	1.236079	0.000146
1909	1.8985e+02	-1.9914	-25.920430	0.000831	8.310025	1.407756	0.000166
1910	1.8995e+02	-1.9716	-25.835650	0.000426	4.256354	0.721046	0.000085
1911	1.9004e+02	-1.9509	-25.686276	0.000750	7.499291	1.270414	0.000150
1912	1.9014e+02	-1.9315	-25.549014	0.000689	6.891240	1.167408	0.000138
1913	1.9024e+02	-1.9119	-25.379454	0.000851	8.512709	1.442092	0.000170
1914	1.9034e+02	-1.8910	-25.282563	0.000486	4.864405	0.824053	0.000097
1915	1.9044e+02	-1.8723	-25.108966	0.000872	8.715392	1.476427	0.000174
1916	1.9054e+02	-1.8507	-24.987852	0.000608	6.080506	1.030066	0.000122
1917	1.9064e+02	-1.8318	-24.874812	0.000568	5.675139	0.961395	0.000114
1918	1.9074e+02	-1.8118	-24.697178	0.000892	8.918076	1.510763	0.000179
1919	1.9084e+02	-1.7921	-24.584138	0.000568	5.675139	0.961395	0.000114
1920	1.9094e+02	-1.7725	-24.438801	0.000730	7.296608	1.236079	0.000146
1921	1.9104e+02	-1.7511	-24.249056	0.000953	9.526127	1.613770	0.000191
1922	1.9114e+02	-1.7310	-24.164276	0.000426	4.256354	0.721046	0.000085
1923	1.9124e+02	-1.7127	-24.010865	0.000770	7.701975	1.304750	0.000154
1924	1.9134e+02	-1.6919	-23.865528	0.000730	7.296608	1.236079	0.000146
1925	1.9144e+02	-1.6718	-23.752488	0.000568	5.675139	0.961395	0.000114
1926	1.9154e+02	-1.6526	-23.607151	0.000730	7.296608	1.236079	0.000146
1927	1.9164e+02	-1.6328	-23.490074	0.000588	5.877823	0.995730	0.000118
1928	1.9174e+02	-1.6122	-23.304366	0.000932	9.323443	1.579434	0.000187
1929	1.9184e+02	-1.5924	-23.171141	0.000669	6.688557	1.133072	0.000134
1930	1.9194e+02	-1.5726	-23.054064	0.000588	5.877823	0.995730	0.000118
1931	1.9203e+02	-1.5525	-22.920838	0.000669	6.688557	1.133072	0.000134
1932	1.9213e+02	-1.5330	-22.771464	0.000750	7.499291	1.270414	0.000150
1933	1.9223e+02	-1.5137	-22.618053	0.000770	7.701975	1.304750	0.000154
1934	1.9233e+02	-1.4930	-22.509050	0.000547	5.472456	0.927059	0.000110
1935	1.9243e+02	-1.4730	-22.323342	0.000932	9.323443	1.579434	0.000187
1936	1.9253e+02	-1.4524	-22.218377	0.000527	5.269772	0.892724	0.000105
1937	1.9263e+02	-1.4334	-22.052854	0.000831	8.310025	1.407756	0.000166
1938	1.9273e+02	-1.4127	-21.899443	0.000770	7.701975	1.304750	0.000154
1939	1.9283e+02	-1.3934	-21.754106	0.000730	7.296608	1.236079	0.000146
1940	1.9293e+02	-1.3733	-21.653178	0.000507	5.067089	0.858388	0.000101
1941	1.9303e+02	-1.3532	-21.528026	0.000628	6.283190	1.064401	0.000126
1942	1.9313e+02	-1.3329	-21.386727	0.000709	7.093924	1.201743	0.000142
1943	1.9323e+02	-1.3135	-21.233315	0.000770	7.701975	1.304750	0.000154
1944	1.9333e+02	-1.2943	-21.087979	0.000730	7.296608	1.236079	0.000146
1945	1.9343e+02	-1.2732	-20.958790	0.000649	6.485873	1.098737	0.000130
1946	1.9353e+02	-1.2540	-20.849788	0.000547	5.472456	0.927059	0.000110
1947	1.9363e+02	-1.2348	-20.712525	0.000689	6.891240	1.167408	0.000138
1948	1.9373e+02	-1.2148	-20.526817	0.000932	9.323443	1.579434	0.000187
1949	1.9383e+02	-1.1944	-20.397628	0.000649	6.485873	1.098737	0.000130
1950	1.9393e+02	-1.1742	-20.300737	0.000486	4.864405	0.824053	0.000097
1951	1.9403e+02	-1.1549	-20.155400	0.000730	7.296608	1.236079	0.000146
1952	1.9412e+02	-1.1340	-20.010063	0.000730	7.296608	1.236079	0.000146
1953	1.9422e+02	-1.1151	-19.828392	0.000912	9.120759	1.545098	0.000183
1954	1.9432e+02	-1.0948	-19.699204	0.000649	6.485873	1.098737	0.000130
1955	1.9442e+02	-1.0741	-19.606350	0.000466	4.661721	0.789717	0.000093
1956	1.9452e+02	-1.0552	-19.400456	0.001034	10.336861	1.751112	0.000207
1957	1.9462e+02	-1.0352	-19.283379	0.000588	5.877823	0.995730	0.000118
1958	1.9472e+02	-1.0152	-19.146116	0.000689	6.891240	1.167408	0.000138
1959	1.9482e+02	-0.9951	-19.025002	0.000608	6.080506	1.030066	0.000122
1960	1.9492e+02	-0.9750	-18.847368	0.000892	8.918076	1.510763	0.000179
1961	1.9502e+02	-0.9549	-18.754514	0.000466	4.661721	0.789717	0.000093
1962	1.9512e+02	-0.9357	-18.609177	0.000730	7.296608	1.236079	0.000146
1963	1.9522e+02	-0.9152	-18.467877	0.000709	7.093924	1.201743	0.000142
1964	1.9532e+02	-0.8953	-18.302355	0.000831	8.310025	1.407756	0.000166
1965	1.9542e+02	-0.8755	-18.185278	0.000588	5.877823	0.995730	0.000118
1966	1.9552e+02	-0.8559	-18.035904	0.000750	7.499291	1.270414	0.000150
1967	1.9562e+02	-0.8360	-17.878456	0.000790	7.904658	1.339085	0.000158
1968	1.9572e+02	-0.8154	-17.769453	0.000547	5.472456	0.927059	0.000110
1969	1.9582e+02	-0.7957	-17.563559	0.001034	10.336861	1.751112	0.000207
1970	1.9592e+02	-0.7766	-17.462631	0.000507	5.067089	0.858388	0.000101
1971	1.9601e+02	-0.7565	-17.313257	0.000750	7.499291	1.270414	0.000150
1972	1.9611e+02	-0.7355	-17.196180	0.000588	5.877823	0.995730	0.000118
1973	1.9621e+02	-0.7156	-17.010471	0.000932	9.323443	1.579434	0.000187
1974	1.9631e+02	-0.6959	-16.885320	0.000628	6.283190	1.064401	0.000126
1975	1.9641e+02	-0.6766	-16.748058	0.000689	6.891240	1.167408	0.000138
1976	1.9651e+02	-0.6567	-16.574461	0.000872	8.715392	1.476427	0.000174
1977	1.9661e+02	-0.6355	-16.441235	0.000669	6.688557	1.133072	0.000134
1978	1.9671e+02	-0.6171	-16.332233	0.000547	5.472456	0.927059	0.000110
1979	1.9681e+02	-0.5962	-16.166710	0.000831	8.310025	1.407756	0.000166
1980	1.9691e+02	-0.5761	-16.029447	0.000689	6.891240	1.167408	0.000138
1981	1.9701e+02	-0.5569	-15.859888	0.000851	8.512709	1.442092	0.000170
1982	1.9711e+02	-0.5370	-15.726662	0.000669	6.688557	1.133072	0.000134
1983	1.9721e+02	-0.5164	-15.569214	0.000790	7.904658	1.339085	0.000158
1984	1.9731e+02	-0.4963	-15.456174	0.000568	5.675139	0.961395	0.000114
1985	1.9741e+02	-0.4767	-15.310837	0.000730	7.296608	1.236079	0.000146
1986	1.9751e+02	-0.4562	-15.161463	0.000750	7.499291	1.270414	0.000150
1987	1.9761e+02	-0.4367	-15.016126	0.000730	7.296608	1.236079	0.000146
1988	1.9771e+02	-0.4176	-14.874827	0.000709	7.093924	1.201743	0.000142
1989	1.9781e+02	-0.3973	-14.701230	0.000872	8.715392	1.476427	0.000174
1990	1.9791e+02	-0.3775	-14.620487	0.000405	4.053671	0.686710	0.000081
1991	1.9800e+02	-0.3571	-14.434779	0.000932	9.323443	1.579434	0.000187
1992	1.9810e+02	-0.3368	-14.265219	0.000851	8.512709	1.442092	0.000170
1993	1.9820e+02	-0.3175	-14.119882	0.000730	7.296608	1.236079	0.000146
1994	1.9830e+02	-0.2971	-14.014917	0.000527	5.269772	0.892724	0.000105
1995	1.9840e+02	-0.2771	-13.873617	0.000709	7.093924	1.201743	0.000142
1996	1.9850e+02	-0.2582	-13.704057	0.000851	8.512709	1.442092	0.000170
1997	1.9860e+02	-0.2370	-13.578906	0.000628	6.283190	1.064401	0.000126
1998	1.9870e+02	-0.2180	-13.397235	0.000912	9.120759	1.545098	0.000183
1999	1.9880e+02	-0.1981	-13.268047	0.000649	6.485873	1.098737	0.000130
2000	1.9890e+02	-0.1775	-13.090413	0.000892	8.918076	1.510763	0.000179
2001	1.9900e+02	-0.1577	-13.001596	0.000446	4.459038	0.755381	0.000089
2002	1.9910e+02	-0.1371	-12.803776	0.000993	9.931494	1.682441	0.000199
2003	1.9920e+02	-0.1178	-12.666513	0.000689	6.891240	1.167408	0.000138
2004	1.9930e+02	-0.0974	-12.565585	0.000507	5.067089	0.858388	0.000101
2005	1.9940e+02	-0.0777	-12.412174	0.000770	7.701975	1.304750	0.000154
2006	1.9950e+02	-0.0587	-12.230503	0.000912	9.120759	1.545098	0.000183
2007	1.9960e+02	-0.0383	-12.125537	0.000527	5.269772	0.892724	0.000105
2008	1.9970e+02	-0.0175	-11.955977	0.000851	8.512709	1.442092	0.000170
2009	1.9980e+02	0.0000	-11.834863	0.000851	8.512709	1.442092	0.000122

PMax (uC/cm2):	6.05e+01
Pr (uC/cm2):	5.69e+00
-Pr (uC/cm2):	-1.23e+01
PLoss (uC/cm2):	-1.22e+01
-Vc:	-8.06e-01
C (Max-Eff) (nF):	6.05e-01
K (Eff):	1.03e+03
Vert. (+/-Pr) Shift (uC/cm2):	-3.28e+00
Offset (uC/cm2):	-4.26e-01

A (Loop Area - uC/cm2·Volts):	-4.67e-03



Hysteresis Version: 5.48.1 - Radiant Technologies, Inc., 1999 - 9/12/24

