»»»»»»»»»»»»»»»»»»»»»»»»»»»»»»»»»»»» Hysteresis ««««««««««««««««««««««««««««««««««««
»»»  Executed Version:	5.48.1
»»»  Vision Version:	5.48.4 (R)
»»»  Vision Compiled:	9/18/24
»»»  Driver Version:	5.47.0
»»»  Windows Version:	Windows 8 or 8.1
»»»  Processor Information:	x86 (AMD or Intel) - 32 Processors
»»»  Tester Name:	PMF21124-494 (100V)
»»»  Tester S/N:	PMF21124-494
»»»  Internal Amp Type:	100V RevK 270k
»»»  Internal Amp S/N:	iAB2-596/K     
»»»  Execution Count:	1
»»»»»»»»»»»»»»»»»»»»»»»»»»»»»»»»»»»»»»»»»»««««««««««««««««««««««««««««««««««««««««««

Stored:	7/7/2025 - 14:20:0
Configured:	07/07/25 01:27:50 PM
Executed:	07/07/25 02:19:25 PM

»»»»»»»»»»»»»»»»»»»»»»»»»»»»»»»»»»» Sample Info ««««««««««««««««««««««««««««««««««««
Sample Name:	
Lot Name:	
Wafer Name:	
Die Row/Column:	0/0
Capacitor Number:	0
Sample Area (cm2):	1.00e-04
Sample Thickness (microns):	1.50e-01

Amplifier:	Internal

»»»»»»»»»»»»»»»»»»»»»»»»»»»»»»»»»»» Tester Info «««««««««««««««««««««««««««««««««««
Tester Name:	PMF21124-494 (100V)
Tester Serial Number:	PMF21124-494
Return Signal Amp. Level:	0.19 [Index: 3]

»»»»»»»»»»»»»»»»»»»»»»»»»»»»»»»» Hysteresis Info ««««««««««««««««««««««««««««««««««
Task Name:	Hyst-528
Volts:	10.00
Field:	666.67 (kV/cm)
DCBias:	0.00
DCField:	0.00 (kV/cm)
Hysteresis Period (ms):	2.00e+02
Preset:	Enabled
Preset Delay (ms):	1.00e+03
Profile:	Standard Bipolar

»»»»»»»»»»»»»»»»»»»»»»»»»»»»»»»»»»»»»» Data «««««««««««««««««««««««««««««««««««««««
Points:	2009

Valid Data

Point	Time (ms)	Drive Voltage	Measured Polarization (uC/cm2)	Capacitance (uF)	Normalized Capacitance (uF/cm2)	Dielectric Constant	Instantaneous Current (mA)
   1	0.0000e+00	0.0000	10.978991	0.000507	5.066905	0.858357	0.000101
   2	9.9500e-02	0.0195	11.079919	0.000507	5.066905	0.858357	0.000101
   3	1.9900e-01	0.0391	11.176810	0.000486	4.864229	0.824023	0.000097
   4	2.9850e-01	0.0590	11.314073	0.000689	6.890991	1.167365	0.000138
   5	3.9800e-01	0.0793	11.419038	0.000527	5.269581	0.892691	0.000105
   6	4.9750e-01	0.1003	11.479595	0.000304	3.040143	0.515014	0.000061
   7	5.9700e-01	0.1198	11.560338	0.000405	4.053524	0.686686	0.000081
   8	6.9650e-01	0.1381	11.693564	0.000669	6.688315	1.133031	0.000134
   9	7.9600e-01	0.1601	11.826789	0.000669	6.688315	1.133031	0.000134
  10	8.9550e-01	0.1780	11.903495	0.000385	3.850848	0.652351	0.000077
  11	9.9500e-01	0.1991	12.052869	0.000750	7.499019	1.270368	0.000150
  12	1.0945e+00	0.2184	12.105352	0.000263	2.634791	0.446346	0.000053
  13	1.1940e+00	0.2397	12.194168	0.000446	4.458876	0.755354	0.000089
  14	1.2935e+00	0.2578	12.351617	0.000790	7.904372	1.339037	0.000158
  15	1.3930e+00	0.2787	12.432360	0.000405	4.053524	0.686686	0.000081
  16	1.4925e+00	0.2985	12.557511	0.000628	6.282962	1.064363	0.000126
  17	1.5920e+00	0.3187	12.626142	0.000345	3.445495	0.583683	0.000069
  18	1.6915e+00	0.3388	12.751293	0.000628	6.282962	1.064363	0.000126
  19	1.7910e+00	0.3584	12.876444	0.000628	6.282962	1.064363	0.000126
  20	1.8905e+00	0.3788	12.949113	0.000365	3.648172	0.618017	0.000073
  21	1.9900e+00	0.4011	13.074264	0.000628	6.282962	1.064363	0.000126
  22	2.0895e+00	0.4185	13.146933	0.000365	3.648172	0.618017	0.000073
  23	2.1890e+00	0.4382	13.284195	0.000689	6.890991	1.167365	0.000138
  24	2.2885e+00	0.4587	13.405309	0.000608	6.080286	1.030028	0.000122
  25	2.3880e+00	0.4780	13.482015	0.000385	3.850848	0.652351	0.000077
  26	2.4875e+00	0.4972	13.586980	0.000527	5.269581	0.892691	0.000105
  27	2.5870e+00	0.5169	13.647537	0.000304	3.040143	0.515014	0.000061
  28	2.6865e+00	0.5371	13.792874	0.000730	7.296343	1.236034	0.000146
  29	2.7860e+00	0.5576	13.869580	0.000385	3.850848	0.652351	0.000077
  30	2.8855e+00	0.5772	14.014917	0.000730	7.296343	1.236034	0.000146
  31	2.9850e+00	0.5965	14.079511	0.000324	3.242819	0.549348	0.000065
  32	3.0845e+00	0.6172	14.200625	0.000608	6.080286	1.030028	0.000122
  33	3.1840e+00	0.6377	14.337888	0.000689	6.890991	1.167365	0.000138
  34	3.2835e+00	0.6570	14.406519	0.000345	3.445495	0.583683	0.000069
  35	3.3830e+00	0.6782	14.511484	0.000527	5.269581	0.892691	0.000105
  36	3.4825e+00	0.6969	14.612413	0.000507	5.066905	0.858357	0.000101
  37	3.5820e+00	0.7174	14.749675	0.000689	6.890991	1.167365	0.000138
  38	3.6815e+00	0.7364	14.830418	0.000405	4.053524	0.686686	0.000081
  39	3.7810e+00	0.7563	14.943458	0.000567	5.674934	0.961360	0.000114
  40	3.8805e+00	0.7766	15.048423	0.000527	5.269581	0.892691	0.000105
  41	3.9800e+00	0.7970	15.129166	0.000405	4.053524	0.686686	0.000081
  42	4.0795e+00	0.8171	15.270466	0.000709	7.093667	1.201700	0.000142
  43	4.1790e+00	0.8364	15.351209	0.000405	4.053524	0.686686	0.000081
  44	4.2785e+00	0.8562	15.476360	0.000628	6.282962	1.064363	0.000126
  45	4.3780e+00	0.8766	15.532880	0.000284	2.837467	0.480680	0.000057
  46	4.4775e+00	0.8964	15.718588	0.000932	9.323105	1.579377	0.000187
  47	4.5770e+00	0.9167	15.807405	0.000446	4.458876	0.755354	0.000089
  48	4.6765e+00	0.9362	15.920445	0.000567	5.674934	0.961360	0.000114
  49	4.7760e+00	0.9566	16.037522	0.000588	5.877610	0.995694	0.000118
  50	4.8755e+00	0.9772	16.130376	0.000466	4.661553	0.789688	0.000093
  51	4.9750e+00	0.9960	16.251490	0.000608	6.080286	1.030028	0.000122
  52	5.0745e+00	1.0155	16.348381	0.000486	4.864229	0.824023	0.000097
  53	5.1740e+00	1.0362	16.453347	0.000527	5.269581	0.892691	0.000105
  54	5.2735e+00	1.0555	16.570424	0.000588	5.877610	0.995694	0.000118
  55	5.3730e+00	1.0763	16.663278	0.000466	4.661553	0.789688	0.000093
  56	5.4725e+00	1.0960	16.800540	0.000689	6.890991	1.167365	0.000138
  57	5.5720e+00	1.1160	16.893394	0.000466	4.661553	0.789688	0.000093
  58	5.6715e+00	1.1354	17.018546	0.000628	6.282962	1.064363	0.000126
  59	5.7710e+00	1.1568	17.123511	0.000527	5.269581	0.892691	0.000105
  60	5.8705e+00	1.1752	17.248662	0.000628	6.282962	1.064363	0.000126
  61	5.9700e+00	1.1953	17.353628	0.000527	5.269581	0.892691	0.000105
  62	6.0695e+00	1.2157	17.474742	0.000608	6.080286	1.030028	0.000122
  63	6.1690e+00	1.2351	17.599893	0.000628	6.282962	1.064363	0.000126
  64	6.2685e+00	1.2560	17.676599	0.000385	3.850848	0.652351	0.000077
  65	6.3680e+00	1.2745	17.785601	0.000547	5.472257	0.927025	0.000110
  66	6.4675e+00	1.2946	17.930938	0.000730	7.296343	1.236034	0.000146
  67	6.5670e+00	1.3137	17.999570	0.000345	3.445495	0.583683	0.000069
  68	6.6665e+00	1.3337	18.116647	0.000588	5.877610	0.995694	0.000118
  69	6.7660e+00	1.3544	18.225649	0.000547	5.472257	0.927025	0.000110
  70	6.8655e+00	1.3739	18.342726	0.000588	5.877610	0.995694	0.000118
  71	6.9650e+00	1.3934	18.471915	0.000649	6.485638	1.098697	0.000130
  72	7.0645e+00	1.4130	18.556694	0.000426	4.256200	0.721020	0.000085
  73	7.1640e+00	1.4338	18.633400	0.000385	3.850848	0.652351	0.000077
  74	7.2635e+00	1.4535	18.802960	0.000851	8.512400	1.442040	0.000170
  75	7.3630e+00	1.4735	18.899851	0.000486	4.864229	0.824023	0.000097
  76	7.4625e+00	1.4941	18.976557	0.000385	3.850848	0.652351	0.000077
  77	7.5620e+00	1.5125	19.117856	0.000709	7.093667	1.201700	0.000142
  78	7.6615e+00	1.5333	19.210710	0.000466	4.661553	0.789688	0.000093
  79	7.7610e+00	1.5536	19.311639	0.000507	5.066905	0.858357	0.000101
  80	7.8605e+00	1.5736	19.465050	0.000770	7.701696	1.304703	0.000154
  81	7.9600e+00	1.5937	19.509458	0.000223	2.229438	0.377677	0.000045
  82	8.0595e+00	1.6129	19.654795	0.000730	7.296343	1.236034	0.000146
  83	8.1590e+00	1.6319	19.775909	0.000608	6.080286	1.030028	0.000122
  84	8.2585e+00	1.6525	19.892986	0.000588	5.877610	0.995694	0.000118
  85	8.3580e+00	1.6734	19.949506	0.000284	2.837467	0.480680	0.000057
  86	8.4575e+00	1.6933	20.102917	0.000770	7.701696	1.304703	0.000154
  87	8.5570e+00	1.7127	20.199809	0.000486	4.864229	0.824023	0.000097
  88	8.6565e+00	1.7323	20.357257	0.000790	7.904372	1.339037	0.000158
  89	8.7560e+00	1.7529	20.462222	0.000527	5.269581	0.892691	0.000105
  90	8.8555e+00	1.7720	20.591411	0.000649	6.485638	1.098697	0.000130
  91	8.9550e+00	1.7918	20.664079	0.000365	3.648172	0.618017	0.000073
  92	9.0545e+00	1.8127	20.805379	0.000709	7.093667	1.201700	0.000142
  93	9.1540e+00	1.8327	20.894196	0.000446	4.458876	0.755354	0.000089
  94	9.2535e+00	1.8522	21.031459	0.000689	6.890991	1.167365	0.000138
  95	9.3530e+00	1.8726	21.087979	0.000284	2.837467	0.480680	0.000057
  96	9.4525e+00	1.8918	21.273687	0.000932	9.323105	1.579377	0.000187
  97	9.5520e+00	1.9126	21.362504	0.000446	4.458876	0.755354	0.000089
  98	9.6515e+00	1.9320	21.459395	0.000486	4.864229	0.824023	0.000097
  99	9.7510e+00	1.9518	21.592620	0.000669	6.688315	1.133031	0.000134
 100	9.8505e+00	1.9720	21.709697	0.000588	5.877610	0.995694	0.000118
 101	9.9500e+00	1.9915	21.818700	0.000547	5.472257	0.927025	0.000110
 102	1.0050e+01	2.0112	21.915591	0.000486	4.864229	0.824023	0.000097
 103	1.0149e+01	2.0326	22.036705	0.000608	6.080286	1.030028	0.000122
 104	1.0248e+01	2.0514	22.165894	0.000649	6.485638	1.098697	0.000130
 105	1.0348e+01	2.0718	22.270859	0.000527	5.269581	0.892691	0.000105
 106	1.0447e+01	2.0904	22.408122	0.000689	6.890991	1.167365	0.000138
 107	1.0547e+01	2.1114	22.488865	0.000405	4.053524	0.686686	0.000081
 108	1.0646e+01	2.1320	22.658424	0.000851	8.512400	1.442040	0.000170
 109	1.0746e+01	2.1514	22.767427	0.000547	5.472257	0.927025	0.000110
 110	1.0845e+01	2.1712	22.836058	0.000345	3.445495	0.583683	0.000069
 111	1.0945e+01	2.1912	22.953135	0.000588	5.877610	0.995694	0.000118
 112	1.1044e+01	2.2114	23.126732	0.000872	8.715077	1.476374	0.000174
 113	1.1144e+01	2.2308	23.211512	0.000426	4.256200	0.721020	0.000085
 114	1.1243e+01	2.2512	23.308403	0.000486	4.864229	0.824023	0.000097
 115	1.1343e+01	2.2705	23.461814	0.000770	7.701696	1.304703	0.000154
 116	1.1443e+01	2.2904	23.578891	0.000588	5.877610	0.995694	0.000118
 117	1.1542e+01	2.3106	23.667708	0.000446	4.458876	0.755354	0.000089
 118	1.1642e+01	2.3315	23.792859	0.000628	6.282962	1.064363	0.000126
 119	1.1741e+01	2.3508	23.913974	0.000608	6.080286	1.030028	0.000122
 120	1.1841e+01	2.3704	24.014902	0.000507	5.066905	0.858357	0.000101
 121	1.1940e+01	2.3901	24.140053	0.000628	6.282962	1.064363	0.000126
 122	1.2040e+01	2.4108	24.245019	0.000527	5.269581	0.892691	0.000105
 123	1.2139e+01	2.4307	24.349984	0.000527	5.269581	0.892691	0.000105
 124	1.2239e+01	2.4494	24.463024	0.000567	5.674934	0.961360	0.000114
 125	1.2338e+01	2.4707	24.600287	0.000689	6.890991	1.167365	0.000138
 126	1.2438e+01	2.4907	24.717364	0.000588	5.877610	0.995694	0.000118
 127	1.2537e+01	2.5105	24.814255	0.000486	4.864229	0.824023	0.000097
 128	1.2636e+01	2.5294	24.939406	0.000628	6.282962	1.064363	0.000126
 129	1.2736e+01	2.5504	25.048409	0.000547	5.472257	0.927025	0.000110
 130	1.2835e+01	2.5706	25.161448	0.000567	5.674934	0.961360	0.000114
 131	1.2935e+01	2.5902	25.278525	0.000588	5.877610	0.995694	0.000118
 132	1.3034e+01	2.6089	25.387528	0.000547	5.472257	0.927025	0.000110
 133	1.3134e+01	2.6293	25.512679	0.000628	6.282962	1.064363	0.000126
 134	1.3233e+01	2.6495	25.601496	0.000446	4.458876	0.755354	0.000089
 135	1.3333e+01	2.6698	25.738759	0.000689	6.890991	1.167365	0.000138
 136	1.3432e+01	2.6893	25.839687	0.000507	5.066905	0.858357	0.000101
 137	1.3532e+01	2.7090	25.976950	0.000689	6.890991	1.167365	0.000138
 138	1.3632e+01	2.7291	26.077878	0.000507	5.066905	0.858357	0.000101
 139	1.3731e+01	2.7493	26.166695	0.000446	4.458876	0.755354	0.000089
 140	1.3831e+01	2.7693	26.312032	0.000730	7.296343	1.236034	0.000146
 141	1.3930e+01	2.7889	26.396812	0.000426	4.256200	0.721020	0.000085
 142	1.4030e+01	2.8097	26.505815	0.000547	5.472257	0.927025	0.000110
 143	1.4129e+01	2.8285	26.663263	0.000790	7.904372	1.339037	0.000158
 144	1.4229e+01	2.8478	26.780340	0.000588	5.877610	0.995694	0.000118
 145	1.4328e+01	2.8683	26.853008	0.000365	3.648172	0.618017	0.000073
 146	1.4428e+01	2.8880	26.945862	0.000466	4.661553	0.789688	0.000093
 147	1.4527e+01	2.9085	27.095237	0.000750	7.499019	1.270368	0.000150
 148	1.4627e+01	2.9290	27.196165	0.000507	5.066905	0.858357	0.000101
 149	1.4726e+01	2.9472	27.280945	0.000426	4.256200	0.721020	0.000085
 150	1.4825e+01	2.9682	27.410133	0.000649	6.485638	1.098697	0.000130
 151	1.4925e+01	2.9884	27.547396	0.000689	6.890991	1.167365	0.000138
 152	1.5024e+01	3.0075	27.676584	0.000649	6.485638	1.098697	0.000130
 153	1.5124e+01	3.0278	27.769438	0.000466	4.661553	0.789688	0.000093
 154	1.5223e+01	3.0476	27.866329	0.000486	4.864229	0.824023	0.000097
 155	1.5323e+01	3.0677	27.987444	0.000608	6.080286	1.030028	0.000122
 156	1.5422e+01	3.0868	28.104520	0.000588	5.877610	0.995694	0.000118
 157	1.5522e+01	3.1081	28.197375	0.000466	4.661553	0.789688	0.000093
 158	1.5621e+01	3.1275	28.322526	0.000628	6.282962	1.064363	0.000126
 159	1.5721e+01	3.1476	28.443640	0.000608	6.080286	1.030028	0.000122
 160	1.5820e+01	3.1663	28.560717	0.000588	5.877610	0.995694	0.000118
 161	1.5920e+01	3.1879	28.669719	0.000547	5.472257	0.927025	0.000110
 162	1.6020e+01	3.2072	28.782759	0.000567	5.674934	0.961360	0.000114
 163	1.6119e+01	3.2272	28.871576	0.000446	4.458876	0.755354	0.000089
 164	1.6218e+01	3.2471	28.992690	0.000608	6.080286	1.030028	0.000122
 165	1.6318e+01	3.2666	29.089582	0.000486	4.864229	0.824023	0.000097
 166	1.6418e+01	3.2873	29.182436	0.000466	4.661553	0.789688	0.000093
 167	1.6517e+01	3.3067	29.331810	0.000750	7.499019	1.270368	0.000150
 168	1.6616e+01	3.3260	29.456961	0.000628	6.282962	1.064363	0.000126
 169	1.6716e+01	3.3464	29.574038	0.000588	5.877610	0.995694	0.000118
 170	1.6816e+01	3.3664	29.650743	0.000385	3.850848	0.652351	0.000077
 171	1.6915e+01	3.3865	29.788006	0.000689	6.890991	1.167365	0.000138
 172	1.7015e+01	3.4058	29.909120	0.000608	6.080286	1.030028	0.000122
 173	1.7114e+01	3.4256	29.977751	0.000345	3.445495	0.583683	0.000069
 174	1.7213e+01	3.4461	30.082717	0.000527	5.269581	0.892691	0.000105
 175	1.7313e+01	3.4668	30.187682	0.000527	5.269581	0.892691	0.000105
 176	1.7413e+01	3.4864	30.316871	0.000649	6.485638	1.098697	0.000130
 177	1.7512e+01	3.5056	30.442022	0.000628	6.282962	1.064363	0.000126
 178	1.7611e+01	3.5259	30.514690	0.000365	3.648172	0.618017	0.000073
 179	1.7711e+01	3.5467	30.643879	0.000649	6.485638	1.098697	0.000130
 180	1.7811e+01	3.5659	30.769030	0.000628	6.282962	1.064363	0.000126
 181	1.7910e+01	3.5854	30.890144	0.000608	6.080286	1.030028	0.000122
 182	1.8009e+01	3.6059	31.011258	0.000608	6.080286	1.030028	0.000122
 183	1.8109e+01	3.6253	31.075852	0.000324	3.242819	0.549348	0.000065
 184	1.8209e+01	3.6456	31.180818	0.000527	5.269581	0.892691	0.000105
 185	1.8308e+01	3.6657	31.322118	0.000709	7.093667	1.201700	0.000142
 186	1.8407e+01	3.6852	31.398823	0.000385	3.850848	0.652351	0.000077
 187	1.8507e+01	3.7048	31.495714	0.000486	4.864229	0.824023	0.000097
 188	1.8607e+01	3.7251	31.616829	0.000608	6.080286	1.030028	0.000122
 189	1.8706e+01	3.7453	31.729868	0.000567	5.674934	0.961360	0.000114
 190	1.8805e+01	3.7640	31.834834	0.000527	5.269581	0.892691	0.000105
 191	1.8905e+01	3.7850	31.943837	0.000547	5.472257	0.927025	0.000110
 192	1.9005e+01	3.8044	32.012468	0.000345	3.445495	0.583683	0.000069
 193	1.9104e+01	3.8256	32.161842	0.000750	7.499019	1.270368	0.000150
 194	1.9203e+01	3.8445	32.242585	0.000405	4.053524	0.686686	0.000081
 195	1.9303e+01	3.8647	32.347550	0.000527	5.269581	0.892691	0.000105
 196	1.9402e+01	3.8842	32.440404	0.000466	4.661553	0.789688	0.000093
 197	1.9502e+01	3.9036	32.585741	0.000730	7.296343	1.236034	0.000146
 198	1.9602e+01	3.9248	32.666484	0.000405	4.053524	0.686686	0.000081
 199	1.9701e+01	3.9436	32.783561	0.000588	5.877610	0.995694	0.000118
 200	1.9800e+01	3.9645	32.888526	0.000527	5.269581	0.892691	0.000105
 201	1.9900e+01	3.9839	32.985418	0.000486	4.864229	0.824023	0.000097
 202	2.0000e+01	4.0041	33.062123	0.000385	3.850848	0.652351	0.000077
 203	2.0099e+01	4.0238	33.191311	0.000649	6.485638	1.098697	0.000130
 204	2.0198e+01	4.0447	33.284166	0.000466	4.661553	0.789688	0.000093
 205	2.0298e+01	4.0636	33.377020	0.000466	4.661553	0.789688	0.000093
 206	2.0398e+01	4.0841	33.490060	0.000567	5.674934	0.961360	0.000114
 207	2.0497e+01	4.1039	33.562728	0.000365	3.648172	0.618017	0.000073
 208	2.0596e+01	4.1236	33.695953	0.000669	6.688315	1.133031	0.000134
 209	2.0696e+01	4.1433	33.800919	0.000527	5.269581	0.892691	0.000105
 210	2.0796e+01	4.1625	33.873587	0.000365	3.648172	0.618017	0.000073
 211	2.0895e+01	4.1830	34.010850	0.000689	6.890991	1.167365	0.000138
 212	2.0994e+01	4.2025	34.119853	0.000547	5.472257	0.927025	0.000110
 213	2.1094e+01	4.2229	34.220781	0.000507	5.066905	0.858357	0.000101
 214	2.1194e+01	4.2426	34.309598	0.000446	4.458876	0.755354	0.000089
 215	2.1293e+01	4.2625	34.402452	0.000466	4.661553	0.789688	0.000093
 216	2.1392e+01	4.2826	34.539715	0.000689	6.890991	1.167365	0.000138
 217	2.1492e+01	4.3037	34.632569	0.000466	4.661553	0.789688	0.000093
 218	2.1591e+01	4.3233	34.725423	0.000466	4.661553	0.789688	0.000093
 219	2.1691e+01	4.3441	34.858649	0.000669	6.688315	1.133031	0.000134
 220	2.1791e+01	4.3629	34.983800	0.000628	6.282962	1.064363	0.000126
 221	2.1890e+01	4.3845	35.032245	0.000243	2.432114	0.412011	0.000049
 222	2.1989e+01	4.4021	35.153359	0.000608	6.080286	1.030028	0.000122
 223	2.2089e+01	4.4225	35.230065	0.000385	3.850848	0.652351	0.000077
 224	2.2189e+01	4.4428	35.355216	0.000628	6.282962	1.064363	0.000126
 225	2.2288e+01	4.4616	35.456145	0.000507	5.066905	0.858357	0.000101
 226	2.2387e+01	4.4822	35.605519	0.000750	7.499019	1.270368	0.000150
 227	2.2487e+01	4.5024	35.617630	0.000061	0.608029	0.103003	0.000012
 228	2.2587e+01	4.5220	35.762967	0.000730	7.296343	1.236034	0.000146
 229	2.2686e+01	4.5409	35.880044	0.000588	5.877610	0.995694	0.000118
 230	2.2785e+01	4.5619	36.001158	0.000608	6.080286	1.030028	0.000122
 231	2.2885e+01	4.5813	36.085938	0.000426	4.256200	0.721020	0.000085
 232	2.2985e+01	4.6015	36.194940	0.000547	5.472257	0.927025	0.000110
 233	2.3084e+01	4.6218	36.275683	0.000405	4.053524	0.686686	0.000081
 234	2.3183e+01	4.6418	36.384686	0.000547	5.472257	0.927025	0.000110
 235	2.3283e+01	4.6615	36.493689	0.000547	5.472257	0.927025	0.000110
 236	2.3383e+01	4.6816	36.606728	0.000567	5.674934	0.961360	0.000114
 237	2.3482e+01	4.7015	36.683434	0.000385	3.850848	0.652351	0.000077
 238	2.3581e+01	4.7208	36.804548	0.000608	6.080286	1.030028	0.000122
 239	2.3681e+01	4.7401	36.905476	0.000507	5.066905	0.858357	0.000101
 240	2.3780e+01	4.7607	36.998330	0.000466	4.661553	0.789688	0.000093
 241	2.3880e+01	4.7813	37.070999	0.000365	3.648172	0.618017	0.000073
 242	2.3980e+01	4.8008	37.196150	0.000628	6.282962	1.064363	0.000126
 243	2.4079e+01	4.8203	37.313227	0.000588	5.877610	0.995694	0.000118
 244	2.4178e+01	4.8413	37.381858	0.000345	3.445495	0.583683	0.000069
 245	2.4278e+01	4.8607	37.470675	0.000446	4.458876	0.755354	0.000089
 246	2.4378e+01	4.8806	37.611975	0.000709	7.093667	1.201700	0.000142
 247	2.4477e+01	4.9017	37.668495	0.000284	2.837467	0.480680	0.000057
 248	2.4576e+01	4.9210	37.805758	0.000689	6.890991	1.167365	0.000138
 249	2.4676e+01	4.9410	37.854203	0.000243	2.432114	0.412011	0.000049
 250	2.4776e+01	4.9606	38.015689	0.000811	8.107048	1.373371	0.000162
 251	2.4875e+01	4.9809	38.084320	0.000345	3.445495	0.583683	0.000069
 252	2.4974e+01	4.9998	38.181211	0.000486	4.864229	0.824023	0.000097
 253	2.5074e+01	5.0202	38.290214	0.000547	5.472257	0.927025	0.000110
 254	2.5174e+01	5.0402	38.383068	0.000466	4.661553	0.789688	0.000093
 255	2.5273e+01	5.0601	38.504182	0.000608	6.080286	1.030028	0.000122
 256	2.5372e+01	5.0790	38.588962	0.000426	4.256200	0.721020	0.000085
 257	2.5472e+01	5.0993	38.693927	0.000527	5.269581	0.892691	0.000105
 258	2.5572e+01	5.1187	38.790819	0.000486	4.864229	0.824023	0.000097
 259	2.5671e+01	5.1391	38.887710	0.000486	4.864229	0.824023	0.000097
 260	2.5770e+01	5.1588	39.004787	0.000588	5.877610	0.995694	0.000118
 261	2.5870e+01	5.1795	39.073418	0.000345	3.445495	0.583683	0.000069
 262	2.5970e+01	5.1993	39.206644	0.000669	6.688315	1.133031	0.000134
 263	2.6069e+01	5.2185	39.303535	0.000486	4.864229	0.824023	0.000097
 264	2.6169e+01	5.2396	39.400426	0.000486	4.864229	0.824023	0.000097
 265	2.6268e+01	5.2589	39.493280	0.000466	4.661553	0.789688	0.000093
 266	2.6367e+01	5.2782	39.586134	0.000466	4.661553	0.789688	0.000093
 267	2.6467e+01	5.2984	39.715323	0.000649	6.485638	1.098697	0.000130
 268	2.6567e+01	5.3187	39.800103	0.000426	4.256200	0.721020	0.000085
 269	2.6666e+01	5.3381	39.892957	0.000466	4.661553	0.789688	0.000093
 270	2.6765e+01	5.3590	39.981774	0.000446	4.458876	0.755354	0.000089
 271	2.6865e+01	5.3786	40.090776	0.000547	5.472257	0.927025	0.000110
 272	2.6965e+01	5.3991	40.244188	0.000770	7.701696	1.304703	0.000154
 273	2.7064e+01	5.4191	40.268410	0.000122	1.216057	0.206006	0.000024
 274	2.7163e+01	5.4381	40.397599	0.000649	6.485638	1.098697	0.000130
 275	2.7263e+01	5.4578	40.490453	0.000466	4.661553	0.789688	0.000093
 276	2.7363e+01	5.4774	40.583307	0.000466	4.661553	0.789688	0.000093
 277	2.7462e+01	5.4972	40.680198	0.000486	4.864229	0.824023	0.000097
 278	2.7561e+01	5.5173	40.809387	0.000649	6.485638	1.098697	0.000130
 279	2.7661e+01	5.5383	40.926464	0.000588	5.877610	0.995694	0.000118
 280	2.7761e+01	5.5578	40.999132	0.000365	3.648172	0.618017	0.000073
 281	2.7860e+01	5.5784	41.091986	0.000466	4.661553	0.789688	0.000093
 282	2.7959e+01	5.5970	41.200989	0.000547	5.472257	0.927025	0.000110
 283	2.8059e+01	5.6185	41.330177	0.000649	6.485638	1.098697	0.000130
 284	2.8159e+01	5.6379	41.431106	0.000507	5.066905	0.858357	0.000101
 285	2.8258e+01	5.6573	41.527997	0.000486	4.864229	0.824023	0.000097
 286	2.8358e+01	5.6773	41.616814	0.000446	4.458876	0.755354	0.000089
 287	2.8457e+01	5.6960	41.689482	0.000365	3.648172	0.618017	0.000073
 288	2.8556e+01	5.7165	41.798485	0.000547	5.472257	0.927025	0.000110
 289	2.8656e+01	5.7378	41.923636	0.000628	6.282962	1.064363	0.000126
 290	2.8756e+01	5.7557	42.028602	0.000527	5.269581	0.892691	0.000105
 291	2.8855e+01	5.7775	42.093196	0.000324	3.242819	0.549348	0.000065
 292	2.8954e+01	5.7967	42.222384	0.000649	6.485638	1.098697	0.000130
 293	2.9054e+01	5.8165	42.299090	0.000385	3.850848	0.652351	0.000077
 294	2.9154e+01	5.8363	42.416167	0.000588	5.877610	0.995694	0.000118
 295	2.9253e+01	5.8572	42.509021	0.000466	4.661553	0.789688	0.000093
 296	2.9352e+01	5.8771	42.561504	0.000263	2.634791	0.446346	0.000053
 297	2.9452e+01	5.8939	42.698766	0.000689	6.890991	1.167365	0.000138
 298	2.9552e+01	5.9167	42.787583	0.000446	4.458876	0.755354	0.000089
 299	2.9651e+01	5.9357	42.908697	0.000608	6.080286	1.030028	0.000122
 300	2.9750e+01	5.9566	43.017700	0.000547	5.472257	0.927025	0.000110
 301	2.9850e+01	5.9759	43.094405	0.000385	3.850848	0.652351	0.000077
 302	2.9950e+01	5.9960	43.154962	0.000304	3.040143	0.515014	0.000061
 303	3.0049e+01	6.0162	43.296262	0.000709	7.093667	1.201700	0.000142
 304	3.0148e+01	6.0363	43.389116	0.000466	4.661553	0.789688	0.000093
 305	3.0248e+01	6.0558	43.477933	0.000446	4.458876	0.755354	0.000089
 306	3.0348e+01	6.0757	43.586936	0.000547	5.472257	0.927025	0.000110
 307	3.0447e+01	6.0963	43.655567	0.000345	3.445495	0.583683	0.000069
 308	3.0547e+01	6.1163	43.764570	0.000547	5.472257	0.927025	0.000110
 309	3.0646e+01	6.1364	43.825127	0.000304	3.040143	0.515014	0.000061
 310	3.0745e+01	6.1563	43.974501	0.000750	7.499019	1.270368	0.000150
 311	3.0845e+01	6.1747	44.043132	0.000345	3.445495	0.583683	0.000069
 312	3.0945e+01	6.1947	44.103689	0.000304	3.040143	0.515014	0.000061
 313	3.1044e+01	6.2144	44.240952	0.000689	6.890991	1.167365	0.000138
 314	3.1143e+01	6.2350	44.358029	0.000588	5.877610	0.995694	0.000118
 315	3.1243e+01	6.2554	44.414549	0.000284	2.837467	0.480680	0.000057
 316	3.1343e+01	6.2749	44.503366	0.000446	4.458876	0.755354	0.000089
 317	3.1442e+01	6.2951	44.632554	0.000649	6.485638	1.098697	0.000130
 318	3.1541e+01	6.3145	44.713297	0.000405	4.053524	0.686686	0.000081
 319	3.1641e+01	6.3316	44.818262	0.000527	5.269581	0.892691	0.000105
 320	3.1741e+01	6.3537	44.874782	0.000284	2.837467	0.480680	0.000057
 321	3.1840e+01	6.3743	44.967636	0.000466	4.661553	0.789688	0.000093
 322	3.1939e+01	6.3943	45.112973	0.000730	7.296343	1.236034	0.000146
 323	3.2039e+01	6.4130	45.185642	0.000365	3.648172	0.618017	0.000073
 324	3.2139e+01	6.4348	45.314830	0.000649	6.485638	1.098697	0.000130
 325	3.2238e+01	6.4541	45.343090	0.000142	1.418733	0.240340	0.000028
 326	3.2337e+01	6.4735	45.484390	0.000709	7.093667	1.201700	0.000142
 327	3.2437e+01	6.4935	45.581281	0.000486	4.864229	0.824023	0.000097
 328	3.2536e+01	6.5139	45.649912	0.000345	3.445495	0.583683	0.000069
 329	3.2636e+01	6.5333	45.734692	0.000426	4.256200	0.721020	0.000085
 330	3.2736e+01	6.5539	45.851769	0.000588	5.877610	0.995694	0.000118
 331	3.2835e+01	6.5730	45.948660	0.000486	4.864229	0.824023	0.000097
 332	3.2934e+01	6.5929	46.049589	0.000507	5.066905	0.858357	0.000101
 333	3.3034e+01	6.6127	46.089960	0.000203	2.026762	0.343343	0.000041
 334	3.3133e+01	6.6328	46.235297	0.000730	7.296343	1.236034	0.000146
 335	3.3233e+01	6.6529	46.324114	0.000446	4.458876	0.755354	0.000089
 336	3.3333e+01	6.6726	46.445228	0.000608	6.080286	1.030028	0.000122
 337	3.3432e+01	6.6927	46.485599	0.000203	2.026762	0.343343	0.000041
 338	3.3532e+01	6.7127	46.566342	0.000405	4.053524	0.686686	0.000081
 339	3.3631e+01	6.7332	46.667271	0.000507	5.066905	0.858357	0.000101
 340	3.3730e+01	6.7531	46.764162	0.000486	4.864229	0.824023	0.000097
 341	3.3830e+01	6.7728	46.836830	0.000365	3.648172	0.618017	0.000073
 342	3.3929e+01	6.7928	46.957944	0.000608	6.080286	1.030028	0.000122
 343	3.4029e+01	6.8137	47.058873	0.000507	5.066905	0.858357	0.000101
 344	3.4129e+01	6.8328	47.135578	0.000385	3.850848	0.652351	0.000077
 345	3.4228e+01	6.8520	47.228432	0.000466	4.661553	0.789688	0.000093
 346	3.4328e+01	6.8722	47.309175	0.000405	4.053524	0.686686	0.000081
 347	3.4427e+01	6.8920	47.393955	0.000426	4.256200	0.721020	0.000085
 348	3.4526e+01	6.9117	47.482772	0.000446	4.458876	0.755354	0.000089
 349	3.4626e+01	6.9314	47.575626	0.000466	4.661553	0.789688	0.000093
 350	3.4725e+01	6.9518	47.672517	0.000486	4.864229	0.824023	0.000097
 351	3.4825e+01	6.9714	47.757297	0.000426	4.256200	0.721020	0.000085
 352	3.4925e+01	6.9909	47.854188	0.000486	4.864229	0.824023	0.000097
 353	3.5024e+01	7.0118	47.910708	0.000284	2.837467	0.480680	0.000057
 354	3.5123e+01	7.0315	48.023748	0.000567	5.674934	0.961360	0.000114
 355	3.5223e+01	7.0515	48.128714	0.000527	5.269581	0.892691	0.000105
 356	3.5322e+01	7.0708	48.249828	0.000608	6.080286	1.030028	0.000122
 357	3.5422e+01	7.0924	48.314422	0.000324	3.242819	0.549348	0.000065
 358	3.5522e+01	7.1117	48.407276	0.000466	4.661553	0.789688	0.000093
 359	3.5621e+01	7.1316	48.467833	0.000304	3.040143	0.515014	0.000061
 360	3.5721e+01	7.1514	48.548576	0.000405	4.053524	0.686686	0.000081
 361	3.5820e+01	7.1716	48.617207	0.000345	3.445495	0.583683	0.000069
 362	3.5919e+01	7.1908	48.710061	0.000466	4.661553	0.789688	0.000093
 363	3.6019e+01	7.2108	48.815027	0.000527	5.269581	0.892691	0.000105
 364	3.6118e+01	7.2298	48.895769	0.000405	4.053524	0.686686	0.000081
 365	3.6218e+01	7.2511	48.984586	0.000446	4.458876	0.755354	0.000089
 366	3.6318e+01	7.2715	49.073403	0.000446	4.458876	0.755354	0.000089
 367	3.6417e+01	7.2910	49.150109	0.000385	3.850848	0.652351	0.000077
 368	3.6517e+01	7.3106	49.242963	0.000466	4.661553	0.789688	0.000093
 369	3.6616e+01	7.3309	49.291409	0.000243	2.432114	0.412011	0.000049
 370	3.6715e+01	7.3510	49.412523	0.000608	6.080286	1.030028	0.000122
 371	3.6815e+01	7.3699	49.533637	0.000608	6.080286	1.030028	0.000122
 372	3.6914e+01	7.3912	49.586120	0.000263	2.634791	0.446346	0.000053
 373	3.7014e+01	7.4108	49.646677	0.000304	3.040143	0.515014	0.000061
 374	3.7114e+01	7.4303	49.755679	0.000547	5.472257	0.927025	0.000110
 375	3.7213e+01	7.4493	49.824311	0.000345	3.445495	0.583683	0.000069
 376	3.7313e+01	7.4696	49.909091	0.000426	4.256200	0.721020	0.000085
 377	3.7412e+01	7.4905	49.957536	0.000243	2.432114	0.412011	0.000049
 378	3.7511e+01	7.5098	50.106910	0.000750	7.499019	1.270368	0.000150
 379	3.7611e+01	7.5309	50.179579	0.000365	3.648172	0.618017	0.000073
 380	3.7711e+01	7.5500	50.280507	0.000507	5.066905	0.858357	0.000101
 381	3.7810e+01	7.5705	50.341064	0.000304	3.040143	0.515014	0.000061
 382	3.7910e+01	7.5893	50.446030	0.000527	5.269581	0.892691	0.000105
 383	3.8009e+01	7.6092	50.498512	0.000263	2.634791	0.446346	0.000053
 384	3.8108e+01	7.6299	50.615589	0.000588	5.877610	0.995694	0.000118
 385	3.8208e+01	7.6495	50.708443	0.000466	4.661553	0.789688	0.000093
 386	3.8307e+01	7.6682	50.769000	0.000304	3.040143	0.515014	0.000061
 387	3.8407e+01	7.6884	50.845706	0.000385	3.850848	0.652351	0.000077
 388	3.8507e+01	7.7085	50.954709	0.000547	5.472257	0.927025	0.000110
 389	3.8606e+01	7.7286	51.007191	0.000263	2.634791	0.446346	0.000053
 390	3.8706e+01	7.7494	51.112157	0.000527	5.269581	0.892691	0.000105
 391	3.8805e+01	7.7689	51.213085	0.000507	5.066905	0.858357	0.000101
 392	3.8904e+01	7.7874	51.277680	0.000324	3.242819	0.549348	0.000065
 393	3.9004e+01	7.8082	51.370534	0.000466	4.661553	0.789688	0.000093
 394	3.9103e+01	7.8281	51.439165	0.000345	3.445495	0.583683	0.000069
 395	3.9203e+01	7.8481	51.572390	0.000669	6.688315	1.133031	0.000134
 396	3.9303e+01	7.8687	51.592576	0.000101	1.013381	0.171671	0.000020
 397	3.9402e+01	7.8880	51.697542	0.000527	5.269581	0.892691	0.000105
 398	3.9502e+01	7.9078	51.802507	0.000527	5.269581	0.892691	0.000105
 399	3.9601e+01	7.9276	51.875176	0.000365	3.648172	0.618017	0.000073
 400	3.9700e+01	7.9485	51.972067	0.000486	4.864229	0.824023	0.000097
 401	3.9800e+01	7.9678	52.032624	0.000304	3.040143	0.515014	0.000061
 402	3.9900e+01	7.9870	52.141627	0.000547	5.472257	0.927025	0.000110
 403	3.9999e+01	8.0074	52.206221	0.000324	3.242819	0.549348	0.000065
 404	4.0099e+01	8.0268	52.307149	0.000507	5.066905	0.858357	0.000101
 405	4.0198e+01	8.0474	52.383855	0.000385	3.850848	0.652351	0.000077
 406	4.0297e+01	8.0673	52.468635	0.000426	4.256200	0.721020	0.000085
 407	4.0397e+01	8.0865	52.537266	0.000345	3.445495	0.583683	0.000069
 408	4.0496e+01	8.1081	52.662417	0.000628	6.282962	1.064363	0.000126
 409	4.0596e+01	8.1268	52.735086	0.000365	3.648172	0.618017	0.000073
 410	4.0696e+01	8.1466	52.791605	0.000284	2.837467	0.480680	0.000057
 411	4.0795e+01	8.1680	52.896571	0.000527	5.269581	0.892691	0.000105
 412	4.0895e+01	8.1873	52.985388	0.000446	4.458876	0.755354	0.000089
 413	4.0994e+01	8.2070	53.045945	0.000304	3.040143	0.515014	0.000061
 414	4.1093e+01	8.2266	53.146873	0.000507	5.066905	0.858357	0.000101
 415	4.1193e+01	8.2471	53.259913	0.000567	5.674934	0.961360	0.000114
 416	4.1292e+01	8.2666	53.320470	0.000304	3.040143	0.515014	0.000061
 417	4.1392e+01	8.2876	53.397176	0.000385	3.850848	0.652351	0.000077
 418	4.1492e+01	8.3061	53.465807	0.000345	3.445495	0.583683	0.000069
 419	4.1591e+01	8.3266	53.554624	0.000446	4.458876	0.755354	0.000089
 420	4.1691e+01	8.3437	53.651515	0.000486	4.864229	0.824023	0.000097
 421	4.1790e+01	8.3658	53.736295	0.000426	4.256200	0.721020	0.000085
 422	4.1889e+01	8.3862	53.833186	0.000486	4.864229	0.824023	0.000097
 423	4.1989e+01	8.4059	53.885669	0.000263	2.634791	0.446346	0.000053
 424	4.2089e+01	8.4254	54.002746	0.000588	5.877610	0.995694	0.000118
 425	4.2188e+01	8.4457	54.099637	0.000486	4.864229	0.824023	0.000097
 426	4.2288e+01	8.4658	54.152120	0.000263	2.634791	0.446346	0.000053
 427	4.2387e+01	8.4857	54.277271	0.000628	6.282962	1.064363	0.000126
 428	4.2486e+01	8.5059	54.353977	0.000385	3.850848	0.652351	0.000077
 429	4.2586e+01	8.5251	54.430683	0.000385	3.850848	0.652351	0.000077
 430	4.2685e+01	8.5452	54.499314	0.000345	3.445495	0.583683	0.000069
 431	4.2785e+01	8.5664	54.571982	0.000365	3.648172	0.618017	0.000073
 432	4.2885e+01	8.5850	54.701171	0.000649	6.485638	1.098697	0.000130
 433	4.2984e+01	8.6063	54.757691	0.000284	2.837467	0.480680	0.000057
 434	4.3084e+01	8.6257	54.866693	0.000547	5.472257	0.927025	0.000110
 435	4.3183e+01	8.6448	54.951473	0.000426	4.256200	0.721020	0.000085
 436	4.3282e+01	8.6646	55.016067	0.000324	3.242819	0.549348	0.000065
 437	4.3382e+01	8.6837	55.133144	0.000588	5.877610	0.995694	0.000118
 438	4.3481e+01	8.7052	55.205813	0.000365	3.648172	0.618017	0.000073
 439	4.3581e+01	8.7248	55.306741	0.000507	5.066905	0.858357	0.000101
 440	4.3681e+01	8.7445	55.415744	0.000547	5.472257	0.927025	0.000110
 441	4.3780e+01	8.7650	55.464189	0.000243	2.432114	0.412011	0.000049
 442	4.3880e+01	8.7846	55.561081	0.000486	4.864229	0.824023	0.000097
 443	4.3979e+01	8.8017	55.657972	0.000486	4.864229	0.824023	0.000097
 444	4.4078e+01	8.8243	55.730640	0.000365	3.648172	0.618017	0.000073
 445	4.4178e+01	8.8439	55.843680	0.000567	5.674934	0.961360	0.000114
 446	4.4278e+01	8.8636	55.888089	0.000223	2.229438	0.377677	0.000045
 447	4.4377e+01	8.8832	56.013240	0.000628	6.282962	1.064363	0.000126
 448	4.4477e+01	8.9030	56.130317	0.000588	5.877610	0.995694	0.000118
 449	4.4576e+01	8.9230	56.190874	0.000304	3.040143	0.515014	0.000061
 450	4.4675e+01	8.9430	56.259505	0.000345	3.445495	0.583683	0.000069
 451	4.4775e+01	8.9625	56.348322	0.000446	4.458876	0.755354	0.000089
 452	4.4874e+01	8.9825	56.493659	0.000730	7.296343	1.236034	0.000146
 453	4.4974e+01	9.0040	56.525956	0.000162	1.621410	0.274674	0.000032
 454	4.5074e+01	9.0231	56.671293	0.000730	7.296343	1.236034	0.000146
 455	4.5173e+01	9.0430	56.723776	0.000263	2.634791	0.446346	0.000053
 456	4.5273e+01	9.0632	56.836815	0.000567	5.674934	0.961360	0.000114
 457	4.5372e+01	9.0820	56.941781	0.000527	5.269581	0.892691	0.000105
 458	4.5471e+01	9.1022	56.986190	0.000223	2.229438	0.377677	0.000045
 459	4.5571e+01	9.1233	57.095192	0.000547	5.472257	0.927025	0.000110
 460	4.5670e+01	9.1424	57.220343	0.000628	6.282962	1.064363	0.000126
 461	4.5770e+01	9.1616	57.236492	0.000081	0.810705	0.137337	0.000016
 462	4.5870e+01	9.1830	57.337420	0.000507	5.066905	0.858357	0.000101
 463	4.5969e+01	9.2029	57.462572	0.000628	6.282962	1.064363	0.000126
 464	4.6069e+01	9.2214	57.547351	0.000426	4.256200	0.721020	0.000085
 465	4.6168e+01	9.2416	57.636168	0.000446	4.458876	0.755354	0.000089
 466	4.6267e+01	9.2611	57.716911	0.000405	4.053524	0.686686	0.000081
 467	4.6367e+01	9.2822	57.833988	0.000588	5.877610	0.995694	0.000118
 468	4.6467e+01	9.3012	57.926842	0.000466	4.661553	0.789688	0.000093
 469	4.6566e+01	9.3219	57.979325	0.000263	2.634791	0.446346	0.000053
 470	4.6666e+01	9.3384	58.120625	0.000709	7.093667	1.201700	0.000142
 471	4.6765e+01	9.3616	58.205405	0.000426	4.256200	0.721020	0.000085
 472	4.6864e+01	9.3816	58.282110	0.000385	3.850848	0.652351	0.000077
 473	4.6964e+01	9.4017	58.423410	0.000709	7.093667	1.201700	0.000142
 474	4.7063e+01	9.4215	58.455707	0.000162	1.621410	0.274674	0.000032
 475	4.7163e+01	9.4424	58.605081	0.000750	7.499019	1.270368	0.000150
 476	4.7263e+01	9.4614	58.693898	0.000446	4.458876	0.755354	0.000089
 477	4.7362e+01	9.4808	58.750418	0.000284	2.837467	0.480680	0.000057
 478	4.7462e+01	9.5010	58.843272	0.000466	4.661553	0.789688	0.000093
 479	4.7561e+01	9.5207	58.924015	0.000405	4.053524	0.686686	0.000081
 480	4.7660e+01	9.5399	59.041092	0.000588	5.877610	0.995694	0.000118
 481	4.7760e+01	9.5592	59.154131	0.000567	5.674934	0.961360	0.000114
 482	4.7859e+01	9.5803	59.230837	0.000385	3.850848	0.652351	0.000077
 483	4.7959e+01	9.6008	59.315617	0.000426	4.256200	0.721020	0.000085
 484	4.8059e+01	9.6197	59.448842	0.000669	6.688315	1.133031	0.000134
 485	4.8158e+01	9.6399	59.549771	0.000507	5.066905	0.858357	0.000101
 486	4.8258e+01	9.6595	59.682996	0.000669	6.688315	1.133031	0.000134
 487	4.8357e+01	9.6798	59.735479	0.000263	2.634791	0.446346	0.000053
 488	4.8456e+01	9.6992	59.820259	0.000426	4.256200	0.721020	0.000085
 489	4.8556e+01	9.7205	59.941373	0.000608	6.080286	1.030028	0.000122
 490	4.8656e+01	9.7395	60.062487	0.000608	6.080286	1.030028	0.000122
 491	4.8755e+01	9.7596	60.147267	0.000426	4.256200	0.721020	0.000085
 492	4.8855e+01	9.7803	60.244158	0.000486	4.864229	0.824023	0.000097
 493	4.8954e+01	9.7998	60.349124	0.000527	5.269581	0.892691	0.000105
 494	4.9053e+01	9.8198	60.454089	0.000527	5.269581	0.892691	0.000105
 495	4.9153e+01	9.8389	60.571166	0.000588	5.877610	0.995694	0.000118
 496	4.9252e+01	9.8586	60.643834	0.000365	3.648172	0.618017	0.000073
 497	4.9352e+01	9.8797	60.793209	0.000750	7.499019	1.270368	0.000150
 498	4.9452e+01	9.8994	60.898174	0.000527	5.269581	0.892691	0.000105
 499	4.9551e+01	9.9188	60.982954	0.000426	4.256200	0.721020	0.000085
 500	4.9651e+01	9.9390	61.100031	0.000588	5.877610	0.995694	0.000118
 501	4.9750e+01	9.9592	61.204996	0.000527	5.269581	0.892691	0.000105
 502	4.9849e+01	9.9780	61.382630	0.000892	8.917753	1.510708	0.000179
 503	4.9949e+01	9.9999	61.455299	0.000365	3.648172	0.618017	0.000073
 504	5.0048e+01	9.9776	61.431076	0.000122	1.216057	0.206006	-0.000024
 505	5.0148e+01	9.9593	61.423002	0.000041	0.405352	0.068669	-0.000008
 506	5.0248e+01	9.9391	61.394742	0.000142	1.418733	0.240340	-0.000028
 507	5.0347e+01	9.9194	61.354370	0.000203	2.026762	0.343343	-0.000041
 508	5.0447e+01	9.8994	61.370519	-0.000081	-0.810705	-0.137337	0.000016
 509	5.0546e+01	9.8788	61.326110	0.000223	2.229438	0.377677	-0.000045
 510	5.0645e+01	9.8596	61.301888	0.000122	1.216057	0.206006	-0.000024
 511	5.0745e+01	9.8392	61.301888	-0.000000	-0.000000	-0.000000	0.000000
 512	5.0844e+01	9.8193	61.265553	0.000182	1.824086	0.309008	-0.000037
 513	5.0944e+01	9.8000	61.241331	0.000122	1.216057	0.206006	-0.000024
 514	5.1044e+01	9.7787	61.225182	0.000081	0.810705	0.137337	-0.000016
 515	5.1143e+01	9.7607	61.204996	0.000101	1.013381	0.171671	-0.000020
 516	5.1242e+01	9.7398	61.188848	0.000081	0.810705	0.137337	-0.000016
 517	5.1342e+01	9.7193	61.180774	0.000041	0.405352	0.068669	-0.000008
 518	5.1441e+01	9.7001	61.140402	0.000203	2.026762	0.343343	-0.000041
 519	5.1541e+01	9.6796	61.148476	-0.000041	-0.405352	-0.068669	0.000008
 520	5.1641e+01	9.6600	61.140402	0.000041	0.405352	0.068669	-0.000008
 521	5.1740e+01	9.6402	61.112142	0.000142	1.418733	0.240340	-0.000028
 522	5.1840e+01	9.6204	61.108105	0.000020	0.202676	0.034334	-0.000004
 523	5.1939e+01	9.6012	61.071771	0.000182	1.824086	0.309008	-0.000037
 524	5.2038e+01	9.5812	61.059659	0.000061	0.608029	0.103003	-0.000012
 525	5.2138e+01	9.5600	61.011214	0.000243	2.432114	0.412011	-0.000049
 526	5.2237e+01	9.5411	60.958731	0.000263	2.634791	0.446346	-0.000053
 527	5.2337e+01	9.5215	60.999102	-0.000203	-2.026762	-0.343343	0.000041
 528	5.2437e+01	9.5003	60.986991	0.000061	0.608029	0.103003	-0.000012
 529	5.2536e+01	9.4804	60.877988	0.000547	5.472257	0.927025	-0.000110
 530	5.2636e+01	9.4610	60.882025	-0.000020	-0.202676	-0.034334	0.000004
 531	5.2735e+01	9.4420	60.861840	0.000101	1.013381	0.171671	-0.000020
 532	5.2834e+01	9.4217	60.837617	0.000122	1.216057	0.206006	-0.000024
 533	5.2934e+01	9.4013	60.797246	0.000203	2.026762	0.343343	-0.000041
 534	5.3033e+01	9.3818	60.825506	-0.000142	-1.418733	-0.240340	0.000028
 535	5.3133e+01	9.3616	60.768986	0.000284	2.837467	0.480680	-0.000057
 536	5.3233e+01	9.3417	60.744763	0.000122	1.216057	0.206006	-0.000024
 537	5.3332e+01	9.3215	60.716503	0.000142	1.418733	0.240340	-0.000028
 538	5.3431e+01	9.3011	60.716503	-0.000000	-0.000000	-0.000000	0.000000
 539	5.3531e+01	9.2822	60.668057	0.000243	2.432114	0.412011	-0.000049
 540	5.3630e+01	9.2627	60.651909	0.000081	0.810705	0.137337	-0.000016
 541	5.3730e+01	9.2422	60.639797	0.000061	0.608029	0.103003	-0.000012
 542	5.3830e+01	9.2223	60.579240	0.000304	3.040143	0.515014	-0.000061
 543	5.3929e+01	9.2020	60.546943	0.000162	1.621410	0.274674	-0.000032
 544	5.4029e+01	9.1816	60.502535	0.000223	2.229438	0.377677	-0.000045
 545	5.4128e+01	9.1614	60.498498	0.000020	0.202676	0.034334	-0.000004
 546	5.4227e+01	9.1427	60.490423	0.000041	0.405352	0.068669	-0.000008
 547	5.4327e+01	9.1238	60.466201	0.000122	1.216057	0.206006	-0.000024
 548	5.4426e+01	9.1028	60.425829	0.000203	2.026762	0.343343	-0.000041
 549	5.4526e+01	9.0833	60.389495	0.000182	1.824086	0.309008	-0.000037
 550	5.4626e+01	9.0625	60.381421	0.000041	0.405352	0.068669	-0.000008
 551	5.4725e+01	9.0430	60.353161	0.000142	1.418733	0.240340	-0.000028
 552	5.4825e+01	9.0234	60.316826	0.000182	1.824086	0.309008	-0.000037
 553	5.4924e+01	9.0031	60.272418	0.000223	2.229438	0.377677	-0.000045
 554	5.5023e+01	8.9825	60.284529	-0.000061	-0.608029	-0.103003	0.000012
 555	5.5123e+01	8.9632	60.236084	0.000243	2.432114	0.412011	-0.000049
 556	5.5222e+01	8.9422	60.191675	0.000223	2.229438	0.377677	-0.000045
 557	5.5322e+01	8.9227	60.199750	-0.000041	-0.405352	-0.068669	0.000008
 558	5.5422e+01	8.9037	60.131118	0.000345	3.445495	0.583683	-0.000069
 559	5.5521e+01	8.8839	60.114970	0.000081	0.810705	0.137337	-0.000016
 560	5.5620e+01	8.8631	60.114970	-0.000000	-0.000000	-0.000000	0.000000
 561	5.5720e+01	8.8428	60.078635	0.000182	1.824086	0.309008	-0.000037
 562	5.5819e+01	8.8233	60.070561	0.000041	0.405352	0.068669	-0.000008
 563	5.5919e+01	8.8038	59.993856	0.000385	3.850848	0.652351	-0.000077
 564	5.6019e+01	8.7842	59.981744	0.000061	0.608029	0.103003	-0.000012
 565	5.6118e+01	8.7646	59.997893	-0.000081	-0.810705	-0.137337	0.000016
 566	5.6218e+01	8.7444	59.949447	0.000243	2.432114	0.412011	-0.000049
 567	5.6317e+01	8.7256	59.905039	0.000223	2.229438	0.377677	-0.000045
 568	5.6416e+01	8.7038	59.876779	0.000142	1.418733	0.240340	-0.000028
 569	5.6516e+01	8.6854	59.868704	0.000041	0.405352	0.068669	-0.000008
 570	5.6615e+01	8.6648	59.832370	0.000182	1.824086	0.309008	-0.000037
 571	5.6715e+01	8.6457	59.812185	0.000101	1.013381	0.171671	-0.000020
 572	5.6815e+01	8.6258	59.779887	0.000162	1.621410	0.274674	-0.000032
 573	5.6914e+01	8.6052	59.707219	0.000365	3.648172	0.618017	-0.000073
 574	5.7014e+01	8.5845	59.703182	0.000020	0.202676	0.034334	-0.000004
 575	5.7113e+01	8.5649	59.682996	0.000101	1.013381	0.171671	-0.000020
 576	5.7212e+01	8.5450	59.666848	0.000081	0.810705	0.137337	-0.000016
 577	5.7312e+01	8.5260	59.602253	0.000324	3.242819	0.549348	-0.000065
 578	5.7411e+01	8.5056	59.525548	0.000385	3.850848	0.652351	-0.000077
 579	5.7511e+01	8.4860	59.561882	-0.000182	-1.824086	-0.309008	0.000037
 580	5.7611e+01	8.4669	59.501325	0.000304	3.040143	0.515014	-0.000061
 581	5.7710e+01	8.4473	59.473065	0.000142	1.418733	0.240340	-0.000028
 582	5.7809e+01	8.4261	59.420582	0.000263	2.634791	0.446346	-0.000053
 583	5.7909e+01	8.4064	59.392322	0.000142	1.418733	0.240340	-0.000028
 584	5.8008e+01	8.3860	59.388285	0.000020	0.202676	0.034334	-0.000004
 585	5.8108e+01	8.3657	59.339840	0.000243	2.432114	0.412011	-0.000049
 586	5.8208e+01	8.3472	59.275245	0.000324	3.242819	0.549348	-0.000065
 587	5.8307e+01	8.3265	59.275245	-0.000000	-0.000000	-0.000000	0.000000
 588	5.8407e+01	8.3059	59.287357	-0.000061	-0.608029	-0.103003	0.000012
 589	5.8506e+01	8.2868	59.226800	0.000304	3.040143	0.515014	-0.000061
 590	5.8605e+01	8.2655	59.162206	0.000324	3.242819	0.549348	-0.000065
 591	5.8705e+01	8.2471	59.137983	0.000122	1.216057	0.206006	-0.000024
 592	5.8804e+01	8.2265	59.109723	0.000142	1.418733	0.240340	-0.000028
 593	5.8904e+01	8.2062	59.077426	0.000162	1.621410	0.274674	-0.000032
 594	5.9004e+01	8.1875	59.049166	0.000142	1.418733	0.240340	-0.000028
 595	5.9103e+01	8.1653	59.008795	0.000203	2.026762	0.343343	-0.000041
 596	5.9203e+01	8.1470	59.004757	0.000020	0.202676	0.034334	-0.000004
 597	5.9302e+01	8.1268	58.940163	0.000324	3.242819	0.549348	-0.000065
 598	5.9401e+01	8.1076	58.932089	0.000041	0.405352	0.068669	-0.000008
 599	5.9501e+01	8.0876	58.883643	0.000243	2.432114	0.412011	-0.000049
 600	5.9600e+01	8.0679	58.859420	0.000122	1.216057	0.206006	-0.000024
 601	5.9700e+01	8.0470	58.778678	0.000405	4.053524	0.686686	-0.000081
 602	5.9800e+01	8.0282	58.742344	0.000182	1.824086	0.309008	-0.000037
 603	5.9899e+01	8.0082	58.738306	0.000020	0.202676	0.034334	-0.000004
 604	5.9998e+01	7.9872	58.661601	0.000385	3.850848	0.652351	-0.000077
 605	6.0098e+01	7.9681	58.649489	0.000061	0.608029	0.103003	-0.000012
 606	6.0197e+01	7.9492	58.576821	0.000365	3.648172	0.618017	-0.000073
 607	6.0297e+01	7.9276	58.588932	-0.000061	-0.608029	-0.103003	0.000012
 608	6.0397e+01	7.9082	58.496078	0.000466	4.661553	0.789688	-0.000093
 609	6.0496e+01	7.8878	58.504153	-0.000041	-0.405352	-0.068669	0.000008
 610	6.0596e+01	7.8687	58.427447	0.000385	3.850848	0.652351	-0.000077
 611	6.0695e+01	7.8472	58.423410	0.000020	0.202676	0.034334	-0.000004
 612	6.0794e+01	7.8286	58.383038	0.000203	2.026762	0.343343	-0.000041
 613	6.0894e+01	7.8083	58.330556	0.000263	2.634791	0.446346	-0.000053
 614	6.0993e+01	7.7884	58.269999	0.000304	3.040143	0.515014	-0.000061
 615	6.1093e+01	7.7682	58.213479	0.000284	2.837467	0.480680	-0.000057
 616	6.1193e+01	7.7487	58.193293	0.000101	1.013381	0.171671	-0.000020
 617	6.1292e+01	7.7280	58.160996	0.000162	1.621410	0.274674	-0.000032
 618	6.1392e+01	7.7092	58.104476	0.000284	2.837467	0.480680	-0.000057
 619	6.1491e+01	7.6887	58.056030	0.000243	2.432114	0.412011	-0.000049
 620	6.1590e+01	7.6689	58.035845	0.000101	1.013381	0.171671	-0.000020
 621	6.1690e+01	7.6493	57.983362	0.000263	2.634791	0.446346	-0.000053
 622	6.1789e+01	7.6291	57.926842	0.000284	2.837467	0.480680	-0.000057
 623	6.1889e+01	7.6096	57.866285	0.000304	3.040143	0.515014	-0.000061
 624	6.1989e+01	7.5893	57.817839	0.000243	2.432114	0.412011	-0.000049
 625	6.2088e+01	7.5700	57.761320	0.000284	2.837467	0.480680	-0.000057
 626	6.2188e+01	7.5501	57.733060	0.000142	1.418733	0.240340	-0.000028
 627	6.2287e+01	7.5296	57.712874	0.000101	1.013381	0.171671	-0.000020
 628	6.2386e+01	7.5088	57.644243	0.000345	3.445495	0.583683	-0.000069
 629	6.2486e+01	7.4905	57.603871	0.000203	2.026762	0.343343	-0.000041
 630	6.2586e+01	7.4707	57.547351	0.000284	2.837467	0.480680	-0.000057
 631	6.2685e+01	7.4503	57.506980	0.000203	2.026762	0.343343	-0.000041
 632	6.2785e+01	7.4301	57.450460	0.000284	2.837467	0.480680	-0.000057
 633	6.2884e+01	7.4102	57.389903	0.000304	3.040143	0.515014	-0.000061
 634	6.2983e+01	7.3902	57.321272	0.000345	3.445495	0.583683	-0.000069
 635	6.3083e+01	7.3706	57.301086	0.000101	1.013381	0.171671	-0.000020
 636	6.3182e+01	7.3503	57.264752	0.000182	1.824086	0.309008	-0.000037
 637	6.3282e+01	7.3309	57.175935	0.000446	4.458876	0.755354	-0.000089
 638	6.3382e+01	7.3102	57.155749	0.000101	1.013381	0.171671	-0.000020
 639	6.3481e+01	7.2906	57.079044	0.000385	3.850848	0.652351	-0.000077
 640	6.3581e+01	7.2707	57.022524	0.000284	2.837467	0.480680	-0.000057
 641	6.3680e+01	7.2501	56.957930	0.000324	3.242819	0.549348	-0.000065
 642	6.3779e+01	7.2301	56.893335	0.000324	3.242819	0.549348	-0.000065
 643	6.3879e+01	7.2106	56.848927	0.000223	2.229438	0.377677	-0.000045
 644	6.3978e+01	7.1917	56.764147	0.000426	4.256200	0.721020	-0.000085
 645	6.4078e+01	7.1712	56.727813	0.000182	1.824086	0.309008	-0.000037
 646	6.4177e+01	7.1509	56.663219	0.000324	3.242819	0.549348	-0.000065
 647	6.4277e+01	7.1294	56.614773	0.000243	2.432114	0.412011	-0.000049
 648	6.4376e+01	7.1124	56.542105	0.000365	3.648172	0.618017	-0.000073
 649	6.4476e+01	7.0926	56.513845	0.000142	1.418733	0.240340	-0.000028
 650	6.4576e+01	7.0705	56.457325	0.000284	2.837467	0.480680	-0.000057
 651	6.4675e+01	7.0513	56.388693	0.000345	3.445495	0.583683	-0.000069
 652	6.4775e+01	7.0322	56.324099	0.000324	3.242819	0.549348	-0.000065
 653	6.4874e+01	7.0118	56.275654	0.000243	2.432114	0.412011	-0.000049
 654	6.4974e+01	6.9917	56.198948	0.000385	3.850848	0.652351	-0.000077
 655	6.5073e+01	6.9722	56.150502	0.000243	2.432114	0.412011	-0.000049
 656	6.5172e+01	6.9518	56.089945	0.000304	3.040143	0.515014	-0.000061
 657	6.5272e+01	6.9329	56.025351	0.000324	3.242819	0.549348	-0.000065
 658	6.5371e+01	6.9121	55.944608	0.000405	4.053524	0.686686	-0.000081
 659	6.5471e+01	6.8929	55.900200	0.000223	2.229438	0.377677	-0.000045
 660	6.5570e+01	6.8717	55.815420	0.000426	4.256200	0.721020	-0.000085
 661	6.5670e+01	6.8529	55.775049	0.000203	2.026762	0.343343	-0.000041
 662	6.5769e+01	6.8325	55.718529	0.000284	2.837467	0.480680	-0.000057
 663	6.5869e+01	6.8137	55.662009	0.000284	2.837467	0.480680	-0.000057
 664	6.5969e+01	6.7924	55.577229	0.000426	4.256200	0.721020	-0.000085
 665	6.6068e+01	6.7728	55.520709	0.000284	2.837467	0.480680	-0.000057
 666	6.6168e+01	6.7519	55.460152	0.000304	3.040143	0.515014	-0.000061
 667	6.6267e+01	6.7336	55.395558	0.000324	3.242819	0.549348	-0.000065
 668	6.6367e+01	6.7120	55.343075	0.000263	2.634791	0.446346	-0.000053
 669	6.6466e+01	6.6935	55.274444	0.000345	3.445495	0.583683	-0.000069
 670	6.6566e+01	6.6735	55.197738	0.000385	3.850848	0.652351	-0.000077
 671	6.6665e+01	6.6531	55.153330	0.000223	2.229438	0.377677	-0.000045
 672	6.6764e+01	6.6338	55.080661	0.000365	3.648172	0.618017	-0.000073
 673	6.6864e+01	6.6140	55.028179	0.000263	2.634791	0.446346	-0.000053
 674	6.6963e+01	6.5934	54.939362	0.000446	4.458876	0.755354	-0.000089
 675	6.7063e+01	6.5727	54.898990	0.000203	2.026762	0.343343	-0.000041
 676	6.7162e+01	6.5535	54.798062	0.000507	5.066905	0.858357	-0.000101
 677	6.7262e+01	6.5337	54.741542	0.000284	2.837467	0.480680	-0.000057
 678	6.7362e+01	6.5143	54.664836	0.000385	3.850848	0.652351	-0.000077
 679	6.7461e+01	6.4938	54.596205	0.000345	3.445495	0.583683	-0.000069
 680	6.7561e+01	6.4739	54.555834	0.000203	2.026762	0.343343	-0.000041
 681	6.7660e+01	6.4541	54.458943	0.000486	4.864229	0.824023	-0.000097
 682	6.7760e+01	6.4346	54.394348	0.000324	3.242819	0.549348	-0.000065
 683	6.7859e+01	6.4141	54.293420	0.000507	5.066905	0.858357	-0.000101
 684	6.7959e+01	6.3937	54.257086	0.000182	1.824086	0.309008	-0.000037
 685	6.8058e+01	6.3746	54.192492	0.000324	3.242819	0.549348	-0.000065
 686	6.8157e+01	6.3544	54.075415	0.000588	5.877610	0.995694	-0.000118
 687	6.8257e+01	6.3346	54.059266	0.000081	0.810705	0.137337	-0.000016
 688	6.8356e+01	6.3143	53.974486	0.000426	4.256200	0.721020	-0.000085
 689	6.8456e+01	6.2951	53.897781	0.000385	3.850848	0.652351	-0.000077
 690	6.8555e+01	6.2740	53.849335	0.000243	2.432114	0.412011	-0.000049
 691	6.8655e+01	6.2549	53.744370	0.000527	5.269581	0.892691	-0.000105
 692	6.8754e+01	6.2362	53.651515	0.000466	4.661553	0.789688	-0.000093
 693	6.8854e+01	6.2156	53.566736	0.000426	4.256200	0.721020	-0.000085
 694	6.8954e+01	6.1959	53.506179	0.000304	3.040143	0.515014	-0.000061
 695	6.9053e+01	6.1758	53.449659	0.000284	2.837467	0.480680	-0.000057
 696	6.9153e+01	6.1565	53.393139	0.000284	2.837467	0.480680	-0.000057
 697	6.9252e+01	6.1352	53.292210	0.000507	5.066905	0.858357	-0.000101
 698	6.9352e+01	6.1166	53.223579	0.000345	3.445495	0.583683	-0.000069
 699	6.9451e+01	6.0968	53.154948	0.000345	3.445495	0.583683	-0.000069
 700	6.9550e+01	6.0766	53.058056	0.000486	4.864229	0.824023	-0.000097
 701	6.9650e+01	6.0566	52.989425	0.000345	3.445495	0.583683	-0.000069
 702	6.9749e+01	6.0357	52.940980	0.000243	2.432114	0.412011	-0.000049
 703	6.9849e+01	6.0162	52.819865	0.000608	6.080286	1.030028	-0.000122
 704	6.9948e+01	5.9966	52.714900	0.000527	5.269581	0.892691	-0.000105
 705	7.0048e+01	5.9768	52.674529	0.000203	2.026762	0.343343	-0.000041
 706	7.0147e+01	5.9563	52.593786	0.000405	4.053524	0.686686	-0.000081
 707	7.0247e+01	5.9356	52.500932	0.000466	4.661553	0.789688	-0.000093
 708	7.0347e+01	5.9167	52.436338	0.000324	3.242819	0.549348	-0.000065
 709	7.0446e+01	5.8967	52.347521	0.000446	4.458876	0.755354	-0.000089
 710	7.0546e+01	5.8767	52.262741	0.000426	4.256200	0.721020	-0.000085
 711	7.0645e+01	5.8570	52.169887	0.000466	4.661553	0.789688	-0.000093
 712	7.0745e+01	5.8364	52.105292	0.000324	3.242819	0.549348	-0.000065
 713	7.0844e+01	5.8181	52.004364	0.000507	5.066905	0.858357	-0.000101
 714	7.0944e+01	5.7960	51.923621	0.000405	4.053524	0.686686	-0.000081
 715	7.1043e+01	5.7772	51.879213	0.000223	2.229438	0.377677	-0.000045
 716	7.1142e+01	5.7561	51.814619	0.000324	3.242819	0.549348	-0.000065
 717	7.1242e+01	5.7376	51.705616	0.000547	5.472257	0.927025	-0.000110
 718	7.1341e+01	5.7168	51.624873	0.000405	4.053524	0.686686	-0.000081
 719	7.1441e+01	5.6976	51.548168	0.000385	3.850848	0.652351	-0.000077
 720	7.1540e+01	5.6768	51.483573	0.000324	3.242819	0.549348	-0.000065
 721	7.1640e+01	5.6579	51.402831	0.000405	4.053524	0.686686	-0.000081
 722	7.1740e+01	5.6371	51.289791	0.000567	5.674934	0.961360	-0.000114
 723	7.1839e+01	5.6179	51.225197	0.000324	3.242819	0.549348	-0.000065
 724	7.1939e+01	5.5980	51.140417	0.000426	4.256200	0.721020	-0.000085
 725	7.2038e+01	5.5779	51.063711	0.000385	3.850848	0.652351	-0.000077
 726	7.2138e+01	5.5579	50.970857	0.000466	4.661553	0.789688	-0.000093
 727	7.2237e+01	5.5381	50.906263	0.000324	3.242819	0.549348	-0.000065
 728	7.2337e+01	5.5178	50.837632	0.000345	3.445495	0.583683	-0.000069
 729	7.2436e+01	5.4983	50.748815	0.000446	4.458876	0.755354	-0.000089
 730	7.2535e+01	5.4781	50.647886	0.000507	5.066905	0.858357	-0.000101
 731	7.2635e+01	5.4575	50.583292	0.000324	3.242819	0.549348	-0.000065
 732	7.2734e+01	5.4377	50.514661	0.000345	3.445495	0.583683	-0.000069
 733	7.2834e+01	5.4187	50.413733	0.000507	5.066905	0.858357	-0.000101
 734	7.2933e+01	5.3980	50.328953	0.000426	4.256200	0.721020	-0.000085
 735	7.3033e+01	5.3793	50.228024	0.000507	5.066905	0.858357	-0.000101
 736	7.3132e+01	5.3580	50.139207	0.000446	4.458876	0.755354	-0.000089
 737	7.3232e+01	5.3387	50.046353	0.000466	4.661553	0.789688	-0.000093
 738	7.3332e+01	5.3182	49.989833	0.000284	2.837467	0.480680	-0.000057
 739	7.3431e+01	5.2981	49.909091	0.000405	4.053524	0.686686	-0.000081
 740	7.3531e+01	5.2773	49.816236	0.000466	4.661553	0.789688	-0.000093
 741	7.3630e+01	5.2596	49.727419	0.000446	4.458876	0.755354	-0.000089
 742	7.3730e+01	5.2395	49.606305	0.000608	6.080286	1.030028	-0.000122
 743	7.3829e+01	5.2184	49.557860	0.000243	2.432114	0.412011	-0.000049
 744	7.3928e+01	5.1994	49.428671	0.000649	6.485638	1.098697	-0.000130
 745	7.4028e+01	5.1788	49.380226	0.000243	2.432114	0.412011	-0.000049
 746	7.4127e+01	5.1592	49.251037	0.000649	6.485638	1.098697	-0.000130
 747	7.4227e+01	5.1392	49.247000	0.000020	0.202676	0.034334	-0.000004
 748	7.4326e+01	5.1187	49.097626	0.000750	7.499019	1.270368	-0.000150
 749	7.4426e+01	5.1004	49.012846	0.000426	4.256200	0.721020	-0.000085
 750	7.4525e+01	5.0794	48.891732	0.000608	6.080286	1.030028	-0.000122
 751	7.4625e+01	5.0594	48.855398	0.000182	1.824086	0.309008	-0.000037
 752	7.4725e+01	5.0396	48.734284	0.000608	6.080286	1.030028	-0.000122
 753	7.4824e+01	5.0207	48.681801	0.000263	2.634791	0.446346	-0.000053
 754	7.4924e+01	5.0001	48.568761	0.000567	5.674934	0.961360	-0.000114
 755	7.5023e+01	4.9805	48.467833	0.000507	5.066905	0.858357	-0.000101
 756	7.5123e+01	4.9609	48.374979	0.000466	4.661553	0.789688	-0.000093
 757	7.5222e+01	4.9415	48.310385	0.000324	3.242819	0.549348	-0.000065
 758	7.5322e+01	4.9203	48.185234	0.000628	6.282962	1.064363	-0.000126
 759	7.5421e+01	4.9009	48.144862	0.000203	2.026762	0.343343	-0.000041
 760	7.5520e+01	4.8804	48.011637	0.000669	6.688315	1.133031	-0.000134
 761	7.5620e+01	4.8606	47.963191	0.000243	2.432114	0.412011	-0.000049
 762	7.5719e+01	4.8405	47.882448	0.000405	4.053524	0.686686	-0.000081
 763	7.5819e+01	4.8212	47.777483	0.000527	5.269581	0.892691	-0.000105
 764	7.5918e+01	4.8014	47.712889	0.000324	3.242819	0.549348	-0.000065
 765	7.6018e+01	4.7813	47.595812	0.000588	5.877610	0.995694	-0.000118
 766	7.6118e+01	4.7610	47.527180	0.000345	3.445495	0.583683	-0.000069
 767	7.6217e+01	4.7401	47.442401	0.000426	4.256200	0.721020	-0.000085
 768	7.6317e+01	4.7208	47.341472	0.000507	5.066905	0.858357	-0.000101
 769	7.6416e+01	4.7024	47.256692	0.000426	4.256200	0.721020	-0.000085
 770	7.6516e+01	4.6818	47.139615	0.000588	5.877610	0.995694	-0.000118
 771	7.6615e+01	4.6616	47.054836	0.000426	4.256200	0.721020	-0.000085
 772	7.6715e+01	4.6416	46.961981	0.000466	4.661553	0.789688	-0.000093
 773	7.6814e+01	4.6223	46.881239	0.000405	4.053524	0.686686	-0.000081
 774	7.6913e+01	4.6014	46.800496	0.000405	4.053524	0.686686	-0.000081
 775	7.7013e+01	4.5818	46.691493	0.000547	5.472257	0.927025	-0.000110
 776	7.7112e+01	4.5611	46.622862	0.000345	3.445495	0.583683	-0.000069
 777	7.7212e+01	4.5419	46.546156	0.000385	3.850848	0.652351	-0.000077
 778	7.7311e+01	4.5229	46.445228	0.000507	5.066905	0.858357	-0.000101
 779	7.7411e+01	4.5022	46.372560	0.000365	3.648172	0.618017	-0.000073
 780	7.7510e+01	4.4815	46.275668	0.000486	4.864229	0.824023	-0.000097
 781	7.7610e+01	4.4631	46.170703	0.000527	5.269581	0.892691	-0.000105
 782	7.7710e+01	4.4427	46.114183	0.000284	2.837467	0.480680	-0.000057
 783	7.7809e+01	4.4231	46.017292	0.000486	4.864229	0.824023	-0.000097
 784	7.7909e+01	4.4025	45.896178	0.000608	6.080286	1.030028	-0.000122
 785	7.8008e+01	4.3836	45.835621	0.000304	3.040143	0.515014	-0.000061
 786	7.8108e+01	4.3624	45.718544	0.000588	5.877610	0.995694	-0.000118
 787	7.8207e+01	4.3441	45.670098	0.000243	2.432114	0.412011	-0.000049
 788	7.8306e+01	4.3220	45.589355	0.000405	4.053524	0.686686	-0.000081
 789	7.8406e+01	4.3038	45.468241	0.000608	6.080286	1.030028	-0.000122
 790	7.8505e+01	4.2837	45.359239	0.000547	5.472257	0.927025	-0.000110
 791	7.8605e+01	4.2632	45.306756	0.000263	2.634791	0.446346	-0.000053
 792	7.8704e+01	4.2425	45.205827	0.000507	5.066905	0.858357	-0.000101
 793	7.8804e+01	4.2229	45.084713	0.000608	6.080286	1.030028	-0.000122
 794	7.8903e+01	4.2031	45.008008	0.000385	3.850848	0.652351	-0.000077
 795	7.9003e+01	4.1833	44.951488	0.000284	2.837467	0.480680	-0.000057
 796	7.9103e+01	4.1633	44.846522	0.000527	5.269581	0.892691	-0.000105
 797	7.9202e+01	4.1434	44.729445	0.000588	5.877610	0.995694	-0.000118
 798	7.9302e+01	4.1238	44.636591	0.000466	4.661553	0.789688	-0.000093
 799	7.9401e+01	4.1030	44.584109	0.000263	2.634791	0.446346	-0.000053
 800	7.9501e+01	4.0840	44.438772	0.000730	7.296343	1.236034	-0.000146
 801	7.9600e+01	4.0641	44.345918	0.000466	4.661553	0.789688	-0.000093
 802	7.9700e+01	4.0440	44.257101	0.000446	4.458876	0.755354	-0.000089
 803	7.9799e+01	4.0241	44.160209	0.000486	4.864229	0.824023	-0.000097
 804	7.9898e+01	4.0034	44.063318	0.000486	4.864229	0.824023	-0.000097
 805	7.9998e+01	3.9842	44.002761	0.000304	3.040143	0.515014	-0.000061
 806	8.0097e+01	3.9642	43.861461	0.000709	7.093667	1.201700	-0.000142
 807	8.0197e+01	3.9438	43.768607	0.000466	4.661553	0.789688	-0.000093
 808	8.0296e+01	3.9240	43.720161	0.000243	2.432114	0.412011	-0.000049
 809	8.0396e+01	3.9042	43.619233	0.000507	5.066905	0.858357	-0.000101
 810	8.0496e+01	3.8842	43.514268	0.000527	5.269581	0.892691	-0.000105
 811	8.0595e+01	3.8647	43.409302	0.000527	5.269581	0.892691	-0.000105
 812	8.0695e+01	3.8446	43.300299	0.000547	5.472257	0.927025	-0.000110
 813	8.0794e+01	3.8248	43.235705	0.000324	3.242819	0.549348	-0.000065
 814	8.0894e+01	3.8048	43.106517	0.000649	6.485638	1.098697	-0.000130
 815	8.0993e+01	3.7856	43.009626	0.000486	4.864229	0.824023	-0.000097
 816	8.1093e+01	3.7658	42.900623	0.000547	5.472257	0.927025	-0.000110
 817	8.1192e+01	3.7448	42.795657	0.000527	5.269581	0.892691	-0.000105
 818	8.1291e+01	3.7254	42.702803	0.000466	4.661553	0.789688	-0.000093
 819	8.1391e+01	3.7054	42.613986	0.000446	4.458876	0.755354	-0.000089
 820	8.1490e+01	3.6850	42.537281	0.000385	3.850848	0.652351	-0.000077
 821	8.1590e+01	3.6655	42.460575	0.000385	3.850848	0.652351	-0.000077
 822	8.1689e+01	3.6451	42.331387	0.000649	6.485638	1.098697	-0.000130
 823	8.1789e+01	3.6258	42.194124	0.000689	6.890991	1.167365	-0.000138
 824	8.1888e+01	3.6057	42.137604	0.000284	2.837467	0.480680	-0.000057
 825	8.1988e+01	3.5860	42.089159	0.000243	2.432114	0.412011	-0.000049
 826	8.2088e+01	3.5653	41.951896	0.000689	6.890991	1.167365	-0.000138
 827	8.2187e+01	3.5456	41.850968	0.000507	5.066905	0.858357	-0.000101
 828	8.2287e+01	3.5263	41.750039	0.000507	5.066905	0.858357	-0.000101
 829	8.2386e+01	3.5051	41.636999	0.000567	5.674934	0.961360	-0.000114
 830	8.2486e+01	3.4863	41.515885	0.000608	6.080286	1.030028	-0.000122
 831	8.2585e+01	3.4660	41.443217	0.000365	3.648172	0.618017	-0.000073
 832	8.2684e+01	3.4470	41.362474	0.000405	4.053524	0.686686	-0.000081
 833	8.2784e+01	3.4276	41.273657	0.000446	4.458876	0.755354	-0.000089
 834	8.2883e+01	3.4053	41.116209	0.000790	7.904372	1.339037	-0.000158
 835	8.2983e+01	3.3871	41.059689	0.000284	2.837467	0.480680	-0.000057
 836	8.3082e+01	3.3668	40.974909	0.000426	4.256200	0.721020	-0.000085
 837	8.3182e+01	3.3463	40.865907	0.000547	5.472257	0.927025	-0.000110
 838	8.3281e+01	3.3263	40.732681	0.000669	6.688315	1.133031	-0.000134
 839	8.3381e+01	3.3065	40.672124	0.000304	3.040143	0.515014	-0.000061
 840	8.3481e+01	3.2867	40.603493	0.000345	3.445495	0.583683	-0.000069
 841	8.3580e+01	3.2661	40.486416	0.000588	5.877610	0.995694	-0.000118
 842	8.3680e+01	3.2467	40.365302	0.000608	6.080286	1.030028	-0.000122
 843	8.3779e+01	3.2264	40.244188	0.000608	6.080286	1.030028	-0.000122
 844	8.3879e+01	3.2065	40.159408	0.000426	4.256200	0.721020	-0.000085
 845	8.3978e+01	3.1863	40.066554	0.000466	4.661553	0.789688	-0.000093
 846	8.4078e+01	3.1676	39.953514	0.000567	5.674934	0.961360	-0.000114
 847	8.4177e+01	3.1472	39.856623	0.000486	4.864229	0.824023	-0.000097
 848	8.4276e+01	3.1274	39.751657	0.000527	5.269581	0.892691	-0.000105
 849	8.4376e+01	3.1084	39.638617	0.000567	5.674934	0.961360	-0.000114
 850	8.4475e+01	3.0863	39.561912	0.000385	3.850848	0.652351	-0.000077
 851	8.4575e+01	3.0679	39.440798	0.000608	6.080286	1.030028	-0.000122
 852	8.4674e+01	3.0484	39.372166	0.000345	3.445495	0.583683	-0.000069
 853	8.4774e+01	3.0279	39.238941	0.000669	6.688315	1.133031	-0.000134
 854	8.4874e+01	3.0087	39.150124	0.000446	4.458876	0.755354	-0.000089
 855	8.4973e+01	2.9874	39.020935	0.000649	6.485638	1.098697	-0.000130
 856	8.5073e+01	2.9681	38.920007	0.000507	5.066905	0.858357	-0.000101
 857	8.5172e+01	2.9485	38.819079	0.000507	5.066905	0.858357	-0.000101
 858	8.5272e+01	2.9280	38.685853	0.000669	6.688315	1.133031	-0.000134
 859	8.5371e+01	2.9084	38.613185	0.000365	3.648172	0.618017	-0.000073
 860	8.5471e+01	2.8889	38.479959	0.000669	6.688315	1.133031	-0.000134
 861	8.5570e+01	2.8679	38.419402	0.000304	3.040143	0.515014	-0.000061
 862	8.5669e+01	2.8493	38.278103	0.000709	7.093667	1.201700	-0.000142
 863	8.5769e+01	2.8281	38.229657	0.000243	2.432114	0.412011	-0.000049
 864	8.5868e+01	2.8094	38.076246	0.000770	7.701696	1.304703	-0.000154
 865	8.5968e+01	2.7883	37.971280	0.000527	5.269581	0.892691	-0.000105
 866	8.6067e+01	2.7694	37.902649	0.000345	3.445495	0.583683	-0.000069
 867	8.6167e+01	2.7493	37.749238	0.000770	7.701696	1.304703	-0.000154
 868	8.6266e+01	2.7288	37.656384	0.000466	4.661553	0.789688	-0.000093
 869	8.6366e+01	2.7088	37.515084	0.000709	7.093667	1.201700	-0.000142
 870	8.6466e+01	2.6876	37.450490	0.000324	3.242819	0.549348	-0.000065
 871	8.6565e+01	2.6690	37.333413	0.000588	5.877610	0.995694	-0.000118
 872	8.6665e+01	2.6487	37.192113	0.000709	7.093667	1.201700	-0.000142
 873	8.6764e+01	2.6299	37.111370	0.000405	4.053524	0.686686	-0.000081
 874	8.6864e+01	2.6089	36.986219	0.000628	6.282962	1.064363	-0.000126
 875	8.6963e+01	2.5885	36.857031	0.000649	6.485638	1.098697	-0.000130
 876	8.7063e+01	2.5694	36.743991	0.000567	5.674934	0.961360	-0.000114
 877	8.7162e+01	2.5488	36.663248	0.000405	4.053524	0.686686	-0.000081
 878	8.7261e+01	2.5294	36.550208	0.000567	5.674934	0.961360	-0.000114
 879	8.7361e+01	2.5097	36.457354	0.000466	4.661553	0.789688	-0.000093
 880	8.7460e+01	2.4902	36.360463	0.000486	4.864229	0.824023	-0.000097
 881	8.7560e+01	2.4703	36.239349	0.000608	6.080286	1.030028	-0.000122
 882	8.7659e+01	2.4505	36.130346	0.000547	5.472257	0.927025	-0.000110
 883	8.7759e+01	2.4302	36.017306	0.000567	5.674934	0.961360	-0.000114
 884	8.7859e+01	2.4107	35.884081	0.000669	6.688315	1.133031	-0.000134
 885	8.7958e+01	2.3904	35.803338	0.000405	4.053524	0.686686	-0.000081
 886	8.8058e+01	2.3704	35.674150	0.000649	6.485638	1.098697	-0.000130
 887	8.8157e+01	2.3505	35.613593	0.000304	3.040143	0.515014	-0.000061
 888	8.8257e+01	2.3297	35.476330	0.000689	6.890991	1.167365	-0.000138
 889	8.8356e+01	2.3104	35.371365	0.000527	5.269581	0.892691	-0.000105
 890	8.8456e+01	2.2912	35.213916	0.000790	7.904372	1.339037	-0.000158
 891	8.8555e+01	2.2713	35.129137	0.000426	4.256200	0.721020	-0.000085
 892	8.8654e+01	2.2507	35.064542	0.000324	3.242819	0.549348	-0.000065
 893	8.8754e+01	2.2298	34.931317	0.000669	6.688315	1.133031	-0.000134
 894	8.8853e+01	2.2105	34.802129	0.000649	6.485638	1.098697	-0.000130
 895	8.8953e+01	2.1914	34.737534	0.000324	3.242819	0.549348	-0.000065
 896	8.9052e+01	2.1711	34.604309	0.000669	6.688315	1.133031	-0.000134
 897	8.9152e+01	2.1510	34.519529	0.000426	4.256200	0.721020	-0.000085
 898	8.9251e+01	2.1305	34.362081	0.000790	7.904372	1.339037	-0.000158
 899	8.9351e+01	2.1116	34.281338	0.000405	4.053524	0.686686	-0.000081
 900	8.9451e+01	2.0913	34.192521	0.000446	4.458876	0.755354	-0.000089
 901	8.9550e+01	2.0704	34.059296	0.000669	6.688315	1.133031	-0.000134
 902	8.9650e+01	2.0506	33.962404	0.000486	4.864229	0.824023	-0.000097
 903	8.9749e+01	2.0309	33.817068	0.000730	7.296343	1.236034	-0.000146
 904	8.9849e+01	2.0114	33.760548	0.000284	2.837467	0.480680	-0.000057
 905	8.9948e+01	1.9922	33.578877	0.000912	9.120429	1.545042	-0.000183
 906	9.0047e+01	1.9716	33.498134	0.000405	4.053524	0.686686	-0.000081
 907	9.0147e+01	1.9526	33.389131	0.000547	5.472257	0.927025	-0.000110
 908	9.0246e+01	1.9315	33.284166	0.000527	5.269581	0.892691	-0.000105
 909	9.0346e+01	1.9120	33.146903	0.000689	6.890991	1.167365	-0.000138
 910	9.0445e+01	1.8922	33.001566	0.000730	7.296343	1.236034	-0.000146
 911	9.0545e+01	1.8726	32.908712	0.000466	4.661553	0.789688	-0.000093
 912	9.0644e+01	1.8520	32.836044	0.000365	3.648172	0.618017	-0.000073
 913	9.0744e+01	1.8325	32.710892	0.000628	6.282962	1.064363	-0.000126
 914	9.0844e+01	1.8134	32.605927	0.000527	5.269581	0.892691	-0.000105
 915	9.0943e+01	1.7925	32.480776	0.000628	6.282962	1.064363	-0.000126
 916	9.1043e+01	1.7722	32.371773	0.000547	5.472257	0.927025	-0.000110
 917	9.1142e+01	1.7523	32.262770	0.000547	5.472257	0.927025	-0.000110
 918	9.1242e+01	1.7323	32.157805	0.000527	5.269581	0.892691	-0.000105
 919	9.1341e+01	1.7130	32.016505	0.000709	7.093667	1.201700	-0.000142
 920	9.1441e+01	1.6924	31.935762	0.000405	4.053524	0.686686	-0.000081
 921	9.1540e+01	1.6726	31.806574	0.000649	6.485638	1.098697	-0.000130
 922	9.1639e+01	1.6529	31.665274	0.000709	7.093667	1.201700	-0.000142
 923	9.1739e+01	1.6328	31.592606	0.000365	3.648172	0.618017	-0.000073
 924	9.1838e+01	1.6138	31.487640	0.000527	5.269581	0.892691	-0.000105
 925	9.1938e+01	1.5934	31.358452	0.000649	6.485638	1.098697	-0.000130
 926	9.2037e+01	1.5737	31.281746	0.000385	3.850848	0.652351	-0.000077
 927	9.2137e+01	1.5530	31.132372	0.000750	7.499019	1.270368	-0.000150
 928	9.2237e+01	1.5342	31.047592	0.000426	4.256200	0.721020	-0.000085
 929	9.2336e+01	1.5141	30.922441	0.000628	6.282962	1.064363	-0.000126
 930	9.2436e+01	1.4931	30.849773	0.000365	3.648172	0.618017	-0.000073
 931	9.2535e+01	1.4732	30.736733	0.000567	5.674934	0.961360	-0.000114
 932	9.2635e+01	1.4543	30.575248	0.000811	8.107048	1.373371	-0.000162
 933	9.2734e+01	1.4346	30.458171	0.000588	5.877610	0.995694	-0.000118
 934	9.2834e+01	1.4137	30.357242	0.000507	5.066905	0.858357	-0.000101
 935	9.2933e+01	1.3945	30.252277	0.000527	5.269581	0.892691	-0.000105
 936	9.3032e+01	1.3745	30.115014	0.000689	6.890991	1.167365	-0.000138
 937	9.3132e+01	1.3543	30.042346	0.000365	3.648172	0.618017	-0.000073
 938	9.3231e+01	1.3335	29.921232	0.000608	6.080286	1.030028	-0.000122
 939	9.3331e+01	1.3135	29.816266	0.000527	5.269581	0.892691	-0.000105
 940	9.3430e+01	1.2931	29.658818	0.000790	7.904372	1.339037	-0.000158
 941	9.3530e+01	1.2749	29.549815	0.000547	5.472257	0.927025	-0.000110
 942	9.3629e+01	1.2543	29.477147	0.000365	3.648172	0.618017	-0.000073
 943	9.3729e+01	1.2349	29.404478	0.000365	3.648172	0.618017	-0.000073
 944	9.3829e+01	1.2149	29.287401	0.000588	5.877610	0.995694	-0.000118
 945	9.3928e+01	1.1958	29.138027	0.000750	7.499019	1.270368	-0.000150
 946	9.4028e+01	1.1752	29.000765	0.000689	6.890991	1.167365	-0.000138
 947	9.4127e+01	1.1562	28.899836	0.000507	5.066905	0.858357	-0.000101
 948	9.4227e+01	1.1354	28.802945	0.000486	4.864229	0.824023	-0.000097
 949	9.4326e+01	1.1152	28.689905	0.000567	5.674934	0.961360	-0.000114
 950	9.4425e+01	1.0958	28.588977	0.000507	5.066905	0.858357	-0.000101
 951	9.4525e+01	1.0754	28.475937	0.000567	5.674934	0.961360	-0.000114
 952	9.4624e+01	1.0560	28.350786	0.000628	6.282962	1.064363	-0.000126
 953	9.4724e+01	1.0357	28.257932	0.000466	4.661553	0.789688	-0.000093
 954	9.4823e+01	1.0167	28.189300	0.000345	3.445495	0.583683	-0.000069
 955	9.4923e+01	0.9959	28.052038	0.000689	6.890991	1.167365	-0.000138
 956	9.5022e+01	0.9758	27.934961	0.000588	5.877610	0.995694	-0.000118
 957	9.5122e+01	0.9570	27.825958	0.000547	5.472257	0.927025	-0.000110
 958	9.5222e+01	0.9358	27.716955	0.000547	5.472257	0.927025	-0.000110
 959	9.5321e+01	0.9165	27.559507	0.000790	7.904372	1.339037	-0.000158
 960	9.5421e+01	0.8961	27.462616	0.000486	4.864229	0.824023	-0.000097
 961	9.5520e+01	0.8761	27.353613	0.000547	5.472257	0.927025	-0.000110
 962	9.5620e+01	0.8572	27.276908	0.000385	3.850848	0.652351	-0.000077
 963	9.5719e+01	0.8363	27.127534	0.000750	7.499019	1.270368	-0.000150
 964	9.5819e+01	0.8170	26.982197	0.000730	7.296343	1.236034	-0.000146
 965	9.5918e+01	0.7962	26.917603	0.000324	3.242819	0.549348	-0.000065
 966	9.6017e+01	0.7763	26.812637	0.000527	5.269581	0.892691	-0.000105
 967	9.6117e+01	0.7565	26.703634	0.000547	5.472257	0.927025	-0.000110
 968	9.6216e+01	0.7368	26.570409	0.000669	6.688315	1.133031	-0.000134
 969	9.6316e+01	0.7170	26.469480	0.000507	5.066905	0.858357	-0.000101
 970	9.6415e+01	0.6972	26.372589	0.000486	4.864229	0.824023	-0.000097
 971	9.6515e+01	0.6770	26.239364	0.000669	6.688315	1.133031	-0.000134
 972	9.6615e+01	0.6570	26.126324	0.000567	5.674934	0.961360	-0.000114
 973	9.6714e+01	0.6375	25.964838	0.000811	8.107048	1.373371	-0.000162
 974	9.6814e+01	0.6168	25.896207	0.000345	3.445495	0.583683	-0.000069
 975	9.6913e+01	0.5982	25.787205	0.000547	5.472257	0.927025	-0.000110
 976	9.7013e+01	0.5780	25.670128	0.000588	5.877610	0.995694	-0.000118
 977	9.7112e+01	0.5573	25.532865	0.000689	6.890991	1.167365	-0.000138
 978	9.7212e+01	0.5383	25.407714	0.000628	6.282962	1.064363	-0.000126
 979	9.7311e+01	0.5178	25.298711	0.000547	5.472257	0.927025	-0.000110
 980	9.7410e+01	0.4985	25.153374	0.000730	7.296343	1.236034	-0.000146
 981	9.7510e+01	0.4783	25.104929	0.000243	2.432114	0.412011	-0.000049
 982	9.7609e+01	0.4572	24.971703	0.000669	6.688315	1.133031	-0.000134
 983	9.7709e+01	0.4383	24.830403	0.000709	7.093667	1.201700	-0.000142
 984	9.7808e+01	0.4184	24.729475	0.000507	5.066905	0.858357	-0.000101
 985	9.7908e+01	0.3983	24.600287	0.000649	6.485638	1.098697	-0.000130
 986	9.8007e+01	0.3782	24.499358	0.000507	5.066905	0.858357	-0.000101
 987	9.8107e+01	0.3579	24.362096	0.000689	6.890991	1.167365	-0.000138
 988	9.8207e+01	0.3376	24.293464	0.000345	3.445495	0.583683	-0.000069
 989	9.8306e+01	0.3197	24.156202	0.000689	6.890991	1.167365	-0.000138
 990	9.8406e+01	0.2982	24.055273	0.000507	5.066905	0.858357	-0.000101
 991	9.8505e+01	0.2776	23.962419	0.000466	4.661553	0.789688	-0.000093
 992	9.8605e+01	0.2590	23.784785	0.000892	8.917753	1.510708	-0.000179
 993	9.8704e+01	0.2392	23.671745	0.000567	5.674934	0.961360	-0.000114
 994	9.8803e+01	0.2187	23.582928	0.000446	4.458876	0.755354	-0.000089
 995	9.8903e+01	0.1986	23.449703	0.000669	6.688315	1.133031	-0.000134
 996	9.9002e+01	0.1783	23.364923	0.000426	4.256200	0.721020	-0.000085
 997	9.9102e+01	0.1591	23.203438	0.000811	8.107048	1.373371	-0.000162
 998	9.9201e+01	0.1387	23.114621	0.000446	4.458876	0.755354	-0.000089
 999	9.9301e+01	0.1185	22.985432	0.000649	6.485638	1.098697	-0.000130
1000	9.9400e+01	0.0998	22.892578	0.000466	4.661553	0.789688	-0.000093
1001	9.9500e+01	0.0806	22.775501	0.000588	5.877610	0.995694	-0.000118
1002	9.9600e+01	0.0594	22.630164	0.000730	7.296343	1.236034	-0.000146
1003	9.9699e+01	0.0402	22.533273	0.000486	4.864229	0.824023	-0.000097
1004	9.9799e+01	0.0197	22.391973	0.000709	7.093667	1.201700	-0.000142
1005	9.9898e+01	-0.0002	22.311231	0.000405	4.053524	0.686686	-0.000081
1006	9.9998e+01	-0.0188	22.149745	0.000811	8.107048	1.373371	-0.000162
1007	1.0010e+02	-0.0384	22.085151	0.000324	3.242819	0.549348	-0.000065
1008	1.0020e+02	-0.0587	21.951926	0.000669	6.688315	1.133031	-0.000134
1009	1.0030e+02	-0.0794	21.842923	0.000547	5.472257	0.927025	-0.000110
1010	1.0040e+02	-0.0982	21.689512	0.000770	7.701696	1.304703	-0.000154
1011	1.0050e+02	-0.1189	21.576472	0.000567	5.674934	0.961360	-0.000114
1012	1.0059e+02	-0.1385	21.479581	0.000486	4.864229	0.824023	-0.000097
1013	1.0069e+02	-0.1579	21.366541	0.000567	5.674934	0.961360	-0.000114
1014	1.0079e+02	-0.1782	21.241390	0.000628	6.282962	1.064363	-0.000126
1015	1.0089e+02	-0.1987	21.136424	0.000527	5.269581	0.892691	-0.000105
1016	1.0099e+02	-0.2177	21.035496	0.000507	5.066905	0.858357	-0.000101
1017	1.0109e+02	-0.2381	20.890159	0.000730	7.296343	1.236034	-0.000146
1018	1.0119e+02	-0.2585	20.781156	0.000547	5.472257	0.927025	-0.000110
1019	1.0129e+02	-0.2782	20.660042	0.000608	6.080286	1.030028	-0.000122
1020	1.0139e+02	-0.2972	20.534891	0.000628	6.282962	1.064363	-0.000126
1021	1.0149e+02	-0.3176	20.413777	0.000608	6.080286	1.030028	-0.000122
1022	1.0159e+02	-0.3382	20.288626	0.000628	6.282962	1.064363	-0.000126
1023	1.0169e+02	-0.3575	20.167512	0.000608	6.080286	1.030028	-0.000122
1024	1.0179e+02	-0.3777	20.070620	0.000486	4.864229	0.824023	-0.000097
1025	1.0189e+02	-0.3973	19.925283	0.000730	7.296343	1.236034	-0.000146
1026	1.0199e+02	-0.4178	19.832429	0.000466	4.661553	0.789688	-0.000093
1027	1.0209e+02	-0.4369	19.731501	0.000507	5.066905	0.858357	-0.000101
1028	1.0219e+02	-0.4570	19.549830	0.000912	9.120429	1.545042	-0.000183
1029	1.0229e+02	-0.4769	19.404493	0.000730	7.296343	1.236034	-0.000146
1030	1.0239e+02	-0.4972	19.331824	0.000365	3.648172	0.618017	-0.000073
1031	1.0248e+02	-0.5158	19.198599	0.000669	6.688315	1.133031	-0.000134
1032	1.0258e+02	-0.5371	19.061336	0.000689	6.890991	1.167365	-0.000138
1033	1.0268e+02	-0.5573	18.940222	0.000608	6.080286	1.030028	-0.000122
1034	1.0278e+02	-0.5771	18.831220	0.000547	5.472257	0.927025	-0.000110
1035	1.0288e+02	-0.5962	18.665697	0.000831	8.309724	1.407705	-0.000166
1036	1.0298e+02	-0.6164	18.576880	0.000446	4.458876	0.755354	-0.000089
1037	1.0308e+02	-0.6366	18.467877	0.000547	5.472257	0.927025	-0.000110
1038	1.0318e+02	-0.6554	18.366949	0.000507	5.066905	0.858357	-0.000101
1039	1.0328e+02	-0.6763	18.237761	0.000649	6.485638	1.098697	-0.000130
1040	1.0338e+02	-0.6957	18.076275	0.000811	8.107048	1.373371	-0.000162
1041	1.0348e+02	-0.7158	17.934976	0.000709	7.093667	1.201700	-0.000142
1042	1.0358e+02	-0.7350	17.821936	0.000567	5.674934	0.961360	-0.000114
1043	1.0368e+02	-0.7557	17.749267	0.000365	3.648172	0.618017	-0.000073
1044	1.0378e+02	-0.7754	17.567596	0.000912	9.120429	1.545042	-0.000183
1045	1.0388e+02	-0.7956	17.474742	0.000466	4.661553	0.789688	-0.000093
1046	1.0398e+02	-0.8153	17.345554	0.000649	6.485638	1.098697	-0.000130
1047	1.0408e+02	-0.8357	17.212328	0.000669	6.688315	1.133031	-0.000134
1048	1.0418e+02	-0.8565	17.123511	0.000446	4.458876	0.755354	-0.000089
1049	1.0428e+02	-0.8760	16.966063	0.000790	7.904372	1.339037	-0.000158
1050	1.0438e+02	-0.8957	16.921654	0.000223	2.229438	0.377677	-0.000045
1051	1.0447e+02	-0.9151	16.748058	0.000872	8.715077	1.476374	-0.000174
1052	1.0457e+02	-0.9356	16.630981	0.000588	5.877610	0.995694	-0.000118
1053	1.0467e+02	-0.9554	16.517941	0.000567	5.674934	0.961360	-0.000114
1054	1.0477e+02	-0.9755	16.360493	0.000790	7.904372	1.339037	-0.000158
1055	1.0487e+02	-0.9952	16.247453	0.000567	5.674934	0.961360	-0.000114
1056	1.0497e+02	-1.0149	16.126339	0.000608	6.080286	1.030028	-0.000122
1057	1.0507e+02	-1.0350	16.025410	0.000507	5.066905	0.858357	-0.000101
1058	1.0517e+02	-1.0551	15.888148	0.000689	6.890991	1.167365	-0.000138
1059	1.0527e+02	-1.0744	15.775108	0.000567	5.674934	0.961360	-0.000114
1060	1.0537e+02	-1.0947	15.666105	0.000547	5.472257	0.927025	-0.000110
1061	1.0547e+02	-1.1147	15.504620	0.000811	8.107048	1.373371	-0.000162
1062	1.0557e+02	-1.1345	15.399654	0.000527	5.269581	0.892691	-0.000105
1063	1.0567e+02	-1.1554	15.290652	0.000547	5.472257	0.927025	-0.000110
1064	1.0577e+02	-1.1750	15.193760	0.000486	4.864229	0.824023	-0.000097
1065	1.0587e+02	-1.1945	15.020164	0.000872	8.715077	1.476374	-0.000174
1066	1.0597e+02	-1.2150	14.903087	0.000588	5.877610	0.995694	-0.000118
1067	1.0607e+02	-1.2352	14.790047	0.000567	5.674934	0.961360	-0.000114
1068	1.0617e+02	-1.2539	14.681044	0.000547	5.472257	0.927025	-0.000110
1069	1.0627e+02	-1.2738	14.531670	0.000750	7.499019	1.270368	-0.000150
1070	1.0637e+02	-1.2941	14.426705	0.000527	5.269581	0.892691	-0.000105
1071	1.0647e+02	-1.3142	14.293479	0.000669	6.688315	1.133031	-0.000134
1072	1.0656e+02	-1.3330	14.168328	0.000628	6.282962	1.064363	-0.000126
1073	1.0666e+02	-1.3532	14.051251	0.000588	5.877610	0.995694	-0.000118
1074	1.0676e+02	-1.3741	13.918025	0.000669	6.688315	1.133031	-0.000134
1075	1.0686e+02	-1.3934	13.809023	0.000547	5.472257	0.927025	-0.000110
1076	1.0696e+02	-1.4130	13.716169	0.000466	4.661553	0.789688	-0.000093
1077	1.0706e+02	-1.4336	13.566795	0.000750	7.499019	1.270368	-0.000150
1078	1.0716e+02	-1.4529	13.469903	0.000486	4.864229	0.824023	-0.000097
1079	1.0726e+02	-1.4736	13.332641	0.000689	6.890991	1.167365	-0.000138
1080	1.0736e+02	-1.4932	13.219601	0.000567	5.674934	0.961360	-0.000114
1081	1.0746e+02	-1.5134	13.086375	0.000669	6.688315	1.133031	-0.000134
1082	1.0756e+02	-1.5323	13.009670	0.000385	3.850848	0.652351	-0.000077
1083	1.0766e+02	-1.5540	12.823962	0.000932	9.323105	1.579377	-0.000187
1084	1.0776e+02	-1.5756	12.727070	0.000486	4.864229	0.824023	-0.000097
1085	1.0786e+02	-1.5923	12.585771	0.000709	7.093667	1.201700	-0.000142
1086	1.0796e+02	-1.6132	12.464657	0.000608	6.080286	1.030028	-0.000122
1087	1.0806e+02	-1.6330	12.359691	0.000527	5.269581	0.892691	-0.000105
1088	1.0816e+02	-1.6516	12.238577	0.000608	6.080286	1.030028	-0.000122
1089	1.0826e+02	-1.6731	12.125537	0.000567	5.674934	0.961360	-0.000114
1090	1.0836e+02	-1.6921	11.996349	0.000649	6.485638	1.098697	-0.000130
1091	1.0845e+02	-1.7122	11.871198	0.000628	6.282962	1.064363	-0.000126
1092	1.0855e+02	-1.7326	11.733935	0.000689	6.890991	1.167365	-0.000138
1093	1.0865e+02	-1.7524	11.653192	0.000405	4.053524	0.686686	-0.000081
1094	1.0875e+02	-1.7725	11.507855	0.000730	7.296343	1.236034	-0.000146
1095	1.0885e+02	-1.7924	11.386741	0.000608	6.080286	1.030028	-0.000122
1096	1.0895e+02	-1.8118	11.281776	0.000527	5.269581	0.892691	-0.000105
1097	1.0905e+02	-1.8311	11.144513	0.000689	6.890991	1.167365	-0.000138
1098	1.0915e+02	-1.8513	11.023399	0.000608	6.080286	1.030028	-0.000122
1099	1.0925e+02	-1.8716	10.918434	0.000527	5.269581	0.892691	-0.000105
1100	1.0935e+02	-1.8916	10.805394	0.000567	5.674934	0.961360	-0.000114
1101	1.0945e+02	-1.9113	10.684280	0.000608	6.080286	1.030028	-0.000122
1102	1.0955e+02	-1.9318	10.514720	0.000851	8.512400	1.442040	-0.000170
1103	1.0965e+02	-1.9514	10.413792	0.000507	5.066905	0.858357	-0.000101
1104	1.0975e+02	-1.9714	10.312863	0.000507	5.066905	0.858357	-0.000101
1105	1.0985e+02	-1.9907	10.179638	0.000669	6.688315	1.133031	-0.000134
1106	1.0995e+02	-2.0117	10.070635	0.000547	5.472257	0.927025	-0.000110
1107	1.1005e+02	-2.0315	9.949521	0.000608	6.080286	1.030028	-0.000122
1108	1.1015e+02	-2.0514	9.812258	0.000689	6.890991	1.167365	-0.000138
1109	1.1025e+02	-2.0718	9.719404	0.000466	4.661553	0.789688	-0.000093
1110	1.1035e+02	-2.0907	9.570030	0.000750	7.499019	1.270368	-0.000150
1111	1.1044e+02	-2.1119	9.509473	0.000304	3.040143	0.515014	-0.000061
1112	1.1054e+02	-2.1307	9.352025	0.000790	7.904372	1.339037	-0.000158
1113	1.1064e+02	-2.1507	9.243022	0.000547	5.472257	0.927025	-0.000110
1114	1.1074e+02	-2.1702	9.146131	0.000486	4.864229	0.824023	-0.000097
1115	1.1084e+02	-2.1909	9.016943	0.000649	6.485638	1.098697	-0.000130
1116	1.1094e+02	-2.2108	8.924089	0.000466	4.661553	0.789688	-0.000093
1117	1.1104e+02	-2.2298	8.734343	0.000953	9.525781	1.613711	-0.000191
1118	1.1114e+02	-2.2521	8.653600	0.000405	4.053524	0.686686	-0.000081
1119	1.1124e+02	-2.2707	8.536524	0.000588	5.877610	0.995694	-0.000118
1120	1.1134e+02	-2.2906	8.447707	0.000446	4.458876	0.755354	-0.000089
1121	1.1144e+02	-2.3100	8.306407	0.000709	7.093667	1.201700	-0.000142
1122	1.1154e+02	-2.3304	8.197404	0.000547	5.472257	0.927025	-0.000110
1123	1.1164e+02	-2.3497	8.116661	0.000405	4.053524	0.686686	-0.000081
1124	1.1174e+02	-2.3694	7.947102	0.000851	8.512400	1.442040	-0.000170
1125	1.1184e+02	-2.3901	7.821950	0.000628	6.282962	1.064363	-0.000126
1126	1.1194e+02	-2.4097	7.696799	0.000628	6.282962	1.064363	-0.000126
1127	1.1204e+02	-2.4304	7.640279	0.000284	2.837467	0.480680	-0.000057
1128	1.1214e+02	-2.4490	7.503017	0.000689	6.890991	1.167365	-0.000138
1129	1.1224e+02	-2.4693	7.353643	0.000750	7.499019	1.270368	-0.000150
1130	1.1234e+02	-2.4902	7.280974	0.000365	3.648172	0.618017	-0.000073
1131	1.1244e+02	-2.5094	7.135637	0.000730	7.296343	1.236034	-0.000146
1132	1.1253e+02	-2.5280	7.062969	0.000365	3.648172	0.618017	-0.000073
1133	1.1263e+02	-2.5491	6.893409	0.000851	8.512400	1.442040	-0.000170
1134	1.1273e+02	-2.5686	6.784407	0.000547	5.472257	0.927025	-0.000110
1135	1.1283e+02	-2.5891	6.675404	0.000547	5.472257	0.927025	-0.000110
1136	1.1293e+02	-2.6082	6.546216	0.000649	6.485638	1.098697	-0.000130
1137	1.1303e+02	-2.6286	6.437213	0.000547	5.472257	0.927025	-0.000110
1138	1.1313e+02	-2.6489	6.332247	0.000527	5.269581	0.892691	-0.000105
1139	1.1323e+02	-2.6682	6.267653	0.000324	3.242819	0.549348	-0.000065
1140	1.1333e+02	-2.6875	6.085982	0.000912	9.120429	1.545042	-0.000183
1141	1.1343e+02	-2.7080	5.976979	0.000547	5.472257	0.927025	-0.000110
1142	1.1353e+02	-2.7280	5.847791	0.000649	6.485638	1.098697	-0.000130
1143	1.1363e+02	-2.7478	5.742826	0.000527	5.269581	0.892691	-0.000105
1144	1.1373e+02	-2.7689	5.609600	0.000669	6.688315	1.133031	-0.000134
1145	1.1383e+02	-2.7882	5.500597	0.000547	5.472257	0.927025	-0.000110
1146	1.1393e+02	-2.8080	5.355261	0.000730	7.296343	1.236034	-0.000146
1147	1.1403e+02	-2.8279	5.274518	0.000405	4.053524	0.686686	-0.000081
1148	1.1413e+02	-2.8477	5.185701	0.000446	4.458876	0.755354	-0.000089
1149	1.1423e+02	-2.8686	5.040364	0.000730	7.296343	1.236034	-0.000146
1150	1.1433e+02	-2.8872	4.939436	0.000507	5.066905	0.858357	-0.000101
1151	1.1442e+02	-2.9076	4.806210	0.000669	6.688315	1.133031	-0.000134
1152	1.1452e+02	-2.9281	4.697207	0.000547	5.472257	0.927025	-0.000110
1153	1.1462e+02	-2.9474	4.604353	0.000466	4.661553	0.789688	-0.000093
1154	1.1472e+02	-2.9666	4.463054	0.000709	7.093667	1.201700	-0.000142
1155	1.1482e+02	-2.9871	4.350014	0.000567	5.674934	0.961360	-0.000114
1156	1.1492e+02	-3.0066	4.257160	0.000466	4.661553	0.789688	-0.000093
1157	1.1502e+02	-3.0270	4.123934	0.000669	6.688315	1.133031	-0.000134
1158	1.1512e+02	-3.0467	4.002820	0.000608	6.080286	1.030028	-0.000122
1159	1.1522e+02	-3.0674	3.877669	0.000628	6.282962	1.064363	-0.000126
1160	1.1532e+02	-3.0861	3.805000	0.000365	3.648172	0.618017	-0.000073
1161	1.1542e+02	-3.1073	3.643515	0.000811	8.107048	1.373371	-0.000162
1162	1.1552e+02	-3.1264	3.542587	0.000507	5.066905	0.858357	-0.000101
1163	1.1562e+02	-3.1473	3.389175	0.000770	7.701696	1.304703	-0.000154
1164	1.1572e+02	-3.1668	3.328618	0.000304	3.040143	0.515014	-0.000061
1165	1.1582e+02	-3.1863	3.207504	0.000608	6.080286	1.030028	-0.000122
1166	1.1592e+02	-3.2059	3.070242	0.000689	6.890991	1.167365	-0.000138
1167	1.1602e+02	-3.2259	2.957202	0.000567	5.674934	0.961360	-0.000114
1168	1.1612e+02	-3.2461	2.844162	0.000567	5.674934	0.961360	-0.000114
1169	1.1622e+02	-3.2669	2.743234	0.000507	5.066905	0.858357	-0.000101
1170	1.1632e+02	-3.2852	2.678640	0.000324	3.242819	0.549348	-0.000065
1171	1.1642e+02	-3.3064	2.509080	0.000851	8.512400	1.442040	-0.000170
1172	1.1651e+02	-3.3262	2.416226	0.000466	4.661553	0.789688	-0.000093
1173	1.1661e+02	-3.3453	2.254740	0.000811	8.107048	1.373371	-0.000162
1174	1.1671e+02	-3.3660	2.182072	0.000365	3.648172	0.618017	-0.000073
1175	1.1681e+02	-3.3856	2.089218	0.000466	4.661553	0.789688	-0.000093
1176	1.1691e+02	-3.4054	1.927732	0.000811	8.107048	1.373371	-0.000162
1177	1.1701e+02	-3.4254	1.830841	0.000486	4.864229	0.824023	-0.000097
1178	1.1711e+02	-3.4454	1.689541	0.000709	7.093667	1.201700	-0.000142
1179	1.1721e+02	-3.4653	1.596687	0.000466	4.661553	0.789688	-0.000093
1180	1.1731e+02	-3.4857	1.471536	0.000628	6.282962	1.064363	-0.000126
1181	1.1741e+02	-3.5047	1.366570	0.000527	5.269581	0.892691	-0.000105
1182	1.1751e+02	-3.5246	1.249494	0.000588	5.877610	0.995694	-0.000118
1183	1.1761e+02	-3.5452	1.188936	0.000304	3.040143	0.515014	-0.000061
1184	1.1771e+02	-3.5649	1.007265	0.000912	9.120429	1.545042	-0.000183
1185	1.1781e+02	-3.5844	0.890188	0.000588	5.877610	0.995694	-0.000118
1186	1.1791e+02	-3.6046	0.773111	0.000588	5.877610	0.995694	-0.000118
1187	1.1801e+02	-3.6252	0.688332	0.000426	4.256200	0.721020	-0.000085
1188	1.1811e+02	-3.6449	0.559143	0.000649	6.485638	1.098697	-0.000130
1189	1.1821e+02	-3.6661	0.450141	0.000547	5.472257	0.927025	-0.000110
1190	1.1831e+02	-3.6852	0.369398	0.000405	4.053524	0.686686	-0.000081
1191	1.1841e+02	-3.7039	0.220024	0.000750	7.499019	1.270368	-0.000150
1192	1.1850e+02	-3.7245	0.111021	0.000547	5.472257	0.927025	-0.000110
1193	1.1860e+02	-3.7443	-0.010093	0.000608	6.080286	1.030028	-0.000122
1194	1.1870e+02	-3.7648	-0.139281	0.000649	6.485638	1.098697	-0.000130
1195	1.1880e+02	-3.7844	-0.232135	0.000466	4.661553	0.789688	-0.000093
1196	1.1890e+02	-3.8037	-0.341138	0.000547	5.472257	0.927025	-0.000110
1197	1.1900e+02	-3.8228	-0.486475	0.000730	7.296343	1.236034	-0.000146
1198	1.1910e+02	-3.8438	-0.575292	0.000446	4.458876	0.755354	-0.000089
1199	1.1920e+02	-3.8640	-0.736777	0.000811	8.107048	1.373371	-0.000162
1200	1.1930e+02	-3.8838	-0.821557	0.000426	4.256200	0.721020	-0.000085
1201	1.1940e+02	-3.9037	-0.882114	0.000304	3.040143	0.515014	-0.000061
1202	1.1950e+02	-3.9236	-1.043600	0.000811	8.107048	1.373371	-0.000162
1203	1.1960e+02	-3.9432	-1.140491	0.000486	4.864229	0.824023	-0.000097
1204	1.1970e+02	-3.9631	-1.289865	0.000750	7.499019	1.270368	-0.000150
1205	1.1980e+02	-3.9832	-1.358496	0.000345	3.445495	0.583683	-0.000069
1206	1.1990e+02	-4.0041	-1.511907	0.000770	7.701696	1.304703	-0.000154
1207	1.2000e+02	-4.0231	-1.628984	0.000588	5.877610	0.995694	-0.000118
1208	1.2010e+02	-4.0431	-1.762210	0.000669	6.688315	1.133031	-0.000134
1209	1.2020e+02	-4.0631	-1.859101	0.000486	4.864229	0.824023	-0.000097
1210	1.2030e+02	-4.0826	-1.968104	0.000547	5.472257	0.927025	-0.000110
1211	1.2039e+02	-4.1028	-2.048846	0.000405	4.053524	0.686686	-0.000081
1212	1.2049e+02	-4.1225	-2.214369	0.000831	8.309724	1.407705	-0.000166
1213	1.2059e+02	-4.1432	-2.319334	0.000527	5.269581	0.892691	-0.000105
1214	1.2069e+02	-4.1632	-2.424300	0.000527	5.269581	0.892691	-0.000105
1215	1.2079e+02	-4.1826	-2.521191	0.000486	4.864229	0.824023	-0.000097
1216	1.2089e+02	-4.2030	-2.654417	0.000669	6.688315	1.133031	-0.000134
1217	1.2099e+02	-4.2223	-2.755345	0.000507	5.066905	0.858357	-0.000101
1218	1.2109e+02	-4.2433	-2.884533	0.000649	6.485638	1.098697	-0.000130
1219	1.2119e+02	-4.2633	-3.009685	0.000628	6.282962	1.064363	-0.000126
1220	1.2129e+02	-4.2827	-3.142910	0.000669	6.688315	1.133031	-0.000134
1221	1.2139e+02	-4.3021	-3.223653	0.000405	4.053524	0.686686	-0.000081
1222	1.2149e+02	-4.3222	-3.312470	0.000446	4.458876	0.755354	-0.000089
1223	1.2159e+02	-4.3432	-3.473955	0.000811	8.107048	1.373371	-0.000162
1224	1.2169e+02	-4.3619	-3.570847	0.000486	4.864229	0.824023	-0.000097
1225	1.2179e+02	-4.3814	-3.663701	0.000466	4.661553	0.789688	-0.000093
1226	1.2189e+02	-4.4022	-3.744443	0.000405	4.053524	0.686686	-0.000081
1227	1.2199e+02	-4.4228	-3.869595	0.000628	6.282962	1.064363	-0.000126
1228	1.2209e+02	-4.4412	-4.014931	0.000730	7.296343	1.236034	-0.000146
1229	1.2219e+02	-4.4611	-4.111823	0.000486	4.864229	0.824023	-0.000097
1230	1.2229e+02	-4.4824	-4.249085	0.000689	6.890991	1.167365	-0.000138
1231	1.2239e+02	-4.5023	-4.321754	0.000365	3.648172	0.618017	-0.000073
1232	1.2248e+02	-4.5218	-4.450942	0.000649	6.485638	1.098697	-0.000130
1233	1.2258e+02	-4.5413	-4.572056	0.000608	6.080286	1.030028	-0.000122
1234	1.2268e+02	-4.5609	-4.664910	0.000466	4.661553	0.789688	-0.000093
1235	1.2278e+02	-4.5819	-4.798136	0.000669	6.688315	1.133031	-0.000134
1236	1.2288e+02	-4.6008	-4.886953	0.000446	4.458876	0.755354	-0.000089
1237	1.2298e+02	-4.6220	-5.004030	0.000588	5.877610	0.995694	-0.000118
1238	1.2308e+02	-4.6414	-5.181664	0.000892	8.917753	1.510708	-0.000179
1239	1.2318e+02	-4.6615	-5.226072	0.000223	2.229438	0.377677	-0.000045
1240	1.2328e+02	-4.6812	-5.387558	0.000811	8.107048	1.373371	-0.000162
1241	1.2338e+02	-4.7012	-5.504635	0.000588	5.877610	0.995694	-0.000118
1242	1.2348e+02	-4.7215	-5.573266	0.000345	3.445495	0.583683	-0.000069
1243	1.2358e+02	-4.7411	-5.726677	0.000770	7.701696	1.304703	-0.000154
1244	1.2368e+02	-4.7604	-5.855865	0.000649	6.485638	1.098697	-0.000130
1245	1.2378e+02	-4.7800	-5.932571	0.000385	3.850848	0.652351	-0.000077
1246	1.2388e+02	-4.8012	-6.061759	0.000649	6.485638	1.098697	-0.000130
1247	1.2398e+02	-4.8210	-6.194985	0.000669	6.688315	1.133031	-0.000134
1248	1.2408e+02	-4.8395	-6.255542	0.000304	3.040143	0.515014	-0.000061
1249	1.2418e+02	-4.8602	-6.408953	0.000770	7.701696	1.304703	-0.000154
1250	1.2428e+02	-4.8800	-6.513919	0.000527	5.269581	0.892691	-0.000105
1251	1.2438e+02	-4.9001	-6.651181	0.000689	6.890991	1.167365	-0.000138
1252	1.2447e+02	-4.9204	-6.731924	0.000405	4.053524	0.686686	-0.000081
1253	1.2457e+02	-4.9396	-6.857075	0.000628	6.282962	1.064363	-0.000126
1254	1.2467e+02	-4.9602	-6.974152	0.000588	5.877610	0.995694	-0.000118
1255	1.2477e+02	-4.9797	-7.050858	0.000385	3.850848	0.652351	-0.000077
1256	1.2487e+02	-5.0002	-7.208306	0.000790	7.904372	1.339037	-0.000158
1257	1.2497e+02	-5.0191	-7.297123	0.000446	4.458876	0.755354	-0.000089
1258	1.2507e+02	-5.0385	-7.402088	0.000527	5.269581	0.892691	-0.000105
1259	1.2517e+02	-5.0592	-7.507054	0.000527	5.269581	0.892691	-0.000105
1260	1.2527e+02	-5.0784	-7.595871	0.000446	4.458876	0.755354	-0.000089
1261	1.2537e+02	-5.0990	-7.745245	0.000750	7.499019	1.270368	-0.000150
1262	1.2547e+02	-5.1187	-7.866359	0.000608	6.080286	1.030028	-0.000122
1263	1.2557e+02	-5.1393	-7.959213	0.000466	4.661553	0.789688	-0.000093
1264	1.2567e+02	-5.1587	-8.104550	0.000730	7.296343	1.236034	-0.000146
1265	1.2577e+02	-5.1782	-8.209516	0.000527	5.269581	0.892691	-0.000105
1266	1.2587e+02	-5.1990	-8.302370	0.000466	4.661553	0.789688	-0.000093
1267	1.2597e+02	-5.2184	-8.443669	0.000709	7.093667	1.201700	-0.000142
1268	1.2607e+02	-5.2391	-8.576895	0.000669	6.688315	1.133031	-0.000134
1269	1.2617e+02	-5.2580	-8.689935	0.000567	5.674934	0.961360	-0.000114
1270	1.2627e+02	-5.2779	-8.774715	0.000426	4.256200	0.721020	-0.000085
1271	1.2636e+02	-5.2973	-8.924089	0.000750	7.499019	1.270368	-0.000150
1272	1.2646e+02	-5.3188	-8.996757	0.000365	3.648172	0.618017	-0.000073
1273	1.2656e+02	-5.3384	-9.142094	0.000730	7.296343	1.236034	-0.000146
1274	1.2666e+02	-5.3578	-9.226874	0.000426	4.256200	0.721020	-0.000085
1275	1.2676e+02	-5.3772	-9.343951	0.000588	5.877610	0.995694	-0.000118
1276	1.2686e+02	-5.3986	-9.444879	0.000507	5.066905	0.858357	-0.000101
1277	1.2696e+02	-5.4184	-9.574067	0.000649	6.485638	1.098697	-0.000130
1278	1.2706e+02	-5.4382	-9.715367	0.000709	7.093667	1.201700	-0.000142
1279	1.2716e+02	-5.4572	-9.775924	0.000304	3.040143	0.515014	-0.000061
1280	1.2726e+02	-5.4778	-9.933372	0.000790	7.904372	1.339037	-0.000158
1281	1.2736e+02	-5.4980	-10.046412	0.000567	5.674934	0.961360	-0.000114
1282	1.2746e+02	-5.5179	-10.131192	0.000426	4.256200	0.721020	-0.000085
1283	1.2756e+02	-5.5374	-10.244232	0.000567	5.674934	0.961360	-0.000114
1284	1.2766e+02	-5.5573	-10.361309	0.000588	5.877610	0.995694	-0.000118
1285	1.2776e+02	-5.5772	-10.506646	0.000730	7.296343	1.236034	-0.000146
1286	1.2786e+02	-5.5972	-10.595463	0.000446	4.458876	0.755354	-0.000089
1287	1.2796e+02	-5.6172	-10.756948	0.000811	8.107048	1.373371	-0.000162
1288	1.2806e+02	-5.6380	-10.857877	0.000507	5.066905	0.858357	-0.000101
1289	1.2816e+02	-5.6570	-10.930545	0.000365	3.648172	0.618017	-0.000073
1290	1.2826e+02	-5.6769	-11.059733	0.000649	6.485638	1.098697	-0.000130
1291	1.2835e+02	-5.6967	-11.180847	0.000608	6.080286	1.030028	-0.000122
1292	1.2845e+02	-5.7169	-11.318110	0.000689	6.890991	1.167365	-0.000138
1293	1.2855e+02	-5.7359	-11.394816	0.000385	3.850848	0.652351	-0.000077
1294	1.2865e+02	-5.7568	-11.528041	0.000669	6.688315	1.133031	-0.000134
1295	1.2875e+02	-5.7773	-11.637044	0.000547	5.472257	0.927025	-0.000110
1296	1.2885e+02	-5.7968	-11.762195	0.000628	6.282962	1.064363	-0.000126
1297	1.2895e+02	-5.8167	-11.871198	0.000547	5.472257	0.927025	-0.000110
1298	1.2905e+02	-5.8356	-11.968089	0.000486	4.864229	0.824023	-0.000097
1299	1.2915e+02	-5.8569	-12.117463	0.000750	7.499019	1.270368	-0.000150
1300	1.2925e+02	-5.8768	-12.186094	0.000345	3.445495	0.583683	-0.000069
1301	1.2935e+02	-5.8963	-12.351617	0.000831	8.309724	1.407705	-0.000166
1302	1.2945e+02	-5.9167	-12.484842	0.000669	6.688315	1.133031	-0.000134
1303	1.2955e+02	-5.9358	-12.630179	0.000730	7.296343	1.236034	-0.000146
1304	1.2965e+02	-5.9566	-12.682662	0.000263	2.634791	0.446346	-0.000053
1305	1.2975e+02	-5.9753	-12.823962	0.000709	7.093667	1.201700	-0.000142
1306	1.2985e+02	-5.9964	-12.965261	0.000709	7.093667	1.201700	-0.000142
1307	1.2995e+02	-6.0161	-13.050041	0.000426	4.256200	0.721020	-0.000085
1308	1.3005e+02	-6.0358	-13.179230	0.000649	6.485638	1.098697	-0.000130
1309	1.3015e+02	-6.0559	-13.356864	0.000892	8.917753	1.510708	-0.000179
1310	1.3025e+02	-6.0753	-13.498163	0.000709	7.093667	1.201700	-0.000142
1311	1.3034e+02	-6.0965	-13.574869	0.000385	3.850848	0.652351	-0.000077
1312	1.3044e+02	-6.1151	-13.667723	0.000466	4.661553	0.789688	-0.000093
1313	1.3054e+02	-6.1346	-13.817097	0.000750	7.499019	1.270368	-0.000150
1314	1.3064e+02	-6.1556	-13.938211	0.000608	6.080286	1.030028	-0.000122
1315	1.3074e+02	-6.1754	-14.055288	0.000588	5.877610	0.995694	-0.000118
1316	1.3084e+02	-6.1957	-14.184476	0.000649	6.485638	1.098697	-0.000130
1317	1.3094e+02	-6.2151	-14.337888	0.000770	7.701696	1.304703	-0.000154
1318	1.3104e+02	-6.2362	-14.491299	0.000770	7.701696	1.304703	-0.000154
1319	1.3114e+02	-6.2547	-14.604339	0.000567	5.674934	0.961360	-0.000114
1320	1.3124e+02	-6.2740	-14.721415	0.000588	5.877610	0.995694	-0.000118
1321	1.3134e+02	-6.2949	-14.850604	0.000649	6.485638	1.098697	-0.000130
1322	1.3144e+02	-6.3136	-14.983829	0.000669	6.688315	1.133031	-0.000134
1323	1.3154e+02	-6.3350	-15.113018	0.000649	6.485638	1.098697	-0.000130
1324	1.3164e+02	-6.3542	-15.254317	0.000709	7.093667	1.201700	-0.000142
1325	1.3174e+02	-6.3734	-15.359283	0.000527	5.269581	0.892691	-0.000105
1326	1.3184e+02	-6.3940	-15.492508	0.000669	6.688315	1.133031	-0.000134
1327	1.3194e+02	-6.4147	-15.597474	0.000527	5.269581	0.892691	-0.000105
1328	1.3204e+02	-6.4348	-15.762996	0.000831	8.309724	1.407705	-0.000166
1329	1.3214e+02	-6.4538	-15.855851	0.000466	4.661553	0.789688	-0.000093
1330	1.3224e+02	-6.4742	-16.045596	0.000953	9.525781	1.613711	-0.000191
1331	1.3234e+02	-6.4935	-16.158636	0.000567	5.674934	0.961360	-0.000114
1332	1.3243e+02	-6.5136	-16.255527	0.000486	4.864229	0.824023	-0.000097
1333	1.3253e+02	-6.5332	-16.396827	0.000709	7.093667	1.201700	-0.000142
1334	1.3263e+02	-6.5533	-16.558312	0.000811	8.107048	1.373371	-0.000162
1335	1.3273e+02	-6.5738	-16.687501	0.000649	6.485638	1.098697	-0.000130
1336	1.3283e+02	-6.5936	-16.857060	0.000851	8.512400	1.442040	-0.000170
1337	1.3293e+02	-6.6129	-16.978174	0.000608	6.080286	1.030028	-0.000122
1338	1.3303e+02	-6.6330	-17.095251	0.000588	5.877610	0.995694	-0.000118
1339	1.3313e+02	-6.6534	-17.236551	0.000709	7.093667	1.201700	-0.000142
1340	1.3323e+02	-6.6731	-17.357665	0.000608	6.080286	1.030028	-0.000122
1341	1.3333e+02	-6.6938	-17.498965	0.000709	7.093667	1.201700	-0.000142
1342	1.3343e+02	-6.7126	-17.640265	0.000709	7.093667	1.201700	-0.000142
1343	1.3353e+02	-6.7337	-17.797713	0.000790	7.904372	1.339037	-0.000158
1344	1.3363e+02	-6.7525	-17.898641	0.000507	5.066905	0.858357	-0.000101
1345	1.3373e+02	-6.7733	-18.120684	0.001115	11.147191	1.888385	-0.000223
1346	1.3383e+02	-6.7928	-18.225649	0.000527	5.269581	0.892691	-0.000105
1347	1.3393e+02	-6.8133	-18.342726	0.000588	5.877610	0.995694	-0.000118
1348	1.3403e+02	-6.8323	-18.540546	0.000993	9.931134	1.682380	-0.000199
1349	1.3413e+02	-6.8526	-18.613214	0.000365	3.648172	0.618017	-0.000073
1350	1.3423e+02	-6.8729	-18.802960	0.000953	9.525781	1.613711	-0.000191
1351	1.3432e+02	-6.8921	-18.928111	0.000628	6.282962	1.064363	-0.000126
1352	1.3442e+02	-6.9127	-19.105745	0.000892	8.917753	1.510708	-0.000179
1353	1.3452e+02	-6.9327	-19.230896	0.000628	6.282962	1.064363	-0.000126
1354	1.3462e+02	-6.9523	-19.356047	0.000628	6.282962	1.064363	-0.000126
1355	1.3472e+02	-6.9724	-19.525607	0.000851	8.512400	1.442040	-0.000170
1356	1.3482e+02	-6.9910	-19.666907	0.000709	7.093667	1.201700	-0.000142
1357	1.3492e+02	-7.0117	-19.836466	0.000851	8.512400	1.442040	-0.000170
1358	1.3502e+02	-7.0322	-19.957581	0.000608	6.080286	1.030028	-0.000122
1359	1.3512e+02	-7.0508	-20.131177	0.000872	8.715077	1.476374	-0.000174
1360	1.3522e+02	-7.0715	-20.256329	0.000628	6.282962	1.064363	-0.000126
1361	1.3532e+02	-7.0917	-20.405703	0.000750	7.499019	1.270368	-0.000150
1362	1.3542e+02	-7.1130	-20.567188	0.000811	8.107048	1.373371	-0.000162
1363	1.3552e+02	-7.1304	-20.760971	0.000973	9.728457	1.648045	-0.000195
1364	1.3562e+02	-7.1509	-20.922456	0.000811	8.107048	1.373371	-0.000162
1365	1.3572e+02	-7.1716	-21.067793	0.000730	7.296343	1.236034	-0.000146
1366	1.3582e+02	-7.1920	-21.253501	0.000932	9.323105	1.579377	-0.000187
1367	1.3592e+02	-7.2119	-21.382689	0.000649	6.485638	1.098697	-0.000130
1368	1.3602e+02	-7.2308	-21.528026	0.000730	7.296343	1.236034	-0.000146
1369	1.3612e+02	-7.2508	-21.701623	0.000872	8.715077	1.476374	-0.000174
1370	1.3622e+02	-7.2714	-21.883294	0.000912	9.120429	1.545042	-0.000183
1371	1.3631e+02	-7.2913	-22.032668	0.000750	7.499019	1.270368	-0.000150
1372	1.3641e+02	-7.3106	-22.202228	0.000851	8.512400	1.442040	-0.000170
1373	1.3651e+02	-7.3300	-22.363713	0.000811	8.107048	1.373371	-0.000162
1374	1.3661e+02	-7.3500	-22.505013	0.000709	7.093667	1.201700	-0.000142
1375	1.3671e+02	-7.3705	-22.698796	0.000973	9.728457	1.648045	-0.000195
1376	1.3681e+02	-7.3907	-22.844133	0.000730	7.296343	1.236034	-0.000146
1377	1.3691e+02	-7.4103	-23.050026	0.001034	10.336486	1.751048	-0.000207
1378	1.3701e+02	-7.4307	-23.219586	0.000851	8.512400	1.442040	-0.000170
1379	1.3711e+02	-7.4503	-23.340700	0.000608	6.080286	1.030028	-0.000122
1380	1.3721e+02	-7.4707	-23.526409	0.000932	9.323105	1.579377	-0.000187
1381	1.3731e+02	-7.4905	-23.752488	0.001135	11.349867	1.922720	-0.000227
1382	1.3741e+02	-7.5098	-23.913974	0.000811	8.107048	1.373371	-0.000162
1383	1.3751e+02	-7.5302	-24.127942	0.001074	10.741838	1.819717	-0.000215
1384	1.3761e+02	-7.5500	-24.240982	0.000567	5.674934	0.961360	-0.000114
1385	1.3771e+02	-7.5705	-24.446875	0.001034	10.336486	1.751048	-0.000207
1386	1.3781e+02	-7.5891	-24.632584	0.000932	9.323105	1.579377	-0.000187
1387	1.3791e+02	-7.6094	-24.781958	0.000750	7.499019	1.270368	-0.000150
1388	1.3801e+02	-7.6286	-24.947480	0.000831	8.309724	1.407705	-0.000166
1389	1.3811e+02	-7.6485	-25.096854	0.000750	7.499019	1.270368	-0.000150
1390	1.3821e+02	-7.6686	-25.302748	0.001034	10.336486	1.751048	-0.000207
1391	1.3831e+02	-7.6891	-25.435974	0.000669	6.688315	1.133031	-0.000134
1392	1.3840e+02	-7.7094	-25.629756	0.000973	9.728457	1.648045	-0.000195
1393	1.3850e+02	-7.7347	-25.863910	0.001176	11.755219	1.991388	-0.000235
1394	1.3860e+02	-7.7489	-26.029433	0.000831	8.309724	1.407705	-0.000166
1395	1.3870e+02	-7.7692	-26.231289	0.001013	10.133810	1.716714	-0.000203
1396	1.3880e+02	-7.7886	-26.384701	0.000770	7.701696	1.304703	-0.000154
1397	1.3890e+02	-7.8088	-26.602706	0.001094	10.944515	1.854051	-0.000219
1398	1.3900e+02	-7.8284	-26.768229	0.000831	8.309724	1.407705	-0.000166
1399	1.3910e+02	-7.8476	-26.957974	0.000953	9.525781	1.613711	-0.000191
1400	1.3920e+02	-7.8674	-27.163868	0.001034	10.336486	1.751048	-0.000207
1401	1.3930e+02	-7.8879	-27.357650	0.000973	9.728457	1.648045	-0.000195
1402	1.3940e+02	-7.9083	-27.515099	0.000790	7.904372	1.339037	-0.000158
1403	1.3950e+02	-7.9272	-27.745215	0.001155	11.552543	1.957054	-0.000231
1404	1.3960e+02	-7.9487	-27.938998	0.000973	9.728457	1.648045	-0.000195
1405	1.3970e+02	-7.9686	-28.116632	0.000892	8.917753	1.510708	-0.000179
1406	1.3980e+02	-7.9883	-28.330600	0.001074	10.741838	1.819717	-0.000215
1407	1.3990e+02	-8.0069	-28.524383	0.000973	9.728457	1.648045	-0.000195
1408	1.4000e+02	-8.0280	-28.706054	0.000912	9.120429	1.545042	-0.000183
1409	1.4010e+02	-8.0467	-28.899836	0.000973	9.728457	1.648045	-0.000195
1410	1.4020e+02	-8.0667	-29.138027	0.001196	11.957896	2.025722	-0.000239
1411	1.4029e+02	-8.0872	-29.339884	0.001013	10.133810	1.716714	-0.000203
1412	1.4039e+02	-8.1071	-29.553852	0.001074	10.741838	1.819717	-0.000215
1413	1.4049e+02	-8.1268	-29.695152	0.000709	7.093667	1.201700	-0.000142
1414	1.4059e+02	-8.1467	-29.965640	0.001358	13.579305	2.300397	-0.000272
1415	1.4069e+02	-8.1665	-30.171534	0.001034	10.336486	1.751048	-0.000207
1416	1.4079e+02	-8.1873	-30.385502	0.001074	10.741838	1.819717	-0.000215
1417	1.4089e+02	-8.2071	-30.571210	0.000932	9.323105	1.579377	-0.000187
1418	1.4099e+02	-8.2262	-30.789216	0.001094	10.944515	1.854051	-0.000219
1419	1.4109e+02	-8.2474	-31.007221	0.001094	10.944515	1.854051	-0.000219
1420	1.4119e+02	-8.2664	-31.188892	0.000912	9.120429	1.545042	-0.000183
1421	1.4129e+02	-8.2872	-31.455343	0.001338	13.376629	2.266062	-0.000268
1422	1.4139e+02	-8.3073	-31.657200	0.001013	10.133810	1.716714	-0.000203
1423	1.4149e+02	-8.3255	-31.871168	0.001074	10.741838	1.819717	-0.000215
1424	1.4159e+02	-8.3459	-32.101285	0.001155	11.552543	1.957054	-0.000231
1425	1.4169e+02	-8.3664	-32.323327	0.001115	11.147191	1.888385	-0.000223
1426	1.4179e+02	-8.3864	-32.545370	0.001115	11.147191	1.888385	-0.000223
1427	1.4189e+02	-8.4061	-32.739152	0.000973	9.728457	1.648045	-0.000195
1428	1.4199e+02	-8.4259	-32.997529	0.001297	12.971277	2.197394	-0.000260
1429	1.4209e+02	-8.4460	-33.195349	0.000993	9.931134	1.682380	-0.000199
1430	1.4219e+02	-8.4663	-33.425465	0.001155	11.552543	1.957054	-0.000231
1431	1.4228e+02	-8.4868	-33.655582	0.001155	11.552543	1.957054	-0.000231
1432	1.4238e+02	-8.5054	-33.905884	0.001257	12.565924	2.128725	-0.000252
1433	1.4248e+02	-8.5256	-34.156187	0.001257	12.565924	2.128725	-0.000252
1434	1.4258e+02	-8.5446	-34.382267	0.001135	11.349867	1.922720	-0.000227
1435	1.4268e+02	-8.5658	-34.584123	0.001013	10.133810	1.716714	-0.000203
1436	1.4278e+02	-8.5856	-34.826351	0.001216	12.160572	2.060057	-0.000243
1437	1.4288e+02	-8.6057	-35.060505	0.001176	11.755219	1.991388	-0.000235
1438	1.4298e+02	-8.6261	-35.306771	0.001236	12.363248	2.094391	-0.000248
1439	1.4308e+02	-8.6456	-35.532850	0.001135	11.349867	1.922720	-0.000227
1440	1.4318e+02	-8.6652	-35.807375	0.001378	13.781981	2.334731	-0.000276
1441	1.4328e+02	-8.6847	-36.037492	0.001155	11.552543	1.957054	-0.000231
1442	1.4338e+02	-8.7048	-36.307980	0.001358	13.579305	2.300397	-0.000272
1443	1.4348e+02	-8.7238	-36.558283	0.001257	12.565924	2.128725	-0.000252
1444	1.4358e+02	-8.7447	-36.731880	0.000872	8.715077	1.476374	-0.000174
1445	1.4368e+02	-8.7653	-37.018516	0.001439	14.390010	2.437734	-0.000288
1446	1.4378e+02	-8.7845	-37.256707	0.001196	11.957896	2.025722	-0.000239
1447	1.4388e+02	-8.8036	-37.535270	0.001398	13.984658	2.369065	-0.000280
1448	1.4398e+02	-8.8239	-37.777498	0.001216	12.160572	2.060057	-0.000243
1449	1.4408e+02	-8.8438	-38.039911	0.001317	13.173953	2.231728	-0.000264
1450	1.4418e+02	-8.8644	-38.274065	0.001176	11.755219	1.991388	-0.000235
1451	1.4428e+02	-8.8835	-38.580888	0.001540	15.403391	2.609405	-0.000308
1452	1.4437e+02	-8.9044	-38.839264	0.001297	12.971277	2.197394	-0.000260
1453	1.4447e+02	-8.9240	-39.105715	0.001338	13.376629	2.266062	-0.000268
1454	1.4457e+02	-8.9429	-39.360055	0.001277	12.768600	2.163059	-0.000256
1455	1.4467e+02	-8.9643	-39.670914	0.001561	15.606067	2.643739	-0.000312
1456	1.4477e+02	-8.9845	-39.909105	0.001196	11.957896	2.025722	-0.000239
1457	1.4487e+02	-9.0032	-40.163445	0.001277	12.768600	2.163059	-0.000256
1458	1.4497e+02	-9.0230	-40.425859	0.001317	13.173953	2.231728	-0.000264
1459	1.4507e+02	-9.0440	-40.708458	0.001419	14.187334	2.403399	-0.000284
1460	1.4517e+02	-9.0634	-41.019318	0.001561	15.606067	2.643739	-0.000312
1461	1.4527e+02	-9.0831	-41.249434	0.001155	11.552543	1.957054	-0.000231
1462	1.4537e+02	-9.1019	-41.564331	0.001581	15.808743	2.678074	-0.000316
1463	1.4547e+02	-9.1229	-41.822708	0.001297	12.971277	2.197394	-0.000260
1464	1.4557e+02	-9.1428	-42.101270	0.001398	13.984658	2.369065	-0.000280
1465	1.4567e+02	-9.1626	-42.387907	0.001439	14.390010	2.437734	-0.000288
1466	1.4577e+02	-9.1827	-42.710878	0.001621	16.214096	2.746742	-0.000325
1467	1.4587e+02	-9.2030	-42.973291	0.001317	13.173953	2.231728	-0.000264
1468	1.4597e+02	-9.2227	-43.304336	0.001662	16.619448	2.815411	-0.000333
1469	1.4607e+02	-9.2426	-43.554639	0.001257	12.565924	2.128725	-0.000252
1470	1.4617e+02	-9.2627	-43.849350	0.001480	14.795362	2.506402	-0.000296
1471	1.4626e+02	-9.2831	-44.160209	0.001561	15.606067	2.643739	-0.000312
1472	1.4636e+02	-9.3025	-44.511440	0.001763	17.632829	2.987082	-0.000353
1473	1.4646e+02	-9.3224	-44.802114	0.001459	14.592686	2.472068	-0.000292
1474	1.4656e+02	-9.3423	-45.084713	0.001419	14.187334	2.403399	-0.000284
1475	1.4666e+02	-9.3616	-45.444018	0.001804	18.038182	3.055751	-0.000361
1476	1.4676e+02	-9.3820	-45.714507	0.001358	13.579305	2.300397	-0.000272
1477	1.4686e+02	-9.4016	-46.045552	0.001662	16.619448	2.815411	-0.000333
1478	1.4696e+02	-9.4217	-46.380634	0.001682	16.822124	2.849745	-0.000337
1479	1.4706e+02	-9.4415	-46.675345	0.001480	14.795362	2.506402	-0.000296
1480	1.4716e+02	-9.4609	-47.026576	0.001763	17.632829	2.987082	-0.000353
1481	1.4726e+02	-9.4810	-47.301101	0.001378	13.781981	2.334731	-0.000276
1482	1.4736e+02	-9.5018	-47.652332	0.001763	17.632829	2.987082	-0.000353
1483	1.4746e+02	-9.5218	-47.967228	0.001581	15.808743	2.678074	-0.000316
1484	1.4756e+02	-9.5411	-48.298273	0.001662	16.619448	2.815411	-0.000333
1485	1.4766e+02	-9.5609	-48.669690	0.001865	18.646210	3.158754	-0.000373
1486	1.4776e+02	-9.5810	-48.996698	0.001642	16.416772	2.781076	-0.000329
1487	1.4786e+02	-9.6019	-49.327743	0.001662	16.619448	2.815411	-0.000333
1488	1.4796e+02	-9.6208	-49.650714	0.001621	16.214096	2.746742	-0.000325
1489	1.4806e+02	-9.6405	-50.010019	0.001804	18.038182	3.055751	-0.000361
1490	1.4816e+02	-9.6616	-50.381435	0.001865	18.646210	3.158754	-0.000373
1491	1.4825e+02	-9.6811	-50.712481	0.001662	16.619448	2.815411	-0.000333
1492	1.4835e+02	-9.7003	-51.087934	0.001885	18.848886	3.193088	-0.000377
1493	1.4845e+02	-9.7202	-51.398794	0.001561	15.606067	2.643739	-0.000312
1494	1.4855e+02	-9.7407	-51.802507	0.002027	20.267620	3.433428	-0.000406
1495	1.4865e+02	-9.7602	-52.153738	0.001763	17.632829	2.987082	-0.000353
1496	1.4875e+02	-9.7800	-52.488820	0.001682	16.822124	2.849745	-0.000337
1497	1.4885e+02	-9.8001	-52.864274	0.001885	18.848886	3.193088	-0.000377
1498	1.4895e+02	-9.8195	-53.272025	0.002047	20.470296	3.467762	-0.000410
1499	1.4905e+02	-9.8392	-53.639404	0.001844	18.443534	3.124419	-0.000369
1500	1.4915e+02	-9.8608	-53.954301	0.001581	15.808743	2.678074	-0.000316
1501	1.4925e+02	-9.8796	-54.362051	0.002047	20.470296	3.467762	-0.000410
1502	1.4935e+02	-9.9002	-54.773839	0.002067	20.672972	3.502096	-0.000414
1503	1.4945e+02	-9.9194	-55.145256	0.001865	18.646210	3.158754	-0.000373
1504	1.4955e+02	-9.9393	-55.492449	0.001743	17.430153	2.952748	-0.000349
1505	1.4965e+02	-9.9604	-55.920386	0.002148	21.483677	3.639433	-0.000430
1506	1.4975e+02	-9.9799	-56.324099	0.002027	20.267620	3.433428	-0.000406
1507	1.4985e+02	-9.9991	-56.691479	0.001844	18.443534	3.124419	-0.000369
1508	1.4995e+02	-9.9792	-56.978115	-0.001439	-14.390010	-2.437734	-0.000288
1509	1.5005e+02	-9.9599	-57.196121	-0.001094	-10.944515	-1.854051	-0.000219
1510	1.5015e+02	-9.9391	-57.422200	-0.001135	-11.349867	-1.922720	-0.000227
1511	1.5025e+02	-9.9193	-57.636168	-0.001074	-10.741838	-1.819717	-0.000215
1512	1.5034e+02	-9.9005	-57.846099	-0.001054	-10.539162	-1.785382	-0.000211
1513	1.5044e+02	-9.8804	-58.068142	-0.001115	-11.147191	-1.888385	-0.000223
1514	1.5054e+02	-9.8593	-58.213479	-0.000730	-7.296343	-1.236034	-0.000146
1515	1.5064e+02	-9.8402	-58.395150	-0.000912	-9.120429	-1.545042	-0.000183
1516	1.5074e+02	-9.8193	-58.532412	-0.000689	-6.890991	-1.167365	-0.000138
1517	1.5084e+02	-9.7993	-58.738306	-0.001034	-10.336486	-1.751048	-0.000207
1518	1.5094e+02	-9.7798	-58.875569	-0.000689	-6.890991	-1.167365	-0.000138
1519	1.5104e+02	-9.7606	-59.004757	-0.000649	-6.485638	-1.098697	-0.000130
1520	1.5114e+02	-9.7415	-59.113760	-0.000547	-5.472257	-0.927025	-0.000110
1521	1.5124e+02	-9.7212	-59.267171	-0.000770	-7.701696	-1.304703	-0.000154
1522	1.5134e+02	-9.7017	-59.355988	-0.000446	-4.458876	-0.755354	-0.000089
1523	1.5144e+02	-9.6802	-59.529585	-0.000872	-8.715077	-1.476374	-0.000174
1524	1.5154e+02	-9.6614	-59.606291	-0.000385	-3.850848	-0.652351	-0.000077
1525	1.5164e+02	-9.6402	-59.711256	-0.000527	-5.269581	-0.892691	-0.000105
1526	1.5174e+02	-9.6216	-59.848519	-0.000689	-6.890991	-1.167365	-0.000138
1527	1.5184e+02	-9.6007	-59.933299	-0.000426	-4.256200	-0.721020	-0.000085
1528	1.5194e+02	-9.5821	-60.050376	-0.000588	-5.877610	-0.995694	-0.000118
1529	1.5204e+02	-9.5602	-60.123044	-0.000365	-3.648172	-0.618017	-0.000073
1530	1.5214e+02	-9.5416	-60.228010	-0.000527	-5.269581	-0.892691	-0.000105
1531	1.5224e+02	-9.5213	-60.316826	-0.000446	-4.458876	-0.755354	-0.000089
1532	1.5233e+02	-9.5018	-60.377384	-0.000304	-3.040143	-0.515014	-0.000061
1533	1.5243e+02	-9.4812	-60.482349	-0.000527	-5.269581	-0.892691	-0.000105
1534	1.5253e+02	-9.4624	-60.494460	-0.000061	-0.608029	-0.103003	-0.000012
1535	1.5263e+02	-9.4417	-60.591352	-0.000486	-4.864229	-0.824023	-0.000097
1536	1.5273e+02	-9.4217	-60.631723	-0.000203	-2.026762	-0.343343	-0.000041
1537	1.5283e+02	-9.4016	-60.740726	-0.000547	-5.472257	-0.927025	-0.000110
1538	1.5293e+02	-9.3831	-60.825506	-0.000426	-4.256200	-0.721020	-0.000085
1539	1.5303e+02	-9.3631	-60.833580	-0.000041	-0.405352	-0.068669	-0.000008
1540	1.5313e+02	-9.3430	-60.853766	-0.000101	-1.013381	-0.171671	-0.000020
1541	1.5323e+02	-9.3216	-60.926434	-0.000365	-3.648172	-0.618017	-0.000073
1542	1.5333e+02	-9.3022	-60.999102	-0.000365	-3.648172	-0.618017	-0.000073
1543	1.5343e+02	-9.2828	-61.027362	-0.000142	-1.418733	-0.240340	-0.000028
1544	1.5353e+02	-9.2624	-61.112142	-0.000426	-4.256200	-0.721020	-0.000085
1545	1.5363e+02	-9.2416	-61.148476	-0.000182	-1.824086	-0.309008	-0.000037
1546	1.5373e+02	-9.2216	-61.168662	-0.000101	-1.013381	-0.171671	-0.000020
1547	1.5383e+02	-9.2023	-61.180774	-0.000061	-0.608029	-0.103003	-0.000012
1548	1.5393e+02	-9.1829	-61.245368	-0.000324	-3.242819	-0.549348	-0.000065
1549	1.5403e+02	-9.1632	-61.249405	-0.000020	-0.202676	-0.034334	-0.000004
1550	1.5413e+02	-9.1426	-61.277665	-0.000142	-1.418733	-0.240340	-0.000028
1551	1.5422e+02	-9.1223	-61.326110	-0.000243	-2.432114	-0.412011	-0.000049
1552	1.5432e+02	-9.1028	-61.309962	0.000081	0.810705	0.137337	0.000016
1553	1.5442e+02	-9.0823	-61.358408	-0.000243	-2.432114	-0.412011	-0.000049
1554	1.5452e+02	-9.0631	-61.346296	0.000061	0.608029	0.103003	0.000012
1555	1.5462e+02	-9.0430	-61.366482	-0.000101	-1.013381	-0.171671	-0.000020
1556	1.5472e+02	-9.0240	-61.386667	-0.000101	-1.013381	-0.171671	-0.000020
1557	1.5482e+02	-9.0034	-61.423002	-0.000182	-1.824086	-0.309008	-0.000037
1558	1.5492e+02	-8.9833	-61.435113	-0.000061	-0.608029	-0.103003	-0.000012
1559	1.5502e+02	-8.9641	-61.410890	0.000122	1.216057	0.206006	0.000024
1560	1.5512e+02	-8.9441	-61.443187	-0.000162	-1.621410	-0.274674	-0.000032
1561	1.5522e+02	-8.9233	-61.439150	0.000020	0.202676	0.034334	0.000004
1562	1.5532e+02	-8.9035	-61.455299	-0.000081	-0.810705	-0.137337	-0.000016
1563	1.5542e+02	-8.8837	-61.423002	0.000162	1.621410	0.274674	0.000032
1564	1.5552e+02	-8.8635	-61.443187	-0.000101	-1.013381	-0.171671	-0.000020
1565	1.5562e+02	-8.8443	-61.423002	0.000101	1.013381	0.171671	0.000020
1566	1.5572e+02	-8.8243	-61.439150	-0.000081	-0.810705	-0.137337	-0.000016
1567	1.5582e+02	-8.8049	-61.431076	0.000041	0.405352	0.068669	0.000008
1568	1.5592e+02	-8.7848	-61.418965	0.000061	0.608029	0.103003	0.000012
1569	1.5602e+02	-8.7643	-61.382630	0.000182	1.824086	0.309008	0.000037
1570	1.5612e+02	-8.7448	-61.338222	0.000223	2.229438	0.377677	0.000045
1571	1.5622e+02	-8.7254	-61.382630	-0.000223	-2.229438	-0.377677	-0.000045
1572	1.5631e+02	-8.7047	-61.394742	-0.000061	-0.608029	-0.103003	-0.000012
1573	1.5641e+02	-8.6844	-61.366482	0.000142	1.418733	0.240340	0.000028
1574	1.5651e+02	-8.6656	-61.350333	0.000081	0.810705	0.137337	0.000016
1575	1.5661e+02	-8.6447	-61.289776	0.000304	3.040143	0.515014	0.000061
1576	1.5671e+02	-8.6257	-61.285739	0.000020	0.202676	0.034334	0.000004
1577	1.5681e+02	-8.6044	-61.265553	0.000101	1.013381	0.171671	0.000020
1578	1.5691e+02	-8.5846	-61.269591	-0.000020	-0.202676	-0.034334	-0.000004
1579	1.5701e+02	-8.5651	-61.233256	0.000182	1.824086	0.309008	0.000037
1580	1.5711e+02	-8.5449	-61.265553	-0.000162	-1.621410	-0.274674	-0.000032
1581	1.5721e+02	-8.5252	-61.209033	0.000284	2.837467	0.480680	0.000057
1582	1.5731e+02	-8.5059	-61.188848	0.000101	1.013381	0.171671	0.000020
1583	1.5741e+02	-8.4859	-61.128291	0.000304	3.040143	0.515014	0.000061
1584	1.5751e+02	-8.4666	-61.160588	-0.000162	-1.621410	-0.274674	-0.000032
1585	1.5761e+02	-8.4460	-61.104068	0.000284	2.837467	0.480680	0.000057
1586	1.5771e+02	-8.4259	-61.059659	0.000223	2.229438	0.377677	0.000045
1587	1.5781e+02	-8.4052	-61.059659	0.000000	0.000000	0.000000	0.000000
1588	1.5791e+02	-8.3856	-60.995065	0.000324	3.242819	0.549348	0.000065
1589	1.5801e+02	-8.3662	-60.962768	0.000162	1.621410	0.274674	0.000032
1590	1.5811e+02	-8.3464	-60.934508	0.000142	1.418733	0.240340	0.000028
1591	1.5821e+02	-8.3267	-60.882025	0.000263	2.634791	0.446346	0.000053
1592	1.5830e+02	-8.3066	-60.873951	0.000041	0.405352	0.068669	0.000008
1593	1.5840e+02	-8.2861	-60.841654	0.000162	1.621410	0.274674	0.000032
1594	1.5850e+02	-8.2661	-60.777060	0.000324	3.242819	0.549348	0.000065
1595	1.5860e+02	-8.2474	-60.785134	-0.000041	-0.405352	-0.068669	-0.000008
1596	1.5870e+02	-8.2268	-60.724577	0.000304	3.040143	0.515014	0.000061
1597	1.5880e+02	-8.2065	-60.680169	0.000223	2.229438	0.377677	0.000045
1598	1.5890e+02	-8.1873	-60.599426	0.000405	4.053524	0.686686	0.000081
1599	1.5900e+02	-8.1668	-60.611537	-0.000061	-0.608029	-0.103003	-0.000012
1600	1.5910e+02	-8.1470	-60.526758	0.000426	4.256200	0.721020	0.000085
1601	1.5920e+02	-8.1274	-60.510609	0.000081	0.810705	0.137337	0.000016
1602	1.5930e+02	-8.1067	-60.486386	0.000122	1.216057	0.206006	0.000024
1603	1.5940e+02	-8.0872	-60.466201	0.000101	1.013381	0.171671	0.000020
1604	1.5950e+02	-8.0673	-60.385458	0.000405	4.053524	0.686686	0.000081
1605	1.5960e+02	-8.0475	-60.328938	0.000284	2.837467	0.480680	0.000057
1606	1.5970e+02	-8.0276	-60.280492	0.000243	2.432114	0.412011	0.000049
1607	1.5980e+02	-8.0068	-60.264344	0.000081	0.810705	0.137337	0.000016
1608	1.5990e+02	-7.9872	-60.215898	0.000243	2.432114	0.412011	0.000049
1609	1.6000e+02	-7.9672	-60.171490	0.000223	2.229438	0.377677	0.000045
1610	1.6010e+02	-7.9487	-60.090747	0.000405	4.053524	0.686686	0.000081
1611	1.6019e+02	-7.9279	-60.046338	0.000223	2.229438	0.377677	0.000045
1612	1.6029e+02	-7.9083	-60.042301	0.000020	0.202676	0.034334	0.000004
1613	1.6039e+02	-7.8882	-59.945410	0.000486	4.864229	0.824023	0.000097
1614	1.6049e+02	-7.8674	-59.888890	0.000284	2.837467	0.480680	0.000057
1615	1.6059e+02	-7.8477	-59.852556	0.000182	1.824086	0.309008	0.000037
1616	1.6069e+02	-7.8284	-59.743553	0.000547	5.472257	0.927025	0.000110
1617	1.6079e+02	-7.8088	-59.735479	0.000041	0.405352	0.068669	0.000008
1618	1.6089e+02	-7.7882	-59.638588	0.000486	4.864229	0.824023	0.000097
1619	1.6099e+02	-7.7682	-59.602253	0.000182	1.824086	0.309008	0.000037
1620	1.6109e+02	-7.7486	-59.557845	0.000223	2.229438	0.377677	0.000045
1621	1.6119e+02	-7.7292	-59.497288	0.000304	3.040143	0.515014	0.000061
1622	1.6129e+02	-7.7074	-59.440768	0.000284	2.837467	0.480680	0.000057
1623	1.6139e+02	-7.6895	-59.372137	0.000345	3.445495	0.583683	0.000069
1624	1.6149e+02	-7.6685	-59.343877	0.000142	1.418733	0.240340	0.000028
1625	1.6159e+02	-7.6477	-59.287357	0.000284	2.837467	0.480680	0.000057
1626	1.6169e+02	-7.6294	-59.214688	0.000365	3.648172	0.618017	0.000073
1627	1.6179e+02	-7.6092	-59.154131	0.000304	3.040143	0.515014	0.000061
1628	1.6189e+02	-7.5891	-59.085500	0.000345	3.445495	0.583683	0.000069
1629	1.6199e+02	-7.5690	-59.000720	0.000426	4.256200	0.721020	0.000085
1630	1.6209e+02	-7.5504	-58.956312	0.000223	2.229438	0.377677	0.000045
1631	1.6219e+02	-7.5302	-58.903829	0.000263	2.634791	0.446346	0.000053
1632	1.6228e+02	-7.5085	-58.839235	0.000324	3.242819	0.549348	0.000065
1633	1.6238e+02	-7.4899	-58.762529	0.000385	3.850848	0.652351	0.000077
1634	1.6248e+02	-7.4702	-58.718121	0.000223	2.229438	0.377677	0.000045
1635	1.6258e+02	-7.4506	-58.661601	0.000284	2.837467	0.480680	0.000057
1636	1.6268e+02	-7.4312	-58.617192	0.000223	2.229438	0.377677	0.000045
1637	1.6278e+02	-7.4103	-58.564710	0.000263	2.634791	0.446346	0.000053
1638	1.6288e+02	-7.3907	-58.483967	0.000405	4.053524	0.686686	0.000081
1639	1.6298e+02	-7.3706	-58.403224	0.000405	4.053524	0.686686	0.000081
1640	1.6308e+02	-7.3508	-58.370927	0.000162	1.621410	0.274674	0.000032
1641	1.6318e+02	-7.3309	-58.298259	0.000365	3.648172	0.618017	0.000073
1642	1.6328e+02	-7.3116	-58.229627	0.000345	3.445495	0.583683	0.000069
1643	1.6338e+02	-7.2913	-58.156959	0.000365	3.648172	0.618017	0.000073
1644	1.6348e+02	-7.2708	-58.112550	0.000223	2.229438	0.377677	0.000045
1645	1.6358e+02	-7.2502	-57.991436	0.000608	6.080286	1.030028	0.000122
1646	1.6368e+02	-7.2299	-57.951065	0.000203	2.026762	0.343343	0.000041
1647	1.6378e+02	-7.2115	-57.930879	0.000101	1.013381	0.171671	0.000020
1648	1.6388e+02	-7.1919	-57.829951	0.000507	5.066905	0.858357	0.000101
1649	1.6398e+02	-7.1710	-57.777468	0.000263	2.634791	0.446346	0.000053
1650	1.6408e+02	-7.1513	-57.692688	0.000426	4.256200	0.721020	0.000085
1651	1.6418e+02	-7.1317	-57.628094	0.000324	3.242819	0.549348	0.000065
1652	1.6427e+02	-7.1112	-57.591760	0.000182	1.824086	0.309008	0.000037
1653	1.6437e+02	-7.0914	-57.458534	0.000669	6.688315	1.133031	0.000134
1654	1.6447e+02	-7.0718	-57.442386	0.000081	0.810705	0.137337	0.000016
1655	1.6457e+02	-7.0517	-57.325309	0.000588	5.877610	0.995694	0.000118
1656	1.6467e+02	-7.0316	-57.301086	0.000122	1.216057	0.206006	0.000024
1657	1.6477e+02	-7.0110	-57.248603	0.000263	2.634791	0.446346	0.000053
1658	1.6487e+02	-6.9919	-57.167861	0.000405	4.053524	0.686686	0.000081
1659	1.6497e+02	-6.9717	-57.119415	0.000243	2.432114	0.412011	0.000049
1660	1.6507e+02	-6.9527	-57.042709	0.000385	3.850848	0.652351	0.000077
1661	1.6517e+02	-6.9322	-56.974078	0.000345	3.445495	0.583683	0.000069
1662	1.6527e+02	-6.9119	-56.913521	0.000304	3.040143	0.515014	0.000061
1663	1.6537e+02	-6.8919	-56.784333	0.000649	6.485638	1.098697	0.000130
1664	1.6547e+02	-6.8715	-56.707627	0.000385	3.850848	0.652351	0.000077
1665	1.6557e+02	-6.8521	-56.691479	0.000081	0.810705	0.137337	0.000016
1666	1.6567e+02	-6.8331	-56.602662	0.000446	4.458876	0.755354	0.000089
1667	1.6577e+02	-6.8126	-56.529993	0.000365	3.648172	0.618017	0.000073
1668	1.6587e+02	-6.7922	-56.445213	0.000426	4.256200	0.721020	0.000085
1669	1.6597e+02	-6.7725	-56.400805	0.000223	2.229438	0.377677	0.000045
1670	1.6607e+02	-6.7534	-56.303914	0.000486	4.864229	0.824023	0.000097
1671	1.6616e+02	-6.7330	-56.219134	0.000426	4.256200	0.721020	0.000085
1672	1.6626e+02	-6.7133	-56.162614	0.000284	2.837467	0.480680	0.000057
1673	1.6636e+02	-6.6934	-56.126280	0.000182	1.824086	0.309008	0.000037
1674	1.6646e+02	-6.6743	-56.025351	0.000507	5.066905	0.858357	0.000101
1675	1.6656e+02	-6.6531	-55.948646	0.000385	3.850848	0.652351	0.000077
1676	1.6666e+02	-6.6333	-55.871940	0.000385	3.850848	0.652351	0.000077
1677	1.6676e+02	-6.6129	-55.795234	0.000385	3.850848	0.652351	0.000077
1678	1.6686e+02	-6.5939	-55.718529	0.000385	3.850848	0.652351	0.000077
1679	1.6696e+02	-6.5733	-55.657972	0.000304	3.040143	0.515014	0.000061
1680	1.6706e+02	-6.5538	-55.609526	0.000243	2.432114	0.412011	0.000049
1681	1.6716e+02	-6.5335	-55.516672	0.000466	4.661553	0.789688	0.000093
1682	1.6726e+02	-6.5132	-55.439967	0.000385	3.850848	0.652351	0.000077
1683	1.6736e+02	-6.4944	-55.383447	0.000284	2.837467	0.480680	0.000057
1684	1.6746e+02	-6.4745	-55.302704	0.000405	4.053524	0.686686	0.000081
1685	1.6756e+02	-6.4536	-55.217924	0.000426	4.256200	0.721020	0.000085
1686	1.6766e+02	-6.4352	-55.137181	0.000405	4.053524	0.686686	0.000081
1687	1.6776e+02	-6.4146	-55.052401	0.000426	4.256200	0.721020	0.000085
1688	1.6786e+02	-6.3942	-54.971659	0.000405	4.053524	0.686686	0.000081
1689	1.6796e+02	-6.3742	-54.907065	0.000324	3.242819	0.549348	0.000065
1690	1.6806e+02	-6.3547	-54.878805	0.000142	1.418733	0.240340	0.000028
1691	1.6816e+02	-6.3350	-54.761728	0.000588	5.877610	0.995694	0.000118
1692	1.6825e+02	-6.3141	-54.676948	0.000426	4.256200	0.721020	0.000085
1693	1.6835e+02	-6.2946	-54.604279	0.000365	3.648172	0.618017	0.000073
1694	1.6845e+02	-6.2730	-54.535648	0.000345	3.445495	0.583683	0.000069
1695	1.6855e+02	-6.2553	-54.475091	0.000304	3.040143	0.515014	0.000061
1696	1.6865e+02	-6.2361	-54.398386	0.000385	3.850848	0.652351	0.000077
1697	1.6875e+02	-6.2149	-54.321680	0.000385	3.850848	0.652351	0.000077
1698	1.6885e+02	-6.1949	-54.208640	0.000567	5.674934	0.961360	0.000114
1699	1.6895e+02	-6.1748	-54.208640	0.000000	0.000000	0.000000	0.000000
1700	1.6905e+02	-6.1557	-54.095600	0.000567	5.674934	0.961360	0.000114
1701	1.6915e+02	-6.1353	-54.026969	0.000345	3.445495	0.583683	0.000069
1702	1.6925e+02	-6.1153	-53.950263	0.000385	3.850848	0.652351	0.000077
1703	1.6935e+02	-6.0954	-53.865484	0.000426	4.256200	0.721020	0.000085
1704	1.6945e+02	-6.0757	-53.788778	0.000385	3.850848	0.652351	0.000077
1705	1.6955e+02	-6.0550	-53.752444	0.000182	1.824086	0.309008	0.000037
1706	1.6965e+02	-6.0355	-53.635367	0.000588	5.877610	0.995694	0.000118
1707	1.6975e+02	-6.0156	-53.554624	0.000405	4.053524	0.686686	0.000081
1708	1.6985e+02	-5.9959	-53.538476	0.000081	0.810705	0.137337	0.000016
1709	1.6995e+02	-5.9750	-53.413324	0.000628	6.282962	1.064363	0.000126
1710	1.7005e+02	-5.9554	-53.356804	0.000284	2.837467	0.480680	0.000057
1711	1.7015e+02	-5.9361	-53.288173	0.000345	3.445495	0.583683	0.000069
1712	1.7024e+02	-5.9166	-53.191282	0.000486	4.864229	0.824023	0.000097
1713	1.7034e+02	-5.8966	-53.134762	0.000284	2.837467	0.480680	0.000057
1714	1.7044e+02	-5.8761	-53.045945	0.000446	4.458876	0.755354	0.000089
1715	1.7054e+02	-5.8563	-52.916757	0.000649	6.485638	1.098697	0.000130
1716	1.7064e+02	-5.8360	-52.884460	0.000162	1.621410	0.274674	0.000032
1717	1.7074e+02	-5.8177	-52.803717	0.000405	4.053524	0.686686	0.000081
1718	1.7084e+02	-5.7958	-52.759308	0.000223	2.229438	0.377677	0.000045
1719	1.7094e+02	-5.7764	-52.654343	0.000527	5.269581	0.892691	0.000105
1720	1.7104e+02	-5.7567	-52.593786	0.000304	3.040143	0.515014	0.000061
1721	1.7114e+02	-5.7376	-52.492857	0.000507	5.066905	0.858357	0.000101
1722	1.7124e+02	-5.7173	-52.400003	0.000466	4.661553	0.789688	0.000093
1723	1.7134e+02	-5.6978	-52.331372	0.000345	3.445495	0.583683	0.000069
1724	1.7144e+02	-5.6767	-52.242555	0.000446	4.458876	0.755354	0.000089
1725	1.7154e+02	-5.6561	-52.141627	0.000507	5.066905	0.858357	0.000101
1726	1.7164e+02	-5.6374	-52.129515	0.000061	0.608029	0.103003	0.000012
1727	1.7174e+02	-5.6177	-52.000327	0.000649	6.485638	1.098697	0.000130
1728	1.7184e+02	-5.5975	-51.911510	0.000446	4.458876	0.755354	0.000089
1729	1.7194e+02	-5.5771	-51.867101	0.000223	2.229438	0.377677	0.000045
1730	1.7204e+02	-5.5577	-51.737913	0.000649	6.485638	1.098697	0.000130
1731	1.7213e+02	-5.5376	-51.705616	0.000162	1.621410	0.274674	0.000032
1732	1.7223e+02	-5.5177	-51.572390	0.000669	6.688315	1.133031	0.000134
1733	1.7233e+02	-5.4968	-51.536056	0.000182	1.824086	0.309008	0.000037
1734	1.7243e+02	-5.4787	-51.431091	0.000527	5.269581	0.892691	0.000105
1735	1.7253e+02	-5.4584	-51.322088	0.000547	5.472257	0.927025	0.000110
1736	1.7263e+02	-5.4382	-51.229234	0.000466	4.661553	0.789688	0.000093
1737	1.7273e+02	-5.4175	-51.172714	0.000284	2.837467	0.480680	0.000057
1738	1.7283e+02	-5.3976	-51.116194	0.000284	2.837467	0.480680	0.000057
1739	1.7293e+02	-5.3778	-51.031414	0.000426	4.256200	0.721020	0.000085
1740	1.7303e+02	-5.3581	-50.934523	0.000486	4.864229	0.824023	0.000097
1741	1.7313e+02	-5.3387	-50.849743	0.000426	4.256200	0.721020	0.000085
1742	1.7323e+02	-5.3188	-50.777075	0.000365	3.648172	0.618017	0.000073
1743	1.7333e+02	-5.2982	-50.668072	0.000547	5.472257	0.927025	0.000110
1744	1.7343e+02	-5.2789	-50.611552	0.000284	2.837467	0.480680	0.000057
1745	1.7353e+02	-5.2579	-50.514661	0.000486	4.864229	0.824023	0.000097
1746	1.7363e+02	-5.2385	-50.433918	0.000405	4.053524	0.686686	0.000081
1747	1.7373e+02	-5.2190	-50.312804	0.000608	6.080286	1.030028	0.000122
1748	1.7383e+02	-5.1987	-50.264359	0.000243	2.432114	0.412011	0.000049
1749	1.7393e+02	-5.1794	-50.179579	0.000426	4.256200	0.721020	0.000085
1750	1.7403e+02	-5.1597	-50.090762	0.000446	4.458876	0.755354	0.000089
1751	1.7413e+02	-5.1384	-50.038279	0.000263	2.634791	0.446346	0.000053
1752	1.7422e+02	-5.1187	-49.913128	0.000628	6.282962	1.064363	0.000126
1753	1.7432e+02	-5.0992	-49.864682	0.000243	2.432114	0.412011	0.000049
1754	1.7442e+02	-5.0793	-49.779902	0.000426	4.256200	0.721020	0.000085
1755	1.7452e+02	-5.0599	-49.678974	0.000507	5.066905	0.858357	0.000101
1756	1.7462e+02	-5.0394	-49.574008	0.000527	5.269581	0.892691	0.000105
1757	1.7472e+02	-5.0201	-49.533637	0.000203	2.026762	0.343343	0.000041
1758	1.7482e+02	-4.9997	-49.448857	0.000426	4.256200	0.721020	0.000085
1759	1.7492e+02	-4.9799	-49.335817	0.000567	5.674934	0.961360	0.000114
1760	1.7502e+02	-4.9597	-49.255075	0.000405	4.053524	0.686686	0.000081
1761	1.7512e+02	-4.9403	-49.142035	0.000567	5.674934	0.961360	0.000114
1762	1.7522e+02	-4.9204	-49.097626	0.000223	2.229438	0.377677	0.000045
1763	1.7532e+02	-4.8994	-48.988624	0.000547	5.472257	0.927025	0.000110
1764	1.7542e+02	-4.8805	-48.887695	0.000507	5.066905	0.858357	0.000101
1765	1.7552e+02	-4.8607	-48.790804	0.000486	4.864229	0.824023	0.000097
1766	1.7562e+02	-4.8402	-48.706024	0.000426	4.256200	0.721020	0.000085
1767	1.7572e+02	-4.8194	-48.637393	0.000345	3.445495	0.583683	0.000069
1768	1.7582e+02	-4.8007	-48.528390	0.000547	5.472257	0.927025	0.000110
1769	1.7592e+02	-4.7804	-48.423425	0.000527	5.269581	0.892691	0.000105
1770	1.7602e+02	-4.7612	-48.314422	0.000547	5.472257	0.927025	0.000110
1771	1.7612e+02	-4.7411	-48.257902	0.000284	2.837467	0.480680	0.000057
1772	1.7621e+02	-4.7202	-48.225605	0.000162	1.621410	0.274674	0.000032
1773	1.7631e+02	-4.7009	-48.112565	0.000567	5.674934	0.961360	0.000114
1774	1.7641e+02	-4.6800	-48.019711	0.000466	4.661553	0.789688	0.000093
1775	1.7651e+02	-4.6605	-47.930894	0.000446	4.458876	0.755354	0.000089
1776	1.7661e+02	-4.6407	-47.821891	0.000547	5.472257	0.927025	0.000110
1777	1.7671e+02	-4.6202	-47.708852	0.000567	5.674934	0.961360	0.000114
1778	1.7681e+02	-4.6002	-47.624072	0.000426	4.256200	0.721020	0.000085
1779	1.7691e+02	-4.5818	-47.531218	0.000466	4.661553	0.789688	0.000093
1780	1.7701e+02	-4.5608	-47.454512	0.000385	3.850848	0.652351	0.000077
1781	1.7711e+02	-4.5416	-47.353584	0.000507	5.066905	0.858357	0.000101
1782	1.7721e+02	-4.5219	-47.232470	0.000608	6.080286	1.030028	0.000122
1783	1.7731e+02	-4.5009	-47.171913	0.000304	3.040143	0.515014	0.000061
1784	1.7741e+02	-4.4816	-47.062910	0.000547	5.472257	0.927025	0.000110
1785	1.7751e+02	-4.4617	-46.978130	0.000426	4.256200	0.721020	0.000085
1786	1.7761e+02	-4.4415	-46.844905	0.000669	6.688315	1.133031	0.000134
1787	1.7771e+02	-4.4217	-46.808570	0.000182	1.824086	0.309008	0.000037
1788	1.7781e+02	-4.4020	-46.679382	0.000649	6.485638	1.098697	0.000130
1789	1.7791e+02	-4.3822	-46.590565	0.000446	4.458876	0.755354	0.000089
1790	1.7801e+02	-4.3622	-46.525971	0.000324	3.242819	0.549348	0.000065
1791	1.7810e+02	-4.3427	-46.396782	0.000649	6.485638	1.098697	0.000130
1792	1.7820e+02	-4.3222	-46.312003	0.000426	4.256200	0.721020	0.000085
1793	1.7830e+02	-4.3018	-46.203000	0.000547	5.472257	0.927025	0.000110
1794	1.7840e+02	-4.2819	-46.102072	0.000507	5.066905	0.858357	0.000101
1795	1.7850e+02	-4.2620	-46.013255	0.000446	4.458876	0.755354	0.000089
1796	1.7860e+02	-4.2424	-45.904252	0.000547	5.472257	0.927025	0.000110
1797	1.7870e+02	-4.2226	-45.831583	0.000365	3.648172	0.618017	0.000073
1798	1.7880e+02	-4.2025	-45.694321	0.000689	6.890991	1.167365	0.000138
1799	1.7890e+02	-4.1824	-45.605504	0.000446	4.458876	0.755354	0.000089
1800	1.7900e+02	-4.1629	-45.528798	0.000385	3.850848	0.652351	0.000077
1801	1.7910e+02	-4.1430	-45.399610	0.000649	6.485638	1.098697	0.000130
1802	1.7920e+02	-4.1223	-45.314830	0.000426	4.256200	0.721020	0.000085
1803	1.7930e+02	-4.1030	-45.213902	0.000507	5.066905	0.858357	0.000101
1804	1.7940e+02	-4.0820	-45.149308	0.000324	3.242819	0.549348	0.000065
1805	1.7950e+02	-4.0626	-45.020119	0.000649	6.485638	1.098697	0.000130
1806	1.7960e+02	-4.0430	-44.935339	0.000426	4.256200	0.721020	0.000085
1807	1.7970e+02	-4.0236	-44.814225	0.000608	6.080286	1.030028	0.000122
1808	1.7980e+02	-4.0035	-44.729445	0.000426	4.256200	0.721020	0.000085
1809	1.7990e+02	-3.9838	-44.644666	0.000426	4.256200	0.721020	0.000085
1810	1.8000e+02	-3.9633	-44.571997	0.000365	3.648172	0.618017	0.000073
1811	1.8009e+02	-3.9428	-44.442809	0.000649	6.485638	1.098697	0.000130
1812	1.8019e+02	-3.9240	-44.349955	0.000466	4.661553	0.789688	0.000093
1813	1.8029e+02	-3.9038	-44.281323	0.000345	3.445495	0.583683	0.000069
1814	1.8039e+02	-3.8837	-44.140024	0.000709	7.093667	1.201700	0.000142
1815	1.8049e+02	-3.8639	-44.055244	0.000426	4.256200	0.721020	0.000085
1816	1.8059e+02	-3.8441	-43.938167	0.000588	5.877610	0.995694	0.000118
1817	1.8069e+02	-3.8231	-43.857424	0.000405	4.053524	0.686686	0.000081
1818	1.8079e+02	-3.8030	-43.772644	0.000426	4.256200	0.721020	0.000085
1819	1.8089e+02	-3.7848	-43.643456	0.000649	6.485638	1.098697	0.000130
1820	1.8099e+02	-3.7653	-43.574825	0.000345	3.445495	0.583683	0.000069
1821	1.8109e+02	-3.7450	-43.445636	0.000649	6.485638	1.098697	0.000130
1822	1.8119e+02	-3.7248	-43.389116	0.000284	2.837467	0.480680	0.000057
1823	1.8129e+02	-3.7048	-43.239742	0.000750	7.499019	1.270368	0.000150
1824	1.8139e+02	-3.6856	-43.134777	0.000527	5.269581	0.892691	0.000105
1825	1.8149e+02	-3.6649	-43.094405	0.000203	2.026762	0.343343	0.000041
1826	1.8159e+02	-3.6450	-42.949069	0.000730	7.296343	1.236034	0.000146
1827	1.8169e+02	-3.6252	-42.884474	0.000324	3.242819	0.549348	0.000065
1828	1.8179e+02	-3.6050	-42.735100	0.000750	7.499019	1.270368	0.000150
1829	1.8189e+02	-3.5852	-42.626098	0.000547	5.472257	0.927025	0.000110
1830	1.8199e+02	-3.5657	-42.537281	0.000446	4.458876	0.755354	0.000089
1831	1.8209e+02	-3.5456	-42.436352	0.000507	5.066905	0.858357	0.000101
1832	1.8218e+02	-3.5258	-42.339461	0.000486	4.864229	0.824023	0.000097
1833	1.8228e+02	-3.5055	-42.238533	0.000507	5.066905	0.858357	0.000101
1834	1.8238e+02	-3.4851	-42.182013	0.000284	2.837467	0.480680	0.000057
1835	1.8248e+02	-3.4648	-42.052824	0.000649	6.485638	1.098697	0.000130
1836	1.8258e+02	-3.4457	-41.911525	0.000709	7.093667	1.201700	0.000142
1837	1.8268e+02	-3.4254	-41.834819	0.000385	3.850848	0.652351	0.000077
1838	1.8278e+02	-3.4052	-41.729854	0.000527	5.269581	0.892691	0.000105
1839	1.8288e+02	-3.3856	-41.641037	0.000446	4.458876	0.755354	0.000089
1840	1.8298e+02	-3.3663	-41.544145	0.000486	4.864229	0.824023	0.000097
1841	1.8308e+02	-3.3456	-41.423031	0.000608	6.080286	1.030028	0.000122
1842	1.8318e+02	-3.3255	-41.314029	0.000547	5.472257	0.927025	0.000110
1843	1.8328e+02	-3.3058	-41.257509	0.000284	2.837467	0.480680	0.000057
1844	1.8338e+02	-3.2867	-41.096023	0.000811	8.107048	1.373371	0.000162
1845	1.8348e+02	-3.2658	-40.987021	0.000547	5.472257	0.927025	0.000110
1846	1.8358e+02	-3.2460	-40.890129	0.000486	4.864229	0.824023	0.000097
1847	1.8368e+02	-3.2268	-40.817461	0.000365	3.648172	0.618017	0.000073
1848	1.8378e+02	-3.2050	-40.708458	0.000547	5.472257	0.927025	0.000110
1849	1.8388e+02	-3.1860	-40.587344	0.000608	6.080286	1.030028	0.000122
1850	1.8398e+02	-3.1661	-40.498527	0.000446	4.458876	0.755354	0.000089
1851	1.8407e+02	-3.1468	-40.401636	0.000486	4.864229	0.824023	0.000097
1852	1.8417e+02	-3.1266	-40.308782	0.000466	4.661553	0.789688	0.000093
1853	1.8427e+02	-3.1070	-40.183631	0.000628	6.282962	1.064363	0.000126
1854	1.8437e+02	-3.0870	-40.090776	0.000466	4.661553	0.789688	0.000093
1855	1.8447e+02	-3.0670	-39.969662	0.000608	6.080286	1.030028	0.000122
1856	1.8457e+02	-3.0466	-39.888920	0.000405	4.053524	0.686686	0.000081
1857	1.8467e+02	-3.0280	-39.836437	0.000263	2.634791	0.446346	0.000053
1858	1.8477e+02	-3.0078	-39.707249	0.000649	6.485638	1.098697	0.000130
1859	1.8487e+02	-2.9868	-39.578060	0.000649	6.485638	1.098697	0.000130
1860	1.8497e+02	-2.9669	-39.501355	0.000385	3.850848	0.652351	0.000077
1861	1.8507e+02	-2.9471	-39.368129	0.000669	6.688315	1.133031	0.000134
1862	1.8517e+02	-2.9274	-39.267201	0.000507	5.066905	0.858357	0.000101
1863	1.8527e+02	-2.9074	-39.158198	0.000547	5.472257	0.927025	0.000110
1864	1.8537e+02	-2.8877	-39.049195	0.000547	5.472257	0.927025	0.000110
1865	1.8547e+02	-2.8667	-38.936156	0.000567	5.674934	0.961360	0.000114
1866	1.8557e+02	-2.8473	-38.867524	0.000345	3.445495	0.583683	0.000069
1867	1.8567e+02	-2.8281	-38.778707	0.000446	4.458876	0.755354	0.000089
1868	1.8577e+02	-2.8078	-38.681816	0.000486	4.864229	0.824023	0.000097
1869	1.8587e+02	-2.7879	-38.572813	0.000547	5.472257	0.927025	0.000110
1870	1.8597e+02	-2.7681	-38.451699	0.000608	6.080286	1.030028	0.000122
1871	1.8606e+02	-2.7486	-38.358845	0.000466	4.661553	0.789688	0.000093
1872	1.8616e+02	-2.7283	-38.213508	0.000730	7.296343	1.236034	0.000146
1873	1.8626e+02	-2.7080	-38.104506	0.000547	5.472257	0.927025	0.000110
1874	1.8636e+02	-2.6880	-38.023763	0.000405	4.053524	0.686686	0.000081
1875	1.8646e+02	-2.6680	-37.930909	0.000466	4.661553	0.789688	0.000093
1876	1.8656e+02	-2.6486	-37.846129	0.000426	4.256200	0.721020	0.000085
1877	1.8666e+02	-2.6283	-37.773461	0.000365	3.648172	0.618017	0.000073
1878	1.8676e+02	-2.6079	-37.656384	0.000588	5.877610	0.995694	0.000118
1879	1.8686e+02	-2.5881	-37.515084	0.000709	7.093667	1.201700	0.000142
1880	1.8696e+02	-2.5685	-37.377821	0.000689	6.890991	1.167365	0.000138
1881	1.8706e+02	-2.5492	-37.297079	0.000405	4.053524	0.686686	0.000081
1882	1.8716e+02	-2.5287	-37.171927	0.000628	6.282962	1.064363	0.000126
1883	1.8726e+02	-2.5089	-37.079073	0.000466	4.661553	0.789688	0.000093
1884	1.8736e+02	-2.4895	-36.961996	0.000588	5.877610	0.995694	0.000118
1885	1.8746e+02	-2.4687	-36.885291	0.000385	3.850848	0.652351	0.000077
1886	1.8756e+02	-2.4498	-36.808585	0.000385	3.850848	0.652351	0.000077
1887	1.8766e+02	-2.4297	-36.683434	0.000628	6.282962	1.064363	0.000126
1888	1.8776e+02	-2.4106	-36.598654	0.000426	4.256200	0.721020	0.000085
1889	1.8786e+02	-2.3891	-36.473503	0.000628	6.282962	1.064363	0.000126
1890	1.8796e+02	-2.3698	-36.336240	0.000689	6.890991	1.167365	0.000138
1891	1.8806e+02	-2.3495	-36.275683	0.000304	3.040143	0.515014	0.000061
1892	1.8815e+02	-2.3300	-36.142458	0.000669	6.688315	1.133031	0.000134
1893	1.8825e+02	-2.3102	-36.037492	0.000527	5.269581	0.892691	0.000105
1894	1.8835e+02	-2.2906	-35.904267	0.000669	6.688315	1.133031	0.000134
1895	1.8845e+02	-2.2701	-35.827561	0.000385	3.850848	0.652351	0.000077
1896	1.8855e+02	-2.2511	-35.702410	0.000628	6.282962	1.064363	0.000126
1897	1.8865e+02	-2.2298	-35.581296	0.000608	6.080286	1.030028	0.000122
1898	1.8875e+02	-2.2107	-35.488442	0.000466	4.661553	0.789688	0.000093
1899	1.8885e+02	-2.1908	-35.371365	0.000588	5.877610	0.995694	0.000118
1900	1.8895e+02	-2.1709	-35.266399	0.000527	5.269581	0.892691	0.000105
1901	1.8905e+02	-2.1505	-35.145285	0.000608	6.080286	1.030028	0.000122
1902	1.8915e+02	-2.1314	-35.024171	0.000608	6.080286	1.030028	0.000122
1903	1.8925e+02	-2.1109	-34.939391	0.000426	4.256200	0.721020	0.000085
1904	1.8935e+02	-2.0903	-34.854611	0.000426	4.256200	0.721020	0.000085
1905	1.8945e+02	-2.0705	-34.705237	0.000750	7.499019	1.270368	0.000150
1906	1.8955e+02	-2.0514	-34.608346	0.000486	4.864229	0.824023	0.000097
1907	1.8965e+02	-2.0306	-34.531641	0.000385	3.850848	0.652351	0.000077
1908	1.8975e+02	-2.0114	-34.422638	0.000547	5.472257	0.927025	0.000110
1909	1.8985e+02	-1.9917	-34.273264	0.000750	7.499019	1.270368	0.000150
1910	1.8995e+02	-1.9711	-34.200595	0.000365	3.648172	0.618017	0.000073
1911	1.9004e+02	-1.9519	-34.051221	0.000750	7.499019	1.270368	0.000150
1912	1.9014e+02	-1.9312	-33.958367	0.000466	4.661553	0.789688	0.000093
1913	1.9024e+02	-1.9122	-33.841290	0.000588	5.877610	0.995694	0.000118
1914	1.9034e+02	-1.8913	-33.720176	0.000608	6.080286	1.030028	0.000122
1915	1.9044e+02	-1.8723	-33.635396	0.000426	4.256200	0.721020	0.000085
1916	1.9054e+02	-1.8513	-33.554654	0.000405	4.053524	0.686686	0.000081
1917	1.9064e+02	-1.8314	-33.417391	0.000689	6.890991	1.167365	0.000138
1918	1.9074e+02	-1.8122	-33.272054	0.000730	7.296343	1.236034	0.000146
1919	1.9084e+02	-1.7921	-33.179200	0.000466	4.661553	0.789688	0.000093
1920	1.9094e+02	-1.7725	-33.041937	0.000689	6.890991	1.167365	0.000138
1921	1.9104e+02	-1.7516	-32.936972	0.000527	5.269581	0.892691	0.000105
1922	1.9114e+02	-1.7324	-32.836044	0.000507	5.066905	0.858357	0.000101
1923	1.9124e+02	-1.7136	-32.718967	0.000588	5.877610	0.995694	0.000118
1924	1.9134e+02	-1.6930	-32.634187	0.000426	4.256200	0.721020	0.000085
1925	1.9144e+02	-1.6723	-32.504998	0.000649	6.485638	1.098697	0.000130
1926	1.9154e+02	-1.6522	-32.420219	0.000426	4.256200	0.721020	0.000085
1927	1.9164e+02	-1.6325	-32.307179	0.000567	5.674934	0.961360	0.000114
1928	1.9174e+02	-1.6125	-32.157805	0.000750	7.499019	1.270368	0.000150
1929	1.9184e+02	-1.5932	-32.089173	0.000345	3.445495	0.583683	0.000069
1930	1.9194e+02	-1.5726	-31.959985	0.000649	6.485638	1.098697	0.000130
1931	1.9203e+02	-1.5518	-31.826760	0.000669	6.688315	1.133031	0.000134
1932	1.9213e+02	-1.5338	-31.746017	0.000405	4.053524	0.686686	0.000081
1933	1.9223e+02	-1.5133	-31.608754	0.000689	6.890991	1.167365	0.000138
1934	1.9233e+02	-1.4926	-31.499752	0.000547	5.472257	0.927025	0.000110
1935	1.9243e+02	-1.4728	-31.382675	0.000588	5.877610	0.995694	0.000118
1936	1.9253e+02	-1.4532	-31.269635	0.000567	5.674934	0.961360	0.000114
1937	1.9263e+02	-1.4333	-31.144484	0.000628	6.282962	1.064363	0.000126
1938	1.9273e+02	-1.4127	-31.055667	0.000446	4.458876	0.755354	0.000089
1939	1.9283e+02	-1.3935	-30.930515	0.000628	6.282962	1.064363	0.000126
1940	1.9293e+02	-1.3712	-30.785179	0.000730	7.296343	1.236034	0.000146
1941	1.9303e+02	-1.3539	-30.696362	0.000446	4.458876	0.755354	0.000089
1942	1.9313e+02	-1.3332	-30.615619	0.000405	4.053524	0.686686	0.000081
1943	1.9323e+02	-1.3129	-30.470282	0.000730	7.296343	1.236034	0.000146
1944	1.9333e+02	-1.2933	-30.373391	0.000486	4.864229	0.824023	0.000097
1945	1.9343e+02	-1.2735	-30.236128	0.000689	6.890991	1.167365	0.000138
1946	1.9353e+02	-1.2532	-30.135200	0.000507	5.066905	0.858357	0.000101
1947	1.9363e+02	-1.2335	-30.034271	0.000507	5.066905	0.858357	0.000101
1948	1.9373e+02	-1.2141	-29.892972	0.000709	7.093667	1.201700	0.000142
1949	1.9383e+02	-1.1946	-29.747635	0.000730	7.296343	1.236034	0.000146
1950	1.9393e+02	-1.1743	-29.642669	0.000527	5.269581	0.892691	0.000105
1951	1.9403e+02	-1.1549	-29.521555	0.000608	6.080286	1.030028	0.000122
1952	1.9412e+02	-1.1355	-29.428701	0.000466	4.661553	0.789688	0.000093
1953	1.9422e+02	-1.1140	-29.291438	0.000689	6.890991	1.167365	0.000138
1954	1.9432e+02	-1.0950	-29.150139	0.000709	7.093667	1.201700	0.000142
1955	1.9442e+02	-1.0747	-29.016913	0.000669	6.688315	1.133031	0.000134
1956	1.9452e+02	-1.0559	-28.907910	0.000547	5.472257	0.927025	0.000110
1957	1.9462e+02	-1.0348	-28.794871	0.000567	5.674934	0.961360	0.000114
1958	1.9472e+02	-1.0150	-28.689905	0.000527	5.269581	0.892691	0.000105
1959	1.9482e+02	-0.9950	-28.560717	0.000649	6.485638	1.098697	0.000130
1960	1.9492e+02	-0.9755	-28.475937	0.000426	4.256200	0.721020	0.000085
1961	1.9502e+02	-0.9557	-28.338674	0.000689	6.890991	1.167365	0.000138
1962	1.9512e+02	-0.9348	-28.201412	0.000689	6.890991	1.167365	0.000138
1963	1.9522e+02	-0.9150	-28.096446	0.000527	5.269581	0.892691	0.000105
1964	1.9532e+02	-0.8950	-27.938998	0.000790	7.904372	1.339037	0.000158
1965	1.9542e+02	-0.8749	-27.842107	0.000486	4.864229	0.824023	0.000097
1966	1.9552e+02	-0.8562	-27.745215	0.000486	4.864229	0.824023	0.000097
1967	1.9562e+02	-0.8359	-27.620064	0.000628	6.282962	1.064363	0.000126
1968	1.9572e+02	-0.8153	-27.502987	0.000588	5.877610	0.995694	0.000118
1969	1.9582e+02	-0.7954	-27.373799	0.000649	6.485638	1.098697	0.000130
1970	1.9592e+02	-0.7761	-27.293056	0.000405	4.053524	0.686686	0.000081
1971	1.9601e+02	-0.7555	-27.159831	0.000669	6.688315	1.133031	0.000134
1972	1.9611e+02	-0.7362	-27.042754	0.000588	5.877610	0.995694	0.000118
1973	1.9621e+02	-0.7166	-26.917603	0.000628	6.282962	1.064363	0.000126
1974	1.9631e+02	-0.6963	-26.792451	0.000628	6.282962	1.064363	0.000126
1975	1.9641e+02	-0.6761	-26.663263	0.000649	6.485638	1.098697	0.000130
1976	1.9651e+02	-0.6560	-26.554260	0.000547	5.472257	0.927025	0.000110
1977	1.9661e+02	-0.6357	-26.408923	0.000730	7.296343	1.236034	0.000146
1978	1.9671e+02	-0.6170	-26.336255	0.000365	3.648172	0.618017	0.000073
1979	1.9681e+02	-0.5963	-26.166695	0.000851	8.512400	1.442040	0.000170
1980	1.9691e+02	-0.5761	-26.053655	0.000567	5.674934	0.961360	0.000114
1981	1.9701e+02	-0.5567	-25.948690	0.000527	5.269581	0.892691	0.000105
1982	1.9711e+02	-0.5370	-25.811427	0.000689	6.890991	1.167365	0.000138
1983	1.9721e+02	-0.5164	-25.714536	0.000486	4.864229	0.824023	0.000097
1984	1.9731e+02	-0.4974	-25.585348	0.000649	6.485638	1.098697	0.000130
1985	1.9741e+02	-0.4759	-25.480382	0.000527	5.269581	0.892691	0.000105
1986	1.9751e+02	-0.4565	-25.395602	0.000426	4.256200	0.721020	0.000085
1987	1.9761e+02	-0.4372	-25.270451	0.000628	6.282962	1.064363	0.000126
1988	1.9771e+02	-0.4166	-25.100891	0.000851	8.512400	1.442040	0.000170
1989	1.9781e+02	-0.3976	-25.012074	0.000446	4.458876	0.755354	0.000089
1990	1.9791e+02	-0.3779	-24.911146	0.000507	5.066905	0.858357	0.000101
1991	1.9800e+02	-0.3577	-24.806181	0.000527	5.269581	0.892691	0.000105
1992	1.9810e+02	-0.3384	-24.668918	0.000689	6.890991	1.167365	0.000138
1993	1.9820e+02	-0.3180	-24.551841	0.000588	5.877610	0.995694	0.000118
1994	1.9830e+02	-0.2975	-24.442838	0.000547	5.472257	0.927025	0.000110
1995	1.9840e+02	-0.2781	-24.305576	0.000689	6.890991	1.167365	0.000138
1996	1.9850e+02	-0.2582	-24.196573	0.000547	5.472257	0.927025	0.000110
1997	1.9860e+02	-0.2381	-24.083533	0.000567	5.674934	0.961360	0.000114
1998	1.9870e+02	-0.2184	-23.950308	0.000669	6.688315	1.133031	0.000134
1999	1.9880e+02	-0.1981	-23.825157	0.000628	6.282962	1.064363	0.000126
2000	1.9890e+02	-0.1778	-23.691931	0.000669	6.688315	1.133031	0.000134
2001	1.9900e+02	-0.1578	-23.566780	0.000628	6.282962	1.064363	0.000126
2002	1.9910e+02	-0.1378	-23.449703	0.000588	5.877610	0.995694	0.000118
2003	1.9920e+02	-0.1177	-23.364923	0.000426	4.256200	0.721020	0.000085
2004	1.9930e+02	-0.0993	-23.199401	0.000831	8.309724	1.407705	0.000166
2005	1.9940e+02	-0.0796	-23.106546	0.000466	4.661553	0.789688	0.000093
2006	1.9950e+02	-0.0584	-22.957172	0.000750	7.499019	1.270368	0.000150
2007	1.9960e+02	-0.0376	-22.856244	0.000507	5.066905	0.858357	0.000101
2008	1.9970e+02	-0.0181	-22.739167	0.000588	5.877610	0.995694	0.000118
2009	1.9980e+02	-0.0004	-22.646313	0.000588	5.877610	0.995694	0.000093

PMax (uC/cm2):	5.05e+01
Pr (uC/cm2):	1.13e+01
-Pr (uC/cm2):	-3.36e+01
PLoss (uC/cm2):	-3.36e+01
-Vc:	-1.86e+00
C (Max-Eff) (nF):	5.05e-01
K (Eff):	8.55e+02
Vert. (+/-Pr) Shift (uC/cm2):	-1.11e+01
Offset (uC/cm2):	-1.10e+01

A (Loop Area - uC/cm2·Volts):	-1.90e-01



Hysteresis Version: 5.48.1 - Radiant Technologies, Inc., 1999 - 9/12/24

