»»»»»»»»»»»»»»»»»»»»»»»»»»»»»»»»»»»» Hysteresis ««««««««««««««««««««««««««««««««««««
»»»  Executed Version:	5.48.1
»»»  Vision Version:	5.48.4 (R)
»»»  Vision Compiled:	9/18/24
»»»  Driver Version:	5.47.0
»»»  Windows Version:	Windows 8 or 8.1
»»»  Processor Information:	x86 (AMD or Intel) - 32 Processors
»»»  Tester Name:	PMF21124-494 (100V)
»»»  Tester S/N:	PMF21124-494
»»»  Internal Amp Type:	100V RevK 270k
»»»  Internal Amp S/N:	iAB2-596/K     
»»»  Execution Count:	1
»»»»»»»»»»»»»»»»»»»»»»»»»»»»»»»»»»»»»»»»»»««««««««««««««««««««««««««««««««««««««««««

Stored:	7/7/2025 - 14:28:26
Configured:	07/07/25 01:27:50 PM
Executed:	07/07/25 02:27:48 PM

»»»»»»»»»»»»»»»»»»»»»»»»»»»»»»»»»»» Sample Info ««««««««««««««««««««««««««««««««««««
Sample Name:	
Lot Name:	
Wafer Name:	
Die Row/Column:	0/0
Capacitor Number:	0
Sample Area (cm2):	1.00e-04
Sample Thickness (microns):	1.50e-01

Amplifier:	Internal

»»»»»»»»»»»»»»»»»»»»»»»»»»»»»»»»»»» Tester Info «««««««««««««««««««««««««««««««««««
Tester Name:	PMF21124-494 (100V)
Tester Serial Number:	PMF21124-494
Return Signal Amp. Level:	0.19 [Index: 3]

»»»»»»»»»»»»»»»»»»»»»»»»»»»»»»»» Hysteresis Info ««««««««««««««««««««««««««««««««««
Task Name:	Hyst-528
Volts:	10.00
Field:	666.67 (kV/cm)
DCBias:	0.00
DCField:	0.00 (kV/cm)
Hysteresis Period (ms):	2.00e+02
Preset:	Enabled
Preset Delay (ms):	1.00e+03
Profile:	Standard Bipolar

»»»»»»»»»»»»»»»»»»»»»»»»»»»»»»»»»»»»»» Data «««««««««««««««««««««««««««««««««««««««
Points:	2009

Valid Data

Point	Time (ms)	Drive Voltage	Measured Polarization (uC/cm2)	Capacitance (uF)	Normalized Capacitance (uF/cm2)	Dielectric Constant	Instantaneous Current (mA)
   1	0.0000e+00	-0.0005	13.167118	0.000466	4.661917	0.789750	0.000093
   2	9.9500e-02	0.0193	13.259972	0.000466	4.661917	0.789750	0.000093
   3	1.9900e-01	0.0392	13.381086	0.000608	6.080761	1.030109	0.000122
   4	2.9850e-01	0.0592	13.502200	0.000608	6.080761	1.030109	0.000122
   5	3.9800e-01	0.0793	13.591017	0.000446	4.459225	0.755413	0.000089
   6	4.9750e-01	0.0993	13.700020	0.000547	5.472685	0.927098	0.000110
   7	5.9700e-01	0.1187	13.809023	0.000547	5.472685	0.927098	0.000110
   8	6.9650e-01	0.1383	13.909951	0.000507	5.067301	0.858424	0.000101
   9	7.9600e-01	0.1594	14.043177	0.000669	6.688838	1.133120	0.000134
  10	8.9550e-01	0.1790	14.136031	0.000466	4.661917	0.789750	0.000093
  11	9.9500e-01	0.1988	14.216774	0.000405	4.053841	0.686739	0.000081
  12	1.0945e+00	0.2180	14.362110	0.000730	7.296914	1.236131	0.000146
  13	1.1940e+00	0.2383	14.459002	0.000486	4.864609	0.824087	0.000097
  14	1.2935e+00	0.2596	14.563967	0.000527	5.269993	0.892761	0.000105
  15	1.3930e+00	0.2782	14.681044	0.000588	5.878069	0.995772	0.000118
  16	1.4925e+00	0.2992	14.786010	0.000527	5.269993	0.892761	0.000105
  17	1.5920e+00	0.3185	14.874827	0.000446	4.459225	0.755413	0.000089
  18	1.6915e+00	0.3384	15.012089	0.000689	6.891530	1.167457	0.000138
  19	1.7910e+00	0.3585	15.153389	0.000709	7.094222	1.201794	0.000142
  20	1.8905e+00	0.3779	15.217983	0.000324	3.243073	0.549391	0.000065
  21	1.9900e+00	0.3979	15.343134	0.000628	6.283454	1.064446	0.000126
  22	2.0895e+00	0.4190	15.468286	0.000628	6.283454	1.064446	0.000126
  23	2.1890e+00	0.4379	15.557103	0.000446	4.459225	0.755413	0.000089
  24	2.2885e+00	0.4585	15.714551	0.000790	7.904990	1.339142	0.000158
  25	2.3880e+00	0.4778	15.775108	0.000304	3.040381	0.515054	0.000061
  26	2.4875e+00	0.4978	15.932556	0.000790	7.904990	1.339142	0.000158
  27	2.5870e+00	0.5174	15.993113	0.000304	3.040381	0.515054	0.000061
  28	2.6865e+00	0.5379	16.114227	0.000608	6.080761	1.030109	0.000122
  29	2.7860e+00	0.5581	16.247453	0.000669	6.688838	1.133120	0.000134
  30	2.8855e+00	0.5779	16.324158	0.000385	3.851149	0.652402	0.000077
  31	2.9850e+00	0.5974	16.449310	0.000628	6.283454	1.064446	0.000126
  32	3.0845e+00	0.6173	16.566387	0.000588	5.878069	0.995772	0.000118
  33	3.1840e+00	0.6383	16.695575	0.000649	6.486146	1.098783	0.000130
  34	3.2835e+00	0.6573	16.784392	0.000446	4.459225	0.755413	0.000089
  35	3.3830e+00	0.6774	16.901469	0.000588	5.878069	0.995772	0.000118
  36	3.4825e+00	0.6978	17.022583	0.000608	6.080761	1.030109	0.000122
  37	3.5820e+00	0.7175	17.147734	0.000628	6.283454	1.064446	0.000126
  38	3.6815e+00	0.7369	17.208291	0.000304	3.040381	0.515054	0.000061
  39	3.7810e+00	0.7575	17.369777	0.000811	8.107682	1.373479	0.000162
  40	3.8805e+00	0.7767	17.474742	0.000527	5.269993	0.892761	0.000105
  41	3.9800e+00	0.7967	17.587782	0.000568	5.675377	0.961435	0.000114
  42	4.0795e+00	0.8160	17.700822	0.000568	5.675377	0.961435	0.000114
  43	4.1790e+00	0.8366	17.817899	0.000588	5.878069	0.995772	0.000118
  44	4.2785e+00	0.8569	17.934976	0.000588	5.878069	0.995772	0.000118
  45	4.3780e+00	0.8760	18.068201	0.000669	6.688838	1.133120	0.000134
  46	4.4775e+00	0.8964	18.169129	0.000507	5.067301	0.858424	0.000101
  47	4.5770e+00	0.9163	18.274095	0.000527	5.269993	0.892761	0.000105
  48	4.6765e+00	0.9363	18.391172	0.000588	5.878069	0.995772	0.000118
  49	4.7760e+00	0.9568	18.512286	0.000608	6.080761	1.030109	0.000122
  50	4.8755e+00	0.9755	18.629363	0.000588	5.878069	0.995772	0.000118
  51	4.9750e+00	0.9962	18.754514	0.000628	6.283454	1.064446	0.000126
  52	5.0745e+00	1.0149	18.899851	0.000730	7.296914	1.236131	0.000146
  53	5.1740e+00	1.0364	18.984631	0.000426	4.256533	0.721076	0.000085
  54	5.2735e+00	1.0552	19.073448	0.000446	4.459225	0.755413	0.000089
  55	5.3730e+00	1.0755	19.206673	0.000669	6.688838	1.133120	0.000134
  56	5.4725e+00	1.0958	19.259156	0.000263	2.634997	0.446381	0.000053
  57	5.5720e+00	1.1160	19.424679	0.000831	8.310374	1.407815	0.000166
  58	5.6715e+00	1.1358	19.574053	0.000750	7.499606	1.270468	0.000150
  59	5.7710e+00	1.1553	19.674981	0.000507	5.067301	0.858424	0.000101
  60	5.8705e+00	1.1757	19.796095	0.000608	6.080761	1.030109	0.000122
  61	5.9700e+00	1.1948	19.925283	0.000649	6.486146	1.098783	0.000130
  62	6.0695e+00	1.2166	20.042360	0.000588	5.878069	0.995772	0.000118
  63	6.1690e+00	1.2347	20.159437	0.000588	5.878069	0.995772	0.000118
  64	6.2685e+00	1.2560	20.268440	0.000547	5.472685	0.927098	0.000110
  65	6.3680e+00	1.2749	20.373406	0.000527	5.269993	0.892761	0.000105
  66	6.4675e+00	1.2944	20.490482	0.000588	5.878069	0.995772	0.000118
  67	6.5670e+00	1.3137	20.587374	0.000486	4.864609	0.824087	0.000097
  68	6.6665e+00	1.3342	20.724636	0.000689	6.891530	1.167457	0.000138
  69	6.7660e+00	1.3541	20.817490	0.000466	4.661917	0.789750	0.000093
  70	6.8655e+00	1.3734	20.966864	0.000750	7.499606	1.270468	0.000150
  71	6.9650e+00	1.3934	21.071830	0.000527	5.269993	0.892761	0.000105
  72	7.0645e+00	1.4140	21.164684	0.000466	4.661917	0.789750	0.000093
  73	7.1640e+00	1.4337	21.305984	0.000709	7.094222	1.201794	0.000142
  74	7.2635e+00	1.4526	21.435172	0.000649	6.486146	1.098783	0.000130
  75	7.3630e+00	1.4734	21.528026	0.000466	4.661917	0.789750	0.000093
  76	7.4625e+00	1.4917	21.592620	0.000324	3.243073	0.549391	0.000065
  77	7.5620e+00	1.5132	21.754106	0.000811	8.107682	1.373479	0.000162
  78	7.6615e+00	1.5324	21.875220	0.000608	6.080761	1.030109	0.000122
  79	7.7610e+00	1.5538	21.960000	0.000426	4.256533	0.721076	0.000085
  80	7.8605e+00	1.5731	22.113411	0.000770	7.702298	1.304805	0.000154
  81	7.9600e+00	1.5932	22.206265	0.000466	4.661917	0.789750	0.000093
  82	8.0595e+00	1.6134	22.323342	0.000588	5.878069	0.995772	0.000118
  83	8.1590e+00	1.6328	22.444456	0.000608	6.080761	1.030109	0.000122
  84	8.2585e+00	1.6532	22.537310	0.000466	4.661917	0.789750	0.000093
  85	8.3580e+00	1.6725	22.638239	0.000507	5.067301	0.858424	0.000101
  86	8.4575e+00	1.6931	22.779538	0.000709	7.094222	1.201794	0.000142
  87	8.5570e+00	1.7132	22.892578	0.000568	5.675377	0.961435	0.000114
  88	8.6565e+00	1.7324	23.025804	0.000669	6.688838	1.133120	0.000134
  89	8.7560e+00	1.7527	23.130769	0.000527	5.269993	0.892761	0.000105
  90	8.8555e+00	1.7730	23.255920	0.000628	6.283454	1.064446	0.000126
  91	8.9550e+00	1.7932	23.352812	0.000486	4.864609	0.824087	0.000097
  92	9.0545e+00	1.8132	23.502186	0.000750	7.499606	1.270468	0.000150
  93	9.1540e+00	1.8328	23.578891	0.000385	3.851149	0.652402	0.000077
  94	9.2535e+00	1.8513	23.708080	0.000649	6.486146	1.098783	0.000130
  95	9.3530e+00	1.8724	23.841305	0.000669	6.688838	1.133120	0.000134
  96	9.4525e+00	1.8922	23.918011	0.000385	3.851149	0.652402	0.000077
  97	9.5520e+00	1.9127	24.107756	0.000953	9.526526	1.613837	0.000191
  98	9.6515e+00	1.9315	24.168313	0.000304	3.040381	0.515054	0.000061
  99	9.7510e+00	1.9524	24.281353	0.000568	5.675377	0.961435	0.000114
 100	9.8505e+00	1.9717	24.422653	0.000709	7.094222	1.201794	0.000142
 101	9.9500e+00	1.9913	24.507432	0.000426	4.256533	0.721076	0.000085
 102	1.0050e+01	2.0115	24.685066	0.000892	8.918450	1.510826	0.000179
 103	1.0149e+01	2.0314	24.773883	0.000446	4.459225	0.755413	0.000089
 104	1.0248e+01	2.0516	24.842515	0.000345	3.445765	0.583728	0.000069
 105	1.0348e+01	2.0713	24.999963	0.000790	7.904990	1.339142	0.000158
 106	1.0447e+01	2.0916	25.108966	0.000547	5.472685	0.927098	0.000110
 107	1.0547e+01	2.1107	25.246228	0.000689	6.891530	1.167457	0.000138
 108	1.0646e+01	2.1313	25.371380	0.000628	6.283454	1.064446	0.000126
 109	1.0746e+01	2.1514	25.452122	0.000405	4.053841	0.686739	0.000081
 110	1.0845e+01	2.1717	25.569199	0.000588	5.878069	0.995772	0.000118
 111	1.0945e+01	2.1917	25.706462	0.000689	6.891530	1.167457	0.000138
 112	1.1044e+01	2.2111	25.823539	0.000588	5.878069	0.995772	0.000118
 113	1.1144e+01	2.2310	25.908319	0.000426	4.256533	0.721076	0.000085
 114	1.1243e+01	2.2504	26.053655	0.000730	7.296914	1.236131	0.000146
 115	1.1343e+01	2.2710	26.203030	0.000750	7.499606	1.270468	0.000150
 116	1.1443e+01	2.2910	26.251475	0.000243	2.432305	0.412044	0.000049
 117	1.1542e+01	2.3103	26.400849	0.000750	7.499606	1.270468	0.000150
 118	1.1642e+01	2.3306	26.517926	0.000588	5.878069	0.995772	0.000118
 119	1.1741e+01	2.3504	26.655189	0.000689	6.891530	1.167457	0.000138
 120	1.1841e+01	2.3712	26.752080	0.000486	4.864609	0.824087	0.000097
 121	1.1940e+01	2.3903	26.889343	0.000689	6.891530	1.167457	0.000138
 122	1.2040e+01	2.4108	27.026605	0.000689	6.891530	1.167457	0.000138
 123	1.2139e+01	2.4305	27.099274	0.000365	3.648457	0.618065	0.000073
 124	1.2239e+01	2.4499	27.236536	0.000689	6.891530	1.167457	0.000138
 125	1.2338e+01	2.4694	27.317279	0.000405	4.053841	0.686739	0.000081
 126	1.2438e+01	2.4900	27.478764	0.000811	8.107682	1.373479	0.000162
 127	1.2537e+01	2.5111	27.571619	0.000466	4.661917	0.789750	0.000093
 128	1.2636e+01	2.5294	27.688695	0.000588	5.878069	0.995772	0.000118
 129	1.2736e+01	2.5500	27.805772	0.000588	5.878069	0.995772	0.000118
 130	1.2835e+01	2.5692	27.955146	0.000750	7.499606	1.270468	0.000150
 131	1.2935e+01	2.5879	28.023778	0.000345	3.445765	0.583728	0.000069
 132	1.3034e+01	2.6094	28.144892	0.000608	6.080761	1.030109	0.000122
 133	1.3134e+01	2.6286	28.270043	0.000628	6.283454	1.064446	0.000126
 134	1.3233e+01	2.6487	28.407306	0.000689	6.891530	1.167457	0.000138
 135	1.3333e+01	2.6697	28.512271	0.000527	5.269993	0.892761	0.000105
 136	1.3432e+01	2.6888	28.605125	0.000466	4.661917	0.789750	0.000093
 137	1.3532e+01	2.7087	28.718165	0.000568	5.675377	0.961435	0.000114
 138	1.3632e+01	2.7291	28.859465	0.000709	7.094222	1.201794	0.000142
 139	1.3731e+01	2.7486	28.932133	0.000365	3.648457	0.618065	0.000073
 140	1.3831e+01	2.7692	29.081507	0.000750	7.499606	1.270468	0.000150
 141	1.3930e+01	2.7886	29.190510	0.000547	5.472685	0.927098	0.000110
 142	1.4030e+01	2.8086	29.331810	0.000709	7.094222	1.201794	0.000142
 143	1.4129e+01	2.8323	29.400441	0.000345	3.445765	0.583728	0.000069
 144	1.4229e+01	2.8500	29.509444	0.000547	5.472685	0.927098	0.000110
 145	1.4328e+01	2.8683	29.634595	0.000628	6.283454	1.064446	0.000126
 146	1.4428e+01	2.8883	29.771858	0.000689	6.891530	1.167457	0.000138
 147	1.4527e+01	2.9078	29.905083	0.000669	6.688838	1.133120	0.000134
 148	1.4627e+01	2.9275	30.006011	0.000507	5.067301	0.858424	0.000101
 149	1.4726e+01	2.9481	30.119051	0.000568	5.675377	0.961435	0.000114
 150	1.4825e+01	2.9681	30.215942	0.000486	4.864609	0.824087	0.000097
 151	1.4925e+01	2.9875	30.320908	0.000527	5.269993	0.892761	0.000105
 152	1.5024e+01	3.0088	30.454133	0.000669	6.688838	1.133120	0.000134
 153	1.5124e+01	3.0276	30.599470	0.000730	7.296914	1.236131	0.000146
 154	1.5223e+01	3.0479	30.688287	0.000446	4.459225	0.755413	0.000089
 155	1.5323e+01	3.0671	30.813439	0.000628	6.283454	1.064446	0.000126
 156	1.5422e+01	3.0877	30.930515	0.000588	5.878069	0.995772	0.000118
 157	1.5522e+01	3.1081	31.055667	0.000628	6.283454	1.064446	0.000126
 158	1.5621e+01	3.1273	31.172744	0.000588	5.878069	0.995772	0.000118
 159	1.5721e+01	3.1477	31.310006	0.000689	6.891530	1.167457	0.000138
 160	1.5820e+01	3.1679	31.402860	0.000466	4.661917	0.789750	0.000093
 161	1.5920e+01	3.1866	31.523974	0.000608	6.080761	1.030109	0.000122
 162	1.6020e+01	3.2063	31.645088	0.000608	6.080761	1.030109	0.000122
 163	1.6119e+01	3.2282	31.737943	0.000466	4.661917	0.789750	0.000093
 164	1.6218e+01	3.2471	31.879242	0.000709	7.094222	1.201794	0.000142
 165	1.6318e+01	3.2663	31.964022	0.000426	4.256533	0.721076	0.000085
 166	1.6418e+01	3.2864	32.101285	0.000689	6.891530	1.167457	0.000138
 167	1.6517e+01	3.3068	32.198176	0.000486	4.864609	0.824087	0.000097
 168	1.6616e+01	3.3263	32.347550	0.000750	7.499606	1.270468	0.000150
 169	1.6716e+01	3.3469	32.468664	0.000608	6.080761	1.030109	0.000122
 170	1.6816e+01	3.3671	32.577667	0.000547	5.472685	0.927098	0.000110
 171	1.6915e+01	3.3872	32.670521	0.000466	4.661917	0.789750	0.000093
 172	1.7015e+01	3.4065	32.840081	0.000851	8.513066	1.442152	0.000170
 173	1.7114e+01	3.4266	32.932935	0.000466	4.661917	0.789750	0.000093
 174	1.7213e+01	3.4464	33.037900	0.000527	5.269993	0.892761	0.000105
 175	1.7313e+01	3.4658	33.142866	0.000527	5.269993	0.892761	0.000105
 176	1.7413e+01	3.4861	33.280128	0.000689	6.891530	1.167457	0.000138
 177	1.7512e+01	3.5057	33.421428	0.000709	7.094222	1.201794	0.000142
 178	1.7611e+01	3.5259	33.522357	0.000507	5.067301	0.858424	0.000101
 179	1.7711e+01	3.5459	33.655582	0.000669	6.688838	1.133120	0.000134
 180	1.7811e+01	3.5656	33.772659	0.000588	5.878069	0.995772	0.000118
 181	1.7910e+01	3.5863	33.881662	0.000547	5.472685	0.927098	0.000110
 182	1.8009e+01	3.6060	33.982590	0.000507	5.067301	0.858424	0.000101
 183	1.8109e+01	3.6245	34.067370	0.000426	4.256533	0.721076	0.000085
 184	1.8209e+01	3.6465	34.196558	0.000649	6.486146	1.098783	0.000130
 185	1.8308e+01	3.6658	34.297487	0.000507	5.067301	0.858424	0.000101
 186	1.8407e+01	3.6852	34.402452	0.000527	5.269993	0.892761	0.000105
 187	1.8507e+01	3.7051	34.547789	0.000730	7.296914	1.236131	0.000146
 188	1.8607e+01	3.7251	34.624495	0.000385	3.851149	0.652402	0.000077
 189	1.8706e+01	3.7460	34.741572	0.000588	5.878069	0.995772	0.000118
 190	1.8805e+01	3.7654	34.878834	0.000689	6.891530	1.167457	0.000138
 191	1.8905e+01	3.7847	35.020134	0.000709	7.094222	1.201794	0.000142
 192	1.9005e+01	3.8036	35.092802	0.000365	3.648457	0.618065	0.000073
 193	1.9104e+01	3.8242	35.217954	0.000628	6.283454	1.064446	0.000126
 194	1.9203e+01	3.8445	35.335031	0.000588	5.878069	0.995772	0.000118
 195	1.9303e+01	3.8650	35.460182	0.000628	6.283454	1.064446	0.000126
 196	1.9402e+01	3.8842	35.561110	0.000507	5.067301	0.858424	0.000101
 197	1.9502e+01	3.9042	35.682224	0.000608	6.080761	1.030109	0.000122
 198	1.9602e+01	3.9263	35.799301	0.000588	5.878069	0.995772	0.000118
 199	1.9701e+01	3.9429	35.900230	0.000507	5.067301	0.858424	0.000101
 200	1.9800e+01	3.9643	35.997121	0.000486	4.864609	0.824087	0.000097
 201	1.9900e+01	3.9838	36.118235	0.000608	6.080761	1.030109	0.000122
 202	2.0000e+01	4.0041	36.215126	0.000486	4.864609	0.824087	0.000097
 203	2.0099e+01	4.0238	36.324129	0.000547	5.472685	0.927098	0.000110
 204	2.0198e+01	4.0440	36.469466	0.000730	7.296914	1.236131	0.000146
 205	2.0298e+01	4.0633	36.582505	0.000568	5.675377	0.961435	0.000114
 206	2.0398e+01	4.0830	36.651137	0.000345	3.445765	0.583728	0.000069
 207	2.0497e+01	4.1036	36.792437	0.000709	7.094222	1.201794	0.000142
 208	2.0596e+01	4.1225	36.909513	0.000588	5.878069	0.995772	0.000118
 209	2.0696e+01	4.1445	37.014479	0.000527	5.269993	0.892761	0.000105
 210	2.0796e+01	4.1636	37.139630	0.000628	6.283454	1.064446	0.000126
 211	2.0895e+01	4.1831	37.236521	0.000486	4.864609	0.824087	0.000097
 212	2.0994e+01	4.2029	37.345524	0.000547	5.472685	0.927098	0.000110
 213	2.1094e+01	4.2229	37.454527	0.000547	5.472685	0.927098	0.000110
 214	2.1194e+01	4.2434	37.571604	0.000588	5.878069	0.995772	0.000118
 215	2.1293e+01	4.2628	37.680606	0.000547	5.472685	0.927098	0.000110
 216	2.1392e+01	4.2820	37.801720	0.000608	6.080761	1.030109	0.000122
 217	2.1492e+01	4.3033	37.922835	0.000608	6.080761	1.030109	0.000122
 218	2.1591e+01	4.3227	37.991466	0.000345	3.445765	0.583728	0.000069
 219	2.1691e+01	4.3430	38.148914	0.000790	7.904990	1.339142	0.000158
 220	2.1791e+01	4.3621	38.265991	0.000588	5.878069	0.995772	0.000118
 221	2.1890e+01	4.3829	38.350771	0.000426	4.256533	0.721076	0.000085
 222	2.1989e+01	4.4021	38.403254	0.000263	2.634997	0.446381	0.000053
 223	2.2089e+01	4.4225	38.584925	0.000912	9.121142	1.545163	0.000183
 224	2.2189e+01	4.4423	38.693927	0.000547	5.472685	0.927098	0.000110
 225	2.2288e+01	4.4619	38.798893	0.000527	5.269993	0.892761	0.000105
 226	2.2387e+01	4.4826	38.891747	0.000466	4.661917	0.789750	0.000093
 227	2.2487e+01	4.5022	39.012861	0.000608	6.080761	1.030109	0.000122
 228	2.2587e+01	4.5220	39.109752	0.000486	4.864609	0.824087	0.000097
 229	2.2686e+01	4.5412	39.230867	0.000608	6.080761	1.030109	0.000122
 230	2.2785e+01	4.5615	39.356018	0.000628	6.283454	1.064446	0.000126
 231	2.2885e+01	4.5818	39.448872	0.000466	4.661917	0.789750	0.000093
 232	2.2985e+01	4.6017	39.545763	0.000486	4.864609	0.824087	0.000097
 233	2.3084e+01	4.6218	39.666877	0.000608	6.080761	1.030109	0.000122
 234	2.3183e+01	4.6410	39.739546	0.000365	3.648457	0.618065	0.000073
 235	2.3283e+01	4.6613	39.888920	0.000750	7.499606	1.270468	0.000150
 236	2.3383e+01	4.6819	40.026182	0.000689	6.891530	1.167457	0.000138
 237	2.3482e+01	4.7012	40.123074	0.000486	4.864609	0.824087	0.000097
 238	2.3581e+01	4.7204	40.215928	0.000466	4.661917	0.789750	0.000093
 239	2.3681e+01	4.7410	40.337042	0.000608	6.080761	1.030109	0.000122
 240	2.3780e+01	4.7607	40.450082	0.000568	5.675377	0.961435	0.000114
 241	2.3880e+01	4.7813	40.534861	0.000426	4.256533	0.721076	0.000085
 242	2.3980e+01	4.8011	40.611567	0.000385	3.851149	0.652402	0.000077
 243	2.4079e+01	4.8208	40.728644	0.000588	5.878069	0.995772	0.000118
 244	2.4178e+01	4.8400	40.857832	0.000649	6.486146	1.098783	0.000130
 245	2.4278e+01	4.8608	40.922426	0.000324	3.243073	0.549391	0.000065
 246	2.4378e+01	4.8806	41.071800	0.000750	7.499606	1.270468	0.000150
 247	2.4477e+01	4.9007	41.140432	0.000345	3.445765	0.583728	0.000069
 248	2.4576e+01	4.9207	41.241360	0.000507	5.067301	0.858424	0.000101
 249	2.4676e+01	4.9406	41.358437	0.000588	5.878069	0.995772	0.000118
 250	2.4776e+01	4.9606	41.491663	0.000669	6.688838	1.133120	0.000134
 251	2.4875e+01	4.9804	41.552220	0.000304	3.040381	0.515054	0.000061
 252	2.4974e+01	4.9999	41.649111	0.000486	4.864609	0.824087	0.000097
 253	2.5074e+01	5.0206	41.786373	0.000689	6.891530	1.167457	0.000138
 254	2.5174e+01	5.0391	41.850968	0.000324	3.243073	0.549391	0.000065
 255	2.5273e+01	5.0594	42.000342	0.000750	7.499606	1.270468	0.000150
 256	2.5372e+01	5.0793	42.093196	0.000466	4.661917	0.789750	0.000093
 257	2.5472e+01	5.1000	42.182013	0.000446	4.459225	0.755413	0.000089
 258	2.5572e+01	5.1189	42.278904	0.000486	4.864609	0.824087	0.000097
 259	2.5671e+01	5.1369	42.420204	0.000709	7.094222	1.201794	0.000142
 260	2.5770e+01	5.1595	42.513058	0.000466	4.661917	0.789750	0.000093
 261	2.5870e+01	5.1795	42.593801	0.000405	4.053841	0.686739	0.000081
 262	2.5970e+01	5.1995	42.662432	0.000345	3.445765	0.583728	0.000069
 263	2.6069e+01	5.2193	42.811806	0.000750	7.499606	1.270468	0.000150
 264	2.6169e+01	5.2392	42.920809	0.000547	5.472685	0.927098	0.000110
 265	2.6268e+01	5.2585	42.985403	0.000324	3.243073	0.549391	0.000065
 266	2.6367e+01	5.2789	43.134777	0.000750	7.499606	1.270468	0.000150
 267	2.6467e+01	5.2979	43.231668	0.000486	4.864609	0.824087	0.000097
 268	2.6567e+01	5.3184	43.280114	0.000243	2.432305	0.412044	0.000049
 269	2.6666e+01	5.3393	43.449673	0.000851	8.513066	1.442152	0.000170
 270	2.6765e+01	5.3598	43.522342	0.000365	3.648457	0.618065	0.000073
 271	2.6865e+01	5.3780	43.631344	0.000547	5.472685	0.927098	0.000110
 272	2.6965e+01	5.3992	43.736310	0.000527	5.269993	0.892761	0.000105
 273	2.7064e+01	5.4180	43.837238	0.000507	5.067301	0.858424	0.000101
 274	2.7163e+01	5.4375	43.946241	0.000547	5.472685	0.927098	0.000110
 275	2.7263e+01	5.4580	44.018910	0.000365	3.648457	0.618065	0.000073
 276	2.7363e+01	5.4784	44.184432	0.000831	8.310374	1.407815	0.000166
 277	2.7462e+01	5.4983	44.253063	0.000345	3.445765	0.583728	0.000069
 278	2.7561e+01	5.5183	44.349955	0.000486	4.864609	0.824087	0.000097
 279	2.7661e+01	5.5373	44.458957	0.000547	5.472685	0.927098	0.000110
 280	2.7761e+01	5.5581	44.547774	0.000446	4.459225	0.755413	0.000089
 281	2.7860e+01	5.5776	44.640628	0.000466	4.661917	0.789750	0.000093
 282	2.7959e+01	5.5970	44.761742	0.000608	6.080761	1.030109	0.000122
 283	2.8059e+01	5.6182	44.846522	0.000426	4.256533	0.721076	0.000085
 284	2.8159e+01	5.6380	44.955525	0.000547	5.472685	0.927098	0.000110
 285	2.8258e+01	5.6567	45.068565	0.000568	5.675377	0.961435	0.000114
 286	2.8358e+01	5.6768	45.153345	0.000426	4.256533	0.721076	0.000085
 287	2.8457e+01	5.6968	45.290607	0.000689	6.891530	1.167457	0.000138
 288	2.8556e+01	5.7164	45.379424	0.000446	4.459225	0.755413	0.000089
 289	2.8656e+01	5.7378	45.448056	0.000345	3.445765	0.583728	0.000069
 290	2.8756e+01	5.7570	45.557058	0.000547	5.472685	0.927098	0.000110
 291	2.8855e+01	5.7780	45.645875	0.000446	4.459225	0.755413	0.000089
 292	2.8954e+01	5.7964	45.779101	0.000669	6.688838	1.133120	0.000134
 293	2.9054e+01	5.8177	45.863881	0.000426	4.256533	0.721076	0.000085
 294	2.9154e+01	5.8369	45.940586	0.000385	3.851149	0.652402	0.000077
 295	2.9253e+01	5.8572	46.073812	0.000669	6.688838	1.133120	0.000134
 296	2.9352e+01	5.8764	46.142443	0.000345	3.445765	0.583728	0.000069
 297	2.9452e+01	5.8965	46.259520	0.000588	5.878069	0.995772	0.000118
 298	2.9552e+01	5.9167	46.380634	0.000608	6.080761	1.030109	0.000122
 299	2.9651e+01	5.9359	46.445228	0.000324	3.243073	0.549391	0.000065
 300	2.9750e+01	5.9557	46.562305	0.000588	5.878069	0.995772	0.000118
 301	2.9850e+01	5.9759	46.691493	0.000649	6.486146	1.098783	0.000130
 302	2.9950e+01	5.9968	46.764162	0.000365	3.648457	0.618065	0.000073
 303	3.0049e+01	6.0165	46.848942	0.000426	4.256533	0.721076	0.000085
 304	3.0148e+01	6.0354	46.953907	0.000527	5.269993	0.892761	0.000105
 305	3.0248e+01	6.0567	47.046761	0.000466	4.661917	0.789750	0.000093
 306	3.0348e+01	6.0760	47.179987	0.000669	6.688838	1.133120	0.000134
 307	3.0447e+01	6.0955	47.220358	0.000203	2.026920	0.343370	0.000041
 308	3.0547e+01	6.1163	47.325324	0.000527	5.269993	0.892761	0.000105
 309	3.0646e+01	6.1350	47.450475	0.000628	6.283454	1.064446	0.000126
 310	3.0745e+01	6.1552	47.543329	0.000466	4.661917	0.789750	0.000093
 311	3.0845e+01	6.1759	47.640220	0.000486	4.864609	0.824087	0.000097
 312	3.0945e+01	6.1947	47.725000	0.000426	4.256533	0.721076	0.000085
 313	3.1044e+01	6.2151	47.842077	0.000588	5.878069	0.995772	0.000118
 314	3.1143e+01	6.2354	47.955117	0.000568	5.675377	0.961435	0.000114
 315	3.1243e+01	6.2554	48.031822	0.000385	3.851149	0.652402	0.000077
 316	3.1343e+01	6.2742	48.116602	0.000426	4.256533	0.721076	0.000085
 317	3.1442e+01	6.2957	48.249828	0.000669	6.688838	1.133120	0.000134
 318	3.1541e+01	6.3145	48.330570	0.000405	4.053841	0.686739	0.000081
 319	3.1641e+01	6.3347	48.407276	0.000385	3.851149	0.652402	0.000077
 320	3.1741e+01	6.3543	48.520316	0.000568	5.675377	0.961435	0.000114
 321	3.1840e+01	6.3741	48.613170	0.000466	4.661917	0.789750	0.000093
 322	3.1939e+01	6.3943	48.718136	0.000527	5.269993	0.892761	0.000105
 323	3.2039e+01	6.4132	48.802915	0.000426	4.256533	0.721076	0.000085
 324	3.2139e+01	6.4342	48.887695	0.000426	4.256533	0.721076	0.000085
 325	3.2238e+01	6.4533	48.984586	0.000486	4.864609	0.824087	0.000097
 326	3.2337e+01	6.4736	49.109738	0.000628	6.283454	1.064446	0.000126
 327	3.2437e+01	6.4928	49.238926	0.000649	6.486146	1.098783	0.000130
 328	3.2536e+01	6.5137	49.307557	0.000345	3.445765	0.583728	0.000069
 329	3.2636e+01	6.5340	49.416560	0.000547	5.472685	0.927098	0.000110
 330	3.2736e+01	6.5530	49.533637	0.000588	5.878069	0.995772	0.000118
 331	3.2835e+01	6.5733	49.602268	0.000345	3.445765	0.583728	0.000069
 332	3.2934e+01	6.5939	49.735494	0.000669	6.688838	1.133120	0.000134
 333	3.3034e+01	6.6138	49.812199	0.000385	3.851149	0.652402	0.000077
 334	3.3133e+01	6.6332	49.892942	0.000405	4.053841	0.686739	0.000081
 335	3.3233e+01	6.6528	49.993870	0.000507	5.067301	0.858424	0.000101
 336	3.3333e+01	6.6733	50.094799	0.000507	5.067301	0.858424	0.000101
 337	3.3432e+01	6.6926	50.171504	0.000385	3.851149	0.652402	0.000077
 338	3.3532e+01	6.7126	50.304730	0.000669	6.688838	1.133120	0.000134
 339	3.3631e+01	6.7331	50.421807	0.000588	5.878069	0.995772	0.000118
 340	3.3730e+01	6.7522	50.498512	0.000385	3.851149	0.652402	0.000077
 341	3.3830e+01	6.7727	50.587329	0.000446	4.459225	0.755413	0.000089
 342	3.3929e+01	6.7925	50.700369	0.000568	5.675377	0.961435	0.000114
 343	3.4029e+01	6.8119	50.801298	0.000507	5.067301	0.858424	0.000101
 344	3.4129e+01	6.8331	50.918374	0.000588	5.878069	0.995772	0.000118
 345	3.4228e+01	6.8523	50.946634	0.000142	1.418844	0.240359	0.000028
 346	3.4328e+01	6.8733	51.087934	0.000709	7.094222	1.201794	0.000142
 347	3.4427e+01	6.8925	51.148491	0.000304	3.040381	0.515054	0.000061
 348	3.4526e+01	6.9124	51.253457	0.000527	5.269993	0.892761	0.000105
 349	3.4626e+01	6.9324	51.366497	0.000568	5.675377	0.961435	0.000114
 350	3.4725e+01	6.9518	51.455314	0.000446	4.459225	0.755413	0.000089
 351	3.4825e+01	6.9723	51.572390	0.000588	5.878069	0.995772	0.000118
 352	3.4925e+01	6.9912	51.669282	0.000486	4.864609	0.824087	0.000097
 353	3.5024e+01	7.0111	51.737913	0.000345	3.445765	0.583728	0.000069
 354	3.5123e+01	7.0312	51.838841	0.000507	5.067301	0.858424	0.000101
 355	3.5223e+01	7.0504	51.919584	0.000405	4.053841	0.686739	0.000081
 356	3.5322e+01	7.0712	52.032624	0.000568	5.675377	0.961435	0.000114
 357	3.5422e+01	7.0920	52.133552	0.000507	5.067301	0.858424	0.000101
 358	3.5522e+01	7.1120	52.270815	0.000689	6.891530	1.167457	0.000138
 359	3.5621e+01	7.1310	52.307149	0.000182	1.824228	0.309033	0.000037
 360	3.5721e+01	7.1510	52.428263	0.000608	6.080761	1.030109	0.000122
 361	3.5820e+01	7.1713	52.509006	0.000405	4.053841	0.686739	0.000081
 362	3.5919e+01	7.1921	52.630120	0.000608	6.080761	1.030109	0.000122
 363	3.6019e+01	7.2112	52.690677	0.000304	3.040381	0.515054	0.000061
 364	3.6118e+01	7.2305	52.795643	0.000527	5.269993	0.892761	0.000105
 365	3.6218e+01	7.2504	52.888497	0.000466	4.661917	0.789750	0.000093
 366	3.6318e+01	7.2698	52.993462	0.000527	5.269993	0.892761	0.000105
 367	3.6417e+01	7.2912	53.094391	0.000507	5.067301	0.858424	0.000101
 368	3.6517e+01	7.3101	53.175133	0.000405	4.053841	0.686739	0.000081
 369	3.6616e+01	7.3307	53.263950	0.000446	4.459225	0.755413	0.000089
 370	3.6715e+01	7.3508	53.364879	0.000507	5.067301	0.858424	0.000101
 371	3.6815e+01	7.3702	53.417362	0.000263	2.634997	0.446381	0.000053
 372	3.6914e+01	7.3905	53.534438	0.000588	5.878069	0.995772	0.000118
 373	3.7014e+01	7.4116	53.631330	0.000486	4.864609	0.824087	0.000097
 374	3.7114e+01	7.4303	53.724184	0.000466	4.661917	0.789750	0.000093
 375	3.7213e+01	7.4491	53.821075	0.000486	4.864609	0.824087	0.000097
 376	3.7313e+01	7.4700	53.885669	0.000324	3.243073	0.549391	0.000065
 377	3.7412e+01	7.4905	53.970449	0.000426	4.256533	0.721076	0.000085
 378	3.7511e+01	7.5098	54.087526	0.000588	5.878069	0.995772	0.000118
 379	3.7611e+01	7.5293	54.192492	0.000527	5.269993	0.892761	0.000105
 380	3.7711e+01	7.5494	54.265160	0.000365	3.648457	0.618065	0.000073
 381	3.7810e+01	7.5699	54.353977	0.000446	4.459225	0.755413	0.000089
 382	3.7910e+01	7.5886	54.446831	0.000466	4.661917	0.789750	0.000093
 383	3.8009e+01	7.6104	54.559871	0.000568	5.675377	0.961435	0.000114
 384	3.8108e+01	7.6288	54.652725	0.000466	4.661917	0.789750	0.000093
 385	3.8208e+01	7.6496	54.709245	0.000284	2.837689	0.480717	0.000057
 386	3.8307e+01	7.6693	54.810173	0.000507	5.067301	0.858424	0.000101
 387	3.8407e+01	7.6888	54.919176	0.000547	5.472685	0.927098	0.000110
 388	3.8507e+01	7.7087	55.024142	0.000527	5.269993	0.892761	0.000105
 389	3.8606e+01	7.7281	55.100847	0.000385	3.851149	0.652402	0.000077
 390	3.8706e+01	7.7479	55.189664	0.000446	4.459225	0.755413	0.000089
 391	3.8805e+01	7.7688	55.298667	0.000547	5.472685	0.927098	0.000110
 392	3.8904e+01	7.7885	55.367298	0.000345	3.445765	0.583728	0.000069
 393	3.9004e+01	7.8088	55.448041	0.000405	4.053841	0.686739	0.000081
 394	3.9103e+01	7.8286	55.577229	0.000649	6.486146	1.098783	0.000130
 395	3.9203e+01	7.8477	55.641823	0.000324	3.243073	0.549391	0.000065
 396	3.9303e+01	7.8674	55.730640	0.000446	4.459225	0.755413	0.000089
 397	3.9402e+01	7.8893	55.884051	0.000770	7.702298	1.304805	0.000154
 398	3.9502e+01	7.9082	55.928460	0.000223	2.229613	0.377707	0.000045
 399	3.9601e+01	7.9287	56.001128	0.000365	3.648457	0.618065	0.000073
 400	3.9700e+01	7.9471	56.122242	0.000608	6.080761	1.030109	0.000122
 401	3.9800e+01	7.9671	56.239319	0.000588	5.878069	0.995772	0.000118
 402	3.9900e+01	7.9874	56.291802	0.000263	2.634997	0.446381	0.000053
 403	3.9999e+01	8.0078	56.392731	0.000507	5.067301	0.858424	0.000101
 404	4.0099e+01	8.0273	56.485585	0.000466	4.661917	0.789750	0.000093
 405	4.0198e+01	8.0476	56.558253	0.000365	3.648457	0.618065	0.000073
 406	4.0297e+01	8.0671	56.663219	0.000527	5.269993	0.892761	0.000105
 407	4.0397e+01	8.0871	56.747999	0.000426	4.256533	0.721076	0.000085
 408	4.0496e+01	8.1066	56.820667	0.000365	3.648457	0.618065	0.000073
 409	4.0596e+01	8.1269	56.873150	0.000263	2.634997	0.446381	0.000053
 410	4.0696e+01	8.1465	56.970041	0.000486	4.864609	0.824087	0.000097
 411	4.0795e+01	8.1675	57.050784	0.000405	4.053841	0.686739	0.000081
 412	4.0895e+01	8.1863	57.159786	0.000547	5.472685	0.927098	0.000110
 413	4.0994e+01	8.2067	57.264752	0.000527	5.269993	0.892761	0.000105
 414	4.1093e+01	8.2269	57.333383	0.000345	3.445765	0.583728	0.000069
 415	4.1193e+01	8.2472	57.406052	0.000365	3.648457	0.618065	0.000073
 416	4.1292e+01	8.2668	57.511017	0.000527	5.269993	0.892761	0.000105
 417	4.1392e+01	8.2877	57.587723	0.000385	3.851149	0.652402	0.000077
 418	4.1492e+01	8.3068	57.664428	0.000385	3.851149	0.652402	0.000077
 419	4.1591e+01	8.3264	57.757282	0.000466	4.661917	0.789750	0.000093
 420	4.1691e+01	8.3456	57.842062	0.000426	4.256533	0.721076	0.000085
 421	4.1790e+01	8.3657	57.930879	0.000446	4.459225	0.755413	0.000089
 422	4.1889e+01	8.3850	57.987399	0.000284	2.837689	0.480717	0.000057
 423	4.1989e+01	8.4058	58.096402	0.000547	5.472685	0.927098	0.000110
 424	4.2089e+01	8.4254	58.177145	0.000405	4.053841	0.686739	0.000081
 425	4.2188e+01	8.4461	58.278073	0.000507	5.067301	0.858424	0.000101
 426	4.2288e+01	8.4657	58.362853	0.000426	4.256533	0.721076	0.000085
 427	4.2387e+01	8.4852	58.431484	0.000345	3.445765	0.583728	0.000069
 428	4.2486e+01	8.5051	58.524338	0.000466	4.661917	0.789750	0.000093
 429	4.2586e+01	8.5254	58.641415	0.000588	5.878069	0.995772	0.000118
 430	4.2685e+01	8.5456	58.714084	0.000365	3.648457	0.618065	0.000073
 431	4.2785e+01	8.5645	58.794826	0.000405	4.053841	0.686739	0.000081
 432	4.2885e+01	8.5853	58.867495	0.000365	3.648457	0.618065	0.000073
 433	4.2984e+01	8.6049	58.948237	0.000405	4.053841	0.686739	0.000081
 434	4.3084e+01	8.6245	59.045129	0.000486	4.864609	0.824087	0.000097
 435	4.3183e+01	8.6451	59.085500	0.000203	2.026920	0.343370	0.000041
 436	4.3282e+01	8.6649	59.210651	0.000628	6.283454	1.064446	0.000126
 437	4.3382e+01	8.6856	59.295431	0.000426	4.256533	0.721076	0.000085
 438	4.3481e+01	8.7049	59.380211	0.000426	4.256533	0.721076	0.000085
 439	4.3581e+01	8.7251	59.432694	0.000263	2.634997	0.446381	0.000053
 440	4.3681e+01	8.7444	59.529585	0.000486	4.864609	0.824087	0.000097
 441	4.3780e+01	8.7653	59.646662	0.000588	5.878069	0.995772	0.000118
 442	4.3880e+01	8.7848	59.682996	0.000182	1.824228	0.309033	0.000037
 443	4.3979e+01	8.8039	59.820259	0.000689	6.891530	1.167457	0.000138
 444	4.4078e+01	8.8239	59.905039	0.000426	4.256533	0.721076	0.000085
 445	4.4178e+01	8.8435	59.993856	0.000446	4.459225	0.755413	0.000089
 446	4.4278e+01	8.8628	60.066524	0.000365	3.648457	0.618065	0.000073
 447	4.4377e+01	8.8828	60.131118	0.000324	3.243073	0.549391	0.000065
 448	4.4477e+01	8.9025	60.236084	0.000527	5.269993	0.892761	0.000105
 449	4.4576e+01	8.9243	60.316826	0.000405	4.053841	0.686739	0.000081
 450	4.4675e+01	8.9425	60.393532	0.000385	3.851149	0.652402	0.000077
 451	4.4775e+01	8.9631	60.498498	0.000527	5.269993	0.892761	0.000105
 452	4.4874e+01	8.9832	60.583277	0.000426	4.256533	0.721076	0.000085
 453	4.4974e+01	9.0029	60.639797	0.000284	2.837689	0.480717	0.000057
 454	4.5074e+01	9.0223	60.684206	0.000223	2.229613	0.377707	0.000045
 455	4.5173e+01	9.0430	60.825506	0.000709	7.094222	1.201794	0.000142
 456	4.5273e+01	9.0625	60.886063	0.000304	3.040381	0.515054	0.000061
 457	4.5372e+01	9.0823	60.991028	0.000527	5.269993	0.892761	0.000105
 458	4.5471e+01	9.1016	61.100031	0.000547	5.472685	0.927098	0.000110
 459	4.5571e+01	9.1219	61.188848	0.000446	4.459225	0.755413	0.000089
 460	4.5670e+01	9.1418	61.217108	0.000142	1.418844	0.240359	0.000028
 461	4.5770e+01	9.1620	61.285739	0.000345	3.445765	0.583728	0.000069
 462	4.5870e+01	9.1811	61.414927	0.000649	6.486146	1.098783	0.000130
 463	4.5969e+01	9.2023	61.479522	0.000324	3.243073	0.549391	0.000065
 464	4.6069e+01	9.2224	61.564301	0.000426	4.256533	0.721076	0.000085
 465	4.6168e+01	9.2418	61.669267	0.000527	5.269993	0.892761	0.000105
 466	4.6267e+01	9.2615	61.737898	0.000345	3.445765	0.583728	0.000069
 467	4.6367e+01	9.2822	61.822678	0.000426	4.256533	0.721076	0.000085
 468	4.6467e+01	9.3018	61.887272	0.000324	3.243073	0.549391	0.000065
 469	4.6566e+01	9.3221	62.012424	0.000628	6.283454	1.064446	0.000126
 470	4.6666e+01	9.3417	62.077018	0.000324	3.243073	0.549391	0.000065
 471	4.6765e+01	9.3617	62.145649	0.000345	3.445765	0.583728	0.000069
 472	4.6864e+01	9.3813	62.230429	0.000426	4.256533	0.721076	0.000085
 473	4.6964e+01	9.4019	62.319246	0.000446	4.459225	0.755413	0.000089
 474	4.7063e+01	9.4216	62.399989	0.000405	4.053841	0.686739	0.000081
 475	4.7163e+01	9.4413	62.488806	0.000446	4.459225	0.755413	0.000089
 476	4.7263e+01	9.4598	62.569548	0.000405	4.053841	0.686739	0.000081
 477	4.7362e+01	9.4814	62.662402	0.000466	4.661917	0.789750	0.000093
 478	4.7462e+01	9.5008	62.710848	0.000243	2.432305	0.412044	0.000049
 479	4.7561e+01	9.5200	62.807739	0.000486	4.864609	0.824087	0.000097
 480	4.7660e+01	9.5411	62.876371	0.000345	3.445765	0.583728	0.000069
 481	4.7760e+01	9.5609	62.936928	0.000304	3.040381	0.515054	0.000061
 482	4.7859e+01	9.5802	63.070153	0.000669	6.688838	1.133120	0.000134
 483	4.7959e+01	9.6001	63.106487	0.000182	1.824228	0.309033	0.000037
 484	4.8059e+01	9.6198	63.219527	0.000568	5.675377	0.961435	0.000114
 485	4.8158e+01	9.6399	63.280084	0.000304	3.040381	0.515054	0.000061
 486	4.8258e+01	9.6595	63.368901	0.000446	4.459225	0.755413	0.000089
 487	4.8357e+01	9.6802	63.481941	0.000568	5.675377	0.961435	0.000114
 488	4.8456e+01	9.6993	63.550572	0.000345	3.445765	0.583728	0.000069
 489	4.8556e+01	9.7199	63.599018	0.000243	2.432305	0.412044	0.000049
 490	4.8656e+01	9.7400	63.712058	0.000568	5.675377	0.961435	0.000114
 491	4.8755e+01	9.7591	63.772615	0.000304	3.040381	0.515054	0.000061
 492	4.8855e+01	9.7803	63.885654	0.000568	5.675377	0.961435	0.000114
 493	4.8954e+01	9.8000	63.982546	0.000486	4.864609	0.824087	0.000097
 494	4.9053e+01	9.8193	64.030991	0.000243	2.432305	0.412044	0.000049
 495	4.9153e+01	9.8401	64.115771	0.000426	4.256533	0.721076	0.000085
 496	4.9252e+01	9.8589	64.208625	0.000466	4.661917	0.789750	0.000093
 497	4.9352e+01	9.8797	64.313591	0.000527	5.269993	0.892761	0.000105
 498	4.9452e+01	9.8987	64.390296	0.000385	3.851149	0.652402	0.000077
 499	4.9551e+01	9.9184	64.450853	0.000304	3.040381	0.515054	0.000061
 500	4.9651e+01	9.9386	64.551782	0.000507	5.067301	0.858424	0.000101
 501	4.9750e+01	9.9591	64.616376	0.000324	3.243073	0.549391	0.000065
 502	4.9849e+01	9.9780	64.717304	0.000507	5.067301	0.858424	0.000101
 503	4.9949e+01	9.9982	64.789973	0.000365	3.648457	0.618065	0.000073
 504	5.0048e+01	9.9790	64.777861	0.000061	0.608076	0.103011	-0.000012
 505	5.0148e+01	9.9581	64.689044	0.000446	4.459225	0.755413	-0.000089
 506	5.0248e+01	9.9386	64.628487	0.000304	3.040381	0.515054	-0.000061
 507	5.0347e+01	9.9194	64.580042	0.000243	2.432305	0.412044	-0.000049
 508	5.0447e+01	9.8987	64.507373	0.000365	3.648457	0.618065	-0.000073
 509	5.0546e+01	9.8788	64.450853	0.000284	2.837689	0.480717	-0.000057
 510	5.0645e+01	9.8590	64.406445	0.000223	2.229613	0.377707	-0.000045
 511	5.0745e+01	9.8390	64.357999	0.000243	2.432305	0.412044	-0.000049
 512	5.0844e+01	9.8187	64.309554	0.000243	2.432305	0.412044	-0.000049
 513	5.0944e+01	9.7998	64.204588	0.000527	5.269993	0.892761	-0.000105
 514	5.1044e+01	9.7787	64.152105	0.000263	2.634997	0.446381	-0.000053
 515	5.1143e+01	9.7591	64.047140	0.000527	5.269993	0.892761	-0.000105
 516	5.1242e+01	9.7388	64.006769	0.000203	2.026920	0.343370	-0.000041
 517	5.1342e+01	9.7192	63.946212	0.000304	3.040381	0.515054	-0.000061
 518	5.1441e+01	9.6997	63.865469	0.000405	4.053841	0.686739	-0.000081
 519	5.1541e+01	9.6806	63.804912	0.000304	3.040381	0.515054	-0.000061
 520	5.1641e+01	9.6595	63.732243	0.000365	3.648457	0.618065	-0.000073
 521	5.1740e+01	9.6389	63.683798	0.000243	2.432305	0.412044	-0.000049
 522	5.1840e+01	9.6204	63.627278	0.000284	2.837689	0.480717	-0.000057
 523	5.1939e+01	9.5996	63.554609	0.000365	3.648457	0.618065	-0.000073
 524	5.2038e+01	9.5792	63.457718	0.000486	4.864609	0.824087	-0.000097
 525	5.2138e+01	9.5605	63.417347	0.000203	2.026920	0.343370	-0.000041
 526	5.2237e+01	9.5410	63.320455	0.000486	4.864609	0.824087	-0.000097
 527	5.2337e+01	9.5215	63.304307	0.000081	0.810768	0.137348	-0.000016
 528	5.2437e+01	9.5001	63.211453	0.000466	4.661917	0.789750	-0.000093
 529	5.2536e+01	9.4816	63.142822	0.000345	3.445765	0.583728	-0.000069
 530	5.2636e+01	9.4605	63.045930	0.000486	4.864609	0.824087	-0.000097
 531	5.2735e+01	9.4407	63.001522	0.000223	2.229613	0.377707	-0.000045
 532	5.2834e+01	9.4211	62.936928	0.000324	3.243073	0.549391	-0.000065
 533	5.2934e+01	9.4010	62.880408	0.000284	2.837689	0.480717	-0.000057
 534	5.3033e+01	9.3817	62.803702	0.000385	3.851149	0.652402	-0.000077
 535	5.3133e+01	9.3612	62.747182	0.000284	2.837689	0.480717	-0.000057
 536	5.3233e+01	9.3417	62.658365	0.000446	4.459225	0.755413	-0.000089
 537	5.3332e+01	9.3220	62.589734	0.000345	3.445765	0.583728	-0.000069
 538	5.3431e+01	9.3018	62.545325	0.000223	2.229613	0.377707	-0.000045
 539	5.3531e+01	9.2823	62.432286	0.000568	5.675377	0.961435	-0.000114
 540	5.3630e+01	9.2605	62.379803	0.000263	2.634997	0.446381	-0.000053
 541	5.3730e+01	9.2417	62.347506	0.000162	1.621536	0.274696	-0.000032
 542	5.3830e+01	9.2218	62.238503	0.000547	5.472685	0.927098	-0.000110
 543	5.3929e+01	9.2030	62.190057	0.000243	2.432305	0.412044	-0.000049
 544	5.4029e+01	9.1816	62.085092	0.000527	5.269993	0.892761	-0.000105
 545	5.4128e+01	9.1622	62.032609	0.000263	2.634997	0.446381	-0.000053
 546	5.4227e+01	9.1424	61.911495	0.000608	6.080761	1.030109	-0.000122
 547	5.4327e+01	9.1223	61.923607	-0.000061	-0.608076	-0.103011	0.000012
 548	5.4426e+01	9.1028	61.806530	0.000588	5.878069	0.995772	-0.000118
 549	5.4526e+01	9.0826	61.741935	0.000324	3.243073	0.549391	-0.000065
 550	5.4626e+01	9.0625	61.669267	0.000365	3.648457	0.618065	-0.000073
 551	5.4725e+01	9.0421	61.596599	0.000365	3.648457	0.618065	-0.000073
 552	5.4825e+01	9.0228	61.499707	0.000486	4.864609	0.824087	-0.000097
 553	5.4924e+01	9.0025	61.435113	0.000324	3.243073	0.549391	-0.000065
 554	5.5023e+01	8.9825	61.370519	0.000324	3.243073	0.549391	-0.000065
 555	5.5123e+01	8.9632	61.342259	0.000142	1.418844	0.240359	-0.000028
 556	5.5222e+01	8.9429	61.233256	0.000547	5.472685	0.927098	-0.000110
 557	5.5322e+01	8.9236	61.200959	0.000162	1.621536	0.274696	-0.000032
 558	5.5422e+01	8.9034	61.095994	0.000527	5.269993	0.892761	-0.000105
 559	5.5521e+01	8.8833	61.023325	0.000365	3.648457	0.618065	-0.000073
 560	5.5620e+01	8.8629	60.970842	0.000263	2.634997	0.446381	-0.000053
 561	5.5720e+01	8.8433	60.886063	0.000426	4.256533	0.721076	-0.000085
 562	5.5819e+01	8.8246	60.813394	0.000365	3.648457	0.618065	-0.000073
 563	5.5919e+01	8.8043	60.752837	0.000304	3.040381	0.515054	-0.000061
 564	5.6019e+01	8.7836	60.668057	0.000426	4.256533	0.721076	-0.000085
 565	5.6118e+01	8.7652	60.607500	0.000304	3.040381	0.515054	-0.000061
 566	5.6218e+01	8.7437	60.526758	0.000405	4.053841	0.686739	-0.000081
 567	5.6317e+01	8.7240	60.433903	0.000466	4.661917	0.789750	-0.000093
 568	5.6416e+01	8.7038	60.377384	0.000284	2.837689	0.480717	-0.000057
 569	5.6516e+01	8.6854	60.296641	0.000405	4.053841	0.686739	-0.000081
 570	5.6615e+01	8.6652	60.248195	0.000243	2.432305	0.412044	-0.000049
 571	5.6715e+01	8.6452	60.151304	0.000486	4.864609	0.824087	-0.000097
 572	5.6815e+01	8.6256	60.066524	0.000426	4.256533	0.721076	-0.000085
 573	5.6914e+01	8.6056	59.981744	0.000426	4.256533	0.721076	-0.000085
 574	5.7014e+01	8.5843	59.892927	0.000446	4.459225	0.755413	-0.000089
 575	5.7113e+01	8.5649	59.852556	0.000203	2.026920	0.343370	-0.000041
 576	5.7212e+01	8.5458	59.763739	0.000446	4.459225	0.755413	-0.000089
 577	5.7312e+01	8.5265	59.703182	0.000304	3.040381	0.515054	-0.000061
 578	5.7411e+01	8.5050	59.573994	0.000649	6.486146	1.098783	-0.000130
 579	5.7511e+01	8.4863	59.513436	0.000304	3.040381	0.515054	-0.000061
 580	5.7611e+01	8.4652	59.469028	0.000223	2.229613	0.377707	-0.000045
 581	5.7710e+01	8.4460	59.384248	0.000426	4.256533	0.721076	-0.000085
 582	5.7809e+01	8.4258	59.323691	0.000304	3.040381	0.515054	-0.000061
 583	5.7909e+01	8.4052	59.255060	0.000345	3.445765	0.583728	-0.000069
 584	5.8008e+01	8.3855	59.137983	0.000588	5.878069	0.995772	-0.000118
 585	5.8108e+01	8.3656	59.065314	0.000365	3.648457	0.618065	-0.000073
 586	5.8208e+01	8.3463	58.988609	0.000385	3.851149	0.652402	-0.000077
 587	5.8307e+01	8.3266	58.875569	0.000568	5.675377	0.961435	-0.000114
 588	5.8407e+01	8.3070	58.810975	0.000324	3.243073	0.549391	-0.000065
 589	5.8506e+01	8.2858	58.734269	0.000385	3.851149	0.652402	-0.000077
 590	5.8605e+01	8.2667	58.697935	0.000182	1.824228	0.309033	-0.000037
 591	5.8705e+01	8.2465	58.588932	0.000547	5.472685	0.927098	-0.000110
 592	5.8804e+01	8.2259	58.524338	0.000324	3.243073	0.549391	-0.000065
 593	5.8904e+01	8.2080	58.419373	0.000527	5.269993	0.892761	-0.000105
 594	5.9004e+01	8.1866	58.362853	0.000284	2.837689	0.480717	-0.000057
 595	5.9103e+01	8.1674	58.249813	0.000568	5.675377	0.961435	-0.000114
 596	5.9203e+01	8.1464	58.197330	0.000263	2.634997	0.446381	-0.000053
 597	5.9302e+01	8.1271	58.128699	0.000345	3.445765	0.583728	-0.000069
 598	5.9401e+01	8.1072	58.027771	0.000507	5.067301	0.858424	-0.000101
 599	5.9501e+01	8.0864	57.955102	0.000365	3.648457	0.618065	-0.000073
 600	5.9600e+01	8.0672	57.890508	0.000324	3.243073	0.549391	-0.000065
 601	5.9700e+01	8.0474	57.805728	0.000426	4.256533	0.721076	-0.000085
 602	5.9800e+01	8.0282	57.712874	0.000466	4.661917	0.789750	-0.000093
 603	5.9899e+01	8.0080	57.624057	0.000446	4.459225	0.755413	-0.000089
 604	5.9998e+01	7.9871	57.539277	0.000426	4.256533	0.721076	-0.000085
 605	6.0098e+01	7.9684	57.498906	0.000203	2.026920	0.343370	-0.000041
 606	6.0197e+01	7.9475	57.377792	0.000608	6.080761	1.030109	-0.000122
 607	6.0297e+01	7.9276	57.297049	0.000405	4.053841	0.686739	-0.000081
 608	6.0397e+01	7.9072	57.244566	0.000263	2.634997	0.446381	-0.000053
 609	6.0496e+01	7.8880	57.175935	0.000345	3.445765	0.583728	-0.000069
 610	6.0596e+01	7.8679	57.066932	0.000547	5.472685	0.927098	-0.000110
 611	6.0695e+01	7.8485	57.010412	0.000284	2.837689	0.480717	-0.000057
 612	6.0794e+01	7.8278	56.905447	0.000527	5.269993	0.892761	-0.000105
 613	6.0894e+01	7.8078	56.844890	0.000304	3.040381	0.515054	-0.000061
 614	6.0993e+01	7.7878	56.768184	0.000385	3.851149	0.652402	-0.000077
 615	6.1093e+01	7.7687	56.687441	0.000405	4.053841	0.686739	-0.000081
 616	6.1193e+01	7.7490	56.598624	0.000446	4.459225	0.755413	-0.000089
 617	6.1292e+01	7.7289	56.529993	0.000345	3.445765	0.583728	-0.000069
 618	6.1392e+01	7.7094	56.429065	0.000507	5.067301	0.858424	-0.000101
 619	6.1491e+01	7.6882	56.348322	0.000405	4.053841	0.686739	-0.000081
 620	6.1590e+01	7.6691	56.287765	0.000304	3.040381	0.515054	-0.000061
 621	6.1690e+01	7.6493	56.207022	0.000405	4.053841	0.686739	-0.000081
 622	6.1789e+01	7.6292	56.098020	0.000547	5.472685	0.927098	-0.000110
 623	6.1889e+01	7.6086	56.057648	0.000203	2.026920	0.343370	-0.000041
 624	6.1989e+01	7.5891	55.952683	0.000527	5.269993	0.892761	-0.000105
 625	6.2088e+01	7.5694	55.867903	0.000426	4.256533	0.721076	-0.000085
 626	6.2188e+01	7.5497	55.779086	0.000446	4.459225	0.755413	-0.000089
 627	6.2287e+01	7.5295	55.738715	0.000203	2.026920	0.343370	-0.000041
 628	6.2386e+01	7.5098	55.637786	0.000507	5.067301	0.858424	-0.000101
 629	6.2486e+01	7.4895	55.548969	0.000446	4.459225	0.755413	-0.000089
 630	6.2586e+01	7.4692	55.448041	0.000507	5.067301	0.858424	-0.000101
 631	6.2685e+01	7.4509	55.383447	0.000324	3.243073	0.549391	-0.000065
 632	6.2785e+01	7.4308	55.314815	0.000345	3.445765	0.583728	-0.000069
 633	6.2884e+01	7.4100	55.169478	0.000730	7.296914	1.236131	-0.000146
 634	6.2983e+01	7.3899	55.157367	0.000061	0.608076	0.103011	-0.000012
 635	6.3083e+01	7.3714	55.016067	0.000709	7.094222	1.201794	-0.000142
 636	6.3182e+01	7.3501	54.955510	0.000304	3.040381	0.515054	-0.000061
 637	6.3282e+01	7.3302	54.890916	0.000324	3.243073	0.549391	-0.000065
 638	6.3382e+01	7.3096	54.794025	0.000486	4.864609	0.824087	-0.000097
 639	6.3481e+01	7.2904	54.705208	0.000446	4.459225	0.755413	-0.000089
 640	6.3581e+01	7.2709	54.640614	0.000324	3.243073	0.549391	-0.000065
 641	6.3680e+01	7.2510	54.547760	0.000466	4.661917	0.789750	-0.000093
 642	6.3779e+01	7.2299	54.426645	0.000608	6.080761	1.030109	-0.000122
 643	6.3879e+01	7.2103	54.370126	0.000284	2.837689	0.480717	-0.000057
 644	6.3978e+01	7.1908	54.293420	0.000385	3.851149	0.652402	-0.000077
 645	6.4078e+01	7.1703	54.216714	0.000385	3.851149	0.652402	-0.000077
 646	6.4177e+01	7.1511	54.156157	0.000304	3.040381	0.515054	-0.000061
 647	6.4277e+01	7.1306	54.031006	0.000628	6.283454	1.064446	-0.000126
 648	6.4376e+01	7.1119	53.950263	0.000405	4.053841	0.686739	-0.000081
 649	6.4476e+01	7.0917	53.849335	0.000507	5.067301	0.858424	-0.000101
 650	6.4576e+01	7.0713	53.784741	0.000324	3.243073	0.549391	-0.000065
 651	6.4675e+01	7.0521	53.703998	0.000405	4.053841	0.686739	-0.000081
 652	6.4775e+01	7.0313	53.619218	0.000426	4.256533	0.721076	-0.000085
 653	6.4874e+01	7.0113	53.538476	0.000405	4.053841	0.686739	-0.000081
 654	6.4974e+01	6.9917	53.425436	0.000568	5.675377	0.961435	-0.000114
 655	6.5073e+01	6.9727	53.413324	0.000061	0.608076	0.103011	-0.000012
 656	6.5172e+01	6.9521	53.288173	0.000628	6.283454	1.064446	-0.000126
 657	6.5272e+01	6.9323	53.183208	0.000527	5.269993	0.892761	-0.000105
 658	6.5371e+01	6.9128	53.110539	0.000365	3.648457	0.618065	-0.000073
 659	6.5471e+01	6.8925	53.054019	0.000284	2.837689	0.480717	-0.000057
 660	6.5570e+01	6.8723	52.953091	0.000507	5.067301	0.858424	-0.000101
 661	6.5670e+01	6.8526	52.880422	0.000365	3.648457	0.618065	-0.000073
 662	6.5769e+01	6.8324	52.791605	0.000446	4.459225	0.755413	-0.000089
 663	6.5869e+01	6.8127	52.722974	0.000345	3.445765	0.583728	-0.000069
 664	6.5969e+01	6.7928	52.626083	0.000486	4.864609	0.824087	-0.000097
 665	6.6068e+01	6.7721	52.569563	0.000284	2.837689	0.480717	-0.000057
 666	6.6168e+01	6.7525	52.436338	0.000669	6.688838	1.133120	-0.000134
 667	6.6267e+01	6.7333	52.379818	0.000284	2.837689	0.480717	-0.000057
 668	6.6367e+01	6.7127	52.278889	0.000507	5.067301	0.858424	-0.000101
 669	6.6466e+01	6.6927	52.222369	0.000284	2.837689	0.480717	-0.000057
 670	6.6566e+01	6.6727	52.101255	0.000608	6.080761	1.030109	-0.000122
 671	6.6665e+01	6.6531	52.068958	0.000162	1.621536	0.274696	-0.000032
 672	6.6764e+01	6.6330	51.963993	0.000527	5.269993	0.892761	-0.000105
 673	6.6864e+01	6.6137	51.875176	0.000446	4.459225	0.755413	-0.000089
 674	6.6963e+01	6.5938	51.830767	0.000223	2.229613	0.377707	-0.000045
 675	6.7063e+01	6.5726	51.685430	0.000730	7.296914	1.236131	-0.000146
 676	6.7162e+01	6.5542	51.636985	0.000243	2.432305	0.412044	-0.000049
 677	6.7262e+01	6.5336	51.532019	0.000527	5.269993	0.892761	-0.000105
 678	6.7362e+01	6.5141	51.447239	0.000426	4.256533	0.721076	-0.000085
 679	6.7461e+01	6.4928	51.390719	0.000284	2.837689	0.480717	-0.000057
 680	6.7561e+01	6.4736	51.293828	0.000486	4.864609	0.824087	-0.000097
 681	6.7660e+01	6.4543	51.200974	0.000466	4.661917	0.789750	-0.000093
 682	6.7760e+01	6.4341	51.108120	0.000466	4.661917	0.789750	-0.000093
 683	6.7859e+01	6.4143	51.023340	0.000426	4.256533	0.721076	-0.000085
 684	6.7959e+01	6.3940	50.926449	0.000486	4.864609	0.824087	-0.000097
 685	6.8058e+01	6.3738	50.869929	0.000284	2.837689	0.480717	-0.000057
 686	6.8157e+01	6.3544	50.752852	0.000588	5.878069	0.995772	-0.000118
 687	6.8257e+01	6.3338	50.631738	0.000608	6.080761	1.030109	-0.000122
 688	6.8356e+01	6.3143	50.579255	0.000263	2.634997	0.446381	-0.000053
 689	6.8456e+01	6.2945	50.502550	0.000385	3.851149	0.652402	-0.000077
 690	6.8555e+01	6.2749	50.421807	0.000405	4.053841	0.686739	-0.000081
 691	6.8655e+01	6.2551	50.308767	0.000568	5.675377	0.961435	-0.000114
 692	6.8754e+01	6.2365	50.276470	0.000162	1.621536	0.274696	-0.000032
 693	6.8854e+01	6.2159	50.127096	0.000750	7.499606	1.270468	-0.000150
 694	6.8954e+01	6.1948	50.038279	0.000446	4.459225	0.755413	-0.000089
 695	6.9053e+01	6.1750	50.001945	0.000182	1.824228	0.309033	-0.000037
 696	6.9153e+01	6.1559	49.901016	0.000507	5.067301	0.858424	-0.000101
 697	6.9252e+01	6.1358	49.812199	0.000446	4.459225	0.755413	-0.000089
 698	6.9352e+01	6.1153	49.739531	0.000365	3.648457	0.618065	-0.000073
 699	6.9451e+01	6.0955	49.646677	0.000466	4.661917	0.789750	-0.000093
 700	6.9550e+01	6.0757	49.513451	0.000669	6.688838	1.133120	-0.000134
 701	6.9650e+01	6.0557	49.460968	0.000263	2.634997	0.446381	-0.000053
 702	6.9749e+01	6.0358	49.372152	0.000446	4.459225	0.755413	-0.000089
 703	6.9849e+01	6.0166	49.283335	0.000446	4.459225	0.755413	-0.000089
 704	6.9948e+01	5.9963	49.158183	0.000628	6.283454	1.064446	-0.000126
 705	7.0048e+01	5.9763	49.101663	0.000284	2.837689	0.480717	-0.000057
 706	7.0147e+01	5.9566	49.024958	0.000385	3.851149	0.652402	-0.000077
 707	7.0247e+01	5.9360	48.952289	0.000365	3.648457	0.618065	-0.000073
 708	7.0347e+01	5.9164	48.819064	0.000669	6.688838	1.133120	-0.000134
 709	7.0446e+01	5.8962	48.722173	0.000486	4.864609	0.824087	-0.000097
 710	7.0546e+01	5.8763	48.649504	0.000365	3.648457	0.618065	-0.000073
 711	7.0645e+01	5.8573	48.564724	0.000426	4.256533	0.721076	-0.000085
 712	7.0745e+01	5.8361	48.475907	0.000446	4.459225	0.755413	-0.000089
 713	7.0844e+01	5.8177	48.387090	0.000446	4.459225	0.755413	-0.000089
 714	7.0944e+01	5.7970	48.261939	0.000628	6.283454	1.064446	-0.000126
 715	7.1043e+01	5.7769	48.193308	0.000345	3.445765	0.583728	-0.000069
 716	7.1142e+01	5.7555	48.084305	0.000547	5.472685	0.927098	-0.000110
 717	7.1242e+01	5.7366	48.015674	0.000345	3.445765	0.583728	-0.000069
 718	7.1341e+01	5.7178	47.938968	0.000385	3.851149	0.652402	-0.000077
 719	7.1441e+01	5.6978	47.829966	0.000547	5.472685	0.927098	-0.000110
 720	7.1540e+01	5.6759	47.797669	0.000162	1.621536	0.274696	-0.000032
 721	7.1640e+01	5.6578	47.704814	0.000466	4.661917	0.789750	-0.000093
 722	7.1740e+01	5.6373	47.579663	0.000628	6.283454	1.064446	-0.000126
 723	7.1839e+01	5.6181	47.478735	0.000507	5.067301	0.858424	-0.000101
 724	7.1939e+01	5.5975	47.393955	0.000426	4.256533	0.721076	-0.000085
 725	7.2038e+01	5.5781	47.288989	0.000527	5.269993	0.892761	-0.000105
 726	7.2138e+01	5.5569	47.228432	0.000304	3.040381	0.515054	-0.000061
 727	7.2237e+01	5.5389	47.103281	0.000628	6.283454	1.064446	-0.000126
 728	7.2337e+01	5.5176	47.026576	0.000385	3.851149	0.652402	-0.000077
 729	7.2436e+01	5.4982	46.909499	0.000588	5.878069	0.995772	-0.000118
 730	7.2535e+01	5.4784	46.824719	0.000426	4.256533	0.721076	-0.000085
 731	7.2635e+01	5.4583	46.756088	0.000345	3.445765	0.583728	-0.000069
 732	7.2734e+01	5.4386	46.663233	0.000466	4.661917	0.789750	-0.000093
 733	7.2834e+01	5.4183	46.558268	0.000527	5.269993	0.892761	-0.000105
 734	7.2933e+01	5.3986	46.477525	0.000405	4.053841	0.686739	-0.000081
 735	7.3033e+01	5.3783	46.368523	0.000547	5.472685	0.927098	-0.000110
 736	7.3132e+01	5.3582	46.307965	0.000304	3.040381	0.515054	-0.000061
 737	7.3232e+01	5.3384	46.194926	0.000568	5.675377	0.961435	-0.000114
 738	7.3332e+01	5.3179	46.093997	0.000507	5.067301	0.858424	-0.000101
 739	7.3431e+01	5.2989	46.017292	0.000385	3.851149	0.652402	-0.000077
 740	7.3531e+01	5.2784	45.924438	0.000466	4.661917	0.789750	-0.000093
 741	7.3630e+01	5.2593	45.807361	0.000588	5.878069	0.995772	-0.000118
 742	7.3730e+01	5.2398	45.750841	0.000284	2.837689	0.480717	-0.000057
 743	7.3829e+01	5.2192	45.613578	0.000689	6.891530	1.167457	-0.000138
 744	7.3928e+01	5.1989	45.540910	0.000365	3.648457	0.618065	-0.000073
 745	7.4028e+01	5.1792	45.431907	0.000547	5.472685	0.927098	-0.000110
 746	7.4127e+01	5.1591	45.318867	0.000568	5.675377	0.961435	-0.000114
 747	7.4227e+01	5.1392	45.234087	0.000426	4.256533	0.721076	-0.000085
 748	7.4326e+01	5.1189	45.104899	0.000649	6.486146	1.098783	-0.000130
 749	7.4426e+01	5.1000	45.072602	0.000162	1.621536	0.274696	-0.000032
 750	7.4525e+01	5.0791	44.939376	0.000669	6.688838	1.133120	-0.000134
 751	7.4625e+01	5.0588	44.838448	0.000507	5.067301	0.858424	-0.000101
 752	7.4725e+01	5.0398	44.741557	0.000486	4.864609	0.824087	-0.000097
 753	7.4824e+01	5.0207	44.648703	0.000466	4.661917	0.789750	-0.000093
 754	7.4924e+01	5.0004	44.539700	0.000547	5.472685	0.927098	-0.000110
 755	7.5023e+01	4.9796	44.458957	0.000405	4.053841	0.686739	-0.000081
 756	7.5123e+01	4.9604	44.366103	0.000466	4.661917	0.789750	-0.000093
 757	7.5222e+01	4.9410	44.253063	0.000568	5.675377	0.961435	-0.000114
 758	7.5322e+01	4.9209	44.148098	0.000527	5.269993	0.892761	-0.000105
 759	7.5421e+01	4.9003	44.067355	0.000405	4.053841	0.686739	-0.000081
 760	7.5520e+01	4.8806	43.934130	0.000669	6.688838	1.133120	-0.000134
 761	7.5620e+01	4.8607	43.837238	0.000486	4.864609	0.824087	-0.000097
 762	7.5719e+01	4.8423	43.732273	0.000527	5.269993	0.892761	-0.000105
 763	7.5819e+01	4.8205	43.667679	0.000324	3.243073	0.549391	-0.000065
 764	7.5918e+01	4.8009	43.566750	0.000507	5.067301	0.858424	-0.000101
 765	7.6018e+01	4.7807	43.469859	0.000486	4.864609	0.824087	-0.000097
 766	7.6118e+01	4.7598	43.385079	0.000426	4.256533	0.721076	-0.000085
 767	7.6217e+01	4.7413	43.239742	0.000730	7.296914	1.236131	-0.000146
 768	7.6317e+01	4.7210	43.159000	0.000405	4.053841	0.686739	-0.000081
 769	7.6416e+01	4.7015	43.078257	0.000405	4.053841	0.686739	-0.000081
 770	7.6516e+01	4.6813	42.945031	0.000669	6.688838	1.133120	-0.000134
 771	7.6615e+01	4.6615	42.900623	0.000223	2.229613	0.377707	-0.000045
 772	7.6715e+01	4.6416	42.767397	0.000669	6.688838	1.133120	-0.000134
 773	7.6814e+01	4.6221	42.666469	0.000507	5.067301	0.858424	-0.000101
 774	7.6913e+01	4.6017	42.585726	0.000405	4.053841	0.686739	-0.000081
 775	7.7013e+01	4.5822	42.464612	0.000608	6.080761	1.030109	-0.000122
 776	7.7112e+01	4.5613	42.404055	0.000304	3.040381	0.515054	-0.000061
 777	7.7212e+01	4.5428	42.282941	0.000608	6.080761	1.030109	-0.000122
 778	7.7311e+01	4.5220	42.161827	0.000608	6.080761	1.030109	-0.000122
 779	7.7411e+01	4.5025	42.113381	0.000243	2.432305	0.412044	-0.000049
 780	7.7510e+01	4.4817	41.968045	0.000730	7.296914	1.236131	-0.000146
 781	7.7610e+01	4.4622	41.887302	0.000405	4.053841	0.686739	-0.000081
 782	7.7710e+01	4.4427	41.741965	0.000730	7.296914	1.236131	-0.000146
 783	7.7809e+01	4.4221	41.701594	0.000203	2.026920	0.343370	-0.000041
 784	7.7909e+01	4.4024	41.596628	0.000527	5.269993	0.892761	-0.000105
 785	7.8008e+01	4.3829	41.479551	0.000588	5.878069	0.995772	-0.000118
 786	7.8108e+01	4.3629	41.358437	0.000608	6.080761	1.030109	-0.000122
 787	7.8207e+01	4.3435	41.269620	0.000446	4.459225	0.755413	-0.000089
 788	7.8306e+01	4.3233	41.152543	0.000588	5.878069	0.995772	-0.000118
 789	7.8406e+01	4.3029	41.071800	0.000405	4.053841	0.686739	-0.000081
 790	7.8505e+01	4.2834	40.962798	0.000547	5.472685	0.927098	-0.000110
 791	7.8605e+01	4.2626	40.861869	0.000507	5.067301	0.858424	-0.000101
 792	7.8704e+01	4.2437	40.785164	0.000385	3.851149	0.652402	-0.000077
 793	7.8804e+01	4.2222	40.684235	0.000507	5.067301	0.858424	-0.000101
 794	7.8903e+01	4.2034	40.583307	0.000507	5.067301	0.858424	-0.000101
 795	7.9003e+01	4.1824	40.470267	0.000568	5.675377	0.961435	-0.000114
 796	7.9103e+01	4.1638	40.365302	0.000527	5.269993	0.892761	-0.000105
 797	7.9202e+01	4.1445	40.244188	0.000608	6.080761	1.030109	-0.000122
 798	7.9302e+01	4.1238	40.171519	0.000365	3.648457	0.618065	-0.000073
 799	7.9401e+01	4.1041	40.054442	0.000588	5.878069	0.995772	-0.000118
 800	7.9501e+01	4.0831	39.957551	0.000486	4.864609	0.824087	-0.000097
 801	7.9600e+01	4.0639	39.848548	0.000547	5.472685	0.927098	-0.000110
 802	7.9700e+01	4.0435	39.755694	0.000466	4.661917	0.789750	-0.000093
 803	7.9799e+01	4.0240	39.654766	0.000507	5.067301	0.858424	-0.000101
 804	7.9898e+01	4.0036	39.557875	0.000486	4.864609	0.824087	-0.000097
 805	7.9998e+01	3.9847	39.428686	0.000649	6.486146	1.098783	-0.000130
 806	8.0097e+01	3.9646	39.323721	0.000527	5.269993	0.892761	-0.000105
 807	8.0197e+01	3.9445	39.259126	0.000324	3.243073	0.549391	-0.000065
 808	8.0296e+01	3.9236	39.109752	0.000750	7.499606	1.270468	-0.000150
 809	8.0396e+01	3.9048	39.008824	0.000507	5.067301	0.858424	-0.000101
 810	8.0496e+01	3.8836	38.899821	0.000547	5.472685	0.927098	-0.000110
 811	8.0595e+01	3.8644	38.835227	0.000324	3.243073	0.549391	-0.000065
 812	8.0695e+01	3.8433	38.718150	0.000588	5.878069	0.995772	-0.000118
 813	8.0794e+01	3.8247	38.568776	0.000750	7.499606	1.270468	-0.000150
 814	8.0894e+01	3.8046	38.504182	0.000324	3.243073	0.549391	-0.000065
 815	8.0993e+01	3.7857	38.391142	0.000568	5.675377	0.961435	-0.000114
 816	8.1093e+01	3.7659	38.286177	0.000527	5.269993	0.892761	-0.000105
 817	8.1192e+01	3.7449	38.189286	0.000486	4.864609	0.824087	-0.000097
 818	8.1291e+01	3.7247	38.068171	0.000608	6.080761	1.030109	-0.000122
 819	8.1391e+01	3.7051	37.963206	0.000527	5.269993	0.892761	-0.000105
 820	8.1490e+01	3.6861	37.846129	0.000588	5.878069	0.995772	-0.000118
 821	8.1590e+01	3.6660	37.749238	0.000486	4.864609	0.824087	-0.000097
 822	8.1689e+01	3.6456	37.648309	0.000507	5.067301	0.858424	-0.000101
 823	8.1789e+01	3.6259	37.527195	0.000608	6.080761	1.030109	-0.000122
 824	8.1888e+01	3.6059	37.466638	0.000304	3.040381	0.515054	-0.000061
 825	8.1988e+01	3.5867	37.365710	0.000507	5.067301	0.858424	-0.000101
 826	8.2088e+01	3.5656	37.256707	0.000547	5.472685	0.927098	-0.000110
 827	8.2187e+01	3.5461	37.127519	0.000649	6.486146	1.098783	-0.000130
 828	8.2287e+01	3.5258	37.046776	0.000405	4.053841	0.686739	-0.000081
 829	8.2386e+01	3.5062	36.929699	0.000588	5.878069	0.995772	-0.000118
 830	8.2486e+01	3.4863	36.844919	0.000426	4.256533	0.721076	-0.000085
 831	8.2585e+01	3.4660	36.768214	0.000385	3.851149	0.652402	-0.000077
 832	8.2684e+01	3.4464	36.630951	0.000689	6.891530	1.167457	-0.000138
 833	8.2784e+01	3.4266	36.530023	0.000507	5.067301	0.858424	-0.000101
 834	8.2883e+01	3.4066	36.449280	0.000405	4.053841	0.686739	-0.000081
 835	8.2983e+01	3.3867	36.312017	0.000689	6.891530	1.167457	-0.000138
 836	8.3082e+01	3.3662	36.239349	0.000365	3.648457	0.618065	-0.000073
 837	8.3182e+01	3.3464	36.094012	0.000730	7.296914	1.236131	-0.000146
 838	8.3281e+01	3.3265	36.009232	0.000426	4.256533	0.721076	-0.000085
 839	8.3381e+01	3.3062	35.880044	0.000649	6.486146	1.098783	-0.000130
 840	8.3481e+01	3.2864	35.791227	0.000446	4.459225	0.755413	-0.000089
 841	8.3580e+01	3.2665	35.726633	0.000324	3.243073	0.549391	-0.000065
 842	8.3680e+01	3.2476	35.597444	0.000649	6.486146	1.098783	-0.000130
 843	8.3779e+01	3.2273	35.464219	0.000669	6.688838	1.133120	-0.000134
 844	8.3879e+01	3.2072	35.367328	0.000486	4.864609	0.824087	-0.000097
 845	8.3978e+01	3.1873	35.274474	0.000466	4.661917	0.789750	-0.000093
 846	8.4078e+01	3.1666	35.193731	0.000405	4.053841	0.686739	-0.000081
 847	8.4177e+01	3.1472	35.044357	0.000750	7.499606	1.270468	-0.000150
 848	8.4276e+01	3.1274	34.947466	0.000486	4.864609	0.824087	-0.000097
 849	8.4376e+01	3.1072	34.846537	0.000507	5.067301	0.858424	-0.000101
 850	8.4475e+01	3.0872	34.725423	0.000608	6.080761	1.030109	-0.000122
 851	8.4575e+01	3.0676	34.632569	0.000466	4.661917	0.789750	-0.000093
 852	8.4674e+01	3.0479	34.551826	0.000405	4.053841	0.686739	-0.000081
 853	8.4774e+01	3.0284	34.434749	0.000588	5.878069	0.995772	-0.000118
 854	8.4874e+01	3.0088	34.301524	0.000669	6.688838	1.133120	-0.000134
 855	8.4973e+01	2.9873	34.236930	0.000324	3.243073	0.549391	-0.000065
 856	8.5073e+01	2.9688	34.087556	0.000750	7.499606	1.270468	-0.000150
 857	8.5172e+01	2.9485	33.998739	0.000446	4.459225	0.755413	-0.000089
 858	8.5272e+01	2.9284	33.881662	0.000588	5.878069	0.995772	-0.000118
 859	8.5371e+01	2.9078	33.780733	0.000507	5.067301	0.858424	-0.000101
 860	8.5471e+01	2.8880	33.683842	0.000486	4.864609	0.824087	-0.000097
 861	8.5570e+01	2.8691	33.570802	0.000568	5.675377	0.961435	-0.000114
 862	8.5669e+01	2.8484	33.473911	0.000486	4.864609	0.824087	-0.000097
 863	8.5769e+01	2.8286	33.340685	0.000669	6.688838	1.133120	-0.000134
 864	8.5868e+01	2.8094	33.231683	0.000547	5.472685	0.927098	-0.000110
 865	8.5968e+01	2.7883	33.138829	0.000466	4.661917	0.789750	-0.000093
 866	8.6067e+01	2.7680	33.029826	0.000547	5.472685	0.927098	-0.000110
 867	8.6167e+01	2.7486	32.892563	0.000689	6.891530	1.167457	-0.000138
 868	8.6266e+01	2.7290	32.771449	0.000608	6.080761	1.030109	-0.000122
 869	8.6366e+01	2.7087	32.670521	0.000507	5.067301	0.858424	-0.000101
 870	8.6466e+01	2.6891	32.585741	0.000426	4.256533	0.721076	-0.000085
 871	8.6565e+01	2.6682	32.468664	0.000588	5.878069	0.995772	-0.000118
 872	8.6665e+01	2.6489	32.379847	0.000446	4.459225	0.755413	-0.000089
 873	8.6764e+01	2.6299	32.254696	0.000628	6.283454	1.064446	-0.000126
 874	8.6864e+01	2.6083	32.133582	0.000608	6.080761	1.030109	-0.000122
 875	8.6963e+01	2.5896	32.048802	0.000426	4.256533	0.721076	-0.000085
 876	8.7063e+01	2.5705	31.911539	0.000689	6.891530	1.167457	-0.000138
 877	8.7162e+01	2.5492	31.830797	0.000405	4.053841	0.686739	-0.000081
 878	8.7261e+01	2.5286	31.677386	0.000770	7.702298	1.304805	-0.000154
 879	8.7361e+01	2.5096	31.600680	0.000385	3.851149	0.652402	-0.000077
 880	8.7460e+01	2.4900	31.447269	0.000770	7.702298	1.304805	-0.000154
 881	8.7560e+01	2.4709	31.378638	0.000345	3.445765	0.583728	-0.000069
 882	8.7659e+01	2.4503	31.285783	0.000466	4.661917	0.789750	-0.000093
 883	8.7759e+01	2.4297	31.132372	0.000770	7.702298	1.304805	-0.000154
 884	8.7859e+01	2.4104	31.023370	0.000547	5.472685	0.927098	-0.000110
 885	8.7958e+01	2.3899	30.930515	0.000466	4.661917	0.789750	-0.000093
 886	8.8058e+01	2.3700	30.801327	0.000649	6.486146	1.098783	-0.000130
 887	8.8157e+01	2.3505	30.692324	0.000547	5.472685	0.927098	-0.000110
 888	8.8257e+01	2.3310	30.583322	0.000547	5.472685	0.927098	-0.000110
 889	8.8356e+01	2.3122	30.482393	0.000507	5.067301	0.858424	-0.000101
 890	8.8456e+01	2.2903	30.365316	0.000588	5.878069	0.995772	-0.000118
 891	8.8555e+01	2.2713	30.256314	0.000547	5.472685	0.927098	-0.000110
 892	8.8654e+01	2.2508	30.139237	0.000588	5.878069	0.995772	-0.000118
 893	8.8754e+01	2.2301	30.022160	0.000588	5.878069	0.995772	-0.000118
 894	8.8853e+01	2.2108	29.884897	0.000689	6.891530	1.167457	-0.000138
 895	8.8953e+01	2.1909	29.816266	0.000345	3.445765	0.583728	-0.000069
 896	8.9052e+01	2.1713	29.707263	0.000547	5.472685	0.927098	-0.000110
 897	8.9152e+01	2.1516	29.606335	0.000507	5.067301	0.858424	-0.000101
 898	8.9251e+01	2.1313	29.469072	0.000689	6.891530	1.167457	-0.000138
 899	8.9351e+01	2.1125	29.343921	0.000628	6.283454	1.064446	-0.000126
 900	8.9451e+01	2.0901	29.255104	0.000446	4.459225	0.755413	-0.000089
 901	8.9550e+01	2.0721	29.146101	0.000547	5.472685	0.927098	-0.000110
 902	8.9650e+01	2.0518	29.041136	0.000527	5.269993	0.892761	-0.000105
 903	8.9749e+01	2.0319	28.920022	0.000608	6.080761	1.030109	-0.000122
 904	8.9849e+01	2.0114	28.782759	0.000689	6.891530	1.167457	-0.000138
 905	8.9948e+01	1.9921	28.706054	0.000385	3.851149	0.652402	-0.000077
 906	9.0047e+01	1.9721	28.633385	0.000365	3.648457	0.618065	-0.000073
 907	9.0147e+01	1.9518	28.439603	0.000973	9.729218	1.648174	-0.000195
 908	9.0246e+01	1.9313	28.330600	0.000547	5.472685	0.927098	-0.000110
 909	9.0346e+01	1.9121	28.205449	0.000628	6.283454	1.064446	-0.000126
 910	9.0445e+01	1.8922	28.096446	0.000547	5.472685	0.927098	-0.000110
 911	9.0545e+01	1.8720	27.967258	0.000649	6.486146	1.098783	-0.000130
 912	9.0644e+01	1.8511	27.890552	0.000385	3.851149	0.652402	-0.000077
 913	9.0744e+01	1.8328	27.753290	0.000689	6.891530	1.167457	-0.000138
 914	9.0844e+01	1.8123	27.656398	0.000486	4.864609	0.824087	-0.000097
 915	9.0943e+01	1.7921	27.490876	0.000831	8.310374	1.407815	-0.000166
 916	9.1043e+01	1.7724	27.373799	0.000588	5.878069	0.995772	-0.000118
 917	9.1142e+01	1.7525	27.297093	0.000385	3.851149	0.652402	-0.000077
 918	9.1242e+01	1.7327	27.163868	0.000669	6.688838	1.133120	-0.000134
 919	9.1341e+01	1.7124	27.034679	0.000649	6.486146	1.098783	-0.000130
 920	9.1441e+01	1.6929	26.962011	0.000365	3.648457	0.618065	-0.000073
 921	9.1540e+01	1.6732	26.776303	0.000932	9.323834	1.579500	-0.000187
 922	9.1639e+01	1.6534	26.699597	0.000385	3.851149	0.652402	-0.000077
 923	9.1739e+01	1.6329	26.570409	0.000649	6.486146	1.098783	-0.000130
 924	9.1838e+01	1.6133	26.445258	0.000628	6.283454	1.064446	-0.000126
 925	9.1938e+01	1.5929	26.307995	0.000689	6.891530	1.167457	-0.000138
 926	9.2037e+01	1.5728	26.231289	0.000385	3.851149	0.652402	-0.000077
 927	9.2137e+01	1.5530	26.110175	0.000608	6.080761	1.030109	-0.000122
 928	9.2237e+01	1.5340	25.980987	0.000649	6.486146	1.098783	-0.000130
 929	9.2336e+01	1.5134	25.876022	0.000527	5.269993	0.892761	-0.000105
 930	9.2436e+01	1.4941	25.714536	0.000811	8.107682	1.373479	-0.000162
 931	9.2535e+01	1.4731	25.609571	0.000527	5.269993	0.892761	-0.000105
 932	9.2635e+01	1.4547	25.492494	0.000588	5.878069	0.995772	-0.000118
 933	9.2734e+01	1.4342	25.395602	0.000486	4.864609	0.824087	-0.000097
 934	9.2834e+01	1.4137	25.266414	0.000649	6.486146	1.098783	-0.000130
 935	9.2933e+01	1.3950	25.113003	0.000770	7.702298	1.304805	-0.000154
 936	9.3032e+01	1.3737	25.040334	0.000365	3.648457	0.618065	-0.000073
 937	9.3132e+01	1.3535	24.903072	0.000689	6.891530	1.167457	-0.000138
 938	9.3231e+01	1.3336	24.826366	0.000385	3.851149	0.652402	-0.000077
 939	9.3331e+01	1.3148	24.672955	0.000770	7.702298	1.304805	-0.000154
 940	9.3430e+01	1.2946	24.523581	0.000750	7.499606	1.270468	-0.000150
 941	9.3530e+01	1.2745	24.438801	0.000426	4.256533	0.721076	-0.000085
 942	9.3629e+01	1.2555	24.309613	0.000649	6.486146	1.098783	-0.000130
 943	9.3729e+01	1.2343	24.196573	0.000568	5.675377	0.961435	-0.000114
 944	9.3829e+01	1.2151	24.063348	0.000669	6.688838	1.133120	-0.000134
 945	9.3928e+01	1.1956	23.954345	0.000547	5.472685	0.927098	-0.000110
 946	9.4028e+01	1.1755	23.829194	0.000628	6.283454	1.064446	-0.000126
 947	9.4127e+01	1.1554	23.732302	0.000486	4.864609	0.824087	-0.000097
 948	9.4227e+01	1.1353	23.595040	0.000689	6.891530	1.167457	-0.000138
 949	9.4326e+01	1.1156	23.473926	0.000608	6.080761	1.030109	-0.000122
 950	9.4425e+01	1.0952	23.385109	0.000446	4.459225	0.755413	-0.000089
 951	9.4525e+01	1.0757	23.268032	0.000588	5.878069	0.995772	-0.000118
 952	9.4624e+01	1.0563	23.150955	0.000588	5.878069	0.995772	-0.000118
 953	9.4724e+01	1.0371	23.017729	0.000669	6.688838	1.133120	-0.000134
 954	9.4823e+01	1.0159	22.884504	0.000669	6.688838	1.133120	-0.000134
 955	9.4923e+01	0.9962	22.735130	0.000750	7.499606	1.270468	-0.000150
 956	9.5022e+01	0.9760	22.618053	0.000588	5.878069	0.995772	-0.000118
 957	9.5122e+01	0.9562	22.529236	0.000446	4.459225	0.755413	-0.000089
 958	9.5222e+01	0.9361	22.396011	0.000669	6.688838	1.133120	-0.000134
 959	9.5321e+01	0.9166	22.287008	0.000547	5.472685	0.927098	-0.000110
 960	9.5421e+01	0.8958	22.153782	0.000669	6.688838	1.133120	-0.000134
 961	9.5520e+01	0.8775	22.020557	0.000669	6.688838	1.133120	-0.000134
 962	9.5620e+01	0.8572	21.911554	0.000547	5.472685	0.927098	-0.000110
 963	9.5719e+01	0.8372	21.802552	0.000547	5.472685	0.927098	-0.000110
 964	9.5819e+01	0.8171	21.685475	0.000588	5.878069	0.995772	-0.000118
 965	9.5918e+01	0.7960	21.572435	0.000568	5.675377	0.961435	-0.000114
 966	9.6017e+01	0.7768	21.459395	0.000568	5.675377	0.961435	-0.000114
 967	9.6117e+01	0.7563	21.338281	0.000608	6.080761	1.030109	-0.000122
 968	9.6216e+01	0.7362	21.209093	0.000649	6.486146	1.098783	-0.000130
 969	9.6316e+01	0.7171	21.075867	0.000669	6.688838	1.133120	-0.000134
 970	9.6415e+01	0.6962	20.970902	0.000527	5.269993	0.892761	-0.000105
 971	9.6515e+01	0.6767	20.797305	0.000872	8.715758	1.476489	-0.000174
 972	9.6615e+01	0.6558	20.700413	0.000486	4.864609	0.824087	-0.000097
 973	9.6714e+01	0.6374	20.575262	0.000628	6.283454	1.064446	-0.000126
 974	9.6814e+01	0.6178	20.450111	0.000628	6.283454	1.064446	-0.000126
 975	9.6913e+01	0.5971	20.328997	0.000608	6.080761	1.030109	-0.000122
 976	9.7013e+01	0.5777	20.191734	0.000689	6.891530	1.167457	-0.000138
 977	9.7112e+01	0.5576	20.082732	0.000547	5.472685	0.927098	-0.000110
 978	9.7212e+01	0.5382	19.957581	0.000628	6.283454	1.064446	-0.000126
 979	9.7311e+01	0.5173	19.840504	0.000588	5.878069	0.995772	-0.000118
 980	9.7410e+01	0.4977	19.723427	0.000588	5.878069	0.995772	-0.000118
 981	9.7510e+01	0.4775	19.570015	0.000770	7.702298	1.304805	-0.000154
 982	9.7609e+01	0.4582	19.481199	0.000446	4.459225	0.755413	-0.000089
 983	9.7709e+01	0.4373	19.356047	0.000628	6.283454	1.064446	-0.000126
 984	9.7808e+01	0.4192	19.251082	0.000527	5.269993	0.892761	-0.000105
 985	9.7908e+01	0.3977	19.125931	0.000628	6.283454	1.064446	-0.000126
 986	9.8007e+01	0.3777	18.968482	0.000790	7.904990	1.339142	-0.000158
 987	9.8107e+01	0.3588	18.907925	0.000304	3.040381	0.515054	-0.000061
 988	9.8207e+01	0.3379	18.742403	0.000831	8.310374	1.407815	-0.000166
 989	9.8306e+01	0.3183	18.593029	0.000750	7.499606	1.270468	-0.000150
 990	9.8406e+01	0.2990	18.508249	0.000426	4.256533	0.721076	-0.000085
 991	9.8505e+01	0.2782	18.379060	0.000649	6.486146	1.098783	-0.000130
 992	9.8605e+01	0.2594	18.261984	0.000588	5.878069	0.995772	-0.000118
 993	9.8704e+01	0.2384	18.136832	0.000628	6.283454	1.064446	-0.000126
 994	9.8803e+01	0.2184	18.019755	0.000588	5.878069	0.995772	-0.000118
 995	9.8903e+01	0.1983	17.886530	0.000669	6.688838	1.133120	-0.000134
 996	9.9002e+01	0.1787	17.789639	0.000486	4.864609	0.824087	-0.000097
 997	9.9102e+01	0.1588	17.688710	0.000507	5.067301	0.858424	-0.000101
 998	9.9201e+01	0.1377	17.531262	0.000790	7.904990	1.339142	-0.000158
 999	9.9301e+01	0.1199	17.385925	0.000730	7.296914	1.236131	-0.000146
1000	9.9400e+01	0.0990	17.289034	0.000486	4.864609	0.824087	-0.000097
1001	9.9500e+01	0.0806	17.159845	0.000649	6.486146	1.098783	-0.000130
1002	9.9600e+01	0.0587	17.062954	0.000486	4.864609	0.824087	-0.000097
1003	9.9699e+01	0.0392	16.941840	0.000608	6.080761	1.030109	-0.000122
1004	9.9799e+01	0.0198	16.861097	0.000405	4.053841	0.686739	-0.000081
1005	9.9898e+01	0.0003	16.675389	0.000932	9.323834	1.579500	-0.000187
1006	9.9998e+01	-0.0190	16.578498	0.000486	4.864609	0.824087	-0.000097
1007	1.0010e+02	-0.0378	16.437198	0.000709	7.094222	1.201794	-0.000142
1008	1.0020e+02	-0.0584	16.352418	0.000426	4.256533	0.721076	-0.000085
1009	1.0030e+02	-0.0787	16.227267	0.000628	6.283454	1.064446	-0.000126
1010	1.0040e+02	-0.0990	16.118264	0.000547	5.472685	0.927098	-0.000110
1011	1.0050e+02	-0.1189	15.993113	0.000628	6.283454	1.064446	-0.000126
1012	1.0059e+02	-0.1384	15.880073	0.000568	5.675377	0.961435	-0.000114
1013	1.0069e+02	-0.1579	15.738774	0.000709	7.094222	1.201794	-0.000142
1014	1.0079e+02	-0.1789	15.609585	0.000649	6.486146	1.098783	-0.000130
1015	1.0089e+02	-0.1986	15.520768	0.000446	4.459225	0.755413	-0.000089
1016	1.0099e+02	-0.2179	15.387543	0.000669	6.688838	1.133120	-0.000134
1017	1.0109e+02	-0.2379	15.262392	0.000628	6.283454	1.064446	-0.000126
1018	1.0119e+02	-0.2579	15.117055	0.000730	7.296914	1.236131	-0.000146
1019	1.0129e+02	-0.2771	15.016126	0.000507	5.067301	0.858424	-0.000101
1020	1.0139e+02	-0.2930	14.870789	0.000730	7.296914	1.236131	-0.000146
1021	1.0149e+02	-0.3183	14.749675	0.000608	6.080761	1.030109	-0.000122
1022	1.0159e+02	-0.3365	14.628561	0.000608	6.080761	1.030109	-0.000122
1023	1.0169e+02	-0.3571	14.543781	0.000426	4.256533	0.721076	-0.000085
1024	1.0179e+02	-0.3774	14.386333	0.000790	7.904990	1.339142	-0.000158
1025	1.0189e+02	-0.3970	14.257145	0.000649	6.486146	1.098783	-0.000130
1026	1.0199e+02	-0.4173	14.140068	0.000588	5.878069	0.995772	-0.000118
1027	1.0209e+02	-0.4376	14.018954	0.000608	6.080761	1.030109	-0.000122
1028	1.0219e+02	-0.4568	13.893803	0.000628	6.283454	1.064446	-0.000126
1029	1.0229e+02	-0.4768	13.796911	0.000486	4.864609	0.824087	-0.000097
1030	1.0239e+02	-0.4977	13.683872	0.000568	5.675377	0.961435	-0.000114
1031	1.0248e+02	-0.5161	13.522386	0.000811	8.107682	1.373479	-0.000162
1032	1.0258e+02	-0.5373	13.449718	0.000365	3.648457	0.618065	-0.000073
1033	1.0268e+02	-0.5572	13.296307	0.000770	7.702298	1.304805	-0.000154
1034	1.0278e+02	-0.5760	13.146933	0.000750	7.499606	1.270468	-0.000150
1035	1.0288e+02	-0.5967	13.029856	0.000588	5.878069	0.995772	-0.000118
1036	1.0298e+02	-0.6165	12.949113	0.000405	4.053841	0.686739	-0.000081
1037	1.0308e+02	-0.6355	12.803776	0.000730	7.296914	1.236131	-0.000146
1038	1.0318e+02	-0.6564	12.654402	0.000750	7.499606	1.270468	-0.000150
1039	1.0328e+02	-0.6770	12.521176	0.000669	6.688838	1.133120	-0.000134
1040	1.0338e+02	-0.6959	12.440434	0.000405	4.053841	0.686739	-0.000081
1041	1.0348e+02	-0.7163	12.323357	0.000588	5.878069	0.995772	-0.000118
1042	1.0358e+02	-0.7358	12.149760	0.000872	8.715758	1.476489	-0.000174
1043	1.0368e+02	-0.7561	12.004423	0.000730	7.296914	1.236131	-0.000146
1044	1.0378e+02	-0.7760	11.899458	0.000527	5.269993	0.892761	-0.000105
1045	1.0388e+02	-0.7956	11.830826	0.000345	3.445765	0.583728	-0.000069
1046	1.0398e+02	-0.8153	11.645118	0.000932	9.323834	1.579500	-0.000187
1047	1.0408e+02	-0.8363	11.519967	0.000628	6.283454	1.064446	-0.000126
1048	1.0418e+02	-0.8557	11.451336	0.000345	3.445765	0.583728	-0.000069
1049	1.0428e+02	-0.8755	11.318110	0.000669	6.688838	1.133120	-0.000134
1050	1.0438e+02	-0.8960	11.172773	0.000730	7.296914	1.236131	-0.000146
1051	1.0447e+02	-0.9155	11.067808	0.000527	5.269993	0.892761	-0.000105
1052	1.0457e+02	-0.9352	10.914396	0.000770	7.702298	1.304805	-0.000154
1053	1.0467e+02	-0.9550	10.801357	0.000568	5.675377	0.961435	-0.000114
1054	1.0477e+02	-0.9763	10.672168	0.000649	6.486146	1.098783	-0.000130
1055	1.0487e+02	-0.9959	10.563166	0.000547	5.472685	0.927098	-0.000110
1056	1.0497e+02	-1.0153	10.421866	0.000709	7.094222	1.201794	-0.000142
1057	1.0507e+02	-1.0345	10.292678	0.000649	6.486146	1.098783	-0.000130
1058	1.0517e+02	-1.0557	10.183675	0.000547	5.472685	0.927098	-0.000110
1059	1.0527e+02	-1.0748	10.026227	0.000790	7.904990	1.339142	-0.000158
1060	1.0537e+02	-1.0948	9.937410	0.000446	4.459225	0.755413	-0.000089
1061	1.0547e+02	-1.1139	9.816296	0.000608	6.080761	1.030109	-0.000122
1062	1.0557e+02	-1.1350	9.699219	0.000588	5.878069	0.995772	-0.000118
1063	1.0567e+02	-1.1551	9.537733	0.000811	8.107682	1.373479	-0.000162
1064	1.0577e+02	-1.1750	9.440842	0.000486	4.864609	0.824087	-0.000097
1065	1.0587e+02	-1.1942	9.315691	0.000628	6.283454	1.064446	-0.000126
1066	1.0597e+02	-1.2147	9.194577	0.000608	6.080761	1.030109	-0.000122
1067	1.0607e+02	-1.2343	9.113834	0.000405	4.053841	0.686739	-0.000081
1068	1.0617e+02	-1.2537	8.980608	0.000669	6.688838	1.133120	-0.000134
1069	1.0627e+02	-1.2735	8.855457	0.000628	6.283454	1.064446	-0.000126
1070	1.0637e+02	-1.2933	8.762603	0.000466	4.661917	0.789750	-0.000093
1071	1.0647e+02	-1.3136	8.609192	0.000770	7.702298	1.304805	-0.000154
1072	1.0656e+02	-1.3338	8.459818	0.000750	7.499606	1.270468	-0.000150
1073	1.0666e+02	-1.3536	8.326592	0.000669	6.688838	1.133120	-0.000134
1074	1.0676e+02	-1.3739	8.173181	0.000770	7.702298	1.304805	-0.000154
1075	1.0686e+02	-1.3937	8.076290	0.000486	4.864609	0.824087	-0.000097
1076	1.0696e+02	-1.4130	7.947102	0.000649	6.486146	1.098783	-0.000130
1077	1.0706e+02	-1.4337	7.813876	0.000669	6.688838	1.133120	-0.000134
1078	1.0716e+02	-1.4529	7.700836	0.000568	5.675377	0.961435	-0.000114
1079	1.0726e+02	-1.4735	7.591834	0.000547	5.472685	0.927098	-0.000110
1080	1.0736e+02	-1.4931	7.454571	0.000689	6.891530	1.167457	-0.000138
1081	1.0746e+02	-1.5130	7.325383	0.000649	6.486146	1.098783	-0.000130
1082	1.0756e+02	-1.5331	7.167935	0.000790	7.904990	1.339142	-0.000158
1083	1.0766e+02	-1.5530	7.091229	0.000385	3.851149	0.652402	-0.000077
1084	1.0776e+02	-1.5729	6.970115	0.000608	6.080761	1.030109	-0.000122
1085	1.0786e+02	-1.5933	6.812667	0.000790	7.904990	1.339142	-0.000158
1086	1.0796e+02	-1.6122	6.683478	0.000649	6.486146	1.098783	-0.000130
1087	1.0806e+02	-1.6325	6.550253	0.000669	6.688838	1.133120	-0.000134
1088	1.0816e+02	-1.6521	6.441250	0.000547	5.472685	0.927098	-0.000110
1089	1.0826e+02	-1.6718	6.336285	0.000527	5.269993	0.892761	-0.000105
1090	1.0836e+02	-1.6924	6.166725	0.000851	8.513066	1.442152	-0.000170
1091	1.0845e+02	-1.7124	6.053685	0.000568	5.675377	0.961435	-0.000114
1092	1.0855e+02	-1.7325	5.932571	0.000608	6.080761	1.030109	-0.000122
1093	1.0865e+02	-1.7520	5.787234	0.000730	7.296914	1.236131	-0.000146
1094	1.0875e+02	-1.7725	5.645934	0.000709	7.094222	1.201794	-0.000142
1095	1.0885e+02	-1.7919	5.524820	0.000608	6.080761	1.030109	-0.000122
1096	1.0895e+02	-1.8124	5.419855	0.000527	5.269993	0.892761	-0.000105
1097	1.0905e+02	-1.8320	5.262406	0.000790	7.904990	1.339142	-0.000158
1098	1.0915e+02	-1.8513	5.169552	0.000466	4.661917	0.789750	-0.000093
1099	1.0925e+02	-1.8723	5.024215	0.000730	7.296914	1.236131	-0.000146
1100	1.0935e+02	-1.8912	4.907138	0.000588	5.878069	0.995772	-0.000118
1101	1.0945e+02	-1.9109	4.765839	0.000709	7.094222	1.201794	-0.000142
1102	1.0955e+02	-1.9316	4.636650	0.000649	6.486146	1.098783	-0.000130
1103	1.0965e+02	-1.9511	4.527648	0.000547	5.472685	0.927098	-0.000110
1104	1.0975e+02	-1.9712	4.374237	0.000770	7.702298	1.304805	-0.000154
1105	1.0985e+02	-1.9911	4.277345	0.000486	4.864609	0.824087	-0.000097
1106	1.0995e+02	-2.0111	4.099711	0.000892	8.918450	1.510826	-0.000179
1107	1.1005e+02	-2.0316	4.027043	0.000365	3.648457	0.618065	-0.000073
1108	1.1015e+02	-2.0510	3.857483	0.000851	8.513066	1.442152	-0.000170
1109	1.1025e+02	-2.0705	3.784815	0.000365	3.648457	0.618065	-0.000073
1110	1.1035e+02	-2.0905	3.655626	0.000649	6.486146	1.098783	-0.000130
1111	1.1044e+02	-2.1115	3.514327	0.000709	7.094222	1.201794	-0.000142
1112	1.1054e+02	-2.1313	3.368990	0.000730	7.296914	1.236131	-0.000146
1113	1.1064e+02	-2.1503	3.276136	0.000466	4.661917	0.789750	-0.000093
1114	1.1074e+02	-2.1703	3.102539	0.000872	8.715758	1.476489	-0.000174
1115	1.1084e+02	-2.1906	3.001610	0.000507	5.067301	0.858424	-0.000101
1116	1.1094e+02	-2.2100	2.916831	0.000426	4.256533	0.721076	-0.000085
1117	1.1104e+02	-2.2308	2.759382	0.000790	7.904990	1.339142	-0.000158
1118	1.1114e+02	-2.2515	2.614045	0.000730	7.296914	1.236131	-0.000146
1119	1.1124e+02	-2.2704	2.492931	0.000608	6.080761	1.030109	-0.000122
1120	1.1134e+02	-2.2903	2.404114	0.000446	4.459225	0.755413	-0.000089
1121	1.1144e+02	-2.3102	2.274926	0.000649	6.486146	1.098783	-0.000130
1122	1.1154e+02	-2.3303	2.178035	0.000486	4.864609	0.824087	-0.000097
1123	1.1164e+02	-2.3502	2.000401	0.000892	8.918450	1.510826	-0.000179
1124	1.1174e+02	-2.3695	1.871212	0.000649	6.486146	1.098783	-0.000130
1125	1.1184e+02	-2.3894	1.766247	0.000527	5.269993	0.892761	-0.000105
1126	1.1194e+02	-2.4101	1.657244	0.000547	5.472685	0.927098	-0.000110
1127	1.1204e+02	-2.4300	1.515944	0.000709	7.094222	1.201794	-0.000142
1128	1.1214e+02	-2.4497	1.423090	0.000466	4.661917	0.789750	-0.000093
1129	1.1224e+02	-2.4700	1.249494	0.000872	8.715758	1.476489	-0.000174
1130	1.1234e+02	-2.4887	1.152602	0.000486	4.864609	0.824087	-0.000097
1131	1.1244e+02	-2.5098	1.047637	0.000527	5.269993	0.892761	-0.000105
1132	1.1253e+02	-2.5288	0.861928	0.000932	9.323834	1.579500	-0.000187
1133	1.1263e+02	-2.5482	0.752926	0.000547	5.472685	0.927098	-0.000110
1134	1.1273e+02	-2.5690	0.647960	0.000527	5.269993	0.892761	-0.000105
1135	1.1283e+02	-2.5888	0.526846	0.000608	6.080761	1.030109	-0.000122
1136	1.1293e+02	-2.6091	0.413806	0.000568	5.675377	0.961435	-0.000114
1137	1.1303e+02	-2.6282	0.296729	0.000588	5.878069	0.995772	-0.000118
1138	1.1313e+02	-2.6487	0.171578	0.000628	6.283454	1.064446	-0.000126
1139	1.1323e+02	-2.6682	0.022204	0.000750	7.499606	1.270468	-0.000150
1140	1.1333e+02	-2.6885	-0.098910	0.000608	6.080761	1.030109	-0.000122
1141	1.1343e+02	-2.7081	-0.215987	0.000588	5.878069	0.995772	-0.000118
1142	1.1353e+02	-2.7283	-0.357287	0.000709	7.094222	1.201794	-0.000142
1143	1.1363e+02	-2.7481	-0.462252	0.000527	5.269993	0.892761	-0.000105
1144	1.1373e+02	-2.7684	-0.587403	0.000628	6.283454	1.064446	-0.000126
1145	1.1383e+02	-2.7873	-0.708517	0.000608	6.080761	1.030109	-0.000122
1146	1.1393e+02	-2.8082	-0.845780	0.000689	6.891530	1.167457	-0.000138
1147	1.1403e+02	-2.8278	-0.954783	0.000547	5.472685	0.927098	-0.000110
1148	1.1413e+02	-2.8479	-1.128379	0.000872	8.715758	1.476489	-0.000174
1149	1.1423e+02	-2.8682	-1.221234	0.000466	4.661917	0.789750	-0.000093
1150	1.1433e+02	-2.8879	-1.394830	0.000872	8.715758	1.476489	-0.000174
1151	1.1442e+02	-2.9067	-1.467499	0.000365	3.648457	0.618065	-0.000073
1152	1.1452e+02	-2.9272	-1.616873	0.000750	7.499606	1.270468	-0.000150
1153	1.1462e+02	-2.9465	-1.717801	0.000507	5.067301	0.858424	-0.000101
1154	1.1472e+02	-2.9675	-1.842952	0.000628	6.283454	1.064446	-0.000126
1155	1.1482e+02	-2.9865	-1.943881	0.000507	5.067301	0.858424	-0.000101
1156	1.1492e+02	-3.0084	-2.109403	0.000831	8.310374	1.407815	-0.000166
1157	1.1502e+02	-3.0270	-2.178035	0.000345	3.445765	0.583728	-0.000069
1158	1.1512e+02	-3.0464	-2.343557	0.000831	8.310374	1.407815	-0.000166
1159	1.1522e+02	-3.0675	-2.448523	0.000527	5.269993	0.892761	-0.000105
1160	1.1532e+02	-3.0871	-2.589823	0.000709	7.094222	1.201794	-0.000142
1161	1.1542e+02	-3.1073	-2.666528	0.000385	3.851149	0.652402	-0.000077
1162	1.1552e+02	-3.1277	-2.819939	0.000770	7.702298	1.304805	-0.000154
1163	1.1562e+02	-3.1467	-2.937016	0.000588	5.878069	0.995772	-0.000118
1164	1.1572e+02	-3.1669	-3.033908	0.000486	4.864609	0.824087	-0.000097
1165	1.1582e+02	-3.1866	-3.155022	0.000608	6.080761	1.030109	-0.000122
1166	1.1592e+02	-3.2064	-3.320544	0.000831	8.310374	1.407815	-0.000166
1167	1.1602e+02	-3.2266	-3.417435	0.000486	4.864609	0.824087	-0.000097
1168	1.1612e+02	-3.2463	-3.574884	0.000790	7.904990	1.339142	-0.000158
1169	1.1622e+02	-3.2657	-3.651589	0.000385	3.851149	0.652402	-0.000077
1170	1.1632e+02	-3.2860	-3.744443	0.000466	4.661917	0.789750	-0.000093
1171	1.1642e+02	-3.3061	-3.861520	0.000588	5.878069	0.995772	-0.000118
1172	1.1651e+02	-3.3252	-3.994746	0.000669	6.688838	1.133120	-0.000134
1173	1.1661e+02	-3.3452	-4.087600	0.000466	4.661917	0.789750	-0.000093
1174	1.1671e+02	-3.3660	-4.236974	0.000750	7.499606	1.270468	-0.000150
1175	1.1681e+02	-3.3849	-4.333865	0.000486	4.864609	0.824087	-0.000097
1176	1.1691e+02	-3.4057	-4.454979	0.000608	6.080761	1.030109	-0.000122
1177	1.1701e+02	-3.4253	-4.580130	0.000628	6.283454	1.064446	-0.000126
1178	1.1711e+02	-3.4457	-4.709319	0.000649	6.486146	1.098783	-0.000130
1179	1.1721e+02	-3.4659	-4.834470	0.000628	6.283454	1.064446	-0.000126
1180	1.1731e+02	-3.4856	-4.915213	0.000405	4.053841	0.686739	-0.000081
1181	1.1741e+02	-3.5063	-5.044401	0.000649	6.486146	1.098783	-0.000130
1182	1.1751e+02	-3.5249	-5.177627	0.000669	6.688838	1.133120	-0.000134
1183	1.1761e+02	-3.5455	-5.310852	0.000669	6.688838	1.133120	-0.000134
1184	1.1771e+02	-3.5650	-5.407743	0.000486	4.864609	0.824087	-0.000097
1185	1.1781e+02	-3.5844	-5.540969	0.000669	6.688838	1.133120	-0.000134
1186	1.1791e+02	-3.6050	-5.629786	0.000446	4.459225	0.755413	-0.000089
1187	1.1801e+02	-3.6254	-5.750900	0.000608	6.080761	1.030109	-0.000122
1188	1.1811e+02	-3.6457	-5.896237	0.000730	7.296914	1.236131	-0.000146
1189	1.1821e+02	-3.6646	-6.005239	0.000547	5.472685	0.927098	-0.000110
1190	1.1831e+02	-3.6858	-6.150576	0.000730	7.296914	1.236131	-0.000146
1191	1.1841e+02	-3.7045	-6.231319	0.000405	4.053841	0.686739	-0.000081
1192	1.1850e+02	-3.7247	-6.332247	0.000507	5.067301	0.858424	-0.000101
1193	1.1860e+02	-3.7451	-6.473547	0.000709	7.094222	1.201794	-0.000142
1194	1.1870e+02	-3.7644	-6.606773	0.000669	6.688838	1.133120	-0.000134
1195	1.1880e+02	-3.7845	-6.723850	0.000588	5.878069	0.995772	-0.000118
1196	1.1890e+02	-3.8039	-6.820741	0.000486	4.864609	0.824087	-0.000097
1197	1.1900e+02	-3.8237	-6.941855	0.000608	6.080761	1.030109	-0.000122
1198	1.1910e+02	-3.8435	-7.054895	0.000568	5.675377	0.961435	-0.000114
1199	1.1920e+02	-3.8638	-7.236566	0.000912	9.121142	1.545163	-0.000183
1200	1.1930e+02	-3.8832	-7.297123	0.000304	3.040381	0.515054	-0.000061
1201	1.1940e+02	-3.9035	-7.398051	0.000507	5.067301	0.858424	-0.000101
1202	1.1950e+02	-3.9230	-7.547425	0.000750	7.499606	1.270468	-0.000150
1203	1.1960e+02	-3.9429	-7.640279	0.000466	4.661917	0.789750	-0.000093
1204	1.1970e+02	-3.9630	-7.761393	0.000608	6.080761	1.030109	-0.000122
1205	1.1980e+02	-3.9839	-7.898656	0.000689	6.891530	1.167457	-0.000138
1206	1.1990e+02	-4.0036	-7.987473	0.000446	4.459225	0.755413	-0.000089
1207	1.2000e+02	-4.0234	-8.104550	0.000588	5.878069	0.995772	-0.000118
1208	1.2010e+02	-4.0431	-8.217590	0.000568	5.675377	0.961435	-0.000114
1209	1.2020e+02	-4.0633	-8.342741	0.000628	6.283454	1.064446	-0.000126
1210	1.2030e+02	-4.0829	-8.467892	0.000628	6.283454	1.064446	-0.000126
1211	1.2039e+02	-4.1028	-8.589006	0.000608	6.080761	1.030109	-0.000122
1212	1.2049e+02	-4.1225	-8.681860	0.000466	4.661917	0.789750	-0.000093
1213	1.2059e+02	-4.1422	-8.831234	0.000750	7.499606	1.270468	-0.000150
1214	1.2069e+02	-4.1627	-8.903903	0.000365	3.648457	0.618065	-0.000073
1215	1.2079e+02	-4.1823	-9.065388	0.000811	8.107682	1.373479	-0.000162
1216	1.2089e+02	-4.2026	-9.158242	0.000466	4.661917	0.789750	-0.000093
1217	1.2099e+02	-4.2216	-9.315691	0.000790	7.904990	1.339142	-0.000158
1218	1.2109e+02	-4.2418	-9.408545	0.000466	4.661917	0.789750	-0.000093
1219	1.2119e+02	-4.2619	-9.525622	0.000588	5.878069	0.995772	-0.000118
1220	1.2129e+02	-4.2821	-9.642699	0.000588	5.878069	0.995772	-0.000118
1221	1.2139e+02	-4.3011	-9.763813	0.000608	6.080761	1.030109	-0.000122
1222	1.2149e+02	-4.3217	-9.852630	0.000446	4.459225	0.755413	-0.000089
1223	1.2159e+02	-4.3419	-9.993930	0.000709	7.094222	1.201794	-0.000142
1224	1.2169e+02	-4.3613	-10.070635	0.000385	3.851149	0.652402	-0.000077
1225	1.2179e+02	-4.3825	-10.215972	0.000730	7.296914	1.236131	-0.000146
1226	1.2189e+02	-4.4015	-10.304789	0.000446	4.459225	0.755413	-0.000089
1227	1.2199e+02	-4.4217	-10.442052	0.000689	6.891530	1.167457	-0.000138
1228	1.2209e+02	-4.4418	-10.538943	0.000486	4.864609	0.824087	-0.000097
1229	1.2219e+02	-4.4617	-10.651983	0.000568	5.675377	0.961435	-0.000114
1230	1.2229e+02	-4.4815	-10.765022	0.000568	5.675377	0.961435	-0.000114
1231	1.2239e+02	-4.5014	-10.906322	0.000709	7.094222	1.201794	-0.000142
1232	1.2248e+02	-4.5221	-10.991102	0.000426	4.256533	0.721076	-0.000085
1233	1.2258e+02	-4.5409	-11.176810	0.000932	9.323834	1.579500	-0.000187
1234	1.2268e+02	-4.5609	-11.233330	0.000284	2.837689	0.480717	-0.000057
1235	1.2278e+02	-4.5811	-11.366556	0.000669	6.688838	1.133120	-0.000134
1236	1.2288e+02	-4.6011	-11.471521	0.000527	5.269993	0.892761	-0.000105
1237	1.2298e+02	-4.6205	-11.572450	0.000507	5.067301	0.858424	-0.000101
1238	1.2308e+02	-4.6419	-11.697601	0.000628	6.283454	1.064446	-0.000126
1239	1.2318e+02	-4.6603	-11.842938	0.000730	7.296914	1.236131	-0.000146
1240	1.2328e+02	-4.6808	-11.955977	0.000568	5.675377	0.961435	-0.000114
1241	1.2338e+02	-4.7003	-12.077092	0.000608	6.080761	1.030109	-0.000122
1242	1.2348e+02	-4.7209	-12.157834	0.000405	4.053841	0.686739	-0.000081
1243	1.2358e+02	-4.7409	-12.262800	0.000527	5.269993	0.892761	-0.000105
1244	1.2368e+02	-4.7608	-12.375840	0.000568	5.675377	0.961435	-0.000114
1245	1.2378e+02	-4.7803	-12.488879	0.000568	5.675377	0.961435	-0.000114
1246	1.2388e+02	-4.8004	-12.638253	0.000750	7.499606	1.270468	-0.000150
1247	1.2398e+02	-4.8213	-12.747256	0.000547	5.472685	0.927098	-0.000110
1248	1.2408e+02	-4.8397	-12.884519	0.000689	6.891530	1.167457	-0.000138
1249	1.2418e+02	-4.8602	-13.013707	0.000649	6.486146	1.098783	-0.000130
1250	1.2428e+02	-4.8808	-13.126747	0.000568	5.675377	0.961435	-0.000114
1251	1.2438e+02	-4.9002	-13.227675	0.000507	5.067301	0.858424	-0.000101
1252	1.2447e+02	-4.9203	-13.373012	0.000730	7.296914	1.236131	-0.000146
1253	1.2457e+02	-4.9400	-13.461829	0.000446	4.459225	0.755413	-0.000089
1254	1.2467e+02	-4.9594	-13.570832	0.000547	5.472685	0.927098	-0.000110
1255	1.2477e+02	-4.9796	-13.691946	0.000608	6.080761	1.030109	-0.000122
1256	1.2487e+02	-4.9997	-13.796911	0.000527	5.269993	0.892761	-0.000105
1257	1.2497e+02	-5.0198	-13.942248	0.000730	7.296914	1.236131	-0.000146
1258	1.2507e+02	-5.0389	-14.055288	0.000568	5.675377	0.961435	-0.000114
1259	1.2517e+02	-5.0579	-14.156216	0.000507	5.067301	0.858424	-0.000101
1260	1.2527e+02	-5.0789	-14.297516	0.000709	7.094222	1.201794	-0.000142
1261	1.2537e+02	-5.0993	-14.438816	0.000709	7.094222	1.201794	-0.000142
1262	1.2547e+02	-5.1190	-14.547819	0.000547	5.472685	0.927098	-0.000110
1263	1.2557e+02	-5.1390	-14.668933	0.000608	6.080761	1.030109	-0.000122
1264	1.2567e+02	-5.1582	-14.765824	0.000486	4.864609	0.824087	-0.000097
1265	1.2577e+02	-5.1788	-14.866752	0.000507	5.067301	0.858424	-0.000101
1266	1.2587e+02	-5.1984	-15.028238	0.000811	8.107682	1.373479	-0.000162
1267	1.2597e+02	-5.2185	-15.121092	0.000466	4.661917	0.789750	-0.000093
1268	1.2607e+02	-5.2383	-15.234132	0.000568	5.675377	0.961435	-0.000114
1269	1.2617e+02	-5.2596	-15.343134	0.000547	5.472685	0.927098	-0.000110
1270	1.2627e+02	-5.2790	-15.508657	0.000831	8.310374	1.407815	-0.000166
1271	1.2636e+02	-5.2979	-15.613622	0.000527	5.269993	0.892761	-0.000105
1272	1.2646e+02	-5.3188	-15.702439	0.000446	4.459225	0.755413	-0.000089
1273	1.2656e+02	-5.3380	-15.839702	0.000689	6.891530	1.167457	-0.000138
1274	1.2666e+02	-5.3587	-15.952742	0.000568	5.675377	0.961435	-0.000114
1275	1.2676e+02	-5.3785	-16.065782	0.000568	5.675377	0.961435	-0.000114
1276	1.2686e+02	-5.3984	-16.178821	0.000568	5.675377	0.961435	-0.000114
1277	1.2696e+02	-5.4175	-16.328195	0.000750	7.499606	1.270468	-0.000150
1278	1.2706e+02	-5.4379	-16.445272	0.000588	5.878069	0.995772	-0.000118
1279	1.2716e+02	-5.4576	-16.574461	0.000649	6.486146	1.098783	-0.000130
1280	1.2726e+02	-5.4782	-16.679426	0.000527	5.269993	0.892761	-0.000105
1281	1.2736e+02	-5.4974	-16.760169	0.000405	4.053841	0.686739	-0.000081
1282	1.2746e+02	-5.5173	-16.941840	0.000912	9.121142	1.545163	-0.000183
1283	1.2756e+02	-5.5380	-17.046806	0.000527	5.269993	0.892761	-0.000105
1284	1.2766e+02	-5.5582	-17.115437	0.000345	3.445765	0.583728	-0.000069
1285	1.2776e+02	-5.5775	-17.268848	0.000770	7.702298	1.304805	-0.000154
1286	1.2786e+02	-5.5975	-17.418222	0.000750	7.499606	1.270468	-0.000150
1287	1.2796e+02	-5.6171	-17.527225	0.000547	5.472685	0.927098	-0.000110
1288	1.2806e+02	-5.6369	-17.648339	0.000608	6.080761	1.030109	-0.000122
1289	1.2816e+02	-5.6570	-17.761379	0.000568	5.675377	0.961435	-0.000114
1290	1.2826e+02	-5.6772	-17.890567	0.000649	6.486146	1.098783	-0.000130
1291	1.2835e+02	-5.6967	-18.023793	0.000669	6.688838	1.133120	-0.000134
1292	1.2845e+02	-5.7167	-18.152981	0.000649	6.486146	1.098783	-0.000130
1293	1.2855e+02	-5.7368	-18.245835	0.000466	4.661917	0.789750	-0.000093
1294	1.2865e+02	-5.7563	-18.395209	0.000750	7.499606	1.270468	-0.000150
1295	1.2875e+02	-5.7755	-18.544583	0.000750	7.499606	1.270468	-0.000150
1296	1.2885e+02	-5.7956	-18.613214	0.000345	3.445765	0.583728	-0.000069
1297	1.2895e+02	-5.8160	-18.794885	0.000912	9.121142	1.545163	-0.000183
1298	1.2905e+02	-5.8368	-18.887740	0.000466	4.661917	0.789750	-0.000093
1299	1.2915e+02	-5.8566	-18.996742	0.000547	5.472685	0.927098	-0.000110
1300	1.2925e+02	-5.8763	-19.162265	0.000831	8.310374	1.407815	-0.000166
1301	1.2935e+02	-5.8957	-19.275305	0.000568	5.675377	0.961435	-0.000114
1302	1.2945e+02	-5.9161	-19.364122	0.000446	4.459225	0.755413	-0.000089
1303	1.2955e+02	-5.9354	-19.505421	0.000709	7.094222	1.201794	-0.000142
1304	1.2965e+02	-5.9566	-19.650758	0.000730	7.296914	1.236131	-0.000146
1305	1.2975e+02	-5.9752	-19.779947	0.000649	6.486146	1.098783	-0.000130
1306	1.2985e+02	-5.9962	-19.897023	0.000588	5.878069	0.995772	-0.000118
1307	1.2995e+02	-6.0165	-20.062546	0.000831	8.310374	1.407815	-0.000166
1308	1.3005e+02	-6.0352	-20.151363	0.000446	4.459225	0.755413	-0.000089
1309	1.3015e+02	-6.0559	-20.292663	0.000709	7.094222	1.201794	-0.000142
1310	1.3025e+02	-6.0748	-20.413777	0.000608	6.080761	1.030109	-0.000122
1311	1.3034e+02	-6.0956	-20.559114	0.000730	7.296914	1.236131	-0.000146
1312	1.3044e+02	-6.1148	-20.668116	0.000547	5.472685	0.927098	-0.000110
1313	1.3054e+02	-6.1349	-20.813453	0.000730	7.296914	1.236131	-0.000146
1314	1.3064e+02	-6.1560	-20.950716	0.000689	6.891530	1.167457	-0.000138
1315	1.3074e+02	-6.1750	-21.075867	0.000628	6.283454	1.064446	-0.000126
1316	1.3084e+02	-6.1961	-21.225241	0.000750	7.499606	1.270468	-0.000150
1317	1.3094e+02	-6.2146	-21.358467	0.000669	6.688838	1.133120	-0.000134
1318	1.3104e+02	-6.2361	-21.511878	0.000770	7.702298	1.304805	-0.000154
1319	1.3114e+02	-6.2549	-21.632992	0.000608	6.080761	1.030109	-0.000122
1320	1.3124e+02	-6.2744	-21.782366	0.000750	7.499606	1.270468	-0.000150
1321	1.3134e+02	-6.2949	-21.875220	0.000466	4.661917	0.789750	-0.000093
1322	1.3144e+02	-6.3145	-22.032668	0.000790	7.904990	1.339142	-0.000158
1323	1.3154e+02	-6.3341	-22.161857	0.000649	6.486146	1.098783	-0.000130
1324	1.3164e+02	-6.3542	-22.315268	0.000770	7.702298	1.304805	-0.000154
1325	1.3174e+02	-6.3739	-22.408122	0.000466	4.661917	0.789750	-0.000093
1326	1.3184e+02	-6.3942	-22.545385	0.000689	6.891530	1.167457	-0.000138
1327	1.3194e+02	-6.4140	-22.670536	0.000628	6.283454	1.064446	-0.000126
1328	1.3204e+02	-6.4339	-22.799724	0.000649	6.486146	1.098783	-0.000130
1329	1.3214e+02	-6.4539	-22.961210	0.000811	8.107682	1.373479	-0.000162
1330	1.3224e+02	-6.4742	-23.094435	0.000669	6.688838	1.133120	-0.000134
1331	1.3234e+02	-6.4932	-23.219586	0.000628	6.283454	1.064446	-0.000126
1332	1.3243e+02	-6.5143	-23.364923	0.000730	7.296914	1.236131	-0.000146
1333	1.3253e+02	-6.5329	-23.494111	0.000649	6.486146	1.098783	-0.000130
1334	1.3263e+02	-6.5543	-23.651560	0.000790	7.904990	1.339142	-0.000158
1335	1.3273e+02	-6.5723	-23.821119	0.000851	8.513066	1.442152	-0.000170
1336	1.3283e+02	-6.5935	-23.926085	0.000527	5.269993	0.892761	-0.000105
1337	1.3293e+02	-6.6129	-24.055273	0.000649	6.486146	1.098783	-0.000130
1338	1.3303e+02	-6.6330	-24.232907	0.000892	8.918450	1.510826	-0.000179
1339	1.3313e+02	-6.6522	-24.341910	0.000547	5.472685	0.927098	-0.000110
1340	1.3323e+02	-6.6737	-24.467061	0.000628	6.283454	1.064446	-0.000126
1341	1.3333e+02	-6.6931	-24.608361	0.000709	7.094222	1.201794	-0.000142
1342	1.3343e+02	-6.7126	-24.802143	0.000973	9.729218	1.648174	-0.000195
1343	1.3353e+02	-6.7325	-24.874812	0.000365	3.648457	0.618065	-0.000073
1344	1.3363e+02	-6.7529	-25.032260	0.000790	7.904990	1.339142	-0.000158
1345	1.3373e+02	-6.7715	-25.157411	0.000628	6.283454	1.064446	-0.000126
1346	1.3383e+02	-6.7931	-25.387528	0.001155	11.553447	1.957207	-0.000231
1347	1.3393e+02	-6.8134	-25.484419	0.000486	4.864609	0.824087	-0.000097
1348	1.3403e+02	-6.8326	-25.653979	0.000851	8.513066	1.442152	-0.000170
1349	1.3413e+02	-6.8523	-25.758945	0.000527	5.269993	0.892761	-0.000105
1350	1.3423e+02	-6.8721	-25.912356	0.000770	7.702298	1.304805	-0.000154
1351	1.3432e+02	-6.8926	-26.085953	0.000872	8.715758	1.476489	-0.000174
1352	1.3442e+02	-6.9119	-26.211104	0.000628	6.283454	1.064446	-0.000126
1353	1.3452e+02	-6.9312	-26.404886	0.000973	9.729218	1.648174	-0.000195
1354	1.3462e+02	-6.9516	-26.501778	0.000486	4.864609	0.824087	-0.000097
1355	1.3472e+02	-6.9717	-26.683449	0.000912	9.121142	1.545163	-0.000183
1356	1.3482e+02	-6.9919	-26.832823	0.000750	7.499606	1.270468	-0.000150
1357	1.3492e+02	-7.0117	-26.990271	0.000790	7.904990	1.339142	-0.000158
1358	1.3502e+02	-7.0317	-27.151756	0.000811	8.107682	1.373479	-0.000162
1359	1.3512e+02	-7.0520	-27.284982	0.000669	6.688838	1.133120	-0.000134
1360	1.3522e+02	-7.0709	-27.414170	0.000649	6.486146	1.098783	-0.000130
1361	1.3532e+02	-7.0916	-27.563544	0.000750	7.499606	1.270468	-0.000150
1362	1.3542e+02	-7.1120	-27.757327	0.000973	9.729218	1.648174	-0.000195
1363	1.3552e+02	-7.1310	-27.866329	0.000547	5.472685	0.927098	-0.000110
1364	1.3562e+02	-7.1519	-28.056075	0.000953	9.526526	1.613837	-0.000191
1365	1.3572e+02	-7.1715	-28.201412	0.000730	7.296914	1.236131	-0.000146
1366	1.3582e+02	-7.1918	-28.354823	0.000770	7.702298	1.304805	-0.000154
1367	1.3592e+02	-7.2104	-28.512271	0.000790	7.904990	1.339142	-0.000158
1368	1.3602e+02	-7.2302	-28.669719	0.000790	7.904990	1.339142	-0.000158
1369	1.3612e+02	-7.2504	-28.851391	0.000912	9.121142	1.545163	-0.000183
1370	1.3622e+02	-7.2717	-29.012876	0.000811	8.107682	1.373479	-0.000162
1371	1.3631e+02	-7.2913	-29.162250	0.000750	7.499606	1.270468	-0.000150
1372	1.3641e+02	-7.3113	-29.351995	0.000953	9.526526	1.613837	-0.000191
1373	1.3651e+02	-7.3306	-29.509444	0.000790	7.904990	1.339142	-0.000158
1374	1.3661e+02	-7.3509	-29.670929	0.000811	8.107682	1.373479	-0.000162
1375	1.3671e+02	-7.3705	-29.848563	0.000892	8.918450	1.510826	-0.000179
1376	1.3681e+02	-7.3897	-30.034271	0.000932	9.323834	1.579500	-0.000187
1377	1.3691e+02	-7.4100	-30.159423	0.000628	6.283454	1.064446	-0.000126
1378	1.3701e+02	-7.4303	-30.328982	0.000851	8.513066	1.442152	-0.000170
1379	1.3711e+02	-7.4500	-30.462208	0.000669	6.688838	1.133120	-0.000134
1380	1.3721e+02	-7.4704	-30.692324	0.001155	11.553447	1.957207	-0.000231
1381	1.3731e+02	-7.4907	-30.861884	0.000851	8.513066	1.442152	-0.000170
1382	1.3741e+02	-7.5101	-31.023370	0.000811	8.107682	1.373479	-0.000162
1383	1.3751e+02	-7.5305	-31.205041	0.000912	9.121142	1.545163	-0.000183
1384	1.3761e+02	-7.5497	-31.362489	0.000790	7.904990	1.339142	-0.000158
1385	1.3771e+02	-7.5688	-31.519937	0.000790	7.904990	1.339142	-0.000158
1386	1.3781e+02	-7.5888	-31.697571	0.000892	8.918450	1.510826	-0.000179
1387	1.3791e+02	-7.6082	-31.899428	0.001013	10.134602	1.716848	-0.000203
1388	1.3801e+02	-7.6282	-32.064951	0.000831	8.310374	1.407815	-0.000166
1389	1.3811e+02	-7.6482	-32.218362	0.000770	7.702298	1.304805	-0.000154
1390	1.3821e+02	-7.6686	-32.424256	0.001034	10.337295	1.751185	-0.000207
1391	1.3831e+02	-7.6878	-32.581704	0.000790	7.904990	1.339142	-0.000158
1392	1.3840e+02	-7.7090	-32.747227	0.000831	8.310374	1.407815	-0.000166
1393	1.3850e+02	-7.7287	-32.932935	0.000932	9.323834	1.579500	-0.000187
1394	1.3860e+02	-7.7485	-33.118643	0.000932	9.323834	1.579500	-0.000187
1395	1.3870e+02	-7.7682	-33.308388	0.000953	9.526526	1.613837	-0.000191
1396	1.3880e+02	-7.7887	-33.473911	0.000831	8.310374	1.407815	-0.000166
1397	1.3890e+02	-7.8085	-33.687879	0.001074	10.742679	1.819859	-0.000215
1398	1.3900e+02	-7.8284	-33.853402	0.000831	8.310374	1.407815	-0.000166
1399	1.3910e+02	-7.8481	-34.014887	0.000811	8.107682	1.373479	-0.000162
1400	1.3920e+02	-7.8680	-34.232892	0.001095	10.945371	1.854196	-0.000219
1401	1.3930e+02	-7.8891	-34.410526	0.000892	8.918450	1.510826	-0.000179
1402	1.3940e+02	-7.9076	-34.596235	0.000932	9.323834	1.579500	-0.000187
1403	1.3950e+02	-7.9285	-34.818277	0.001115	11.148063	1.888533	-0.000223
1404	1.3960e+02	-7.9474	-34.967651	0.000750	7.499606	1.270468	-0.000150
1405	1.3970e+02	-7.9672	-35.185657	0.001095	10.945371	1.854196	-0.000219
1406	1.3980e+02	-7.9868	-35.375402	0.000953	9.526526	1.613837	-0.000191
1407	1.3990e+02	-8.0078	-35.548999	0.000872	8.715758	1.476489	-0.000174
1408	1.4000e+02	-8.0273	-35.750856	0.001013	10.134602	1.716848	-0.000203
1409	1.4010e+02	-8.0472	-35.952712	0.001013	10.134602	1.716848	-0.000203
1410	1.4020e+02	-8.0676	-36.154569	0.001013	10.134602	1.716848	-0.000203
1411	1.4029e+02	-8.0871	-36.356426	0.001013	10.134602	1.716848	-0.000203
1412	1.4039e+02	-8.1076	-36.554246	0.000993	9.931910	1.682511	-0.000199
1413	1.4049e+02	-8.1271	-36.752065	0.000993	9.931910	1.682511	-0.000199
1414	1.4059e+02	-8.1479	-36.949885	0.000993	9.931910	1.682511	-0.000199
1415	1.4069e+02	-8.1665	-37.155779	0.001034	10.337295	1.751185	-0.000207
1416	1.4079e+02	-8.1860	-37.385896	0.001155	11.553447	1.957207	-0.000231
1417	1.4089e+02	-8.2065	-37.555455	0.000851	8.513066	1.442152	-0.000170
1418	1.4099e+02	-8.2267	-37.805758	0.001257	12.566907	2.128892	-0.000252
1419	1.4109e+02	-8.2466	-37.991466	0.000932	9.323834	1.579500	-0.000187
1420	1.4119e+02	-8.2678	-38.213508	0.001115	11.148063	1.888533	-0.000223
1421	1.4129e+02	-8.2867	-38.403254	0.000953	9.526526	1.613837	-0.000191
1422	1.4139e+02	-8.3060	-38.617222	0.001074	10.742679	1.819859	-0.000215
1423	1.4149e+02	-8.3257	-38.851376	0.001176	11.756139	1.991544	-0.000235
1424	1.4159e+02	-8.3459	-39.057270	0.001034	10.337295	1.751185	-0.000207
1425	1.4169e+02	-8.3654	-39.315646	0.001297	12.972291	2.197566	-0.000260
1426	1.4179e+02	-8.3853	-39.517503	0.001013	10.134602	1.716848	-0.000203
1427	1.4189e+02	-8.4059	-39.723397	0.001034	10.337295	1.751185	-0.000207
1428	1.4199e+02	-8.4264	-39.933328	0.001054	10.539987	1.785522	-0.000211
1429	1.4209e+02	-8.4454	-40.175556	0.001216	12.161523	2.060218	-0.000243
1430	1.4219e+02	-8.4668	-40.381450	0.001034	10.337295	1.751185	-0.000207
1431	1.4228e+02	-8.4862	-40.623678	0.001216	12.161523	2.060218	-0.000243
1432	1.4238e+02	-8.5051	-40.849758	0.001135	11.350755	1.922870	-0.000227
1433	1.4248e+02	-8.5248	-41.043540	0.000973	9.729218	1.648174	-0.000195
1434	1.4258e+02	-8.5461	-41.297880	0.001277	12.769599	2.163229	-0.000256
1435	1.4268e+02	-8.5651	-41.467440	0.000851	8.513066	1.442152	-0.000170
1436	1.4278e+02	-8.5855	-41.733891	0.001338	13.377675	2.266240	-0.000268
1437	1.4288e+02	-8.6052	-41.992267	0.001297	12.972291	2.197566	-0.000260
1438	1.4298e+02	-8.6247	-42.182013	0.000953	9.526526	1.613837	-0.000191
1439	1.4308e+02	-8.6444	-42.424241	0.001216	12.161523	2.060218	-0.000243
1440	1.4318e+02	-8.6649	-42.666469	0.001216	12.161523	2.060218	-0.000243
1441	1.4328e+02	-8.6853	-42.872363	0.001034	10.337295	1.751185	-0.000207
1442	1.4338e+02	-8.7051	-43.154962	0.001419	14.188443	2.403587	-0.000284
1443	1.4348e+02	-8.7244	-43.401228	0.001236	12.364215	2.094555	-0.000248
1444	1.4358e+02	-8.7439	-43.599047	0.000993	9.931910	1.682511	-0.000199
1445	1.4368e+02	-8.7646	-43.861461	0.001317	13.174983	2.231903	-0.000264
1446	1.4378e+02	-8.7845	-44.099652	0.001196	11.958831	2.025881	-0.000239
1447	1.4388e+02	-8.8046	-44.321695	0.001115	11.148063	1.888533	-0.000223
1448	1.4398e+02	-8.8235	-44.571997	0.001257	12.566907	2.128892	-0.000252
1449	1.4408e+02	-8.8446	-44.814225	0.001216	12.161523	2.060218	-0.000243
1450	1.4418e+02	-8.8637	-45.121048	0.001540	15.404596	2.609609	-0.000308
1451	1.4428e+02	-8.8840	-45.286570	0.000831	8.310374	1.407815	-0.000166
1452	1.4437e+02	-8.9036	-45.565133	0.001399	13.985751	2.369250	-0.000280
1453	1.4447e+02	-8.9238	-45.839658	0.001378	13.783059	2.334913	-0.000276
1454	1.4457e+02	-8.9435	-46.102072	0.001317	13.174983	2.231903	-0.000264
1455	1.4467e+02	-8.9630	-46.320077	0.001095	10.945371	1.854196	-0.000219
1456	1.4477e+02	-8.9824	-46.598639	0.001399	13.985751	2.369250	-0.000280
1457	1.4487e+02	-9.0021	-46.897387	0.001500	14.999212	2.540935	-0.000300
1458	1.4497e+02	-9.0237	-47.115393	0.001095	10.945371	1.854196	-0.000219
1459	1.4507e+02	-9.0431	-47.361658	0.001236	12.364215	2.094555	-0.000248
1460	1.4517e+02	-9.0633	-47.620035	0.001297	12.972291	2.197566	-0.000260
1461	1.4527e+02	-9.0829	-47.902634	0.001419	14.188443	2.403587	-0.000284
1462	1.4537e+02	-9.1025	-48.185234	0.001419	14.188443	2.403587	-0.000284
1463	1.4547e+02	-9.1222	-48.479945	0.001480	14.796520	2.506598	-0.000296
1464	1.4557e+02	-9.1427	-48.718136	0.001196	11.958831	2.025881	-0.000239
1465	1.4567e+02	-9.1626	-49.012846	0.001480	14.796520	2.506598	-0.000296
1466	1.4577e+02	-9.1818	-49.263149	0.001257	12.566907	2.128892	-0.000252
1467	1.4587e+02	-9.2043	-49.578045	0.001581	15.809980	2.678283	-0.000316
1468	1.4597e+02	-9.2226	-49.816236	0.001196	11.958831	2.025881	-0.000239
1469	1.4607e+02	-9.2423	-50.050390	0.001176	11.756139	1.991544	-0.000235
1470	1.4617e+02	-9.2622	-50.345101	0.001480	14.796520	2.506598	-0.000296
1471	1.4626e+02	-9.2821	-50.655961	0.001561	15.607288	2.643946	-0.000312
1472	1.4636e+02	-9.3022	-50.914337	0.001297	12.972291	2.197566	-0.000260
1473	1.4646e+02	-9.3224	-51.241345	0.001642	16.418056	2.781294	-0.000329
1474	1.4656e+02	-9.3420	-51.544131	0.001520	15.201904	2.575272	-0.000304
1475	1.4666e+02	-9.3617	-51.790396	0.001236	12.364215	2.094555	-0.000248
1476	1.4676e+02	-9.3829	-52.109330	0.001601	16.012672	2.712620	-0.000321
1477	1.4686e+02	-9.4016	-52.387892	0.001399	13.985751	2.369250	-0.000280
1478	1.4696e+02	-9.4218	-52.682603	0.001480	14.796520	2.506598	-0.000296
1479	1.4706e+02	-9.4418	-52.993462	0.001561	15.607288	2.643946	-0.000312
1480	1.4716e+02	-9.4620	-53.292210	0.001500	14.999212	2.540935	-0.000300
1481	1.4726e+02	-9.4820	-53.574810	0.001419	14.188443	2.403587	-0.000284
1482	1.4736e+02	-9.5014	-53.861446	0.001439	14.391136	2.437924	-0.000288
1483	1.4746e+02	-9.5210	-54.192492	0.001662	16.620748	2.815631	-0.000333
1484	1.4756e+02	-9.5407	-54.487202	0.001480	14.796520	2.506598	-0.000296
1485	1.4766e+02	-9.5602	-54.846508	0.001804	18.039592	3.055990	-0.000361
1486	1.4776e+02	-9.5810	-55.133144	0.001439	14.391136	2.437924	-0.000288
1487	1.4786e+02	-9.6009	-55.415744	0.001419	14.188443	2.403587	-0.000284
1488	1.4796e+02	-9.6207	-55.787160	0.001865	18.647669	3.159001	-0.000373
1489	1.4806e+02	-9.6414	-56.053611	0.001338	13.377675	2.266240	-0.000268
1490	1.4816e+02	-9.6611	-56.412916	0.001804	18.039592	3.055990	-0.000361
1491	1.4825e+02	-9.6802	-56.727813	0.001581	15.809980	2.678283	-0.000316
1492	1.4835e+02	-9.6997	-57.018487	0.001459	14.593828	2.472261	-0.000292
1493	1.4845e+02	-9.7202	-57.361643	0.001723	17.228824	2.918642	-0.000345
1494	1.4855e+02	-9.7407	-57.668465	0.001540	15.404596	2.609609	-0.000308
1495	1.4865e+02	-9.7594	-58.011622	0.001723	17.228824	2.918642	-0.000345
1496	1.4875e+02	-9.7806	-58.338630	0.001642	16.418056	2.781294	-0.000329
1497	1.4885e+02	-9.8000	-58.653527	0.001581	15.809980	2.678283	-0.000316
1498	1.4895e+02	-9.8203	-59.020906	0.001844	18.444977	3.124664	-0.000369
1499	1.4905e+02	-9.8395	-59.319654	0.001500	14.999212	2.540935	-0.000300
1500	1.4915e+02	-9.8592	-59.691070	0.001865	18.647669	3.159001	-0.000373
1501	1.4925e+02	-9.8801	-60.001930	0.001561	15.607288	2.643946	-0.000312
1502	1.4935e+02	-9.8999	-60.345086	0.001723	17.228824	2.918642	-0.000345
1503	1.4945e+02	-9.9199	-60.724577	0.001905	19.053053	3.227674	-0.000381
1504	1.4955e+02	-9.9402	-61.051585	0.001642	16.418056	2.781294	-0.000329
1505	1.4965e+02	-9.9597	-61.374556	0.001622	16.215364	2.746957	-0.000325
1506	1.4975e+02	-9.9789	-61.741935	0.001844	18.444977	3.124664	-0.000369
1507	1.4985e+02	-9.9988	-62.125463	0.001926	19.255745	3.262011	-0.000385
1508	1.4995e+02	-9.9802	-62.327320	-0.001013	-10.134602	-1.716848	-0.000203
1509	1.5005e+02	-9.9604	-62.500917	-0.000872	-8.715758	-1.476489	-0.000174
1510	1.5015e+02	-9.9397	-62.630105	-0.000649	-6.486146	-1.098783	-0.000130
1511	1.5025e+02	-9.9194	-62.807739	-0.000892	-8.918450	-1.510826	-0.000179
1512	1.5034e+02	-9.8999	-62.949039	-0.000709	-7.094222	-1.201794	-0.000142
1513	1.5044e+02	-9.8785	-63.122636	-0.000872	-8.715758	-1.476489	-0.000174
1514	1.5054e+02	-9.8596	-63.219527	-0.000486	-4.864609	-0.824087	-0.000097
1515	1.5064e+02	-9.8390	-63.360827	-0.000709	-7.094222	-1.201794	-0.000142
1516	1.5074e+02	-9.8206	-63.441570	-0.000405	-4.053841	-0.686739	-0.000081
1517	1.5084e+02	-9.7993	-63.570758	-0.000649	-6.486146	-1.098783	-0.000130
1518	1.5094e+02	-9.7803	-63.647463	-0.000385	-3.851149	-0.652402	-0.000077
1519	1.5104e+02	-9.7604	-63.812986	-0.000831	-8.310374	-1.407815	-0.000166
1520	1.5114e+02	-9.7418	-63.804912	0.000041	0.405384	0.068674	0.000008
1521	1.5124e+02	-9.7208	-63.950249	-0.000730	-7.296914	-1.236131	-0.000146
1522	1.5134e+02	-9.7016	-64.018880	-0.000345	-3.445765	-0.583728	-0.000069
1523	1.5144e+02	-9.6817	-64.063288	-0.000223	-2.229613	-0.377707	-0.000045
1524	1.5154e+02	-9.6605	-64.156143	-0.000466	-4.661917	-0.789750	-0.000093
1525	1.5164e+02	-9.6413	-64.204588	-0.000243	-2.432305	-0.412044	-0.000049
1526	1.5174e+02	-9.6211	-64.297442	-0.000466	-4.661917	-0.789750	-0.000093
1527	1.5184e+02	-9.6007	-64.305517	-0.000041	-0.405384	-0.068674	-0.000008
1528	1.5194e+02	-9.5813	-64.353962	-0.000243	-2.432305	-0.412044	-0.000049
1529	1.5204e+02	-9.5602	-64.398371	-0.000223	-2.229613	-0.377707	-0.000045
1530	1.5214e+02	-9.5410	-64.458928	-0.000304	-3.040381	-0.515054	-0.000061
1531	1.5224e+02	-9.5216	-64.535633	-0.000385	-3.851149	-0.652402	-0.000077
1532	1.5233e+02	-9.5014	-64.555819	-0.000101	-1.013460	-0.171685	-0.000020
1533	1.5243e+02	-9.4816	-64.592153	-0.000182	-1.824228	-0.309033	-0.000037
1534	1.5253e+02	-9.4611	-64.576005	0.000081	0.810768	0.137348	0.000016
1535	1.5263e+02	-9.4394	-64.620413	-0.000223	-2.229613	-0.377707	-0.000045
1536	1.5273e+02	-9.4218	-64.660785	-0.000203	-2.026920	-0.343370	-0.000041
1537	1.5283e+02	-9.4018	-64.685007	-0.000122	-1.216152	-0.206022	-0.000024
1538	1.5293e+02	-9.3826	-64.697119	-0.000061	-0.608076	-0.103011	-0.000012
1539	1.5303e+02	-9.3623	-64.709230	-0.000061	-0.608076	-0.103011	-0.000012
1540	1.5313e+02	-9.3425	-64.725379	-0.000081	-0.810768	-0.137348	-0.000016
1541	1.5323e+02	-9.3217	-64.709230	0.000081	0.810768	0.137348	0.000016
1542	1.5333e+02	-9.3018	-64.737490	-0.000142	-1.418844	-0.240359	-0.000028
1543	1.5343e+02	-9.2819	-64.757676	-0.000101	-1.013460	-0.171685	-0.000020
1544	1.5353e+02	-9.2612	-64.789973	-0.000162	-1.621536	-0.274696	-0.000032
1545	1.5363e+02	-9.2426	-64.757676	0.000162	1.621536	0.274696	0.000032
1546	1.5373e+02	-9.2224	-64.757676	0.000000	0.000000	0.000000	0.000000
1547	1.5383e+02	-9.2025	-64.757676	0.000000	0.000000	0.000000	0.000000
1548	1.5393e+02	-9.1833	-64.757676	0.000000	0.000000	0.000000	0.000000
1549	1.5403e+02	-9.1626	-64.749602	0.000041	0.405384	0.068674	0.000008
1550	1.5413e+02	-9.1426	-64.777861	-0.000142	-1.418844	-0.240359	-0.000028
1551	1.5422e+02	-9.1231	-64.733453	0.000223	2.229613	0.377707	0.000045
1552	1.5432e+02	-9.1027	-64.725379	0.000041	0.405384	0.068674	0.000008
1553	1.5442e+02	-9.0838	-64.701156	0.000122	1.216152	0.206022	0.000024
1554	1.5452e+02	-9.0637	-64.733453	-0.000162	-1.621536	-0.274696	-0.000032
1555	1.5462e+02	-9.0442	-64.668859	0.000324	3.243073	0.549391	0.000065
1556	1.5472e+02	-9.0231	-64.656747	0.000061	0.608076	0.103011	0.000012
1557	1.5482e+02	-9.0038	-64.636562	0.000101	1.013460	0.171685	0.000020
1558	1.5492e+02	-8.9832	-64.624450	0.000061	0.608076	0.103011	0.000012
1559	1.5502e+02	-8.9638	-64.628487	-0.000020	-0.202692	-0.034337	-0.000004
1560	1.5512e+02	-8.9420	-64.559856	0.000345	3.445765	0.583728	0.000069
1561	1.5522e+02	-8.9240	-64.547745	0.000061	0.608076	0.103011	0.000012
1562	1.5532e+02	-8.9041	-64.531596	0.000081	0.810768	0.137348	0.000016
1563	1.5542e+02	-8.8838	-64.491225	0.000203	2.026920	0.343370	0.000041
1564	1.5552e+02	-8.8641	-64.531596	-0.000203	-2.026920	-0.343370	-0.000041
1565	1.5562e+02	-8.8443	-64.462965	0.000345	3.445765	0.583728	0.000069
1566	1.5572e+02	-8.8246	-64.430668	0.000162	1.621536	0.274696	0.000032
1567	1.5582e+02	-8.8064	-64.353962	0.000385	3.851149	0.652402	0.000077
1568	1.5592e+02	-8.7848	-64.370111	-0.000081	-0.810768	-0.137348	-0.000016
1569	1.5602e+02	-8.7643	-64.329739	0.000203	2.026920	0.343370	0.000041
1570	1.5612e+02	-8.7439	-64.277257	0.000263	2.634997	0.446381	0.000053
1571	1.5622e+02	-8.7248	-64.212662	0.000324	3.243073	0.549391	0.000065
1572	1.5631e+02	-8.7047	-64.196514	0.000081	0.810768	0.137348	0.000016
1573	1.5641e+02	-8.6850	-64.168254	0.000142	1.418844	0.240359	0.000028
1574	1.5651e+02	-8.6646	-64.131920	0.000182	1.824228	0.309033	0.000037
1575	1.5661e+02	-8.6444	-64.115771	0.000081	0.810768	0.137348	0.000016
1576	1.5671e+02	-8.6247	-64.091548	0.000122	1.216152	0.206022	0.000024
1577	1.5681e+02	-8.6046	-64.010806	0.000405	4.053841	0.686739	0.000081
1578	1.5691e+02	-8.5852	-63.974471	0.000182	1.824228	0.309033	0.000037
1579	1.5701e+02	-8.5654	-63.917952	0.000284	2.837689	0.480717	0.000057
1580	1.5711e+02	-8.5452	-63.901803	0.000081	0.810768	0.137348	0.000016
1581	1.5721e+02	-8.5257	-63.841246	0.000304	3.040381	0.515054	0.000061
1582	1.5731e+02	-8.5059	-63.776652	0.000324	3.243073	0.549391	0.000065
1583	1.5741e+02	-8.4859	-63.780689	-0.000020	-0.202692	-0.034337	-0.000004
1584	1.5751e+02	-8.4660	-63.740318	0.000203	2.026920	0.343370	0.000041
1585	1.5761e+02	-8.4448	-63.687835	0.000263	2.634997	0.446381	0.000053
1586	1.5771e+02	-8.4265	-63.586906	0.000507	5.067301	0.858424	0.000101
1587	1.5781e+02	-8.4048	-63.578832	0.000041	0.405384	0.068674	0.000008
1588	1.5791e+02	-8.3855	-63.538461	0.000203	2.026920	0.343370	0.000041
1589	1.5801e+02	-8.3657	-63.498089	0.000203	2.026920	0.343370	0.000041
1590	1.5811e+02	-8.3459	-63.445607	0.000263	2.634997	0.446381	0.000053
1591	1.5821e+02	-8.3247	-63.397161	0.000243	2.432305	0.412044	0.000049
1592	1.5830e+02	-8.3063	-63.364864	0.000162	1.621536	0.274696	0.000032
1593	1.5840e+02	-8.2861	-63.308344	0.000284	2.837689	0.480717	0.000057
1594	1.5850e+02	-8.2658	-63.247787	0.000304	3.040381	0.515054	0.000061
1595	1.5860e+02	-8.2463	-63.195304	0.000263	2.634997	0.446381	0.000053
1596	1.5870e+02	-8.2268	-63.118599	0.000385	3.851149	0.652402	0.000077
1597	1.5880e+02	-8.2066	-63.062079	0.000284	2.837689	0.480717	0.000057
1598	1.5890e+02	-8.1863	-63.045930	0.000081	0.810768	0.137348	0.000016
1599	1.5900e+02	-8.1673	-62.989410	0.000284	2.837689	0.480717	0.000057
1600	1.5910e+02	-8.1473	-62.908668	0.000405	4.053841	0.686739	0.000081
1601	1.5920e+02	-8.1268	-62.876371	0.000162	1.621536	0.274696	0.000032
1602	1.5930e+02	-8.1065	-62.819851	0.000284	2.837689	0.480717	0.000057
1603	1.5940e+02	-8.0865	-62.787554	0.000162	1.621536	0.274696	0.000032
1604	1.5950e+02	-8.0670	-62.678551	0.000547	5.472685	0.927098	0.000110
1605	1.5960e+02	-8.0466	-62.613957	0.000324	3.243073	0.549391	0.000065
1606	1.5970e+02	-8.0283	-62.589734	0.000122	1.216152	0.206022	0.000024
1607	1.5980e+02	-8.0075	-62.521103	0.000345	3.445765	0.583728	0.000069
1608	1.5990e+02	-7.9875	-62.464583	0.000284	2.837689	0.480717	0.000057
1609	1.6000e+02	-7.9678	-62.404026	0.000304	3.040381	0.515054	0.000061
1610	1.6010e+02	-7.9488	-62.355580	0.000243	2.432305	0.412044	0.000049
1611	1.6019e+02	-7.9279	-62.266763	0.000446	4.459225	0.755413	0.000089
1612	1.6029e+02	-7.9074	-62.218317	0.000243	2.432305	0.412044	0.000049
1613	1.6039e+02	-7.8873	-62.165835	0.000263	2.634997	0.446381	0.000053
1614	1.6049e+02	-7.8670	-62.129500	0.000182	1.824228	0.309033	0.000037
1615	1.6059e+02	-7.8473	-62.028572	0.000507	5.067301	0.858424	0.000101
1616	1.6069e+02	-7.8287	-61.963978	0.000324	3.243073	0.549391	0.000065
1617	1.6079e+02	-7.8088	-61.939755	0.000122	1.216152	0.206022	0.000024
1618	1.6089e+02	-7.7876	-61.879198	0.000304	3.040381	0.515054	0.000061
1619	1.6099e+02	-7.7683	-61.806530	0.000365	3.648457	0.618065	0.000073
1620	1.6109e+02	-7.7477	-61.717713	0.000446	4.459225	0.755413	0.000089
1621	1.6119e+02	-7.7295	-61.653118	0.000324	3.243073	0.549391	0.000065
1622	1.6129e+02	-7.7092	-61.584487	0.000345	3.445765	0.583728	0.000069
1623	1.6139e+02	-7.6874	-61.536041	0.000243	2.432305	0.412044	0.000049
1624	1.6149e+02	-7.6685	-61.483559	0.000263	2.634997	0.446381	0.000053
1625	1.6159e+02	-7.6482	-61.427039	0.000284	2.837689	0.480717	0.000057
1626	1.6169e+02	-7.6297	-61.301888	0.000628	6.283454	1.064446	0.000126
1627	1.6179e+02	-7.6093	-61.261516	0.000203	2.026920	0.343370	0.000041
1628	1.6189e+02	-7.5902	-61.225182	0.000182	1.824228	0.309033	0.000037
1629	1.6199e+02	-7.5694	-61.132328	0.000466	4.661917	0.789750	0.000093
1630	1.6209e+02	-7.5492	-61.071771	0.000304	3.040381	0.515054	0.000061
1631	1.6219e+02	-7.5295	-61.031400	0.000203	2.026920	0.343370	0.000041
1632	1.6228e+02	-7.5101	-60.938545	0.000466	4.661917	0.789750	0.000093
1633	1.6238e+02	-7.4899	-60.882025	0.000284	2.837689	0.480717	0.000057
1634	1.6248e+02	-7.4702	-60.785134	0.000486	4.864609	0.824087	0.000097
1635	1.6258e+02	-7.4503	-60.728614	0.000284	2.837689	0.480717	0.000057
1636	1.6268e+02	-7.4292	-60.684206	0.000223	2.229613	0.377707	0.000045
1637	1.6278e+02	-7.4103	-60.555018	0.000649	6.486146	1.098783	0.000130
1638	1.6288e+02	-7.3904	-60.502535	0.000263	2.634997	0.446381	0.000053
1639	1.6298e+02	-7.3697	-60.446015	0.000284	2.837689	0.480717	0.000057
1640	1.6308e+02	-7.3503	-60.393532	0.000263	2.634997	0.446381	0.000053
1641	1.6318e+02	-7.3303	-60.324901	0.000345	3.445765	0.583728	0.000069
1642	1.6328e+02	-7.3112	-60.256269	0.000345	3.445765	0.583728	0.000069
1643	1.6338e+02	-7.2903	-60.195712	0.000304	3.040381	0.515054	0.000061
1644	1.6348e+02	-7.2704	-60.127081	0.000345	3.445765	0.583728	0.000069
1645	1.6358e+02	-7.2507	-60.022116	0.000527	5.269993	0.892761	0.000105
1646	1.6368e+02	-7.2308	-59.969633	0.000263	2.634997	0.446381	0.000053
1647	1.6378e+02	-7.2107	-59.884853	0.000426	4.256533	0.721076	0.000085
1648	1.6388e+02	-7.1916	-59.787962	0.000486	4.864609	0.824087	0.000097
1649	1.6398e+02	-7.1716	-59.735479	0.000263	2.634997	0.446381	0.000053
1650	1.6408e+02	-7.1512	-59.707219	0.000142	1.418844	0.240359	0.000028
1651	1.6418e+02	-7.1313	-59.622439	0.000426	4.256533	0.721076	0.000085
1652	1.6427e+02	-7.1109	-59.525548	0.000486	4.864609	0.824087	0.000097
1653	1.6437e+02	-7.0917	-59.452879	0.000365	3.648457	0.618065	0.000073
1654	1.6447e+02	-7.0713	-59.424619	0.000142	1.418844	0.240359	0.000028
1655	1.6457e+02	-7.0508	-59.287357	0.000689	6.891530	1.167457	0.000138
1656	1.6467e+02	-7.0322	-59.238911	0.000243	2.432305	0.412044	0.000049
1657	1.6477e+02	-7.0108	-59.150094	0.000446	4.459225	0.755413	0.000089
1658	1.6487e+02	-6.9916	-59.105686	0.000223	2.229613	0.377707	0.000045
1659	1.6497e+02	-6.9725	-59.028980	0.000385	3.851149	0.652402	0.000077
1660	1.6507e+02	-6.9524	-58.944200	0.000426	4.256533	0.721076	0.000085
1661	1.6517e+02	-6.9321	-58.859420	0.000426	4.256533	0.721076	0.000085
1662	1.6527e+02	-6.9121	-58.790789	0.000345	3.445765	0.583728	0.000069
1663	1.6537e+02	-6.8918	-58.693898	0.000486	4.864609	0.824087	0.000097
1664	1.6547e+02	-6.8716	-58.653527	0.000203	2.026920	0.343370	0.000041
1665	1.6557e+02	-6.8512	-58.536450	0.000588	5.878069	0.995772	0.000118
1666	1.6567e+02	-6.8327	-58.496078	0.000203	2.026920	0.343370	0.000041
1667	1.6577e+02	-6.8134	-58.435521	0.000304	3.040381	0.515054	0.000061
1668	1.6587e+02	-6.7917	-58.326519	0.000547	5.472685	0.927098	0.000110
1669	1.6597e+02	-6.7731	-58.237702	0.000446	4.459225	0.755413	0.000089
1670	1.6607e+02	-6.7519	-58.140810	0.000486	4.864609	0.824087	0.000097
1671	1.6616e+02	-6.7325	-58.088328	0.000263	2.634997	0.446381	0.000053
1672	1.6626e+02	-6.7126	-57.983362	0.000527	5.269993	0.892761	0.000105
1673	1.6636e+02	-6.6925	-57.902619	0.000405	4.053841	0.686739	0.000081
1674	1.6646e+02	-6.6737	-57.797654	0.000527	5.269993	0.892761	0.000105
1675	1.6656e+02	-6.6525	-57.757282	0.000203	2.026920	0.343370	0.000041
1676	1.6666e+02	-6.6331	-57.668465	0.000446	4.459225	0.755413	0.000089
1677	1.6676e+02	-6.6125	-57.587723	0.000405	4.053841	0.686739	0.000081
1678	1.6686e+02	-6.5939	-57.486794	0.000507	5.067301	0.858424	0.000101
1679	1.6696e+02	-6.5718	-57.414126	0.000365	3.648457	0.618065	0.000073
1680	1.6706e+02	-6.5530	-57.329346	0.000426	4.256533	0.721076	0.000085
1681	1.6716e+02	-6.5331	-57.264752	0.000324	3.243073	0.549391	0.000065
1682	1.6726e+02	-6.5140	-57.175935	0.000446	4.459225	0.755413	0.000089
1683	1.6736e+02	-6.4946	-57.087118	0.000446	4.459225	0.755413	0.000089
1684	1.6746e+02	-6.4742	-57.002338	0.000426	4.256533	0.721076	0.000085
1685	1.6756e+02	-6.4542	-56.941781	0.000304	3.040381	0.515054	0.000061
1686	1.6766e+02	-6.4343	-56.848927	0.000466	4.661917	0.789750	0.000093
1687	1.6776e+02	-6.4130	-56.768184	0.000405	4.053841	0.686739	0.000081
1688	1.6786e+02	-6.3934	-56.679367	0.000446	4.459225	0.755413	0.000089
1689	1.6796e+02	-6.3742	-56.606699	0.000365	3.648457	0.618065	0.000073
1690	1.6806e+02	-6.3538	-56.517882	0.000446	4.459225	0.755413	0.000089
1691	1.6816e+02	-6.3345	-56.453288	0.000324	3.243073	0.549391	0.000065
1692	1.6825e+02	-6.3147	-56.328136	0.000628	6.283454	1.064446	0.000126
1693	1.6835e+02	-6.2949	-56.259505	0.000345	3.445765	0.583728	0.000069
1694	1.6845e+02	-6.2733	-56.174725	0.000426	4.256533	0.721076	0.000085
1695	1.6855e+02	-6.2549	-56.118205	0.000284	2.837689	0.480717	0.000057
1696	1.6865e+02	-6.2346	-56.001128	0.000588	5.878069	0.995772	0.000118
1697	1.6875e+02	-6.2154	-55.924423	0.000385	3.851149	0.652402	0.000077
1698	1.6885e+02	-6.1943	-55.875977	0.000243	2.432305	0.412044	0.000049
1699	1.6895e+02	-6.1749	-55.775049	0.000507	5.067301	0.858424	0.000101
1700	1.6905e+02	-6.1549	-55.686232	0.000446	4.459225	0.755413	0.000089
1701	1.6915e+02	-6.1356	-55.581266	0.000527	5.269993	0.892761	0.000105
1702	1.6925e+02	-6.1154	-55.512635	0.000345	3.445765	0.583728	0.000069
1703	1.6935e+02	-6.0951	-55.423818	0.000446	4.459225	0.755413	0.000089
1704	1.6945e+02	-6.0767	-55.314815	0.000547	5.472685	0.927098	0.000110
1705	1.6955e+02	-6.0558	-55.274444	0.000203	2.026920	0.343370	0.000041
1706	1.6965e+02	-6.0349	-55.161404	0.000568	5.675377	0.961435	0.000114
1707	1.6975e+02	-6.0161	-55.052401	0.000547	5.472685	0.927098	0.000110
1708	1.6985e+02	-5.9964	-54.983770	0.000345	3.445765	0.583728	0.000069
1709	1.6995e+02	-5.9747	-54.911102	0.000365	3.648457	0.618065	0.000073
1710	1.7005e+02	-5.9564	-54.830359	0.000405	4.053841	0.686739	0.000081
1711	1.7015e+02	-5.9357	-54.725393	0.000527	5.269993	0.892761	0.000105
1712	1.7024e+02	-5.9166	-54.689059	0.000182	1.824228	0.309033	0.000037
1713	1.7034e+02	-5.8969	-54.571982	0.000588	5.878069	0.995772	0.000118
1714	1.7044e+02	-5.8765	-54.511425	0.000304	3.040381	0.515054	0.000061
1715	1.7054e+02	-5.8566	-54.402423	0.000547	5.472685	0.927098	0.000110
1716	1.7064e+02	-5.8356	-54.305531	0.000486	4.864609	0.824087	0.000097
1717	1.7074e+02	-5.8159	-54.228826	0.000385	3.851149	0.652402	0.000077
1718	1.7084e+02	-5.7955	-54.148083	0.000405	4.053841	0.686739	0.000081
1719	1.7094e+02	-5.7770	-54.067340	0.000405	4.053841	0.686739	0.000081
1720	1.7104e+02	-5.7565	-53.954301	0.000568	5.675377	0.961435	0.000114
1721	1.7114e+02	-5.7370	-53.881632	0.000365	3.648457	0.618065	0.000073
1722	1.7124e+02	-5.7169	-53.760518	0.000608	6.080761	1.030109	0.000122
1723	1.7134e+02	-5.6956	-53.675738	0.000426	4.256533	0.721076	0.000085
1724	1.7144e+02	-5.6767	-53.611144	0.000324	3.243073	0.549391	0.000065
1725	1.7154e+02	-5.6570	-53.558661	0.000263	2.634997	0.446381	0.000053
1726	1.7164e+02	-5.6372	-53.421399	0.000689	6.891530	1.167457	0.000138
1727	1.7174e+02	-5.6172	-53.356804	0.000324	3.243073	0.549391	0.000065
1728	1.7184e+02	-5.5974	-53.211468	0.000730	7.296914	1.236131	0.000146
1729	1.7194e+02	-5.5771	-53.150911	0.000304	3.040381	0.515054	0.000061
1730	1.7204e+02	-5.5574	-53.054019	0.000486	4.864609	0.824087	0.000097
1731	1.7213e+02	-5.5380	-52.924831	0.000649	6.486146	1.098783	0.000130
1732	1.7223e+02	-5.5172	-52.836014	0.000446	4.459225	0.755413	0.000089
1733	1.7233e+02	-5.4970	-52.799680	0.000182	1.824228	0.309033	0.000037
1734	1.7243e+02	-5.4784	-52.702788	0.000486	4.864609	0.824087	0.000097
1735	1.7253e+02	-5.4572	-52.618009	0.000426	4.256533	0.721076	0.000085
1736	1.7263e+02	-5.4375	-52.533229	0.000426	4.256533	0.721076	0.000085
1737	1.7273e+02	-5.4184	-52.420189	0.000568	5.675377	0.961435	0.000114
1738	1.7283e+02	-5.3976	-52.327335	0.000466	4.661917	0.789750	0.000093
1739	1.7293e+02	-5.3781	-52.258704	0.000345	3.445765	0.583728	0.000069
1740	1.7303e+02	-5.3577	-52.169887	0.000446	4.459225	0.755413	0.000089
1741	1.7313e+02	-5.3381	-52.032624	0.000689	6.891530	1.167457	0.000138
1742	1.7323e+02	-5.3183	-51.972067	0.000304	3.040381	0.515054	0.000061
1743	1.7333e+02	-5.2985	-51.887287	0.000426	4.256533	0.721076	0.000085
1744	1.7343e+02	-5.2788	-51.794433	0.000466	4.661917	0.789750	0.000093
1745	1.7353e+02	-5.2580	-51.701579	0.000466	4.661917	0.789750	0.000093
1746	1.7363e+02	-5.2383	-51.596613	0.000527	5.269993	0.892761	0.000105
1747	1.7373e+02	-5.2196	-51.495685	0.000507	5.067301	0.858424	0.000101
1748	1.7383e+02	-5.1984	-51.414942	0.000405	4.053841	0.686739	0.000081
1749	1.7393e+02	-5.1797	-51.342274	0.000365	3.648457	0.618065	0.000073
1750	1.7403e+02	-5.1588	-51.221160	0.000608	6.080761	1.030109	0.000122
1751	1.7413e+02	-5.1393	-51.152528	0.000345	3.445765	0.583728	0.000069
1752	1.7422e+02	-5.1193	-51.055637	0.000486	4.864609	0.824087	0.000097
1753	1.7432e+02	-5.0989	-50.978932	0.000385	3.851149	0.652402	0.000077
1754	1.7442e+02	-5.0800	-50.882040	0.000486	4.864609	0.824087	0.000097
1755	1.7452e+02	-5.0591	-50.748815	0.000669	6.688838	1.133120	0.000134
1756	1.7462e+02	-5.0395	-50.708443	0.000203	2.026920	0.343370	0.000041
1757	1.7472e+02	-5.0195	-50.591367	0.000588	5.878069	0.995772	0.000118
1758	1.7482e+02	-4.9995	-50.478327	0.000568	5.675377	0.961435	0.000114
1759	1.7492e+02	-4.9799	-50.441992	0.000182	1.824228	0.309033	0.000037
1760	1.7502e+02	-4.9603	-50.320878	0.000608	6.080761	1.030109	0.000122
1761	1.7512e+02	-4.9409	-50.256284	0.000324	3.243073	0.549391	0.000065
1762	1.7522e+02	-4.9203	-50.155356	0.000507	5.067301	0.858424	0.000101
1763	1.7532e+02	-4.8995	-50.050390	0.000527	5.269993	0.892761	0.000105
1764	1.7542e+02	-4.8792	-49.977722	0.000365	3.648457	0.618065	0.000073
1765	1.7552e+02	-4.8599	-49.868719	0.000547	5.472685	0.927098	0.000110
1766	1.7562e+02	-4.8396	-49.775865	0.000466	4.661917	0.789750	0.000093
1767	1.7572e+02	-4.8208	-49.670900	0.000527	5.269993	0.892761	0.000105
1768	1.7582e+02	-4.8016	-49.578045	0.000466	4.661917	0.789750	0.000093
1769	1.7592e+02	-4.7797	-49.493266	0.000426	4.256533	0.721076	0.000085
1770	1.7602e+02	-4.7606	-49.400411	0.000466	4.661917	0.789750	0.000093
1771	1.7612e+02	-4.7403	-49.291409	0.000547	5.472685	0.927098	0.000110
1772	1.7621e+02	-4.7206	-49.202592	0.000446	4.459225	0.755413	0.000089
1773	1.7631e+02	-4.7003	-49.137998	0.000324	3.243073	0.549391	0.000065
1774	1.7641e+02	-4.6822	-49.008809	0.000649	6.486146	1.098783	0.000130
1775	1.7651e+02	-4.6612	-48.932104	0.000385	3.851149	0.652402	0.000077
1776	1.7661e+02	-4.6414	-48.839250	0.000466	4.661917	0.789750	0.000093
1777	1.7671e+02	-4.6214	-48.750433	0.000446	4.459225	0.755413	0.000089
1778	1.7681e+02	-4.6014	-48.617207	0.000669	6.688838	1.133120	0.000134
1779	1.7691e+02	-4.5818	-48.536464	0.000405	4.053841	0.686739	0.000081
1780	1.7701e+02	-4.5605	-48.455722	0.000405	4.053841	0.686739	0.000081
1781	1.7711e+02	-4.5410	-48.346719	0.000547	5.472685	0.927098	0.000110
1782	1.7721e+02	-4.5210	-48.253865	0.000466	4.661917	0.789750	0.000093
1783	1.7731e+02	-4.5010	-48.144862	0.000547	5.472685	0.927098	0.000110
1784	1.7741e+02	-4.4812	-48.080268	0.000324	3.243073	0.549391	0.000065
1785	1.7751e+02	-4.4611	-47.943005	0.000689	6.891530	1.167457	0.000138
1786	1.7761e+02	-4.4417	-47.850151	0.000466	4.661917	0.789750	0.000093
1787	1.7771e+02	-4.4215	-47.773446	0.000385	3.851149	0.652402	0.000077
1788	1.7781e+02	-4.4019	-47.680592	0.000466	4.661917	0.789750	0.000093
1789	1.7791e+02	-4.3823	-47.559478	0.000608	6.080761	1.030109	0.000122
1790	1.7801e+02	-4.3614	-47.474698	0.000426	4.256533	0.721076	0.000085
1791	1.7810e+02	-4.3426	-47.357621	0.000588	5.878069	0.995772	0.000118
1792	1.7820e+02	-4.3221	-47.288989	0.000345	3.445765	0.583728	0.000069
1793	1.7830e+02	-4.3019	-47.184024	0.000527	5.269993	0.892761	0.000105
1794	1.7840e+02	-4.2830	-47.066947	0.000588	5.878069	0.995772	0.000118
1795	1.7850e+02	-4.2627	-46.982167	0.000426	4.256533	0.721076	0.000085
1796	1.7860e+02	-4.2422	-46.877202	0.000527	5.269993	0.892761	0.000105
1797	1.7870e+02	-4.2220	-46.776273	0.000507	5.067301	0.858424	0.000101
1798	1.7880e+02	-4.2036	-46.671308	0.000527	5.269993	0.892761	0.000105
1799	1.7890e+02	-4.1821	-46.578454	0.000466	4.661917	0.789750	0.000093
1800	1.7900e+02	-4.1624	-46.501748	0.000385	3.851149	0.652402	0.000077
1801	1.7910e+02	-4.1425	-46.372560	0.000649	6.486146	1.098783	0.000130
1802	1.7920e+02	-4.1232	-46.279706	0.000466	4.661917	0.789750	0.000093
1803	1.7930e+02	-4.1025	-46.178777	0.000507	5.067301	0.858424	0.000101
1804	1.7940e+02	-4.0829	-46.057663	0.000608	6.080761	1.030109	0.000122
1805	1.7950e+02	-4.0628	-46.001143	0.000284	2.837689	0.480717	0.000057
1806	1.7960e+02	-4.0430	-45.884066	0.000588	5.878069	0.995772	0.000118
1807	1.7970e+02	-4.0240	-45.750841	0.000669	6.688838	1.133120	0.000134
1808	1.7980e+02	-4.0039	-45.690284	0.000304	3.040381	0.515054	0.000061
1809	1.7990e+02	-3.9824	-45.577244	0.000568	5.675377	0.961435	0.000114
1810	1.8000e+02	-3.9639	-45.468241	0.000547	5.472685	0.927098	0.000110
1811	1.8009e+02	-3.9433	-45.395573	0.000365	3.648457	0.618065	0.000073
1812	1.8019e+02	-3.9236	-45.262347	0.000669	6.688838	1.133120	0.000134
1813	1.8029e+02	-3.9037	-45.209865	0.000263	2.634997	0.446381	0.000053
1814	1.8039e+02	-3.8837	-45.060491	0.000750	7.499606	1.270468	0.000150
1815	1.8049e+02	-3.8634	-44.955525	0.000527	5.269993	0.892761	0.000105
1816	1.8059e+02	-3.8430	-44.834411	0.000608	6.080761	1.030109	0.000122
1817	1.8069e+02	-3.8230	-44.769817	0.000324	3.243073	0.549391	0.000065
1818	1.8079e+02	-3.8029	-44.681000	0.000446	4.459225	0.755413	0.000089
1819	1.8089e+02	-3.7838	-44.567960	0.000568	5.675377	0.961435	0.000114
1820	1.8099e+02	-3.7642	-44.450883	0.000588	5.878069	0.995772	0.000118
1821	1.8109e+02	-3.7450	-44.358029	0.000466	4.661917	0.789750	0.000093
1822	1.8119e+02	-3.7244	-44.281323	0.000385	3.851149	0.652402	0.000077
1823	1.8129e+02	-3.7035	-44.131949	0.000750	7.499606	1.270468	0.000150
1824	1.8139e+02	-3.6846	-44.031021	0.000507	5.067301	0.858424	0.000101
1825	1.8149e+02	-3.6652	-43.938167	0.000466	4.661917	0.789750	0.000093
1826	1.8159e+02	-3.6456	-43.841276	0.000486	4.864609	0.824087	0.000097
1827	1.8169e+02	-3.6253	-43.728236	0.000568	5.675377	0.961435	0.000114
1828	1.8179e+02	-3.6047	-43.590973	0.000689	6.891530	1.167457	0.000138
1829	1.8189e+02	-3.5845	-43.530416	0.000304	3.040381	0.515054	0.000061
1830	1.8199e+02	-3.5654	-43.409302	0.000608	6.080761	1.030109	0.000122
1831	1.8209e+02	-3.5454	-43.272039	0.000689	6.891530	1.167457	0.000138
1832	1.8218e+02	-3.5253	-43.175148	0.000486	4.864609	0.824087	0.000097
1833	1.8228e+02	-3.5051	-43.086331	0.000446	4.459225	0.755413	0.000089
1834	1.8238e+02	-3.4854	-42.973291	0.000568	5.675377	0.961435	0.000114
1835	1.8248e+02	-3.4660	-42.848140	0.000628	6.283454	1.064446	0.000126
1836	1.8258e+02	-3.4467	-42.775472	0.000365	3.648457	0.618065	0.000073
1837	1.8268e+02	-3.4253	-42.634172	0.000709	7.094222	1.201794	0.000142
1838	1.8278e+02	-3.4059	-42.496909	0.000689	6.891530	1.167457	0.000138
1839	1.8288e+02	-3.3861	-42.440389	0.000284	2.837689	0.480717	0.000057
1840	1.8298e+02	-3.3657	-42.319275	0.000608	6.080761	1.030109	0.000122
1841	1.8308e+02	-3.3459	-42.186050	0.000669	6.688838	1.133120	0.000134
1842	1.8318e+02	-3.3267	-42.089159	0.000486	4.864609	0.824087	0.000097
1843	1.8328e+02	-3.3065	-42.032639	0.000284	2.837689	0.480717	0.000057
1844	1.8338e+02	-3.2858	-41.899413	0.000669	6.688838	1.133120	0.000134
1845	1.8348e+02	-3.2661	-41.786373	0.000568	5.675377	0.961435	0.000114
1846	1.8358e+02	-3.2466	-41.697556	0.000446	4.459225	0.755413	0.000089
1847	1.8368e+02	-3.2265	-41.564331	0.000669	6.688838	1.133120	0.000134
1848	1.8378e+02	-3.2057	-41.463403	0.000507	5.067301	0.858424	0.000101
1849	1.8388e+02	-3.1859	-41.334214	0.000649	6.486146	1.098783	0.000130
1850	1.8398e+02	-3.1667	-41.225212	0.000547	5.472685	0.927098	0.000110
1851	1.8407e+02	-3.1467	-41.100060	0.000628	6.283454	1.064446	0.000126
1852	1.8417e+02	-3.1268	-41.007206	0.000466	4.661917	0.789750	0.000093
1853	1.8427e+02	-3.1075	-40.934538	0.000365	3.648457	0.618065	0.000073
1854	1.8437e+02	-3.0872	-40.789201	0.000730	7.296914	1.236131	0.000146
1855	1.8447e+02	-3.0672	-40.704421	0.000426	4.256533	0.721076	0.000085
1856	1.8457e+02	-3.0464	-40.563121	0.000709	7.094222	1.201794	0.000142
1857	1.8467e+02	-3.0267	-40.433933	0.000649	6.486146	1.098783	0.000130
1858	1.8477e+02	-3.0077	-40.369339	0.000324	3.243073	0.549391	0.000065
1859	1.8487e+02	-2.9877	-40.248225	0.000608	6.080761	1.030109	0.000122
1860	1.8497e+02	-2.9672	-40.131148	0.000588	5.878069	0.995772	0.000118
1861	1.8507e+02	-2.9470	-40.038294	0.000466	4.661917	0.789750	0.000093
1862	1.8517e+02	-2.9276	-39.892957	0.000730	7.296914	1.236131	0.000146
1863	1.8527e+02	-2.9072	-39.779917	0.000568	5.675377	0.961435	0.000114
1864	1.8537e+02	-2.8877	-39.674951	0.000527	5.269993	0.892761	0.000105
1865	1.8547e+02	-2.8671	-39.574023	0.000507	5.067301	0.858424	0.000101
1866	1.8557e+02	-2.8477	-39.489243	0.000426	4.256533	0.721076	0.000085
1867	1.8567e+02	-2.8276	-39.319684	0.000851	8.513066	1.442152	0.000170
1868	1.8577e+02	-2.8083	-39.271238	0.000243	2.432305	0.412044	0.000049
1869	1.8587e+02	-2.7874	-39.101678	0.000851	8.513066	1.442152	0.000170
1870	1.8597e+02	-2.7685	-39.008824	0.000466	4.661917	0.789750	0.000093
1871	1.8606e+02	-2.7472	-38.928081	0.000405	4.053841	0.686739	0.000081
1872	1.8616e+02	-2.7274	-38.750447	0.000892	8.918450	1.510826	0.000179
1873	1.8626e+02	-2.7078	-38.677779	0.000365	3.648457	0.618065	0.000073
1874	1.8636e+02	-2.6886	-38.556665	0.000608	6.080761	1.030109	0.000122
1875	1.8646e+02	-2.6686	-38.488034	0.000345	3.445765	0.583728	0.000069
1876	1.8656e+02	-2.6479	-38.358845	0.000649	6.486146	1.098783	0.000130
1877	1.8666e+02	-2.6285	-38.257917	0.000507	5.067301	0.858424	0.000101
1878	1.8676e+02	-2.6083	-38.072209	0.000932	9.323834	1.579500	0.000187
1879	1.8686e+02	-2.5894	-37.999540	0.000365	3.648457	0.618065	0.000073
1880	1.8696e+02	-2.5680	-37.906686	0.000466	4.661917	0.789750	0.000093
1881	1.8706e+02	-2.5491	-37.789609	0.000588	5.878069	0.995772	0.000118
1882	1.8716e+02	-2.5287	-37.688681	0.000507	5.067301	0.858424	0.000101
1883	1.8726e+02	-2.5088	-37.559492	0.000649	6.486146	1.098783	0.000130
1884	1.8736e+02	-2.4896	-37.414155	0.000730	7.296914	1.236131	0.000146
1885	1.8746e+02	-2.4690	-37.313227	0.000507	5.067301	0.858424	0.000101
1886	1.8756e+02	-2.4496	-37.212299	0.000507	5.067301	0.858424	0.000101
1887	1.8766e+02	-2.4297	-37.103296	0.000547	5.472685	0.927098	0.000110
1888	1.8776e+02	-2.4102	-36.994293	0.000547	5.472685	0.927098	0.000110
1889	1.8786e+02	-2.3902	-36.881254	0.000568	5.675377	0.961435	0.000114
1890	1.8796e+02	-2.3699	-36.748028	0.000669	6.688838	1.133120	0.000134
1891	1.8806e+02	-2.3502	-36.671322	0.000385	3.851149	0.652402	0.000077
1892	1.8815e+02	-2.3303	-36.501763	0.000851	8.513066	1.442152	0.000170
1893	1.8825e+02	-2.3103	-36.392760	0.000547	5.472685	0.927098	0.000110
1894	1.8835e+02	-2.2904	-36.295869	0.000486	4.864609	0.824087	0.000097
1895	1.8845e+02	-2.2696	-36.174755	0.000608	6.080761	1.030109	0.000122
1896	1.8855e+02	-2.2507	-36.077864	0.000486	4.864609	0.824087	0.000097
1897	1.8865e+02	-2.2308	-35.960787	0.000588	5.878069	0.995772	0.000118
1898	1.8875e+02	-2.2104	-35.851784	0.000547	5.472685	0.927098	0.000110
1899	1.8885e+02	-2.1906	-35.722596	0.000649	6.486146	1.098783	0.000130
1900	1.8895e+02	-2.1704	-35.609556	0.000568	5.675377	0.961435	0.000114
1901	1.8905e+02	-2.1502	-35.536887	0.000365	3.648457	0.618065	0.000073
1902	1.8915e+02	-2.1310	-35.379439	0.000790	7.904990	1.339142	0.000158
1903	1.8925e+02	-2.1123	-35.254288	0.000628	6.283454	1.064446	0.000126
1904	1.8935e+02	-2.0898	-35.108951	0.000730	7.296914	1.236131	0.000146
1905	1.8945e+02	-2.0709	-35.036283	0.000365	3.648457	0.618065	0.000073
1906	1.8955e+02	-2.0519	-34.894983	0.000709	7.094222	1.201794	0.000142
1907	1.8965e+02	-2.0309	-34.798091	0.000486	4.864609	0.824087	0.000097
1908	1.8975e+02	-2.0110	-34.668903	0.000649	6.486146	1.098783	0.000130
1909	1.8985e+02	-1.9934	-34.523566	0.000730	7.296914	1.236131	0.000146
1910	1.8995e+02	-1.9713	-34.438786	0.000426	4.256533	0.721076	0.000085
1911	1.9004e+02	-1.9516	-34.301524	0.000689	6.891530	1.167457	0.000138
1912	1.9014e+02	-1.9315	-34.204633	0.000486	4.864609	0.824087	0.000097
1913	1.9024e+02	-1.9111	-34.111778	0.000466	4.661917	0.789750	0.000093
1914	1.9034e+02	-1.8918	-33.950293	0.000811	8.107682	1.373479	0.000162
1915	1.9044e+02	-1.8724	-33.833216	0.000588	5.878069	0.995772	0.000118
1916	1.9054e+02	-1.8520	-33.756510	0.000385	3.851149	0.652402	0.000077
1917	1.9064e+02	-1.8323	-33.615211	0.000709	7.094222	1.201794	0.000142
1918	1.9074e+02	-1.8125	-33.510245	0.000527	5.269993	0.892761	0.000105
1919	1.9084e+02	-1.7918	-33.425465	0.000426	4.256533	0.721076	0.000085
1920	1.9094e+02	-1.7719	-33.284166	0.000709	7.094222	1.201794	0.000142
1921	1.9104e+02	-1.7520	-33.150940	0.000669	6.688838	1.133120	0.000134
1922	1.9114e+02	-1.7324	-33.062123	0.000446	4.459225	0.755413	0.000089
1923	1.9124e+02	-1.7122	-32.949083	0.000568	5.675377	0.961435	0.000114
1924	1.9134e+02	-1.6916	-32.795672	0.000770	7.702298	1.304805	0.000154
1925	1.9144e+02	-1.6733	-32.714929	0.000405	4.053841	0.686739	0.000081
1926	1.9154e+02	-1.6524	-32.614001	0.000507	5.067301	0.858424	0.000101
1927	1.9164e+02	-1.6322	-32.476738	0.000689	6.891530	1.167457	0.000138
1928	1.9174e+02	-1.6125	-32.383884	0.000466	4.661917	0.789750	0.000093
1929	1.9184e+02	-1.5924	-32.270845	0.000568	5.675377	0.961435	0.000114
1930	1.9194e+02	-1.5726	-32.141656	0.000649	6.486146	1.098783	0.000130
1931	1.9203e+02	-1.5533	-32.004394	0.000689	6.891530	1.167457	0.000138
1932	1.9213e+02	-1.5337	-31.887317	0.000588	5.878069	0.995772	0.000118
1933	1.9223e+02	-1.5125	-31.822722	0.000324	3.243073	0.549391	0.000065
1934	1.9233e+02	-1.4930	-31.665274	0.000790	7.904990	1.339142	0.000158
1935	1.9243e+02	-1.4734	-31.552234	0.000568	5.675377	0.961435	0.000114
1936	1.9253e+02	-1.4536	-31.447269	0.000527	5.269993	0.892761	0.000105
1937	1.9263e+02	-1.4329	-31.342303	0.000527	5.269993	0.892761	0.000105
1938	1.9273e+02	-1.4128	-31.233301	0.000547	5.472685	0.927098	0.000110
1939	1.9283e+02	-1.3946	-31.116224	0.000588	5.878069	0.995772	0.000118
1940	1.9293e+02	-1.3731	-30.982998	0.000669	6.688838	1.133120	0.000134
1941	1.9303e+02	-1.3534	-30.857847	0.000628	6.283454	1.064446	0.000126
1942	1.9313e+02	-1.3345	-30.732696	0.000628	6.283454	1.064446	0.000126
1943	1.9323e+02	-1.3132	-30.623693	0.000547	5.472685	0.927098	0.000110
1944	1.9333e+02	-1.2939	-30.478356	0.000730	7.296914	1.236131	0.000146
1945	1.9343e+02	-1.2732	-30.373391	0.000527	5.269993	0.892761	0.000105
1946	1.9353e+02	-1.2556	-30.284574	0.000446	4.459225	0.755413	0.000089
1947	1.9363e+02	-1.2341	-30.151348	0.000669	6.688838	1.133120	0.000134
1948	1.9373e+02	-1.2148	-30.034271	0.000588	5.878069	0.995772	0.000118
1949	1.9383e+02	-1.1943	-29.941417	0.000466	4.661917	0.789750	0.000093
1950	1.9393e+02	-1.1742	-29.755709	0.000932	9.323834	1.579500	0.000187
1951	1.9403e+02	-1.1552	-29.658818	0.000486	4.864609	0.824087	0.000097
1952	1.9412e+02	-1.1346	-29.578075	0.000405	4.053841	0.686739	0.000081
1953	1.9422e+02	-1.1143	-29.412552	0.000831	8.310374	1.407815	0.000166
1954	1.9432e+02	-1.0955	-29.295475	0.000588	5.878069	0.995772	0.000118
1955	1.9442e+02	-1.0751	-29.230881	0.000324	3.243073	0.549391	0.000065
1956	1.9452e+02	-1.0548	-29.097656	0.000669	6.688838	1.133120	0.000134
1957	1.9462e+02	-1.0353	-28.960393	0.000689	6.891530	1.167457	0.000138
1958	1.9472e+02	-1.0152	-28.867539	0.000466	4.661917	0.789750	0.000093
1959	1.9482e+02	-0.9958	-28.734314	0.000669	6.688838	1.133120	0.000134
1960	1.9492e+02	-0.9747	-28.605125	0.000649	6.486146	1.098783	0.000130
1961	1.9502e+02	-0.9550	-28.451714	0.000770	7.702298	1.304805	0.000154
1962	1.9512e+02	-0.9354	-28.350786	0.000507	5.067301	0.858424	0.000101
1963	1.9522e+02	-0.9161	-28.221597	0.000649	6.486146	1.098783	0.000130
1964	1.9532e+02	-0.8952	-28.084335	0.000689	6.891530	1.167457	0.000138
1965	1.9542e+02	-0.8761	-27.999555	0.000426	4.256533	0.721076	0.000085
1966	1.9552e+02	-0.8563	-27.886515	0.000568	5.675377	0.961435	0.000114
1967	1.9562e+02	-0.8356	-27.749252	0.000689	6.891530	1.167457	0.000138
1968	1.9572e+02	-0.8154	-27.640250	0.000547	5.472685	0.927098	0.000110
1969	1.9582e+02	-0.7959	-27.482802	0.000790	7.904990	1.339142	0.000158
1970	1.9592e+02	-0.7762	-27.406096	0.000385	3.851149	0.652402	0.000077
1971	1.9601e+02	-0.7564	-27.260759	0.000730	7.296914	1.236131	0.000146
1972	1.9611e+02	-0.7356	-27.143682	0.000588	5.878069	0.995772	0.000118
1973	1.9621e+02	-0.7160	-27.071014	0.000365	3.648457	0.618065	0.000073
1974	1.9631e+02	-0.6961	-26.885305	0.000932	9.323834	1.579500	0.000187
1975	1.9641e+02	-0.6791	-26.853008	0.000162	1.621536	0.274696	0.000032
1976	1.9651e+02	-0.6563	-26.679412	0.000872	8.715758	1.476489	0.000174
1977	1.9661e+02	-0.6363	-26.558297	0.000608	6.080761	1.030109	0.000122
1978	1.9671e+02	-0.6177	-26.449295	0.000547	5.472685	0.927098	0.000110
1979	1.9681e+02	-0.5966	-26.328181	0.000608	6.080761	1.030109	0.000122
1980	1.9691e+02	-0.5771	-26.194955	0.000669	6.688838	1.133120	0.000134
1981	1.9701e+02	-0.5572	-26.077878	0.000588	5.878069	0.995772	0.000118
1982	1.9711e+02	-0.5367	-25.956764	0.000608	6.080761	1.030109	0.000122
1983	1.9721e+02	-0.5167	-25.859873	0.000486	4.864609	0.824087	0.000097
1984	1.9731e+02	-0.4979	-25.722610	0.000689	6.891530	1.167457	0.000138
1985	1.9741e+02	-0.4767	-25.589385	0.000669	6.688838	1.133120	0.000134
1986	1.9751e+02	-0.4568	-25.476345	0.000568	5.675377	0.961435	0.000114
1987	1.9761e+02	-0.4373	-25.383491	0.000466	4.661917	0.789750	0.000093
1988	1.9771e+02	-0.4183	-25.254303	0.000649	6.486146	1.098783	0.000130
1989	1.9781e+02	-0.3970	-25.125114	0.000649	6.486146	1.098783	0.000130
1990	1.9791e+02	-0.3773	-24.979777	0.000730	7.296914	1.236131	0.000146
1991	1.9800e+02	-0.3573	-24.882886	0.000486	4.864609	0.824087	0.000097
1992	1.9810e+02	-0.3374	-24.737549	0.000730	7.296914	1.236131	0.000146
1993	1.9820e+02	-0.3174	-24.636621	0.000507	5.067301	0.858424	0.000101
1994	1.9830e+02	-0.2983	-24.519544	0.000588	5.878069	0.995772	0.000118
1995	1.9840e+02	-0.2782	-24.394393	0.000628	6.283454	1.064446	0.000126
1996	1.9850e+02	-0.2575	-24.285390	0.000547	5.472685	0.927098	0.000110
1997	1.9860e+02	-0.2381	-24.136016	0.000750	7.499606	1.270468	0.000150
1998	1.9870e+02	-0.2177	-24.002791	0.000669	6.688838	1.133120	0.000134
1999	1.9880e+02	-0.1984	-23.877639	0.000628	6.283454	1.064446	0.000126
2000	1.9890e+02	-0.1772	-23.748451	0.000649	6.486146	1.098783	0.000130
2001	1.9900e+02	-0.1580	-23.635411	0.000568	5.675377	0.961435	0.000114
2002	1.9910e+02	-0.1376	-23.494111	0.000709	7.094222	1.201794	0.000142
2003	1.9920e+02	-0.1181	-23.433554	0.000304	3.040381	0.515054	0.000061
2004	1.9930e+02	-0.0988	-23.272069	0.000811	8.107682	1.373479	0.000162
2005	1.9940e+02	-0.0784	-23.171141	0.000507	5.067301	0.858424	0.000101
2006	1.9950e+02	-0.0593	-23.021767	0.000750	7.499606	1.270468	0.000150
2007	1.9960e+02	-0.0388	-22.876430	0.000730	7.296914	1.236131	0.000146
2008	1.9970e+02	-0.0182	-22.775501	0.000507	5.067301	0.858424	0.000101
2009	1.9980e+02	0.0000	-22.650350	0.000507	5.067301	0.858424	0.000126

PMax (uC/cm2):	5.17e+01
Pr (uC/cm2):	3.54e+00
-Pr (uC/cm2):	-3.58e+01
PLoss (uC/cm2):	-3.58e+01
-Vc:	-5.78e-01
C (Max-Eff) (nF):	5.17e-01
K (Eff):	8.75e+02
Vert. (+/-Pr) Shift (uC/cm2):	-1.61e+01
Offset (uC/cm2):	-1.31e+01

A (Loop Area - uC/cm2·Volts):	-9.11e-02



Hysteresis Version: 5.48.1 - Radiant Technologies, Inc., 1999 - 9/12/24

